Timestamp,Ax,Ay,Az,P,Value,Type
0.0,-8.099418,5.500936,0.39477864,1005.9612400000001,0,0
0.04,-8.24574,5.700734,-0.6453083000000001,1005.9892,0,0
0.08,-7.9733243,5.4671736,-0.9293756,1005.9939,0,0
0.12,-8.336622,5.319411,-0.08665462,1006.00903,0,0
0.16,-8.1645775,5.572039,-0.30443987,1006.02185,0,0
0.2,-7.691412400000001,5.805601599999999,-0.025113218,1006.0235,0,0
0.24,-7.744022,5.829435299999999,0.17372894,1006.0591,0,0
0.28,-7.710594,6.0248647,-0.5174969,1006.0422,0,0
0.32,-7.9782963,5.8771024,-0.6879386,1006.01904,0,0
0.36,-7.873175,5.953368,-0.29498613,1006.0349,0,0
0.4,-7.6533337,5.8580375,-0.19556633,1006.01184,0,0
0.44,-7.705946000000001,5.7531742999999995,-0.08667818,1006.0093400000001,0,0
0.48,-7.772157000000001,5.8294215,-0.27598968,1006.0098,0,0
0.52,-7.667005499999999,6.0343839999999975,-0.12922356,1006.0098,0,0
0.56,-7.8677600000000005,5.986718700000001,-0.06294222,1006.0147,0,0
0.6,-7.6192145,6.158314,-0.0013952889,1006.0374,0,0
0.64,-7.8629884999999975,5.9199867,-0.006130020999999999,1006.03546,0,0
0.68,-7.963367999999999,5.853255,0.017541671,1006.0155,0,0
0.72,-7.7626195000000004,5.8580213,-0.11502203,1006.0274,0,0
0.76,-7.638348599999999,5.8341894,-0.46536827,1006.01495,0,0
0.8,-7.652692299999999,5.772224,-0.79204255,1006.0174599999999,0,0
0.84,-8.121117,5.519596,-0.6689484,1006.0231,0,0
0.88,-8.173697,5.5720279999999995,-0.5458542,1006.02075,0,0
0.92,-7.9394913,5.633994,-0.43222886,1006.01807,0,0
0.96,-7.9538345,5.6911926,-0.38015077,1006.0056,0,0
1.0,-7.7148485,5.8484898,0.06014856,1006.02075,0,0
1.04,-7.6479344,5.8055900000000005,0.24478999,1006.01807,0,0
1.08,-7.5141034,6.148782700000001,0.19271122,1006.00323,0,0
1.12,-7.619262700000001,5.991486,-0.07715019599999999,1006.01575,0,0
1.16,-7.8295784,6.0057864,0.041209564,1006.03314,0,0
1.2,-7.86782,5.97242,-0.048744444000000005,1006.0210599999999,0,0
1.24,-7.7100906,6.0677514000000015,-0.07241684,1006.01855,0,0
1.28,-7.733992999999999,6.0582185,-0.13869882,1006.0595,0,0
1.32,-7.781794500000001,5.98672,-0.025073431,1005.9816,0,0
1.36,-7.671863,5.910454799999999,0.088551894,1006.0342400000001,0,0
1.4,-7.7148857,5.915222,-0.20971587,1006.00146,0,0
1.44,-7.6479716,6.053452,-0.39909244,1006.0671,0,0
1.48,-7.6488724,6.1488055999999975,-0.13404822,1006.04926,0,0
1.52,-7.534196400000001,6.225071400000001,0.055324353,1006.04706,0,0
1.56,-7.60115,6.167873999999999,0.097930655,1006.0318599999999,0,0
1.6,-7.4291167,6.2775050000000014,0.21628714,1006.0298,0,0
1.64,-7.099347,6.406203,0.107392475,1006.03754,0,0
1.68,-6.6787663,6.8542604,0.28256163,1006.0599,0,0
1.72,-6.841316,6.9972587,0.22574541,1005.99695,0,0
1.76,-7.2380770000000005,6.687433,-0.12460394,1006.02295,0,0
1.8,-7.410189599999999,6.296576,-0.7164081999999999,1005.995,0,0
1.84,-8.069841,5.762723,-0.59805155,1006.0397,0,0
1.88,-7.6253566999999975,5.6292599999999995,-0.9199944,1006.0428,0,0
1.92,-7.534579799999999,5.3194346,-1.1472496,1006.0249,0,0
1.96,-8.25159,5.0477419999999995,-0.63593733,1006.0201400000001,0,0
2.0,-7.5059795,5.4767337,-0.8158484,1006.0105,0,0
2.04,-7.8119235,5.5339327,-0.105691046,1006.04083,0,0
2.08,-8.256485000000001,5.219341,0.5239812,1006.0528,0,0
2.12,-7.5204315,5.4767356,0.46716493,1006.00543,0,0
2.16,-7.988894,5.5673018,-0.12463948,1006.0406,0,0
2.2,-8.323514999999999,6.005825499999999,-0.5318014,1006.0437,0,0
2.24,-8.428709,6.3633184,-1.0005110000000002,1006.0334,0,0
2.28,-8.156302,6.4300510000000015,-0.7590603,1006.05365,0,0
2.32,-8.682117,6.001062,-0.06310615,1006.0567599999999,0,0
2.36,-8.008204,5.796101,0.13100086,1006.0334,0,0
2.4,-7.128761,5.843767,0.13573164,1006.0437,0,0
2.44,-7.147919,5.886668,-0.11992982,1006.06464,0,0
2.48,-8.021861999999999,5.595888599999999,0.12159447,1006.0699,0,0
2.52,-7.9453936,5.557757,-0.18614256,1006.087,0,0
2.56,-8.217849000000001,5.5100913,-0.5364890999999999,1006.0596,0,0
2.6,-8.662379,5.2622304,-0.21455045,1006.0362,0,0
2.64,-8.394718,5.3813949999999995,0.050575454000000006,1006.0242,0,0
2.68,-7.9645449999999975,5.3909283,0.24468535,1006.0347,0,0
2.72,-7.739900599999999,5.5243917,0.4198577,1006.0621,0,0
2.76,-7.8402824,5.3766284,0.055307977,1006.05725,0,0
2.8,-8.107961,5.243165,-0.12460023,1006.0341,0,0
2.84,-8.332616999999999,4.9762383,-0.06305349,1006.0699,0,0
2.88,-8.542936,4.933339,0.18313487,1006.0469400000001,0,0
2.92,-8.337411999999999,4.9762387000000015,0.18786858,1006.0749,0,0
2.96,-8.237044000000001,5.367097,0.02216358,1006.0527,0,0
3.0,-8.557298,5.3480300000000005,0.022163047999999998,1006.0419300000001,0,0
3.04,-8.748499,5.3051314000000005,-0.16721395,1006.04974,0,0
3.08,-8.762846000000001,5.9009514,-0.034651365,1006.0477,0,0
3.12,-7.5392246,6.129746,-0.21929382,1006.0676,0,0
3.16,-7.845138499999999,5.715056,0.06476985,1006.0527,0,0
3.2,-8.829786,5.3670974000000005,0.18312919,1006.05023,0,0
3.24,-8.504766,5.386164,-0.006247676999999999,1006.0798300000001,0,0
3.28,-8.605149,5.5005616999999996,-0.34712540000000003,1006.02264,0,0
3.32,-8.1988735,5.4719625,-0.24296926,1006.0601,0,0
3.36,-7.8069377000000015,5.481495400000001,-0.44654940000000004,1006.0378,0,0
3.4,-7.539275999999999,5.3099,-0.37079948,1006.045,0,0
3.44,-8.060282,4.7569795,0.14524993,1006.05,0,0
3.48,-8.189504,4.4185576,-0.0015319698,1006.03754,0,0
3.52,-8.017446000000001,4.7188516,-0.1246278,1006.0575,0,0
3.56,-8.6531725,5.3289714,0.7275638000000001,1006.0832,0,0
3.6,-8.113068,5.6959963,0.65181226,1006.05,0,0
3.64,-7.8836517000000015,5.3766370000000006,0.4103562,1006.0729,0,0
3.68,-9.102514999999999,4.5091243,0.34407329999999997,1006.045,0,0
3.72,-9.030832,4.137333,-0.43710479999999996,1006.0425,0,0
3.76,-9.150341000000001,4.080135,-0.43237165,1006.0552,0,0
3.8,-8.796649,4.423327,-0.4039664,1006.0353,0,0
3.84,-8.113151,4.9381156,-0.27613866,1006.06573,0,0
3.88,-7.7546789999999985,5.20981,0.12155001,1006.0651,0,0
3.92,-8.046261999999999,5.152611299999999,0.088407815,1006.0751,0,0
3.96,-8.146651,4.885685,-0.44184670000000004,1006.0651,0,0
4.0,-9.379852,4.4185620000000005,-0.6501617,1006.0504,0,0
4.04,-9.140875999999999,4.2946324,-1.1709473999999995,1006.0455300000001,0,0
4.08,-8.830204,4.4042635,-0.811134,1006.04803,0,0
4.12,-8.404815,4.4709959999999995,-0.6548999,1006.0554,0,0
4.16,-8.051122,4.5663266,-0.89635575,1006.0328,0,0
4.2,-8.21843,4.1754694,-0.7353871999999999,1006.0527,0,0
4.24,-8.677304,4.03724,-0.6785757,1006.05023,0,0
4.28,-8.648639999999999,4.280334,-1.6159891000000002,1006.0527,0,0
4.32,-8.873302,4.3566,-1.0336584,1006.0746,0,0
4.36,-8.706024000000001,4.1278057,-0.7211890000000001,1006.0428,0,0
4.4,-8.729935000000001,4.5663285,-0.73539335,1006.0575,0,0
4.44,-8.74429,4.5949287000000005,-0.23828237,1006.04803,0,0
4.48,-8.519364,4.4995910000000015,-0.23352279,1006.0431,0,0
4.52,-9.408411,3.984803,-0.28086704,1006.0475,0,0
4.56,-8.720121,4.313695,-0.7353701,1006.0875,0,0
4.6,-8.514593,4.1992974,-1.0904508,1006.06464,0,0
4.64,-8.160891000000001,4.466225,-1.3981873,1006.0745,0,0
4.68,-8.180012,4.151632299999998,-1.1425296999999999,1006.0621,0,0
4.72,-8.371205999999999,4.428093,-1.2324836000000001,1006.06714,0,0
4.76,-8.610199,4.4185596,-1.0999205,1006.0267,0,0
4.8,-8.748816,4.4900584000000014,-1.2182808,1006.05475,0,0
4.84,-9.045166,4.4519258000000015,-1.0573114,1006.0269999999999,0,0
4.88,-8.877874,4.246964,-1.1472653,1006.0447,0,0
4.92,-8.815741000000003,4.261263400000002,-0.9247484,1006.04724,0,0
4.96,-8.65801,4.470992,-1.1662033,1006.0419,0,0
5.0,-8.677131,4.308929,-1.1093906999999998,1006.05475,0,0
5.04,-8.605436,4.461459,-0.88687384,1006.0419,0,0
5.08,-8.218275,4.518658,-1.23722,1006.06964,0,0
5.12,-8.576761999999999,4.718853500000002,-1.0052345,1006.0575,0,0
5.16,-8.46683,4.799885,-0.9105465,1006.04425,0,0
5.2,-8.376016,4.9428816,-0.94842196,1006.0465,0,0
5.24,-8.767961999999999,5.0525126,-0.92948455,1006.0359,0,0
5.28,-8.686708,4.9142823,-0.7353742,1006.05365,0,0
5.32,-8.576775999999999,4.995314,-0.76378095,1006.00854,0,0
5.36,-8.748851,4.928582,-0.550733,1006.0515,0,0
5.4,-8.471623,4.7855854,-0.7306406,1006.0667,0,0
5.44,-8.88747,4.6139894,-0.5886085999999999,1006.0419300000001,0,0
5.48,-8.557124,4.3947144,-0.6264345,1006.06213,0,0
5.52,-8.958609,4.151619999999999,-0.9909819,1006.06104,0,0
5.56,-9.058964999999999,4.013389,-0.9909800999999999,1006.0413,0,0
5.6,-8.843855,3.81796,-0.716383,1006.0058,0,0
5.64,-8.652644,3.7178617,-1.1093371,1006.04834,0,0
5.68,-9.097147999999999,3.4795337,-0.6311603,1006.0284,0,0
5.72,-9.278761,3.5510316,-0.7921283,1006.01105,0,0
5.76,-8.958495,3.8703904000000002,-1.0477844,1006.02045,0,0
5.8,-9.235707000000001,3.7130935,-1.2087526000000002,1006.05615,0,0
5.84,-8.7146845,3.8894558,-1.1377343999999998,1006.0328,0,0
5.88,-8.666866,3.8799222,-1.4454690000000001,1006.008,0,0
5.92,-8.633389999999999,3.8989877999999996,-0.99569875,1006.0204,0,0
5.96,-8.43262,3.999085,-1.4359968,1006.0079300000001,0,0
6.0,-8.719389,4.1373143,-1.4265261999999999,1006.0353,0,0
6.04,-8.099418,5.500936,0.39477864,1005.9612400000001,0,0
6.08,-8.24574,5.700734,-0.6453083000000001,1005.9892,0,0
6.12,-7.9733243,5.4671736,-0.9293756,1005.9939,0,0
6.16,-8.336622,5.319411,-0.08665462,1006.00903,0,0
6.2,-8.1645775,5.572039,-0.30443987,1006.02185,0,0
6.24,-7.691412400000001,5.805601599999999,-0.025113218,1006.0235,0,0
6.28,-7.744022,5.829435299999999,0.17372894,1006.0591,0,0
6.32,-7.710594,6.0248647,-0.5174969,1006.0422,0,0
6.36,-7.9782963,5.8771024,-0.6879386,1006.01904,0,0
6.4,-7.873175,5.953368,-0.29498613,1006.0349,0,0
6.44,-7.6533337,5.8580375,-0.19556633,1006.01184,0,0
6.48,-7.705946000000001,5.7531742999999995,-0.08667818,1006.0093400000001,0,0
6.52,-7.772157000000001,5.8294215,-0.27598968,1006.0098,0,0
6.56,-7.667005499999999,6.0343839999999975,-0.12922356,1006.0098,0,0
6.6,-7.8677600000000005,5.986718700000001,-0.06294222,1006.0147,0,0
6.64,-7.6192145,6.158314,-0.0013952889,1006.0374,0,0
6.68,-7.8629884999999975,5.9199867,-0.006130020999999999,1006.03546,0,0
6.72,-7.963367999999999,5.853255,0.017541671,1006.0155,0,0
6.76,-7.7626195000000004,5.8580213,-0.11502203,1006.0274,0,0
6.8,-7.638348599999999,5.8341894,-0.46536827,1006.01495,0,0
6.84,-7.652692299999999,5.772224,-0.79204255,1006.0174599999999,0,0
6.88,-8.121117,5.519596,-0.6689484,1006.0231,0,0
6.92,-8.173697,5.5720279999999995,-0.5458542,1006.02075,0,0
6.96,-7.9394913,5.633994,-0.43222886,1006.01807,0,0
7.0,-7.9538345,5.6911926,-0.38015077,1006.0056,0,0
7.04,-7.7148485,5.8484898,0.06014856,1006.02075,0,0
7.08,-7.6479344,5.8055900000000005,0.24478999,1006.01807,0,0
7.12,-7.5141034,6.148782700000001,0.19271122,1006.00323,0,0
7.16,-7.619262700000001,5.991486,-0.07715019599999999,1006.01575,0,0
7.2,-7.8295784,6.0057864,0.041209564,1006.03314,0,0
7.24,-7.86782,5.97242,-0.048744444000000005,1006.0210599999999,0,0
7.28,-7.7100906,6.0677514000000015,-0.07241684,1006.01855,0,0
7.32,-7.733992999999999,6.0582185,-0.13869882,1006.0595,0,0
7.36,-7.781794500000001,5.98672,-0.025073431,1005.9816,0,0
7.4,-7.671863,5.910454799999999,0.088551894,1006.0342400000001,0,0
7.44,-7.7148857,5.915222,-0.20971587,1006.00146,0,0
7.48,-7.6479716,6.053452,-0.39909244,1006.0671,0,0
7.52,-7.6488724,6.1488055999999975,-0.13404822,1006.04926,0,0
7.56,-7.534196400000001,6.225071400000001,0.055324353,1006.04706,0,0
7.6,-7.60115,6.167873999999999,0.097930655,1006.0318599999999,0,0
7.64,-7.4291167,6.2775050000000014,0.21628714,1006.0298,0,0
7.68,-7.099347,6.406203,0.107392475,1006.03754,0,0
7.72,-6.6787663,6.8542604,0.28256163,1006.0599,0,0
7.76,-6.841316,6.9972587,0.22574541,1005.99695,0,0
7.8,-7.2380770000000005,6.687433,-0.12460394,1006.02295,0,0
7.84,-7.410189599999999,6.296576,-0.7164081999999999,1005.995,0,0
7.88,-8.069841,5.762723,-0.59805155,1006.0397,0,0
7.92,-7.6253566999999975,5.6292599999999995,-0.9199944,1006.0428,0,0
7.96,-7.534579799999999,5.3194346,-1.1472496,1006.0249,0,0
8.0,-8.25159,5.0477419999999995,-0.63593733,1006.0201400000001,0,0
8.04,-7.5059795,5.4767337,-0.8158484,1006.0105,0,0
8.08,-7.8119235,5.5339327,-0.105691046,1006.04083,0,0
8.12,-8.256485000000001,5.219341,0.5239812,1006.0528,0,0
8.16,-7.5204315,5.4767356,0.46716493,1006.00543,0,0
8.2,-7.988894,5.5673018,-0.12463948,1006.0406,0,0
8.24,-8.323514999999999,6.005825499999999,-0.5318014,1006.0437,0,0
8.28,-8.428709,6.3633184,-1.0005110000000002,1006.0334,0,0
8.32,-8.156302,6.4300510000000015,-0.7590603,1006.05365,0,0
8.36,-8.682117,6.001062,-0.06310615,1006.0567599999999,0,0
8.4,-8.008204,5.796101,0.13100086,1006.0334,0,0
8.44,-7.128761,5.843767,0.13573164,1006.0437,0,0
8.48,-7.147919,5.886668,-0.11992982,1006.06464,0,0
8.52,-8.021861999999999,5.595888599999999,0.12159447,1006.0699,0,0
8.56,-7.9453936,5.557757,-0.18614256,1006.087,0,0
8.6,-8.217849000000001,5.5100913,-0.5364890999999999,1006.0596,0,0
8.64,-8.662379,5.2622304,-0.21455045,1006.0362,0,0
8.68,-8.394718,5.3813949999999995,0.050575454000000006,1006.0242,0,0
8.72,-7.9645449999999975,5.3909283,0.24468535,1006.0347,0,0
8.76,-7.739900599999999,5.5243917,0.4198577,1006.0621,0,0
8.8,-7.8402824,5.3766284,0.055307977,1006.05725,0,0
8.84,-8.107961,5.243165,-0.12460023,1006.0341,0,0
8.88,-8.332616999999999,4.9762383,-0.06305349,1006.0699,0,0
8.92,-8.542936,4.933339,0.18313487,1006.0469400000001,0,0
8.96,-8.337411999999999,4.9762387000000015,0.18786858,1006.0749,0,0
9.0,-8.237044000000001,5.367097,0.02216358,1006.0527,0,0
9.04,-8.557298,5.3480300000000005,0.022163047999999998,1006.0419300000001,0,0
9.08,-8.748499,5.3051314000000005,-0.16721395,1006.04974,0,0
9.12,-8.762846000000001,5.9009514,-0.034651365,1006.0477,0,0
9.16,-7.5392246,6.129746,-0.21929382,1006.0676,0,0
9.2,-7.845138499999999,5.715056,0.06476985,1006.0527,0,0
9.24,-8.829786,5.3670974000000005,0.18312919,1006.05023,0,0
9.28,-8.504766,5.386164,-0.006247676999999999,1006.0798300000001,0,0
9.32,-8.605149,5.5005616999999996,-0.34712540000000003,1006.02264,0,0
9.36,-8.1988735,5.4719625,-0.24296926,1006.0601,0,0
9.4,-7.8069377000000015,5.481495400000001,-0.44654940000000004,1006.0378,0,0
9.44,-7.539275999999999,5.3099,-0.37079948,1006.045,0,0
9.48,-8.060282,4.7569795,0.14524993,1006.05,0,0
9.52,-8.189504,4.4185576,-0.0015319698,1006.03754,0,0
9.56,-8.017446000000001,4.7188516,-0.1246278,1006.0575,0,0
9.6,-8.6531725,5.3289714,0.7275638000000001,1006.0832,0,0
9.64,-8.113068,5.6959963,0.65181226,1006.05,0,0
9.68,-7.8836517000000015,5.3766370000000006,0.4103562,1006.0729,0,0
9.72,-9.102514999999999,4.5091243,0.34407329999999997,1006.045,0,0
9.76,-9.030832,4.137333,-0.43710479999999996,1006.0425,0,0
9.8,-9.150341000000001,4.080135,-0.43237165,1006.0552,0,0
9.84,-8.796649,4.423327,-0.4039664,1006.0353,0,0
9.88,-8.113151,4.9381156,-0.27613866,1006.06573,0,0
9.92,-7.7546789999999985,5.20981,0.12155001,1006.0651,0,0
9.96,-8.046261999999999,5.152611299999999,0.088407815,1006.0751,0,0
10.0,-8.146651,4.885685,-0.44184670000000004,1006.0651,0,0
10.04,-9.379852,4.4185620000000005,-0.6501617,1006.0504,0,0
10.08,-9.140875999999999,4.2946324,-1.1709473999999995,1006.0455300000001,0,0
10.12,-8.830204,4.4042635,-0.811134,1006.04803,0,0
10.16,-8.404815,4.4709959999999995,-0.6548999,1006.0554,0,0
10.2,-8.051122,4.5663266,-0.89635575,1006.0328,0,0
10.24,-8.21843,4.1754694,-0.7353871999999999,1006.0527,0,0
10.28,-8.677304,4.03724,-0.6785757,1006.05023,0,0
10.32,-8.648639999999999,4.280334,-1.6159891000000002,1006.0527,0,0
10.36,-8.873302,4.3566,-1.0336584,1006.0746,0,0
10.4,-8.706024000000001,4.1278057,-0.7211890000000001,1006.0428,0,0
10.44,-8.729935000000001,4.5663285,-0.73539335,1006.0575,0,0
10.48,-8.74429,4.5949287000000005,-0.23828237,1006.04803,0,0
10.52,-8.519364,4.4995910000000015,-0.23352279,1006.0431,0,0
10.56,-9.408411,3.984803,-0.28086704,1006.0475,0,0
10.6,-8.720121,4.313695,-0.7353701,1006.0875,0,0
10.64,-8.514593,4.1992974,-1.0904508,1006.06464,0,0
10.68,-8.160891000000001,4.466225,-1.3981873,1006.0745,0,0
10.72,-8.180012,4.151632299999998,-1.1425296999999999,1006.0621,0,0
10.76,-8.371205999999999,4.428093,-1.2324836000000001,1006.06714,0,0
10.8,-8.610199,4.4185596,-1.0999205,1006.0267,0,0
10.84,-8.748816,4.4900584000000014,-1.2182808,1006.05475,0,0
10.88,-9.045166,4.4519258000000015,-1.0573114,1006.0269999999999,0,0
10.92,-8.877874,4.246964,-1.1472653,1006.0447,0,0
10.96,-8.815741000000003,4.261263400000002,-0.9247484,1006.04724,0,0
11.0,-8.65801,4.470992,-1.1662033,1006.0419,0,0
11.04,-8.677131,4.308929,-1.1093906999999998,1006.05475,0,0
11.08,-8.605436,4.461459,-0.88687384,1006.0419,0,0
11.12,-8.218275,4.518658,-1.23722,1006.06964,0,0
11.16,-8.576761999999999,4.718853500000002,-1.0052345,1006.0575,0,0
11.2,-8.46683,4.799885,-0.9105465,1006.04425,0,0
11.24,-8.376016,4.9428816,-0.94842196,1006.0465,0,0
11.28,-8.767961999999999,5.0525126,-0.92948455,1006.0359,0,0
11.32,-8.686708,4.9142823,-0.7353742,1006.05365,0,0
11.36,-8.576775999999999,4.995314,-0.76378095,1006.00854,0,0
11.4,-8.748851,4.928582,-0.550733,1006.0515,0,0
11.44,-8.471623,4.7855854,-0.7306406,1006.0667,0,0
11.48,-8.88747,4.6139894,-0.5886085999999999,1006.0419300000001,0,0
11.52,-8.557124,4.3947144,-0.6264345,1006.06213,0,0
11.56,-8.958609,4.151619999999999,-0.9909819,1006.06104,0,0
11.6,-9.058964999999999,4.013389,-0.9909800999999999,1006.0413,0,0
11.64,-8.843855,3.81796,-0.716383,1006.0058,0,0
11.68,-8.652644,3.7178617,-1.1093371,1006.04834,0,0
11.72,-9.097147999999999,3.4795337,-0.6311603,1006.0284,0,0
11.76,-9.278761,3.5510316,-0.7921283,1006.01105,0,0
11.8,-8.958495,3.8703904000000002,-1.0477844,1006.02045,0,0
11.84,-9.235707000000001,3.7130935,-1.2087526000000002,1006.05615,0,0
11.88,-8.7146845,3.8894558,-1.1377343999999998,1006.0328,0,0
11.92,-8.666866,3.8799222,-1.4454690000000001,1006.008,0,0
11.96,-8.633389999999999,3.8989877999999996,-0.99569875,1006.0204,0,0
12.0,-8.43262,3.999085,-1.4359968,1006.0079300000001,0,0
12.04,-8.719389,4.1373143,-1.4265261999999999,1006.0353,0,0
12.08,-8.814967999999997,4.0324497,-1.2986958,1006.0412,0,0
12.12,-8.719352,4.3661084,-1.6206334999999998,1006.0655,0,0
12.16,-8.814929,4.6378015999999995,-1.6301005,1006.04034,0,0
12.2,-8.422967,4.695,-1.691646,1005.9903,0,0
12.24,-8.810112,4.2612424,-1.5306746,1006.0222,0,0
12.28,-8.43727,4.2183437,-1.6016891000000002,1006.0356,0,0
12.32,-8.556745,4.2993746,-1.6158903999999998,1006.0353,0,0
12.36,-9.039488,4.0896454,-1.4501846,1006.0179,0,0
12.4,-8.308158,4.008613599999999,-1.8384040000000001,1006.0284,0,0
12.44,-9.307118,3.7750519999999996,-1.6537606,1006.02515,0,0
12.48,-9.665585499999999,3.4985913999999996,-1.4028355,1005.98956,0,0
12.52,-9.164104,3.4032695,-1.4786226,1006.02515,0,0
12.56,-9.493908,3.3270047,-1.5212318,1006.03,0,0
12.6,-8.638321000000001,3.517667,-1.7768894,1006.02515,0,0
12.64,-8.815172,3.3508375,-1.7295452,1006.0477,0,0
12.68,-8.762591,3.4700012000000005,-1.5638409,1006.00995,0,0
12.72,-8.523599,3.7369287000000004,-1.36973,1006.0378,0,0
12.76,-8.533155,3.9752562000000013,-1.1330096,1006.0303,0,0
12.8,-8.743464,3.9609566,-1.3129168,1006.0477,0,0
12.84,-8.643086,4.0562873,-1.6727311999999999,1006.0322,0,0
12.88,-8.886854,3.9371235,-1.6301214,1006.0372,0,0
12.92,-9.264456,3.9657227999999995,-1.4218073,1006.0123,0,0
12.96,-8.6526375,4.351814,-1.5638391999999999,1006.00494,0,0
13.0,-8.652636,4.175451,-1.0903983999999998,1006.0219,0,0
13.04,-8.901183,3.9371235,-1.0241166,1006.0173300000001,0,0
13.08,-9.097153,3.7845932999999996,-0.8252712999999999,1006.0298,0,0
13.12,-8.86772,3.8227254999999998,-1.1992891,1006.02936,0,0
13.16,-9.450852000000001,3.5748646,-1.0761945,1006.0199,0,0
13.2,-9.417392999999999,3.593931,-1.6821979999999999,1006.0249,0,0
13.24,-8.843814,3.8608580000000003,-1.3129143,1006.0372,0,0
13.28,-8.327592,4.2231164,-0.6311595999999999,1006.0144,0,0
13.32,-8.31803,4.308914700000001,-0.49386168,1006.0194,0,0
13.36,-8.752989999999999,4.4423775999999995,-0.65956557,1006.0428,0,0
13.4,-8.796005000000001,4.3375134000000015,-0.8962856,1006.0272,0,0
13.44,-8.705186999999999,4.237415299999999,-0.891551,1006.0173300000001,0,0
13.48,-8.676505,4.118252,-1.1992871999999999,1006.03436,0,0
13.52,-8.863171000000003,4.0991917,-1.2608576,1006.0373,0,0
13.56,-8.5429325,4.161157,-1.4975785,1006.0269,0,0
13.6,-8.667213,4.1373242999999995,-1.3129374,1006.0278,0,0
13.64,-8.509488000000001,4.3899527,-0.8679039000000001,1006.0124,0,0
13.68,-8.681567999999999,4.4662175,-0.5838403,1006.0141,0,0
13.72,-8.638557,4.637813599999999,-0.83003014,1006.0224,0,0
13.76,-8.452153,4.647347,-0.44654399999999994,1006.0348,0,0
13.8,-8.676811,4.5091166,-0.56490487,1006.0098,0,0
13.84,-8.758075,4.409019,-0.77321935,1006.0143,0,0
13.88,-9.044871,4.3184547,-0.7353447,1006.0269,0,0
13.92,-8.52866,4.470985,-0.6264541,1005.9945,0,0
13.96,-8.284897,4.4614515,-0.81583095,1006.0292400000001,0,0
14.0,-8.63861,4.5281839999999995,-0.91051966,1006.0378,0,0
14.04,-8.863268,4.4757514,-1.0620215,1006.0578,0,0
14.08,-8.76768,4.4137874,-0.74008256,1006.04785,0,0
14.12,-8.629072,4.432853,-0.56491023,1006.02765,0,0
14.16,-8.848951,4.409021,-0.59331745,1006.0104,0,0
14.2,-8.476133,4.566317,-0.7684911,1006.0505400000001,0,0
14.24,-8.437903,4.666415,-0.8726486999999999,1006.0328,0,0
14.28,-8.590863,4.461453400000001,-0.9957438,1006.04834,0,0
14.32,-8.457037,4.4090214,-1.5117947,1006.0557,0,0
14.36,-8.762951,4.3518233,-0.8253065999999999,1006.0204,0,0
14.4,-8.992389999999997,4.3613567,-0.6927439000000001,1006.0307,0,0
14.44,-8.667371000000001,4.1849937000000015,-1.1567163,1006.0288,0,0
14.48,-8.9254875,4.003865,-0.83004314,1006.0331,0,0
14.52,-8.834839,3.9133042999999996,-0.96262175,1006.0515,0,0
14.56,-8.844412,3.9609706,-0.8868724,1006.0288,0,0
14.6,-8.705811500000001,4.132567,-0.73063844,1006.04834,0,0
14.64,-8.57677,4.2898629999999995,-0.92001575,1006.01385,0,0
14.68,-8.782314999999999,4.3184629999999995,-0.7543128000000001,1006.0394,0,0
14.72,-8.610258,4.366129,-0.8632056999999999,1006.0487,0,0
14.76,-8.787122,4.3518300000000005,-0.9058164000000001,1006.0437,0,0
14.8,-8.854053500000003,4.4900603,-1.0099745999999998,1006.0313,0,0
14.84,-8.586397999999999,4.5615587,-0.7921931999999999,1006.0668300000001,0,0
14.88,-8.438238,4.7093225,-0.8016631999999999,1006.04675,0,0
14.92,-8.624664,4.6187577000000015,-0.6170227,1006.0397300000001,0,0
14.96,-8.333109,4.7998877,-0.6975088,1006.04926,0,0
15.0,-8.557775,4.737923,-0.6406972,1006.0242,0,0
15.04,-8.911495,4.7093234000000015,-0.49866658,1006.0415,0,0
15.08,-8.86849,4.6759580000000005,-0.6264967,1006.0324,0,0
15.12,-8.715548,4.6997914000000005,-0.664373,1006.0299,0,0
15.16,-8.529150999999999,4.6044602,-0.44659170000000004,1006.04,0,0
15.2,-8.294955999999999,4.4328647000000005,-0.47499967,1006.06964,0,0
15.24,-8.653455000000001,4.328001,-0.45606318,1006.0529,0,0
15.28,-8.562652,4.3280015,-0.63123745,1006.0601,0,0
15.32,-8.777758,4.347068,-0.72592676,1006.0353,0,0
15.36,-8.839909,4.3899669999999995,-0.8253504999999999,1006.0481,0,0
15.4,-8.954638000000003,4.213605,-0.57442844,1006.0452,0,0
15.44,-8.916412,4.194539,-0.4939447,1006.0632300000001,0,0
15.48,-8.701336,4.251738,-0.5507588999999999,1006.07074,0,0
15.52,-8.906880000000003,4.399502,-0.2998367,1006.0431,0,0
15.56,-8.639225,4.3995023,-0.15307139,1006.0605,0,0
15.6,-8.620121000000001,4.5424995,-0.08679098,1006.043,0,0
15.64,-8.491079,4.6282973,-0.19094916,1006.0735,0,0
15.68,-8.926053999999997,4.7474620000000005,-0.0063085817,1006.0511,0,0
15.72,-8.629719999999999,4.7855940000000015,-0.029981802999999998,1006.0682400000001,0,0
15.76,-8.390744,4.8904586,0.03629851,1006.0431,0,0
15.8,-8.687105,4.8141940000000005,0.026828513999999998,1006.0361300000001,0,0
15.84,-8.548504,4.87616,-0.011047936999999999,1006.06396,0,0
15.88,-8.118336,5.0715895,0.02682604,1006.0563,0,0
15.92,-8.223506,4.947659,0.036293503,1006.0291,0,0
15.96,-8.414711,4.8904605000000005,0.09310515,1006.0416,0,0
16.0,-8.180515,5.1001897000000005,0.078900665,1006.0641,0,0
16.04,-7.988678,5.3003693,0.050553277,1006.0621,0,0
16.08,-8.285022999999999,5.3194349999999995,-0.115150616,1006.0342400000001,0,0
16.12,-8.098607000000001,5.290836,-0.29505765,1006.0397,0,0
16.16,-8.18464,5.214571,-0.02046192,1006.0695,0,0
16.2,-8.237214999999999,5.143072599999999,0.09316411,1006.0447,0,0
16.24,-8.02212,5.281303,-0.044133287,1006.0517,0,0
16.28,-8.342363,5.2145705,-0.044132995999999994,1006.0422,0,0
16.32,-8.332801,4.990542400000002,0.1594467,1006.035,0,0
16.36,-8.404494,5.033441000000002,0.19732222,1006.035,0,0
16.4,-8.581344999999999,4.8809114000000005,-0.23824273,1006.03723,0,0
16.44,-8.222856,4.904743700000001,-0.36133695,1006.0706,0,0
16.48,-8.232412,4.93811,-0.20983568,1006.0528,0,0
16.52,-8.385361999999999,5.066807,-0.6690726,1006.0375,0,0
16.56,-8.35668,5.138305,-0.7164164000000001,1006.0507,0,0
16.6,-8.423594999999999,5.085873,-0.25717884,1006.0552,0,0
16.64,-8.380572,5.0811067,-0.07727118,1006.00745,0,0
16.68,-8.160699000000001,5.085873,-0.05359884,1006.0455300000001,0,0
16.72,-8.332768,4.957175299999999,-0.1908963,1006.0378,0,0
16.76,-8.356664,4.9285760000000005,-0.18142718,1006.0552,0,0
16.8,-8.538293,4.9142766,-0.029925939,1006.06104,0,0
16.84,-8.351877,5.071573,-0.067800865,1006.066,0,0
16.88,-8.327975,5.095405599999999,-0.10567579,1006.0528,0,0
16.92,-8.394889,4.9285760000000005,-0.15775396,1006.0259,0,0
16.96,-8.390106,4.9190426,-0.02519029,1006.0639,0,0
17.0,-8.485699,4.885676999999999,0.050560463,1006.04364,0,0
17.04,-8.394739,4.8427744000000015,-0.11039618,1006.0458,0,0
17.08,-8.270456,4.7426763,-0.07725459,1006.0408,1,1
17.12,-8.648052,4.8618402000000005,-0.19087945,1006.03864,1,1
17.16,-8.327796000000001,5.0191360000000005,-0.091456175,1006.0383,1,1
17.2,-8.323008,4.938104599999999,-0.17667472,1006.05145,1,1
17.24,-8.638466000000001,4.647344599999999,-0.17193943,1006.0564,1,1
17.28,-8.518962,4.509114,-0.16246988,1006.0283,1,1
17.32,-8.514174,4.294619,-0.26189163,1006.0564,1,1
17.36,-8.724477,4.103956,-0.30450037,1006.0358,1,1
17.4,-8.6671095,4.0276914,-0.086716965,1006.05145,1,1
17.44,-8.499808,4.008625,-0.30449888,1006.03894,1,1
17.48,-8.662313000000001,4.170687,-0.14826265,1006.0591,1,1
17.52,-8.958652,4.2850842,0.5003516,1006.067,1,1
17.56,-9.312349000000001,4.485279599999998,0.72760373,1006.0665,1,1
17.6,-8.925175999999997,4.6473427,-0.124588296,1006.0648,1,1
17.64,-9.398368,4.5329447,0.15947685,1006.0616,1,1
17.68,-9.86678,4.6187425000000015,0.107399225,1006.0364400000001,1,1
17.72,-9.403131,4.6664080000000006,-0.2003364,1006.0467,1,1
17.76,-8.628794000000001,4.8523035000000005,-0.03936581,1006.0694,1,1
17.8,-7.830558,4.790337999999998,0.46248192,1006.052,1,1
17.84,-7.605899000000001,4.485278,0.7465470000000001,1006.0417,1,1
17.88,-7.414698,4.3327480000000005,0.80336064,1006.03705,1,1
17.92,-8.270274,4.318448,1.1253008999999998,1006.0622599999999,1,1
17.96,-7.940459,4.594908,0.09320154,1006.0349,1,1
18.0,-8.800814,5.109696400000002,0.17368722,1006.0268,1,1
18.04,-9.418776,5.6340513,0.21617182,1006.02716,1,1
18.08,-8.940837,6.6445622,-0.56974334,1006.0423,1,1
18.12,-9.820364,5.958179,-0.89642113,1006.0424,1,1
18.16,-9.414126,4.4757805,-0.34723434,1006.0622599999999,1,1
18.2,-7.2345929999999985,4.218388,0.20668577,1006.06256,1,1
18.24,-7.0338755000000015,4.1087584,-0.17680416,1006.0598,1,1
18.28,-9.495519999999999,4.008662,-0.711796,1006.052,1,1
18.32,-8.396219,4.6855139999999995,-1.6255411,1006.0166,1,1
18.36,-6.9957824,4.9381433,-1.3698875,1006.0476,1,1
18.4,-7.36865,4.5472865,-1.2089216999999999,1006.0598,1,1
18.44,-7.727181,4.1993284000000015,-0.65973485,1006.063,1,1
18.48,-7.7319926999999975,4.142131,-0.6739409000000001,1006.0605,1,1
18.52,-8.205252,4.0897,-0.29992843,1006.0275,1,1
18.56,-9.491064999999999,4.9095488,-0.76863873,1006.0754400000001,1,1
18.6,-9.83047,5.924826,-1.2231451999999998,1006.04,1,1
18.64,-9.801836999999999,6.711310000000001,-0.55086386,1006.07294,1,1
18.68,-9.706289,6.4586830000000015,-0.3898986,1006.0600599999999,1,1
18.72,-10.26557,5.1240487,0.14981964,1006.0600599999999,1,1
18.76,-7.383392,4.9000216,0.87891406,1006.0303,1,1
18.8,-7.1444472999999995,4.447199299999999,1.1108956,1006.0498699999999,1,1
18.84,-9.457917,4.013444,0.30604273,1006.04803,1,1
18.88,-8.803125999999997,4.5711319999999995,-1.0290633,1006.0331,1,1
18.92,-7.7707353,4.8571267,-0.39465725,1006.05304,1,1
18.96,-7.354941,5.162187,0.5285472,1006.0375,1,1
19.0,-7.1159935,5.224154,0.33443272,1006.0573,1,1
19.04,-7.315601299999999,5.1287947,-0.30934164,1006.0408,1,1
19.08,-7.7983603000000015,4.675971499999998,-0.5649994,1006.0555400000001,1,1
19.12,-7.8222585,4.952432,-0.011073913000000001,1006.0356,1,1
19.16,-7.865276,5.352823,-0.47977984,1006.04614,1,1
19.2,-8.93595,5.4719863,-0.19571547,1006.05304,1,1
19.24,-9.476067,6.024907,0.39608526,1006.0278,1,1
19.28,-8.080362,6.1440706,-0.80645335,1006.05304,1,1
19.32,-9.151036999999999,5.4243207,-1.2893625,1006.0308,1,1
19.36,-8.869027,5.033462999999999,-0.40402874,1006.0382699999999,1,1
19.4,-7.7792309999999985,5.033462999999999,-1.0052983,1006.0505400000001,1,1
19.44,-8.888144500000003,4.2994137000000014,-1.6444427,1006.066,1,1
19.48,-10.087873,3.9895873,-1.7107241999999998,1006.0629,1,1
19.52,-7.889163000000001,4.6521387,-1.7059896,1006.0685,1,1
19.56,-6.4217615,4.904766,-1.2278147,1006.0381,1,1
19.6,-7.196089,4.671204599999999,-0.60760754,1006.073,1,1
19.64,-7.329921700000001,4.656905,-0.46557528,1006.071,1,1
19.68,-6.9857745,4.728403,-0.8301244000000001,1006.0408,1,1
19.72,-8.209403,4.633072,-1.1662668999999999,1006.0531599999999,1,1
19.76,-9.700700999999999,4.8856997,-1.0195004,1006.05853,1,1
19.8,-9.232279,5.438619999999999,-1.1189227,1006.04614,1,1
19.84,-10.259936,5.214592,-0.8774679,1006.0581699999999,1,1
19.88,-10.11176,5.0858946,-1.3319706,1006.064,1,1
19.92,-8.63002,5.543483999999999,-0.79224837,1006.061,1,1
19.96,-6.670299000000001,5.676947599999999,0.21617994,1006.04614,1,1
20.0,-7.8843679999999985,5.276557,0.74643344,1006.0635,1,1
20.04,-8.898357,4.9238485999999995,0.9972953999999999,1006.043,1,1
20.08,-9.3572445,5.1192779999999996,-0.001666382,1006.0531599999999,1,1
20.12,-8.683317,5.548269,-0.48457795,1006.04364,1,1
20.16,-6.5467714999999975,5.977258999999999,-0.7875821,1006.0514,1,1
20.2,-6.5228962999999975,5.681733599999999,-0.3378159,1006.069,1,1
20.24,-7.1538553,5.200311699999999,-0.19578615,1006.0333,1,1
20.28,-6.393892,6.063059,-0.034818675,1006.0514,1,1
20.32,-6.1310263,6.4539175,0.10247688,1006.06146,1,1
20.36,-7.4311566,6.101193,-0.10583909,1006.0591,1,1
20.4,-8.281988,6.067826999999999,-0.7686583,1006.07935,1,1
20.44,-8.869928,6.387187,-0.636097,1006.0361300000001,1,1
20.48,-9.610822,6.4396205,-0.4703951,1006.0511,1,1
20.52,-7.6606884000000015,7.2594686,-0.7639305999999999,1006.0486,1,1
20.56,-6.2984705000000005,7.307134599999999,-0.98645,1006.0391,1,1
20.6,-6.19334,6.377657,-1.2563133,1006.03864,1,1
20.64,-9.070806,5.124053,-0.67398375,1006.0690300000001,1,1
20.68,-9.978991,4.9524574,-0.90123737,1006.0709,1,1
20.72,-8.468601,5.376682,-0.96278715,1006.0589,1,1
20.76,-7.4266276,5.3433166,-1.0338054,1006.02124,1,1
20.8,-7.092065,5.052557,-0.99119776,1006.04614,1,1
20.84,-7.6656679999999975,4.6235676,-0.81602734,1006.04364,1,1
20.88,-7.4649405,5.062091400000001,-0.7450134,1006.0589,1,1
20.92,-7.6274770000000025,5.5721135,-1.4409732,1006.03656,1,1
20.96,-8.875031,5.9725046,-1.0669576,1006.049,1,1
21.0,-9.405614,5.729411,-0.8065675,1006.0769,1,1
21.04,-7.1964440000000005,5.791354,-0.82068825,1006.03656,1,1
21.08,-6.823608,5.753221,0.1356626,1006.04895,1,1
21.12,-7.8655944,5.800887,0.73219854,1006.0308,1,1
21.16,-8.716387,5.691256,1.3476721999999999,1006.06146,1,1
21.2,-7.5883436,5.5816245,0.7558726,1006.0465,1,1
21.24,-8.324418,5.4624605000000015,1.3713465,1006.04895,1,1
21.28,-8.735475,5.553025,1.158299,1006.0515,1,1
21.32,-8.582508,5.958182,0.18774718,1006.04645,1,1
21.36,-7.315849000000001,6.3871717000000015,-0.16733213,1006.0213,1,1
21.4,-7.5500479999999985,6.272774,1.0636141000000001,1006.0361300000001,1,1
21.44,-7.3206050000000005,6.325206,0.5380964,1006.0461,1,1
21.48,-7.521345599999999,6.1440763,0.12620416,1006.06647,1,1
21.52,-7.7077484,5.83425,0.5049574,1006.044,1,1
21.56,-9.218152,5.4386253,0.48128667,1006.0060000000001,1,1
21.6,-7.9275949999999975,5.853316,0.28244266,1006.0511,1,1
21.64,-8.257392,5.8390154999999995,0.18775535,1006.02875,1,1
21.68,-7.8845544000000025,5.581621,-1.0668608,1006.044,1,1
21.72,-7.521278,5.20983,-0.56501275,1006.0417,1,1
21.76,-7.722017299999999,4.9810343,-0.1294464,1006.03406,1,1
21.8,-7.879744500000001,4.9619684,-0.13891454,1006.0515,1,1
21.84,-8.314691,5.0001,-0.07736589,1006.0690300000001,1,1
21.88,-8.161726,5.2431946,0.48602924,1006.0591,1,1
21.92,-8.128257000000001,5.4719887,0.17829394,1006.0815,1,1
21.96,-8.2811985,5.5005875,-0.40403673,1006.06146,1,1
22.0,-8.572756,5.2527266,-0.10576823,1006.0486,1,1
22.04,-8.310562,5.295643,-0.053753514,1006.04706,0,0
22.08,-8.019011,5.4863057,-0.24313112,1006.04395,0,0
22.12,-7.756139,5.529205,-0.35202402,1006.054,0,0
22.16,-7.923448,5.491073,-0.27627504,1006.05164,0,0
22.2,-8.229371,5.5387387000000015,-0.16265079999999998,1006.05164,0,0
22.24,-8.3297615,5.390976,-0.49406052,1006.0341,0,0
22.28,-8.587889,5.2813454,-0.10110645,1006.04114,0,0
22.32,-8.043007000000001,5.257512999999999,-0.34256253,1006.0539,0,0
22.36,-8.138619,5.0287190000000015,-0.3236265,1006.0361300000001,0,0
22.4,-8.105177000000001,4.766559,-0.56034815,1006.0445599999999,0,0
22.44,-8.478019,4.6521615999999995,-0.56981856,1006.0361300000001,0,0
22.48,-8.372878,4.9476886,-0.51300704,1006.03406,0,0
22.52,-8.807856,4.9715214,-0.17213136,1006.062,0,0
22.56,-8.458946000000001,5.2384496,-0.32836828,1006.0694,0,0
22.6,-8.310789,5.324248000000001,-0.46093303,1006.04114,0,0
22.64,-7.9953375,5.37668,-0.7071236,1006.04395,0,0
22.68,-8.124409,5.1288195,-0.7876098000000001,1006.0392,0,0
22.72,-8.382533,5.019189,-0.20054518,1006.0366,0,0
22.76,-8.052744,5.1145205,0.021970265,1006.06396,0,0
22.8,-8.329989999999999,5.1097546,-0.12953222,1006.0561,0,0
22.84,-8.210510000000001,5.252752,-0.23369052,1006.04114,0,0
22.88,-8.583350999999999,5.157421,-0.38045856,1006.06146,0,0
22.92,-8.210542,5.2622857000000005,-0.75921243,1006.03406,0,0
22.96,-8.430429,5.205087000000002,-0.7308074000000001,1006.0417,0,0
23.0,-8.09586,5.028725,-0.14374278,1006.054,0,0
23.04,-8.319694,5.0620709999999995,-0.07265192,1006.0564,0,0
23.08,-8.114144,4.890474299999998,-0.039509494,1006.0880000000001,0,0
23.12,-8.290979,4.8857074,0.10725859,1006.0263,0,0
23.16,-8.477378,4.704578,-0.08211626,1006.04364,0,0
23.2,-8.539498,4.7331767,-0.20047483,1006.0715,0,0
23.24,-8.692436,4.7808423,-0.17206687,1006.0585,0,0
23.28,-8.46777,5.0859013,-0.11051819,1006.074,0,0
23.32,-8.300460000000001,5.1049676,-0.053703804,1006.0458,0,0
23.36,-8.200068,5.257496400000001,-0.08684322,1006.07385,0,0
23.4,-8.319547,5.0382347,-0.067904115,1006.06146,0,0
23.44,-8.673236,4.7236410000000015,-0.25254437,1006.0361300000001,0,0
23.48,-8.333853999999999,4.852338,-0.3851062,1006.05853,0,0
23.52,-8.400757,4.933369,-0.26201037,1006.0656,0,0
23.56,-8.2764635,5.0144005,-0.24307112,1006.04614,0,0
23.6,-8.582355499999998,4.733173000000002,-0.28567934,1006.05896,0,0
23.64,-8.496303999999999,4.838036499999999,0.116746545,1006.0486,0,0
23.68,-8.386352,4.7808375,-0.19098836,1006.0483,0,0
23.72,-8.630103,4.961967,-0.42770687,1006.0709,0,0
23.76,-8.453237,5.071597,-0.38036149999999996,1006.05853,0,0
23.8,-8.247688,5.2908583,-0.3756257,1006.0531599999999,0,0
23.84,-7.898745,5.3242235,-0.09155969,1006.05066,0,0
23.88,-8.381491,5.100194999999999,-0.29513779999999995,1006.0232,0,0
23.92,-8.5105295,4.8571005,-0.14836985,1006.06793,0,0
23.96,-8.434036,4.928598,-0.063149035,1006.06067,0,0
24.0,-8.218927,4.933364,-0.46083736,1006.0735,0,0
24.04,-8.387322,5.1097535999999995,-0.3615158,1006.0454,0,0
24.08,-8.215278,5.2050858,-0.49408174,1006.0355,0,0
24.12,-8.253546,5.3147173,-0.63611645,1006.0785,0,0
24.16,-8.11018,5.3623834000000015,-0.84916717,1006.0656,0,0
24.2,-8.215361999999999,5.3862166,-0.81602883,1006.0704300000001,0,0
24.24,-7.9047027000000005,5.6531453,-0.7639529,1006.0473599999999,0,0
24.28,-8.014669,5.429117,-0.6313925,1006.0405,0,0
24.32,-8.124628,5.462484,-0.7450201999999999,1006.05304,0,0
24.36,-8.287169,5.4005194,-0.9391334000000001,1006.0356,0,0
24.4,-8.038647000000001,5.367154599999999,-1.0622306000000001,1006.04,0,0
24.44,-8.139049,5.309956,-0.9817478999999999,1006.0299699999999,0,0
24.48,-8.038701,5.252758,-0.92020327,1006.0498699999999,0,0
24.52,-8.416339,5.138361499999999,-0.5414541,1006.0654,0,0
24.56,-8.091339999999999,5.348091,-0.617207,1006.0548,0,0
24.6,-8.153499,5.41959,-0.30947262,1006.0375,0,0
24.64,-8.024476,5.524454599999999,-0.5888055,1006.0654,0,0
24.68,-8.005384,5.424358,-0.68823063,1006.0373,0,0
24.72,-8.316098,5.166964,-0.7308425999999999,1006.0246599999999,0,0
24.76,-8.277887,5.143132,-0.48465616,1006.0498699999999,0,0
24.8,-8.058046000000001,5.4863253,-0.51306516,1006.05225,0,0
24.84,-7.924237,5.6388555,-0.5698803000000001,1006.04205,0,0
24.88,-8.072432000000001,5.491092,-0.45152217,1006.04205,0,0
24.92,-8.416611999999999,5.3004313,-0.39944687,1006.05695,0,0
24.96,-8.072494500000001,5.352864299999999,-0.48466873,1006.0442,0,0
25.0,-8.058176,5.376697,-0.5556867,1006.0241,0,0
25.04,-8.218468,5.1478480000000015,-0.44659212,1006.0464,0,0
25.08,-8.2231865,5.233645,-0.43711773,1006.0613,0,0
25.12,-8.275707,5.262243,-0.39923725,1006.0645,0,0
25.16,-8.285206,5.519635,-0.4371069,1006.0409,0,0
25.2,-8.170433000000001,5.4052362,-0.37555444,1006.05164,0,0
25.24,-7.960066,5.362336,-0.49390936,1006.0445,0,0
25.28,-8.1559725,5.214571,-0.5507163,1006.039,0,0
25.32,-8.198929,5.095405599999999,-0.57911706,1006.0361300000001,0,0
25.36,-8.294464999999999,5.0048394,-0.58858037,1006.05853,0,0
25.4,-8.122336,5.247933,-0.8110921999999999,1006.03406,0,0
25.44,-8.265668,5.262231,-0.6311793000000001,1006.0417,0,0
25.48,-8.21303,5.414758999999999,-0.5554232,1006.0059,0,0
25.52,-8.1603985,5.381392,-0.31396365,1006.0582,0,0
25.56,-8.122096,5.252693700000001,-0.6216941,1006.0561,0,0
25.6,-8.294112,5.20026,-0.63115764,1006.0361300000001,0,0
25.64,-8.260591999999999,5.190725,-0.6500895999999999,1006.04364,0,0
25.68,-8.2796545,5.147825,-0.3186761,1006.0333,0,0
25.72,-8.193558,5.262221,-0.48910909999999996,1006.0638,0,0
25.76,-8.164817999999999,5.276519,-0.5411819999999999,1006.04614,0,0
25.8,-7.830174,5.5577445,-0.89625704,1006.0234,0,0
25.84,-8.375008,5.219317,-0.43701395,1006.0478,0,0
25.88,-8.207657000000001,5.1478176,-0.4180710999999999,1006.0306,0,0
25.92,-8.613878999999999,4.9666866999999995,-0.21922053,1006.0333,0,0
25.96,-9.120478,4.899953400000001,-0.29496542,1006.0328400000001,0,0
26.0,-8.499044999999999,5.2812767,-0.36124188,1006.0507,0,0
26.04,-8.405538,5.343293,-0.42771465,1006.0378,0,0
26.08,-7.9371414000000025,5.3909593000000005,-0.48926407,1006.0455300000001,0,0
26.12,-7.951505,5.5482564000000005,-0.17679562,1006.0653699999999,0,0
26.16,-7.832035,5.638821599999999,-0.4703310000000001,1006.0478,0,0
26.2,-7.76036,5.6435885,-0.517677,1006.0549,0,0
26.24,-7.683908,5.5625577,-0.22888069,1006.0224599999999,0,0
26.28,-7.812985,5.386195,-0.19574194,1006.0375,0,0
26.32,-8.224072,5.328998,-0.47980839999999997,1006.0292,0,0
26.36,-7.908628,5.6721900000000005,-0.8632973,1006.0472,0,0
26.4,-7.8369554999999975,5.6292919999999995,-0.74020493,1006.0552,0,0
26.44,-7.903894999999999,5.6531253,-0.29990736,1006.03723,0,0
26.48,-8.190707000000002,5.4576970000000005,-0.27623752,1006.03925,0,0
26.52,-8.133372,5.4576974,-0.23836438,1006.05206,0,0
26.56,-7.865728999999999,5.5387297,-0.47508693,1006.0273,0,0
26.6,-8.205116,5.4672317999999995,-0.80176294,1006.0243,0,0
26.64,-7.9326940000000015,5.648361,-0.49876344,1006.0546,0,0
26.68,-8.0091915,5.5482644999999975,-0.15315379,1006.0347,0,0
26.72,-7.9662,5.553031400000001,-0.12474972,1006.0467,0,0
26.76,-7.9327630000000005,5.3147044,-0.43722248,1006.0266,0,0
26.8,-8.248253,5.22414,-0.5271781999999999,1006.01666,0,0
26.84,-8.171802,5.290872599999998,-0.67868155,1006.0571,0,0
26.88,-7.9471735999999975,5.367138400000001,-0.90120065,1006.04474,0,0
26.92,-8.439519,5.2956405,-0.5839978,1006.0273,0,0
26.96,-7.937661999999999,5.467236499999999,-0.7118288,1006.0621,0,0
27.0,-8.109758,5.2527422999999995,-0.68815887,1006.0214,0,0
27.04,-8.094579,5.0525269999999995,-0.5129090999999999,1006.0515,0,0
27.08,-8.367018,5.138324,-0.11521819,1006.0341,0,0
27.12,-8.218834,5.2765546,-0.81590915,1006.054,0,0
27.16,-8.429134,5.4290833,-0.8064394,1006.04175,0,0
27.2,-7.635677999999999,5.4624496,-1.1236436,1006.0565,0,0
27.24,-8.405217,5.1240234000000004,-0.9816104999999999,1006.0243,0,0
27.28,-8.419546,4.933361,-0.6596702,1006.0515,0,0
27.32,-8.347838000000001,5.1001900000000004,-1.0336872,1006.0616,0,0
27.36,-8.0945,5.271786,-1.0810303999999995,1006.0361300000001,0,0
27.4,-8.094489,5.2860856,-0.6265265999999999,1006.0434,0,0
27.44,-8.204415,5.143089,-0.4608215,1006.0264,0,0
27.48,-8.333459,5.319451,-0.8253697,1006.0341,0,0
27.52,-8.185273,5.3432830000000004,-0.54130435,1006.0587,0,0
27.56,-7.9080369999999975,5.3528166,-0.63125736,1006.0486,0,0
27.6,-8.409907,4.9476585,-0.5697093000000001,1006.0587,0,0
27.64,-8.362096000000001,5.1097217000000015,-0.8111626999999999,1006.0361300000001,0,0
27.68,-8.228252000000001,5.2765512,-0.7922241999999999,1006.0259,0,0
27.72,-7.9414573000000015,5.462446,-0.8537708,1006.02625,0,0
27.76,-7.955784299999999,5.4052477,-0.98159844,1006.0361300000001,0,0
27.8,-8.352497,5.2574835,-0.65018934,1006.0411,0,0
27.84,-8.395503999999999,5.2574830000000015,-0.295108,1006.0559699999999,0,0
27.88,-8.094366,5.2145844000000015,-0.5697025,1006.00824,0,0
27.92,-8.357246,5.3623465999999995,-0.38979432,1006.0229,0,0
27.96,-8.189942,5.4672112,-0.8869058000000001,1006.05585,0,0
28.0,-7.9031460000000004,5.3194475,-0.7212008000000001,1006.0282599999999,0,0
28.04,-8.166283,5.1383243,-0.6549418,1006.0632300000001,0,0
28.08,-8.433950999999999,4.9714947,-0.38034633,1006.03314,0,0
28.12,-7.6739625999999985,5.3957185999999995,-0.38034633,1006.02325,0,0
28.16,-8.118484500000001,5.371886,-1.1567887,1006.06573,0,0
28.2,-8.381373,5.4100184,-1.0100221999999999,1006.0331,0,0
28.24,-8.128044000000001,5.3432865,-0.83958364,1006.05,0,0
28.28,-8.056347,5.3861856,-0.83958364,1006.0461,0,0
28.32,-8.261878,5.1716904999999995,-0.7117545999999999,1006.05334,0,0
28.36,-7.8603754,5.3194537,-0.71648914,1006.038,0,0
28.4,-8.486528999999999,5.023927,-0.9011309000000001,1006.0504,0,0
28.44,-8.22364,4.976261599999999,-0.9958189000000001,1006.0431,0,0
28.48,-8.586905499999999,4.7951326,-0.95320934,1006.0676,0,0
28.52,-8.677722,4.7713,-0.8774588,1006.05725,0,0
28.56,-8.319237,4.981028,-0.8111772,1006.0651,0,0
28.6,-8.343136,5.1192584000000005,-0.96267813,1006.0403,0,0
28.64,-8.304896000000001,5.3242199999999995,-0.64547294,1006.0425,0,0
28.68,-7.9129534,5.4576839999999995,-0.90586525,1006.0378,0,0
28.72,-7.889054,5.3671193,-0.93900603,1006.0651,0,0
28.76,-8.094584,5.243189,-1.0478975,1006.0299,0,0
28.8,-8.180622,5.090659,-1.2278048000000001,1006.0452,0,0
28.84,-8.390934,5.0525269999999995,-1.1757263,1006.0121,0,0
28.88,-8.328796,5.109725,-0.9863501,1006.03754,0,0
28.92,-8.022888,5.3575864,-1.0005534,1006.05725,0,0
28.96,-7.965530999999999,5.543482,-1.019491,1006.0545699999999,0,0
29.0,-8.008549,5.3766522000000005,-1.1520542999999999,1006.03723,0,0
29.04,-8.20898,5.181216,-1.0194615,1006.0345,0,0
29.08,-8.304563,5.081118,-1.0573357,1006.05225,0,0
29.12,-8.032102,4.9571867,-1.0715377000000001,1006.05176,0,0
29.16,-8.48139,5.076350700000001,-1.1567558,1006.0469400000001,0,0
29.2,-8.051196000000001,5.500573999999999,-1.0431291,1006.04425,0,0
29.24,-8.060742,5.5625386,-0.65964097,1006.0145,0,0
29.28,-8.051169999999999,5.4719744000000015,-0.43712294,1006.00104,0,0
29.32,-8.089397,5.3909426,-0.62649804,1006.04944,0,0
29.36,-8.266238000000001,5.1764470000000005,-0.7969354999999999,1006.0617,0,0
29.4,-8.361821,5.200279,-1.0431232,1006.05396,0,0
29.44,-8.060681,5.262244,-1.1709512,1006.0269,0,0
29.48,-8.256639999999999,5.190746,-0.91529214,1006.0341,0,0
29.52,-8.161033,5.0715814,-0.82533735,1006.06146,0,0
29.56,-8.270955,5.1859784000000015,-0.7259135999999999,1006.0515,0,0
29.6,-8.141889,5.305142,-0.73538136,1006.01074,0,0
29.64,-7.969803999999999,5.448138,-0.9436940999999999,1006.04944,0,0
29.68,-8.342614,5.233643,-0.93422407,1006.0388,0,0
29.72,-8.333043,5.219343,-1.1046615,1006.0294,0,0
29.76,-8.194416,5.2193427,-0.796924,1006.0593,0,0
29.8,-8.017551,5.3909388,-0.94842386,1006.0278300000001,0,0
29.84,-8.070116,5.281307,-0.80165625,1006.0387,0,0
29.88,-8.031866,5.2813067,-1.0431097,1006.0278300000001,0,0
29.92,-8.390338,5.052512,-1.0099678,1006.02765,0,0
29.96,-8.242153,5.2098083,-1.0999204,1006.0334,0,0
30.0,-8.113083999999999,5.2813063,-0.8868708000000001,1006.04584,0,0
30.04,-8.012792999999999,5.3623395,-0.78745604,1006.0154,0,0
30.08,-8.137058999999999,5.3003745,-0.7401113,1006.05115,0,0
30.12,-8.065353,5.3528066,-1.0052371999999998,1006.05304,0,0
30.16,-8.256536500000001,5.247942,-0.81586003,1006.01764,0,0
30.2,-8.19917,5.3289733,-0.7779842,1006.0102,0,0
30.24,-7.960171000000001,5.429069999999999,-0.6359511,1006.0199,0,0
30.28,-8.270849,5.371871499999999,-0.8868738000000002,1006.04834,0,0
30.32,-8.027072,5.348038,-0.71643454,1006.0104,0,0
30.36,-8.189573,5.243174,-0.79218394,1006.0525,0,0
30.4,-7.9888144,5.3194385,-0.8158552,1006.0201400000001,0,0
30.44,-8.242136,5.2050410000000005,-0.94841784,1006.0323,0,0
30.48,-8.246903999999999,5.214574,-0.81111914,1006.0244,0,0
30.52,-8.156082000000001,5.2574724999999995,-0.7543057,1006.0373,0,0
30.56,-8.294685000000001,5.262239,-0.86793035,1006.0066,0,0
30.6,-8.132166,5.243172599999999,-0.7116944000000001,1005.9917,0,0
30.64,-8.179953999999999,5.257472,-0.99102336,1006.0042,0,0
30.68,-8.208623,5.171673999999999,-0.8063807,1006.0098,0,0
30.72,-8.199053999999999,5.1716733,-0.89159924,1006.0219,0,0
30.76,-8.165587,5.219339,-0.90580165,1006.01984,0,0
30.8,-8.237276,5.233639,-0.95787925,1006.01685,0,0
30.84,-8.280285000000001,5.243171,-0.83951837,1006.0188,0,0
30.88,-8.122546,5.2765374000000005,-0.9389403000000001,1006.0193,0,0
30.92,-8.227689999999999,5.233638,-0.678547,1006.01135,0,0
30.96,-8.155984,5.3003697,-1.1709243999999999,1006.0141,0,0
31.0,-8.28025,5.25747,-0.89159364,1006.0213,0,0
31.04,-8.251852,5.2193445999999994,-0.8632129999999999,1006.0238,0,0
31.08,-8.12758,5.305143,-0.8632131,1006.02625,0,0
31.12,-8.103684,5.257477,-0.81586933,1006.0119,0,0
31.16,-8.170603999999999,5.3385086,-0.86794806,1006.0541400000001,0,0
31.2,-8.285321000000001,5.2670107,-0.9673708000000001,1005.9987,0,0
31.24,-8.027215,5.3480419999999995,-0.8963549999999999,1006.0288,0,0
31.28,-8.223188,5.1812124000000015,-0.8774175,1006.0362,0,0
31.32,-8.194512,5.214578599999999,-0.716448,1006.0210599999999,0,0
31.36,-8.266212,5.1478467000000006,-0.9294964,1006.0310000000001,0,0
31.4,-8.103702,5.3861747000000015,-0.8916214,1006.0210599999999,0,0
31.44,-8.055905000000001,5.3337426,-0.84427756,1006.0232,0,0
31.48,-8.079807,5.3099093,-0.834809,1006.0409,0,0
31.52,-8.213644,5.1335473,-0.9673726,1006.0081,0,0
31.56,-8.280563,5.076349,-1.0715297,1006.0081,0,0
31.6,-8.237548,5.1383142,-0.93423223,1006.0056,0,0
31.64,-8.180193,5.2860775,-0.9342325,1006.0132,0,0
31.68,-8.175415,5.2860775,-0.82534134,1006.01495,0,0
31.72,-8.041584,5.2479453000000005,-0.8158728,1006.01996,0,0
31.76,-8.366612,5.3003774,-0.85848266,1006.0256,0,0
31.8,-7.993791000000001,5.367108999999999,-1.2088288999999999,1006.023,0,0
31.84,-8.161086,5.281311,-1.0810002,1006.0205,0,0
31.88,-8.170648,5.143081,-0.8158736999999999,1006.02496,0,0
31.92,-8.275805,5.362343,-0.8348114999999999,1006.0073,0,0
31.96,-7.9268839999999985,5.4624405,-1.0525943000000002,1006.0255,0,0
32.0,-8.161096,5.362343,-0.96737534,1006.0374,0,0
32.04,-8.026686999999999,5.262231,-1.1046203,1006.01245,0,0
32.08,-8.361253,5.243164,-0.97205526,1006.01996,0,0
32.12,-8.203499,5.1239996,-1.0572728,1006.02496,0,0
32.16,-8.179578999999999,5.2908287000000005,-0.9152386,1006.0174599999999,0,0
32.2,-7.954910799999999,5.381393,-0.9010338,1006.02185,0,0
32.24,-8.079165,5.3861589999999975,-1.0193921000000001,1006.0399,0,0
32.28,-8.251216000000001,5.2288623,-1.0383277,1006.02716,0,0
32.32,-8.251199,5.2097955,-1.0146540000000002,1006.00684,0,0
32.36,-8.117344000000001,5.295593,-1.0619962,1006.0264,0,0
32.4,-8.069527,5.2765265,-1.0288537,1006.0317,0,0
32.44,-8.318058,5.109696400000002,-0.94836694,1006.0296599999999,0,0
32.48,-8.227219999999999,5.2955914,-0.8063329,1006.02185,0,0
32.52,-8.1507225,5.3432565,-0.73531497,1006.0314300000001,0,0
32.56,-7.959510000000001,5.3527894,-0.9010173,1006.03705,0,0
32.6,-8.141125,5.2383914,-1.1235327,1006.0268599999999,0,0
32.64,-8.251039500000001,5.1859589999999995,-1.161406,1006.0268599999999,0,0
32.68,-8.346616000000001,5.038195,-0.9057464,1006.03705,0,0
32.72,-8.51389,5.1144595,-0.66428995,1006.0119,0,0
32.76,-8.901034,5.000062000000002,-0.5553968,1006.0324,0,0
32.8,-8.126683,5.014361,-0.71163017,1006.0342400000001,0,0
32.84,-7.9928303,5.1621237,-1.2702882,1006.0314300000001,0,0
32.88,-8.212681,4.86183,-1.4928033,1006.0243,0,0
32.92,-8.03103,4.9714602999999995,-1.5117393,1006.02435,0,0
32.96,-8.131383999999999,5.128756,-1.4975341999999998,1006.01105,0,0
33.0,-8.222183,5.362317,-1.2134683000000002,1006.05115,0,0
33.04,-7.715566,5.591113,-0.9341421999999998,1006.0364,0,0
33.08,-7.806364999999999,5.7150426,-0.8205148999999999,1006.0235,0,0
33.12,-7.8876050000000015,5.667377,-0.86785746,1006.01105,0,0
33.16,-8.212613000000001,5.409982,-1.0146223,1006.0160000000001,0,0
33.2,-8.36555,5.152587400000002,-0.84891653,1006.04865,0,0
33.24,-8.179121,5.1049223,-0.91993105,1006.00323,0,0
33.28,-8.097846,5.16212,-1.1093057,1006.0358,0,0
33.32,-8.011792999999999,5.2336183,-1.0761633,1006.0185,0,0
33.36,-7.9926515,5.1335196,-0.8725818000000001,1006.0383,0,0
33.4,-8.054777,5.2097845000000005,-1.0808947,1006.0308,0,0
33.44,-8.288967,5.233617,-0.8205005,1006.0278300000001,0,0
33.48,-8.135999,5.548209,-0.820499,1005.9956,0,0
33.52,-7.853967,5.5386760000000015,-0.91518503,1006.00085,0,0
33.56,-8.3749485,5.4147444,-0.66899437,1006.0229,0,0
33.6,-8.24588,5.3480120000000015,-0.8820414000000001,1006.0306,0,0
33.64,-7.98297,5.4671755,-0.3565205,1006.0383,0,0
33.68,-8.293639,5.386143700000001,-0.14347069,1006.0179400000001,0,0
33.72,-8.327081,5.5291405,-0.21448521,1006.02295,0,0
33.76,-7.9972587,5.7341022000000015,-0.15293644,1006.0353,0,0
33.8,-7.8920884000000004,5.5863385,-0.1103255,1006.038,0,0
33.84,-8.169295,5.1478148,-0.43226308,1006.0328400000001,0,0
33.88,-8.503863,5.0429497,-0.37544859999999997,1006.0174,0,0
33.92,-8.159704,4.9952836,-0.70212126,1006.02045,0,0
33.96,-8.250503,5.0429487,-0.84888613,1006.03723,0,0
34.0,-8.303059,5.028649,-1.1424173,1006.0149,0,0
34.04,-8.097188000000001,5.042939700000002,-1.0713701999999998,1006.0093,0,0
34.08,-8.25489,4.8141446,-0.86305344,1006.0197,0,0
34.12,-8.766302,4.809377,-1.0050832,1006.0273,0,0
34.16,-8.149677,5.014339,-0.9908771000000001,1006.0372,0,0
34.2,-8.359960000000001,4.9857388,-0.8157015000000001,1006.0118,0,0
34.24,-7.872391,5.1954665,-0.45588409999999996,1006.0266,0,0
34.28,-8.068338,5.3575287000000005,-0.69733655,1006.0628,0,0
34.32,-8.474584,5.281263,-0.6121138,1006.0123,0,0
34.36,-8.541471000000001,5.1144323,-0.2759682,1006.0346699999999,0,0
34.4,-8.484083,5.243129,-0.23335595,1006.0442,0,0
34.44,-7.7431845999999975,5.3908916,-0.29963484,1006.045,0,0
34.48,-8.115978,5.1430297,-0.55055547,1006.0372,0,0
34.52,-8.636948,5.0429316,-0.7541323,1005.99615,0,0
34.56,-8.201955,5.176394,-0.63103503,1006.0166,0,0
34.6,-8.742042999999999,5.414721,-0.43692163,1006.0216,0,0
34.64,-7.8338523,5.4719190000000015,-0.5505446999999999,1006.0143,0,0
34.68,-8.053692999999999,5.2574234,-1.1565456,1006.0191,0,0
34.72,-8.579439,4.65207,-1.1376053999999998,1006.008,0,0
34.76,-8.07753,4.966662,-0.13864313,1006.01605,0,0
34.8,-8.230453,5.00956,-0.010811422,1006.0235,0,0
34.84,-8.125271000000001,5.2812532999999995,-0.2333260000000001,1006.0160000000001,0,0
34.88,-8.005744,5.4433155,-0.28066707,1006.01355,0,0
34.92,-7.5229554000000025,5.6625760000000005,-0.015537791,1006.008,0,0
34.96,-8.416747,5.653043,0.17384115,1006.0235,0,0
35.0,-7.498996000000001,5.6101427,-0.105485916,1006.0061599999999,0,0
35.04,-8.84854,5.0906286,-0.058292072,1006.0391,0,0
35.08,-8.666941,5.2383924,0.3583325,1006.01025,0,0
35.12,-8.021703,5.653084,-0.11984564,1006.01105,0,0
35.16,-7.8448863,5.5863533,-0.4417884,1005.9876,0,0
35.2,-7.7827845,5.74365,-0.25714988,1006.059,0,0
35.24,-7.7445774000000025,5.686452,-0.59802985,1006.0210599999999,0,0
35.28,-8.313411,5.419526,-0.4133915,1006.01855,0,0
35.32,-7.9501796,5.362328,-0.48914504,1006.0185,0,0
35.36,-8.428192,5.1001678,0.28255990000000003,1006.0409,0,0
35.4,-7.9741472999999985,4.7283773,0.31096306,1006.0187400000001,0,0
35.44,-8.51908,4.7045455,-0.541233,1006.0055,0,0
35.48,-8.925397,4.3804207,-0.52703285,1006.0277,0,0
35.52,-8.724681,4.9619417000000015,-0.22403420000000002,1006.03534,0,0
35.56,-8.265853,5.295601400000002,-0.34713176,1006.0154,0,0
35.6,-8.743871,5.07634,0.18311806,1006.018,0,0
35.64,-8.4141,5.0715747,0.74177456,1006.0202,0,0
35.68,-8.060431,5.1430739999999995,0.32514372,1006.0123,0,0
35.72,-8.371153,5.224107,0.022138547,1006.00006,0,0
35.76,-8.313827999999999,5.324205,-0.6785563,1005.9847,0,0
35.8,-8.175249,5.610199,-0.30454165,1006.0277,0,0
35.84,-7.5825853,6.0248904,-0.3424197,1006.03265,0,0
35.88,-7.8885307000000005,5.896194,-0.30454794,1006.0323,0,0
35.92,-7.6352363,5.843763,-0.4513178,1006.007,0,0
35.96,-7.8264619999999985,5.6960006,-0.41817993,1006.013,0,0
36.0,-7.82172,5.7532,-0.37557375,1006.002,0,0
36.04,-7.944589,5.638768700000001,-0.57429016,1006.0045,0,0
36.08,-7.9254479999999985,5.7722316,-0.59796005,1006.0121,0,0
36.12,-7.89197,5.858029,-0.83941305,1006.0071,0,0
36.16,-7.9158473,5.8055964000000015,-0.65476924,1006.0074,0,0
36.2,-7.7341933,5.781763,-0.3991094,1005.9946,0,0
36.24,-8.044855,5.7817625999999995,-0.26180935,1006.0173300000001,0,0
36.28,-7.738929,5.7960614999999995,-0.42751178,1006.007,0,0
36.32,-8.040030499999999,5.5815660000000005,-0.65002644,1006.0323,0,0
36.36,-8.250323,5.567266,-0.7352439000000001,1005.99457,0,0
36.4,-7.877476,5.557732,-1.099791,1006.0096,0,0
36.44,-7.8392152999999976,5.533899,-0.77311516,1006.01984,0,0
36.48,-7.949130999999999,5.548198,-0.76364446,1005.9995,0,0
36.52,-7.810500599999999,5.500532,-0.74943984,1005.9945,0,0
36.56,-8.173739,5.5624970000000005,-0.73049986,1006.0269,0,0
36.6,-7.987307,5.7483916,-1.1518601000000002,1006.0119,0,0
36.64,-8.044648,5.6292269999999975,-0.9293413,1006.0044,0,0
36.68,-7.8534284,5.548195400000001,-0.602665,1006.0214,0,0
36.72,-8.07328,5.495763,-0.7778363,1006.0139999999999,0,0
36.76,-7.882064999999999,5.390898,-0.70208365,1005.99896,0,0
36.8,-8.135378999999999,5.438562999999999,-0.7068166,1005.9989999999999,0,0
36.84,-8.049315,5.433796,-0.50323474,1006.0143400000001,0,0
36.88,-8.001495,5.5529594000000015,-0.7210154000000001,1006.0144,0,0
36.92,-8.030155,5.6625896,-0.773092,1006.00903,0,0
36.96,-8.058812,5.414728,-0.6547299,1006.0219999999999,0,0
37.0,-7.958417,5.409961,-0.5268991999999999,1006.0189999999999,0,0
37.04,-8.222023,5.3384805,-0.6500593000000001,1006.0195,0,0
37.08,-8.021278,5.438578,-0.6121848000000001,1006.0089999999999,0,0
37.12,-7.9639286999999985,5.5243764,-0.55537266,1006.0069,0,0
37.16,-8.537512,5.6054080000000015,-0.48909163,1006.01685,0,0
37.2,-8.126457,5.471945,-0.48435795,1006.01685,0,0
37.24,-7.830116999999999,5.572042,-0.5080307,1006.00397,1,2
37.28,-8.131250999999999,5.195485,-0.48909366,1006.0065300000001,1,2
37.32,-8.293772,5.0143557,-0.7021426,1005.9936,1,2
37.36,-8.164725,5.195485,-0.75422174,1005.99603,1,2
37.4,-8.006999,5.2908163,-0.7163473000000001,1006.02136,1,2
37.44,-7.9400897,5.233618,-0.47489327,1006.0115400000001,1,2
37.48,-8.193424,5.2383847,-0.6832075,1006.0308,1,2
37.52,-7.7250133000000005,5.247918,-0.42755058,1006.0139999999999,1,2
37.56,-7.6963425,5.3623157,-0.5648491,1006.03174,1,2
37.6,-7.949679400000001,5.400448,-0.42281756,1006.0139999999999,1,2
37.64,-7.4812660000000015,5.5815773,-0.806305,1006.0364,1,2
37.68,-7.906675999999999,5.4052153,-0.5932575,1006.00104,1,2
37.72,-7.868444999999999,5.333717,-0.66900873,1006.0165,1,2
37.76,-7.9640483999999985,5.0524907,-0.86785424,1006.0183,1,2
37.8,-8.2651825,5.128755,-0.7400260999999999,1006.0389,1,2
37.84,-8.75751,5.224086799999999,-0.58852583,1005.99603,1,2
37.88,-8.786197,5.500547,-1.0572327,1006.0060000000001,1,2
37.92,-8.953496000000003,5.538679599999999,-1.3412975,1006.02136,1,2
37.96,-8.255654,5.533914,-1.7958011999999999,1006.0110000000001,1,2
38.0,-8.02145,5.257453400000001,-1.7626609,1006.01886,1,2
38.04,-7.891827,5.019111,-1.5211543,1006.04425,1,2
38.08,-7.294337,4.9142470000000005,-1.4075273000000001,1006.0158,1,2
38.12,-7.614567299999999,4.966678599999999,-1.4785419,1006.0034,1,2
38.16,-7.853542299999999,5.0763087,-1.3791178,1006.01636,1,2
38.2,-7.891767999999999,5.314636699999999,-1.639509,1006.0238,1,2
38.24,-8.65652,5.3861346,-1.7531332,1006.0208,1,2
38.28,-8.403176,6.120184,-1.369645,1006.0109,1,2
38.32,-9.029314999999999,6.310846,-1.1281891000000002,1006.01044,1,2
38.36,-9.397345,6.773200999999999,-1.2039381000000002,1006.0179,1,2
38.4,-9.263496,7.283222,-0.668949,1006.0288,1,2
38.44,-9.363856,7.1020927,-0.0061309934,1006.02576,1,2
38.48,-6.7636285,7.025828,-0.30439705,1006.0387,1,2
38.52,-4.2733355,6.811332000000001,-0.44169343,1006.0107,1,2
38.56,-5.7598405,5.9819510000000005,1.3384439,1006.0308,1,2
38.6,-7.308481,5.390897799999999,1.4283991000000005,1006.0333,1,2
38.64,-7.8438034,4.7378792999999995,0.7324431,1006.0284,1,2
38.68,-8.613337,4.761711599999999,0.48152098,1006.00323,1,2
38.72,-8.092325,5.295565,0.56200707,1006.0157,1,2
38.76,-7.2749615000000025,5.4385614,-0.5979205,1006.0160000000001,1,2
38.8,-8.216567999999999,4.628247,0.6803701,1006.0085,1,2
38.84,-7.905866599999999,5.004804599999999,1.8308316000000002,1006.03076,1,2
38.88,-7.685981,5.6435227,1.7030042,1006.0306,1,2
38.92,-7.341820200000001,6.239342,1.6367239,1006.0252,1,2
38.96,-7.9297204,6.491969,1.8639767,1006.0479,1,2
39.0,-8.441145,6.186909,1.6177888999999999,1006.0234,1,2
39.04,-9.417010000000001,5.9724330000000005,1.9207188999999998,1006.01526,1,2
39.08,-9.603438,6.0391655,1.7881542000000001,1006.01776,1,2
39.12,-8.23165,5.6530747,0.9548975000000001,1006.0179,1,2
39.16,-7.6819897,5.0286565,0.27314186,1006.0028,1,2
39.2,-6.6925855,4.756963,-0.9104607,1006.01044,1,2
39.24,-7.46215,4.561535,-0.7731645,1006.0182,1,2
39.28,-8.738375999999999,4.5043364000000015,-0.020395774,1006.0102,1,2
39.32,-9.020397,4.6759324,0.273136,1006.0204,1,2
39.36,-7.400061999999999,5.414749,-0.14822763,1005.9979,1,2
39.4,-6.9890149999999975,5.381384,-0.4228245,1006.0079300000001,1,2
39.44,-8.313041,4.852296400000001,0.25892788,1006.01776,1,2
39.48,-7.562628299999999,5.1144576,0.21631673,1006.0179,1,2
39.52,-6.821772999999999,5.2431545,0.116892904,1005.99286,1,2
39.56,-8.356107000000002,4.899963400000002,-0.5790662,1006.01276,1,2
39.6,-9.508057,5.2431555,-0.687959,1006.0095,1,2
39.64,-9.06833,5.824676,0.14529482,1006.01276,1,2
39.68,-10.70782,6.001039,0.88386035,1006.06036,1,2
39.72,-9.833132,6.0439386,1.328893,1006.01526,1,2
39.76,-7.935566400000001,5.8675760000000015,2.223694,1006.0277,1,2
39.8,-6.4299383,5.9343080000000015,2.1337395,1006.0179,1,2
39.84,-7.758741400000001,4.976230999999999,3.6487472000000003,1006.0451,1,2
39.88,-7.4910929999999984,5.0000644,3.4641035000000002,1006.0224599999999,1,2
39.92,-7.601043700000001,5.305124299999999,2.8249576000000003,1006.0126,1,2
39.96,-7.256914599999999,5.762714,2.0958579,1005.99457,1,2
40.0,-7.5532784,5.9867425,2.8959707999999997,1006.0075699999999,1,2
40.04,-7.361169999999999,6.1344833,3.0333523999999996,1006.00775,1,2
40.08,-7.1365004,5.9199877,2.7492897999999997,1006.0075699999999,1,2
40.12,-6.940508,5.8627887,3.151716,1006.0205699999999,1,2
40.16,-6.395589,6.320378,3.842941,1006.0229,1,2
40.2,-6.1709175000000025,6.4776735,2.9860156000000004,1006.03705,1,2
40.24,-7.86773,5.724557,2.0533397,1006.0101,1,2
40.28,-9.382908,5.300333,1.3100398000000002,1006.0046,1,2
40.32,-8.536862,5.471928599999999,1.2058847,1005.98224,1,2
40.36,-8.675455,5.5434265,1.8024216,1006.0098,1,2
40.4,-8.503363,5.6578230000000005,1.8402987000000002,1006.0101,1,2
40.44,-7.9775667000000015,5.205,1.2721717,1006.0253,1,2
40.48,-7.939307,4.8379745000000005,-0.0013811514,1006.0102,1,2
40.52,-8.522424,4.6616116,-0.49375755,1006.0174599999999,1,2
40.56,-9.659997,4.3756175000000015,-0.11500327,1006.0082,1,2
40.6,-8.971684,4.599645,0.5762217,1006.0098,1,2
40.64,-8.708776,4.7712407,1.3053217,1006.0073,1,2
40.68,-7.967888,5.357526999999998,1.3431988000000001,1006.0075699999999,1,2
40.72,-7.9200697,5.5148230000000025,1.1774963999999999,1006.0427,1,2
40.76,-9.220155,4.6997414000000015,1.149092,1006.01526,1,2
40.8,-9.870187,4.6091757000000015,0.8792328000000001,1006.0278,1,2
40.84,-9.353949,4.737872,1.4852383999999998,1006.01526,1,2
40.88,-8.942867,5.214527599999999,2.488934,1006.0378,1,2
40.92,-7.2603554999999975,5.7960477,2.6972497000000004,1006.01276,1,2
40.96,-7.030906,5.705482,1.7503705000000005,1006.0075699999999,1,2
41.0,-7.6761589999999975,5.7245474000000005,1.4473703000000002,1005.9873699999999,1,2
41.04,-6.6445026,5.7626995999999995,0.3205105,1005.9907,1,2
41.08,-6.6540740000000005,5.3813752999999975,-0.62163705,1005.9756,1,2
41.12,-7.069928,4.9571514,-1.0950785,1006.0256,1,2
41.16,-7.8442664,4.532929,-1.5543168,1005.99036,1,2
41.2,-9.130044999999999,3.9228096,-1.0193301,1006.0129400000001,1,2
41.24,-9.05836,3.8274790999999997,-0.11505989999999999,1005.99536,1,2
41.28,-9.450314,3.6749492,0.22108193,1006.0252,1,2
41.32,-9.713214,3.4747543,0.4483323,1006.01276,1,2
41.36,-8.87676,3.7130822999999995,0.54301935,1006.01776,1,2
41.4,-8.867211,4.123006299999999,0.6519096,1006.00543,1,2
41.44,-7.9781804,4.356568,0.6755806,1006.0107,1,2
41.48,-7.3998345999999975,4.4900317,0.96437836,1005.9829,1,2
41.52,-8.613914999999999,4.6234956,0.97858053,1005.9902,1,2
41.56,-9.627246000000001,5.367079,0.91703224,1006.01044,1,2
41.6,-9.933164,5.948599,1.2152987,1005.9829,1,2
41.64,-8.695205999999999,6.430022,0.95017093,1006.0129400000001,1,2
41.68,-8.370191,6.4729204000000005,1.3999382,1006.0256,1,2
41.72,-7.567195,6.358524,1.3052492,1006.01276,1,2
41.76,-7.744059599999999,5.6816726,0.8554798000000001,1006.0231,1,2
41.8,-7.7631893,5.5148435,0.18319328,1006.0132,1,2
41.84,-7.772761,5.600642,0.15952024,1006.0234,1,2
41.88,-8.346347999999999,5.886636,0.46725553,1006.0082,1,2
41.92,-8.809999000000003,5.7960709999999995,0.18319027,1006.03815,1,2
41.96,-8.881708,5.6864405,-0.06773421,1006.0132,1,2
42.0,-8.336822,5.409981,0.14531295,1006.0157,1,2
42.04,-7.1503233999999996,5.2383574999999984,-0.20019725,1006.0205699999999,1,2
42.08,-8.41216,4.776000499999999,-0.20966318,1006.0208,1,2
42.12,-8.49816,4.961896,-0.15284716,1005.9904,1,2
42.16,-8.2973795,5.114424700000002,0.50997233,1005.9982,1,2
42.2,-8.345144,5.0619917,0.8981966,1006.0110000000001,1,2
42.24,-8.62712,4.795064,0.34900865,1006.0158,1,2
42.28,-8.091754,4.876094999999999,-0.47477537,1005.9957,1,2
42.32,-8.78956,4.470936,-0.50791204,1006.00354,1,2
42.36,-8.411924,4.5662665,-0.25225136,1005.99854,1,2
42.4,-8.426233,4.6329970000000005,0.34902093,1006.0143400000001,1,2
42.44,-8.330613,4.718795,0.44844565,1006.0208,1,2
42.48,-8.808553,4.775992400000002,0.56680954,1006.02136,1,2
42.52,-8.923244,4.8093580000000005,0.60942125,1006.0183,1,2
42.56,-8.531259,5.019086,0.2827511,1006.0160000000001,1,2
42.6,-7.995889,5.1287155,0.5289432,1006.0009,1,2
42.64,-7.785547,5.0143175000000015,0.36324185,1005.99335,1,2
42.68,-8.684118,4.351765599999999,0.4910736,1006.01184,1,2
42.72,-8.707981,4.418496,0.21174711,1006.0160000000001,1,2
42.76,-8.344683,4.7521544,-0.029704500000000002,1005.9836,0,0
42.8,-8.3637705,4.8808503,0.48634845,1005.99603,0,0
42.84,-8.148647,5.1954427,0.33958492,1005.99097,0,0
42.88,-8.196411,5.2192739999999995,0.20229019,1006.0182,0,0
42.92,-8.253738,5.119176,0.33485636,1006.0107,0,0
42.96,-8.5022545,5.0953426,0.36326578,1005.9960000000001,0,0
43.0,-8.000342,5.176373,0.24964312,1006.0084,0,0
43.04,-8.287871,5.0333943,0.20223127,1006.0110000000001,0,0
43.08,-8.51252,4.776,0.121746615,1006.01135,0,0
43.12,-8.517297,4.761700599999998,0.50523365,1006.0133,0,0
43.16,-8.3739,5.023861,0.5762499,1006.0193,0,0
43.2,-8.407356,5.2049904,-0.0013472252,1006.0039999999999,0,0
43.24,-7.986731,5.262189,-0.04395661,1005.9957,0,0
43.28,-8.402572,5.028628,0.29692072,1006.0165,0,0
43.32,-8.378671,4.866564299999999,-0.048690584,1006.01636,0,0
43.36,-8.498161999999999,4.675902400000001,-0.0155495405,1006.0135,0,0
43.4,-8.698912,4.4757066,0.045997985,1006.01685,0,0
43.44,-8.751488,3.960919,0.18803032,1005.98364,0,0
43.48,-9.707445,3.932319600000002,1.130177,1006.0158,0,0
43.52,-8.909217,4.5710382,0.35846934,1006.0157,0,0
43.56,-8.311738,5.0905924,-0.21912776,1006.0193,0,0
43.6,-7.852874799999999,5.2717214000000014,-0.21439315,1005.99854,0,0
43.64,-8.173119999999999,5.209756400000002,-0.42744118,1005.99603,0,0
43.68,-8.197014999999999,5.042927,-0.48898822,1005.99603,0,0
43.72,-8.402544,4.7855324999999995,-0.34222138,1006.0218,0,0
43.76,-8.421661,4.7426333,0.08860964,1006.01385,0,0
43.8,-8.674989,4.5758038,0.12175068,1006.0165,0,0
43.84,-8.469453999999999,4.8141317,-0.29014224,1005.9761,0,0
43.88,-8.278259,4.961894999999998,-0.51739347,1005.98615,0,0
43.92,-8.502908,4.8093650000000014,-0.12443766,1006.0193,0,0
43.96,-8.7466755,4.737867,-0.10549979,1006.0289,0,0
44.0,-8.531582,4.737867,-0.06762436,1006.01636,0,0
44.04,-8.178291,4.7950754,-0.11974074,1006.0169,0,0
44.08,-8.809238,4.756943,0.23060395,1006.0060000000001,0,0
44.12,-8.379069,4.9285398,-0.06766477,1005.9939999999999,0,0
44.16,-8.283488,4.9094739999999994,-0.07240045,1006.0289,0,0
44.2,-8.594189,4.7521777,0.06963042,1006.01685,0,0
44.24,-8.804513,4.66638,0.14064531,1006.0243,0,0
44.28,-8.828426,4.899942,0.40577070000000004,1006.0264,0,0
44.32,-8.058891000000001,5.2907996,0.32528463,1006.0169,0,0
44.36,-8.14972,5.081071400000001,0.14537604,1006.03174,0,0
44.4,-8.833245,4.8475103,0.07435869,1005.9836,0,0
44.44,-8.560811,5.081072,-0.053471524000000006,1006.00903,0,0
44.48,-8.101965,5.2383685,-0.04873847,1006.0314,0,0
44.52,-8.489142,4.8475113,0.3016062,1006.0264,0,0
44.56,-8.613431,4.7950797,0.476778,1006.0089999999999,0,0
44.6,-8.087666,4.9857426,0.24005651,1006.01385,0,0
44.64,-8.364906,5.162105,-0.006133705400000001,1005.9786,0,0
44.68,-8.364921,5.238370400000001,-0.31860572,1005.9836,0,0
44.72,-8.384055,4.9666767,-0.29020062,1005.98865,0,0
44.76,-8.427087,4.9571442999999995,-0.08188808,1006.0115400000001,0,0
44.8,-8.326725,4.7903150000000005,0.07908046,1006.0269,0,0
44.84,-8.384095,4.823681400000001,0.15009536,1006.00903,0,0
44.88,-8.508384,5.0572433,0.09328121,1005.9861,0,0
44.92,-8.097335000000001,5.328937000000002,-0.11976828,1006.0110000000001,0,0
44.96,-8.3459,5.0477104000000015,-0.039284702000000005,1005.98865,0,0
45.0,-8.513205000000001,4.8618155,-0.17184919,1005.9965,0,0
45.04,-8.441680999999999,4.837987,-0.1576619,1005.9982,0,0
45.08,-8.537298,4.8904195,0.19741660000000005,1006.0234,0,0
45.12,-7.9637423,5.238378,0.25422764,1006.0139999999999,0,0
45.16,-8.479985000000001,5.090616000000002,0.05064599,1005.9936,0,0
45.2,-8.675971,4.9857515999999995,0.2163489,1006.0093400000001,0,0
45.24,-8.0928545,5.162115,0.18794061,1006.00397,0,0
45.28,-8.556517999999999,5.300346,0.10271935,1006.002,0,0
45.32,-8.1168,5.1764160000000015,0.017497878999999997,1006.0139999999999,0,0
45.36,-8.470525,4.8713565,0.34416994,1006.0194,0,0
45.4,-8.57092,4.6806946,0.0032910556,1005.9939999999999,0,0
45.44,-8.413207,4.8379917,-0.3091815,1005.98865,0,0
45.48,-8.642656,4.8141594,-0.16241671,1005.9915,0,0
45.52,-8.551862,4.876125,0.01748869,1006.02435,0,0
45.56,-8.389366,4.9285574,-0.19556117,1006.0294,0,0
45.6,-8.260330999999999,4.8618264,0.017485214,1005.9989999999999,0,0
45.64,-8.652295,4.6806974000000015,-0.020391885,1006.0297,0,0
45.68,-8.461124,4.923793,0.06009113,1006.01984,0,0
45.72,-8.5424,4.876127200000001,0.10269903,1006.0247,0,0
45.76,-8.356008000000001,4.9094940000000005,0.19265087,1006.002,0,0
45.8,-8.494642,4.9714594000000005,-0.27132259999999997,1006.0123,0,0
45.84,-8.379946,4.885662,-0.43229413,1006.0269999999999,0,0
45.88,-8.599838,4.7045330000000005,0.22578627,1006.0071,0,0
45.92,-8.365648,4.885663,0.11689296,1006.00745,0,0
45.96,-8.322649,5.0191274,-0.020406522,1005.99457,0,0
46.0,-8.489964,4.957162,-0.06301814,1006.00494,0,0
46.04,-8.660317,4.8427234000000015,-0.10073593,1006.0253,0,0
46.08,-8.081911999999999,5.123948599999999,-0.024981014,1006.0224,0,0
46.12,-8.421234,4.9380517,0.012898352,1006.00494,0,0
46.16,-8.464205999999999,4.952350599999999,0.23068511,1006.00037,0,0
46.2,-8.0292,5.0333805,-0.0060310103,1006.0359,0,0
46.24,-8.707880000000001,4.8379507,0.01291131,1006.00775,0,0
46.28,-8.712611,4.7473845,0.1975575,1006.018,0,0
46.32,-8.3732,4.9523459999999995,0.24964009999999998,1006.0384,0,0
46.36,-8.057689,5.1001077000000015,0.18809697,1006.0086699999999,0,0
46.4,-8.526061,5.0000089999999995,0.2165078,1006.023,0,0
46.44,-8.382617999999999,4.928509,-0.1006929,1005.998,0,0
46.48,-8.736272999999999,4.837943599999999,-0.15276666,1006.0031,0,0
46.52,-8.487678,4.8856077,0.34908438,1006.01605,0,0
46.56,-8.363357,5.0047708,0.107633844,1006.0004,0,0
46.6,-8.282055999999999,5.100101,0.14551325,1006.0011599999999,0,0
46.64,-8.406277000000001,4.9809356,0.031892475,1006.0187400000001,0,0
46.68,-8.606983,4.7902727,0.055568643,1006.039,0,0
46.72,-8.157633,5.085797299999999,-0.07699025,1006.0166,0,0
46.76,-8.492174,5.1429954,-0.15747103,1006.0191699999999,0,0
46.8,-8.516026,4.8856,-0.40839002,1006.0237400000001,0,0
46.84,-8.6306925,4.8236337,0.18814933,1006.0316,0,0
46.88,-8.315180999999999,4.9094305,0.2923104,1006.0498699999999,0,0
46.92,-8.209976,5.071492,0.13134505,1006.0347,0,0
46.96,-8.362881,5.142989,-0.04855794,1006.03723,0,0
47.0,-7.9947925,5.36225,0.050868694000000006,1006.025,0,0
47.04,-8.112308,5.2765207,-0.10562301,1006.0375,0,0
47.08,-8.571238000000001,5.0143614,-0.0724885,1006.0553,0,0
47.12,-8.418345,5.0906286,-0.015681155,1006.02795,0,0
47.16,-8.14118,5.386156,0.08846981,1006.01764,0,0
47.2,-7.9930716,5.4957886,-0.067771465,1006.0257,0,0
47.24,-8.213007000000001,5.376625499999999,-0.09144941,1006.0428,0,0
47.28,-8.136591000000001,5.4004601999999995,-0.11512697,1006.0455300000001,0,0
47.32,-8.241812,5.357563,-0.19561778,1006.0333,0,0
47.36,-8.065019,5.409996499999999,-0.04885674,1006.0483,0,0
47.4,-8.2467165,5.276535,0.29201448,1006.0532,0,0
47.44,-8.194199000000001,5.505331,0.09316391,1006.0182,0,0
47.48,-8.237286,5.2765379999999995,0.036344778,1006.0455300000001,0,0
47.52,-8.309042999999999,5.352804,0.27779388,1006.0160000000001,0,0
47.56,-8.16571,5.3242064000000004,0.10734974,1006.02875,0,0
47.6,-8.156219,5.2717757,-0.06782952,1006.0515,0,0
47.64,-8.380925,5.0239162,-0.20039804,1006.0010000000001,0,0
47.68,-8.419229,5.095416,0.08366035,1006.0314300000001,0,0
47.72,-8.228106,5.071585,-0.04890925,1006.0187400000001,0,0
47.76,-8.252065,5.133552,0.09311731,1006.0239,0,0
47.8,-8.457661,5.0143895,0.05050174,1006.04175,0,0
47.84,-8.280869500000001,5.090656,0.08363705,1006.0416,0,0
47.88,-8.419553,4.9714932,0.15464684,1006.01935,0,0
47.92,-8.25232,5.057293,-0.13415739999999998,1006.0268599999999,0,0
47.96,-8.477031,5.028695,-0.12942855,1006.0542,0,0
48.0,-8.252448,5.0382304000000016,-0.1957165,1006.0119,0,0
48.04,-8.312503999999999,5.0191126,0.13114808,1006.0342400000001,0,0
48.08,-8.30771,5.042945400000002,-0.13397728,1006.0075699999999,0,0
48.12,-8.446303,5.128742,0.026994321,1006.04486,0,0
48.16,-8.216854,5.2383733,0.20216903,1006.0454,0,0
48.2,-8.255073,5.190706700000002,0.2116397,1006.0174599999999,0,0
48.24,-8.307624,4.909479599999999,-0.07715665,1006.0098,0,0
48.28,-8.737789999999999,4.771249,0.06487711,1006.0056,0,0
48.32,-8.121174,4.980976999999998,-0.16237237,1006.03314,0,0
48.36,-8.4366255,5.019108999999999,-0.020338815,1006.0205699999999,0,0
48.4,-8.111574000000001,5.1049066,-0.115024716,1006.0231,0,0
48.44,-8.651672999999999,4.923776999999999,0.15010369,1006.0282,0,0
48.48,-8.125878,4.952376,-0.010864578,1006.0534,0,0
48.52,-8.847603999999997,4.7807794,0.06015371,1006.0335,0,0
48.56,-8.293127,4.899943,0.121702835,1006.0409,0,0
48.6,-8.436502,4.957141,-0.043999555999999995,1006.02356,0,0
48.64,-8.101894,5.1049037,-0.020325563999999997,1006.0489,0,0
48.68,-8.302626,5.114436,0.24480294,1006.0314300000001,0,0
48.72,-8.283489,5.128735,-0.06766616,1006.0367,0,0
48.76,-8.661072,5.0810695,0.12171201400000001,1006.04614,0,0
48.8,-8.269110000000001,5.1764,0.31582436,1006.0318599999999,0,0
48.84,-7.9966399999999975,5.271730000000002,-0.05345736,1006.0323,0,0
48.88,-8.469821000000001,5.023868599999999,0.09331092,1006.0368699999999,0,0
48.92,-8.173452000000001,5.0763,0.088578485,1006.04224,0,0
48.96,-8.493678,5.1477985,-0.17181191,1006.0318599999999,0,0
49.0,-8.555797,5.266962,0.36791196,1006.0522,0,0
49.04,-7.7783747000000005,5.471966,0.25413197,1006.0577,0,0
49.08,-8.265958,5.357569,-0.33293822,1006.0353,0,0
49.12,-8.610147,5.062043,-0.22405098,1006.0477,0,0
49.16,-7.9362435,5.2574735,-0.2429929,1006.05304,0,0
49.2,-8.462069,5.2527084,0.026863883999999998,1006.0525,0,0
49.24,-7.955454,5.2574754,0.10734473,1006.0735,0,0
49.28,-8.357004,5.023916000000002,0.0031835325,1006.06885,0,0
49.32,-8.481325,5.2527113,0.017382461999999998,1006.06934,0,0
49.36,-7.726161,5.4672074,0.14047293,1006.06146,0,0
49.4,-7.8504863,5.4243097,0.17360920000000002,1006.0667,0,0
49.44,-8.615300999999999,4.9381223,0.11205764,1006.06396,0,0
49.48,-8.725280999999999,5.104953299999999,0.46713394,1006.0845,0,0
49.52,-7.965336,5.4576793,0.102580786,1006.0472,0,0
49.56,-8.950026,5.200286,0.50973505,1006.077,0,0
49.6,-7.697761,5.4052496,0.29194838,1006.0621,0,0
49.64,-8.15189,5.076358,-0.1625588,1006.06,0,0
49.68,-8.72551,4.733167,-0.2951261,1006.06464,0,0
49.72,-8.658638999999999,4.8284993,-0.13416067,1006.0626,0,0
49.76,-8.07555,5.3099226999999996,0.07414883,1006.0626,0,0
49.8,-7.941763000000001,5.3432900000000005,-0.030012373,1006.0704300000001,0,0
49.84,-8.5201645,4.923833999999999,-0.19098645,1006.0531,0,0
49.88,-8.639708,4.5901760000000005,0.026791877999999998,1006.0700699999999,0,0
49.92,-8.525037,4.761773000000002,0.14514801,1006.0704,0,0
49.96,-8.161817999999998,4.838039,0.07886203,1006.076,0,0
50.0,-8.630286,4.900005999999999,0.13567059,1006.0529,0,0
50.04,-8.495339999999999,4.961944,-0.24298014,1006.06573,0,0
50.08,-8.366286,5.085874,0.060021654,1006.03314,0,0
50.12,-8.342389,4.9810095,-0.02519774,1006.0591,0,0
50.16,-8.461885,4.852313,0.06475583,1006.076,0,0
50.2,-8.38063,4.799881,0.07895896,1006.0538,0,0
50.24,-8.576603,4.838013,0.12156844,1006.0637,0,0
50.28,-8.280256,5.1573730000000015,-0.06780784,1006.0690300000001,0,0
50.32,-8.375854499999999,4.957177,0.11209944,1006.0762300000001,0,0
50.36,-8.409315,4.876146,0.40563244,1006.0566,0,0
50.4,-8.638745,4.8284802,0.12630239999999998,1006.07654,0,0
50.44,-8.471454,4.8809123,0.017411000000000003,1006.03723,0,0
50.48,-8.495355,4.9381113,0.24466228,1006.0342400000001,0,0
50.52,-8.323282,4.928578,0.08842684,1006.04175,0,0
50.56,-8.318503999999999,4.99531,0.0032074489,1006.0722,0,0
50.6,-8.265927,4.804648,0.16891149,1006.0598,0,0
50.64,-8.49058,4.9095125,0.30620912,1006.0603,0,0
50.68,-8.552717999999999,4.861847,0.21625529999999998,1006.0603,0,0
50.72,-8.29461,5.085875,0.41510022,1006.0603,0,0
50.76,-8.614859,4.933345,0.44824097,1006.0549,0,0
50.8,-8.385428,5.2288713,0.35355273,1006.0623,0,0
50.84,-7.783175,5.2479379999999995,-0.33767045,1006.0403,0,0
50.88,-8.710459,4.7808150000000005,0.06001939,1006.043,0,0
50.92,-8.4045515,4.6616516,0.40089643,1006.0681,0,0
50.96,-8.098645,4.8332477,0.3914275,1006.0681,0,0
51.0,-8.624425,4.7760487000000005,0.24939519,1006.0656,0,0
51.04,-8.539093,4.8999968,0.11676739,1006.0328,0,0
51.08,-8.653835,4.9857955,0.32981312,1006.0331,0,0
51.12,-8.242809,5.2860894,0.80325025,1006.0433,0,0
51.16,-8.166358,5.2527237,0.57599646,1006.0414400000001,0,0
51.2,-8.314556,5.1240273,0.3392741,1006.0614,0,0
51.24,-8.510562,5.0000978,-0.02527826,1006.03394,0,0
51.28,-8.305061,4.919067,-0.10576595,1006.0464,0,0
51.32,-8.907336,4.8046703,0.31559426,1006.0690300000001,0,0
51.36,-7.9131746,5.052532,0.0031201540999999996,1006.062,0,0
51.4,-8.520238,5.1001983,-0.18625869,1006.0591,0,0
51.44,-8.357745,4.9810348,-0.082103625,1006.0489,0,0
51.48,-8.405573,4.8571053,0.55230397,1006.0566,0,0
51.52,-8.639819000000001,4.842807,0.16881382,1006.0591,0,0
51.56,-8.319598,5.023936,0.21142112,1006.0672599999999,0,0
51.6,-8.486919,4.919072,0.06465193,1006.0398,0,0
51.64,-8.290977,5.004871400000002,-0.31410313,1006.06976,0,0
51.68,-8.434401,4.9476733,0.23981953,1006.0648,0,0
51.72,-8.639958,4.7808447,0.14039457,1006.0754,0,0
51.76,-8.386659,4.85711,0.2729552,1006.0648,0,0
51.8,-8.314989,4.804679,0.49073535,1006.06976,0,0
51.84,-8.635269000000001,4.966742,0.06463590000000001,1006.04205,0,0
51.88,-8.362847,4.9000115,0.107243046,1006.0423,0,0
51.92,-8.3198595,5.0096426,0.46705514,1006.0804,0,0
51.96,-8.601892999999999,4.847581,0.05989384,1006.0573,0,0
52.0,-8.382050999999999,5.119275,0.059891157,1006.0598,0,0
52.04,-8.247667999999999,5.0572963,0.3392713,1006.0654,0,0
52.08,-8.381509,5.0048639999999995,0.24458265,1006.0579,0,0
52.12,-8.529689999999999,4.981031400000001,0.32980135,1006.0579,0,0
52.16,-8.252466,5.181227,0.12148699,1006.0629,0,0
52.2,-8.271593,5.1907606,0.21144012,1006.0654,0,0
52.24,-8.520147,5.062062999999998,0.18776757,1006.0704,0,0
52.28,-8.520154,5.0239315000000015,0.26825184,1006.0555400000001,0,0
52.32,-8.663556,5.2336599999999995,0.06940624,1006.0629,0,0
52.36,-8.333755499999999,5.2193604,0.3392668,1006.0830699999999,0,0
52.4,-7.8844600000000025,5.367124,0.60439277,1006.0706,0,0
52.44,-7.9896216,5.143096,0.27298394,1006.0427,0,0
52.48,-8.591883000000001,4.904768,0.14988881,1006.06067,0,0
52.52,-8.233404,4.985800299999998,0.17356026,1006.066,0,0
52.56,-8.415042,4.904768499999999,0.23984142,1006.0654,0,0
52.6,-8.558442999999999,4.847569999999998,0.19249679,1006.0709,0,0
52.64,-8.596686,4.7808385,0.35820043,1006.066,0,0
52.68,-8.639712,4.628309,0.19723001,1006.0706,0,0
52.72,-8.85481,4.633075,0.23983909,1006.0880000000001,0,0
52.76,-8.400734,4.742707,0.07886881,1006.0785,0,0
52.8,-8.587153,4.7331734,0.29665086,1006.061,0,0
52.84,-8.429425,4.804672,0.14988369,1006.0505400000001,0,0
52.88,-8.553706,4.9524349999999995,0.03152305,1006.0709,0,0
52.92,-8.348182000000001,4.8571043,0.22089866,1006.043,0,0
52.96,-9.208552000000001,4.709341,0.022053111,1006.0784,0,0
53.0,-8.534605,4.7045746,-0.0489635,1006.0635,0,0
53.04,-8.610928999999999,5.0811285999999996,0.25878690000000004,1006.0479,0,0
53.08,-7.827041,5.486286,0.012597838,1006.0561,0,0
53.12,-7.741005,5.648349,0.46236628,1006.066,0,0
53.16,-7.7696834,5.5005856,0.30613095,1006.066,0,0
53.2,-8.166408,5.3146906,0.42922544,1006.0581699999999,0,0
53.24,-8.023013,5.2860913,0.12148914,1006.061,0,0
53.28,-8.209425999999999,5.138326999999999,0.05520746,1006.0663,0,0
53.32,-8.324141000000001,5.224126,0.031535447,1006.0531599999999,0,0
53.36,-7.9943339999999985,5.386189,0.06941069999999999,1006.038,0,0
53.4,-7.9608755,5.348056,0.22091164,1006.0555400000001,0,0
53.44,-8.242885000000001,5.295624299999999,0.036269855,1006.05304,0,0
53.48,-8.042132,5.4004884,-0.15784076,1006.05066,0,0
53.52,-8.147288,5.267025,0.09781712,1006.0631,0,0
53.56,-8.156847,5.3575897,-0.0063397995999999995,1006.0631,0,0
53.6,-8.257224,5.2050595,0.17356760000000002,1006.071,0,0
53.64,-8.32892,5.1955266,0.31559974,1006.0654,0,0
53.68,-8.448416,5.033462999999999,0.22091164,1006.076,0,0
53.72,-8.32892,5.2098265,0.07887949,1006.0454,0,0
53.76,-8.089931,5.3575897,0.045738675,1006.06067,0,0
53.8,-8.414957000000001,5.1764603,0.0031290203000000003,1006.0685,0,0
53.84,-8.352819,4.9905643,0.43869427,1006.0402,0,0
53.88,-8.352819,5.2193594,0.19723961,1006.0809300000001,0,0
53.92,-8.023013,5.2908573,0.33453736,1006.0531599999999,0,0
53.96,-8.462755,5.0763620000000005,0.1877708,1006.0663,0,0
54.0,-8.434076,5.066829,0.3629438,1006.0581699999999,0,0
54.04,-8.213823,5.2002835,0.19727463,1006.0635,0,0
54.08,-8.395436,5.2098165000000005,0.2209484,1006.04114,0,0
54.12,-8.036937,5.4433775,0.16887122,1006.0505400000001,0,0
54.16,-7.9317664999999975,5.491042,0.5097497000000001,1006.0505400000001,0,0
54.2,-8.247218,5.4862757,0.26356205,1006.06354,0,0
54.24,-7.979533999999999,5.4433765,0.25409463,1006.0505400000001,0,0
54.28,-8.237627999999999,5.3671107000000005,0.25883052,1006.0408,0,0
54.32,-7.941265,5.4052430000000005,0.1452062,1006.043,0,0
54.36,-8.055964999999999,5.438608,0.13100427,1006.0405,0,0
54.4,-8.122869,5.36711,0.37719467,1006.0458,0,0
54.44,-7.9555607,5.500573,0.22569509,1006.0654,0,0
54.48,-8.189756,5.4147744000000015,0.41033820000000004,1006.0505400000001,0,0
54.52,-7.945971000000001,5.505338,0.1736193,1006.0182,0,0
54.56,-8.132369,5.5720696,0.29198083,1006.0387,0,0
54.6,-8.132354,5.4719725,0.23990376,1006.0511,0,0
54.64,-7.9172463,5.55777,0.45295337,1006.0356,0,0
54.68,-7.9984894,5.4767375,0.15942161,1006.0433,0,0
54.72,-8.285261,5.405239,0.53344107,1006.043,0,0
54.76,-8.055817999999999,5.424305,0.20676832,1006.0377,0,0
54.8,-8.227877000000001,5.586368,0.2730513,1006.06793,0,0
54.84,-8.132265,5.5863676,0.16889579999999998,1006.0455300000001,0,0
54.88,-7.941058,5.4719695999999995,0.33933577,1006.0306,0,0
54.92,-8.337766,5.419537,0.43402526,1006.0531599999999,0,0
54.96,-7.9649253,5.410003700000001,0.33460423,1006.0331,0,0
55.0,-8.237359,5.27654,0.15469815,1006.02026,0,0
55.04,-8.439826,5.0477867,0.2539637,1006.0526,0,0
55.08,-8.296488,5.062088,0.050379105,1006.0405,0,0
55.12,-8.181826,5.1192884,0.3012977000000001,1006.0377,0,0
55.16,-8.043265,5.4148154,0.026697312,1006.0278,0,0
55.2,-8.138914999999999,5.2146215,-0.03485481,1006.0227,0,0
55.24,-8.430535,5.1192923,-0.07273494,1006.0405,0,0
55.28,-8.545301,4.961996599999999,0.064558245,1006.0328,0,0
55.32,-8.411516,4.8904996,0.2776019,1006.0576,0,0
55.36,-8.459367,4.9810658,0.2823314,1006.0555400000001,0,0
55.4,-8.206088000000001,5.0573315999999995,0.21604517,1006.0604,0,0
55.44,-8.449914,5.0525665,0.17343035,1006.0349,0,0
55.48,-8.550336999999999,5.0096690000000015,0.17816047,1006.0704,0,0
55.52,-8.335303,4.9763044999999995,0.083467215,1006.0555400000001,0,0
55.56,-8.765538000000001,4.895274,0.39119864,1006.03705,0,0
55.6,-8.153774,5.0239720000000005,0.29177156,1006.0424,0,0
55.64,-8.411936,5.138371,0.15920335,1006.0473599999999,0,0
55.68,-8.220797,5.1574383,-0.15800665,1006.0555400000001,0,0
55.72,-8.569776,5.1908054,-0.16748032,1006.04974,0,0
55.76,-8.034489,5.248006,-0.32845467,1006.0375,0,0
55.8,-8.555543,5.0287457,-0.3805383,1006.0328,0,0
55.84,-8.479116000000001,5.033513,-0.22430749,1006.0473599999999,0,0
55.88,-8.66558,5.0954795,0.017142557,1006.0501,0,0
55.92,-8.38362,5.195578599999998,0.07868524,1006.0423,0,0
55.96,-8.55575,5.2623115,-0.0728209,1006.0252,0,0
56.0,-8.359828,5.119316599999999,-0.011278212,1006.0555400000001,0,0
56.04,-8.821375,4.9238358,-0.015821017,1006.0249,0,0
56.08,-8.620593,4.966734400000001,-0.0158181,1006.0523699999999,0,0
56.12,-9.036406,5.1049643,-0.12944113,1006.04486,0,0
56.16,-8.62531,5.38619,-0.15784463,1006.0551,0,0
56.2,-8.352832000000001,5.581618,-0.08209143599999999,1006.06256,0,0
56.24,-8.692165,5.033462999999999,0.14989747,1006.0375,0,0
56.28,-9.036280999999999,4.9333644,0.29666674,1006.0427,0,0
56.32,-8.7638,4.9905624,0.017339788000000002,1006.0498699999999,0,0
56.36,-8.840245,5.1907573,-0.07261105,1006.0555400000001,0,0
56.4,-8.792415,5.2431884,-0.11048335,1006.02,0,0
56.44,-8.73503,5.309919,-0.10574639999999999,1006.0275,0,0
56.48,-9.093475999999999,5.22412,-0.06313315,1006.0246599999999,1,3
56.52,-8.849680000000003,5.2908516,-0.101006046,1006.0172,1,3
56.56,-8.91657,5.2527184,-0.18622276,1006.0427,1,3
56.6,-8.887857,5.157387,-0.02051552,1006.0476,1,3
56.64,-9.141155,5.1478524000000006,0.045769066,1006.0328,1,3
56.68,-9.050308,5.071587,0.07417819,1006.04205,1,3
56.72,-9.03115,5.429077599999999,-0.09625676,1006.0101300000001,1,3
56.76,-8.94031,5.5625405,-0.0015664846,1006.0324,1,3
56.8,-8.691725,5.581606400000001,-0.029969644,1006.035,1,3
56.84,-8.772947,5.457675,-0.08677939999999999,1006.0028699999999,1,3
56.88,-9.274796,4.9714849999999995,0.23516299,1006.01025,1,3
56.92,-8.91628,5.0239167,0.15941527,1006.0225,1,3
56.96,-8.940155,5.1669126,-0.10097483,1006.01324,1,3
57.0,-8.729805,5.410006,-0.10570559,1006.01495,1,3
57.04,-8.936048,5.352825,-0.09630191,1006.01324,1,3
57.08,-9.132017,5.4147897,-0.51766366,1005.98236,1,3
57.12,-8.940822,5.2717934,-0.11523902400000001,1005.9902,1,3
57.16,-8.67793,5.4767550000000025,-0.115238816,1006.0101,1,3
57.2,-9.041194,5.2908597,-0.13417618,1005.95715,1,3
57.24,-8.873897999999997,5.300393,-0.06789431,1006.00323,1,3
57.28,-9.074646000000001,5.176462,-0.015815627,1005.9852,1,3
57.32,-8.95037,5.257493,-0.19572279999999997,1005.9876,1,3
57.36,-8.902569,5.24796,-0.13890968,1005.9674699999999,1,3
57.4,-8.687475,5.2288938,-0.41350493,1005.9373,1,3
57.44,-8.993381,5.276559400000001,-0.11997163,1005.9354,1,3
57.48,-8.67313,5.357591,-0.26200354,1005.9678,1,3
57.52,-8.8452015,5.4052567000000025,-0.19098724,1005.9724,1,3
57.56,-8.720922999999999,5.357591,-0.2572687,1005.93787,1,3
57.6,-8.720921,5.190761,-0.23833083,1005.9401,1,3
57.64,-8.701799000000001,5.0096316,-0.26200262,1005.918,1,3
57.68,-8.835631,5.042998000000001,-0.048954193,1005.93787,1,3
57.72,-8.582299,5.214594,-0.17678289,1005.9205300000001,1,3
57.76,-8.653994,5.252726,-0.3046116,1005.9403699999999,1,3
57.8,-8.510597,5.3099245999999996,-0.17678243,1005.918,1,3
57.84,-8.524935000000001,5.2622595,-0.23832946,1005.9281,1,3
57.88,-8.438895,5.1240287,-0.35195494,1005.9202,1,3
57.92,-8.692222000000001,5.162162,-0.20518820000000002,1005.9078,1,3
57.96,-8.630082000000002,5.0429974,-0.06789021,1005.89996,1,3
58.0,-8.529703999999999,5.2384260000000005,-0.36142305,1005.8674,1,3
58.04,-8.586706,5.1955184999999995,-0.119935855,1005.8854,1,3
58.08,-8.256885,5.2193510000000005,-0.16727847,1005.8676,1,3
58.12,-8.400262,5.1335526,-0.082057685,1005.8652,1,3
58.16,-8.31899,5.104953,-0.15780677,1005.8881,1,3
58.2,-8.534061999999999,5.004854,-0.20988356,1005.88354,1,3
58.24,-8.424112,5.0382204,-0.30930465,1005.8701,1,3
58.28,-8.194666,5.128784,-0.1483335,1005.86084,1,3
58.32,-8.409741,5.1573834000000005,-0.17673843,1005.8403300000001,1,3
58.36,-8.099037,5.066818,-0.17673692,1005.8384,1,3
58.4,-8.424047999999999,5.019152,-0.21461065,1005.8432,1,3
58.44,-8.280636999999999,4.9047540000000005,-0.20040597,1005.8506,1,3
58.48,-8.452696000000001,4.9238205000000015,-0.15779498,1005.8357,1,3
58.52,-8.347524,5.0048513,-0.22880955,1005.8176,1,3
58.56,-8.462221000000001,5.143081,-0.0062909983,1005.8384,1,3
58.6,-8.218435000000001,5.3289766,-0.15305604,1005.8332,1,3
58.64,-8.094144,5.2431779999999995,-0.20986736,1005.81354,1,3
58.68,-8.204064,5.0191493,-0.08677146,1005.81604,1,3
58.72,-8.471716,4.9285846,-0.24300532,1005.81635,1,3
58.76,-8.51472,4.857086,-0.19092545,1005.80615,1,3
58.8,-8.495584,5.009615,-0.29034629999999995,1005.8012,1,3
58.84,-8.280475,5.267009,-0.16725029,1005.8219,1,3
58.88,-8.03191,5.3385067,-0.1625145,1005.8012,1,3
58.92,-8.414277,4.952415,-0.17198169,1005.7710000000001,1,3
58.96,-8.380802000000001,4.7855854,0.10734949999999999,1005.79865,1,3
59.0,-8.567199,4.7426863,-0.10096282,1005.7813,1,3
59.04,-8.319465,4.9905669999999995,-0.13417816,1005.76886,1,3
59.08,-8.266903999999998,5.1144977,-0.30935273,1005.74896,1,3
59.12,-8.47245,5.238428599999999,-0.2525413,1005.7669999999999,1,3
59.16,-8.286055000000001,5.138331,-0.30462128,1005.77386,1,3
59.2,-8.123559,5.0620666,0.12147364,1005.74646,1,3
59.24,-8.262188,4.8857045,0.04098736,1005.7615,1,3
59.28,-8.625469,4.8285065000000005,-0.06790547,1005.74896,1,3
59.32,-8.544229,4.947671,-0.34723672,1005.7389999999999,1,3
59.36,-8.209661500000001,5.2193646,-0.18153438,1005.7517,1,3
59.4,-8.228794,5.2193646,-0.19573885,1005.73895,1,3
59.44,-8.333966,4.9524384,0.08358955400000001,1005.75385,1,3
59.48,-8.472596000000001,4.9572053,-0.06317842,1005.762,1,3
59.52,-8.520411,5.0001050000000005,0.08358663,1005.71405,1,3
59.56,-8.276661,5.195533999999999,-0.25255802,1005.7372,1,3
59.6,-8.319693,5.0763707,-0.034776527,1005.7169,1,3
59.64,-8.30537,4.909542,0.012565827,1005.73224,1,3
59.68,-8.587396,4.780844999999999,-0.091592595,1005.7221699999999,1,3
59.72,-8.439239500000001,5.019173,0.15459487,1005.6918300000001,1,3
59.76,-8.10467,5.2765675000000005,-0.13893975,1005.6818,1,3
59.8,-8.448831,5.071606,-0.36619258,1005.6846,1,3
59.84,-8.1955185,4.838045,-0.044254567,1005.6743,1,3
59.88,-8.510997,4.8380456,-0.09159966,1005.6745599999999,1,3
59.92,-8.405857000000001,4.9476767,-0.034788337,1005.6594,1,3
59.96,-8.171667,5.166939,-0.04899342,1005.6924,1,3
60.0,-8.343755999999999,5.1383395,-0.17682378,1005.6594,1,3
60.04,-8.59678,4.9238377,-0.044232447,1005.6601,1,3
60.08,-8.386472999999999,4.8142065999999994,0.15461221,1005.6527,1,3
60.12,-8.525089,4.861872,-0.044233095,1005.6652,1,3
60.16,-8.333901,4.942903500000001,-0.10104634,1005.6755400000001,1,3
60.2,-8.276547,4.9333706,0.036251094,1005.6652,1,3
60.24,-8.434285000000001,5.071601,-0.18626629,1005.65765,1,3
60.28,-8.482087,5.1621656,-0.37090838,1005.62463,1,3
60.32,-8.276558,5.0716014000000005,0.059922084,1005.61536,1,3
60.36,-8.458195,5.0334687,0.12146896,1005.64264,1,3
60.4,-8.290905,4.923838,-0.23834611,1005.6252,1,3
60.44,-8.305247999999999,4.957204,-0.06317350000000001,1005.6279,1,3
60.48,-8.286133999999999,5.0144033,-0.29989403,1005.62085,1,3
60.52,-8.247899,5.0525355,-0.1862687,1005.6327,1,3
60.56,-8.338716999999999,5.0716019999999995,-0.10104975,1005.6128,1,3
60.6,-8.572932000000002,5.057302,0.036247678,1005.61554,1,3
60.64,-8.200111999999999,5.2431980000000005,-0.06790961,1005.6031,1,3
60.68,-8.319611,5.1288004,-0.14839482,1005.59045,1,3
60.72,-8.200119,5.0906687,-0.10578549,1005.6056,1,3
60.76,-8.376975999999999,5.1145010000000015,-0.18627077,1005.5956,1,3
60.8,-8.410439,5.0811353,-0.21467753,1005.5459,1,3
60.84,-8.262267,5.243198400000002,0.026776799999999996,1005.59546,1,3
60.88,-8.157116,5.3194633,-0.11525568,1005.5459,1,3
60.92,-8.1619,5.2384324,-0.19574094,1005.5556,1,3
60.96,-8.109326,5.0763693,-0.06317794,1005.569,1,3
61.0,-8.429575999999999,5.0430036,-0.13419433,1005.5567,1,3
61.04,-8.471955,5.214583999999999,-0.54602903,1005.5313,1,3
61.08,-8.161247,5.3337474,-0.18621238,1005.5484,1,3
61.12,-8.108651,5.3051476,0.022103176000000002,1005.5463,1,3
61.16,-8.266361,5.1907496,-0.1293958,1005.50604,1,3
61.2,-8.223322999999999,5.0382195,-0.039440136,1005.5356400000001,1,3
61.24,-8.256762,5.1192503,-0.21934564,1005.5317,1,3
61.28,-8.280639,5.1383160000000005,-0.28562529999999997,1005.5174,1,3
61.32,-8.151562,5.2336464000000005,-0.31876424,1005.51636,1,3
61.36,-8.318832,5.32421,-0.09624511,1005.5160000000001,1,3
61.4,-8.113282,5.314677,-0.0062897019999999994,1005.49115,1,3
61.44,-8.1037,5.3194427000000015,-0.02995963,1005.4943,1,3
61.48,-8.199276,5.2336445,0.03158937,1005.4791,1,3
61.52,-8.333088,5.209811,-0.22406639,1005.4745,1,3
61.56,-8.256591,5.3528075,-0.10570441,1005.4468,1,3
61.6,-8.247009,5.3432736,0.07420493,1005.4795,1,3
61.64,-8.242208999999999,5.314674,0.0031908378000000005,1005.44464,1,3
61.68,-8.218287,5.2336415999999994,0.03159924,1005.4523300000001,1,3
61.72,-8.14179,5.257474,0.0031946637,1005.4597,1,3
61.76,-8.275605,5.0525117,-0.07255396,1005.41986,1,3
61.8,-8.3425,5.1430755,-0.07255188,1005.4522,1,3
61.84,-8.160847,5.286072,-0.14830048,1005.46265,1,3
61.88,-8.31856,5.1812067000000015,-0.025203984,1005.4349,1,3
61.92,-8.452373,5.166907,0.06475153,1005.41034,1,3
61.96,-8.261157,5.2717705000000015,-0.07727848,1005.42346,1,3
62.0,-8.017368,5.3623347,-0.23351203,1005.4100300000001,1,3
62.04,-8.195703,5.1717086,0.07408863,1005.4408599999999,1,3
62.08,-8.262657,5.076378,-0.067946985,1005.3955,1,3
62.12,-8.305711,5.085912,-0.03480943,1005.40015,1,3
62.16,-8.396564999999999,5.124046,-0.11056337,1005.3783599999999,1,3
62.2,-8.310564999999999,5.367141200000002,-0.13423865,1005.38574,1,3
62.24,-8.205449,5.3051767,-0.09163274,1005.3811599999999,1,3
62.28,-8.10033,5.3814425,-0.07743278,1005.3687,1,3
62.32,-8.238982,5.1478825,0.09300230400000001,1005.3732,1,3
62.36,-8.406311,5.066852,-0.101111576,1005.37396,1,3
62.4,-8.200814999999999,5.104985,-0.20053734,1005.3815300000001,1,3
62.44,-8.301231,5.2289166,-0.15793139999999994,1005.3388699999999,1,3
62.48,-8.377747,5.181252,-0.030105937000000006,1005.3364,1,3
62.52,-7.9715,5.395748,-0.08218765,1005.36896,1,3
62.56,-8.287004,5.205086,0.026700169,1005.319,1,3
62.6,-8.296603,5.1335893,-0.015913166,1005.3318,1,3
62.64,-8.248838000000001,5.209855,-0.28104284,1005.3397,1,3
62.68,-8.411389,5.152657,-0.16268605,1005.3392,1,3
62.72,-8.186786999999999,5.1621914,-0.13901857,1005.31934,1,3
62.76,-8.201162,5.1097603,0.12610483,1005.29486,1,3
62.8,-8.358934,4.933398,0.09296049,1005.3456,1,3
62.84,-8.35896,4.9381657,-0.16269977,1005.3204,1,3
62.88,-8.363788000000001,5.119296,-0.22425134,1005.3025,1,3
62.92,-8.387727,5.171729599999999,-0.15323898,1005.3182400000001,1,3
62.96,-8.306496000000001,5.2003293,-0.12010057,1005.278,1,3
63.0,-8.225287,5.114532,0.040864877,1005.2934,1,3
63.04,-8.305194,5.0811334000000015,-0.053699765,1005.28796,1,3
63.08,-8.482034,4.976269,-0.26201227,1005.2983,1,3
63.12,-8.319508,5.1287980000000015,-0.11051014,1005.2810000000001,1,3
63.16,-8.314707,5.2050624,-0.29988435,1005.2937,1,3
63.2,-8.309911999999999,5.205062,-0.12944448,1005.2682,1,3
63.24,-8.242977999999999,5.143097,-0.08683324,1005.27094,1,3
63.28,-8.376796,5.0954304000000015,0.01732518,1005.25354,1,3
63.32,-8.128229,5.1001970000000005,-0.31881604,1005.2585,1,3
63.36,-8.415003,5.0525312000000016,-0.10103214,1005.26404,1,3
63.4,-8.348069,5.1240287,-0.16257778,1005.2615,1,3
63.44,-8.276356,5.3146906,-0.067888275,1005.2719,1,3
63.48,-8.261999000000001,5.2860913,-0.13890283,1005.2489999999999,1,3
63.52,-8.2715435,5.267024,-0.08682287,1005.2442,1,3
63.56,-8.19027,5.138326599999999,-0.16730624,1005.2489999999999,1,3
63.6,-8.175916,5.100194,-0.124695286,1005.2491,1,3
63.64,-8.204578,5.0239286,-0.17203782,1005.22675,1,3
63.68,-8.4053135,5.1907578,-0.10102025,1005.25214,1,3
63.72,-8.3097,5.290855400000001,-0.22411324,1005.2475599999999,1,3
63.76,-8.008556,5.5911474000000005,-0.15783009,1005.24005,1,3
63.8,-7.826909,5.4624505,-0.20517275,1005.2171599999999,1,3
63.84,-8.113681,5.2002892,0.03154902,1005.21826,1,3
63.88,-8.137564,4.9333615,-0.19096649,1005.20776,1,3
63.92,-8.247482000000002,4.885696,-0.23357461,1005.2184,1,3
63.96,-7.869861,5.200288,-0.21463548,1005.2077,1,3
64.0,-8.037139999999999,5.2145877,-0.40401033,1005.20825,1,3
64.04,-7.928023,5.1717086,-0.12002088,1005.19293,1,3
64.08,-8.033195,5.0382457,-0.091615945,1005.2106,1,3
64.12,-8.04755,5.014412999999999,-0.115289494,1005.1834,1,3
64.16,-7.947189999999999,5.066845400000001,-0.24311985,1005.2133,1,3
64.2,-7.999784,4.990581,-0.14369884,1005.1781599999999,1,3
64.24,-7.899423,5.0430136,-0.30467,1005.1811,1,3
64.28,-7.9376783,4.9143167000000005,-0.5177197,1005.1859,1,3
64.32,-7.9615936000000005,4.93815,0.007797666,1005.16846,1,3
64.36,-7.732180599999999,5.0430150000000005,0.12142187,1005.191,1,3
64.4,-7.6126995,5.0859137,-0.33308226,1005.1614,1,3
64.44,-7.942522999999999,4.938151,-0.1342388,1005.1813,1,3
64.48,-7.837384700000001,4.9143186,-0.17211567,1005.18646,1,3
64.52,-7.7370234,5.104981400000002,-0.32361805,1005.1589,1,3
64.56,-7.555408,5.0668497000000015,-0.086899295,1005.16724,1,3
64.6,-7.746617,4.809456,-0.063228786,1005.16943,1,3
64.64,-7.8470087,4.6378603,-0.11057432,1005.1618699999999,1,3
64.68,-7.7275295,4.8094563,-0.172123,1005.1394,1,3
64.72,-7.7227645,4.8046904,-0.2526093,1005.1647300000001,1,3
64.76,-7.545929400000001,4.83329,-0.16265725,1005.1318,1,3
64.8,-7.799275,4.895256,-0.011157698999999998,1005.1499,1,3
64.84,-7.722814,4.961988,-0.18159777,1005.1346,1,3
64.88,-7.665472999999999,4.9858212,-0.31889704,1005.1398300000001,1,3
64.92,-7.899698299999999,4.814225,-0.19580394,1005.1528,1,3
64.96,-7.7611012000000015,4.876191,-0.105851725,1005.1274400000001,1,3
65.0,-7.560364999999999,4.780860400000001,-0.13425957,1005.1252,1,3
65.04,-7.6990604000000005,4.7999279999999995,0.111922055,1005.1225,1,3
65.08,-7.9619656,4.5568347000000005,-0.053783644000000005,1005.12494,1,3
65.12,-7.7755747,4.7570305,-0.26209933,1005.1484,1,3
65.16,-7.8090515,4.8904943,-0.072724864,1005.12537,1,3
65.2,-7.694354,4.909561,-0.11060174,1005.10504,1,3
65.24,-7.6800337,4.833297,0.045631885999999997,1005.1304,1,3
65.28,-7.794767,4.695067,0.13558394,1005.1360000000001,1,3
65.32,-7.8282433000000005,4.7236667,-0.13427873,1005.1460000000001,1,3
65.36,-7.747007400000001,4.8380647,-0.08693655,1005.1136,1,3
65.4,-8.029033,4.718901,-0.16268869,1005.12537,1,3
65.44,-7.876098599999999,4.900030999999999,-0.05853351,1005.12854,1,3
65.48,-8.009952,4.9524636,0.012480833,1005.13354,1,3
65.52,-8.177261999999999,5.186025,0.059823245,1005.1360000000001,1,3
65.56,-7.9908705,5.1526594,-0.14849241,1005.0981,1,3
65.6,-7.828375,5.081162,-0.16269727,1005.1111,1,3
65.64,-7.9670086,4.8905,0.040880427000000004,1005.1112699999999,1,3
65.68,-8.272935,4.809469,-0.10115351,1005.1336699999999,1,3
65.72,-8.014849,5.0763964999999995,-0.17690603,1005.0838,1,3
65.76,-8.229954,5.190794,-0.09642245,1005.0939300000001,1,3
65.8,-7.8236933,5.2765927,-0.1816438,1005.1361699999999,1,3
65.84,-7.9862210000000005,5.200328400000001,-0.1721763,1005.074,1,3
65.88,-8.163092,5.0049,0.01246375,1005.0993699999999,1,3
65.92,-8.29217,4.928636,-0.08696094,1005.0986300000001,1,3
65.96,-8.201369999999999,5.100232,-0.26213542,1005.10925,1,3
66.0,-8.20139,5.1764975,-0.09169870599999999,1005.11676,1,3
66.04,-8.172248,5.1240544,-0.082187384,1005.0993699999999,1,3
66.08,-8.3395405,4.985824,0.01723512,1005.09686,1,3
66.12,-8.124450999999999,5.095455,-0.039577764,1005.1217,1,3
66.16,-8.2343855,5.052556,-0.1816099,1005.1070599999999,1,3
66.2,-8.320422,5.028723,-0.039577764,1005.1145,1,3
66.24,-8.277403,5.0811553,-0.07745297,1005.1396,1,3
66.28,-8.37778,5.162186,-0.1816099,1005.0998,1,3
66.32,-8.157908,5.062089,-0.025374535,1005.09686,1,3
66.36,-8.286963,5.1097546,-0.105859414,1005.1073,1,3
66.4,-8.210486,5.023956,-0.058515366,1005.0819,1,3
66.44,-8.449475999999999,5.0430226,-0.11059381,1005.115,1,3
66.48,-8.047974,5.1097546,-0.120062634,1005.1025400000001,1,3
66.52,-8.396898,5.0716220000000005,-0.07745297,1005.1204,1,3
66.56,-8.038413,5.133587,-0.011171337,1005.0602,1,3
66.6,-8.344321,5.0716220000000005,-0.25736037,1005.0852699999999,1,3
66.64,-8.435137,5.057322,-0.120062634,1005.0678,1,3
66.68,-8.215266,5.15742,-0.11059381,1005.0874,1,3
66.72,-8.301303,5.3004165,0.0030318908,1005.0899,1,3
66.76,-7.933258,5.257518,0.012500711000000001,1005.1005,1,3
66.8,-8.416018,5.062089,0.059844747000000004,1005.0877,1,3
66.84,-8.349101,5.076388400000001,-0.4135957,1005.0902,1,3
66.88,-8.435137,5.1145205,-0.058515366,1005.1079,1,3
66.92,-8.210486,5.1860194,-0.21948512,1005.1033,1,3
66.96,-8.248725,5.228918599999999,-0.006436925400000001,1005.0653,1,3
67.0,-8.215266,5.1145205,-0.16740666,1005.0935,1,3
67.04,-8.425930000000001,5.109763,-0.17217332,1005.08276,1,3
67.08,-8.206074000000001,5.1288295,-0.08222099,1005.0734,1,3
67.12,-8.382939,5.104997,-0.20531684,1005.0952,1,3
67.16,-8.091386,5.186029,-0.25266203,1005.0959,1,3
67.2,-8.406867,5.0906987,-0.12483442,1005.0628,1,3
67.24,-8.234807,5.2289286,-0.07749152,1005.0933,1,3
67.28,-8.067528,5.3147273,-0.19111863,1005.11316,1,3
67.32,-8.277853,5.1431317000000005,-0.11063501,1005.0809300000001,0,0
67.36,-8.158371,4.971535,-0.14851138,1005.11316,0,0
67.4,-8.416493,4.985836,-0.12957504,1005.0835,0,0
67.44,-8.392610000000001,5.2146306,-0.2716084,1005.0856,0,0
67.48,-8.206211,5.3766937000000015,-0.039623912000000004,1005.1009,0,0
67.52,-8.105848,5.4195933,-0.0443595,1005.09125,0,0
67.56,-8.191897,5.1383667,-0.006485461999999999,1005.0988,0,0
67.6,-8.163233,5.0573354,0.09767016,1005.07104,0,0
67.64,-8.483494,4.9858375,-0.28581795,1005.07104,0,0
67.68,-8.254077,5.1955667000000005,-0.1437871,1005.1038,0,0
67.72,-8.373586999999999,5.2908983,-0.19586684,1005.1089999999999,0,0
67.76,-8.043792999999999,5.3147316,0.08346194,1005.1039999999999,0,0
67.8,-8.383173,5.209867,0.06452294,1005.09125,0,0
67.84,-8.25413,5.1145363,0.09766265,1005.0963,0,0
67.88,-8.187227,5.100237,-0.2952942,1005.08905,0,0
67.92,-8.392774000000001,5.066871599999999,-0.09645058,1005.0989400000001,0,0
67.96,-8.330649000000001,5.1526694000000015,-0.039638933,1005.0989400000001,0,0
68.0,-8.110793,5.2861342,-0.06804663,1005.1065,0,0
68.04,-8.287626,5.2146349999999995,-0.0064976253000000005,1005.0987,0,0
68.08,-8.139465,5.133603599999999,0.06925171599999999,1005.09406,0,0
68.12,-8.340228999999999,5.16697,-0.20534497,1005.0938,0,0
68.16,-8.306784,5.190803,-0.08225156,1005.09155,0,0
68.2,-8.182521000000001,5.3576326,-0.16747193,1005.0765,0,0
68.24,-8.129954,5.3671665,-0.08225374,1005.0766,0,0
68.28,-8.311602,5.195571,-0.011238985,1005.09406,0,0
68.32,-8.282934,5.1336055,-0.08225612,1005.1044,0,0
68.36,-8.345084,5.1955714,-0.18641414,1005.1065,0,0
68.4,-8.187363000000001,5.248004,0.017164115,1005.0994,0,0
68.44,-8.149137,5.367168,-0.22902603,1005.077,0,0
68.48,-8.206507,5.305203,-0.17221433,1005.0845,0,0
68.52,-8.216078999999999,5.147907,0.045567155,1005.0919,0,0
68.56,-8.416841999999999,5.0668760000000015,-0.13434131,1005.0944,0,0
68.6,-8.421636,5.0525765,-0.19115537,1005.0974,0,0
68.64,-7.9866853,5.357636,-0.06806193,1005.1023,0,0
68.68,-8.19701,5.333803700000002,-0.09646967,1005.12225,0,0
68.72,-8.278278,5.2766056,-0.23376848,1005.0919,0,0
68.76,-8.340431,5.348104,0.13551371,1005.0925,0,0
68.8,-7.9915156000000005,5.400536499999999,-0.020722497,1005.11536,0,0
68.84,-8.502966,5.1812744,-0.26217824,1005.12537,0,0
68.88,-8.005879,5.281373,-0.11541286,1005.1123,0,0
68.92,-8.36916,5.3338056,0.09763390599999999,1005.0731,0,0
68.96,-8.091944999999999,5.45297,-0.025461767000000003,1005.0880000000001,0,0
69.0,-8.0823965,5.400538,-0.110682145,1005.0849599999999,0,0
69.04,-8.096873,5.176513,0.15443188,1005.1049,0,0
69.08,-8.574876,5.1574480000000005,-0.04914942,1005.0932,0,0
69.12,-8.063454,5.309978,-0.27166796,1005.0751,0,0
69.16,-8.192525,5.36241,0.12128599,1005.08746,0,0
69.2,-8.111282000000001,5.257546400000002,0.30119216,1005.0899699999999,0,0
69.24,-8.235578,5.1288495,-0.11543737,1005.11554,0,0
69.28,-8.460246000000001,5.0001535000000015,-0.03495414,1005.1055,0,0
69.32,-8.393347,5.1812825,-0.044424552,1005.09546,0,0
69.36,-8.111357,5.2480154,0.07393393,1005.0955,0,0
69.4,-8.293005,5.2384825,-0.049162116,1005.0907,0,0
69.44,-8.192646,5.243249400000002,0.15441577,1005.0955,0,0
69.48,-8.245241,5.2813826,-0.20066613,1005.1104,0,0
69.52,-8.097085,5.3576474,-0.214871,1005.0825,0,0
69.56,-8.164019999999999,5.429146,-0.04916839,1005.1037,0,0
69.6,-7.9298286,5.5387774000000025,-0.072842166,1005.0732,0,0
69.64,-8.202292,5.338583,0.012375633999999998,1005.078,0,0
69.68,-8.364825,5.028757,0.14020294,1005.1012,0,0
69.72,-8.431759,5.147921,0.14020129,1005.1189,0,0
69.76,-7.8534217,5.4434485,-0.14859903,1005.1030000000001,0,0
69.8,-8.465254,5.37195,-0.18647589,1005.10645,0,0
69.84,-8.049425999999999,5.53878,0.07391496,1005.11615,0,0
69.88,-8.145041,5.44345,-0.049181286,1005.10614,0,0
69.92,-8.32669,5.1669893,0.12599018,1005.1161,0,0
69.96,-8.054259,5.200356,-0.11546609,1005.11365,0,0
70.0,-8.541817,5.0668926,-0.13913976,1005.0989400000001,0,0
70.04,-8.06334,5.395773,0.1165635,1005.08386,0,0
70.08,-8.125475999999999,5.38624,-0.32847032,1005.0987,0,0
70.12,-8.498298,5.2909083,-0.17223473,1005.1039400000001,0,0
70.16,-8.326221,5.200344,0.09762657400000001,1005.10175,0,0
70.2,-8.383577,5.3147416,0.38642550000000003,1005.0992,0,0
70.24,-8.063328,5.395773,-0.12015559,1005.0942,0,0
70.28,-8.249737,5.1812773000000005,0.3154099,1005.1116300000001,0,0
70.32,-8.154139500000001,5.2051099999999995,0.5426615,1005.0987,0,0
70.36,-8.197155,5.386239,-0.03967003,1005.0962,0,0
70.4,-8.063317999999999,5.6245666,0.09762795,1005.1139,0,0
70.44,-8.015517,5.5530686,0.21598831,1005.1139999999999,0,0
70.48,-8.235385,5.4768040000000004,0.25386375,1005.0868,0,0
70.52,-8.106328999999999,5.410072,0.23492636,1005.09424,0,0
70.56,-8.182803,5.3814725999999995,0.8077896,1005.08154,0,0
70.6,-8.091985000000001,5.6484,0.5900072,1005.09955,0,0
70.64,-7.8529925,5.791396,0.21125501,1005.0967,0,0
70.68,-7.747833999999999,5.6436334000000015,0.29647452,1005.1189999999999,0,0
70.72,-8.048960000000001,5.5530686,0.28227153,1005.0898,0,0
70.76,-8.001159,5.3862385999999995,0.18284926,1005.12463,0,0
70.8,-8.197128,5.4243712,0.28227199999999997,1005.1075,0,0
70.84,-7.757384,5.5101695,-0.015995275,1005.0972,0,0
70.88,-8.168445,5.595967,0.26806924,1005.0921599999999,0,0
70.92,-7.743039599999999,5.7437305,0.40063283,1005.0967,0,0
70.96,-7.90555,5.7818629999999995,0.5710715999999999,1005.0947,0,0
71.0,-7.757374,5.7532635,0.47638372,1005.0893599999999,0,0
71.04,-8.020772000000001,5.667478,0.26802334,1005.0871599999999,0,0
71.08,-7.949092,5.553081,0.19700561,1005.1025,0,0
71.12,-7.9299912,5.753277,-0.058653843,1005.0925,0,0
71.16,-7.8105135,5.7151445999999995,-0.0113114305,1005.0975,0,0
71.2,-7.7627335,5.648413,0.069171846,1005.1025,0,0
71.24,-8.121235,5.472051,0.12124877,1005.0798300000001,0,0
71.28,-8.059116,5.448219,-0.030253897999999998,1005.105,0,0
71.32,-7.963536,5.472052,-0.14388105,1005.1047,0,0
71.36,-8.422414999999999,5.1574597,0.16385363,1005.09973,0,0
71.4,-8.49413,5.2098923,0.41004097,1005.1051,0,0
71.44,-7.801075999999999,5.4053216,0.28221053,1005.1,0,0
71.48,-8.331650999999999,4.966799,0.23959933,1005.0927,0,0
71.52,-8.685373,4.552109,0.52366203,1005.0825,0,0
71.56,-8.561116,4.814269,0.52839476,1005.085,0,0
71.6,-7.5334759999999985,5.0621305,0.4715804,1005.09,0,0
71.64,-8.938757,4.747539,0.7082989000000001,1005.1075,0,0
71.68,-8.53249,4.9668007,0.18751287,1005.0776,0,0
71.72,-8.164462,5.2337284,0.01707279,1005.06287,0,0
71.76,-8.154922000000001,5.3433595,0.47157392,1005.08234,0,0
71.8,-8.2648735,5.314760700000001,0.46683785,1005.0751,0,0
71.84,-8.178855,5.357660299999999,0.22064729,1005.085,0,0
71.88,-8.370064,5.4005594000000015,0.154364,1005.09546,0,0
71.92,-8.4608965,5.524491,0.37214512,1005.0601,0,0
71.96,-7.438042,5.7294526,0.13068843,1005.0855,0,0
72.0,-8.40358,5.4434605000000005,0.16382761,1005.0877,0,0
72.04,-8.255067,5.4577513,0.10231134,1005.1106599999999,0,0
72.08,-8.0591,5.586449,0.09757653599999999,1005.10315,0,0
72.12,-7.877471000000001,5.6865463,0.32482764,1005.1181,0,0
72.16,-7.858355,5.7294455,-0.053925093,1005.0907599999999,0,0
72.2,-8.2168455,5.5244837,-0.058659855,1005.0579,0,0
72.24,-8.063894,5.5244837,0.08810642,1005.0961,0,0
72.28,-7.977861999999999,5.6913133,0.37690473,1005.11816,0,0
72.32,-7.915729,5.7103795999999996,0.43371722,1005.10815,0,0
72.36,-7.8918333,5.6579475,0.121246174,1005.1076,0,0
72.4,-8.455853,5.4672849999999995,0.31535643,1005.0961,0,0
72.44,-7.968317,5.548317,0.1875272,1005.0788,0,0
72.48,-8.188191,5.5149508,0.12597957,1005.10364,0,0
72.52,-7.891847999999999,5.581683,-0.039724987,1005.0963,0,0
72.56,-8.083043,5.338589,0.18752612,1005.0858,0,0
72.6,-8.25034,5.262324,0.33429232,1005.0957599999999,0,0
72.64,-8.393739,5.200359,0.15438461,1005.11365,0,0
72.68,-8.030478,5.3052235,0.3248228,1005.0988,0,0
72.72,-8.408085,5.133627,0.37690097,1005.07886,0,0
72.76,-8.245576,5.405321,0.6136209,1005.1037,0,0
72.8,-7.810617,5.595983,0.30588418,1005.0989400000001,0,0
72.84,-8.135649,5.3814883,0.2585398,1005.1064,0,0
72.88,-8.283825,5.166993,0.13071057,1005.0564,0,0
72.92,-8.216911,5.276624,0.13071021,1005.09424,0,0
72.96,-7.9683657000000006,5.452986699999999,0.3153517,1005.0967400000001,0,0
73.0,-8.054406,5.538785,0.5473371,1005.08435,0,0
73.04,-8.002057,5.5673900000000005,0.3674088,1005.097,0,0
73.08,-8.025967,5.586457,0.17803156,1005.0868,0,0
73.12,-8.088118,5.6007565999999995,0.34846902,1005.0618,0,0
73.16,-8.021214500000001,5.800952400000001,0.22537325,1005.082,0,0
73.2,-7.8443727,5.7008543,0.11648084,1005.09424,0,0
73.24,-8.126394,5.195600499999999,0.39107513,1005.0921,0,0
73.28,-8.341496000000001,5.076436,0.23010431,1005.0771,0,0
73.32,-8.188556,5.5530925,-0.039758,1005.07214,0,0
73.36,-7.7966256,5.8200197,0.5141662,1005.08215,0,0
73.4,-7.6054454,5.829553,0.5236339,1005.0899699999999,0,0
73.44,-8.284189,5.3290653,0.37686628,1005.09467,0,0
73.48,-8.480172999999999,4.99064,0.097535245,1005.0899699999999,0,0
73.52,-8.303333,5.386265,0.15434696,1005.0849,0,0
73.56,-7.6819725000000005,5.8009553,-0.016092785,1005.0799599999999,0,0
73.6,-8.01179,5.6674924,0.18748552,1005.0849,0,0
73.64,-8.064381,5.500662999999999,0.13540591,1005.0704300000001,0,0
73.68,-8.222126,5.2575684,0.4005315,1005.11816,0,0
73.72,-8.284276,5.305235,0.51889044,1005.0802,0,0
73.76,-7.854107400000001,5.4911304,0.51888925,1005.0832,0,0
73.8,-8.054871,5.4482317,0.34371522,1005.0859,0,0
73.84,-8.250854499999999,5.3958,0.1022594,1005.0859,0,0
73.88,-7.930622599999999,5.605529,0.33897844,1005.0735,0,0
73.92,-8.021449,5.472066000000001,0.45733753,1005.0939,0,0
73.96,-8.1505165,5.4387,0.39578912,1005.0815,0,0
74.0,-7.959337,5.419633999999999,0.38158473,1005.0885,0,0
74.04,-8.174151,5.5435576,0.36740676,1005.0986,0,0
74.08,-7.9160447,5.624589,0.22537449,1005.07153,0,0
74.12,-8.021202,5.5578575,0.5804547,1005.09644,0,0
74.16,-7.930387,5.438693499999999,0.3910784,1005.0871,0,0
74.2,-8.145478,5.4434605000000005,0.32006225,1005.1069,0,0
74.24,-7.9017095999999984,5.6674885999999995,0.30585890000000004,1005.08405,0,0
74.28,-8.245857,5.791418599999999,0.08334178,1005.10144,0,0
74.32,-7.7487593,5.5483246,0.22537379999999999,1005.0671,0,0
74.36,-8.413153,5.3338294,0.67514217,1005.09155,0,0
74.4,-7.911275,5.5101924,0.21117035,1005.1048,0,0
74.44,-8.083347999999999,5.6341224,0.49050012,1005.0874,0,0
74.48,-7.7200856,5.6627220000000005,0.36267108,1005.0975300000001,0,0
74.52,-8.260204,5.4768267,0.4242182,1005.1102,0,0
74.56,-8.006875,5.443461,0.11648178,1005.0822,0,0
74.6,-8.513536,5.281398,0.68934464,1005.0902,0,0
74.64,-7.70575,5.6627220000000005,0.47629637,1005.0931,0,0
74.68,-7.9877604999999985,5.491126,0.36740494,1005.0956,0,0
74.72,-8.078578,5.424394,0.37213922,1005.07495,0,0
74.76,-8.27455,5.300464,0.26798218,1005.1008,0,0
74.8,-8.06902,5.5387917,0.48576468,1005.1161,0,0
74.84,-7.9112883,5.615057,0.6277967,1005.1111,0,0
74.88,-8.049904,5.5673910000000015,0.47629565,1005.0811,0,0
74.92,-8.040345,5.543558,0.55678046,1005.0986300000001,0,0
74.96,-8.102485,5.5483255,0.2821848,1005.0936,0,0
75.0,-7.9447527000000004,5.462527,0.4810297000000001,1005.0838,0,0
75.04,-8.050618,5.476844,0.56144965,1005.1064,0,0
75.08,-7.959823599999999,5.4863777,0.21110164,1005.1171,0,0
75.12,-8.117587,5.4339466,0.34366217,1005.0967400000001,0,0
75.16,-7.993347,5.5054455,0.6513953,1005.08185,0,0
75.2,-8.069853,5.5674114,0.5661733,1005.09186,0,0
75.24,-8.055533,5.6770425000000015,0.51409304,1005.0896,0,0
75.28,-7.873937599999999,5.600779,0.32471353,1005.102,0,0
75.32,-8.2085495,5.519748,0.37205526,1005.102,0,0
75.36,-7.8787746,5.553115,0.42413083,1005.10474,0,0
75.4,-7.936161,5.5483494,0.4051906,1005.11255,0,0
75.44,-8.060461,5.510217,0.47620429999999997,1005.10004,0,0
75.48,-8.270802999999999,5.510218,0.33416933,1005.0852,0,0
75.52,-7.960146000000001,5.7151804,0.42412037,1005.1104,0,0
75.56,-8.003194,5.605551,0.49513376,1005.07275,0,0
75.6,-7.9315240000000005,5.4387217,0.59928817,1005.08826,0,0
75.64,-8.060605,5.3576903,0.30575255,1005.1106599999999,0,0
75.68,-8.266167999999999,5.27666,0.25840566,1005.09326,0,0
75.72,-8.42393,5.2575946,0.47618562,1005.0852,0,0
75.76,-7.6974277,5.7247176,0.5471991999999999,1005.1037,0,0
75.8,-7.902988400000001,5.834349,0.5661341,1005.1011,0,0
75.84,-8.012953,5.743786,0.514053,1005.1059,0,0
75.88,-8.137258000000001,5.6818212999999975,0.37675261,1005.0957599999999,0,0
75.92,-7.8935146,5.6246230000000015,0.1826395,1005.081,0,0
75.96,-7.979578,5.400595,0.18737139,1005.1012,0,0
76.0,-8.142119000000001,5.257599400000001,0.31993225,1005.10614,0,0
76.04,-8.059802000000001,5.3815040000000005,0.14012195,1005.0707,0,0
76.08,-7.74432,5.710396,-0.14394099,1005.0993699999999,0,0
76.12,-8.150589,5.824793,0.46679849999999995,1005.1345,0,0
76.16,-7.7729716,5.7199287000000005,0.8976305,1005.06854,0,0
76.2,-8.050188,5.5864644,1.148555,1005.0991,0,0
76.24,-8.002375,5.7294602,0.45733348,1005.0816699999999,0,0
76.28,-8.002361,5.7723594,0.5993666999999999,1005.09924,0,0
76.32,-7.8063765,5.7866589999999976,0.72719693,1005.13965,0,0
76.36,-7.978434,5.648428,0.69879186,1005.1048,0,0
76.4,-7.983200599999999,5.6960935999999975,0.8502940999999999,1005.0997,0,0
76.44,-7.624702,5.867689,0.73193514,1005.11224,0,0
76.48,-7.849339,5.7818913,0.8124213,1005.0847,0,0
76.52,-7.9927187,5.6484265,0.58517116,1005.0874,0,0
76.56,-8.030945,5.7771235,0.7556108,1005.0997,0,0
76.6,-7.55295,6.0535836,0.8692379000000001,1005.0847,0,0
76.64,-7.8158264000000015,6.0535830000000015,0.94972396,1005.0973,0,0
76.68,-7.748894,5.8772199999999994,0.6609265999999999,1005.0949,0,0
76.72,-7.7536607,5.8343215,0.64199024,1005.1156,0,0
76.76,-7.8157845,5.7723556,0.566241,1005.12335,0,0
76.8,-7.9352649999999985,5.8390865,0.5331015,1005.086,0,0
76.84,-7.653244,5.896285,0.466821,1005.1058300000001,0,0
76.88,-7.767946,5.9105844,0.50469744,1005.0885,0,0
76.92,-7.9639039999999985,5.815253,0.89765424,1005.1136,0,0
76.96,-7.686663,6.010681,0.4904967000000001,1005.1087,0,0
77.0,-7.8348217,5.92965,0.5757174,1005.1111,0,0
77.04,-7.783990400000001,5.653232599999999,0.6797143,1005.1237,0,0
77.08,-8.11385,5.4959373,0.7175848000000001,1005.11896,0,0
77.12,-7.8127804,5.786699,0.40510866,1005.12146,0,0
77.16,-7.731573599999999,5.9773616999999994,0.55660516,1005.1198,0,0
77.2,-8.042319,5.7390360000000005,0.63235015,1005.1144400000001,0,0
77.24,-7.593071000000001,5.7390370000000015,0.85012805,1005.1373,0,0
77.28,-8.161926,5.4339786,0.31040043,1005.1067,0,0
77.32,-8.257575,5.5102453,0.13522267,1005.1022300000001,0,0
77.36,-7.7987695000000015,5.710442,0.3482658,1005.1171,0,0
77.4,-7.846623399999999,5.7724085,0.40033909999999995,1005.10724,0,0
77.44,-7.7845383,5.7295110000000005,0.16834848,1005.1376300000001,0,0
77.48,-8.037921,5.643714,0.49501762,1005.1198,0,0
77.52,-7.8993660000000006,5.777179,0.07838458,1005.0975,0,0
77.56,-7.937656,5.6151175,0.5896955,1005.1401400000001,0,0
77.6,-7.885134,5.6294184000000005,0.36717337,1005.1030000000001,0,0
77.64,-8.0477,5.515022,0.49499750000000003,1005.10004,0,0
77.68,-8.057315,5.5245565999999995,0.2298657,1005.1055,0,0
77.72,-8.009572,5.5007253,0.41923679999999997,1005.1104,0,0
77.76,-8.023969000000001,5.63419,0.06415132400000001,1005.1030000000001,0,0
77.8,-7.8567276,5.6055923,0.46657097,1005.0981400000001,0,0
77.84,-8.0718775,5.715224299999999,0.64173853,1005.123,0,0
77.88,-7.985889999999999,5.5626964999999995,0.40974823,1005.10284,0,0
77.92,-8.057646,5.5483975,0.46182123,1005.1062,0,0
77.96,-8.115057,5.4006352,0.3292531,1005.0711699999999,0,0
78.0,-8.196369,5.5579333,0.22982548,1005.1239,0,0
78.04,-7.7120323000000015,5.657993,0.49036205,1005.0807,0,0
78.08,-8.118306,5.562661,0.3341275,1005.09906,0,0
78.12,-7.989244500000001,5.5721940000000005,0.35780028,1005.07574,0,0
78.16,-8.051373,5.5292945,0.30572268,1005.08154,0,0
78.2,-8.232997,5.457796599999999,0.53297484,1005.1015,0,0
78.24,-7.8553863,5.758089,0.58031946,1005.1087,0,0
78.28,-8.123043,5.6961236,0.2725842,1005.0939300000001,0,0
78.32,-8.22819,5.753322,0.46196118,1005.0963,0,0
78.36,-7.439514599999999,5.9630504,0.16842885,1005.0917400000001,0,0
78.4,-7.855351400000001,5.8009877,0.06900692,1005.08154,0,0
78.44,-7.324782000000001,6.0297813,0.22050893,1005.0941,0,0
78.48,-8.151678,5.5864916,0.050071172000000004,1005.0791,0,0
78.52,-8.008275999999999,5.6818230000000005,0.33887064,1005.0893599999999,0,0
78.56,-7.788397,5.605558,0.67027974,1005.1193,0,0
78.6,-8.003478999999999,5.8057523,0.26785612,1005.0691,0,0
78.64,-7.917434,5.7866864,0.10215278,1005.0595,0,0
78.68,-7.449003999999999,5.8677173,0.087950364,1005.0967400000001,0,0
78.72,-8.204203999999999,5.6007905,0.5282508,1005.09424,0,0
78.76,-7.783573,5.834351,0.2583905,1005.1098599999999,0,0
78.8,-7.597153,5.843884,-0.08722025,1005.11194,0,0
78.84,-8.1516,5.7580860000000005,0.13529763,1005.0874,0,0
78.88,-7.5875754,5.8915489999999995,0.27259612,1005.10974,0,0
78.92,-7.898254,5.839117,0.07848636,1005.0894,0,0
78.96,-8.012959500000001,5.7008862,0.70342857,1005.0796,0,0
79.0,-7.702263999999999,5.7342525,0.46197477,1005.0966,0,0
79.04,-8.132727000000001,5.6055617,0.14474393,1005.0645,0,0
79.08,-7.759904400000001,5.8248242999999995,0.22049424,1005.0899,0,0
79.12,-7.9510994,5.8915553,0.32465085,1005.04706,0,0
79.16,-7.927202999999999,6.0011864,0.57083964,1005.0849,0,0
79.2,-7.6308574999999985,5.9630540000000005,0.65132433,1005.0998,0,0
79.24,-8.056262,5.901089,0.31044698,1005.0973,0,0
79.28,-7.769476400000001,5.910622,0.0074448193999999985,1005.0899,0,0
79.32,-7.845956,5.939222,0.14000794,1005.095,0,0
79.36,-7.525711999999999,5.9630540000000005,0.05478841,1005.077,0,0
79.4,-7.6930074999999984,5.681828,0.097397834,1005.0948,0,0
79.44,-8.2618065,5.4578,0.20628892,1005.0874,0,0
79.48,-8.013259,5.6722946,0.14947583,1005.07025,0,0
79.52,-7.5352817,6.0393195,0.30571097,1005.0824,0,0
79.56,-7.6499996,6.029786,0.0074432287,1005.06287,0,0
79.6,-7.721699,5.73426,0.03584945,1005.0924699999999,0,0
79.64,-8.070625999999999,5.624629,-0.09197973,1005.0824,0,0
79.68,-8.027611,5.6532288,0.11159946,1005.095,0,0
79.72,-7.783842999999999,5.848657599999999,0.16841209,1005.0977,0,0
79.76,-7.831644,5.877257,0.07372373,1005.0827,0,0
79.8,-7.7599497,5.8391247,-0.044636565999999996,1005.07526,0,0
79.84,-8.099317999999998,5.724727,-0.21034093,1005.0852,0,0
79.88,-7.889008500000001,5.5817304000000005,0.18261437,1005.0832,0,0
79.92,-7.860333,5.7199607000000015,0.08319165,1005.0877,0,0
79.96,-7.845996,5.7294936,-0.07304394,1005.07465,0,0
80.0,-7.845998299999999,5.800992,0.102128804,1005.0675699999999,0,0
80.04,-7.8803554,5.834380599999999,0.13518745,1005.07025,0,0
80.08,-7.861274000000001,6.0012107000000015,-0.054192204,1005.0450400000001,0,0
80.12,-7.7131380000000025,5.967846,0.1777901,1005.0874,0,0
80.16,-7.660596400000001,5.8296165,-0.039995786,1005.06506,0,0
80.2,-8.0478,5.662788,0.012079008,1005.0881,0,0
80.24,-7.8614235,5.6294227,0.012075738999999999,1005.0927,0,0
80.28,-7.866242,5.715221400000001,-0.04947499599999999,1005.0924699999999,0,0
80.32,-7.856717999999999,5.686623,-0.10629113,1005.0721,0,0
80.36,-7.8328567,5.7724223,0.27719218,1005.0948,0,0
80.4,-7.818553,5.6818585,0.059406288,1005.0874,0,0
80.44,-8.048021,5.662793,0.09727806,1005.1023,0,0
80.48,-7.7325954,5.6580276,0.15882161,1005.07745,0,0
80.52,-8.086336,5.6389627,-0.101573944,1005.10974,0,0
80.56,-7.9620996,5.653263,-0.22467192,1005.1055,0,0
