Timestamp,Ax,Ay,Az,P,Value,Type
0.0,-7.8046584,5.211857,-1.083892,997.5413,0,0
0.04,-8.105952,5.3071923,-1.9076935000000002,997.5487699999999,0,0
0.08,-8.096447999999999,5.297660400000002,-1.1880692,997.5967,0,0
0.12,-7.7369018,5.3405337,-1.6566779999999999,997.57153,0,0
0.16,-7.7369018,5.3405337,-1.6566779999999999,997.5816,0,0
0.2,-7.9520545,5.3119354,-1.5809332,997.55927,0,0
0.24,-7.708347,5.3882017,-1.5146574,997.5795,0,0
0.28,-7.9235,5.1737084000000015,-1.6282887,997.5794,0,0
0.32,-8.076516,4.930615,-1.3489646,997.57434,0,0
0.36,-8.377706,5.040248,-1.405783,997.5593,0,0
0.4,-7.9284663,4.9639845000000005,-1.4531329,997.5921599999999,0,0
0.44,-8.535594999999999,5.0736175,-1.1880146999999999,997.6022,0,0
0.48,-8.071984,5.068852,-1.0175788000000001,997.5923,0,0
0.52,-8.067267,5.2452154,-1.2353671999999998,997.6025,0,0
0.56,-7.2547936,5.964968,-1.5147057,997.5824,0,0
0.6,-7.5320535,5.998335,-1.3726764999999999,997.6027,0,0
0.64,-7.3743824999999985,5.9459043,-0.8897728000000001,997.5877,0,0
0.68,-7.513058,5.9935712999999975,-0.8566375,997.6055,0,0
0.72,-7.599157300000001,5.8982415,-0.7714239,997.5827,0,0
0.76,-7.35067,5.7647796,-0.9797433000000001,997.6180400000001,0,0
0.8,-7.508465299999999,5.574118599999999,-0.7667010000000001,997.6256,0,0
0.84,-8.335464,5.3548599999999995,-1.24015,997.6056,0,0
0.88,-7.9674505999999985,5.5312233,-1.207012,997.6131,0,0
0.92,-7.532551,5.7504864,-1.5526292,997.5754400000001,0,0
0.96,-7.695125999999999,5.555059,-1.6473229999999999,997.5884,0,0
1.0,-7.4275193,5.545527,-1.5952501000000001,997.6084,0,0
1.04,-8.063326,5.3358006,-1.3964138000000001,997.5858,0,0
1.08,-8.2688875,5.283369,-1.3490726,997.60596,0,0
1.12,-8.278008,5.307192,-1.216469,997.61615,0,0
1.16,-8.211133,5.4597225,-0.7240946,997.6164,0,0
1.2,-7.532442599999999,5.860114,-0.5299879,997.6212,0,0
1.24,-7.0593047,6.2605066,-1.2306856000000002,997.58344,0,0
1.28,-7.0927843999999975,6.317705,-1.3206413000000001,997.5960699999999,0,0
1.32,-7.3891740000000015,6.169944,-1.2638322,997.58875,0,0
1.36,-7.5613100000000015,5.9792824,-1.4958236999999999,997.58374,0,0
1.4,-7.5613100000000015,5.9792824,-1.4958236999999999,997.58374,0,0
1.44,-7.843360400000001,5.755255,-1.5242339,997.61395,0,0
1.48,-7.5757327000000005,5.6456256,-0.9277027,997.59906,0,0
1.52,-7.7956457,5.5788956,-1.0555357,997.5991,0,0
1.56,-7.800489,5.4787989999999995,-1.0602757999999999,997.6015,0,0
1.6,-7.714473,5.5359983,-0.8993078999999999,997.6067,0,0
1.64,-7.623698700000001,5.5121665,-1.0271405999999998,997.6019,0,0
1.68,-7.8483906,5.516934,-1.1928486999999999,997.6017,0,0
1.72,-8.010946,5.6170325,-1.1881182,997.63214,0,0
1.76,-8.082685000000001,5.8219953,-1.1360435,997.61456,0,0
1.8,-7.719461999999999,5.6218010000000005,-1.0129528,997.57916,0,0
1.84,-7.748183,5.5360045,-1.1360511999999998,997.607,0,0
1.88,-7.7673440000000005,5.4168410000000025,-0.9750851999999999,997.5972,0,0
1.92,-7.9537973,5.412076,-0.9892921,997.61224,0,0
1.96,-8.039876,5.450209,-1.0981873,997.5617,0,0
2.0,-8.011239,5.493109,-1.1123943,997.5872,0,0
2.04,-7.6671352,5.5455427,-1.1266015,997.6075,0,0
2.08,-7.7245345,5.588443,-1.0224484,997.58966,0,0
2.12,-7.609840400000001,5.602743,-0.9751062,997.5898,0,0
2.16,-7.902122,5.583694,-1.0130469000000002,997.58966,0,0
2.2,-8.093347,5.4740644,-1.1124723,997.6025,0,0
2.24,-7.801845599999999,5.502665,-1.3349954,997.5847,0,0
2.28,-7.672855999999999,5.5360327000000025,-1.282923,997.60504,0,0
2.32,-7.735092599999999,5.655199,-1.2734632,997.57245,0,0
2.36,-7.6156634999999975,5.7505317000000025,-1.2024531,997.59515,0,0
2.4,-7.5917974,5.817264,-1.2355969999999998,997.6051,0,0
2.44,-7.4532820000000015,5.822033,-1.4391854,997.5751300000001,0,0
2.48,-7.644507000000001,5.7791348,-1.491267,997.5600599999999,0,0
2.52,-7.735389,5.6218405,-1.5433514,997.5776,0,0
2.56,-7.6972165,5.5312769999999984,-1.5386231000000001,997.5754400000001,0,0
2.6,-7.52043,5.5741777,-1.3397841000000001,997.58545,0,0
2.64,-7.907660499999999,5.5074477,-1.0699290000000001,997.57794,0,0
2.68,-7.902946000000001,5.588481,-1.1409512,997.60565,0,0
2.72,-7.87908,5.5741816,-1.1882983,997.5679,0,0
2.76,-7.855247,5.5884833,-1.3208677,997.5653,0,0
2.8,-7.903111,5.6361504,-1.2593265,997.5401,0,0
2.84,-7.917516,5.540821,-1.5670688,997.5704300000001,0,0
2.88,-8.003651,5.502691,-1.5623433999999998,997.57074,0,0
2.92,-8.008465,5.4597926,-1.6712377,997.57074,0,0
2.96,-7.8460174,5.469327,-1.7091189999999998,997.5681,0,0
3.0,-7.846083599999999,5.254834,-1.6570466,997.5909,0,0
3.04,-7.979984,5.2024035,-1.3871915000000001,997.586,0,0
3.08,-7.8844533,5.14044,-1.3445878999999998,997.5554,0,0
3.12,-7.984737400000001,5.254835,-1.3067043,997.5782,0,0
3.16,-7.91785,5.3454,-1.3729886999999998,997.5507,0,0
3.2,-7.769764,5.3549356,-1.3966688,997.5934,0,0
3.24,-7.769764,5.3549356,-1.3966688,997.56085,0,0
3.28,-7.9944725000000005,5.3168044000000005,-1.3777363999999999,997.5483,0,0
3.32,-7.9993405,5.374005,-1.5860581,997.5759,0,0
3.36,-7.884683,5.326341,-1.6002669,997.58606,0,0
3.4,-7.841694,5.374007,-1.6097383,997.5534,0,0
3.44,-7.9230385,5.3406434,-1.5008549999999998,997.5433300000001,0,0
3.48,-8.042621,5.29298,-1.2404708,997.561,0,0
3.52,-7.8705773,5.4788765999999995,-1.3020207000000001,997.55853,0,0
3.56,-7.177592999999999,5.764872,-1.2736223,997.52576,0,0
3.6,-7.258908,5.879271,-1.3777845,997.5738,0,0
3.64,-7.607863,5.82684,-1.4014592,997.5561,0,0
3.68,-7.7226367,5.721977,-1.3919958000000001,997.55115,0,0
3.72,-7.8135114,5.6552467,-1.5577052,997.55115,0,0
3.76,-7.8374686,5.5265512,-1.6050546,997.57654,0,0
3.8,-7.7658296,5.4693537,-1.3588708999999999,997.5587,0,0
3.84,-7.7850366,5.6552515,-1.3115348999999998,997.55365,0,0
3.88,-7.684719,5.9364795999999975,-1.3399466,997.58905,0,0
3.92,-7.684719,5.9364795999999975,-1.3399466,997.5614,0,0
3.96,-7.531823599999999,6.2034082,-1.2073888000000002,997.5563,0,0
4.0,-7.2021046,5.7458215,-1.444117,997.579,0,0
4.04,-7.4889220000000005,5.464595,-1.5151358,997.5740400000001,0,0
4.08,-8.244189,5.1452374,-1.538813,997.5641,0,0
4.12,-8.153431,5.197671,-1.5104118999999998,997.5666,0,0
4.16,-7.908428999999999,5.440735,-1.5102992,997.5438,0,0
4.2,-7.554734700000001,5.65523,-1.5008312,997.5815,0,0
4.24,-7.411344500000001,5.6218642999999995,-1.4818941,997.55896,0,0
4.28,-7.4687095,5.5122337,-1.4534885,997.549,0,0
4.32,-7.841542200000001,5.4741015,-1.4250826,997.5514,0,0
4.36,-8.099658999999999,5.359704499999999,-1.5576466,997.5542,0,0
4.4,-8.085327000000001,5.331105,-1.5245064,997.5718400000001,0,0
4.44,-7.7842073,5.402603,-1.4440224,997.5845,0,0
4.48,-7.822453,5.483635,-1.6239305,997.5617699999999,0,0
4.52,-7.550012,5.5980324999999995,-1.7849008000000002,997.5542,0,0
4.56,-7.7125330000000005,5.636165,-1.590791,997.5543,0,0
4.6,-7.707761,5.564667,-1.7375581999999998,997.582,0,0
4.64,-7.5404754,5.6028,-1.6428707999999999,997.5668300000001,0,0
4.68,-7.693436599999999,5.507469,-1.5860584999999998,997.5543,0,0
4.72,-7.760361,5.5646677,-1.6665443,997.5593,0,0
4.76,-7.382764999999999,5.6742992,-1.7754362000000001,997.5869,0,0
4.8,-7.731702,5.5932674,-1.7091557000000002,997.5392,0,0
4.84,-7.7890630000000005,5.5551353,-1.8133129000000001,997.5745,0,0
4.88,-7.607438,5.6361669999999995,-1.7328286,997.5543,0,0
4.92,-7.6122255,5.669533299999999,-1.6854854,997.5669,0,0
4.96,-7.6791506,5.731498200000001,-1.6476108,997.5745,0,0
5.0,-7.530983999999999,5.7076660000000015,-1.6618147,997.54944,0,0
5.04,-7.841683,5.4264392999999975,-1.4582363,997.5696,0,0
5.08,-7.841683,5.4264392999999975,-1.4582363,997.5645,0,0
5.12,-7.8034563,5.3787737,-1.3872212,997.56976,0,0
5.16,-7.6505100000000015,5.555137,-1.6002702,997.5497,0,0
5.2,-7.674416499999999,5.7124333,-1.7849126,997.56464,0,0
5.24,-7.6218424,5.769632,-1.6760217,997.58234,0,0
5.28,-7.9468765,5.6075697,-1.5908031,997.56213,0,0
5.32,-7.9134254,5.617103,-1.5623973999999998,997.53705,0,0
5.36,-7.655324,5.3978410000000006,-1.2972714,997.5571,0,0
5.4,-7.8560834,5.307277,-1.4108979,997.5749,0,0
5.44,-7.817852999999999,5.416908,-1.4677114,997.5571,0,0
5.48,-7.765282000000001,5.512239,-1.6192131,997.5497,0,0
5.52,-7.822647,5.5980372,-1.6854955000000005,997.5674,0,0
5.56,-7.7414026,5.5885053,-1.4251042999999999,997.5674,0,0
5.6,-7.755746,5.5932713,-1.4677143,997.5546,0,0
5.64,-7.8417897,5.4550410000000005,-1.5481998,997.5623,0,0
5.68,-7.803559299999999,5.5027075,-1.5955445,997.55725,0,0
5.72,-7.5502367,5.4598083,-1.6476235000000001,997.5701,0,0
5.76,-7.5502405,5.5122404000000005,-1.6760304,997.57245,0,0
5.8,-7.909406,5.331128,-1.8559999999999999,997.5677,0,0
5.84,-7.775582300000001,5.3835607,-1.8986107,997.56744,0,0
5.88,-7.8377433000000005,5.474126,-1.6524238999999998,997.5498699999999,0,0
5.92,-7.727831399999999,5.497959,-1.5482692,997.5574,0,0
5.96,-7.546233999999999,5.569458,-1.7139764,997.5675699999999,0,0
6.0,-7.584484599999999,5.5313253,-1.6240238,997.5649,0,0
6.04,-7.8046584,5.211857,-1.083892,997.5413,0,0
6.08,-8.105952,5.3071923,-1.9076935000000002,997.5487699999999,0,0
6.12,-8.096447999999999,5.297660400000002,-1.1880692,997.5967,0,0
6.16,-7.7369018,5.3405337,-1.6566779999999999,997.57153,0,0
6.2,-7.7369018,5.3405337,-1.6566779999999999,997.5816,0,0
6.24,-7.9520545,5.3119354,-1.5809332,997.55927,0,0
6.28,-7.708347,5.3882017,-1.5146574,997.5795,0,0
6.32,-7.9235,5.1737084000000015,-1.6282887,997.5794,0,0
6.36,-8.076516,4.930615,-1.3489646,997.57434,0,0
6.4,-8.377706,5.040248,-1.405783,997.5593,0,0
6.44,-7.9284663,4.9639845000000005,-1.4531329,997.5921599999999,0,0
6.48,-8.535594999999999,5.0736175,-1.1880146999999999,997.6022,0,0
6.52,-8.071984,5.068852,-1.0175788000000001,997.5923,0,0
6.56,-8.067267,5.2452154,-1.2353671999999998,997.6025,0,0
6.6,-7.2547936,5.964968,-1.5147057,997.5824,0,0
6.64,-7.5320535,5.998335,-1.3726764999999999,997.6027,0,0
6.68,-7.3743824999999985,5.9459043,-0.8897728000000001,997.5877,0,0
6.72,-7.513058,5.9935712999999975,-0.8566375,997.6055,0,0
6.76,-7.599157300000001,5.8982415,-0.7714239,997.5827,0,0
6.8,-7.35067,5.7647796,-0.9797433000000001,997.6180400000001,0,0
6.84,-7.508465299999999,5.574118599999999,-0.7667010000000001,997.6256,0,0
6.88,-8.335464,5.3548599999999995,-1.24015,997.6056,0,0
6.92,-7.9674505999999985,5.5312233,-1.207012,997.6131,0,0
6.96,-7.532551,5.7504864,-1.5526292,997.5754400000001,0,0
7.0,-7.695125999999999,5.555059,-1.6473229999999999,997.5884,0,0
7.04,-7.4275193,5.545527,-1.5952501000000001,997.6084,0,0
7.08,-8.063326,5.3358006,-1.3964138000000001,997.5858,0,0
7.12,-8.2688875,5.283369,-1.3490726,997.60596,0,0
7.16,-8.278008,5.307192,-1.216469,997.61615,0,0
7.2,-8.211133,5.4597225,-0.7240946,997.6164,0,0
7.24,-7.532442599999999,5.860114,-0.5299879,997.6212,0,0
7.28,-7.0593047,6.2605066,-1.2306856000000002,997.58344,0,0
7.32,-7.0927843999999975,6.317705,-1.3206413000000001,997.5960699999999,0,0
7.36,-7.3891740000000015,6.169944,-1.2638322,997.58875,0,0
7.4,-7.5613100000000015,5.9792824,-1.4958236999999999,997.58374,0,0
7.44,-7.5613100000000015,5.9792824,-1.4958236999999999,997.58374,0,0
7.48,-7.843360400000001,5.755255,-1.5242339,997.61395,0,0
7.52,-7.5757327000000005,5.6456256,-0.9277027,997.59906,0,0
7.56,-7.7956457,5.5788956,-1.0555357,997.5991,0,0
7.6,-7.800489,5.4787989999999995,-1.0602757999999999,997.6015,0,0
7.64,-7.714473,5.5359983,-0.8993078999999999,997.6067,0,0
7.68,-7.623698700000001,5.5121665,-1.0271405999999998,997.6019,0,0
7.72,-7.8483906,5.516934,-1.1928486999999999,997.6017,0,0
7.76,-8.010946,5.6170325,-1.1881182,997.63214,0,0
7.8,-8.082685000000001,5.8219953,-1.1360435,997.61456,0,0
7.84,-7.719461999999999,5.6218010000000005,-1.0129528,997.57916,0,0
7.88,-7.748183,5.5360045,-1.1360511999999998,997.607,0,0
7.92,-7.7673440000000005,5.4168410000000025,-0.9750851999999999,997.5972,0,0
7.96,-7.9537973,5.412076,-0.9892921,997.61224,0,0
8.0,-8.039876,5.450209,-1.0981873,997.5617,0,0
8.04,-8.011239,5.493109,-1.1123943,997.5872,0,0
8.08,-7.6671352,5.5455427,-1.1266015,997.6075,0,0
8.12,-7.7245345,5.588443,-1.0224484,997.58966,0,0
8.16,-7.609840400000001,5.602743,-0.9751062,997.5898,0,0
8.2,-7.902122,5.583694,-1.0130469000000002,997.58966,0,0
8.24,-8.093347,5.4740644,-1.1124723,997.6025,0,0
8.28,-7.801845599999999,5.502665,-1.3349954,997.5847,0,0
8.32,-7.672855999999999,5.5360327000000025,-1.282923,997.60504,0,0
8.36,-7.735092599999999,5.655199,-1.2734632,997.57245,0,0
8.4,-7.6156634999999975,5.7505317000000025,-1.2024531,997.59515,0,0
8.44,-7.5917974,5.817264,-1.2355969999999998,997.6051,0,0
8.48,-7.4532820000000015,5.822033,-1.4391854,997.5751300000001,0,0
8.52,-7.644507000000001,5.7791348,-1.491267,997.5600599999999,0,0
8.56,-7.735389,5.6218405,-1.5433514,997.5776,0,0
8.6,-7.6972165,5.5312769999999984,-1.5386231000000001,997.5754400000001,0,0
8.64,-7.52043,5.5741777,-1.3397841000000001,997.58545,0,0
8.68,-7.907660499999999,5.5074477,-1.0699290000000001,997.57794,0,0
8.72,-7.902946000000001,5.588481,-1.1409512,997.60565,0,0
8.76,-7.87908,5.5741816,-1.1882983,997.5679,0,0
8.8,-7.855247,5.5884833,-1.3208677,997.5653,0,0
8.84,-7.903111,5.6361504,-1.2593265,997.5401,0,0
8.88,-7.917516,5.540821,-1.5670688,997.5704300000001,0,0
8.92,-8.003651,5.502691,-1.5623433999999998,997.57074,0,0
8.96,-8.008465,5.4597926,-1.6712377,997.57074,0,0
9.0,-7.8460174,5.469327,-1.7091189999999998,997.5681,0,0
9.04,-7.846083599999999,5.254834,-1.6570466,997.5909,0,0
9.08,-7.979984,5.2024035,-1.3871915000000001,997.586,0,0
9.12,-7.8844533,5.14044,-1.3445878999999998,997.5554,0,0
9.16,-7.984737400000001,5.254835,-1.3067043,997.5782,0,0
9.2,-7.91785,5.3454,-1.3729886999999998,997.5507,0,0
9.24,-7.769764,5.3549356,-1.3966688,997.5934,0,0
9.28,-7.769764,5.3549356,-1.3966688,997.56085,0,0
9.32,-7.9944725000000005,5.3168044000000005,-1.3777363999999999,997.5483,0,0
9.36,-7.9993405,5.374005,-1.5860581,997.5759,0,0
9.4,-7.884683,5.326341,-1.6002669,997.58606,0,0
9.44,-7.841694,5.374007,-1.6097383,997.5534,0,0
9.48,-7.9230385,5.3406434,-1.5008549999999998,997.5433300000001,0,0
9.52,-8.042621,5.29298,-1.2404708,997.561,0,0
9.56,-7.8705773,5.4788765999999995,-1.3020207000000001,997.55853,0,0
9.6,-7.177592999999999,5.764872,-1.2736223,997.52576,0,0
9.64,-7.258908,5.879271,-1.3777845,997.5738,0,0
9.68,-7.607863,5.82684,-1.4014592,997.5561,0,0
9.72,-7.7226367,5.721977,-1.3919958000000001,997.55115,0,0
9.76,-7.8135114,5.6552467,-1.5577052,997.55115,0,0
9.8,-7.8374686,5.5265512,-1.6050546,997.57654,0,0
9.84,-7.7658296,5.4693537,-1.3588708999999999,997.5587,0,0
9.88,-7.7850366,5.6552515,-1.3115348999999998,997.55365,0,0
9.92,-7.684719,5.9364795999999975,-1.3399466,997.58905,0,0
9.96,-7.684719,5.9364795999999975,-1.3399466,997.5614,0,0
10.0,-7.531823599999999,6.2034082,-1.2073888000000002,997.5563,0,0
10.04,-7.2021046,5.7458215,-1.444117,997.579,0,0
10.08,-7.4889220000000005,5.464595,-1.5151358,997.5740400000001,0,0
10.12,-8.244189,5.1452374,-1.538813,997.5641,0,0
10.16,-8.153431,5.197671,-1.5104118999999998,997.5666,0,0
10.2,-7.908428999999999,5.440735,-1.5102992,997.5438,0,0
10.24,-7.554734700000001,5.65523,-1.5008312,997.5815,0,0
10.28,-7.411344500000001,5.6218642999999995,-1.4818941,997.55896,0,0
10.32,-7.4687095,5.5122337,-1.4534885,997.549,0,0
10.36,-7.841542200000001,5.4741015,-1.4250826,997.5514,0,0
10.4,-8.099658999999999,5.359704499999999,-1.5576466,997.5542,0,0
10.44,-8.085327000000001,5.331105,-1.5245064,997.5718400000001,0,0
10.48,-7.7842073,5.402603,-1.4440224,997.5845,0,0
10.52,-7.822453,5.483635,-1.6239305,997.5617699999999,0,0
10.56,-7.550012,5.5980324999999995,-1.7849008000000002,997.5542,0,0
10.6,-7.7125330000000005,5.636165,-1.590791,997.5543,0,0
10.64,-7.707761,5.564667,-1.7375581999999998,997.582,0,0
10.68,-7.5404754,5.6028,-1.6428707999999999,997.5668300000001,0,0
10.72,-7.693436599999999,5.507469,-1.5860584999999998,997.5543,0,0
10.76,-7.760361,5.5646677,-1.6665443,997.5593,0,0
10.8,-7.382764999999999,5.6742992,-1.7754362000000001,997.5869,0,0
10.84,-7.731702,5.5932674,-1.7091557000000002,997.5392,0,0
10.88,-7.7890630000000005,5.5551353,-1.8133129000000001,997.5745,0,0
10.92,-7.607438,5.6361669999999995,-1.7328286,997.5543,0,0
10.96,-7.6122255,5.669533299999999,-1.6854854,997.5669,0,0
11.0,-7.6791506,5.731498200000001,-1.6476108,997.5745,0,0
11.04,-7.530983999999999,5.7076660000000015,-1.6618147,997.54944,0,0
11.08,-7.841683,5.4264392999999975,-1.4582363,997.5696,0,0
11.12,-7.841683,5.4264392999999975,-1.4582363,997.5645,0,0
11.16,-7.8034563,5.3787737,-1.3872212,997.56976,0,0
11.2,-7.6505100000000015,5.555137,-1.6002702,997.5497,0,0
11.24,-7.674416499999999,5.7124333,-1.7849126,997.56464,0,0
11.28,-7.6218424,5.769632,-1.6760217,997.58234,0,0
11.32,-7.9468765,5.6075697,-1.5908031,997.56213,0,0
11.36,-7.9134254,5.617103,-1.5623973999999998,997.53705,0,0
11.4,-7.655324,5.3978410000000006,-1.2972714,997.5571,0,0
11.44,-7.8560834,5.307277,-1.4108979,997.5749,0,0
11.48,-7.817852999999999,5.416908,-1.4677114,997.5571,0,0
11.52,-7.765282000000001,5.512239,-1.6192131,997.5497,0,0
11.56,-7.822647,5.5980372,-1.6854955000000005,997.5674,0,0
11.6,-7.7414026,5.5885053,-1.4251042999999999,997.5674,0,0
11.64,-7.755746,5.5932713,-1.4677143,997.5546,0,0
11.68,-7.8417897,5.4550410000000005,-1.5481998,997.5623,0,0
11.72,-7.803559299999999,5.5027075,-1.5955445,997.55725,0,0
11.76,-7.5502367,5.4598083,-1.6476235000000001,997.5701,0,0
11.8,-7.5502405,5.5122404000000005,-1.6760304,997.57245,0,0
11.84,-7.909406,5.331128,-1.8559999999999999,997.5677,0,0
11.88,-7.775582300000001,5.3835607,-1.8986107,997.56744,0,0
11.92,-7.8377433000000005,5.474126,-1.6524238999999998,997.5498699999999,0,0
11.96,-7.727831399999999,5.497959,-1.5482692,997.5574,0,0
12.0,-7.546233999999999,5.569458,-1.7139764,997.5675699999999,0,0
12.04,-7.584484599999999,5.5313253,-1.6240238,997.5649,0,0
12.08,-7.8569565,5.4836607000000015,-1.6666356,997.5574,0,0
12.12,-7.656229,5.4741282,-1.8702173,997.5727,0,0
12.16,-7.8570037,5.4550624,-1.7234528000000002,997.5727,0,0
12.2,-7.627609,5.478896,-1.7234561000000002,997.55756,0,0
12.24,-7.684978,5.5694612999999995,-1.6524411,997.5652,0,0
12.28,-7.7662580000000005,5.497964,-1.5246142,997.58295,0,0
12.32,-7.8093,5.4788976,-1.5766950000000002,997.5526,0,0
12.36,-7.828442599999999,5.3692675,-1.5340873,997.5627,0,0
12.4,-7.914514,5.3120694,-1.7802798,997.5704300000001,0,0
12.44,-7.881067,5.32637,-1.7613432,997.57275,0,0
12.48,-7.747244,5.3549695,-1.6761249,997.5702,0,0
12.52,-7.8954415,5.3835692,-1.6761270000000001,997.5576,0,0
12.56,-7.78075,5.5075,-1.7471453999999995,997.5777,0,0
12.6,-7.694737400000001,5.593299,-1.6098496999999998,997.5702,0,0
12.64,-7.7664576,5.507501,-1.5861797,997.5881,0,0
12.68,-7.7330227,5.464603,-1.6524636000000001,997.57794,0,0
12.72,-7.905131,5.3788056,-1.6003883999999995,997.5855,0,0
12.76,-7.8908033,5.388339,-1.6619368000000003,997.5830000000001,0,0
12.8,-7.761771,5.4789042000000014,-1.756627,997.5880000000001,0,0
12.84,-7.766777999999999,5.4455442000000005,-1.6951005000000001,997.5907599999999,0,0
12.88,-7.75247,5.478911,-1.7661194,997.5957599999999,0,0
12.92,-7.8337746,5.436013,-1.5388723999999998,997.59827,0,0
12.96,-7.819451299999999,5.4789124000000005,-1.5199361999999998,997.5503,0,0
13.0,-7.6808679999999985,5.5027456,-1.7282528999999998,997.6033,0,0
13.04,-7.886431,5.49798,-1.8134751,997.5704,0,0
13.08,-7.671372,5.5742455,-1.870291,997.5754400000001,0,0
13.12,-7.934309,5.4693822999999995,-1.3163698999999998,997.5756,0,0
13.16,-7.8482885,5.4884496,-1.174339,997.5906,0,0
13.2,-7.6475677,5.531349,-1.3684525,997.5856,0,0
13.24,-7.6714990000000025,5.5694823,-1.4205339,997.55286,0,0
13.28,-7.5854940000000015,5.645748,-1.7046012,997.5731,0,0
13.32,-7.8245315999999985,5.583783599999999,-1.6809334999999999,997.5756,0,0
13.36,-7.714612,5.5694847,-1.6477939999999998,997.5578,0,0
13.4,-7.7337789999999975,5.6266847,-1.4726255,997.54785,0,0
13.44,-7.7481337,5.6076190000000015,-1.5389086,997.6007699999999,0,0
13.48,-7.7481656,5.5599537,-1.5436458999999998,997.54034,0,0
13.52,-7.791215400000001,5.6123867,-1.6478057000000002,997.5857,0,0
13.56,-7.7099905,5.564722,-1.6525431000000002,997.578,0,0
13.6,-7.6478850000000005,5.54089,-1.5909986,997.6007699999999,0,0
13.64,-7.6431375,5.5122914000000005,-1.6478144000000001,997.5780599999999,0,0
13.68,-7.762663400000001,5.4646263,-1.6241453000000001,997.6058300000001,0,0
13.72,-7.867850999999999,5.4598613,-1.7046331000000001,997.5681,0,0
13.76,-7.753151400000001,5.5218263,-1.6288841,997.568,0,0
13.8,-7.7818622999999985,5.5694930000000005,-1.5105269,997.6008,0,0
13.84,-7.595561,5.6219277000000005,-1.6336315000000001,997.61584,0,0
13.88,-7.6194773,5.6552944000000025,-1.6052266000000002,997.5957599999999,0,0
13.92,-7.8059416,5.469399,-1.6999193,997.563,0,0
13.96,-7.8585362000000005,5.4837,-1.7709370999999998,997.5985,0,0
14.0,-7.715176,5.5075330000000005,-1.7141273000000001,997.6006,0,0
14.04,-7.605291999999999,5.6362314000000024,-1.714132,997.568,0,0
14.08,-7.581410400000001,5.5695004,-1.6241801000000002,997.5907,0,0
14.12,-7.7726364000000014,5.5313683,-1.6005111,997.5830000000001,0,0
14.16,-7.772670699999999,5.4455714,-1.6194518999999998,997.5908,0,0
14.2,-7.653208999999999,5.5504365,-1.6952056,997.5754400000001,0,0
14.24,-7.7870955,5.550438,-1.6715381,997.5758,0,0
14.28,-7.772790400000001,5.459874,-1.6478692,997.5683,0,0
14.32,-7.8493020000000016,5.512307,-1.6147316,997.6287,0,0
14.36,-7.6868224000000005,5.5266075,-1.628938,997.5784,0,0
14.4,-7.729857400000001,5.6028730000000015,-1.5673923,997.5656,0,0
14.44,-7.6677713,5.5552087,-1.6620848999999998,997.5856,0,0
14.48,-7.691687599999999,5.550441999999999,-1.6478831999999999,997.5782,0,0
14.52,-7.8160143,5.421746700000001,-1.6336848,997.5682,0,0
14.56,-7.7156725,5.4408135,-1.6999695,997.6086,0,0
14.6,-7.7348089999999985,5.455114,-1.6431584,997.5709,0,0
14.64,-7.7109613,5.51708,-1.6147566,997.6011,0,0
14.68,-7.667959700000001,5.555213,-1.5721486,997.596,0,0
14.72,-7.725352,5.517081299999999,-1.5816205,997.591,0,0
14.76,-7.950054,5.421752,-1.6100316000000001,997.6011,0,0
14.8,-7.830576,5.4694176,-1.5721578999999999,997.6036,0,0
14.84,-7.6776395000000015,5.5361505,-1.52955,997.5884,0,0
14.88,-7.7243323,5.669586,-1.5057768,997.56335,0,0
14.92,-7.7243270000000015,5.7220182,-1.6099331000000001,997.5784,0,0
14.96,-7.7338770000000014,5.536123,-1.5341817,997.5835,0,0
15.0,-7.8294625,5.3168607,-1.2690542,997.5784,0,0
15.04,-7.843797,5.3073273,-1.4063513,997.581,0,0
15.08,-7.9632815999999975,5.31686,-1.6809458,997.5935699999999,0,0
15.12,-7.686038000000001,5.4693894,-1.5957252,997.5529,0,0
15.16,-7.686038000000001,5.4693894,-1.5957252,997.5808,0,0
15.2,-7.743380499999999,5.521821,-1.6809431000000001,997.6011,0,0
15.24,-7.7577,5.4693885,-1.5862532,997.596,0,0
15.28,-7.7577,5.4693885,-1.5862532,997.5579,0,0
15.32,-7.795927499999999,5.488455,-1.5767835,997.5985,0,0
15.36,-7.7959175000000025,5.4455557,-1.5057665,997.5808,0,0
15.4,-7.858045,5.4407883,-1.3495301000000002,997.57294,0,0
15.44,-7.7385397,5.5599523,-1.5247021,997.5706,0,0
15.48,-7.576011,5.5504190000000015,-1.7566867,997.5683,0,0
15.52,-7.6811624000000025,5.469386599999999,-1.84664,997.5581699999999,0,0
15.56,-7.881898,5.3692894,-1.6241214,997.5909,0,0
15.6,-7.9822693,5.3645225,-1.6809338,997.5985,0,0
15.64,-7.9488005999999976,5.517052,-1.5010256000000002,997.591,0,0
15.68,-7.6381025,5.583783599999999,-1.5294311,997.57794,0,0
15.72,-7.5377173,5.6266823,-1.5199612,997.591,0,0
15.76,-7.599844,5.464619,-1.7992903000000002,997.5805,0,0
15.8,-7.6715364,5.469385,-1.9460562,997.5934,0,0
15.84,-7.8197006999999985,5.345455,-1.8608360000000002,997.5935699999999,0,0
15.88,-7.892562,5.35025,-1.7283794999999995,997.6111,0,0
15.92,-7.6679460000000015,5.4741817,-1.8562115000000001,997.5884,0,0
15.96,-7.720559599999999,5.4980154,-1.7141825000000002,997.5731,0,0
16.0,-7.648898,5.4884825,-1.7615299999999998,997.5907,0,0
16.04,-7.868803999999999,5.3931527,-1.7662674999999999,997.596,0,0
16.08,-7.7063440000000005,5.488485,-1.8088821,997.5556,0,0
16.12,-7.7637199999999975,5.4408197,-1.7852116999999998,997.578,0,0
16.16,-7.7254996,5.431287,-1.7331348999999998,997.5934,0,0
16.2,-7.8737264000000025,5.393155999999999,-1.6668581000000002,997.60345,0,0
16.24,-7.8116245,5.4884877,-1.6573925999999999,997.5479,0,0
16.28,-7.620467999999999,5.5933532999999995,-1.6100518,997.5704300000001,0,0
16.32,-7.601383999999999,5.593354,-1.6053206,997.56036,0,0
16.36,-7.5918427,5.588588,-1.6005878,997.5706,0,0
16.4,-7.6970696,5.498025,-1.8988618999999998,997.5654,0,0
16.44,-7.7448854,5.4646597,-1.7994411,997.573,0,0
16.48,-7.8405166,5.383629,-1.6005992,997.5957599999999,0,0
16.52,-7.8070936,5.4598947,-1.6668841,997.55286,0,0
16.56,-7.7736526,5.469428,-1.6384794999999999,997.5731,0,0
16.6,-7.6541929999999985,5.5599937000000015,-1.5390601000000002,997.5780599999999,0,0
16.64,-7.816742,5.5218620000000005,-1.5674698,997.568,0,0
16.68,-7.6304007,5.636261,-1.6479611,997.5757,0,0
16.72,-7.826389999999999,5.6124287000000015,-1.6479627000000001,997.58575,0,0
16.76,-7.792949,5.617196,-1.6716365000000002,997.5931,0,0
16.8,-7.6639300000000015,5.517099,-1.7237182,997.5755,0,0
16.84,-7.753025,5.502757,-1.7330293999999995,997.5981400000001,0,0
16.88,-7.834246,5.46939,-1.6667444,997.5755,0,0
16.92,-7.580863000000001,5.526587999999999,-1.6099268,997.5782,0,0
16.96,-7.681221499999999,5.52182,-1.5389091000000001,997.5755,0,0
17.0,-7.815003,5.526586,-1.7566867,997.5907,0,0
17.04,-7.815003,5.526586,-1.7566867,997.5579,0,0
17.08,-7.599858,5.555184,-1.7519474,997.5555400000001,0,0
17.12,-7.709776400000001,5.507518,-1.6761953,997.5757,0,0
17.16,-7.695366,5.531349,-1.6525168000000001,997.5957599999999,0,0
17.2,-7.64277,5.540882,-1.6667183999999995,997.5932,0,0
17.24,-7.795688,5.44555,-1.7424657,997.5805,0,0
17.28,-7.695259599999999,5.550413,-1.6619758999999998,997.56036,0,0
17.32,-7.690461,5.5265794,-1.7140526999999999,997.5705,0,0
17.36,-7.723884599999999,5.574244,-1.7471904999999999,997.5804400000001,0,0
17.4,-7.69039,5.507511,-1.6051548999999998,997.5855,0,0
17.44,-7.852867599999999,5.3978800000000025,-1.6619645,997.57794,0,0
17.48,-7.8145947,5.4550776,-1.4536475,997.5654,0,0
17.52,-7.6711645000000015,5.5885406,-1.6619580000000005,997.5855,0,0
17.56,-7.628111,5.6028395,-1.6193452,997.5653,0,0
17.6,-7.556396,5.6600375,-1.6146091,997.5576,0,0
17.64,-7.8096724,5.5408725999999975,-1.7376988000000002,997.5805,0,0
17.68,-7.823994,5.5313387,-1.6193371,997.5676,0,0
17.72,-7.7713633,5.440773,-1.6051289,997.5880000000001,0,0
17.76,-7.8382619999999985,5.4407725,-1.5767209999999998,997.5652,0,0
17.8,-7.690053,5.4503045,-1.5767176,997.58295,0,0
17.84,-7.800453,5.450316,-1.6809168999999995,997.5727,0,0
17.88,-7.8338966,5.455082,-1.6525092000000001,997.57526,0,0
17.92,-7.7048187000000015,5.4836807,-1.6809136000000002,997.5903,0,0
17.96,-7.6331143,5.5742455,-1.5436151000000002,997.5931,0,0
18.0,-7.570953999999999,5.631444,-1.6193635,997.5805,0,0
18.04,-7.7382393,5.5504120000000015,-1.6430348000000001,997.57526,0,0
18.08,-7.833813,5.507512,-1.6619703999999995,997.5727,0,0
18.12,-7.9055023,5.4789129999999995,-1.6430320999999999,997.56256,0,0
18.16,-7.5565534,5.631442,-1.5767483999999998,997.5802,0,0
18.2,-7.5565534,5.631442,-1.5767483999999998,997.58777,0,0
18.24,-7.7142644,5.483678,-1.7187784,997.5751300000001,0,0
18.28,-7.9197729999999975,5.3597470000000005,-1.7093076,997.57245,0,0
18.32,-7.838500999999999,5.3835797,-1.8087285,997.57776,0,0
18.36,-7.7524570000000015,5.4026456,-1.7377116999999995,997.5953400000001,0,0
18.4,-7.8241463000000016,5.4455442000000005,-1.6477573,997.5903300000001,0,0
18.44,-7.647270699999999,5.636206,-1.5293952,997.5877,0,0
18.48,-7.5277604999999985,5.6886377,-1.5435969999999999,997.5649,0,0
18.52,-7.752396000000001,5.521808,-1.6808933000000001,997.60284,0,0
18.56,-7.757161,5.3740444000000025,-1.7140326000000001,997.57776,0,0
18.6,-7.9961357,5.316845400000001,-1.6288121000000002,997.57745,0,0
18.64,-7.814488000000001,5.436008999999999,-1.6240763999999999,997.56995,0,0
18.68,-7.9435270000000004,5.402642299999999,-1.6098716999999998,997.5976,0,0
18.72,-7.747539999999999,5.4646077,-1.7519025000000001,997.56244,0,0
18.76,-7.5563326,5.621903400000001,-1.7140256999999999,997.5546,0,0
18.8,-7.5563173,5.5265718,-1.813447,997.585,0,0
18.84,-7.6915016000000005,5.4789395,-1.6668040000000002,997.5774,0,0
18.88,-7.897092,5.393143,-1.7188878,997.5825,0,0
18.92,-7.897092,5.393143,-1.7188878,997.5899,0,0
18.96,-7.878032000000001,5.545674,-1.3969537,997.56476,0,0
19.0,-7.634301700000001,5.6267059999999995,-1.4537702,997.55725,0,0
19.04,-7.5482845,5.6457734,-1.5200535,997.5573,0,0
19.08,-7.6248007,5.5742755,-1.6999645,997.5622599999999,0,0
19.12,-7.596162,5.493245,-1.9508915,997.5799599999999,0,0
19.16,-7.988144,5.297817,-1.960364,997.5545699999999,0,0
19.2,-7.84479,5.359783599999999,-1.799398,997.5571,0,0
19.24,-7.6727567,5.4884815,-1.6194941,997.56976,0,0
19.28,-7.7158136,5.6076464999999995,-1.553216,997.5445599999999,0,0
19.32,-7.6154966,5.641014,-1.5910968,997.5295,0,0
19.36,-7.844947,5.5790489999999995,-1.6526456999999999,997.5497,0,0
19.4,-7.792408,5.5695167,-1.6763214,997.5497,0,0
19.44,-7.6920720000000005,5.5266194,-1.6005745,997.5748,0,0
19.48,-7.701650999999999,5.4980199999999995,-1.6337171,997.56213,0,0
19.52,-7.6777916,5.588586,-1.7000023000000002,997.557,0,0
19.56,-7.835584599999999,5.5123224,-1.6479293000000002,997.55695,0,0
19.6,-7.7400274000000024,5.4884900000000005,-1.7236833999999999,997.5517,0,0
19.64,-7.663608999999999,5.6219554,-1.657407,997.5748,0,0
19.68,-7.596711999999999,5.5552244,-1.7094874,997.58215,0,0
19.72,-7.8739996,5.4455953,-1.5627261000000001,997.5621,0,0
19.76,-7.730625,5.4646615999999995,-1.5674626,997.5593,0,0
19.8,-7.735464,5.531395,-1.6432183,997.5694,0,0
19.84,-7.5993094,5.5694704,-1.5861931,997.5617699999999,0,0
19.88,-7.6709795,5.5980687000000025,-1.6666754000000001,997.5567599999999,0,0
19.92,-7.5896683000000005,5.4598379999999995,-1.7376865000000001,997.5871,0,0
19.96,-7.804678,5.5408669999999995,-1.7802888,997.5593,0,0
20.0,-7.728173700000001,5.569465599999999,-1.8513023000000002,997.5795,0,0
20.04,-7.742431599999999,5.6695614,-1.6903251,997.5567599999999,0,0
20.08,-7.7710557,5.645727,-1.7613361,997.6048,0,0
20.12,-7.6036806,5.5980597,-1.5672181,997.5644,0,0
20.16,-7.6275524999999975,5.5694594,-1.6050906999999999,997.5669,0,0
20.2,-7.732680999999999,5.5122604000000015,-1.6098228,997.5744,0,0
20.24,-7.856874,5.5265580000000005,-1.7376441000000002,997.5568,0,0
20.28,-7.751690400000001,5.5217905,-1.8749393,997.5719,0,0
20.32,-7.488747,5.7315172999999975,-1.8986064999999999,997.5719,0,0
20.36,-7.5364910000000025,5.6933846,-1.7281629,997.5795,0,0
20.4,-7.354776400000001,5.645716,-1.4535599,997.5894,0,0
20.44,-7.6893353000000015,5.5551515,-1.55298,997.56433,0,0
20.48,-8.019059,5.5456157,-1.8228334,997.55927,0,0
20.52,-7.7513633,5.545615,-1.3920002,997.5794,0,0
20.56,-7.3832364,5.6314116,-1.2357572000000001,997.56433,0,0
20.6,-7.0677423,5.7124424000000005,-1.2783643999999998,997.5694,0,0
20.64,-7.4978976,5.63141,-1.3967221,997.54175,0,0
20.68,-7.220586999999999,5.931701,-1.4203866000000005,997.5491300000001,0,0
20.72,-7.3448350000000024,5.8077703000000005,-1.3398992,997.55176,0,0
20.76,-7.908770599999999,5.550374,-1.2878132,997.5392,0,0
20.8,-7.9039087,5.3406434,-1.3588219,997.5463,0,0
20.84,-8.067554,5.2977724,-1.3541913,997.5363,0,0
20.88,-8.067554,5.2977724,-1.3541913,997.5567599999999,0,0
20.92,-8.048428,5.302539,-1.4441442,997.5643,0,0
20.96,-7.790306599999999,5.512267,-1.1553446000000005,997.5642,0,0
21.0,-7.8572130000000024,5.569465,-1.9507233,997.5765,0,0
21.04,-7.317087700000001,5.698162,-1.6240488000000002,997.5740400000001,0,0
21.08,-7.9049960000000015,5.4836664000000015,-1.5388288,997.574,0,0
21.12,-8.3686285,5.302537999999998,-1.1932166000000002,997.5639,0,0
21.16,-8.277808,5.207206200000001,-1.3399827,997.5967,0,0
21.2,-7.517813,5.293004,-1.6997968,997.5717,0,0
21.24,-7.718553,5.540865,-1.7566087,997.5088,0,0
21.28,-7.7185493,5.5551650000000015,-1.6287795,997.5489,0,0
21.32,-7.8762755,5.60283,-1.1316662,997.5414,0,0
21.36,-7.756769,5.4931984000000025,-1.2736973999999999,997.5539,0,0
21.4,-7.756769,5.4931984000000025,-1.2736973999999999,997.5589,0,0
21.44,-7.6611648,5.5122647,-1.3068374,997.5866,0,0
21.48,-7.8188877,5.502731,-1.6855886999999998,997.5691,0,0
21.52,-8.029191,5.2787027,-1.5861655000000001,997.56396,0,0
21.56,-7.971825,5.3168354,-1.5340863,997.58405,0,0
21.6,-7.837987400000001,5.3597339999999996,-1.5293516,997.5765,1,1
21.64,-7.6706834000000015,5.421698999999999,-1.5056787,997.5666,1,1
21.68,-7.689798,5.4026327000000025,-1.5861631999999999,997.55396,1,1
21.72,-7.8953185,5.3502,-1.6382406999999999,997.5463,1,1
21.76,-7.8618565,5.359733599999998,-1.6950531000000002,997.58154,1,1
21.8,-7.6276383,5.455064299999999,-1.7376619999999998,997.5790400000001,1,1
21.84,-7.585145,5.588541,-1.5720059,997.5715,1,1
21.88,-7.6951017,5.4550776,-1.8039936,997.56146,1,1
21.92,-7.671209299999999,5.3931127,-1.7282438000000002,997.5843,1,1
21.96,-7.943672,5.3025484,-1.633557,997.56647,1,1
22.0,-7.752494,5.3597474,-1.595683,997.57416,1,1
22.04,-7.714263000000001,5.3835807,-1.4205108,997.5864,1,1
22.08,-7.656919,5.4693785,-1.5294032,997.5715,1,1
22.12,-7.7429767000000025,5.569477,-1.4299826999999998,997.57135,1,1
22.16,-7.6378417,5.612376,-1.5483447,997.5839,1,1
22.2,-8.1062765,5.540879,-1.7045814,997.58154,1,1
22.24,-7.9103117,5.688642,-1.8560828,997.57654,1,1
22.28,-7.461031,5.803039599999999,-1.5152079,997.5487699999999,1,1
22.32,-7.3702216,5.826873,-1.160128,997.5563,1,1
22.36,-7.5088496,5.741075,-1.3968495,997.57385,1,1
22.4,-7.398928,5.3454514,-1.1269897,997.5839,1,1
22.44,-8.163711,5.2167544,-1.65251,997.57385,1,1
22.48,-8.082467999999999,5.173856,-1.6809174999999998,997.6067,1,1
22.52,-8.866369,5.164323,-1.5578243999999999,997.5866,1,1
22.56,-8.976318,5.0928254,-0.7813833,997.5413,1,1
22.6,-8.440994,5.4312510000000005,-1.5767646999999998,997.57654,1,1
22.64,-8.488807000000001,5.636213,-1.3021704,997.5613,1,1
22.68,-8.4075575,5.7744436,-1.6004385,997.5613,1,1
22.72,-7.752738000000001,5.826876,-1.8134881,997.5991,1,1
22.76,-7.5854589999999975,5.5027504,-0.8713426999999999,997.5813,1,1
22.8,-7.590253,4.9593635,-0.48785716,997.5563,1,1
22.84,-7.4308167,4.7734260000000015,-0.15629300000000002,997.57654,1,1
22.88,-7.3542557,5.1166160000000005,-0.014253188,997.55365,1,1
22.92,-7.4498243,5.245312,-0.13261077,997.56885,1,1
22.96,-7.726996400000001,5.5980360000000005,-0.5587021,997.5537,1,1
23.0,-7.526189299999999,5.9269266,-0.6155098000000001,997.5511,1,1
23.04,-7.593023,6.479846,-1.3777413,997.5613,1,1
23.08,-9.026908,6.3988132,-1.7091446,997.5916,1,1
23.12,-9.0842085,6.5084424000000025,-2.0736885,997.5967,1,1
23.16,-7.5593963,7.132859,-2.0500114,997.5487699999999,1,1
23.2,-6.7181234,6.9374304,-2.0736809,997.56396,1,1
23.24,-5.456199,6.2748775000000006,-2.0926131999999997,997.57135,1,1
23.28,-5.327116999999999,5.922151599999999,-1.8227497,997.5841,1,1
23.32,-8.457804,5.006971,-0.9279396000000001,997.569,1,1
23.36,-7.463549,5.245297,-2.2440990000000003,997.5538,1,1
23.4,-6.918596000000001,5.2214627,-2.7033312,997.5665,1,1
23.44,-7.014137,5.178562599999999,-2.9116397000000003,997.5412,1,1
23.48,-7.377317999999999,4.949766,-2.8642882999999997,997.5691,1,1
23.52,-7.9317470000000005,4.949765,-2.5565493,997.5740400000001,1,1
23.56,-7.1477756999999995,5.9745726999999995,-2.0215538,997.60175,1,1
23.6,-7.883837700000001,6.093736,-1.9505352999999999,997.5641,1,1
23.64,-8.012836,6.5417914,-1.912655,997.569,1,1
23.68,-7.525241,6.746751299999999,-2.3198087000000003,997.55145,1,1
23.72,-8.8921795,5.316783,-2.0925496,997.5614,1,1
23.76,-9.379664,4.644696700000001,-1.841621,997.5541400000001,1,1
23.8,-8.825178999999997,4.515999,-2.2298396,997.5666,1,1
23.84,-8.755932000000001,3.9583724,-1.2926518,997.57654,1,1
23.88,-8.469188,3.8535092000000004,0.10872795,997.5414,1,1
23.92,-8.105967999999999,4.087071,0.122927114,997.5816,1,1
23.96,-8.192026,4.373065,-0.075919926,997.5564,1,1
24.0,-8.579257,4.6209273,-0.2700366,997.5565,1,1
24.04,-7.8288506999999985,5.10235,-0.11380328,997.5339,1,1
24.08,-6.6960809999999995,5.8030357000000015,-0.37419959999999997,997.5387,1,1
24.12,-6.3710985,6.160528,-1.1648492,997.5541400000001,1,1
24.16,-6.758308,5.960334,-0.8618514000000002,997.57916,1,1
24.2,-8.455203,5.488446700000001,-1.486799,997.569,1,1
24.24,-8.928428,5.65051,-1.4441915,997.5867,1,1
24.28,-8.708623,7.099545,-1.5294168,997.5818,1,1
24.32,-8.283263999999999,6.8040199999999995,-2.2537847,997.5464,1,1
24.36,-7.853103999999999,6.913651,-2.490507,997.5487699999999,1,1
24.4,-6.0989832999999996,5.6028495000000005,-2.1922455000000003,997.5717,1,1
24.44,-5.98907,5.3597555,-1.8087609,997.5539,1,1
24.48,-6.7443233,5.0356307000000005,-1.5010287,997.5795,1,1
24.52,-8.756664,4.9688997000000015,-1.2690469,997.5642,1,1
24.56,-9.000478999999997,5.312093,-1.6809441000000005,997.55164,1,1
24.6,-6.2903970000000005,5.5313563,-1.7898415,997.56647,1,1
24.64,-5.659485299999999,5.583789,-1.8277188999999998,997.53894,1,1
24.68,-6.4195185,5.4169602,-1.960286,997.5768,1,1
24.72,-7.0791759999999995,4.9355392,-2.0313060000000003,997.55164,1,1
24.76,-6.8258905,5.3788304,-2.19228,997.5542,1,1
24.8,-8.001767,5.636225,-1.7188436999999999,997.5441,1,1
24.84,-8.775160000000001,6.270155,-1.9838848999999998,997.5666,1,1
24.88,-8.684349000000001,6.618113,-2.4147162,997.5618,1,1
24.92,-8.995041,6.4941830000000005,-1.8371191999999998,997.5643,1,1
24.96,-9.659438,5.898363,-1.4820392,997.5491300000001,1,1
25.0,-6.609932400000001,5.4693737,-1.0985532,997.5643,1,1
25.04,-7.0018787,5.088049,-0.8428955,997.5819,1,1
25.08,-7.651934,4.9116870000000015,-0.5635659000000001,997.5668,1,1
25.12,-7.761877,5.173847,-0.62511384,997.54926,1,1
25.16,-8.019991000000001,5.2072134000000005,-1.3873535,997.56433,1,1
25.2,-8.574453,4.7925234,-0.82395977,997.5643,1,1
25.24,-7.236114,5.3645096,-0.47834873,997.5794,1,1
25.28,-6.4665685,5.707701999999999,-0.25109753,997.5719,1,1
25.32,-6.5334907,5.6505035999999995,-0.34105167,997.597,1,1
25.36,-7.0066960000000025,5.8888316,-0.26530167,997.539,1,1
25.4,-6.958903299999999,6.2224903,-0.44994393,997.5593,1,1
25.44,-7.2265773,6.1652923,-1.5199200000000002,997.54926,1,1
25.48,-9.917614,6.198658,-1.6524838,997.55176,1,1
25.52,-9.989313000000001,6.232024,-1.3258103,997.54926,1,1
25.56,-8.76569,6.6467146999999995,-1.8039855,997.56433,1,1
25.6,-7.5659637,6.1748257,-1.7850482,997.5593,1,1
25.64,-6.7868633,4.949821,-1.7092986000000001,997.5719,1,1
25.68,-7.6854714999999985,4.6113954,-1.0843577,997.55426,1,1
25.72,-8.311628,4.4064336,-0.98966974,997.5819,1,1
25.76,-9.673877000000001,4.287269599999999,-1.1411712,997.5669,1,1
25.8,-9.721678,4.415967,-1.2784691000000001,997.5266,1,1
25.84,-7.580331299999999,5.1166506,-1.9128797999999998,997.5794,1,1
25.88,-6.3758282999999984,5.0213203,-1.2642671,997.5869,1,1
25.92,-6.762997,4.2443714,-1.4394406000000002,997.5643,1,1
25.96,-7.561228999999999,4.1156745,-1.3778938,997.5543,1,1
26.0,-8.043994999999999,4.2872705,-1.6572240000000005,997.5668300000001,1,1
26.04,-8.128993,5.030828,-1.8133646,997.5442,1,1
26.08,-8.114609,6.4750934,-2.1731749,997.54926,1,1
26.12,-7.9138427,6.627623,-2.5329884999999996,997.55927,1,1
26.16,-9.357312,5.974604,-2.8549252,997.55927,1,1
26.2,-10.28455,5.0498910000000015,-1.9932598000000001,997.56934,1,1
26.24,-9.366814,5.0498905,-1.4914113000000002,997.56433,1,1
26.28,-7.4118433,4.8496943,-0.46404266,997.5845,1,1
26.32,-7.7416205,4.2395744,-0.042677957999999995,997.5794,1,1
26.36,-8.033142999999999,4.496968,-0.41669178,997.587,1,1
26.4,-8.033142999999999,4.496968,-0.41669178,997.5543,1,1
26.44,-7.6124606,5.5027094000000005,-0.25571656,997.55426,1,1
26.48,-6.5178556,5.9650644999999995,-0.84277993,997.5392,1,1
26.52,-6.5178556,5.9650644999999995,-0.84277993,997.5593,1,1
26.56,-6.589523,5.8601995,-0.932731,997.5567599999999,1,1
26.6,-7.4068394,5.583739,-0.87591535,997.5845,1,1
26.64,-7.249076400000001,6.2033906,-0.29358083,997.577,1,1
26.68,-6.914459700000001,6.365453,-0.90431625,997.5668300000001,1,1
26.72,-7.7174369999999985,6.255821,-1.8464601999999999,997.5617699999999,1,1
26.76,-8.706812,6.627611,-1.2735931,997.56934,1,1
26.8,-8.35309,6.4464817000000005,-1.9790181,997.56934,1,1
26.84,-8.797584,6.2462854000000005,-1.4629651000000001,997.54926,1,1
26.88,-7.573923,6.17002,-1.5008377,997.54926,1,1
26.92,-7.1389309999999995,5.359704499999999,-1.5008350000000001,997.5669,1,1
26.96,-7.956247,4.6876190000000015,-0.9516412000000001,997.5618,1,1
27.0,-8.381635000000001,4.4778905,-0.8900925999999999,997.56433,1,1
27.04,-8.72228,4.806814,-1.0369761,997.5795,1,1
27.08,-7.6277275,5.15954,-1.3825898,997.55176,1,1
27.12,-6.6861289999999975,5.1786065,-1.6098434,997.55176,1,1
27.16,-6.4997277,5.207206200000001,-1.6051098999999998,997.5669,1,1
27.2,-6.996873,5.1929073,-1.4678163999999998,997.55426,1,1
27.24,-8.258763,5.007013,-1.908118,997.56433,1,1
27.28,-8.62682,5.0117793,-1.8797127,997.56433,1,1
27.32,-8.717659,5.116644,-1.766089,997.5643,1,1
27.36,-7.7043753,5.9555593,-2.1164382,997.5441,1,1
27.4,-7.838221000000001,6.0651903,-1.5104355,997.5669,1,1
27.44,-8.082025,6.1509895,-1.1174829,997.5669,1,1
27.48,-8.488319,5.931728,-1.2074378000000001,997.5568,1,1
27.52,-8.803809,5.550404,-0.8239529000000001,997.5668300000001,1,1
27.56,-7.962586999999999,5.640969,-0.5162187,997.55176,1,1
27.6,-7.757078599999999,6.0318265,-1.1174903,997.56433,1,1
27.64,-6.6434070000000025,6.1176257000000005,-0.53989494,997.5768400000001,1,1
27.68,-7.365191499999999,5.946030599999999,-0.4357412000000001,997.54926,1,1
27.72,-7.365191499999999,5.946030599999999,-0.4357412000000001,997.55176,1,1
27.76,-8.445461,5.7506022,-0.7103397,997.5593,1,1
27.8,-8.51239,5.7315364,-1.0322804,997.5643,1,1
27.84,-7.785883,5.722004,-1.3589563,997.5568,1,1
27.88,-7.107185,5.7649040000000005,-1.1317081,997.5669,1,1
27.92,-6.892105,5.941267,-1.0180833,997.5768,1,1
27.96,-7.6138783,5.7601385,-0.97547585,997.5415,1,1
28.0,-8.450366,5.8173375,-1.4394497,997.5591,1,1
28.04,-8.023752,6.1176010000000005,-1.3588538000000001,997.5416,1,1
28.08,-8.085863,5.779175,-1.2404913999999998,997.5618,1,1
28.12,-7.340173700000001,5.483647,-3.1247807,997.6524,1,1
28.16,-7.493114500000001,5.1166215,-1.7518021000000001,997.5819,1,1
28.2,-7.7989820000000005,5.111854599999999,-1.5056095,997.5341,1,1
28.24,-7.8037490000000025,5.097554,-1.9317046000000002,997.53406,1,1
28.28,-7.622089,5.4931779999999995,-1.7802012999999999,997.5718400000001,1,1
28.32,-7.961442,5.5360765,-1.4535261,997.5642,1,1
28.36,-6.9815288,5.6933722,-2.0311183999999995,997.5337,1,1
28.4,-6.9815288,5.6933722,-2.0311183999999995,997.5693,1,1
28.44,-7.665014,5.5170083,-1.4203778999999999,997.5919,1,1
28.48,-7.5789375,5.288213,-1.8985492,997.5844,1,1
28.52,-7.8895990000000005,5.1595154,-1.4440438999999998,997.5869,1,1
28.56,-8.114222999999999,5.0689497,-1.6334176,997.54663,1,1
28.6,-8.348405999999999,4.935485400000001,-1.3067411,997.5818,1,1
28.64,-8.271902,5.092781,-1.2073163999999998,997.5666,1,1
28.68,-8.276655,5.2119446,-1.2120483,997.5668,1,1
28.72,-7.7269516000000005,5.3215747,-1.552923,997.5691,0,0
28.76,-7.975475,5.121378400000001,-1.0368704,997.549,0,0
28.8,-7.851173399999999,5.1404442999999995,-1.3019947,997.5643,0,0
28.84,-7.9276233,5.2357745000000016,-1.3635395000000001,997.56433,0,0
28.88,-8.391237,5.1499760000000006,-1.4534909,997.5668300000001,0,0
28.92,-8.243037,5.2453065,-1.5623796,997.5593,0,0
28.96,-8.204785000000001,5.2071733,-1.4960968000000001,997.5743,0,0
29.0,-8.134076,4.925971,-1.0416843,997.5719,0,0
29.04,-7.9859095,5.016536,-1.041685,997.57935,0,0
29.08,-8.009816,5.107101,-1.0085448000000001,997.5642,0,0
29.12,-7.957253999999999,5.2786975,-0.90438926,997.5568,0,0
29.16,-7.723058999999999,5.550391,-1.1931893999999998,997.5768400000001,0,0
29.2,-7.871255400000001,5.650489299999999,-1.4677869,997.5768,0,0
29.24,-7.833025,5.5742245000000015,-1.5624757,997.5744,0,0
29.28,-7.675306299999999,5.4121623,-1.4630546999999998,997.5668,0,0
29.32,-7.8521743000000015,5.4026294,-1.5151346,997.5769,0,0
29.36,-8.005142999999999,5.326365,-1.2405403999999998,997.5694,0,0
29.4,-7.885671,5.5885262,-1.2878865,997.56433,0,0
29.44,-7.718392999999999,5.5837603,-1.3825761,997.5617699999999,0,0
29.48,-7.6371517,5.4455300000000015,-1.1079819,997.54663,0,0
29.52,-7.8235717000000005,5.374032,-1.1363891000000002,997.5669,0,0
29.56,-8.502317999999999,5.3358994000000015,-0.9328110000000001,997.587,0,0
29.6,-8.06738,5.016541,-1.7376618000000001,997.55927,0,0
29.64,-7.9813589999999985,4.9974756,-1.1458628,997.5919,0,0
29.68,-7.5607433,5.197671,-0.8191895,997.5618,0,0
29.72,-7.627668400000001,5.3883333,-0.92808145,997.5643,0,0
29.76,-7.866681,5.416932599999999,-1.3021016,997.5567599999999,0,0
29.8,-7.8762565,5.3216023,-1.1269301,997.55426,0,0
29.84,-7.742437400000001,5.3597355,-1.051181,997.5669,0,0
29.88,-8.316028999999999,5.0928087,-0.8476029,997.56934,0,0
29.92,-8.540702,5.1309414,-1.197951,997.5567599999999,0,0
29.96,-8.091415,5.2644057,-1.3541877,997.56934,0,0
30.0,-7.8524327000000005,5.345437,-1.3447196000000001,997.56433,0,0
30.04,-7.895337599999999,5.2930019999999995,-1.1411299,997.5845,0,0
30.08,-7.9813848,5.1738386,-1.354179,997.56934,0,0
30.12,-7.895358,5.0785074,-1.3021014,997.5845,0,0
30.16,-8.143923,5.1261735,-1.3731189,997.5845,0,0
30.2,-7.847581,5.250104,-1.5766988000000002,997.5794,0,0
30.24,-7.785448599999999,5.3645015,-1.538824,997.5593,0,0
30.28,-7.5178,5.6552625,-1.0085725,997.5467,0,0
30.32,-7.5178,5.6552625,-1.0085725,997.5719,0,0
30.36,-8.024474,5.4836664000000015,-1.2831694,997.5819,0,0
30.4,-7.9575615000000015,5.4312344,-1.3068419,997.5669,0,0
30.44,-7.9862556,5.416935,-1.4630786,997.5871,0,0
30.48,-7.995821,5.483667,-1.5151576999999998,997.5392,0,0
30.52,-7.699483,5.583764599999999,-1.5861745,997.57434,0,0
30.56,-7.8237679999999985,5.564699,-1.5483003999999998,997.5845,0,0
30.6,-7.8476777,5.3645034,-1.4678162000000001,997.5719,0,0
30.64,-8.086678,5.097576999999999,-1.3115819,997.56195,0,0
30.68,-7.9767523,5.049911499999999,-1.3778645,997.5669,0,0
30.72,-8.124936,5.0165462,-1.4299438,997.54926,0,0
30.76,-7.948093400000001,5.2167416,-1.5009608,997.5543,0,0
30.8,-7.8811860000000005,5.2834735,-1.3968049,997.5442,0,0
30.84,-8.067609,5.412171400000001,-1.3636651000000002,997.54675,0,0
30.88,-7.8286240000000005,5.536102,-1.335259,997.5669,0,0
30.92,-7.5705247,5.6218996,-1.5056987,997.56195,0,0
30.96,-7.761731599999999,5.555168,-1.3873396999999998,997.5644,0,0
31.0,-7.7999754,5.4598374000000005,-1.4394187,997.5819,0,0
31.04,-7.977621000000001,5.350226,-1.2359118,997.5846,0,0
31.08,-7.872528,5.340694999999998,-1.4442315000000001,997.567,0,0
31.12,-7.87257,5.4503264000000025,-1.0560142,997.5746,0,0
31.16,-7.6957383,5.5647244,-1.0844225,997.5645,0,0
31.2,-7.6958012999999985,5.617158,-1.2785387,997.55444,0,0
31.24,-7.9061546,5.5361275999999995,-1.2311985,997.55444,0,0
31.28,-7.8536186,5.3835983,-1.2264680000000001,997.5518,0,0
31.32,-8.030514,5.250136,-1.3164254,997.567,0,0
31.36,-8.135711,5.2453704000000005,-1.2501476999999999,997.5545,0,0
31.4,-7.872884299999999,5.378835,-1.2596223,997.5771,0,0
31.44,-7.9111443,5.4217353,-1.2264832,997.5495,0,0
31.48,-7.729553,5.483701,-1.3448473,997.5721,0,0
31.52,-7.954267,5.4551034000000005,-1.2122898000000002,997.5798300000001,0,0
31.56,-7.954267,5.4551034000000005,-1.2122898000000002,997.552,0,0
31.6,-7.8204746,5.507537,-1.2312312,997.5518,0,0
31.64,-7.7344800000000005,5.6076355000000015,-1.3259231000000002,997.5444,0,0
31.68,-7.8779369999999975,5.5266056,-1.3638041,997.5723,0,0
31.72,-7.8731775,5.498007,-1.4016812,997.57965,0,0
31.76,-7.887558999999999,5.493241,-1.2975281,997.557,0,0
31.8,-7.8637229999999985,5.326413,-1.36855,997.5695,0,0
31.84,-7.8589635,5.340714,-1.3306767,997.5645,0,0
31.88,-7.701272,5.340715,-1.406431,997.5497,0,0
31.92,-7.844708,5.4169803,-1.5153261,997.5798300000001,0,0
31.96,-8.069401,5.445581,-1.4869236000000001,997.55444,0,0
32.0,-7.572364,5.6696105,-1.4395851999999998,997.58234,0,0
32.04,-7.9963484,5.474147,-1.4536586,997.58234,0,0
32.08,-8.02502,5.350216400000001,-1.5862211000000002,997.54706,0,0
32.12,-7.9437475000000015,5.102355,-1.5246725,997.552,0,0
32.16,-8.00109,5.002257,-1.3352950000000001,997.5723,0,0
32.2,-7.905479,4.887859,-1.4725913,997.5798300000001,0,0
32.24,-7.9102364000000005,4.997489,-1.306885,997.5898,0,0
32.28,-7.9102364000000005,4.997489,-1.306885,997.55475,0,0
32.32,-8.005809,5.3692803,-1.2406013999999999,997.5522,0,0
32.36,-7.7906947,5.8745346,-1.3731626000000001,997.5595,0,0
32.4,-7.5516973,5.9174333,-1.5578038,997.5394,0,0
32.44,-7.4895444000000015,5.8030357000000015,-1.7093033,997.5394,0,0
32.48,-7.9005923,5.559941,-1.6619577,997.5746,0,0
32.52,-7.8288803,5.5456410000000025,-1.6004091999999999,997.5522,0,0
32.56,-8.144323,5.316846,-1.5388598,997.5519400000001,0,0
32.6,-8.144323,5.316846,-1.5388598,997.5899699999999,0,0
32.64,-7.7284584,5.2167473,-1.3826223999999998,997.58234,0,0
32.68,-7.9865521999999975,5.2167473,-1.2737296,997.5975300000001,0,0
32.72,-7.919627999999999,5.2167473,-1.287932,997.55975,0,0
32.76,-7.675842999999999,5.374043,-1.4631038,997.5672599999999,0,0
32.8,-7.714066000000001,5.3454432,-1.6288066,997.58734,0,0
32.84,-8.211143,5.1404805,-1.5530538999999999,997.572,0,0
32.88,-7.991256,5.240578,-1.5057086000000002,997.5723,0,0
32.92,-7.9960213000000016,5.3502083,-1.5151758999999998,997.5798300000001,0,0
32.96,-7.728337,5.512271,-1.2121726000000002,997.54706,0,0
33.0,-7.747447999999999,5.5313370000000015,-1.2169063999999998,997.5849,0,0
33.04,-7.8239098,5.4693713,-1.4015467,997.5546,0,0
33.08,-7.876473,5.264409,-1.619328,997.5798300000001,0,0
33.12,-8.043743,5.1357117,-1.2831831,997.5645,0,0
33.16,-7.909901,5.1309447,-1.3826049999999999,997.5672599999999,0,0
33.2,-8.211013000000001,5.2405753,-1.3684002,997.56464,0,0
33.24,-7.857292699999999,5.645732,-1.2642419,997.5949,0,0
33.28,-7.718662700000001,5.645732,-1.3021159,997.5571,0,0
33.32,-7.8285832,5.5170345,-1.3163177,997.562,0,0
33.36,-7.9098177,5.2453400000000014,-1.1837521999999998,997.5522,0,0
33.4,-7.7998743,5.1738415,-1.3305181000000001,997.56976,0,0
33.44,-7.8141985,5.0213113,-1.2452973999999999,997.5621,0,0
33.48,-8.067505,5.512266,-1.1695448999999998,997.5772,0,0
33.52,-7.8763055999999985,5.75536,-1.2452947,997.5622599999999,0,0
33.56,-7.7472425000000005,5.8459244,-1.4346702,997.5672599999999,0,0
33.6,-7.699422,5.793492,-1.3068391000000001,997.54944,0,0
33.64,-7.7233133,5.7887254,-1.2216191,997.5622599999999,0,0
33.68,-7.527325999999999,5.6314287000000025,-1.5388229,997.5342,0,0
33.72,-8.0005045,5.3931002999999995,-1.5009456,997.56213,0,0
33.76,-7.7375917,5.598061599999999,-1.3494424999999999,997.5495,0,0
33.8,-7.728024499999999,5.679092400000001,-1.410989,997.5419,0,0
33.84,-7.479452,5.6981583,-1.6145663000000001,997.54944,0,0
33.88,-7.7805643,5.4216976,-1.4820015,997.5798300000001,0,0
33.92,-8.024326,5.4693629999999995,-1.624033,997.5444,0,0
33.96,-8.037898,5.2119503,-1.4913994,997.572,0,0
34.0,-7.913592299999999,5.1976504,-1.519803,997.557,0,0
34.04,-7.8131857,5.254848,-1.5718787,997.55444,0,0
34.08,-7.7892556,5.3168120000000005,-1.4819221000000002,997.5696,0,0
34.12,-7.927839,5.345411,-1.5955449,997.58966,0,0
34.16,-7.8943334,5.3740087,-1.5103214,997.5719,0,0
34.2,-7.8943334,5.3740087,-1.5103214,997.5672599999999,0,0
34.24,-7.856064999999999,5.44074,-1.4724433000000001,997.54944,0,0
34.28,-7.8368990000000025,5.3883066,-1.4535017,997.5669,0,0
34.32,-7.750832000000001,5.345407,-1.5339836000000002,997.55444,0,0
34.36,-7.9133143,5.3263397,-1.5481839,997.54675,0,0
34.4,-7.8033485,5.364471400000001,-1.6286662,997.54675,0,0
34.44,-7.937152,5.440736,-1.6902105,997.54675,0,0
34.48,-7.745928299999999,5.6313972,-1.5765821000000002,997.567,0,0
34.52,-7.583384,5.726728,-1.6996735,997.5671,0,0
34.56,-7.6120470000000005,5.6742954,-1.6807345,997.55426,0,0
34.6,-7.9035845,5.3358690000000015,-1.7470133999999995,997.5618,0,0
34.64,-7.9752502000000005,5.0641747000000015,-1.5576345,997.5973,0,0
34.68,-7.9417605,4.978376,-1.3919275,997.55426,0,0
34.72,-8.042106,5.1833363,-1.5765663,997.55426,0,0
34.76,-7.392007,5.7124233,-1.7659381999999997,997.5644,0,0
34.8,-7.392007,5.7124233,-1.7659381999999997,997.5871,0,0
34.84,-7.807803,5.4979277,-1.5907611000000001,997.5795,0,0
34.88,-7.8890285,5.173801,-1.5434141000000001,997.5618,0,0
34.92,-8.218789,4.7972417,-1.4534563,997.5593,0,0
34.96,-8.162981,4.8449454,-1.2074093000000001,997.5567599999999,0,0
35.0,-7.766306,5.617129,-1.3021016,997.5745,0,0
35.04,-7.81412,5.817324,-1.6145737,997.5694,0,0
35.08,-7.5512624000000015,6.0556529999999995,-1.9317818,997.577,0,0
35.12,-7.670789,5.8077927,-1.7566118000000002,997.5769,0,0
35.16,-7.9480495,5.4121695,-1.4725503,997.5543,0,0
35.2,-8.024557000000001,5.245341000000002,-1.1932234,997.5669,0,0
35.24,-7.8190584,5.1976757000000005,-1.4062746000000002,997.55176,0,0
35.28,-7.9099064,5.264408599999999,-1.5199031,997.5341,0,0
35.32,-7.819121400000001,5.5027370000000015,-1.5956565,997.5794,0,0
35.36,-7.7283525,5.5075045,-1.6950835,997.5669,0,0
35.4,-7.656671,5.483672,-1.7803042000000002,997.5441,0,0
35.44,-7.7809777,5.4026413,-1.6808845000000001,997.5618,0,0
35.48,-7.7809777,5.4026413,-1.6808845000000001,997.56433,0,0
35.52,-7.675869500000001,5.4693747,-1.7282330000000001,997.5719,0,0
35.56,-8.10132,5.2453475,-1.5341266000000002,997.577,0,0
35.6,-8.039213,5.307313400000001,-1.3684253999999998,997.5744,0,0
35.64,-8.101367,5.3788123,-1.5151934999999999,997.592,0,0
35.68,-7.766812299999999,5.5504093,-1.8324014,997.5392,0,0
35.72,-7.3318825,5.7553715999999975,-1.9081546999999999,997.5542,0,0
35.76,-7.633042,5.6362084999999995,-1.8560791,997.5491300000001,0,0
35.8,-7.8099103,5.512279,-1.7661269,997.55176,0,0
35.84,-7.8051944,5.3454510000000015,-1.82768,997.5845,0,0
35.88,-7.853008,5.455082,-1.7850717,997.5819,0,0
35.92,-7.7861223,5.545647,-1.7424651000000002,997.574,0,0
35.96,-7.4845595000000005,5.755365,-1.7708317,997.5616,0,0
36.0,-7.4989050000000015,5.669567,-1.7803011000000002,997.5591,0,0
36.04,-7.5419297000000025,5.579003,-1.6761447,997.57935,0,0
36.08,-7.6184195999999975,5.3168426,-1.6714115,997.5639,0,0
36.12,-7.7713857000000015,5.240578,-1.5909277,997.5869,0,0
36.16,-7.88612,5.2834773,-1.8323842000000001,997.55927,0,0
36.2,-7.666261,5.6123695,-1.9318078999999997,997.57935,0,0
36.24,-7.6901793000000005,5.860231,-1.9696846999999997,997.5565,0,0
36.28,-7.4273032999999975,5.903131,-1.9696859,997.5717,0,0
36.32,-7.2074384999999985,5.8792987,-1.9270769,997.5463,0,0
36.36,-7.685438,5.488441000000001,-1.7234993000000003,997.574,0,0
36.4,-7.771481,5.5933056,-1.7519061999999999,997.5841,0,0
36.44,-7.527723299999999,5.798268,-1.8039858,997.5614,0,0
36.48,-7.446472999999999,5.731536,-1.77558,997.5639,0,0
36.52,-7.8671145000000005,5.3645115,-1.5625336,997.58154,0,0
36.56,-7.8671145000000005,5.3645115,-1.5625336,997.574,0,0
36.6,-7.828895599999999,5.140484,-1.5199256,997.5715,0,0
36.64,-7.857587,5.4407773,-1.7282406000000003,997.5916,0,0
36.68,-7.7237716,5.9174333,-1.6808982,997.5616,0,0
36.72,-7.580389999999999,5.7267714000000005,-1.9886359,997.56635,0,0
36.76,-7.8815300000000015,5.455078,-1.732979,997.5791,0,0
36.8,-7.9341145000000015,5.3454475,-1.6903701,997.56647,0,0
36.84,-7.843317,5.3406816,-2.0123112,997.53894,0,0
36.88,-7.9245806,5.3311480000000016,-1.8655453000000002,997.5691,0,0
36.92,-7.7668589999999975,5.407414,-1.7329830000000002,997.5589,0,0
36.96,-7.360589,5.5218115,-1.5341393,997.57666,0,0
37.0,-7.5422406,5.4217143,-1.6240947000000001,997.5616,0,0
37.04,-7.824261,5.4693794,-1.6288303999999998,997.564,0,0
37.08,-8.02502,5.4407806,-1.6572373,997.55396,0,0
37.12,-7.9246570000000025,5.5075126,-1.4489246999999998,997.5437,0,0
37.16,-7.5422850000000015,5.6028447,-1.7140523999999997,997.5538,0,0
37.2,-7.403683,5.741075,-2.1117437000000003,997.55365,0,0
37.24,-7.5231853000000015,5.698176,-2.2253697,997.5487699999999,0,0
37.28,-7.7478539999999985,5.626678,-1.8276816999999999,997.5563,0,0
37.32,-7.4849787,5.7887416,-1.7424636000000002,997.5839,0,0
37.36,-7.465872,5.8221073,-1.6667143,997.574,0,0
37.4,-7.556694500000001,5.7410760000000005,-1.7661372,997.5511,0,0
37.44,-7.685780999999999,5.517049,-2.0170633999999996,997.5713,0,0
37.48,-7.4706955000000015,5.502749,-2.2774565,997.5614,0,0
37.52,-7.3894452999999976,5.655279599999999,-2.4952395,997.5438,0,0
37.56,-7.9534755000000015,5.598080599999999,-1.9839252,997.55615,0,0
37.6,-6.634268799999999,5.907907499999999,-2.7130252999999995,997.5411,0,0
37.64,-6.619935000000001,5.931740799999999,-3.1438565,997.55615,0,0
37.68,-7.9439597000000015,5.3978867999999975,-2.334275,997.5662,0,0
37.72,-6.419215,5.874542,-2.6798875,997.5914,0,0
37.76,-6.5195975,6.270167400000001,-2.6562164,997.5889,0,0
37.8,-7.4277729999999975,6.413164,-2.144902,997.55115,0,0
37.84,-7.4277854,6.2606344000000025,-2.5141866000000004,997.5587,0,0
37.88,-6.667803,6.155771,-3.5273497000000003,997.58374,0,0
37.92,-7.595097999999999,4.9879646,-2.897675,997.56616,0,0
37.96,-7.8425164,5.478892,-1.7423769,997.58386,0,0
38.0,-6.4897995,6.150975700000001,-2.4998786,997.5561,0,0
38.04,-6.6905339999999995,6.203407299999999,-2.7744725,997.5788,0,0
38.08,-7.1637020000000025,5.9460125,-2.6419063,997.55853,0,0
38.12,-6.752606,5.9841440000000015,-2.8218104999999998,997.5559,0,0
38.16,-7.7419762999999975,5.8602123,-1.7092209999999999,997.5762300000001,0,0
38.2,-7.354779,5.9650754999999975,-1.9175318,997.5862400000001,0,0
38.24,-7.001057,5.969842400000001,-2.1163752000000002,997.5536,0,0
38.28,-7.1157384000000015,6.0937715,-2.0074810000000003,997.5939,0,0
38.32,-7.2495410000000025,6.351165,-2.2252605,997.5534,0,0
38.36,-7.345086999999999,6.1462015999999995,-2.5282577999999996,997.5282599999999,0,0
38.4,-7.4645658,6.041337,-2.5329907000000005,997.5559,0,0
38.44,-7.0630289999999984,5.9460053,-2.2110481,997.5559,0,0
38.48,-7.3019867,5.779175,-1.6476511000000005,997.5886,0,0
38.52,-7.421464999999999,5.7505755,-1.3777883999999998,997.61145,0,0
38.56,-7.0247087,5.93647,-1.3351758999999999,997.5914,0,0
38.6,-7.5121990000000025,5.984134,-1.7849396,997.5886,0,0
38.64,-7.5551844,5.8983355,-1.5008725,997.581,0,0
38.68,-7.4308767000000016,5.6647735,-1.4677286,997.56104,0,0
38.72,-7.6459350000000015,5.3978453,-1.3209592,997.5736699999999,0,0
38.76,-7.4881850000000005,5.4407440000000005,-1.5198026000000002,997.5685,0,0
38.8,-7.9708953,5.5932727,-1.5718763999999998,997.54315,0,0
38.84,-6.8189135,5.5932713,-2.334111,997.55334,0,0
38.88,-7.421136,5.640937,-1.8796051999999999,997.5960699999999,0,0
38.92,-7.9235425,5.9793744,-1.1742271999999998,997.5934,0,0
38.96,-7.9235425,5.9793744,-1.1742271999999998,997.5658599999999,0,0
39.0,-8.066925999999999,6.046106299999999,-1.1458198999999998,997.57605,0,0
39.04,-7.4264174,6.112838,-1.0321928,997.5507,0,0
39.08,-7.469425,5.9841404,-1.221568,997.5886,0,0
39.12,-7.469425,5.9841404,-1.221568,997.54565,0,0
39.16,-8.085995,5.331121400000002,-1.1552841999999999,997.56067,0,0
39.2,-8.085995,5.331121400000002,-1.1552841999999999,997.5557,0,0
39.24,-8.057300999999999,5.2643895,-1.2262986999999999,997.5835,0,0
39.28,-8.339303999999998,5.2643889999999995,-1.3020488000000001,997.5759,0,0
39.32,-8.062064999999999,5.2262564000000005,-1.117406,997.56067,0,0
39.36,-7.5171576,5.5742150000000015,-1.0511233999999998,997.5582,0,0
39.4,-7.469344,5.798243,-0.9990434000000001,997.54065,0,0
39.44,-7.7848063,5.76011,-0.8759484000000001,997.55334,0,0
39.48,-8.062024000000001,5.626646,-1.3399192,997.5632300000001,0,0
39.52,-7.698749,5.660012,-1.4488096000000001,997.5505400000001,0,0
39.56,-7.6174827,5.660012,-1.4819494,997.5731,0,0
39.6,-7.8182197,5.5789800000000005,-1.2546966999999998,997.5605,0,0
39.64,-7.880350999999999,5.6218786,-1.3588532,997.56335,0,0
39.68,-7.282860799999999,5.6552444,-1.0085058,997.54803,0,0
39.72,-7.5027266,5.6028123,-0.875942,997.5884,0,0
39.76,-7.779945,5.5694456,-0.76231533,997.5607,0,0
39.8,-7.5935172999999985,5.7410417,-1.3635834,997.5506,0,0
39.84,-7.540934599999999,5.788707,-1.3304421999999998,997.5531599999999,0,0
39.88,-7.775134599999999,5.803006,-1.2499563,997.5759,0,0
39.92,-7.4644375,5.850672,-1.1315953,997.54065,0,0
39.96,-7.593865400000001,5.7124505,-1.0700821000000005,997.5454,0,0
40.0,-7.584308,5.6647854,-1.0937544,997.5604,0,0
40.04,-8.162669000000001,5.483656,-1.481976,997.6539,0,0
40.08,-7.4696054000000025,5.7982492,-1.122162,997.6563,0,0
40.12,-7.2401776,5.9126463,-1.0558805,997.5076,0,0
40.16,-7.928476299999999,5.683852,-0.96119314,997.5306,0,0
40.2,-7.942817999999999,5.793483,-0.66292584,997.53546,0,0
40.24,-7.4648433,5.812549,-1.5671977,997.5908,0,0
40.28,-7.6847195999999975,5.7362843,-1.2168522,997.54785,0,0
40.32,-7.665605,5.7696505,-0.9990700000000001,997.5759,0,0
40.36,-7.5843534,5.817316,-0.9091168,997.5655,0,0
40.4,-7.6225944000000005,5.774417400000001,-0.96119547,997.5632,0,0
40.44,-7.6656179999999985,5.788717,-0.9659303,997.5405,0,0
40.48,-7.6465039999999975,5.7648845,-0.98960274,997.55566,0,0
40.52,-7.689527,5.8316164000000015,-1.1079633999999998,997.5378400000001,0,0
40.56,-7.4696636,5.9364805,-1.2831371999999999,997.563,0,0
40.6,-7.6178427,5.750585,-1.2452623999999999,997.5653699999999,0,0
40.64,-7.603509,5.712453,-1.0795586000000001,997.5252,1,2
40.68,-7.646528999999999,5.683853599999999,-1.022746,997.563,1,2
40.72,-7.8520656,5.7362857000000025,-0.8901831,997.59564,1,2
40.76,-7.5079274000000025,5.831617,-1.0416847,997.5578,1,2
40.8,-7.593969,5.707687,-0.8381058000000001,997.5883,1,2
40.84,-7.713466,5.721987,-0.8759812,997.5528,1,2
40.88,-7.7564899999999986,5.707687,-0.9801386000000001,997.55035,1,2
40.92,-7.7086997,5.750586,-0.9848737,997.5653699999999,1,2
40.96,-7.7276,5.7219815,-0.9801193000000001,997.5808,1,2
41.0,-7.928348,5.731514,-0.65817946,997.5481,1,2
41.04,-7.7801703999999985,5.8602114,-0.70078874,997.57074,1,2
41.08,-7.722811,5.8935775999999995,-0.56349087,997.5780599999999,1,2
41.12,-7.7084660000000005,5.50272,-0.61083436,997.5830000000001,1,2
41.16,-7.684561299999999,5.4645867,-1.0653368,997.573,1,2
41.2,-7.493367,5.569451,-0.9233044,997.5555400000001,1,2
41.24,-7.153997,5.531318700000001,-0.9517104999999999,997.6086,1,2
41.28,-7.3595232999999975,5.497953,-0.8759594,997.5528,1,2
41.32,-7.827942,5.3549557,-1.6476673,997.5402,1,2
41.36,-7.3738565000000005,5.435987,-0.30309597,997.596,1,2
41.4,-7.464667299999999,5.6504817,-1.4772278,997.5606,1,2
41.44,-8.148176,5.5885167000000004,-1.9317303,997.5579,1,2
41.48,-8.430182,5.555151,-2.0548246,997.5504,1,2
41.52,-8.564013000000001,5.15476,-2.3199509999999997,997.54785,1,2
41.56,-8.673943,4.8401666,-2.0169485000000003,997.5756,1,2
41.6,-8.224639999999999,4.744836,-1.7234154,997.5935,1,2
41.64,-7.670178,4.782968,-2.0216825000000003,997.5708,1,2
41.68,-7.952184700000001,4.587539,-1.9175255,997.5783,1,2
41.72,-8.215069999999999,4.439776,-1.4866943000000001,997.5606,1,2
41.76,-7.9234985999999985,4.516041,-2.2110577,997.57324,1,2
41.8,-9.142344,4.578005999999999,-1.5719128999999998,997.56573,1,2
41.84,-8.8077545,5.097560400000001,-1.728148,997.5733,1,2
41.88,-7.665377,5.8935757,-2.040618,997.5481599999999,1,2
41.92,-9.677669,6.098537,-1.7139436000000001,997.5658599999999,1,2
41.96,-9.166098,6.5227575,-1.0085053,997.5607,1,2
42.0,-7.2063694000000025,6.1843314000000005,-1.4298666000000002,997.5835,1,2
42.04,-6.584986,4.997458999999999,-0.36462465,997.5985,1,2
42.08,-8.320045,4.6971655,0.37394333,997.5734,1,2
42.12,-8.315257,4.415939,0.1372239,997.5683,1,2
42.16,-8.845806,4.373039,0.5254459,997.54065,1,2
42.2,-8.042791000000001,4.563701,0.8757927,997.5734,1,2
42.24,-8.042791000000001,4.563701,0.8757927,997.53815,1,2
42.28,-7.454861599999999,5.0927887,0.39288458,997.5685,1,2
42.32,-7.230206,5.4645800000000015,0.23664962,997.57605,1,2
42.36,-6.1021589999999994,6.317793,0.047274638,997.5609,1,2
42.4,-7.082006,7.047076,1.0699072,997.5685,1,2
42.44,-7.082006,7.047076,1.0699072,997.56354,1,2
42.48,-8.697560000000001,6.3416257000000025,0.018871069,997.5332599999999,1,2
42.52,-8.697560000000001,6.3416257000000025,0.018871069,997.5383,1,2
42.56,-10.174503,6.050865,-0.82858574,997.54584,1,2
42.6,-9.639161,6.036565,-0.60133386,997.5285,1,2
42.64,-6.9289985,6.2033944000000005,-0.75283355,997.58374,1,2
42.68,-7.024591,5.5313099999999995,0.01887472,997.5737,1,2
42.72,-6.2120147,4.592297599999998,-0.82858294,997.5687,1,2
42.76,-7.665066,3.905914,-0.32673517,997.57635,1,2
42.8,-8.917366000000003,4.415935,0.061486818,997.55865,1,2
42.84,-7.593351400000001,5.5217757,-1.3777714,997.54614,1,2
42.88,-7.1966147,5.898333,-2.4524798,997.56635,1,2
42.92,-7.268866,5.2643949999999995,-1.9412153000000003,997.55365,1,2
42.96,-7.240194,5.1738305,-1.5435257,997.56396,1,2
43.0,-7.3835955,5.1261654000000005,-1.0606171999999998,997.57654,1,2
43.04,-7.6943035,5.474124400000001,-0.6960699,997.5589,1,2
43.08,-7.8711634,5.4693580000000015,-0.7292113,997.5917400000001,1,2
43.12,-8.6837435,5.2310305,-0.6297901,997.5841,1,2
43.16,-8.917974000000003,5.378794,-1.0606228000000002,997.60425,1,2
43.2,-9.630179,6.14621,-0.28891609999999995,997.5942,1,2
43.24,-9.721009,6.3368730000000015,0.38336805,997.5841,1,2
43.28,-9.252595,6.3750052,0.8757455,997.56146,1,2
43.32,-6.136185,6.2224765,1.9031093000000001,997.5765,1,2
43.36,-7.1064997000000005,5.426461,1.7042631000000001,997.5819,1,2
43.4,-7.923853,5.145235,1.6190432,997.5617699999999,1,2
43.44,-8.258452,5.3692636,0.73844266,997.58685,1,2
43.48,-8.110286,5.4884276,0.45911217,997.5441,1,2
43.52,-7.684903999999999,5.99845,0.31707808,997.53156,1,2
43.56,-7.0444173999999995,6.232011,0.42123434,997.5744,1,2
43.6,-6.666834,6.375008,0.37388837,997.5543,1,2
43.64,-6.026361,6.603803,0.7052948,997.5845,1,2
43.68,-6.026361,6.603803,0.7052948,997.5593,1,2
43.72,-7.106617999999999,6.341643,1.0367011000000002,997.5719,1,2
43.76,-8.139069000000001,5.931719999999999,0.5727283000000001,997.51904,1,2
43.8,-8.449771,6.298744999999999,0.45436689999999996,997.5593,1,2
43.84,-9.157195,6.8087672999999995,0.98935336,997.5719,1,2
43.88,-8.550174,6.9612975000000015,0.28866017,997.5568,1,2
43.92,-7.512971,6.842133500000001,-0.62034684,997.5518,1,2
43.96,-8.870448,6.122383599999999,-1.2547583999999998,997.5291,1,2
44.0,-7.441301299999999,4.902146,-1.8086851000000002,997.5419,1,2
44.04,-7.775908500000001,3.6199427,-1.0085725,997.5645,1,2
44.08,-8.210877,3.7295735,-0.87127537,997.5369,1,2
44.12,-8.741449000000001,3.729574,-1.2452947,997.58734,1,2
44.16,-9.3246,4.1251983999999995,-0.5398696,997.5497,1,2
44.2,-9.028265,4.5065230000000005,-0.08063364,997.5773300000001,1,2
44.24,-8.531174,4.8354154000000005,-0.03802463,997.55206,1,2
44.28,-8.12491,5.240574,-0.009620115,997.5673,1,2
44.32,-8.545166,5.178599,0.32655627,997.5345,1,2
44.36,-8.315738,5.2548639999999995,0.25554007,997.5799599999999,1,2
44.4,-7.3884583,5.345429,0.3360247,997.56995,1,2
44.44,-7.546194,4.88784,0.26500840000000003,997.5497,1,2
44.48,-7.9859399999999985,5.1643,-0.69607615,997.55975,1,2
44.52,-7.856887299999999,5.3406625,-0.45935613,997.555,1,2
44.56,-7.541423,5.5837574,0.009349769,997.5649,1,2
44.6,-7.245077999999999,5.9317160000000015,0.13244401,997.55756,1,2
44.64,-6.848356699999999,6.4036050000000015,-0.46409118,997.5776400000001,1,2
44.68,-7.627467599999999,5.9555489999999995,-1.3967691999999998,997.5649,1,2
44.72,-8.793741,5.297764,-1.2073931999999998,997.60284,1,2
44.76,-8.487838,4.659045,-0.7150155,997.5802,1,2
44.8,-8.679033,5.035603,0.65796155,997.57526,1,2
44.84,-8.186715,5.45506,0.8284,997.59283,1,2
44.88,-7.8186740000000015,5.9936814000000025,0.62482035,997.5903,1,2
44.92,-8.2488575,6.303508,1.0367132,997.6030000000001,1,2
44.96,-7.4697547,6.537069,0.20819210000000002,997.58295,1,2
45.0,-7.6752872000000005,6.513236,-0.43568707,997.5552,1,2
45.04,-8.798544,6.155744599999999,-0.27471757,997.58295,1,2
45.08,-7.6179357,6.336874,-0.24631138,997.60065,1,2
45.12,-6.8579497000000025,5.9841485,0.77158535,997.60565,1,2
45.16,-7.020466000000001,5.7648873,1.0887902,997.6308,1,2
45.2,-7.603603,5.631424,1.1171966,997.5956,1,2
45.24,-8.076808,5.6028247,1.339713,997.5880000000001,1,2
45.28,-7.6179495,5.7982535,1.6095741000000001,997.5832,1,2
45.32,-6.8302655,6.2939997000000005,0.3501323,997.5503,1,2
45.36,-7.2748084,6.2749333,0.68627316,997.55786,1,2
45.4,-7.7098330000000015,6.069973,0.9655971999999999,997.60565,1,2
45.44,-8.106599000000001,6.2940025,0.16074462,997.59827,1,2
45.48,-8.10184,6.3464355,-0.18013443,997.55536,1,2
45.52,-7.2319574000000015,6.427467299999999,-1.1980354,997.5681,1,2
45.56,-6.739659,6.4894339999999975,-1.0986147,997.5907599999999,1,2
45.6,-7.3993134000000005,6.4560685,-0.8618983,997.5454,1,2
45.64,-7.074349400000001,6.8230949999999995,-1.3542821000000005,997.56036,1,2
45.68,-6.940536,6.7897296,-0.8713748,997.5932,1,2
45.72,-6.763725,6.8612285,-1.5294609,997.5655,1,2
45.76,-7.743627,6.4608393,-1.3874326000000001,997.5655,1,2
45.8,-7.8201665999999985,6.422708,-1.079702,997.5956,1,2
45.84,-8.025739999999999,6.2082143,-0.9660799999999999,997.5907,1,2
45.88,-7.624257000000001,6.1748486,-1.4489913,997.5780599999999,1,2
45.92,-7.423547,5.7601595,-1.1696653000000001,997.5807,1,2
45.96,-7.308894599999999,5.4503345,-2.1496928,997.6310000000001,1,2
46.0,-7.791675,5.088076999999998,-1.4158620000000002,997.6259,1,2
46.04,-7.7964759999999975,5.202475,-1.5294896,997.5732,1,2
46.08,-8.064207000000001,5.259675,-1.3259159,997.5605,1,2
46.12,-8.255421,5.4265050000000015,-1.221761,997.59326,1,2
46.16,-8.284142,5.712499,-1.0655295,997.56036,1,2
46.2,-7.7966433,5.9412949999999976,-1.2122998,997.573,1,2
46.24,-7.787147,5.6314699999999975,-1.1223518999999995,997.5905,1,2
46.28,-7.782408699999999,5.6219387,-1.0608084,997.5985,1,2
46.32,-7.5434604000000025,5.641006,-0.65365344,997.5756,1,2
46.36,-7.5326520000000015,5.6981735,-1.0606978999999999,997.5553,1,2
46.4,-7.2840934000000015,5.7267730000000014,-1.1553854,997.5856,1,2
46.44,-7.7716246,5.4932113,-0.8949921000000001,997.5855,1,2
46.48,-7.3748913,5.5885425,-1.1222428,997.578,1,2
46.52,-7.6568913,5.7124724,-1.3163525,997.58057,1,2
46.56,-7.7046800000000015,5.955566999999999,-1.0891002,997.60315,1,2
46.6,-7.699892,6.0651975,-0.8855200000000001,997.61865,0,0
46.64,-7.5947274999999985,6.136696,-0.9944105999999999,997.61115,0,0
46.68,-7.5564839999999975,6.0318309999999995,-0.8287059999999999,997.5956,0,0
46.72,-7.6281729999999985,5.812569,-0.9423309000000001,997.5986,0,0
46.76,-8.192181,5.4550769999999975,-0.7434850000000001,997.5832,0,0
46.8,-7.924498599999999,5.569474,-0.9233913,997.5757,0,0
46.84,-7.9818516000000015,5.6028404,-1.0843606000000001,997.5881,0,0
46.88,-7.628137,5.8602339999999975,-1.1790479999999999,997.5908,0,0
46.92,-7.4703946,5.8697667000000004,-1.1648438,997.5931,0,0
46.96,-7.4703856,5.8316339999999975,-0.9044506999999999,997.58575,0,0
47.0,-7.8432016,5.664804,-0.58251035,997.6081,0,0
47.04,-7.9053307,5.750602,-0.6819321,997.61316,0,0
47.08,-8.000917,5.807800299999999,-0.66772807,997.578,0,0
47.12,-7.4225520000000005,6.050895,-1.1174958000000002,997.58826,0,0
47.16,-7.317388,5.864999,-1.633545,997.58057,0,0
47.2,-8.043909,5.5790057,-1.5246528,997.5934,0,0
47.24,-7.771451499999999,5.331144,-1.7140282,997.6159,0,0
47.28,-7.9196167,5.6791024000000006,-1.2121806,997.5983,0,0
47.32,-7.136755,5.636228599999999,-1.2974938,997.59326,0,0
47.36,-7.4713573,5.4217343,-1.2028073000000001,997.5981400000001,0,0
47.4,-8.05451,5.183406400000001,-1.3495752,997.58057,0,0
47.44,-8.097561,5.350237,-0.84299695,997.5882,0,0
47.48,-8.183646000000001,5.3883705000000015,-1.0087057,997.58575,0,0
47.52,-7.844314,5.4074373,-0.8998174000000001,997.61084,0,0
47.56,-7.954283,5.4694033,-0.8288044,997.568,0,0
47.6,-7.7009864000000015,5.4932370000000015,-1.127075,997.5782,0,0
47.64,-7.8826675,5.40744,-1.1176107,997.5832,0,0
47.68,-7.930498599999999,5.259678,-1.3117242,997.5832,0,0
47.72,-7.801461,5.312110400000001,-1.3590697,997.5881,0,0
47.76,-7.8397320000000015,5.340711,-1.2975254999999999,997.5554,0,0
47.8,-8.011838000000001,5.216781,-1.4869047,997.5830000000001,0,0
47.84,-8.322557000000002,5.202482,-1.5673926999999999,997.5907,0,0
47.88,-7.9449869999999985,5.364546,-1.2643938,997.5655,0,0
47.92,-8.150568,5.335948,-1.05135,997.6007699999999,0,0
47.96,-8.102786,5.312115,-0.999273,997.58057,0,0
48.0,-7.720434700000001,5.3836144999999975,-1.0750268,997.5856,0,0
48.04,-7.849507000000001,5.340716400000002,-1.0134809999999999,997.6007699999999,0,0
48.08,-8.145886,5.216786,-1.1886569,997.59326,0,0
48.12,-7.91171,5.192954,-1.3117545,997.6058300000001,0,0
48.16,-8.040813,5.078558,-1.2691493,997.5529,0,0
48.2,-8.117307,5.1357574,-1.2975572,997.6186,0,0
48.24,-7.859230499999999,5.2263227,-1.6005622,997.5907,0,0
48.28,-8.232087,5.1929574,-1.4869393999999998,997.60565,0,0
48.32,-7.9016724,5.240607700000001,-1.7520103,997.5808,0,0
48.36,-7.997272,5.2501416,-1.5721033000000002,997.5682,0,0
48.4,-8.002058,5.3168736,-1.3685243999999999,997.5654,0,0
48.44,-7.825211500000001,5.288275,-1.3069777,997.5907,0,0
48.48,-7.920814,5.1834097,-1.1223365,997.5681,0,0
48.52,-8.059435,5.04518,-1.1223371000000002,997.5857,0,0
48.56,-8.092902,5.1262120000000015,-1.2785733,997.5832,0,0
48.6,-8.150264,5.135745,-1.2549016000000002,997.5957599999999,0,0
48.64,-8.164605,5.2930417,-1.2785739,997.58057,0,0
48.68,-7.973422999999999,5.4455714,-1.2264962,997.5832,0,0
48.72,-7.89695,5.431272,-1.2122933999999999,997.5857,0,0
48.76,-7.8491583,5.3216410000000005,-1.1507466999999998,997.5579,0,0
48.8,-8.312808,4.97845,-0.98977774,997.5881,0,0
48.84,-8.193322,5.0928473,-1.2501711000000002,997.5881,0,0
48.88,-8.140748,5.135746,-1.1270767,997.55304,0,0
48.92,-7.997364,5.231077,-1.2454377,997.5705,0,0
48.96,-7.9686885,5.2310777,-1.2075628,997.5855,0,0
49.0,-7.963914999999999,5.2310777,-1.0418591,997.5830000000001,0,0
49.04,-8.078636,5.121447,-0.93296844,997.5706,0,0
49.08,-8.097761,5.240611,-1.0560637,997.60065,0,0
49.12,-7.8396583,5.2787437000000015,-1.1649555,997.5706,0,0
49.16,-8.217269,5.145280400000001,-1.2312378000000002,997.5780599999999,0,0
49.2,-8.069101,5.226312,-1.1128782,997.5907599999999,0,0
49.24,-7.920934700000001,5.3788414000000015,-1.056066,997.5504,0,0
49.28,-8.011757000000001,5.498006,-1.0750041000000001,997.5832,0,0
49.32,-7.992641000000001,5.4789395,-0.95664424,997.5754400000001,0,0
49.36,-7.8297834,5.4550985999999995,-1.2359426000000002,997.5755,0,0
49.4,-7.982725999999999,5.3835998,-0.8003763,997.6033,0,0
49.44,-7.963598700000001,5.3264008,-0.8997982,997.58057,0,0
49.48,-8.054407000000001,5.316868,-0.94240713,997.5881,0,0
49.52,-7.977926700000001,5.364533,-0.9566099,997.5882,0,0
49.56,-8.016154,5.283501,-0.98501533,997.5705,0,0
49.6,-7.949233,5.2739677,-0.99448377,997.5731,0,0
49.64,-7.958784599999999,5.2739677,-0.89506054,997.5857,0,0
49.68,-7.949217999999999,5.240602,-1.0181544,997.5731,0,0
49.72,-8.149961,5.302567,-1.032357,997.5882,0,0
49.76,-7.930083,5.326399299999999,-1.2027948,997.55786,0,0
49.8,-8.149946,5.3168664,-0.8240417,997.5907,0,0
49.84,-7.743656,5.5122952000000005,-0.9992139000000001,997.58057,0,0
49.88,-8.020872,5.3692980000000015,-0.81457114,997.5907,0,0
49.92,-7.8392363,5.42173,-0.76249236,997.5756,0,0
49.96,-7.872683500000001,5.5361275999999995,-0.89978915,997.60834,0,0
50.0,-7.805763199999999,5.5647269999999995,-0.9613360000000001,997.5731,0,0
50.04,-7.920470699999999,5.4693947,-1.4442446000000002,997.5581,0,0
50.08,-7.9826,5.3216314,-1.411103,997.5731,0,0
50.12,-8.178564,5.154802,-0.9660681999999999,997.5907,0,0
50.16,-7.934786999999999,5.2691989999999995,-0.77669144,997.56287,0,0
50.2,-7.886977000000001,5.2691984000000005,-0.80036235,997.5579,0,0
50.24,-7.9682307,5.331164,-0.81929964,997.563,0,0
50.28,-8.02558,5.2834983,-0.9565966,997.5832,0,0
50.32,-8.039912,5.2072330000000004,-1.3495517,997.5857,0,0
50.36,-8.14984,5.216766000000002,-1.2169877,997.56793,0,0
50.4,-8.0255575,5.326396,-0.913985,997.59326,0,0
50.44,-7.829578,5.4217277,-0.79562414,997.5882,0,0
50.48,-7.920387,5.3502293,-0.84770197,997.58057,0,0
50.52,-8.020759,5.2882643,-0.71513826,997.5907,0,0
50.56,-7.977728999999999,5.302563,-1.0749520000000001,997.5629,0,0
50.6,-8.221494999999999,5.1881657,-1.1080923999999999,997.5908,0,0
50.64,-7.925136599999999,5.3788276,-1.0228722,997.5704300000001,0,0
50.68,-7.934692,5.4074273,-1.0276061,997.5704300000001,0,0
50.72,-8.0255,5.4884580000000005,-0.84296364,997.5907,0,0
50.76,-7.834300999999999,5.459859,-1.0702145,997.5605,0,0
50.8,-8.035045,5.3073287,-0.8855719000000001,997.5857,0,0
50.84,-7.800827000000001,5.226297,-1.0654786,997.58057,0,0
50.88,-8.336033,5.0737643,-0.89502805,997.5605,0,0
50.92,-8.144831,5.154795,-1.2169667,997.56036,0,0
50.96,-8.130475,5.2072268,-0.8240095,997.5859,0,0
51.0,-8.049211999999999,5.226293,-0.98024434,997.5706,0,0
51.04,-7.953606599999999,5.297791,-0.8618832000000001,997.5805,0,0
51.08,-7.98228,5.2453585,-0.795601,997.5931,0,0
51.12,-7.9440246,5.2310586,-1.4158066999999999,997.5731,0,0
51.16,-8.068294999999999,5.2119927000000015,-1.3211181,997.5631,0,0
51.2,-8.044379,5.264424299999999,-1.1885533000000001,997.57294,0,0
51.24,-8.001356,5.2453575,-1.3211161,997.6008,0,0
51.28,-7.943981,5.164325700000001,-1.0181128000000002,997.55804,0,0
51.32,-8.053906,5.1547922999999995,-1.1601438999999998,997.56573,0,0
51.36,-8.006097,5.440785400000001,-0.928157,997.5859,0,0
51.4,-8.15426,5.39312,-0.60148203,997.5631,0,0
51.44,-7.676269500000001,5.474151,-1.2264225,997.5733,0,0
51.48,-7.9630413,5.1976905,-1.3589844,997.6086,0,0
51.52,-8.206799499999999,5.21199,-1.027575,997.5830000000001,0,0
51.56,-8.350188000000001,5.3502197,-0.87607354,997.5631,0,0
51.6,-7.599748599999999,5.655279,-1.0512456000000001,997.60596,0,0
51.64,-7.513702,5.7649097000000005,-1.1222607,997.5981,0,0
51.68,-7.929527999999999,5.4646163,-0.8334604,997.56793,0,0
51.72,-7.862605999999999,5.4693822999999995,-0.7908503,997.6161,0,0
51.76,-7.9677505,5.464616,-0.5446603,997.60596,0,0
51.8,-8.029877,5.517048,-0.55886245,997.5986,0,0
51.84,-8.04899,5.5170474,-0.71983176,997.5830000000001,0,0
51.88,-7.958946000000001,5.536133,-1.0134356,997.591,0,0
51.92,-8.102371,5.459869,-0.21805827,997.5784,0,0
51.96,-8.064152,5.474169,-0.47845238,997.5759,0,0
52.0,-8.279254,5.3264055,-0.38376525,997.6214,0,0
52.04,-7.8729910000000025,5.4408035,-1.0702559,997.6136,0,0
52.08,-7.9303690000000016,5.3693056,-0.7151773,997.581,0,0
52.12,-7.8204645999999975,5.4455714,-0.88088423,997.5557,0,0
52.16,-7.8204746,5.483704,-0.9471668,997.55835,0,0
52.2,-7.7727070000000005,5.4694047,-0.79093426,997.5835,0,0
52.24,-7.9352300000000024,5.4265065,-0.49740207,997.58344,0,0
52.28,-7.734509,5.488472,-0.57315534,997.5935699999999,0,0
52.32,-7.796666,5.6505355999999995,-0.5494852,997.596,0,0
52.36,-7.7918963,5.7125010000000005,-0.35537553,997.5835,0,0
52.4,-7.8253655,5.7125010000000005,-0.5258149999999999,997.56335,0,0
52.44,-7.3617554000000025,5.993729,-0.6867876,997.5709,0,0
52.48,-7.658123,5.850733,-0.80988395,997.6238,0,0
52.52,-7.686812400000001,5.8412,-1.032402,997.5783,0,0
52.56,-7.7202907000000005,5.6410050000000025,-0.8998405,997.5885,0,0
52.6,-7.835037,5.598107,-0.70573264,997.5859,0,0
52.64,-7.7538004,5.7125044,-0.96139234,997.596,0,0
52.68,-7.720362,5.736338,-0.8288309000000001,997.5987,0,0
52.72,-7.7347217000000015,5.8078365,-1.0324123,997.5886,0,0
52.76,-7.6486955000000005,5.8364367,-1.3448838,997.5961,0,0
52.8,-7.5579100000000015,5.936535,-0.9613997999999999,997.5986,0,0
52.84,-7.419315299999999,5.8507370000000005,-1.0040114,997.596,0,0
52.88,-7.5994787,5.788736,-1.1601121,997.5987,0,0
52.92,-7.6090007,5.8078012,-1.1411711000000002,997.6061,0,0
52.96,-7.546806,6.003228,-1.0322745999999998,997.5885599999999,0,0
53.0,-7.379475,6.1128583,-1.3873514,997.5709,0,0
53.04,-7.326878,6.170057,-1.4252249,997.6112,0,0
53.08,-7.3889960000000015,6.1700563,-1.1885028999999998,997.5987,0,0
53.12,-7.3220410000000005,6.12239,-1.2689844,997.5961,0,0
53.16,-7.489296,6.031823999999999,-1.1837615,997.6062,0,0
53.2,-7.45102,5.984158,-1.1742892,997.61145,0,0
53.24,-7.345826,5.9936905,-1.1222073000000001,997.6163,0,0
53.28,-7.4031452999999985,6.0556545,-1.2263608,997.6842,0,0
53.32,-7.6468773,5.965089,-0.99910575,997.6341,0,0
53.36,-6.89163,6.30828,-0.95175827,997.5361,0,0
53.4,-7.412591,6.1652827000000014,-1.6145715,997.57605,0,0
53.44,-7.723240400000001,6.0508842000000005,-0.7008278,997.60114,0,0
53.48,-7.278680299999999,6.0890154999999995,-1.6808461,997.6641,0,0
53.52,-6.881919,6.2272444,-0.9517443999999999,997.5361,0,0
53.56,-7.608392,6.0508809999999995,-0.9801455,997.5989,0,0
53.6,-7.4124007,6.122378299999999,-0.63926667,997.6139,0,0
53.64,-7.278528,6.2606077,-0.83810824,997.5989,0,0
53.68,-7.1685543,6.303506,-1.0937626,997.60895,0,0
53.72,-7.283251,6.2415404,-0.88544697,997.61646,0,0
53.76,-7.574781,6.0937757,-1.0464133,997.5988,0,0
53.8,-7.2831744999999986,6.112841599999999,-1.1600356,997.5938,0,0
53.84,-7.3165765,6.2034044,-1.2452496000000002,997.5863,0,0
53.88,-7.470749400000001,6.274933,-1.1506732,997.58636,0,0
53.92,-7.102716,6.2796993,-1.1980183,997.5964,0,0
53.96,-7.2461214000000025,6.2272677000000005,-1.3116450000000002,997.6039999999999,0,0
54.0,-7.2652583,6.1939025,-1.2216928999999999,997.5788,0,0
54.04,-7.2318050000000005,6.112871,-1.1506773000000001,997.59644,0,0
54.08,-7.1696789999999995,6.241568599999999,-1.2785073999999998,997.6115,0,0
54.12,-6.9737186,6.436998,-1.3731965,997.6065,0,0
54.16,-7.279637299999999,6.370266,-1.1080709999999998,997.6039999999999,0,0
54.2,-7.0693436,6.265402,-1.1128068000000002,997.5838,0,0
54.24,-6.7395425000000015,6.4274654,-1.1270106000000002,997.6042,0,0
54.28,-7.5712449999999984,6.1986704,-1.302185,997.5989400000001,0,0
54.32,-7.2892427,6.2797019999999995,-1.4300145,997.6192599999999,0,0
54.36,-7.184092999999999,6.222503700000001,-1.4962969,997.6067,0,0
54.4,-6.8638573,5.965110299999999,-1.2501087,997.6093,0,0
54.44,-7.6668754,5.6838837,-1.0702023999999999,997.5791,0,0
54.48,-7.1936865,5.950811,-1.4915655,997.5967400000001,0,0
54.52,-7.341872,5.845947,-1.4820976000000001,997.6017,0,0
54.56,-7.977597,5.7839823,-1.2832538,997.6017,0,0
54.6,-7.341895,6.008011,-1.3921461000000002,997.6017,0,0
54.64,-7.5808964,5.8554807,-1.2595838,997.5917,0,0
54.68,-8.197503,5.5742544999999994,-1.1080838,997.5966,0,0
54.72,-7.7290990000000015,5.755383999999999,-0.9092405000000001,997.6144400000001,0,0
54.76,-7.757784,5.884081,-0.93764734,997.59186,0,0
54.8,-7.4232087,6.017545,-1.3306041000000002,997.5992,0,0
54.84,-7.5905130000000005,6.003245400000001,-1.0891503999999999,997.58417,0,0
54.88,-7.577180999999999,5.946071599999999,-0.9614136999999999,997.58685,0,0
54.92,-7.414718,5.9317730000000015,-1.5437502,997.5843,0,0
54.96,-7.586867,5.903176,-1.449069,997.58435,0,0
55.0,-7.586867,5.903176,-1.449069,997.5943599999999,0,0
55.04,-7.4769826,5.9317765,-1.3070414,997.5969,0,0
55.08,-7.4818380000000015,5.8459797,-1.392268,997.60455,0,0
55.12,-7.520128,5.90318,-1.1602865,997.5643,0,0
55.16,-7.754414,5.779251599999999,-1.3023257,997.60205,0,0
55.2,-7.558492699999999,5.726821,-1.5390506000000002,997.5491300000001,0,0
55.24,-7.558492699999999,5.726821,-1.5390506000000002,997.5921,0,0
55.28,-7.6876235,5.755422,-1.5816671,997.5971,0,0
55.32,-7.725938,5.7601905,-1.5627365,997.5768400000001,0,0
55.36,-7.792880499999999,5.736358,-1.6290205,997.5794,0,0
55.4,-7.596959599999999,5.6934605000000005,-1.6337596,997.5721,0,0
55.44,-7.525338599999999,5.4932666,-1.5627505,997.6049,0,0
55.48,-7.807372999999999,5.3979363,-1.6385033,997.5998,0,0
55.52,-7.644935,5.5028024,-1.5485566000000002,997.5646,0,0
55.56,-7.711878,5.5314026,-1.4680741000000002,997.56714,0,0
55.6,-7.7644806,5.6315007,-1.5769676000000001,997.5696,0,0
55.64,-7.5016427,5.6458015,-1.9083805,997.6075,0,0
55.68,-7.6785455,5.636269599999999,-1.8231659,997.567,0,0
55.72,-7.606925,5.5171075,-1.6669375,997.57465,0,0
55.76,-7.8793993,5.488509,-1.6858773999999999,997.562,0,0
55.8,-7.7599550000000015,5.540942,-1.5675219999999999,997.5772,0,0
55.84,-7.540135,5.569543,-1.6148707,997.5999,0,0
55.88,-7.7024107000000015,5.650568499999999,-1.7379433999999998,997.5773300000001,0,0
55.92,-7.496917999999999,5.6982355,-1.6858686,997.5622599999999,0,0
55.96,-7.716829,5.69347,-1.728482,997.5699,0,0
56.0,-7.563914,5.745903,-1.756892,997.585,0,0
56.04,-7.3823214,5.7554370000000015,-1.7237546000000001,997.60004,0,0
56.08,-7.9846163,5.5028105000000025,-1.5959292999999999,997.5598,0,0
56.12,-7.788683,5.6267414,-1.4728383999999999,997.5849,0,0
56.16,-7.4445763,5.7649726999999995,-1.425498,997.5747,0,0
56.2,-7.2390647,5.769739599999999,-1.6432823,997.5573,0,0
56.24,-7.7314434000000025,5.669644,-1.4917868,997.5774,0,0
56.28,-7.5641894,5.6219788,-1.6432915000000001,997.5571,0,0
56.32,-7.937053,5.6505790000000005,-1.690639,997.56213,0,0
56.36,-7.879716,5.7554435999999995,-1.6622343999999998,997.56976,0,0
56.4,-7.253620599999999,5.9413414000000015,-1.6243645,997.5573,0,0
56.44,-7.2679987000000015,5.879377,-1.7806036,997.5573,0,0
56.48,-7.693440400000001,5.4980535999999995,-1.5912309999999998,997.5571,0,0
56.52,-7.554885400000001,5.5600195,-1.1556712,997.5545699999999,0,0
56.56,-7.4401899999999985,5.6505847000000005,-1.4728780000000001,997.5498,0,0
56.6,-7.703118300000001,5.7220845,-1.6669922,997.5649,0,0
56.64,-7.5311046,5.941347599999999,-1.600716,997.5649400000001,0,0
56.68,-7.5454636,5.907982,-1.3924041,997.5548,0,0
56.72,-7.5646415,5.8317184,-1.7380208,997.5425,0,0
56.76,-7.59812,5.750687,-1.5723186000000002,997.59265,0,0
56.8,-7.5360217,5.7840543,-1.43029,997.5779,0,0
56.84,-7.4404460000000014,5.769755,-1.619668,997.5975300000001,0,0
56.88,-7.8834987000000005,5.7554193,-1.6621433,997.53723,0,0
56.92,-7.649278999999999,5.8459835,-1.6716112,997.5726300000001,0,0
56.96,-7.338571000000001,5.9746804000000004,-1.6526717,997.5473,0,0
57.0,-7.429357,5.8269160000000015,-1.6905441000000003,997.5751,0,0
57.04,-7.496264,5.7649508,-1.6858088,997.57776,0,0
57.08,-7.558381,5.726818,-1.4632899,997.58014,0,0
57.12,-7.457985400000001,5.755417,-1.9509314999999998,997.5777,0,0
57.16,-7.673046,5.755416,-1.7000055,997.5551,0,0
57.2,-7.572660000000001,5.788782,-1.704739,997.5602,0,0
57.24,-7.6299977,5.8269134000000005,-1.6005802,997.5476,0,0
57.28,-7.31451,5.845979,-1.491687,997.56256,0,0
57.32,-7.625177000000001,5.7840137,-1.5390291999999999,997.55255,0,0
57.36,-7.520001,5.817379,-1.7236692,997.5701,0,0
57.4,-7.582108,5.8126120000000014,-1.7804793,997.5476,0,0
57.44,-7.582108,5.8126120000000014,-1.7804793,997.5802,0,0
57.48,-7.4578130000000025,5.788779,-1.5958356000000002,997.5727,0,0
57.52,-7.3956550000000005,5.7077465,-1.6384433999999997,997.5677,0,0
57.56,-7.7063217,5.698213,-1.6100351000000002,997.5526,0,0
57.6,-7.4051740000000015,5.7983103,-1.6668459999999998,997.5578,0,0
57.64,-7.4433820000000015,6.003271,-1.7047185,997.5656,0,0
57.68,-7.060977,5.974671400000001,-1.7520607,997.55786,0,0
57.72,-6.941462,5.9317718,-1.6573707999999998,997.5600599999999,0,0
57.76,-7.6153936,5.6982102,-1.4111798999999998,997.5780599999999,0,0
57.8,-7.596254300000001,5.784008,-1.3306931,997.5551,0,0
57.84,-7.476749400000001,5.8412066,-1.4253803,997.5551,0,0
57.88,-7.282122,6.036668,-1.7805838999999999,997.5755,0,0
57.92,-7.01925,5.955637,-1.9273517,997.5681,0,0
57.96,-7.047978,5.4360833,-1.6148857,997.5678,0,0
58.0,-7.4781770000000005,5.283553599999999,-1.2550723999999998,997.5605,0,0
58.04,-7.989665,5.4456185999999995,-1.1509200000000002,997.573,0,0
58.08,-7.425681599999999,5.8460093,-1.4397216999999998,997.5302,0,0
58.12,-7.425681599999999,5.8460093,-1.4397216999999998,997.5479,0,0
58.16,-6.8760533,5.946109,-1.8137443,997.5403,0,0
58.2,-6.842611,5.90321,-1.8800273999999997,997.5604,0,0
58.24,-7.263267,5.6839495000000015,-1.4065899,997.56793,0,0
58.28,-7.1103463000000025,5.617218,-1.1698728,997.5882,0,0
58.32,-7.5310183,5.722084,-1.1462052,997.5629,0,0
58.36,-6.9096766,5.9461125999999975,-1.5107574,997.58057,0,0
58.4,-6.775875599999999,5.893681,-1.4208066000000001,997.5658599999999,0,0
58.44,-6.704211,5.8031178,-1.5439041999999998,997.5632300000001,0,0
58.48,-7.0005755,5.650588,-1.5959842,997.5629,0,0
58.52,-7.177461,5.5647910000000005,-1.1793596000000002,997.5708,0,0
58.56,-7.1010337,5.641057,-1.0325977,997.57074,0,0
58.6,-7.191867,5.674423,-1.1414905,997.55286,0,0
58.64,-6.747378,5.8460199999999976,-1.3734794,997.5883,0,0
58.68,-6.800005400000001,5.7173243,-1.3829527,997.5859,1,3
58.72,-6.919517,5.588628,-1.2219844,997.5732,1,3
58.76,-7.2063380000000015,5.4503984,-0.9757983,997.58344,1,3
58.8,-7.1728960000000015,5.4742312,-0.9994716999999999,997.57074,1,3
58.84,-6.9195990000000025,5.6219954,-1.2598672,997.5909,1,3
58.88,-6.9379625,5.7792735,-1.1745785,997.6084599999999,1,3
58.92,-6.7515507,5.917504,-1.0562186000000002,997.58325,1,3
58.96,-6.751552,5.92227,-1.1319692,997.58344,1,3
59.0,-6.8806085999999995,5.8078730000000025,-1.1035628,997.6187,1,3
59.04,-6.9762070000000005,5.7792735,-1.1177663999999998,997.5986,1,3
59.08,-6.8041344,5.7983400000000005,-1.0846257,997.5987,1,3
59.12,-6.9953284,5.8126397,-1.1367042,997.56335,1,3
59.16,-6.9618706999999995,5.6696434,-1.0656883,997.59106,1,3
59.2,-6.9427524000000025,5.7173085,-1.0088754,997.6137,1,3
59.24,-6.818478999999999,5.7506747,-0.9283906,997.6011,1,3
59.28,-6.899737400000001,5.6553435,-1.2029862,997.60364,1,3
59.32,-7.1196094,5.588611599999999,-1.0798919,997.63666,1,3
59.36,-7.0909314,5.6219773,-1.1082983999999998,997.6315,1,3
59.4,-6.875841,5.588611599999999,-1.0988296999999998,997.63635,1,3
59.44,-7.0479155,5.6648765,-1.0278136999999998,997.6062,1,3
59.48,-7.191310400000001,5.636277,-1.0609546,997.6163,1,3
59.52,-7.1243944,5.7935734000000005,-1.0467516,997.6062,1,3
59.56,-6.961882000000001,5.9890019999999975,-1.202987,997.6391,1,3
59.6,-7.143516,5.946104,-1.1840495,997.6389999999999,1,3
59.64,-7.09572,5.7411413,-1.117768,997.6541,1,3
59.68,-7.2104363,5.6648765,-0.9615328000000002,997.64404,1,3
59.72,-7.4111895999999975,5.5266470000000005,-0.9757360999999999,997.6468,1,3
59.76,-7.239117999999999,5.588612,-1.1035651000000002,997.63916,1,3
59.8,-7.4542103000000015,5.669644,-1.2645351,997.6541,1,3
59.84,-7.4542103000000015,5.669644,-1.2645351,997.66943,1,3
59.88,-7.1775293000000016,5.893685,-1.1888347,997.66943,1,3
59.92,-7.101075,5.931818,-1.2835249,997.6641,1,3
59.96,-7.3544273,5.850787599999999,-1.1036196000000005,997.6719400000001,1,3
60.0,-7.402248399999999,5.7506900000000005,-1.1841066,997.6895,1,3
60.04,-7.321014999999999,5.865088,-1.2787966999999998,997.6795,1,3
60.08,-7.5313490000000005,5.850789,-1.2361891,997.7119,1,3
60.12,-7.215916,6.0605183,-1.3166771000000002,997.6792,1,3
60.16,-7.215916,6.0605183,-1.3166771000000002,997.7095,1,3
60.2,-7.325886,6.0605187,-1.2503986,997.6968400000001,1,3
60.24,-7.4023743,5.960421599999999,-1.0468203,997.7018400000001,1,3
60.28,-7.483675999999999,5.941357,-1.4113735,997.6868,1,3
60.32,-7.6270933,5.998556,-1.2504058999999998,997.7397,1,3
60.36,-7.5410686,6.0462217,-1.3072198999999998,997.72705,1,3
60.4,-7.4598455,6.1081877,-1.3829736000000001,997.72955,1,3
60.44,-7.383392,6.1177209999999995,-1.3072251,997.7674599999999,1,3
60.48,-7.383392,6.1177209999999995,-1.3072251,997.7548,1,3
60.52,-7.2400208,6.117721599999999,-1.2125391,997.722,1,3
60.56,-7.5316224,6.0414577000000005,-1.1699326,997.74225,1,3
60.6,-7.350024,6.1081905,-1.4445313,997.76996,1,3
60.64,-7.4647512,6.098657599999999,-1.5013450000000002,997.7900400000001,1,3
60.68,-7.5842576,6.1081910000000015,-1.406658,997.7725,1,3
60.72,-7.0728526,6.289321,-1.3593171,997.7774699999999,1,3
60.76,-7.230597500000001,6.1987567000000015,-1.2504269,997.7926,1,3
60.8,-7.264079,6.151092,-1.2314913,997.79803,1,3
60.84,-7.383421,6.112955599999999,-1.264618,997.8282,1,3
60.88,-7.34519,6.2035203,-1.3735101,997.7977,1,3
60.92,-7.278288000000001,6.2178206,-1.449262,997.8105,1,3
60.96,-7.2448520000000025,6.222587,-1.2362158,997.8051,1,3
61.0,-7.2591987000000024,6.2511864,-1.0847156999999998,997.8181,1,3
61.04,-7.287892999999999,6.2225876,-1.4161253,997.83795,1,3
61.08,-7.1827526,6.313153,-1.5155493,997.8027,1,3
61.12,-7.13019,6.2893205000000005,-1.5723635,997.8128,1,3
61.16,-7.130213,6.31792,-1.3309109,997.8254,1,3
61.2,-7.130213,6.31792,-1.3309109,997.8229,1,3
61.24,-7.3453193,6.1653910000000005,-1.420866,997.82025,1,3
61.28,-7.2306266,6.0938930000000004,-1.1557415,997.8684,1,3
61.32,-7.431401299999999,6.1987575999999995,-1.2835723999999995,997.8457599999999,1,3
61.36,-7.431401299999999,6.1987575999999995,-1.2835723999999995,997.8354,1,3
61.4,-7.072939,6.418019999999999,-1.335653,997.8757300000001,1,3
61.44,-7.0681663,6.3560553,-1.5155610000000002,997.9010000000001,1,3
61.48,-7.264161,6.160627,-1.3593277,997.8783599999999,1,3
61.52,-7.273736,6.18446,-1.3025163,997.9010000000001,1,3
61.56,-7.2116137,6.2130594000000015,-1.3403928,997.9060699999999,1,3
61.6,-7.1112532999999996,6.232126,-1.2977847,997.8961,1,3
61.64,-7.1925254,6.208294,-1.3167236999999998,997.9062,1,3
61.68,-7.4124117,6.2035279999999995,-1.2362401,997.9035,1,3
61.72,-7.474564,6.2464275,-1.2883200000000001,997.9136,1,3
61.76,-7.0730759999999995,6.2321277,-1.3451343,997.89105,1,3
61.8,-7.249951400000001,6.008100499999999,-1.1983698999999999,997.8986,1,3
61.84,-7.3025365,6.012867,-1.179433,997.9314,1,3
61.88,-7.4842167,6.031934,-1.1462965,997.93646,1,3
61.92,-7.283481599999999,6.2464294,-1.1699699,997.92365,1,3
61.96,-7.2643785,6.3274617,-1.2315187,997.9540400000001,1,3
62.0,-7.2548274999999975,6.408493,-1.3214732,997.9213,1,3
62.04,-7.1162295,6.3894269999999995,-1.2504586000000002,997.9388,1,3
62.08,-7.3839235,6.036703,-1.5629316999999998,997.9591,1,3
62.12,-7.374372,6.0653024,-1.231524,997.92865,1,3
62.16,-7.431746,6.022404,-0.62078726,997.9513,1,3
62.2,-7.4508899999999985,6.127269,-1.1652461,997.9664300000001,1,3
62.24,-7.3314114,6.160635,-1.3735614999999999,997.9363,1,3
62.28,-7.3027406,6.1892347,-1.3782965,997.98425,1,3
62.32,-7.1784820000000025,6.0748377,-1.2552036,997.97675,1,3
62.36,-7.264527,6.051005,-1.1084378000000001,997.9868,1,3
62.4,-7.4079539999999975,6.1415706,-1.2836138000000001,997.99695,1,3
62.44,-7.608722699999999,6.1749363,-1.2741466000000001,997.9968,1,3
62.48,-7.4509974,6.232136,-1.1510527,997.9616,1,3
62.52,-7.068637400000001,6.3274674000000015,-1.3072902,997.9638699999999,1,3
62.56,-6.958710000000001,6.2512026,-1.1557902,997.98145,1,3
62.6,-7.140351,6.1368055,-1.098978,998.0044,1,3
62.64,-7.412824599999999,6.074841,-1.2031372,998.0121,1,3
62.68,-7.312464999999999,6.2512035,-1.2268107,998.0043,1,3
62.72,-7.212114,6.356068,-1.3925172,998.0144,1,3
62.76,-7.1452045,6.3703685,-1.4114555,997.9991,1,3
62.8,-7.255164999999999,6.0653095,-1.3309729,998.0271,1,3
62.84,-7.374328599999999,6.089134,-1.2599266000000002,998.0269,1,3
62.88,-7.355212,6.103434,-1.1794418,998.0196,1,3
62.92,-7.4842676999999975,6.079601,-1.1841763,998.0447,1,3
62.96,-7.4412527000000015,6.1368,-1.283599,998.04205,1,3
63.0,-7.3122,6.255964,-1.373553,998.04224,1,3
63.04,-7.2357270000000025,6.222597599999999,-1.193646,998.0548,1,3
63.08,-7.183151,6.174932,-1.2173181999999998,998.0698,1,3
63.12,-7.393464,5.9699707,-0.9237851999999999,998.0397,1,3
63.16,-7.5703187000000005,5.9223050000000015,-1.0090046,998.05725,1,3
63.2,-7.5177429999999985,6.0033364,-1.302538,998.0698,1,3
63.24,-7.5034075,6.1034346,-1.4824457,998.0874,1,3
63.28,-7.264419599999999,6.1034346,-1.2693976999999999,998.06976,1,3
63.32,-7.1831646,6.132034,-1.3262107,998.0924699999999,1,3
63.36,-7.2835426,6.065302,-1.0894907,998.0849599999999,1,3
63.4,-7.4317202999999985,6.0462365,-1.2836016000000001,998.0975,1,3
63.44,-7.436502000000001,6.1225010000000015,-1.2457265,998.11005,1,3
63.48,-7.374368,6.1892333,-1.491916,998.10004,1,3
63.52,-7.1401600000000025,6.2368984,-1.5061194,998.1025400000001,1,3
63.56,-7.2070785000000015,6.174933,-1.4066969999999999,998.0849599999999,1,3
63.6,-7.230982000000001,6.174933,-1.2646652,998.1177,1,3
63.64,-7.1114880000000005,6.208299,-1.3593534,998.07965,1,3
63.68,-7.3313627000000015,6.1654,-1.397229,998.1227,1,3
63.72,-7.2883453,6.1463337,-1.4445732,998.1327,1,3
63.76,-7.350486,6.184467,-1.4729798,998.1252,1,3
63.8,-7.144956,6.222599,-1.4824488,998.1329,1,3
63.84,-7.207095,6.194,-1.4161674,998.1329,1,3
63.88,-7.2583814,6.2416339999999995,-1.2219385,998.15045,1,3
63.92,-7.267892,6.232099,-1.2976843999999998,998.13776,1,3
63.96,-7.2582580000000005,6.155833,-1.4207721000000002,998.15027,1,3
64.0,-7.3251257,6.1033992999999995,-1.425502,998.1479,1,3
64.04,-7.349,6.0319004000000005,-1.3260771999999998,998.16046,1,3
64.08,-7.568821400000001,6.012832599999999,-1.3213384,998.1528300000001,1,3
64.12,-7.5543833,6.0318966,-1.1082811000000001,998.16046,1,3
64.16,-7.4109645,6.1319940000000015,-1.1082789,998.1729,1,3
64.2,-7.0954479999999975,6.213024,-1.326057,998.16046,1,3
64.24,-7.4347644,6.17489,-1.2550362,998.1806,1,3
64.28,-7.406011,6.0652574999999995,-1.1887478999999999,998.1956,1,3
64.32,-7.520702,6.0223584,-1.2502928999999998,998.1956,1,3
64.36,-7.534967,5.9794574,-1.1982077,998.1755400000001,1,3
64.4,-7.534967,5.9794574,-1.1982077,998.2009,1,3
64.44,-7.3437256999999985,6.108153,-1.349704,998.1856,1,3
64.48,-7.329312,6.079552,-1.3733692,998.1907,1,3
64.52,-7.482191,5.946087,-1.250268,998.21075,1,3
64.56,-7.4678273,6.017583999999999,-1.2029216,998.20825,1,3
64.6,-7.434319,6.0604825,-1.4112308,998.20825,1,3
64.64,-7.4534135,6.074781400000001,-1.5153856,998.2284,1,3
64.68,-7.3673024000000025,6.055713,-1.5295819,998.2208,1,3
64.72,-7.481992999999999,5.9699144,-1.4775013000000001,998.2208,1,3
64.76,-7.324210000000001,6.0843110000000005,-1.1082132,998.2384,1,3
64.8,-7.376713799999999,6.036643499999999,-1.5437716000000001,998.2208,1,3
64.84,-7.3360667,6.0557675,-1.3498780000000001,998.2537,1,3
64.88,-7.4842887000000005,5.9795035999999975,-1.5061178,998.2665,1,3
64.92,-7.479533,6.036703,-1.4871823999999998,998.2888,1,3
64.96,-7.398325,6.093903,-1.3688266000000002,998.2485,1,3
65.0,-7.317116,6.079604,-1.49666,998.2864400000001,1,3
65.04,-7.3554270000000015,5.9938082999999995,-1.4682601999999998,998.2485,1,3
65.08,-7.441487299999999,5.960443,-1.5440128,998.2585,1,3
65.12,-7.441511599999999,6.0176419999999995,-1.4445926000000002,998.2764,1,3
65.16,-7.4033213,6.031943,-1.3925185,998.2814300000001,1,3
65.2,-7.398614,6.09391,-1.4398692,998.2764,1,3
65.24,-7.3365,5.9747467000000025,-1.3357145000000001,998.2963,1,3
65.28,-7.417805,5.9604483,-1.6481895,998.2862,1,3
65.32,-7.6090455000000015,5.8317523,-1.3641298000000002,998.31146,1,3
65.36,-7.4370210000000005,6.0796145999999975,-0.9238344999999999,998.2939,1,3
65.4,-7.394074400000001,6.2464457000000015,-1.3025936000000002,998.31146,1,3
65.44,-7.6044345,6.1272835999999975,-1.5913966,998.31647,1,3
65.48,-7.4945717000000025,6.2369156,-1.4256991,998.3268,1,3
65.52,-7.4277024,6.2559834,-1.4351723,998.3290400000001,1,3
65.56,-7.461185,6.2607503,-1.3404863,998.32916,1,3
65.6,-7.370416599999999,6.236919,-1.1795211,998.3393599999999,1,3
65.64,-7.685932000000001,6.2321534000000005,-1.4209801000000002,998.3316,1,3
65.68,-7.4661098,6.3513184,-1.4541254,998.34924,1,3
65.72,-7.6239157,6.3227205,-1.3973191,998.3416,1,3
65.76,-7.6239157,6.3227205,-1.3973191,998.3618,1,3
65.8,-7.432795,6.370388,-1.2694968,998.3291,1,3
65.84,-7.466278,6.3751554000000015,-1.4020622999999999,998.3668,1,3
65.88,-7.699323700000001,6.3846602,-1.4114243999999998,998.3542,1,3
65.92,-7.508131,6.4609246,-1.392487,998.3743,1,3
65.96,-7.5415899999999985,6.4180255,-1.368815,998.3721,1,3
66.0,-7.641965400000001,6.3846602,-1.3451428,998.3668,1,3
66.04,-7.8140383,6.375127,-1.4066901000000005,998.36426,1,3
66.08,-7.661085000000001,6.4656915999999995,-1.4777062,998.3743,1,3
66.12,-7.9096350000000015,6.456158,-1.487175,998.37445,1,3
66.16,-7.7184424,6.546723,-1.4492996999999999,998.382,1,3
66.2,-7.728002,6.499057,-1.3972212,998.4021,1,3
66.24,-7.756680999999999,6.4370923,-1.4303620000000001,998.4046,1,3
66.28,-7.8713960000000025,6.456158,-1.4303620000000001,998.42224,1,3
66.32,-7.8713960000000025,6.456158,-1.4303620000000001,998.3946,1,3
66.36,-7.890515299999999,6.4895244000000005,-1.4729718,998.42975,1,3
66.4,-7.8809559999999985,6.561022299999999,-1.4540341,998.4298,1,3
66.44,-7.837938,6.4609246,-1.5155815000000001,998.4272,1,3
66.48,-7.8522773,6.456158,-1.3877525,998.3996,1,3
66.52,-7.632406,6.4656915999999995,-1.4966438999999998,998.4223,1,3
66.56,-7.842716999999999,6.3941927000000005,-1.4492996999999999,998.42474,1,3
66.6,-7.8666167,6.4323254,-1.4587686000000002,998.42224,1,3
66.64,-7.957433,6.4942910000000005,-1.4729718,998.4273,1,3
66.68,-7.7614613,6.5705557,-1.4777062,998.4423,1,3
66.72,-7.684984,6.5705557,-1.3214709999999998,998.4473,1,3
66.76,-7.9000745,6.3465276,-1.5155815000000001,998.4172,1,3
66.8,-7.914414999999999,6.375127,-1.3120020000000001,998.4373,1,3
66.84,-7.885449,6.3608203,-1.5392271999999998,998.4524,1,3
66.88,-7.9428015,6.313154,-1.6386492,998.4298,1,3
66.92,-7.976248299999999,6.451384,-1.4256,998.42725,1,3
66.96,-7.6703296000000005,6.3989519999999995,-1.5108182,998.4298,1,3
67.0,-7.775474000000001,6.418017400000001,-1.4824107,998.4349,1,3
67.04,-7.6798720000000005,6.379885,-1.3924566999999999,998.44995,1,3
67.08,-7.675081,6.260721,-1.5250188,998.4498,1,3
67.12,-7.636825599999999,6.1892223,-1.2456871999999999,998.4449,1,3
67.16,-7.550783,6.232121,-1.3829846000000001,998.45245,1,3
67.2,-7.569891,6.1749220000000005,-1.4113898,998.45245,1,3
67.24,-7.746727000000001,6.1224894999999995,-1.5155454,998.4298,1,3
67.28,-7.7467213,6.112956,-1.4492631,998.4599599999999,1,3
67.32,-7.526833,6.2130537000000015,-1.4161206,998.44995,1,3
67.36,-7.2017945999999995,6.236886,-1.3214315,998.4549,1,3
67.4,-7.4598923,6.084356,-1.3119617000000001,998.4524,1,3
67.44,-7.5889416,6.0223910000000025,-1.3545709,998.4876,1,3
67.48,-7.522007,6.1510873,-1.4681950000000001,998.44995,1,3
67.52,-7.5602399999999985,6.165387,-1.4445225,998.5002,1,3
67.56,-7.507650999999999,6.2178187000000005,-1.392443,998.44995,1,3
67.6,-7.4311624000000025,6.2178187000000005,-1.4445204,998.4902,1,3
67.64,-7.230399,6.275017,-1.4445193,998.4549,1,3
67.68,-7.254287,6.208285,-1.4208462,998.46,1,3
67.72,-7.636659599999999,6.0462217,-1.4019076000000001,998.4649699999999,1,3
67.76,-7.6079755,6.050987999999999,-1.2598749,998.43207,1,3
67.8,-7.3450747000000005,6.2225833,-1.4681876,998.4901,0,0
67.84,-7.192104,6.2940817000000004,-1.4823892,998.4726,0,0
67.88,-7.264209299999999,6.1939936,-1.5155677,998.4878,0,0
67.92,-7.2881136,6.1367949999999984,-1.3309262,998.4876,0,0
67.96,-7.436292599999999,6.0176315,-1.368802,998.45245,0,0
68.0,-7.43152,6.155862,-1.5108347,998.4903,0,0
68.04,-7.359825999999999,6.25596,-1.558179,998.4622,0,0
68.08,-7.245118,6.322692,-1.5439764,998.4827,0,0
68.12,-7.139964999999999,6.3369913,-1.4871638999999999,998.4673,0,0
68.16,-7.1973275999999995,6.1939945,-1.401945,998.4675,0,0
68.2,-7.426763,6.0462317,-1.5487121000000001,998.4649699999999,0,0
68.24,-7.4267707,6.0128660000000025,-1.4634935,998.4624,0,0
68.28,-7.4267707,6.0128660000000025,-1.4634935,998.4700300000001,0,0
68.32,-7.3264027,6.1463294,-1.4208844999999999,998.4597,0,0
68.36,-7.1304336,6.289326,-1.4540256,998.4648,0,0
68.4,-7.2738323000000005,6.179696,-1.4682293,998.4799,0,0
68.44,-7.445910499999999,6.1177306,-1.3498696000000001,998.4699,0,0
68.48,-7.254726,6.093898,-1.3451358999999998,998.44464,0,0
68.52,-7.412464599999999,6.1177306,-1.4350902,998.4547,0,0
68.56,-7.484164,6.1034317000000025,-1.4398246000000001,998.4774,0,0
68.6,-7.2738580000000015,6.155864,-1.5345132,998.5126300000001,0,0
68.64,-7.321661,6.122497599999999,-1.4256223,998.48,0,0
68.68,-7.441163499999999,6.0367,-1.1936373,998.46246,0,0
68.72,-7.3646894,6.1415644,-1.2551848,998.4723,0,0
68.76,-7.340795,6.246429,-1.4256238,998.4975,0,0
68.8,-7.125711999999999,6.351293599999999,-1.4066869,998.4748,0,0
68.84,-7.2109647,6.213043700000001,-1.5912568999999999,998.46246,0,0
68.88,-7.3543460000000005,6.093879,-1.5107708,998.4826,0,0
68.92,-7.4021306,6.0462136,-1.3166591,998.4901,0,0
68.96,-7.3829850000000015,6.108178,-1.2030308,998.495,0,0
69.0,-7.2538899999999975,6.294073,-1.5297011,998.49,0,0
69.04,-7.2586565,6.2893057,-1.6385913,998.4721699999999,0,0
69.08,-7.1056630000000025,6.255939,-1.4918209999999998,998.4952,0,0
69.12,-7.201232400000001,6.0986423,-1.3876617,998.4799,0,0
69.16,-7.263342999999999,6.146307,-1.1698766999999999,998.4269400000001,0,0
69.2,-7.3254538,6.14154,-1.354516,998.4596,0,0
69.24,-7.2728496,6.1653724,-1.7522035,998.4851,0,0
69.28,-7.3684187,6.1367726,-1.4681368000000001,998.4775400000001,0,0
69.32,-7.196319,6.1749034000000025,-1.4776033000000002,998.4873699999999,0,0
69.36,-7.2536507,6.1081715,-1.4539288000000001,998.4748,0,0
69.4,-7.3014216,6.2178016,-1.4491919,998.48236,0,0
69.44,-7.1818867,6.2178005999999995,-1.5296731000000001,998.4773,0,0
69.48,-7.315707700000001,6.170135,-1.6101569,998.4747,0,0
69.52,-7.43041,6.0938690000000015,-1.6006868,998.5024,0,0
69.56,-7.3825854999999985,6.1129355000000025,-1.4018393,998.4898,0,0
69.6,-7.062311599999999,6.1558332,-1.3308209,998.47974,0,0
69.64,-7.6023893,6.1176996,-1.4633805,998.48724,0,0
69.68,-7.463761999999999,6.2225637,-1.4775826,998.46246,0,0
69.72,-7.004874000000001,6.341727,-1.4917833,998.4671599999999,0,0
69.76,-7.167361,6.246395,-1.6243441,998.4772,0,0
69.8,-7.243798,6.236861,-1.302401,998.4975,0,0
69.84,-7.062152,6.294059799999999,-1.3118687,998.4747,0,0
69.88,-7.206352000000001,6.279779,-1.4492401000000001,998.4948,0,0
69.92,-7.2302575,6.2750134000000015,-1.3261461,998.4599599999999,0,0
69.96,-6.9960537,6.3036127,-1.2551306,998.4647,0,0
70.0,-7.249389,6.208282,-1.6291493000000001,998.4723,0,0
70.04,-7.3545547000000004,6.079585,-1.430305,998.4975,0,0
70.08,-7.3067603000000005,6.1081843000000005,-1.4018989,998.4822,0,0
70.12,-7.1490364,6.1892166,-1.0988978999999999,998.5099,0,0
70.16,-7.1490364,6.1892166,-1.0988978999999999,998.4772,0,0
70.2,-7.622242999999999,6.1558504,-1.0231481,998.51276,0,0
70.24,-6.953079700000001,6.3465133,-1.5581367,998.4923,0,0
70.28,-7.2350910000000015,6.2702484000000025,-1.3640263000000001,998.4722,0,0
70.32,-7.378492,6.360812999999999,-1.1793851999999998,998.4851,0,0
70.36,-7.053471000000001,6.4037120000000005,-1.4776533,998.4851,0,0
70.4,-7.082160000000001,6.2893147,-1.0373545,998.4851,0,0
70.44,-7.4932294000000015,6.179684,-0.99474543,998.4496,0,0
70.48,-7.431097999999999,6.022387999999999,-1.2125286,998.4975,0,0
70.52,-7.4884660000000025,6.0462213,-0.8290427,998.4725300000001,0,0
70.56,-7.3259583,6.012855,-1.3214214,998.47,0,0
70.6,-7.2638240000000005,5.9937897000000016,-0.9900131999999999,998.4748,0,0
70.64,-7.4120045,6.112953,-0.9947483,998.4724,0,0
70.68,-7.2733965,6.217818,-1.1036402,998.4851,0,0
70.72,-7.3116410000000025,6.2225842,-1.0373591,998.4646,0,0
70.76,-7.1825895000000015,6.2750163,-1.0894378,998.5026,0,0
70.8,-7.4407053,6.1463194,-1.1935953000000001,998.4774,0,0
70.84,-7.3307759999999975,6.1463194,-1.2456743000000001,998.4775400000001,0,0
70.88,-7.4460216,6.103434,-1.2788636999999998,998.43695,0,0
70.92,-7.2118244,6.232131,-1.2504586000000002,998.4725300000001,0,0
70.96,-7.1353880000000025,6.2511980000000005,-1.1983837,998.4901,0,0
71.0,-7.092383,6.289331,-1.2788697,998.4647,0,0
71.04,-7.3314133,6.136801999999999,-1.1936541999999999,998.4471,0,0
71.08,-7.288408299999999,6.1415690000000005,-1.2978121999999999,998.4826,0,0
71.12,-7.503526,6.0653048,-1.1463139,998.4723,0,0
71.16,-7.298020399999999,6.1844697,-1.1652539,998.43445,0,0
71.2,-7.2789288,6.0414734,-0.99955195,998.5126300000001,0,0
71.24,-7.379331,6.146338,-1.4682606000000002,998.53546,0,0
71.28,-7.2503023,6.203538,-1.1463237,998.4622,0,0
71.32,-7.6040344,6.051008,-1.0895131,998.4169300000001,0,0
71.36,-7.527584599999999,6.0414762,-1.4445959,998.4646,0,0
71.4,-7.1977910000000005,6.141573999999999,-1.2126113,998.4747,0,0
71.44,-7.0878825,6.208307,-1.1510664,998.47504,0,0
71.48,-7.532444,6.046245,-1.1700077,998.4445,0,0
71.52,-7.436861500000001,6.1082095999999995,-1.1416026000000001,998.4473,0,0
71.56,-7.389089999999999,6.15111,-1.1794802,998.4673,0,0
71.6,-7.4034559999999985,6.146343700000001,-1.3073115,998.4671599999999,0,0
71.64,-7.240983,6.179711,-1.3783313,998.4748,0,0
71.68,-7.4465410000000025,5.998582,-1.2363017,998.4901,0,0
71.72,-7.4513474,5.9699836,-1.1984290000000002,998.4649,0,0
71.76,-7.3175526,6.1558805,-1.2221045,998.4674699999999,0,0
71.8,-7.30324,6.0986824,-1.4493583,998.4597,0,0
71.84,-7.507336599999999,6.0033154,-1.2456475,998.4875,0,0
71.88,-7.4260645000000025,6.0128484,-1.1840988000000001,998.4699,0,0
71.92,-7.311317,6.084347,-1.2361743,998.4547,0,0
71.96,-7.445104,6.036679299999999,-1.3829367000000001,998.4774,0,0
72.0,-7.4641914000000025,5.9032154000000014,-1.349793,998.4876,0,0
72.04,-7.411598,5.931814,-1.2645721,998.4648,0,0
72.08,-7.430700999999999,5.9318137,-1.2551018999999999,998.4852,0,0
72.12,-7.3637365999999975,6.065276,-1.0609868999999998,998.4725300000001,0,0
72.16,-7.4593005,6.0986414,-1.3213763,998.4700300000001,0,0
72.2,-7.497523299999999,6.0605082999999995,-1.1982803,998.4723,0,0
72.24,-7.459237599999999,5.974709,-1.1935415,998.4726,0,0
72.28,-7.659973,5.8603115,-1.3592443,998.4852,0,0
72.32,-7.3874770000000005,5.8269444,-1.4255216,998.46,0,0
72.36,-7.5834174,5.9985394,-1.5060036,998.4725,0,0
72.4,-7.325276,6.208267,-1.4917973999999998,998.4625,0,0
72.44,-7.1866460000000005,6.2654653,-1.3592327,998.44995,0,0
72.48,-7.1101375,6.3750954,-1.2124631000000001,998.47,0,0
72.52,-7.5307125999999975,6.112934,-1.1130363,998.4524,0,0
72.56,-7.554596000000001,5.993769599999999,-1.2455982,998.46246,0,0
72.6,-7.683619,5.679176,-1.4349717,998.4423,0,0
72.64,-8.022952,5.574311,-1.5059848,998.4803,0,0
72.68,-7.57362,5.7173066,-1.4870442,998.4778,0,0
72.72,-7.788695,5.8126373,-1.4254955,998.4501300000001,0,0
72.76,-7.6548285000000025,5.9699335,-1.5485871,998.4677,0,0
72.8,-7.387128,6.0461974000000005,-1.5864593999999999,998.44006,0,0
72.84,-7.4253345,5.8412347,-1.6385349999999999,998.4830300000001,0,0
72.88,-7.450278,5.8698597,-1.1083771999999998,998.47284,0,0
72.92,-7.4072710000000015,5.793595,-1.0042213,998.4325,0,0
72.96,-7.5745754000000005,5.8269614999999995,-1.3356308000000001,998.4706,0,0
73.0,-7.655849000000001,6.0891223,-1.7617289,998.4602,0,0
73.04,-7.435995599999999,5.931826,-1.5060725000000001,998.46277,0,0
73.08,-7.4694600000000015,6.0033245000000015,-1.3971816000000001,998.4653300000001,0,0
73.12,-7.230481,5.9413599999999995,-1.2598851,998.4579,0,0
73.16,-7.3977857,5.7935967,-1.1509948,998.4604,0,0
73.2,-7.9188012999999975,5.54097,-1.24095,998.4403,0,0
73.24,-7.7132809999999985,5.6791997000000025,-1.5155466,998.41,0,0
73.28,-7.5698985999999975,5.6935,-1.3829843000000002,998.4653300000001,0,0
73.32,-7.5698985999999975,5.6935,-1.3829843000000002,998.4428,0,0
73.36,-7.6607265,5.974727,-1.4824077,998.4328,0,0
73.4,-7.397848599999999,6.098658,-1.4918776000000002,998.4301,0,0
73.44,-7.2688107,5.9032297,-1.3735191,998.4706,0,0
73.48,-7.503027,5.7697663,-1.33091,998.4606,0,0
73.52,-7.7420287,5.6935015,-1.1510037,998.4580000000001,0,0
73.56,-7.6846824000000025,5.7697663,-1.1652076999999998,998.4684,0,0
73.6,-7.2401724000000005,5.884164299999999,-1.2078186000000002,998.43567,0,0
73.64,-7.417036,5.850798999999999,-1.3403829,998.43036,0,0
73.68,-7.5413227,5.7364016,-1.6765267,998.4633,0,0
73.72,-7.8090034,5.812667,-1.316713,998.44574,0,0
73.76,-7.5843690000000015,6.022396,-1.3309178,998.44574,0,0
73.8,-7.5556965,6.0366955,-1.3403871,998.4609,0,0
73.84,-7.4413133,6.065303,-1.3972303999999998,998.4559300000001,0,0
73.88,-7.4413133,6.065303,-1.3972303999999998,998.4534,0,0
73.92,-7.627749400000001,5.869875,-1.5676713,998.4609,0,0
73.96,-7.508278999999999,5.7936106,-1.269406,998.4332,0,0
74.0,-7.6517089999999985,5.636315,-0.9900791999999999,998.4231599999999,0,0
74.04,-7.6565002999999985,5.683981,-1.0374244000000001,998.4484,0,0
74.08,-7.3840759999999985,5.9127754999999995,-1.2504747999999999,998.4282,0,0
74.12,-7.417559,6.0557733,-1.4871973,998.45844,0,0
74.16,-7.4080353,6.0462418,-1.6481703999999997,998.4231599999999,0,0
74.2,-7.623162700000001,5.865113,-1.4682662,998.43835,0,0
74.24,-7.589716,5.831747,-1.28836,998.4635,0,0
74.28,-7.5084839999999975,5.7602496,-1.2599558000000002,998.4408599999999,0,0
74.32,-7.6184425000000005,5.6887517,-1.3025677,998.4714,0,0
74.36,-7.479853,5.850816,-1.4303988,998.4458,0,0
74.4,-7.489437,5.9699800000000005,-1.3783225000000001,998.4536,0,0
74.44,-7.2839413,6.1129775,-1.8280944,998.4562400000001,0,0
74.48,-7.632891000000001,6.003347,-1.5156258,998.4511,0,0
74.52,-7.604224,5.9318495,-1.4635483,998.44104,0,0
74.56,-7.4799732999999975,5.9032507,-1.0942671,998.43353,0,0
74.6,-7.35571,5.9366164,-1.0421897,998.4085,0,0
74.64,-7.3127165,5.841286,-1.0611296000000001,998.43115,0,0
74.68,-7.599528999999999,5.8222203000000015,-1.4588218000000002,998.4388,0,0
74.72,-7.6234517,5.8937197,-1.5724497,998.4589,0,0
74.76,-7.51832,6.0605497,-1.6529367,998.4664300000001,0,0
74.8,-7.3845100000000015,6.070083,-1.5629852,998.4614,0,0
74.84,-7.3462954,5.979519,-1.5345811000000005,998.4513,0,0
74.88,-7.5428357,5.865136,-1.3263193000000002,998.4465,0,0
74.92,-7.6384773,5.741206,-1.170088,998.4438,0,0
74.96,-7.4043354999999975,5.8842050000000015,-1.5393778999999999,998.43646,0,0
75.0,-7.3517804,5.96047,-1.5535831,998.43896,0,0
75.04,-7.466542,5.9271054,-1.4446961999999999,998.44635,0,0
75.08,-7.6052012000000015,5.831775,-1.581998,998.4490400000001,0,0
75.12,-7.6100273000000005,5.946174,-1.4967829,998.4667400000001,0,0
75.16,-7.2659270000000005,5.979541,-1.4447086999999998,998.4441,0,0
75.2,-7.547981,5.941409999999999,-1.2316646999999998,998.4617,0,0
75.24,-7.495448599999999,5.8031807,-1.2837471999999999,998.43396,0,0
75.28,-7.610187,5.7459826,-1.4068439,998.434,0,0
75.32,-7.691511999999999,5.6887856,-1.392647,998.4540400000001,0,0
75.36,-7.7441130000000005,5.812717,-1.5867596000000002,998.4643599999999,0,0
75.4,-7.313998700000001,5.9795475,-1.553625,998.4568,0,0
75.44,-7.3379436,5.9986153,-1.5062853,998.45416,0,0
75.48,-7.6247773,5.8031874000000006,-1.525227,998.44434,0,0
75.52,-7.3762735999999975,5.827021599999999,-1.6199192,998.4442,0,0
75.56,-7.768262400000001,5.8460884,-1.4731568000000002,998.4669,0,0
75.6,-7.218653999999999,5.960487400000001,-1.3642718999999999,998.4519,0,0
75.64,-7.347731599999999,5.955722,-1.4352901000000002,998.4317599999999,0,0
75.68,-7.5341897,5.8079595999999984,-1.5678575000000001,998.4445,0,0
75.72,-7.7349869999999985,5.7555285000000005,-1.5583930000000001,998.4418,0,0
75.76,-7.4530244,5.807962,-1.5063186000000002,998.4544,0,0
75.8,-7.4243679999999985,5.803196,-1.5205239,998.467,0,0
75.84,-7.553468,5.8270297,-1.5110593,998.4646,0,0
75.88,-7.581109,5.8270044,-1.2931816999999999,998.4798,0,0
75.92,-7.509414,5.8508368,-1.2411033999999999,998.4745,0,0
75.96,-7.662371,5.846071,-1.3405261,998.4647,0,0
76.0,-7.3947053,6.008134,-1.5535746000000001,998.4521,0,0
76.04,-7.2704315,6.0510325,-1.3263234,998.4672,0,0
76.08,-7.5142045,5.9461684,-1.3831366000000005,998.45215,0,0
76.12,-7.6002436,5.755506,-1.5204345,998.4496,0,0
76.16,-7.5381083,5.6935410000000015,-1.477825,998.45984,0,0
76.2,-7.4281770000000025,5.9700017,-1.5157007,998.4673,0,0
76.24,-7.280004499999999,6.0415,-1.8187026999999998,998.4648,0,0
76.28,-7.504657300000001,5.90327,-1.6861395000000001,998.4496,0,0
76.32,-7.724531699999999,5.822238,-1.1653553,998.4624,0,0
76.36,-7.724531699999999,5.822238,-1.1653553,998.4675,0,0
76.4,-7.552461599999999,5.9271025999999996,-1.6814055,998.4622,0,0
76.44,-7.036247,6.003367400000001,-1.61039,998.4547,0,0
76.48,-7.127064,5.9223360000000005,-1.3689353000000002,998.4596,0,0
76.52,-7.643285799999999,5.617277,-1.1795594999999999,998.442,0,0
76.56,-7.566811,5.660176,-1.591453,998.4449,0,0
76.6,-7.4282007,5.941403,-1.8423767,998.4474,0,0
76.64,-7.528578299999999,6.017667299999999,-1.752423,998.4625,0,0
76.68,-7.193996,6.0558,-1.4683591999999999,998.4547,0,0
76.72,-7.495125999999999,5.9509360000000004,-1.2127016000000002,998.45245,0,0
76.76,-7.528587,5.8699045,-1.378406,998.4245599999999,0,0
76.8,-7.5285907000000005,5.6649427,-1.795034,998.44995,0,0
76.84,-7.585601299999999,5.5982018,-1.5488132,998.4472,0,0
76.88,-7.7720084,5.617268599999999,-1.4257182,998.4599599999999,0,0
76.92,-7.6572809999999984,5.779331,-1.3073569999999999,998.4700300000001,0,0
76.96,-7.4135003,6.0271916,-1.3215591999999998,998.4625,0,0
77.0,-7.284434299999999,6.08439,-1.6103569,998.4349,0,0
77.04,-7.5616455,5.8412957,-1.5393392,998.4653,0,0
77.08,-7.5712,5.7650304000000006,-1.5535419,998.4652,0,0
77.12,-7.700242999999999,5.6411,-1.3499614,998.45514,0,0
77.16,-7.685898,5.655399299999999,-1.3594296000000001,998.4652,0,0
77.2,-7.475575,5.817462,-1.4825232,998.44006,0,0
77.24,-7.4755635,5.9223256,-1.4730533000000001,998.45514,0,0
77.28,-7.513785,6.0224230000000025,-1.5251302,998.44006,0,0
77.32,-7.442082400000001,5.9938235,-1.458848,998.4577,0,0
77.36,-7.432505,5.8031607,-1.5772066,998.44745,0,0
77.4,-7.657144500000001,5.8031607,-1.2931412,998.4501300000001,0,0
77.44,-7.5711026,5.7602614999999995,-1.2694687,998.4652,0,0
77.48,-7.5567517,5.774561,-1.5109222,998.4677,0,0
77.52,-7.556734599999999,5.855592,-1.2505285,998.4602,0,0
77.56,-7.422894,5.8984904,-1.4304353,998.44006,0,0
77.6,-7.3846393,5.8603578,-1.5203874,998.44244,0,0
77.64,-7.5471463000000005,5.755493,-1.4351677,998.46783,0,0
77.68,-7.714434,5.6267962,-1.5440583,998.4452,0,0
77.72,-7.8004475000000015,5.6315620000000015,-1.4256963,998.4275,0,0
77.76,-7.8004475000000015,5.6315620000000015,-1.4256963,998.4476300000001,0,0
77.8,-7.652261999999999,5.860356299999999,-1.2741942,998.4677,0,0
77.84,-7.308105,6.0462523,-1.1037545,998.44775,0,0
77.88,-7.510452000000001,6.0081587,-1.5299971,998.4604,0,0
77.92,-7.673017,5.698334,-1.3785008,998.4426,0,0
77.96,-7.673042999999999,5.641136,-1.4163785,998.4604,0,0
78.0,-7.673121000000001,5.750768700000001,-1.4211200000000002,998.45526,0,0
78.04,-7.453303,5.8365684,-1.4258591999999999,998.45557,0,0
78.08,-7.405556,5.817503,-1.5110832,998.47064,0,0
78.12,-7.7019825,5.74124,-1.0944629,998.4428,0,0
78.16,-7.4916973,5.931903,-1.080262,998.4527,0,0
78.2,-7.482189,5.993869999999999,-1.3785341999999998,998.4656,0,0
78.24,-7.4583683,5.950972,-1.6720743999999998,998.46295,0,0
78.28,-7.4583683,5.950972,-1.6720743999999998,998.4529,0,0
78.32,-7.807372,5.6077824,-1.3974861,998.4452,0,0
78.36,-7.9173339999999985,5.607783,-1.4211605,998.4404,0,0
78.4,-7.6449365999999985,5.650683,-1.2459923000000002,998.4455,0,0
78.44,-7.5302997000000005,5.8318143,-1.1986553999999998,998.42786,0,0
78.48,-7.391736999999999,5.874714,-1.3454267,998.4329,0,0
78.52,-7.6976960000000005,5.8032174,-1.3833066,998.4454,0,0
78.56,-7.5591345,5.7174206,-1.6247661,998.4580699999999,0,0
78.6,-7.8316083,5.679288400000001,-1.4590642,998.42786,0,0
78.64,-7.377606,5.7364893,-1.4306649999999999,998.46277,0,0
78.68,-7.4780073000000025,5.7984557,-1.3833233999999999,998.4830300000001,0,0
78.72,-7.7218294000000025,5.7841569999999995,-1.3217808000000002,998.4529,0,0
78.76,-7.664524,5.922388,-1.1229407,998.44794,0,0
78.8,-7.5164279999999986,5.8747244000000025,-1.430684,998.46545,0,0
78.84,-7.5164279999999986,5.8747244000000025,-1.430684,998.47046,0,0
