Timestamp,Ax,Ay,Az,P,Value,Type
0.0,2.7284026000000003,9.482849,4.81459,1002.9641,0,0
0.04,2.8235812,9.644922,4.876099,1002.9893,0,0
0.08,2.5367439,9.544826,4.5257483,1002.9643,0,0
0.12,1.9344388,9.67829,5.264311,1002.98175,0,0
0.16,2.770855,9.859421,5.6146525999999986,1002.9843,0,0
0.2,2.5748365,9.873721000000002,6.40056,1003.00464,0,0
0.24,2.5078728,9.926154,5.543628,1002.9719,0,0
0.28,1.5614223,8.949012,3.2663748,1002.952,0,0
0.32,1.1981077,9.592499,4.004937600000001,1002.9696,0,0
0.36,2.746715,10.974801,3.9197137,1002.9773,0,0
0.4,4.433939,12.075876,4.781371,1002.99475,0,0
0.44,4.505586599999999,11.39426,4.113816,1002.96967,0,0
0.48,1.6041963,7.719246000000001,2.7124271,1002.95715,0,0
0.52,-2.8649726,4.048999299999998,0.26000062,1002.9144,0,0
0.56,-5.9527755,1.8087186,1.2116114,1002.95483,0,0
0.6,-8.529133,0.4502508,-0.18030751,1002.95734,0,0
0.64,-11.956299,-0.074069366,0.30733192,1002.9396,0,0
0.68,-10.426811,1.1890696000000005,-0.21819149,1002.9172,0,0
0.72,-8.878203,2.2091138,-0.2418681,1002.91956,0,0
0.76,-8.730075999999999,3.0432625,0.45408517,1002.95984,0,0
0.8,-8.9308815,3.2100933,-0.8857562,1002.9675,0,0
0.84,-9.222495,3.334025,-0.92837006,1002.9426,0,0
0.88,-9.007453,3.7058175,-0.7863425,1002.9776,0,0
0.92,-8.888011,3.8678818,-1.7758379000000002,1002.97015,0,0
0.96,-8.371835,4.0776114,-1.4823087,1002.9349,0,0
1.0,-9.762808,3.1814997000000003,-0.63958925,1002.9803,0,0
1.04,-8.649326,3.5723624,-1.0088923,1002.96783,0,0
1.08,-9.179933,3.6438625,-0.298736,1002.93506,0,0
1.12,-8.854965,3.6247976,-0.47391438,1002.96014,0,0
1.16,-9.055774,4.0871544,0.1510219,1002.95013,0,0
1.2,-8.745142,4.4160485000000005,-0.58281595,1002.92,0,0
1.24,-8.530104,4.1300564,-0.28928763,1002.9502,0,0
1.28,-9.113292,3.4484403,-0.24668281,1002.9682,0,0
1.32,-8.697508000000001,3.9679961,-0.5544245,1002.92737,0,0
1.36,-8.912655,3.953698,-0.7201338,1002.93744,0,0
1.4,-8.92705,4.0871625,-1.0420784,1002.9833,0,0
1.44,-9.352505,3.7916377,-0.3982042,1003.00336,0,0
1.48,-8.721623,3.9441688,-1.0089473,1002.9607,0,0
1.52,-8.807715,4.020435,-0.6870128000000001,1002.94525,0,0
1.56,-8.683499000000001,3.9823039,-0.36981305,1002.9631,0,0
1.6,-8.449342,3.7678103,-0.8811336,1002.94543,0,0
1.64,-9.343217999999998,3.4293861000000003,-0.45030758,1002.968,0,0
1.68,-9.534466,3.5342517,-0.0005441980000000001,1002.9833,0,0
1.72,-8.549882,4.0252085,-0.81486684,1002.98846,0,0
1.76,-8.712451,3.653418,-0.6586366,1002.9655,0,0
1.8,-9.190487,3.3817258000000003,-0.14259164,1002.9352,0,0
1.84,-9.429529,3.3340619,-0.6018336999999999,1002.953,0,0
1.88,-9.166697,3.5676246,-0.92377836,1002.9554,0,0
1.92,-9.0759325,3.434162,-0.56396836,1002.94525,0,0
1.96,-8.703163,3.6677246,-1.0894924,1002.9278,0,0
2.0,-8.980452,3.6200607,-0.84804326,1002.94543,0,0
2.04,-8.892672,3.7153487,-0.75793004,1002.9859,0,0
2.08,-8.954794999999997,3.5771182,-0.8904921,1002.9455,0,0
2.12,-8.849624,3.6867492,-1.0135852,1002.9605,0,0
2.16,-8.849608,3.863111,-1.1840223,1002.9507,0,0
2.2,-8.672741,3.9250758,-1.0230513,1002.948,0,0
2.24,-9.122027,3.8440442,-0.8668144,1002.9579,0,0
2.28,-8.792207000000001,3.743946,-1.2881751,1002.95294,0,0
2.32,-8.897347,3.6819804,-0.94729656,1002.9733,0,0
2.36,-8.6822405,3.786844,-0.90468556,1002.95294,0,0
2.4,-8.954674,3.7153456,-0.6111511,1002.9709,0,0
2.44,-8.964221,3.8345094,-0.7389788,1002.9731,0,0
2.48,-9.031121,3.8154428,-0.8478687,1002.96545,0,0
2.52,-8.878153,3.9822714,-0.80999196,1002.963,0,0
2.56,-8.811221000000002,3.8488076,-0.79105306,1002.95325,0,0
2.6,-9.160132,3.8297412,-0.54012823,1002.9758,0,0
2.64,-9.0932,3.844040600000002,-0.7626439,1002.9756,0,0
2.68,-8.997588,3.9536707,-0.966222,1002.9354,0,0
2.72,-9.011913,3.9203048,-0.99462694,1002.9507,0,0
2.76,-9.336924,3.6486106,-0.014603738,1002.9481,0,0
2.8,-8.533902000000001,3.739175,-1.3118294,1002.9175,0,0
2.84,-8.624703,3.820206,-1.2786871000000002,1002.9655,0,0
2.88,-8.921037,4.1204987,-1.1839976,1002.9354,0,0
2.92,-9.073975,4.3492928,-1.3354973,1002.9656,0,0
2.96,-9.432446,4.0013337,-1.3828399,1002.9532,0,0
3.0,-9.365513,3.2911165,-0.92360127,1002.97064,0,0
3.04,-8.525501,3.1195507,-1.0420743,1002.96295,0,0
3.08,-8.420380999999999,3.0528197,-1.3734859,1002.9481,0,0
3.12,-8.793239,3.3531137,-1.444505,1002.92505,0,0
3.16,-8.463467,3.8202372,-1.8564013,1002.9481,0,0
3.2,-8.860225,3.8345377,-1.5960121,1002.9555,0,0
3.24,-9.199623,3.61051,-1.0042146,1002.9831,0,0
3.28,-8.951108,3.7868736,-0.7343565,1002.9678,0,0
3.32,-8.5830965,3.7964077000000014,-1.1699251,1002.93036,0,0
3.36,-8.826897,3.5485475,-1.5392114,1002.9329,0,0
3.4,-9.38139,3.4150846,-1.2409471,1002.9682,0,0
3.44,-9.037276,3.743978,-1.0941836,1002.9479,0,0
3.48,-8.846121,4.049039,-1.2125471,1002.96545,0,0
3.52,-8.458988,4.0252066,-1.3309102,1002.938,0,0
3.56,-8.306069,4.0776396,-1.3640541000000002,1002.9481,0,0
3.6,-8.525974,4.0109086000000005,-1.8611697,1002.9681,0,0
3.64,-8.999208,3.69155,-1.7522813999999998,1002.9705,0,0
3.68,-9.133077,3.3197596,-2.017411,1002.94037,0,0
3.72,-9.047073,3.3674257000000005,-1.6291931,1002.96277,0,0
3.76,-8.827237,3.505657,-1.3261943,1002.97034,0,0
3.8,-8.650419,3.7487524,-1.3972135,1003.0032,0,0
3.84,-8.67435,3.8965163,-1.7286248,1002.9605,0,0
3.88,-8.569228,3.9966147,-1.7996441000000003,1002.963,0,0
3.92,-8.712657,3.872685,-1.6292086,1002.96796,0,0
3.96,-8.942121499999997,3.7535222,-1.3072721,1002.9631,0,0
4.0,-9.037747,3.6724913,-1.3688221,1002.9178,0,0
4.04,-8.683534,3.8631408,-1.2835563,1002.9657,0,0
4.08,-8.56883,3.944173,-1.4492615,1002.96045,0,0
4.12,-8.855632,3.858375,-1.567623,1002.9429,0,0
4.16,-8.740929,3.9632397,-1.4255918,1002.98816,0,0
4.2,-8.803078999999997,3.9108078,-1.5581564,1002.9833,0,0
4.24,-8.559321,4.1205363,-1.6907207999999998,1002.9682,0,0
4.28,-8.5688925,4.325499,-1.3687824,1002.9655,0,0
4.32,-8.554565,4.215868,-1.39719,1002.953,0,0
4.36,-8.731432,4.0442724000000005,-1.6765211,1002.93506,0,0
4.4,-9.070809,3.958475,-1.4019266,1002.9854,0,0
4.44,-8.774474,3.9298756,-1.3971934,1002.9451,0,0
4.48,-8.611972999999999,3.9870749,-1.6670555,1002.9607,0,0
4.52,-9.023048,3.7153816,-1.5108213,1002.953,0,0
4.56,-8.81275,3.80118,-1.5297601,1002.9655,0,0
4.6,-8.999172999999997,3.6677163,-1.340385,1002.9756,0,0
4.64,-8.965729,3.4770547999999994,-1.160479,1002.9502,0,0
4.68,-8.602476,3.5580862,-1.4114034,1002.9756,0,0
4.72,-8.965753999999997,3.5199542,-1.2314973,1002.95294,0,0
4.76,-8.602501,3.7678154,-1.5913131,1002.97076,0,0
4.8,-8.92276,3.7964149,-1.4114069,1002.97565,0,0
4.84,-8.8940935,3.8965132000000007,-1.3924705,1002.9681,0,0
4.88,-8.707694,3.6724854,-1.16522,1002.953,0,0
4.92,-8.989714999999997,3.5914538,-1.1368148,1002.9631,0,0
4.96,-9.243057,3.48659,-0.9285021,1002.9554,0,0
5.0,-8.827227,3.7725837,-1.4729598,1002.92535,0,0
5.04,-8.836223,3.791636,-0.989999,1002.9552,0,0
5.08,-8.69282,4.053797,-1.1604367,1002.9481,0,0
5.12,-8.726269,4.1062284,-1.3214056,1002.9605,0,0
5.16,-8.788395,4.053796299999999,-1.184107,1002.9376,0,0
5.2,-8.888761500000003,4.0728617,-0.8763696,1002.96027,0,0
5.24,-8.879191,4.3779216,-1.0041977,1002.953,0,0
5.28,-8.391643,4.520918,-1.1462290000000002,1002.958,0,0
5.32,-8.597163,4.2635236,-0.74380356,1002.9554,0,0
5.36,-8.754888000000001,4.230157,-0.45973846,1002.97815,0,0
5.4,-8.649721000000001,4.2063246,-0.8858338,1002.9552,0,0
5.44,-8.793106,4.163425,-0.9899898,1002.95294,0,0
5.48,-8.816996000000003,4.2635226,-1.2882566,1002.97815,0,0
5.52,-8.386802000000001,4.5256824,-1.0373322,1002.9781,0,0
5.56,-8.272077000000001,4.4637175,-0.9047678,1002.958,0,0
5.6,-8.850423,4.1348248,-0.5449522,1002.9879,0,0
5.64,-9.290155,3.8869638,-0.59229535,1002.9605,0,0
5.68,-8.993797,4.063326,-0.810077,1002.97565,0,0
5.72,-9.462208,4.025193,-0.39344856,1002.9605,0,0
5.76,-8.907741999999997,4.4065175000000005,-0.72012156,1002.9631,0,0
5.8,-8.530127,4.4446497,-0.73905826,1002.9349,0,0
5.84,-8.678289999999999,4.063325,-0.28455442,1002.97565,0,0
5.88,-8.343694000000001,3.8488297,-0.48339856,1002.9401,0,0
5.92,-8.534875999999999,3.715366,-0.42185035,1002.93756,0,0
5.96,-8.888572,3.6677,-0.78639865,1002.9879,0,0
6.0,-8.759508,3.6724665,-1.2172288,1002.9326,0,0
6.04,2.7284026000000003,9.482849,4.81459,1002.9641,0,0
6.08,2.8235812,9.644922,4.876099,1002.9893,0,0
6.12,2.5367439,9.544826,4.5257483,1002.9643,0,0
6.16,1.9344388,9.67829,5.264311,1002.98175,0,0
6.2,2.770855,9.859421,5.6146525999999986,1002.9843,0,0
6.24,2.5748365,9.873721000000002,6.40056,1003.00464,0,0
6.28,2.5078728,9.926154,5.543628,1002.9719,0,0
6.32,1.5614223,8.949012,3.2663748,1002.952,0,0
6.36,1.1981077,9.592499,4.004937600000001,1002.9696,0,0
6.4,2.746715,10.974801,3.9197137,1002.9773,0,0
6.44,4.433939,12.075876,4.781371,1002.99475,0,0
6.48,4.505586599999999,11.39426,4.113816,1002.96967,0,0
6.52,1.6041963,7.719246000000001,2.7124271,1002.95715,0,0
6.56,-2.8649726,4.048999299999998,0.26000062,1002.9144,0,0
6.6,-5.9527755,1.8087186,1.2116114,1002.95483,0,0
6.64,-8.529133,0.4502508,-0.18030751,1002.95734,0,0
6.68,-11.956299,-0.074069366,0.30733192,1002.9396,0,0
6.72,-10.426811,1.1890696000000005,-0.21819149,1002.9172,0,0
6.76,-8.878203,2.2091138,-0.2418681,1002.91956,0,0
6.8,-8.730075999999999,3.0432625,0.45408517,1002.95984,0,0
6.84,-8.9308815,3.2100933,-0.8857562,1002.9675,0,0
6.88,-9.222495,3.334025,-0.92837006,1002.9426,0,0
6.92,-9.007453,3.7058175,-0.7863425,1002.9776,0,0
6.96,-8.888011,3.8678818,-1.7758379000000002,1002.97015,0,0
7.0,-8.371835,4.0776114,-1.4823087,1002.9349,0,0
7.04,-9.762808,3.1814997000000003,-0.63958925,1002.9803,0,0
7.08,-8.649326,3.5723624,-1.0088923,1002.96783,0,0
7.12,-9.179933,3.6438625,-0.298736,1002.93506,0,0
7.16,-8.854965,3.6247976,-0.47391438,1002.96014,0,0
7.2,-9.055774,4.0871544,0.1510219,1002.95013,0,0
7.24,-8.745142,4.4160485000000005,-0.58281595,1002.92,0,0
7.28,-8.530104,4.1300564,-0.28928763,1002.9502,0,0
7.32,-9.113292,3.4484403,-0.24668281,1002.9682,0,0
7.36,-8.697508000000001,3.9679961,-0.5544245,1002.92737,0,0
7.4,-8.912655,3.953698,-0.7201338,1002.93744,0,0
7.44,-8.92705,4.0871625,-1.0420784,1002.9833,0,0
7.48,-9.352505,3.7916377,-0.3982042,1003.00336,0,0
7.52,-8.721623,3.9441688,-1.0089473,1002.9607,0,0
7.56,-8.807715,4.020435,-0.6870128000000001,1002.94525,0,0
7.6,-8.683499000000001,3.9823039,-0.36981305,1002.9631,0,0
7.64,-8.449342,3.7678103,-0.8811336,1002.94543,0,0
7.68,-9.343217999999998,3.4293861000000003,-0.45030758,1002.968,0,0
7.72,-9.534466,3.5342517,-0.0005441980000000001,1002.9833,0,0
7.76,-8.549882,4.0252085,-0.81486684,1002.98846,0,0
7.8,-8.712451,3.653418,-0.6586366,1002.9655,0,0
7.84,-9.190487,3.3817258000000003,-0.14259164,1002.9352,0,0
7.88,-9.429529,3.3340619,-0.6018336999999999,1002.953,0,0
7.92,-9.166697,3.5676246,-0.92377836,1002.9554,0,0
7.96,-9.0759325,3.434162,-0.56396836,1002.94525,0,0
8.0,-8.703163,3.6677246,-1.0894924,1002.9278,0,0
8.04,-8.980452,3.6200607,-0.84804326,1002.94543,0,0
8.08,-8.892672,3.7153487,-0.75793004,1002.9859,0,0
8.12,-8.954794999999997,3.5771182,-0.8904921,1002.9455,0,0
8.16,-8.849624,3.6867492,-1.0135852,1002.9605,0,0
8.2,-8.849608,3.863111,-1.1840223,1002.9507,0,0
8.24,-8.672741,3.9250758,-1.0230513,1002.948,0,0
8.28,-9.122027,3.8440442,-0.8668144,1002.9579,0,0
8.32,-8.792207000000001,3.743946,-1.2881751,1002.95294,0,0
8.36,-8.897347,3.6819804,-0.94729656,1002.9733,0,0
8.4,-8.6822405,3.786844,-0.90468556,1002.95294,0,0
8.44,-8.954674,3.7153456,-0.6111511,1002.9709,0,0
8.48,-8.964221,3.8345094,-0.7389788,1002.9731,0,0
8.52,-9.031121,3.8154428,-0.8478687,1002.96545,0,0
8.56,-8.878153,3.9822714,-0.80999196,1002.963,0,0
8.6,-8.811221000000002,3.8488076,-0.79105306,1002.95325,0,0
8.64,-9.160132,3.8297412,-0.54012823,1002.9758,0,0
8.68,-9.0932,3.844040600000002,-0.7626439,1002.9756,0,0
8.72,-8.997588,3.9536707,-0.966222,1002.9354,0,0
8.76,-9.011913,3.9203048,-0.99462694,1002.9507,0,0
8.8,-9.336924,3.6486106,-0.014603738,1002.9481,0,0
8.84,-8.533902000000001,3.739175,-1.3118294,1002.9175,0,0
8.88,-8.624703,3.820206,-1.2786871000000002,1002.9655,0,0
8.92,-8.921037,4.1204987,-1.1839976,1002.9354,0,0
8.96,-9.073975,4.3492928,-1.3354973,1002.9656,0,0
9.0,-9.432446,4.0013337,-1.3828399,1002.9532,0,0
9.04,-9.365513,3.2911165,-0.92360127,1002.97064,0,0
9.08,-8.525501,3.1195507,-1.0420743,1002.96295,0,0
9.12,-8.420380999999999,3.0528197,-1.3734859,1002.9481,0,0
9.16,-8.793239,3.3531137,-1.444505,1002.92505,0,0
9.2,-8.463467,3.8202372,-1.8564013,1002.9481,0,0
9.24,-8.860225,3.8345377,-1.5960121,1002.9555,0,0
9.28,-9.199623,3.61051,-1.0042146,1002.9831,0,0
9.32,-8.951108,3.7868736,-0.7343565,1002.9678,0,0
9.36,-8.5830965,3.7964077000000014,-1.1699251,1002.93036,0,0
9.4,-8.826897,3.5485475,-1.5392114,1002.9329,0,0
9.44,-9.38139,3.4150846,-1.2409471,1002.9682,0,0
9.48,-9.037276,3.743978,-1.0941836,1002.9479,0,0
9.52,-8.846121,4.049039,-1.2125471,1002.96545,0,0
9.56,-8.458988,4.0252066,-1.3309102,1002.938,0,0
9.6,-8.306069,4.0776396,-1.3640541000000002,1002.9481,0,0
9.64,-8.525974,4.0109086000000005,-1.8611697,1002.9681,0,0
9.68,-8.999208,3.69155,-1.7522813999999998,1002.9705,0,0
9.72,-9.133077,3.3197596,-2.017411,1002.94037,0,0
9.76,-9.047073,3.3674257000000005,-1.6291931,1002.96277,0,0
9.8,-8.827237,3.505657,-1.3261943,1002.97034,0,0
9.84,-8.650419,3.7487524,-1.3972135,1003.0032,0,0
9.88,-8.67435,3.8965163,-1.7286248,1002.9605,0,0
9.92,-8.569228,3.9966147,-1.7996441000000003,1002.963,0,0
9.96,-8.712657,3.872685,-1.6292086,1002.96796,0,0
10.0,-8.942121499999997,3.7535222,-1.3072721,1002.9631,0,0
10.04,-9.037747,3.6724913,-1.3688221,1002.9178,0,0
10.08,-8.683534,3.8631408,-1.2835563,1002.9657,0,0
10.12,-8.56883,3.944173,-1.4492615,1002.96045,0,0
10.16,-8.855632,3.858375,-1.567623,1002.9429,0,0
10.2,-8.740929,3.9632397,-1.4255918,1002.98816,0,0
10.24,-8.803078999999997,3.9108078,-1.5581564,1002.9833,0,0
10.28,-8.559321,4.1205363,-1.6907207999999998,1002.9682,0,0
10.32,-8.5688925,4.325499,-1.3687824,1002.9655,0,0
10.36,-8.554565,4.215868,-1.39719,1002.953,0,0
10.4,-8.731432,4.0442724000000005,-1.6765211,1002.93506,0,0
10.44,-9.070809,3.958475,-1.4019266,1002.9854,0,0
10.48,-8.774474,3.9298756,-1.3971934,1002.9451,0,0
10.52,-8.611972999999999,3.9870749,-1.6670555,1002.9607,0,0
10.56,-9.023048,3.7153816,-1.5108213,1002.953,0,0
10.6,-8.81275,3.80118,-1.5297601,1002.9655,0,0
10.64,-8.999172999999997,3.6677163,-1.340385,1002.9756,0,0
10.68,-8.965729,3.4770547999999994,-1.160479,1002.9502,0,0
10.72,-8.602476,3.5580862,-1.4114034,1002.9756,0,0
10.76,-8.965753999999997,3.5199542,-1.2314973,1002.95294,0,0
10.8,-8.602501,3.7678154,-1.5913131,1002.97076,0,0
10.84,-8.92276,3.7964149,-1.4114069,1002.97565,0,0
10.88,-8.8940935,3.8965132000000007,-1.3924705,1002.9681,0,0
10.92,-8.707694,3.6724854,-1.16522,1002.953,0,0
10.96,-8.989714999999997,3.5914538,-1.1368148,1002.9631,0,0
11.0,-9.243057,3.48659,-0.9285021,1002.9554,0,0
11.04,-8.827227,3.7725837,-1.4729598,1002.92535,0,0
11.08,-8.836223,3.791636,-0.989999,1002.9552,0,0
11.12,-8.69282,4.053797,-1.1604367,1002.9481,0,0
11.16,-8.726269,4.1062284,-1.3214056,1002.9605,0,0
11.2,-8.788395,4.053796299999999,-1.184107,1002.9376,0,0
11.24,-8.888761500000003,4.0728617,-0.8763696,1002.96027,0,0
11.28,-8.879191,4.3779216,-1.0041977,1002.953,0,0
11.32,-8.391643,4.520918,-1.1462290000000002,1002.958,0,0
11.36,-8.597163,4.2635236,-0.74380356,1002.9554,0,0
11.4,-8.754888000000001,4.230157,-0.45973846,1002.97815,0,0
11.44,-8.649721000000001,4.2063246,-0.8858338,1002.9552,0,0
11.48,-8.793106,4.163425,-0.9899898,1002.95294,0,0
11.52,-8.816996000000003,4.2635226,-1.2882566,1002.97815,0,0
11.56,-8.386802000000001,4.5256824,-1.0373322,1002.9781,0,0
11.6,-8.272077000000001,4.4637175,-0.9047678,1002.958,0,0
11.64,-8.850423,4.1348248,-0.5449522,1002.9879,0,0
11.68,-9.290155,3.8869638,-0.59229535,1002.9605,0,0
11.72,-8.993797,4.063326,-0.810077,1002.97565,0,0
11.76,-9.462208,4.025193,-0.39344856,1002.9605,0,0
11.8,-8.907741999999997,4.4065175000000005,-0.72012156,1002.9631,0,0
11.84,-8.530127,4.4446497,-0.73905826,1002.9349,0,0
11.88,-8.678289999999999,4.063325,-0.28455442,1002.97565,0,0
11.92,-8.343694000000001,3.8488297,-0.48339856,1002.9401,0,0
11.96,-8.534875999999999,3.715366,-0.42185035,1002.93756,0,0
12.0,-8.888572,3.6677,-0.78639865,1002.9879,0,0
12.04,-8.759508,3.6724665,-1.2172288,1002.9326,0,0
12.08,-9.232825,3.9060307,-0.7390644000000001,1002.9657,0,0
12.12,-8.649685,4.0966926,-1.3355991000000005,1002.9653,0,0
12.16,-8.367671000000001,4.0013614,-0.92370534,1002.9607,0,0
12.2,-8.367666,3.8488312000000007,-1.0515338,1002.9879,0,0
12.24,-8.86476,3.7582667,-1.3213944,1002.97034,0,0
12.28,-9.103746,3.6438696,-1.39241,1002.94763,0,0
12.32,-9.34751,3.5533050000000004,-1.5723169,1002.93005,0,0
12.36,-9.223231,3.8345313,-1.4965662,1002.92224,0,0
12.4,-8.759585000000001,3.8488307,-1.1130788,1002.9426,0,0
12.44,-8.649645,3.89173,-0.4834025,1002.96515,0,0
12.48,-8.7691345,3.7487333,-0.16146249,1002.94745,0,0
12.52,-8.974661,3.5533042,-0.36977583,1002.9702,0,0
12.56,-9.342702,3.3960078,-0.19933686,1002.99036,0,0
12.6,-9.170624,3.748733,-0.6727769,1002.96783,0,0
12.64,-8.9507475,4.1348233,-0.341368,1002.97504,0,0
12.68,-8.496661,4.2682867,-0.75326073,1002.9575,0,0
12.72,-8.950738000000003,3.8726628,-0.27981982,1002.94006,0,0
12.76,-8.491872,3.958461,-0.5165397,1002.9399,0,0
12.8,-8.840793,3.858363,-0.39344475,1002.9726,0,0
12.84,-8.319789,4.0537915,-0.9379007,1002.95233,0,0
12.88,-8.89814,4.0299587,-0.829009,1002.9472,0,0
12.92,-8.74996,4.0204252999999985,-1.1840888,1002.94226,0,0
12.96,-8.90291,3.8059304,-0.838477,1002.92957,0,0
13.0,-9.070198,3.7391982000000006,-1.0846657,1002.93713,0,0
13.04,-9.027175,3.729665,-1.0657274,1002.9247,0,0
13.08,-9.012734,3.7534955,-0.9662958,1002.95734,0,0
13.12,-8.802415,3.8011608,-0.7721843,1002.9725,0,0
13.16,-8.984036999999997,3.82976,-1.0609822,1002.9499,0,0
13.2,-9.117864,3.705829,-1.0183718000000002,1002.96747,0,0
13.24,-8.864525,3.7439613,-0.52125835,1002.95996,0,0
13.28,-8.874077,3.8583586,-0.5638673000000001,1002.9373,0,0
13.32,-8.716333,3.8440588,-0.7201019000000001,1002.95465,0,0
13.36,-8.969655,3.8106923,-0.82899237,1002.9597,0,0
13.4,-8.845371,3.739194,-0.6538185000000001,1002.9673,0,0
13.44,-8.572913,3.9012566,-1.0325702,1002.9697,0,0
13.48,-8.969628,4.430344,-0.8053179,1002.94965,0,0
13.52,-8.644592999999999,4.1205177000000015,-0.7011602,1002.9645,0,0
13.56,-8.74496,3.6057296,-0.30820390000000003,1002.9722,0,0
13.6,-9.084318,2.6762507,-0.02413876,1002.9772,0,0
13.64,-9.175125,2.4188564,-0.78637713,1002.96967,0,0
13.68,-9.07474,2.185295,-1.9463055,1002.9419,0,0
13.72,-8.797503,2.6428842999999995,-2.2635095,1002.9444,0,0
13.76,-9.433208,3.4293659,-2.1072736,1002.9622,0,0
13.8,-9.19899,4.0680842,-2.0409913,1002.9444,0,0
13.84,-8.630181,4.0633173,-1.3545016,1002.97723,0,0
13.88,-8.634955999999999,4.1920147000000005,-0.6348714,1002.9949,0,0
13.92,-8.759221,4.034717,-0.29399338,1002.9642,0,0
13.96,-8.916944,3.6962922,-1.0183563,1002.9596,0,0
14.0,-8.883479,3.691525,-1.0467623,1002.9545,0,0
14.04,-8.869131,3.391232,-0.99941725,1002.9794,0,0
14.08,-8.740673,3.5962086,-0.6159852,1002.99475,0,0
14.12,-9.084838,3.7296727,-0.61125255,1002.98224,0,0
14.16,-9.151766,3.944168,-0.3177205,1002.9491,0,0
14.2,-8.836312,4.153897,-0.09993911,1002.9641,0,0
14.24,-8.702494,4.492323000000002,-0.1236126,1002.9415,0,0
14.28,-8.573455000000001,4.530455,-0.31772462,1002.9516,0,0
14.32,-8.55435,4.663919,-0.92846406,1002.98724,0,0
14.36,-8.740778,4.6305537,-0.8053709,1002.99207,0,0
14.4,-8.817269,4.4446583,-0.5686521,1002.9767,0,0
14.44,-8.540058,4.368394,-0.45976242,1002.9767,0,0
14.48,-8.583088,4.454192,-0.55918604,1002.94904,0,0
14.52,-8.621344,4.258764,-0.4455618,1002.9817,0,0
14.56,-8.520980999999999,4.3350285999999985,-0.6680801,1002.96924,0,0
14.6,-8.817345,4.473259400000001,-0.5071117,1002.9918,0,0
14.64,-8.626165,4.4351277,-0.7012235,1002.97925,0,0
14.68,-8.783915499999999,4.2301655,-0.5023801,1002.9643,0,0
14.72,-8.602297,4.392229,-0.4645061,1002.97424,0,0
14.76,-8.454138,4.578125,-0.7012276,1002.9566,0,0
14.8,-8.702703,4.211101,-0.8337924999999999,1002.9563,0,0
14.84,-8.501966,4.2873660000000005,-0.6870273,1002.95636,0,0
14.88,-8.602357000000001,4.292133,-1.0799843,1002.97424,0,0
14.92,-9.195066,4.3064327,-0.86220294,1002.98895,0,0
14.96,-8.497232,4.5828934,-0.7154378,1002.9739,0,0
15.0,-8.597623,4.706824299999999,-0.50712544,1002.91583,0,0
15.04,-8.363428,4.659159,-1.0421146,1002.9536,0,0
15.08,-8.730372000000001,4.396971700000001,-0.9331225,1002.96405,0,0
15.12,-8.500914,4.4684696,-0.46441376,1002.9636,0,0
15.16,-8.443525,4.7878275000000015,-0.36498863,1002.96625,0,0
15.2,-8.113692,4.711562000000002,-1.2313823,1002.9636,0,0
15.24,-8.696798,4.2682714000000015,-0.9615185,1002.9586,0,0
15.28,-9.036138,4.0299435,-0.8052805000000001,1002.9839,0,0
15.32,-8.591585,4.411267,-1.1603581,1002.9788,0,0
15.36,-8.362125,4.7687583,-1.4728261,1002.96124,0,0
15.4,-8.443354,4.640061,-1.0988058,1002.9712,0,0
15.44,-8.4576645,4.306401,-1.2455696000000005,1002.94604,0,0
15.48,-8.744425999999999,4.1014385,-1.1650822,1002.96356,0,0
15.52,-8.691816000000001,4.12527,-1.065657,1002.97107,0,0
15.56,-8.715681,4.139569,-1.1461386999999998,1002.9636,0,0
15.6,-8.672633,4.196767,-0.9899004,1002.97614,0,0
15.64,-8.591353999999999,4.0966687,-1.0230395,1002.9456,0,0
15.68,-8.663024,3.9965706,-1.2124128,1002.95593,0,0
15.72,-8.954556,4.0156355,-1.1366593,1002.9608,0,0
15.76,-8.811135,4.110966,-0.8620612,1002.9736,0,0
15.8,-9.183937,3.948903,-0.91413766,1002.95844,0,0
15.84,-9.116992,3.9489021,-0.9898854,1002.971,0,0
15.88,-8.395211,4.239661,-1.202931,1002.9687,0,0
15.92,-8.380836,3.8964686,-1.58168,1002.9636,0,0
15.96,-8.777538,3.6104746,-1.4443803999999998,1002.9731,0,0
16.0,-9.049952,3.6343064,-0.9851398,1002.9784,0,0
16.04,-8.987785,3.5818737,-0.98987156,1002.9606,0,0
16.08,-8.997638,3.4960824999999995,-1.0419769,1002.9555,0,0
16.12,-8.6248,3.662912,-1.103523,1002.9685,0,0
16.16,-8.65346,3.8869395,-1.3733823,1002.9357,0,0
16.2,-8.792062,4.015636,-1.5201478000000002,1002.97565,0,0
16.24,-8.887637,4.0299354,-1.3875825000000002,1002.95074,0,0
16.28,-9.02146,3.9822693,-1.1650643,1002.978,0,0
16.32,-8.476546,4.0871334,-0.9046706,1002.97577,0,0
16.36,-8.672502,3.9536695,-0.85732496,1002.96045,0,0
16.4,-9.030967,3.815439,-0.9236049,1002.97046,0,0
16.44,-8.906682,3.9584353,-1.0182921,1002.97046,0,0
16.48,-8.615092,4.1252637000000005,-1.307089,1002.9529,0,0
16.52,-8.653315,4.0585318,-1.3449626,1002.9656,0,0
16.56,-8.739338,3.9775004,-1.165054,1002.97034,0,0
16.6,-8.940071000000003,3.891702200000001,-1.2029276000000002,1002.95276,0,0
16.64,-8.997414,3.9060013,-1.2076607,1002.98566,0,0
16.68,-8.739286,3.9822655,-1.0750957,1002.9529,0,0
16.72,-8.586317,4.1061954,-1.1082348999999998,1002.98553,0,0
16.76,-8.787055,4.0346966,-0.9519985,1002.96277,0,0
16.8,-8.720118,4.115728,-1.5911412,1002.97034,0,0
16.84,-9.030788,3.9298315,-0.8146972,1002.9728,0,0
16.88,-8.705746000000001,3.7916013999999993,-0.84783673,1002.94995,0,0
16.92,-8.662711999999999,3.8535664,-1.406495,1002.9552,0,0
16.96,-8.7200575,3.8869314,-1.2691963,1002.96277,0,0
17.0,-8.457147,4.2062902,-1.2549909,1002.9703,0,0
17.04,-8.610088000000001,4.1490917000000005,-1.5153822,1002.9399,0,0
17.08,-8.581037,4.139549,-1.5579576000000002,1002.96277,0,0
17.12,-8.710061,4.063284,-1.5816268,1002.95496,0,0
17.16,-8.710032,4.101415,-1.3354351999999998,1002.96515,0,0
17.2,-8.619185,4.0918818,-1.23601,1002.96765,0,0
17.24,-8.619155000000001,4.144313,-1.2975544,1002.9521,0,0
17.28,-8.891583,4.0775805,-1.396975,1002.95715,0,0
17.32,-8.499602000000001,4.253942,-1.4301122,1002.937,0,0
17.36,-8.432661999999999,4.32544,-1.5011263,1002.9622,0,0
17.4,-8.633377000000001,4.206275,-1.2975436000000002,1002.96234,0,0
17.44,-8.647684,4.1061764,-1.2170558,1002.9649,0,0
17.48,-8.834067,4.2205734,-1.3306789,1002.9572,0,0
17.52,-8.638073,4.282538,-1.4443026,1002.96216,0,0
17.56,-8.413394,4.325436,-1.4300966,1002.9469,0,0
17.6,-8.80052,4.0203753,-1.392218,1002.9292,0,0
17.64,-8.733572,4.1252394,-1.2643863000000002,1002.9519,0,0
17.68,-8.838707000000003,4.1300054,-1.3164628,1002.9696,0,0
17.72,-8.245973,4.415998,-1.1886303,1002.962,0,0
17.76,-8.714363,4.2682333,-1.297519,1002.9695,0,0
17.8,-8.685653,4.2729993,-1.3069848,1002.96436,0,0
17.84,-8.642613,4.144302,-1.2927796,1002.967,0,0
17.88,-8.599557,4.1871996,-1.4348084,1002.9417,0,0
17.92,-8.589969,4.1681333,-1.089194,1002.9316,0,0
17.96,-8.824147,4.0251355,-1.3353802,1002.95404,0,0
18.0,-8.604248,4.4016933,-1.5673635,1002.9518,0,0
18.04,-8.451265,4.33496,-1.3590468999999998,1002.9566,0,0
18.08,-8.561136999999999,4.2968264000000005,-1.2690876,1002.94653,0,0
18.12,-8.694939999999999,4.1442957,-1.3164288,1002.94653,0,0
18.16,-8.762505,4.229038,-1.3637657,1002.9591,0,0
18.2,-8.389649,4.4149322999999985,-1.1649177,1002.939,0,0
18.24,-8.838921000000003,4.3100677,-1.4726514,1002.9667,0,0
18.28,-8.939266,4.1718364,-1.4726486,1002.944,0,0
18.32,-8.714582,4.290999,-1.2075189,1002.9438,0,0
18.36,-8.719330000000001,4.214734,-1.3164073,1002.95355,0,0
18.4,-8.599808,4.333897,-1.3590143999999995,1002.95605,0,0
18.44,-8.542423,4.3767953,-1.1791047,1002.9536,0,0
18.48,-8.800496,4.257631,-1.2595861000000002,1002.9511,0,0
18.52,-8.805242,4.305295,-1.2311766000000002,1002.94617,0,0
18.56,-8.556663,4.3672595,-1.2595804,1002.936,0,0
18.6,-8.671347,4.3338933,-1.2453741000000005,1002.96625,0,0
18.64,-8.704773,4.2766933,-1.2974496000000002,1002.96625,0,0
18.68,-8.652163,4.3910904,-1.5815111000000002,1002.9458,0,0
18.72,-8.676033,4.400623,-1.4820858,1002.92834,0,0
18.76,-8.666441,4.3195906,-1.1222682,1002.9457,0,0
18.8,-8.566035000000001,4.3386559999999985,-1.2832353,1002.9761,0,0
18.84,-8.561224000000001,4.3243550000000015,-1.4110613,1002.9534,0,0
18.88,-8.704586,4.2576230000000015,-1.1743381000000002,1002.96576,0,0
18.92,-8.795371000000001,4.1622906,-1.2832265,1002.9809,0,0
18.96,-8.656725,4.281454,-1.3258333,1002.95306,0,0
19.0,-8.628016,4.3005195,-1.5199411,1002.95544,0,0
19.04,-8.972131,4.3148184,-1.4252502,1002.943,0,0
19.08,-8.714952,4.348207,-1.3401161,1002.94037,0,0
19.12,-8.389933000000001,4.462605,-1.2217566999999998,1002.9352,0,0
19.16,-8.576350999999999,4.24811,-1.3448517,1002.95795,0,0
19.2,-8.581137,4.1432457000000005,-1.5152909,1002.9499,0,0
19.24,-8.896609,4.1051135,-1.5152915,1002.9147,0,0
19.28,-8.714984,4.243344,-1.7094026000000002,1002.95276,0,0
19.32,-8.552475999999999,4.271943,-1.3874637,1002.95776,0,0
19.36,-8.657639,4.434006,-1.1365409,1002.92975,0,0
19.4,-8.442554,4.686634,-1.5200281999999998,1002.9373,0,0
19.44,-8.490357000000001,4.510271,-1.2691052,1002.93225,0,0
19.48,-8.566841,4.3529754,-1.3495907,1002.92725,0,0
19.52,-8.772378999999999,4.1194143,-1.5010921999999998,1002.9448,0,0
19.56,-8.63377,4.2671776,-1.4726863,1002.9474,0,0
19.6,-8.758051,4.391108,-1.3495923,1002.9473,0,0
19.64,-8.466491,4.486439,-1.5105627,1002.9247,0,0
19.68,-8.399579,4.505506,-1.3069838,1002.9472,0,0
19.72,-8.504741000000001,4.45784,-1.4963607,1002.9345,0,0
19.76,-8.882351,4.2528787,-1.4774237,1002.932,0,0
19.8,-8.61469,4.376809,-1.4537521999999998,1002.9371,0,0
19.84,-8.652934,4.310078,-1.6241913,1002.9295,0,0
19.88,-8.480868,4.3625099999999986,-1.520035,1002.92926,0,0
19.92,-8.657726,4.214747,-1.3874722,1002.95184,0,0
19.96,-8.595595,4.271946,-1.5721145,1002.93176,0,0
20.0,-8.700757000000001,4.3720436,-1.453755,1002.92163,0,0
20.04,-8.5239105,4.481674,-1.4442868,1002.9418,0,0
20.08,-8.690439,4.4482894,-1.3305911,1002.929,0,0
20.12,-8.680858,4.3720245,-1.4915588,1002.934,0,0
20.16,-8.699952,4.3958564,-1.4868222,1002.9087,0,0
20.2,-8.566092999999999,4.276692,-1.3637254,1002.9237,0,0
20.24,-8.652107,4.1098620000000015,-1.3921298,1002.9314,0,0
20.28,-8.580386,4.2480917,-1.2642987,1002.9363,0,0
20.32,-8.761994,4.300523,-1.4205317,1002.9236,0,0
20.36,-8.628138,4.3958535,-1.505749,1002.9311,0,0
20.4,-8.752388999999999,4.367254,-1.1885419,1002.9109,0,0
20.44,-8.542053999999998,4.4244523,-1.2642901000000002,1002.95624,0,0
20.48,-8.666305,4.3291197,-1.0985838,1002.94366,0,0
20.52,-8.565906,4.352951999999998,-1.2500825,1002.9487,0,0
20.56,-8.661475999999999,4.295753,-1.4678628,1002.93085,0,0
20.6,-8.608875999999999,4.343418,-1.458392,1002.93604,0,0
20.64,-8.575391999999999,4.562679,-1.3589671,1002.9359,0,0
20.68,-8.704424000000001,4.5102463,-1.510466,1002.95074,0,0
20.72,-8.804775999999997,4.567444999999998,-1.3352908,1002.9155,0,0
20.76,-8.341111999999999,4.6008096,-1.0701618999999998,1002.938,0,0
20.8,-8.350646000000001,4.5436106,-1.2027231000000005,1002.96075,0,0
20.84,-8.513138,4.591275,-1.3494875,1002.91284,0,0
20.88,-8.560913000000001,4.65324,-1.5909402,1002.98584,0,0
20.92,-8.618245,4.6484733,-1.0559503,1002.99866,0,0
20.96,-8.393571000000001,4.781936,-1.4441693000000002,1002.953,0,0
21.0,-8.460465,4.8200684,-1.2405877,1002.9605,0,0
21.04,-8.570376,4.5912724,-1.2169135,1002.9479,0,0
21.08,-8.422177,4.505474,-1.3826153,1002.95544,0,0
21.12,-8.670703999999999,4.410142,-1.4299573,1002.96545,0,0
21.16,-8.417352000000001,4.453041000000002,-1.4488927,1002.968,0,0
21.2,-8.618079,4.3481760000000005,-1.4678282,1002.9655,0,0
21.24,-8.823586,4.3863077000000015,-1.292653,1002.93256,0,0
21.28,-8.6706085,4.6198688,-1.25951,1002.96277,0,0
21.32,-8.292981,4.7390323,-1.3021174999999998,1002.93,0,0
21.36,-8.4698105,4.624634,-0.9138941,1002.9725,0,0
21.4,-8.475014999999999,4.596044999999998,-1.1743252,1002.9702,0,0
21.44,-8.599279,4.4578147,-1.2358714,1002.9725,0,0
21.48,-8.460654,4.481647,-1.3494962,1002.94995,0,0
21.52,-8.76177,4.500712999999998,-1.0512277,1002.9751,0,0
21.56,-8.647045,4.4911794999999985,-1.2832128,1002.96234,0,0
21.6,-8.546660000000001,4.534078599999999,-1.1364453,1002.9774,0,0
21.64,-8.498855,4.5293117,-1.1932573,1002.9572,0,0
21.68,-8.603995,4.3958473,-1.2027249,1002.9724,0,0
21.72,-8.565748,4.5102449999999985,-1.2974122,1002.95215,0,0
21.76,-8.4940405,4.338649,-1.3352865,1002.9596,0,0
21.8,-8.885975,4.3720145,-1.1553783000000002,1002.98987,0,0
21.84,-8.5465975,4.66754,-1.1032985,1002.9343,0,0
21.88,-8.235901,4.7962370000000005,-1.1317042,1002.9495,0,0
21.92,-8.326706,4.824836,-1.1459064,1002.9442,0,0
21.96,-8.527447,4.6723065,-1.2784688,1002.96185,0,0
22.0,-8.704289,4.4625773,-1.4489063999999998,1002.98193,0,0
22.04,-8.541766,4.567442,-1.2595294,1002.96436,0,0
22.08,-8.278866,4.848668,-1.2926692,1002.9641,0,0
22.12,-8.4031315,4.820069,-1.5151854,1002.9717,0,0
22.16,-8.254946,4.920166,-1.2358544,1002.97424,0,0
22.2,-8.508266,4.729503599999998,-1.0701493,1002.9943,0,0
22.24,-8.589512,4.6913705000000006,-1.3494781,1002.98413,0,0
22.28,-8.599061,4.677071,-1.2973988,1002.9638,0,0
22.32,-8.345719,4.7676352999999985,-1.2358506,1002.97363,0,0
22.36,-8.599039,4.6198716,-1.216912,1002.98145,0,0
22.4,-8.388347,4.729493,-1.415722,1002.984,0,0
22.44,-8.560391000000001,4.67706,-1.1884681,1002.9712,0,0
22.48,-8.469551,4.615094,-1.3115605,1002.97614,0,0
22.52,-8.526883999999999,4.696125,-1.5530127,1002.9737,0,0
22.56,-8.761069,4.6436925,-1.524604,1002.9609,0,0
22.6,-8.096653,4.9106193,-1.7755252,1002.96375,1,1
22.64,-8.569828,4.6627574,-1.5340683000000002,1002.9786,1,1
22.68,-8.732317,4.6961226,-1.6098166,1002.976,1,1
22.72,-8.235192999999999,4.662756,-1.794456,1002.9607,1,1
22.76,-8.077432,4.5531244000000015,-1.7944536,1002.94293,1,1
22.8,-8.450234,4.3815284000000005,-1.529325,1002.97076,1,1
22.84,-8.058266,4.6627540000000005,-1.7139645,1002.97327,1,1
22.88,-8.115597,4.6246214000000005,-1.8417909,1002.9655,1,1
22.92,-7.943503,4.6198545,-1.6950225,1002.9429,1,1
22.96,-8.4214525,4.438724,-1.8133798,1002.9755,1,1
23.0,-8.966325,4.429190599999999,-1.7612990000000002,1002.963,1,1
23.04,-8.469201,4.9725776,-1.2783875,1002.96295,1,1
23.08,-8.3927,4.99641,-1.0416651,1002.96545,1,1
23.12,-9.367757,4.796214,-0.8996306999999999,1002.9758,1,1
23.16,-9.926967,5.044074,0.070924595,1003.01074,1,1
23.2,-9.138276,5.1727705,0.018848315,1002.99316,1,1
23.24,-8.684169,4.7437797,-0.596622,1002.98785,1,1
23.28,-8.416473,4.2623568,-1.0274504,1002.97253,1,1
23.32,-8.316073,3.8619657,-0.7623215,1002.9755,1,1
23.36,-7.8093895999999985,4.0049614999999985,-0.6060838000000001,1002.95483,1,1
23.4,-8.225368,4.143195,0.01411077,1002.9801,1,1
23.44,-7.8477454,4.8486449999999985,0.6343194000000001,1002.9777,1,1
23.48,-7.919422,4.996408,0.8189630999999999,1002.9852,1,1
23.52,-8.0102215,5.7209244,0.10880394,1002.9624,1,1
23.56,-8.507301,5.7447567,-0.2699467,1002.95734,1,1
23.6,-8.550302499999999,6.3787080000000005,-1.0700594,1002.97015,1,1
23.64,-9.434545,7.26052,-0.9090879,1002.95465,1,1
23.68,-9.028242,7.4321160000000015,-0.9848365,1002.9673,1,1
23.72,-8.445087,6.9316273,-1.8228246,1002.9572,1,1
23.76,-8.215639999999999,4.6770453000000005,-1.0653181,1002.9825,1,1
23.8,-7.312239,3.0087502,-1.3115056,1002.957,1,1
23.84,-6.2797832,3.142213,-1.5198177,1002.9897,1,1
23.88,-7.3456597000000015,3.9715939,-2.8501835,1002.952,1,1
23.92,-9.33404,4.2242203,-3.0916367,1002.92426,1,1
23.96,-9.391378,4.152722,-2.8454459,1002.9444,1,1
24.0,-7.732767599999999,4.4863800000000005,-2.2678463,1002.97174,1,1
24.04,-7.5654554,3.876261,-1.8985612,1002.97705,1,1
24.08,-7.766188,3.642699,-1.4914007,1002.96924,1,1
24.12,-7.5176196,3.8047614,-1.4866647,1002.9617,1,1
24.16,-8.024262,4.0430884,-1.2736149,1002.9466,1,1
24.2,-9.228752,5.1250963,-1.8512104,1002.96936,1,1
24.24,-8.540442,6.474032,-2.0263817,1002.95667,1,1
24.28,-8.83677,6.8934884000000025,-1.477189,1002.96674,1,1
24.32,-9.816612,6.3929996,0.66749805,1003.0019,1,1
24.36,-8.210579,6.2309356,0.5396708,1002.99445,1,1
24.4,-8.516467,6.0545725999999975,0.5396726,1002.9536,1,1
24.44,-8.530789,6.083172,0.17512493,1002.96387,1,1
24.48,-7.240224400000002,6.283366,-0.52083087,1002.9893,1,1
24.52,-7.015554400000001,5.654181,-0.76701814,1002.9337,1,1
24.56,-8.282183,4.638903599999999,0.13252063,1002.97394,1,1
24.6,-7.942798,4.510206,-0.07579157,1002.9966,1,1
24.64,-7.158892599999999,4.9963946,-0.7670130999999999,1002.9638,1,1
24.68,-7.966661,5.444451,0.62490374,1002.9838,1,1
24.72,-6.5996165,6.6646886,1.3634728,1002.9635,1,1
24.76,-6.6234984,7.0031137,0.29823318,1002.946,1,1
24.8,-8.989481,6.693287,-0.8616940999999999,1002.9485,1,1
24.84,-10.442522,6.3691607,-1.5150403,1002.94104,1,1
24.88,-9.061142,7.2605057,-1.9600726,1002.9483,1,1
24.92,-7.6893205999999985,6.8887142999999975,-0.79540735,1002.96106,1,1
24.96,-5.872976,6.369159,-0.8001401,1002.971,1,1
25.0,-6.6711826,4.924892,-2.9069483,1002.9304,1,1
25.04,-8.640443,4.019246,-2.1447074,1002.9407,1,1
25.08,-7.894778,4.1908417,-1.500827,1002.9862,1,1
25.12,-7.2447032999999985,4.1241093,-1.5434346,1002.95294,1,1
25.16,-7.9281974,3.8762481,-1.5055578,1002.96075,1,1
25.2,-7.669589,4.338591,-2.007359,1002.9429,1,1
25.24,-7.731699000000001,4.8676786,-1.6286041999999998,1002.96045,1,1
25.28,-9.070016,5.115539599999999,-1.3682094,1002.9653,1,1
25.32,-8.381692999999999,6.2690449999999975,-2.4618537,1002.953,1,1
25.36,-8.400783,5.8877196,-2.1020367,1002.97534,1,1
25.4,-10.236197,4.586449,-1.61439,1002.9652,1,1
25.44,-9.681714,5.5016274,-0.81900775,1002.95013,1,1
25.48,-9.03641,6.402505400000001,0.0710631,1002.9527,1,1
25.52,-8.7304735,5.8352847,1.3730271,1002.97284,1,1
25.56,-6.904559599999999,5.749486,0.8664485999999999,1002.97034,1,1
25.6,-7.406409,5.1393657,1.496127,1002.9649,1,1
25.64,-8.271525,4.410082,0.32199723,1002.9325,1,1
25.68,-8.180679,4.3290496,-0.97522694,1002.9324,1,1
25.72,-7.697894,4.457746,-0.24612623,1002.9527,1,1
25.76,-8.476968,4.667474,1.112651,1002.9699,1,1
25.8,-7.191172999999999,5.163195,0.17524138,1002.9604,1,1
25.84,-7.0286307,5.801913,-0.8379184999999999,1002.94214,1,1
25.88,-9.327686,5.6779823,-1.1929961000000002,1002.93713,1,1
25.92,-9.456713,6.0307064000000015,-2.1919532000000004,1002.9296,1,1
25.96,-10.426985,5.778078,-1.6474938,1002.9696,1,1
26.0,-7.974914599999999,6.211834,-0.73848534,1002.9749,1,1
26.04,-5.9912663,6.4215620000000015,-1.3444864,1002.98737,1,1
26.08,-8.58189,4.2003455,-2.3955216,1002.97723,1,1
26.12,-10.178318,3.1517026,-2.1730022,1002.9445,1,1
26.16,-8.079955,3.5377932,-1.0651487,1002.9571,1,1
26.2,-6.95649,4.2575379999999985,-0.82367474,1002.9496,1,1
26.24,-6.449796,5.0773845,-0.42124715,1002.972,1,1
26.28,-7.0998125,4.8152237,-0.32182133,1002.9493,1,1
26.32,-8.070076,4.4529643,-1.0840572,1002.9392,1,1
26.36,-9.934165,4.5006285,-1.5716976,1002.9616,1,1
26.4,-10.512482,5.3633747000000005,-1.4343964,1002.9493,1,1
26.44,-9.800257,6.0306916,-1.4296588,1002.96185,1,1
26.48,-10.149149,5.8924603,-1.1455913999999998,1002.9943,1,1
26.52,-8.050775999999999,5.482536,-0.21291,1002.98425,1,1
26.56,-7.5393047000000015,5.0058794,0.8191932,1003.0194,1,1
26.6,-7.778257400000001,4.700819,1.420466,1003.002,1,1
26.64,-8.504748,4.2050962,0.45938537,1002.9413,1,1
26.68,-9.102189,4.524454,1.2074245,1002.9664,1,1
26.72,-7.4913588,5.058307599999999,1.6619307,1002.96387,1,1
26.76,-6.1959977,5.1679378,0.92336667,1002.95886,1,1
26.8,-7.343112,4.4910855000000005,0.4451954000000001,1002.9388,1,1
26.84,-7.242699000000001,5.310933,0.40732354,1002.9689,1,1
26.88,-6.8172617,6.330975,-0.07084821,1002.9689,1,1
26.92,-7.5819964,6.4358387000000015,-1.0792732,1002.92084,1,1
26.96,-9.847586,6.3262067,-0.63897026,1002.9611,1,1
27.0,-10.703136,6.43107,0.056990415,1002.97894,1,1
27.04,-9.785373,6.569299000000001,-1.1408103,1002.96643,1,1
27.08,-8.838939,6.6217303,-0.9893063,1002.95355,1,1
27.12,-6.597175,6.006844,-0.76205146,1002.9633,1,1
27.16,-5.9709816,4.729406,-1.136066,1002.94824,1,1
27.2,-8.203053,3.6187959,-0.98929054,1002.9784,1,1
27.24,-10.860575,3.5949616,-1.5479457,1002.96326,1,1
27.28,-9.804206,4.448174,-1.7278502,1002.9582,1,1
27.32,-7.5767837,5.1869903,-2.0355835,1002.9201,1,1
27.36,-6.262298,5.1107239999999985,-1.7988595,1002.9681,1,1
27.4,-7.093942,4.0525475,-0.57737935,1002.9681,1,1
27.44,-7.385473700000001,3.823752,-0.91351867,1002.9631,1,1
27.48,-8.198001,4.3576045,-1.3727524,1002.9579,1,1
27.52,-8.322236,5.434846,-1.8414549,1002.9452,1,1
27.56,-8.436914,6.1259956,-2.1681252,1002.9552,1,1
27.6,-10.253199,4.829491,-2.6936405,1002.9401,1,1
27.64,-8.4559555,6.402454,-0.061308064,1002.9727,1,1
27.68,-7.8441005000000015,6.2880554,-0.78566843,1002.95764,1,1
27.72,-8.909953,6.0544934,-1.344324,1002.9349,1,1
27.76,-8.1833935,5.778032,0.19436015,1002.97046,1,1
27.8,-7.4042435,5.596902,1.5199973999999998,1002.9777,1,1
27.84,-7.628858,4.93435,0.69147986,1002.9828,1,1
27.88,-8.154594,4.3957276,-0.79511935,1002.93994,1,1
27.92,-8.914545,4.2479634000000015,-0.9276793,1002.9296,1,1
27.96,-8.876267,4.9820123,0.17070612,1002.96265,1,1
28.0,-7.743408,5.8924236,0.17071038,1002.9775,1,1
28.04,-7.4470334,5.8495245,0.014477517,1002.9549,1,1
28.08,-8.187861,5.25847,0.24646717,1002.9524,1,1
28.12,-9.483149,4.6626496,0.038156956,1002.9396,0,0
28.16,-8.393316,5.0630393,-0.46368653,1002.95715,0,0
28.2,-8.752981,4.648378,-0.9656414,1002.9396,0,0
28.24,-8.872482000000002,4.6245456,-0.5537489000000001,1002.9545,0,0
28.28,-8.322815,4.8533397,-1.0082526,1002.9419,0,0
28.32,-8.016917999999999,4.8962398,-1.2497082,1002.9469,0,0
28.36,-8.313272,4.500615,-1.6000546999999998,1002.9519,0,0
28.4,-8.690885,4.2241550000000005,-1.315991,1002.9618,0,0
28.44,-8.55228,4.5959473,-0.8330827,1002.9442,0,0
28.48,-8.710022,5.177467,-0.21761093,1002.972,0,0
28.52,-8.413684,5.053537,-0.89936614,1002.9466,0,0
28.56,-8.255958999999999,4.948673,-1.5716523,1002.94434,0,0
28.6,-8.117352499999999,4.743711,-1.4959027,1002.95667,0,0
28.64,-8.552324,4.281355400000002,-1.2781208999999998,1002.9467,0,0
28.68,-8.60013,4.333787999999998,-1.3964816,1002.9416,0,0
28.72,-8.437625,4.257523,-1.4769673,1002.95416,0,0
28.76,-8.9825325,4.529217,-0.62477535,1002.96655,0,0
28.8,-8.461542999999999,4.9010086,-1.1455607,1002.944,0,0
28.84,-8.495008,4.9820400000000005,-1.140827,1002.95416,0,0
28.88,-8.557155999999999,4.7198796,-1.0129988,1002.96405,0,0
28.92,-8.777037,4.0048966,-0.9419837,1002.95154,0,0
28.96,-9.207226,4.1907926,-1.1218917,1002.9593,0,0
29.0,-9.164217,3.9762976,-0.9940637,1002.9714,0,0
29.04,-8.064872,4.252758,-1.4201609,1002.9741,0,0
29.08,-8.490283,4.219392299999999,-1.6190068000000002,1002.944,0,0
29.12,-8.475953,4.07163,-2.1208546000000004,1002.92346,0,0
29.16,-8.504639,4.119295,-2.456998,1002.936,0,0
29.2,-9.119837,3.9571984,-1.9266168,1002.92084,0,0
29.24,-8.211611999999999,4.591148400000002,-1.9786896,1002.9483,0,0
29.28,-8.402772,4.6245136,-1.9076706,1002.94354,0,0
29.32,-8.072922,4.9677050000000005,-2.262747,1002.94324,0,0
29.36,-7.915141999999999,5.1392994000000005,-2.5468068,1002.9458,0,0
29.4,-7.771700999999997,5.0487337,-2.5183961,1002.96106,0,0
29.44,-8.087111,4.42908,-2.295874,1002.9583,0,0
29.48,-8.412089,4.4004793,-1.4058014,1002.9735,0,0
29.52,-7.690291999999999,5.053497,-1.7514087,1002.9432,0,0
29.56,-8.125222,5.3204226,-1.7750776,1002.9734,0,0
29.6,-7.972212299999999,5.4967847,-2.2295756,1002.9306,0,0
29.64,-7.6662693,5.50155,-2.423683,1002.9632,0,0
29.68,-8.263696000000001,4.9676943,-2.248505,1002.98065,0,0
29.72,-8.2062845,4.6388006,-2.068593,1002.9634,0,0
29.76,-8.631639999999999,5.020124,-1.486257,1002.95776,0,0
29.8,-7.9194026,5.5396776,-1.9644277,1002.98315,0,0
29.84,-8.368672,5.2536836,-2.0117686000000004,1002.9127,0,0
29.88,-8.545478999999998,4.729361,-1.4625734,1002.9681,0,0
29.92,-8.359003999999999,4.200271,-1.4625677,1002.96277,0,0
29.96,-8.683985,4.1812043,-1.2305777,1002.97046,0,0
30.0,-8.081685,4.524394999999998,-1.6992797999999998,1002.9577,0,0
30.04,-8.0912,4.8199205,-1.4862275,1002.9448,0,0
30.08,-7.9955544,5.3156414000000005,-1.0648608999999998,1002.9604,0,0
30.12,-8.76028,5.410971599999999,-1.0885288999999998,1002.9448,0,0
30.16,-8.578602,5.420503599999999,-1.4388709,1002.9755,0,0
30.2,-8.188449,5.077356,-1.0460792,1002.9829,0,0
30.24,-8.666447,4.810428,-0.6531251,1002.9724,0,0
30.28,-8.221955,4.8580947,-0.7951600999999999,1002.9473,0,0
30.32,-7.882614599999999,4.9629602,-1.0934298,1002.965,0,0
30.36,-8.34628,4.7436986,-1.2922771999999998,1002.9549,0,0
30.4,-8.7717085,4.338542,-1.391702,1002.94965,0,0
30.44,-8.633121000000001,4.891463,-1.7704569,1002.9373,0,0
30.48,-8.475411,5.301387999999998,-1.5005978000000002,1002.93207,0,0
30.52,-7.8110414000000015,5.3967195,-1.3727711,1002.9724,0,0
30.56,-8.561499000000001,4.3909764,-1.481665,1002.9572,0,0
30.6,-9.1112,4.128817,-1.2875566,1002.9596,0,0
30.64,-8.795757,4.3576117,-1.2354804,1002.98236,0,0
30.68,-8.427736999999999,4.6483727,-1.216545,1002.9622,0,0
30.72,-8.212672999999999,4.6912720000000006,-1.2780948,1002.9396,0,0
30.76,-8.561616,4.5101438,-0.68629575,1002.97473,0,0
30.8,-8.786298,4.157419,-0.8804093000000001,1002.947,0,0
30.84,-8.877139999999997,4.0620885,-1.0366468,1002.952,0,0
30.88,-8.628615,4.3242497,-1.0603212,1002.97974,0,0
30.92,-8.623861,4.3528495000000005,-1.1029332,1002.9646,0,0
30.96,-8.829411,4.486314,-1.2260293,1002.9367,0,0
31.0,-8.676488,4.5768785,-0.9703744,1002.9621,0,0
31.04,-8.437522,4.6483784,-1.0603302,1002.96967,0,0
31.08,-8.523577000000001,4.6293120000000005,-0.64370435,1002.92664,0,0
31.12,-8.690896,4.3576190000000015,-0.4306585,1002.95416,0,0
31.16,-8.886899,4.286122,-1.0556028999999998,1002.96436,0,0
31.2,-8.770333,4.4338393,-1.3773729,1002.94147,0,0
31.24,-8.526518,4.481504,-0.9323347,1002.96436,0,0
31.28,-8.77502,4.1335440000000006,-1.0648937,1002.96936,0,0
31.32,-9.004402,3.9571807,-1.3205471000000002,1002.97156,0,0
31.36,-9.047374,3.823716000000001,-1.1548388,1002.9614,0,0
31.4,-8.258668,4.4672,-1.0128031,1002.96405,0,0
31.44,-8.674453999999999,4.462432,-0.61037344,1002.96405,0,0
31.48,-8.339819,4.7150583,-0.95598054,1002.9413,0,0
31.52,-8.683921,4.695990599999999,-0.9796484,1002.94604,0,0
31.56,-8.602615,4.672157,-0.9228311,1002.9638,0,0
31.6,-8.846336,4.2145660000000005,-0.9512332,1002.96643,0,0
31.64,-8.487807,4.176433,-1.1879493,1002.9462,0,0
31.68,-8.612033,4.176432,-1.1358663999999998,1002.9487,0,0
31.72,-8.750603,4.3003607000000015,-1.121659,1002.9613,0,0
31.76,-8.406405,4.681684,-1.3678434,1002.95624,0,0
31.8,-8.831759,4.6387839999999985,-0.98908657,1002.9561,0,0
31.84,-8.602284,4.6864485999999985,-0.937004,1002.9535,0,0
31.88,-8.162506,4.743646,-1.0174856,1002.95856,0,0
31.92,-8.606971000000001,4.6912127,-0.84704185,1002.9661,0,0
31.96,-8.559121000000001,4.429051,-1.3914937,1002.9557,0,0
32.0,-8.578198,4.4624157,-1.4672403,1002.93304,0,0
32.04,-8.783682,4.476714599999998,-0.9937954,1003.0063,0,0
32.08,-8.176598,5.005800700000001,-1.2967928999999998,1002.9558,0,0
32.12,-8.2100115,5.0296325999999985,-0.9606461,1002.95074,0,0
32.16,-8.391592999999999,4.838968799999999,-1.1263455,1002.9404,0,0
32.2,-8.631699000000001,4.572069,-1.1264476,1002.9605,0,0
32.24,-8.99974,4.367107,-0.7476949,1002.96326,0,0
32.28,-8.818105000000003,4.381406299999999,-0.8991957,1002.9507,0,0
32.32,-8.483516,4.5959015,-0.8707889999999999,1002.9683,0,0
32.36,-8.244524,4.777031,-0.93707037,1002.9655,0,0
32.4,-8.392694,4.815163,-1.3631666,1002.948,0,0
32.44,-8.464389,4.6483335,-1.3631663,1002.92035,0,0
32.48,-8.87067,4.2145769999999985,-1.3347597,1002.9379,0,0
32.52,-8.7129345,4.1526117,-1.1217113,1002.97314,0,0
32.56,-8.311428,4.514869999999998,-1.4436506000000002,1002.9781,0,0
32.6,-8.71293,4.6054344,-1.4531193,1002.948,0,0
32.64,-8.287524000000001,4.753197,-1.4957285,1002.9554,0,0
32.68,-8.646008,4.3623400000000006,-1.4010401,1002.9632,0,0
32.72,-8.961472,4.100179,-1.3063519,1002.9428,0,0
32.76,-8.545625999999999,4.3528066,-1.2968829,1002.98065,0,0
32.8,-8.574303,4.50057,-1.3536955,1002.95026,0,0
32.84,-8.354429,4.5291696,-1.5051963,1002.9374,0,0
32.88,-8.837187,4.062047,-1.5620089,1002.97046,0,0
32.92,-9.061835,3.818952,-1.4010388,1002.953,0,0
32.96,-8.574292,4.014381,-1.4483826000000002,1002.94745,0,0
33.0,-8.923216,4.171677,-1.3773663,1002.94257,0,0
33.04,-8.73202,4.33374,-1.4909918,1002.94257,0,0
33.08,-8.602963,4.33374,-1.3584282,1002.9504,0,0
33.12,-8.717675999999999,4.3194404,-1.0743638,1002.94495,0,0
33.16,-8.454784,4.5387015,-1.1122388,1002.9606,0,0
33.2,-8.424944,4.4719415,-1.5192912,1002.9628,0,0
33.24,-8.606527999999999,4.3575425,-1.5571621999999998,1002.91473,0,0
33.28,-8.573021,4.1573462,-1.5666264,1002.95996,0,0
33.32,-8.678132000000002,4.309875,-1.4624653,1002.9625,0,0
33.36,-8.635064999999999,4.586334,-1.3583040000000002,1002.95746,0,0
33.4,-8.415144999999999,4.896159,-1.1547203,1002.9448,0,0
33.44,-8.281266,4.886625,-0.9937464,1002.98773,0,0
33.48,-8.520207000000001,4.6673617,-1.0647581,1002.9248,0,0
33.52,-8.553622,4.6149287,-1.2920053,1002.9245,0,0
33.56,-8.730423,4.4242654,-1.1452341,1002.9446,0,0
33.6,-8.649122,4.4433303,-1.4292942,1002.94214,0,0
33.64,-8.816364,4.2669663,-1.3582735,1002.94745,0,0
33.68,-8.491291,4.643523,-1.1452212,1002.95746,0,0
33.72,-8.285712,4.6864214,-0.6907139,1002.96497,0,0
33.76,-8.3621435,4.662587,-1.1499469,1002.93964,0,0
33.8,-8.290396000000001,4.78175,-1.4766163,1002.92975,0,0
33.84,-8.132617,4.9009132000000015,-1.4197992,1002.9346,0,0
33.88,-8.443255,4.9056783,-1.561827,1002.9396,0,0
33.92,-8.830372,4.6625824,-1.5097442,1002.92456,0,0
33.96,-8.500521,4.791279,-1.2067382,1002.95233,0,0
34.0,-8.557833,4.719779,-1.0694362,1002.96747,0,0
34.04,-8.443068499999999,4.610147,-1.0410253,1002.9423,0,0
34.08,-8.600750999999999,4.557714,-1.1215055,1002.95996,0,0
34.12,-8.605487,4.681643,-1.4860506000000002,1002.9448,0,0
34.16,-8.242175999999999,4.862771,-1.4907808,1002.9298,0,0
34.2,-8.238956,4.7627120000000005,-1.4435798,1002.9625,0,0
34.24,-8.568778,4.576816,-1.6613637,1002.9296,0,0
34.28,-8.4015,4.5100846,-1.3252223,1002.95215,0,0
34.32,-8.712203,4.5863504,-1.2968173,1002.94476,0,0
34.36,-8.39675,4.6912150000000015,-1.453054,1002.95715,0,0
34.4,-8.368087,4.7388806,-1.4293833,1002.927,0,0
34.44,-8.435019,4.7102814,-1.4435878999999998,1002.9499,0,0
34.48,-8.348997,4.691216000000002,-1.6424342,1002.9396,0,0
34.52,-8.411149,4.6006517,-1.1831982,1002.96246,0,0
34.56,-8.654935,4.7293496,-1.1263869,1002.927,0,0
34.6,-8.693188000000001,4.614952,-1.415187,1002.9474,0,0
34.64,-8.306039,4.7960815000000006,-1.1169209999999998,1002.9222,0,0
34.68,-8.215239,4.9438453,-1.2116102,1002.9446,0,0
34.72,-8.47814,4.9724455,-1.3725813999999998,1002.9624,0,0
34.76,-8.267846,4.838982,-1.3347076,1002.9597,0,0
34.8,-8.487732000000001,4.881881,-1.3489121000000002,1002.96497,0,0
34.84,-8.454288,4.7245855,-1.154803,1002.9371,0,0
34.88,-8.401722999999999,4.653087,-1.0648504,1002.9622,0,0
34.92,-8.492556,4.7770185,-0.94649184,1002.95746,0,0
34.96,-8.330058,4.900949,-1.0601188999999998,1002.94714,0,0
35.0,-8.330072,5.0058136,-1.2400277,1002.92206,0,0
35.04,-8.535619,4.834218,-1.2873731000000002,1002.94714,0,0
35.08,-8.707706,4.7341204,-1.0790606000000005,1002.92725,0,0
35.12,-8.363576,4.7627206,-1.17375,1002.93976,0,0
35.16,-8.411388,4.715055,-0.91335917,1002.9547,0,0
35.2,-8.47758,4.7579365,-1.102669,1002.9697,0,0
35.24,-8.597061,4.8532667,-1.2068247,1002.9499,0,0
35.28,-8.262463,4.7960677,-1.1452762,1002.93475,0,0
35.32,-8.391503,4.72457,-1.3488542,1002.94965,0,0
35.36,-8.463186,4.662604,-1.3677907,1002.9622,0,0
35.4,-8.587448,4.6769032,-1.4388055,1002.9773,0,0
35.44,-8.501396000000002,4.819899,-1.4719448,1002.94965,0,0
35.48,-8.458364999999999,4.7817669999999985,-1.0032377,1002.94214,0,0
35.52,-8.367536,4.724568,-0.8091258000000001,1002.9674,0,0
35.56,-8.381861,4.715033999999998,-1.2257521,1002.9722,0,0
35.6,-8.443984,4.705501,-1.249423,1002.96246,0,0
35.64,-8.49655,4.695967,-1.2257497,1002.9371,0,0
35.68,-8.601691,4.5482035000000005,-1.2872957,1002.94965,0,0
35.72,-8.472622,4.82943,-1.1594653999999998,1002.9524,0,0
35.76,-8.572986,4.84373,-1.2636212,1002.9499,0,0
35.8,-8.224045,4.8675623,-1.4103864,1002.9575,0,0
35.84,-8.448681,4.7150316,-1.3062283,1002.92224,0,0
35.88,-8.520365,4.719798,-1.5429472,1002.9348,0,0
35.92,-8.386517,4.705498,-1.2683506000000002,1002.9371,0,0
35.96,-8.587255,4.538668,-1.3014901,1002.965,0,0
36.0,-8.85491,4.3766050000000005,-0.8990644,1002.93475,0,0
36.04,-8.544209500000001,4.653064700000002,-0.84698474,1002.9497,0,0
36.08,-8.281305,4.815128,-1.0695003,1002.9448,0,0
36.12,-8.439027000000001,4.695963,-1.1925937,1002.9499,0,0
36.16,-8.553728,4.6721306,-1.2967494,1002.94995,0,0
36.2,-8.472457,4.6339974,-1.4529835,1002.9398,0,0
36.24,-8.754452,4.5863314000000015,-1.0032139000000002,1002.9625,0,0
36.28,-8.48199,4.896157700000002,-1.0032127,1002.96497,0,0
36.32,-8.214308,4.9771886,-1.1073684,1002.9298,0,0
36.36,-8.118696,5.0391536,-1.0174131,1002.94745,0,0
36.4,-8.395912,4.8723235,-1.1168345,1002.965,0,0
36.44,-8.491494,4.7865252,-1.3630223,1002.9298,0,0
36.48,-8.663554,4.705493499999998,-1.0789568,1002.9524,0,0
36.52,-8.553605000000001,4.6482944,-0.95112664,1002.93207,0,0
36.56,-8.343278999999999,4.810357,-1.2257208,1002.9399,0,0
36.6,-8.496219,4.8627887,-1.1215625,1002.96,0,0
36.64,-8.544005,4.8246555,-0.8895758,1002.9374,0,0
36.68,-8.266759,4.881854,-1.3488114,1002.9273,0,0
36.72,-8.290647,4.9009204,-1.5003113,1002.9349,0,0
36.76,-8.405348,4.853254,-1.2919962,1002.94507,0,0
36.8,-8.620426,4.819888,-1.5192463,1002.95514,0,0
36.84,-8.276266,4.848487400000002,-1.2635872,1002.96246,0,0
36.88,-8.247574,4.767455,-1.2541171,1002.9374,0,0
36.92,-8.615604,4.6292243,-1.2446469999999998,1002.96014,0,0
36.96,-8.61559,4.633991,-1.3251307,1002.97797,0,0
37.0,-8.5391,4.5910916,-0.9795179,1002.95514,0,0
37.04,-8.041986999999999,4.8294190000000015,-1.4434884,1002.94525,0,0
37.08,-8.367001,4.567259,-1.1073444,1002.97296,0,0
37.12,-8.3096285,4.5958576,-1.4103450000000002,1002.94775,0,0
37.16,-8.668101,4.486226,-1.2209677,1002.9403,0,0
37.2,-8.658526,4.719786599999999,-1.4908271999999998,1002.9501,0,0
37.24,-8.668073,4.805584400000001,-1.3914037,1002.9501,0,0
37.28,-8.505546,5.020079,-1.1120723,1002.9378,0,0
37.32,-8.056231,5.1297097,-1.0836649,1002.9632,0,0
37.36,-8.142253,4.853249,-1.0268507,1002.9399,0,0
37.4,-8.648897999999999,4.5243564,-1.2967104,1002.9579,0,0
37.44,-8.711022999999999,4.419492,-1.514492,1002.9706,0,0
37.48,-8.863961,4.4051914000000005,-1.1688789,1002.9604,0,0
37.52,-8.371808999999999,4.6959558,-1.3440671999999998,1002.943,0,0
37.56,-8.343119999999999,4.8151197,-1.1925653,1002.94525,0,0
37.6,-8.137578,4.8008194,-1.3298621000000002,1002.9505,0,0
37.64,-8.692022999999999,4.5672584,-1.5381749,1002.96014,0,0
37.68,-8.481703,4.729321,-1.7843631999999998,1002.9529,0,0
37.72,-8.061067999999999,5.0105476,-1.5760481000000002,1002.94745,0,0
37.76,-8.548598,4.776986,-1.4056087,1002.9604,0,0
37.8,-8.562927,4.72932,-1.571312,1002.948,0,0
37.84,-8.280908,4.8151183,-1.4150755,1002.9378,0,0
37.88,-8.414731,4.772218,-1.4624186,1002.97034,0,0
37.92,-8.271326,4.7722178,-1.32512,1002.9374,0,0
37.96,-8.43383,4.676887000000002,-1.1783525,1002.9327,0,0
38.0,-8.5724325,4.776984,-1.3203835,1002.9403,0,0
38.04,-8.605882000000001,4.9962454,-1.325117,1002.9302,0,0
38.08,-8.14701,5.067744,-1.1262711,1002.93994,0,0
38.12,-8.123099,4.877081,-1.0410507,1002.9529,0,0
38.16,-8.285602,4.810349,-1.0505185,1002.9579,0,0
38.2,-8.347729,4.838948,-1.1452056000000002,1002.94257,0,0
38.24,-8.452873,5.015311,-1.2872367,1002.9829,0,0
38.28,-8.362047,5.16784,-1.381924,1002.95026,0,0
38.32,-7.998771700000002,5.587297,-1.4529392,1002.953,0,0
38.36,-7.874486,5.4776654,-0.95582557,1002.94745,0,0
38.4,-8.189942,5.091574700000002,-1.078919,1002.9277,0,0
38.44,-8.548417,4.8484797,-1.1878095,1002.9579,0,0
38.48,-8.495828,4.886612,-1.2398870000000002,1002.97034,0,0
38.52,-8.300241,5.0963497,-1.1641716,1002.9403,0,0
38.56,-7.9417605,5.3585105,-1.2257193000000002,1002.9349,0,0
38.6,-7.745793300000001,5.3775773,-1.1973134,1002.9526,0,0
38.64,-8.558365,5.001019,-0.76648307,1002.9604,0,0
38.68,-8.190325999999999,5.205981,-0.84223396,1002.9374,0,0
38.72,-8.0612755,5.391877,-1.4387693,1002.93994,0,0
38.76,-8.1568775,5.1726155,-1.6802244999999998,1002.96533,0,0
38.8,-8.285936,5.115417,-1.187847,1002.9702,0,0
38.84,-8.257261999999999,4.9533544,-0.8848454,1002.97034,0,0
38.88,-8.156892,5.29178,-0.9463931,1002.9499,0,0
38.92,-7.9896035,5.2822466,-0.8753774999999999,1002.965,0,0
38.96,-8.768716,5.096351,-0.64812654,1002.95245,0,0
39.0,-8.008732,5.3537455000000005,-1.1168331,1002.9504,0,0
39.04,-8.558415,4.9771876,-0.8469726000000001,1002.9378,0,0
39.08,-8.615777,4.8294244000000015,-0.6860031,1002.94495,0,0
39.12,-8.190380000000001,4.7722254,-0.8327701,1002.9524,0,0
39.16,-8.78786,4.7912927000000005,-0.56290954,1002.93207,0,0
39.2,-8.257307,4.8103585,-0.5345036,1002.95496,0,0
39.24,-8.257311999999999,4.934289,-1.0458198,1002.92957,0,0
39.28,-8.797435,4.7150273,-0.87064725,1002.95496,0,0
39.32,-8.252542,5.0772862000000005,-1.2162594,1002.9373,0,0
39.36,-8.056575,5.3823457,-0.8659136999999999,1002.922,0,0
39.4,-8.247773,5.134485,-0.16995671,1002.9474,0,0
39.44,-8.587144,4.476701,-0.5013655,1002.9449,0,0
39.48,-8.835697,4.7197948,-0.5155692,1002.9449,0,0
39.52,-8.6064625,4.9962597,-0.8422609000000001,1002.9346,0,0
39.56,-8.128494,5.2298217000000005,-0.8469965,1002.92957,0,0
39.6,-7.4975724,5.2870207,-0.8043878000000001,1002.95215,0,0
39.64,-8.616057000000001,4.815132,-1.0600466999999998,1002.9371,0,0
39.68,-8.682988,4.486239,-1.0695168,1002.9449,0,0
39.72,-8.463128999999999,4.653069,-0.26466912,1002.9346,0,0
39.76,-8.02818,5.0868263,-0.600813,1002.9473,0,0
39.8,-8.099889,5.110659,-1.206818,1002.92206,0,0
39.84,-9.022405,4.7817674000000014,-0.7475819,1002.9622,0,0
39.88,-8.898141,4.724569,-0.7807238000000001,1002.95715,0,0
39.92,-8.625703999999999,4.805600599999999,-0.5345358,1002.9546,0,0
39.96,-7.8944073,4.9438309999999985,-0.25520712,1002.9444,0,0
40.0,-7.8657413,4.9962635,-0.6907734999999999,1002.9245,0,0
40.04,-8.998567999999997,4.5577407,-0.7191811,1002.9243,0,0
40.08,-8.864745,4.8771,-0.5582125,1002.91943,0,0
40.12,-8.10477,5.45862,-0.5582136999999999,1002.9495,0,0
40.16,-7.9900656,5.425255,-0.77599734,1002.9622,0,0
40.2,-8.19561,5.0153313,-0.16999474,1002.9445,0,0
40.24,-8.477631,4.7865367,-0.3735752,1002.93695,0,0
40.28,-8.692734,4.6864395,-0.813876,1002.91943,0,0
40.32,-8.468096000000001,4.9962654,-0.5487505,1002.9445,0,0
40.36,-8.176539,5.1869283,-0.68131495,1002.9445,0,0
40.4,-8.0522785,5.3299255,-0.6481752,1002.9571,0,0
40.44,-8.329517999999998,5.2536607,-0.6292386999999999,1002.92413,0,0
40.48,-8.210036,5.1440306,-0.49667662,1002.9443,0,0
40.52,-8.128730000000001,5.024865599999999,-0.5866256999999999,1002.9218,0,0
40.56,-8.716656,5.015332,-0.7760029,1002.9469,0,0
40.6,-8.114409,5.086831,-0.7807381,1002.9317,0,0
40.64,-8.472905,4.9581337,-0.57715964,1002.9443,0,0
40.68,-8.420338000000001,4.8866363,-0.6197703,1002.9518,0,0
40.72,-8.4920435,4.848503599999999,-0.43986368,1002.9442,0,0
40.76,-8.281744,5.124964,-0.22681652,1002.9395,0,0
40.8,-7.9949656,5.301327,-0.7286643,1002.9443,0,0
40.84,-8.367803,4.977201999999999,-0.5724300999999999,1002.9391,0,0
40.88,-8.721516000000001,4.877104,-0.91804224,1002.9418,0,0
40.92,-8.39172,4.8342056,-1.0979506,1002.91156,0,0
40.96,-8.291352999999999,4.9867352999999985,-0.5724326,1002.9694,0,0
41.0,-8.042813,5.201231,-0.49668306,1002.9316,0,0
41.04,-8.506464,5.039168,-0.19368201,1002.934,0,0
41.08,-8.224464999999999,5.091601,-0.71920186,1002.9366,0,0
41.12,-8.640317999999999,4.9247713,-0.61504596,1002.9596,0,0
41.16,-8.367881,5.1488,-0.64345324,1002.9493,0,0
41.2,-8.085881,5.263197,-1.0695504999999998,1002.924,0,0
41.24,-8.382239,4.8103747000000014,-0.91331613,1002.96674,0,0
41.28,-8.520863,4.848507,-0.4635485,1002.9467,0,0
41.32,-8.047675,5.0820690000000015,-0.8565052,1002.9264,0,0
41.36,-8.186297,5.196467,-1.1453046999999998,1002.93396,0,0
41.4,-8.60215,4.981971700000001,-0.5440362,1002.9214,0,0
41.44,-8.34405,5.0630035000000015,-0.97960234,1002.9365,0,0
41.48,-8.071612,5.153568,-1.0979635,1002.9314,0,0
41.52,-7.885209599999999,5.1726345999999985,-0.8943848,1002.93115,0,0
41.56,-8.387098,4.8532753,-1.0411522,1002.92596,0,0
41.6,-8.707355499999998,4.8199096,-0.80443305,1002.9467,0,0
41.64,-8.238944,5.0963699999999985,-0.41147828,1002.9641,0,0
41.68,-8.062102000000001,5.0439386,-0.75235635,1002.92615,0,0
41.72,-8.334561,4.9343080000000015,-0.16529116,1002.9362,0,0
41.76,-8.769533000000001,5.020106299999999,-0.36413708,1002.94366,0,0
41.8,-8.057352999999999,5.3299327000000005,-0.7476248000000001,1002.9309,0,0
41.84,-8.573580999999999,5.267967700000002,-0.48723334,1002.9462,0,0
41.88,-7.980896,5.1869364,-1.2210671,1002.92566,0,0
41.92,-8.525803,5.0296407,-0.6482049,1002.92334,0,0
41.96,-8.434998,4.9915080000000005,-0.84231657,1002.9334,0,0
42.0,-8.664437,5.024874700000002,-0.41148663,1002.9309,0,0
42.04,-8.391998,5.053474,0.04774975,1002.93085,0,0
42.08,-8.382449000000001,5.0582410000000015,0.25132823,1002.9611,0,0
42.12,-7.9331594,5.2822695,-0.6529441999999999,1002.94116,0,0
42.16,-8.076563,5.3251686,-0.9086029,1002.9083,0,0
42.2,-8.013665,5.2107519999999985,-0.9653461,1002.9108,0,0
42.24,-8.539435000000001,4.900926,-1.055299,1002.9257,0,0
42.28,-8.534647,4.943825,-0.9700791,1002.9509,0,0
42.32,-8.281310000000001,4.9771905,-0.567654,1002.94324,0,0
42.36,-8.070991000000001,5.196452,-0.5865908000000001,1002.9611,0,0
42.4,-8.223936,5.1726193,-0.64340293,1002.91815,0,0
42.44,-8.085314,5.1630855,-0.97007614,1002.9385,0,0
42.48,-8.424671,5.005789,-1.0600288999999998,1002.9458,0,0
42.52,-8.2430315,5.215517,-1.12631,1002.9155,0,0
42.56,-8.176105,5.3108487,-0.6576029999999999,1002.94574,0,0
42.6,-8.381628,5.067754,-0.4066789,1002.9356,0,0
42.64,-8.295583,5.201217,-0.43035018,1002.961,0,0
42.68,-8.19998,5.2822485,-0.88485223,1002.9535,0,0
42.72,-8.075696,5.472910400000001,-0.9558676,1002.92303,0,0
42.76,-8.094807000000001,5.391878599999999,-0.79489696,1002.9534,0,0
42.8,-8.333789,5.077286,-1.0316166,1002.93317,0,0
42.84,-8.395919000000001,5.101118,-0.47295606,1002.95325,0,0
42.88,-8.214278,5.282247,-0.43981448,1002.95575,0,0
42.92,-8.19515,5.2393480000000014,-0.83750373,1002.9331,0,0
42.96,-8.429353,5.329912,-0.6481268,1002.92065,0,0
43.0,-8.008721000000001,5.3251457,-0.72861093,1002.94324,0,0
43.04,-8.032612,5.101117,-0.6528596,1002.9658,0,0
43.08,-8.539263,5.039152,-0.7380781999999999,1002.94073,0,0
43.12,-8.563153999999999,5.320379,-0.52976364,1002.9357,0,0
43.16,-7.9083130000000015,5.53964,-0.32618347,1002.943,0,0
43.2,-8.089891999999999,5.3585095,-0.52975804,1002.9683,0,0
43.24,-8.257175,5.1821470000000005,-0.9179783,1002.9354,0,0
43.28,-8.233265,5.201213,-1.2020416,1002.948,0,0
43.32,-8.467467,5.172613,-0.6528499,1002.94794,0,0
43.36,-8.15677,5.210746,-0.7428026,1002.9508,0,0
43.4,-8.027704,5.2250447,-0.74280167,1002.943,0,0
43.44,-7.955999,5.267943,-1.0836781,1002.9178,0,0
43.48,-8.194979,5.220278,-1.1215521000000002,1002.9153,0,0
43.52,-8.118491,5.2870097000000005,-1.1736298,1002.92285,0,0
43.56,-8.022885,5.4919705,-0.9511119,1002.9329,0,0
43.6,-8.151931,5.3585067,-1.2257065,1002.93256,0,0
43.64,-8.15192,5.3013080000000015,-0.8043434,1002.9429,0,0
43.68,-7.970278299999999,5.3537397,-0.3072301,1002.9301,0,0
43.72,-8.242716,5.320374,-0.84695125,1002.92004,0,0
43.76,-7.8937807,5.6159,-0.6859805999999999,1002.9301,0,0
43.8,-8.080183,5.6016005999999985,-0.9558407,1002.9226,0,0
43.84,-8.233128,5.4586034,-1.1310128000000002,1002.9351,0,0
43.88,-7.855512599999999,5.4538364,-0.9463701,1002.9326,0,0
43.92,-7.946317999999999,5.3299055,-0.8516811,1002.9452,0,0
43.96,-8.491204,5.1726093,-0.7096479,1002.94006,0,0
44.0,-7.88416,5.4872017,-1.0410552,1002.96277,0,0
44.04,-8.075342,5.553933,-1.1168048000000002,1002.91724,0,0
44.08,-7.860243,5.6635637,-1.0315849,1002.9376,0,0
44.12,-7.783755999999999,5.491967,-1.0221151,1002.9324,0,0
44.16,-8.118329,5.253639,-0.9653011,1002.9399,0,0
44.2,-8.046720500000001,5.32514,-0.99371564,1002.92487,0,0
44.24,-8.218784,5.3918715,-1.112075,1002.93475,0,0
44.28,-8.084944,5.5062685,-1.1262777,1002.9021,0,0
44.32,-7.884188000000001,5.5205684,-1.0363235,1002.9527,0,0
44.36,-8.15663,5.277473400000001,-0.7285865,1002.94495,0,0
44.4,-8.113603999999999,5.191675,-0.4113808,1002.94995,0,0
44.44,-8.099258,5.272707,-0.39244264,1002.95746,0,0
44.48,-8.18051,5.4586024,-0.64336544,1002.96265,0,0
44.52,-7.998872299999999,5.6683307,-0.8469445,1002.9145,0,0
44.56,-7.841131,5.6444980000000005,-1.1026015,1002.89685,0,0
44.6,-8.127914,5.5253334,-0.88481855,1002.94476,0,0
44.64,-8.204383,5.40617,-0.29301727,1002.9245,0,0
44.68,-8.199597,5.3966365,-0.45872086,1002.9298,0,0
44.72,-8.056196,5.4967337,-0.5770804,1002.932,0,0
44.76,-7.8984575,5.5062666,-0.81380004,1002.92206,0,0
44.8,-8.147,5.4061694000000005,-0.9463628,1002.93964,0,0
44.84,-7.970142,5.406169,-0.8137989000000001,1002.9497,0,0
44.88,-8.113529,5.444301,-0.3734987,1002.95984,0,0
44.92,-8.075287,5.496733,-0.3214199,1002.932,0,0
44.96,-8.156535,5.6063633,-0.44924805,1002.9446,0,0
45.0,-8.213888,5.773193,-0.57707655,1002.93195,0,0
45.04,-8.027469,5.8351583,-0.93215626,1002.9293,0,0
45.08,-7.9940047,5.744593599999999,-0.8942805,1002.91675,0,0
45.12,-7.993997,5.6683283,-0.6575595999999999,1002.92944,0,0
45.16,-8.194742999999999,5.4347672,-0.34035388,1002.9192,0,0
45.2,-8.380009,5.4156733,-0.40179616,1002.9316,0,0
45.24,-8.356048,5.530068,-0.5864323,1002.91156,0,0
45.28,-7.9066944,5.549134,-0.5769588000000001,1002.8964,0,0
45.32,-7.6007447,5.5872645,-0.47753242,1002.91394,0,0
45.36,-7.7345304000000015,5.5300645999999976,-0.3639022,1002.9169,0,0
45.4,-8.475334,5.24407,-1.0882602,1002.9191,0,0
45.44,-8.260205000000001,5.4442650000000015,-0.68109787,1002.9113,0,0
45.48,-8.374858,5.4061303,-0.8089211,1002.9088,0,0
45.52,-8.250547000000001,5.506227,-0.7000265,1002.9419,0,0
45.56,-7.4235735,5.5300584000000015,-0.34493992,1002.9391,0,0
45.6,-7.78201,5.1534986,-0.6432029,1002.92145,0,0
45.64,-8.288614,4.91517,-1.0550911,1002.9366,0,0
45.68,-8.312464,5.1439633,-0.74261594,1002.8964,0,0
45.72,-8.145119000000001,5.387057,-0.57217264,1002.92896,0,0
45.76,-8.102052,5.5348186,-0.4206672000000001,1002.90906,0,0
45.8,-8.121133,5.4680862,-0.52482045,1002.9214,0,0
45.84,-8.149758,5.491917,-0.50114375,1002.9214,0,0
45.88,-7.944175200000001,5.61108,-0.699984,1002.9239,0,0
45.92,-7.786377000000001,5.715943,-1.0219176,1002.9239,0,0
45.96,-7.752869599999999,5.658743,-0.9698347,1002.9265,0,0
46.0,-8.331177,5.401347,-0.8325324000000001,1002.9137,0,0
46.04,-8.082583999999999,5.353681,-0.9319511,1002.9162,0,0
46.08,-8.359749,5.2011495000000005,-0.65734965,1002.9287,0,0
46.12,-8.192407000000001,5.372744,-0.2075767000000001,1002.9105,0,0
46.16,-8.015502,5.5491056,-0.26911923,1002.9108,0,0
46.2,-8.141737,5.420457,-0.34504914,1002.9286,0,0
46.24,-7.9219,5.3251266,0.12838827,1002.9134,0,0
46.28,-8.017526,5.010535,-0.19355395,1002.93097,1,2
46.32,-8.232642,4.872305,-0.20775954,1002.9005,1,2
46.36,-7.611294,5.3155956,-0.34979406,1002.89825,1,2
46.4,-7.453589999999997,5.382328,-0.5391729999999999,1002.9434,1,2
46.44,-7.597010000000001,5.5157924000000005,-0.6338635,1002.9056,1,2
46.48,-7.7499905,5.673089,-1.0978376,1002.9057,1,2
46.52,-7.616186,6.2641434999999985,-0.8658544,1002.8932,1,2
46.56,-7.611425,6.2927427000000025,-0.5865263000000001,1002.9309,1,2
46.6,-7.922147,6.321343,-0.5202478,1002.9234,1,2
46.64,-8.03689,5.9638524,-1.1451919,1002.9282,1,2
46.68,-9.150613,5.744590799999999,-1.3014296,1002.9259,1,2
46.72,-10.168736,5.7350583,-1.0031646,1002.8954,1,2
46.76,-9.972785,5.782725,-1.2966995,1002.9206,1,2
46.8,-7.970083,5.9352550000000015,-1.3393123,1002.9385,1,2
46.84,-7.716778999999999,5.0868087,-0.61968535,1002.9381,1,2
46.88,-7.702461,4.243129,-0.53446794,1002.9052,1,2
46.92,-6.7369757,3.9762025,-1.0221149,1002.93066,1,2
46.96,-7.315359599999999,4.152566,-1.0505238,1002.9256,1,2
47.0,-7.3345046,4.6578207,-1.784359,1002.8954,1,2
47.04,-7.893768,5.301307,-2.6649606,1002.9155,1,2
47.08,-8.663345,6.221253,-3.0105748,1002.8776,1,2
47.12,-7.998981,6.921938000000001,-3.3135793,1002.9105,1,2
47.16,-8.218878,6.917172,-2.6554995,1002.87506,1,2
47.2,-9.541473,6.4929137,-1.2492523000000002,1002.9532,1,2
47.24,-7.3427334,5.835128299999999,-0.7994809,1002.9303,1,2
47.28,-6.0091410000000005,6.817038,-0.3781164,1002.8977,1,2
47.32,-5.741443,6.788438,0.37465665,1002.9303,1,2
47.36,-7.0797663,5.8923244000000015,0.19948566,1002.94293,1,2
47.4,-9.049007,5.2107067,0.05272244,1002.9099,1,2
47.44,-8.241194,5.4919324000000005,-0.9699065,1002.90027,1,2
47.48,-7.548097599999997,5.582496599999999,-1.3202502,1002.89496,1,2
47.52,-7.1083244999999975,5.53483,-1.2965752,1002.93286,1,2
47.56,-6.7976074,5.835123,-0.4727861,1002.9202,1,2
47.6,-7.538448299999999,5.9447527,-0.45858026,1002.9275,1,2
47.64,-7.595778,6.4309406,-0.35442080000000004,1002.93787,1,2
47.68,-7.8586345,7.0219929999999975,0.21371077,1002.9552,1,2
47.72,-7.285033,7.493881699999997,0.44569892,1002.94006,1,2
47.76,-6.7544436,7.0219917,-0.5627265,1002.9099,1,2
47.8,-8.503822999999999,5.2297654,-1.4717296,1002.9025,1,2
47.84,-9.177747,5.1725660000000016,-1.7273848000000005,1002.9251,1,2
47.88,-7.280136,5.6444545,-2.579575,1002.88965,1,2
47.92,-7.8728046,5.5729555999999985,-1.3391584,1002.9325,1,2
47.96,-9.249356,4.5624447,-3.0482757,1002.92505,1,2
48.0,-7.805830999999999,4.6291757,-3.228181,1002.89734,1,2
48.04,-6.128091,5.005733,-1.7179029,1002.9097,1,2
48.08,-7.107921000000001,4.4528120000000015,-0.70473766,1002.94495,1,2
48.12,-7.6288905,4.6005745000000005,-1.8078514,1002.9045,1,2
48.16,-7.624082,5.3584566,-1.4717058,1002.93744,1,2
48.2,-8.240654,5.7397800000000005,-1.2633901,1002.93744,1,2
48.24,-9.392551,6.12587,-1.5758578,1002.93744,1,2
48.28,-9.029258,6.511961,-0.8941007,1002.9348,1,2
48.32,-8.871495,6.9028177,-0.12239006,1002.9424,1,2
48.36,-9.038761,6.9647820000000005,-0.28809172,1002.9248,1,2
48.4,-8.818863,6.631123,0.12380399,1002.94745,1,2
48.44,-7.160242,6.5071917,0.16641626,1002.9223,1,2
48.48,-6.8160667,6.3498945,1.0754247,1002.93994,1,2
48.52,-6.5005727,6.411859,1.1275057,1002.92456,1,2
48.56,-6.5483394,6.225963,0.21850273,1002.91693,1,2
48.6,-7.0023913,6.364192,-0.39696723,1002.9348,1,2
48.64,-7.0453806,6.0257654,0.029131912000000006,1002.89404,1,2
48.68,-7.002335,5.6396739999999985,0.4078868,1002.93463,1,2
48.72,-6.844572,5.878001,0.8813299000000001,1002.92444,1,2
48.76,-7.0452967000000015,6.5548515,0.8671291999999999,1002.9094,1,2
48.8,-7.179102,7.2746005,0.95708555,1002.8968,1,2
48.84,-6.471662,7.984817,0.8245249,1002.92926,1,2
48.88,-6.151389599999999,8.2851095,-0.48216844,1002.91473,1,2
48.92,-8.799368,7.1268350000000025,-0.19810115,1002.90186,1,2
48.96,-9.704098,6.540582,0.51193625,1002.9165,1,2
49.0,-8.313177,7.141168,0.14265248,1002.94934,1,2
49.04,-6.5064135,6.960039,-0.008848647,1002.9142,1,2
49.08,-6.057114,5.453807,0.12371449,1002.9116,1,2
49.12,-5.8372455,5.091549,-1.5475306999999998,1002.88885,1,2
49.16,-7.376344,4.9485519999999985,-2.0446432,1002.8712,1,2
49.2,-10.401961,4.5719943,-1.3013419,1002.95935,1,2
49.24,-9.589396,5.592037,-0.34972677,1002.90894,1,2
49.28,-8.2845125,6.4833837,0.4125122000000001,1002.9365,1,2
49.32,-6.009329,6.8075100000000015,-0.32605514,1002.91644,1,2
49.36,-6.7071824000000015,5.4156755999999975,0.25154206,1002.9315,1,2
49.4,-7.6822643,4.6720924,0.39830843,1002.9316,1,2
49.44,-7.60101,4.3908653,-1.2918743,1002.9365,1,2
49.48,-9.08275,4.2812347,-1.4149691,1002.91895,1,2
49.52,-9.106651,5.158282,-0.09880466,1002.92395,1,2
49.56,-7.926042599999999,6.4786177,0.104774565,1002.92914,1,2
49.6,-8.212832,7.0935035000000015,0.29888496,1002.8963,1,2
49.64,-8.485284,6.755078,1.2410313,1002.9365,1,2
49.68,-7.4002705,6.4500184,1.0232485999999998,1002.92395,1,2
49.72,-7.7157393,6.3928194000000005,0.9901074,1002.88824,1,2
49.76,-8.494849,6.554883,0.67290217,1002.95154,1,2
49.8,-7.9164952999999985,6.8027440000000015,-0.113009214,1002.90906,1,2
49.84,-7.830461,6.511984,1.2410305,1002.9312,1,2
49.88,-7.3190246,6.421419,2.5808668,1002.9566,1,2
49.92,-6.2101115999999985,6.750311999999999,1.1084667,1002.91644,1,2
49.96,-6.3391785999999986,6.40712,0.34622633,1002.9036,1,2
50.0,-6.941436,6.1020603,0.93802667,1002.9441,1,2
50.04,-7.3381630000000015,6.264123400000001,0.20419377,1002.87573,1,2
50.08,-6.9844594,6.2688904,-0.09880834,1002.90356,1,2
50.12,-7.108737,6.025796,-0.15088706,1002.9162,1,2
50.16,-9.140155,5.6540046,-1.5238646,1002.88324,1,2
50.2,-9.723294,6.6025490000000016,-1.7085066000000002,1002.89594,1,2
50.24,-8.1842,7.3842645,-1.2966137,1002.95135,1,2
50.28,-8.3323765,6.7026467000000025,-0.771095,1002.9133,1,2
50.32,-7.0609509999999975,6.3499217,-0.60539097,1002.9561,1,2
50.36,-6.67379,5.930464700000001,0.062159806,1002.94354,1,2
50.4,-6.8936634,5.5777397,-0.10827902,1002.9311,1,2
50.44,-6.9414634999999985,5.625406,-1.0030818,1002.95636,1,2
50.48,-7.371648299999999,5.754102,-1.3344903,1002.9362,1,2
50.52,-8.265474000000001,5.8017683,-1.1214422,1002.9614,1,2
50.56,-6.874553999999999,5.797002,-1.1593177,1002.9462,1,2
50.6,-6.8554372999999975,6.6978807,0.07162725,1002.9109,1,2
50.64,-7.1852465,6.960041499999999,-0.17929645,1002.96625,1,2
50.68,-8.628749000000001,6.850411,0.3130814,1002.9788,1,2
50.72,-9.283586,6.778913,1.1842116000000005,1002.9384,1,2
50.76,-8.576177000000001,6.979108,2.3015308,1002.93866,1,2
50.8,-7.5007234,7.288934700000001,2.8270497000000003,1002.96124,1,2
50.84,-6.7455163,7.055373,2.1737015,1002.9057,1,2
50.88,-6.7311797,5.9542985,0.17578253,1002.89294,1,2
50.92,-7.3143187,5.2011824,0.09529742,1002.9083,1,2
50.96,-7.7962027,4.5100102,0.42205152,1002.9588,1,2
51.0,-8.326728,4.3717794,0.8434166,1002.92084,1,2
51.04,-8.111603,4.8055353,1.5204394,1002.9311,1,2
51.08,-7.571455,5.348922,1.5677865,1002.93866,1,2
51.12,-7.705257,5.329855,0.51201713,1002.93866,1,2
51.16,-7.977674499999999,4.819833,-0.3969858,1002.92334,1,2
51.2,-8.379143,4.6005699999999985,-0.8656886,1002.9057,1,2
51.24,-9.096082,4.4432730000000005,-1.5285025,1002.8957,1,2
51.28,-9.55969,4.781698,-1.6800004000000002,1002.911,1,2
51.32,-9.100799,5.52528,-0.6478973000000001,1002.9535,1,2
51.36,-8.331217,5.792206,-1.358055,1002.9456,1,2
51.4,-9.277583,4.8960924000000015,-1.9167114,1002.8802,1,2
51.44,-10.429486,4.228774,-1.6515822,1002.91327,1,2
51.48,-9.0337515,4.791226999999999,-1.4527342,1002.9609,1,2
51.52,-7.685811500000002,5.5872410000000015,-2.0397973,1002.90826,1,2
51.56,-7.461130000000002,5.4251776,-2.3854063,1002.8855,1,2
51.6,-7.88172,4.691127,-1.2302082,1002.9282,1,2
51.64,-8.211495,3.9380102,-0.6384048000000001,1002.9534,1,2
51.68,-8.785041,3.8045459,-0.8845909,1002.93335,1,2
51.72,-8.75633,4.657758,-1.9403602,1002.9307,1,2
51.76,-9.038302,5.081981,-2.0776546,1002.888,1,2
51.8,-8.6080885,5.0057160000000005,-2.2007463,1002.946,1,2
51.84,-8.574595,4.7387877,-0.7756874,1002.9457,0,0
51.88,-8.029665,4.338396,-0.16494618,1002.97577,0,0
51.92,-7.814545,4.1524997,-0.032380186,1002.94293,0,0
51.96,-8.245508000000001,4.2526160000000015,-0.63845557,1002.9208,0,0
52.0,-8.666131,4.2716827,-1.4480387,1002.92804,0,0
52.04,-8.972038000000003,4.2669163,-1.7273686,1002.9304,0,0
52.08,-8.886002000000003,4.4909444,-1.4669763,1002.93304,0,0
52.12,-8.465378999999999,4.748338,-0.85150373,1002.9354,0,0
52.16,-8.307644999999999,4.9199347,-0.33071923,1002.9502,0,0
52.2,-8.240728,4.848436,-0.91778535,1002.93286,0,0
52.24,-8.384122,4.8722687,-1.5711333,1002.938,0,0
52.28,-8.412801,5.024799,-1.6468836,1002.90283,0,0
52.32,-8.819084,4.943767,-0.9935359,1002.94293,0,0
52.36,-9.010277,5.3822904000000005,-1.1545056,1002.9354,0,0
52.4,-7.7818679999999985,5.24406,-1.2491938,1002.94293,0,0
52.44,-7.3612447,4.6577735,-1.2397249,1002.948,0,0
52.48,-8.078216000000001,4.195417400000001,-1.3060066,1002.9355,0,0
52.52,-8.484499000000001,4.3717804000000005,-1.15924,1002.9326,0,0
52.56,-8.42714,5.024799,-1.4906483,1002.9505,0,0
52.6,-8.422361,5.425189,-1.4717107,1002.9756,0,0
52.64,-8.288527,5.296492,-1.1639744,1002.9352,0,0
52.68,-8.608773,5.0152655,-0.6715964,1002.9404,0,0
52.72,-8.479718,4.972367,-0.78995645,1002.9176,0,0
52.76,-8.250288000000001,4.776938,-0.61478347,1002.95294,0,0
52.8,-8.365003999999999,4.5767419999999985,-0.7710188,1002.91785,0,0
52.84,-8.503617,4.667307,-0.9935359,1002.948,0,0
52.88,-8.365003999999999,4.757871,-1.2207873,1002.9176,0,0
52.92,-7.9443808,5.139196,-1.4385698999999998,1002.9302,0,0
52.96,-8.359378,5.244039,-1.0265993,1002.9681,0,0
53.0,-8.378465,5.253572,-1.1780973999999995,1002.9555,0,0
53.04,-8.421447,5.1677732,-1.3343292,1002.9379,0,0
53.08,-8.426193,4.8913116,-1.0360589,1002.9326,0,0
53.12,-8.526536,4.686349400000001,-0.6667721,1002.9477,0,0
53.16,-8.1489,4.7673798,-0.68097246,1002.91,0,0
53.2,-8.268363,5.081971599999998,-0.8466736999999999,1002.9379,0,0
53.24,-8.297004,5.1916013,-1.334314,1002.9226,0,0
53.28,-8.010182,5.367964,-1.4668742,1002.9681,0,0
53.32,-8.531146000000001,4.9056063,-1.1733379,1002.95276,0,0
53.36,-8.483321,4.9389715,-1.1165226,1002.96027,0,0
53.4,-8.330328999999999,5.0438347000000014,-0.9981589,1002.95526,0,0
53.44,-7.9765887000000015,5.0724335,-1.4668618,1002.9329,0,0
53.48,-8.258566,4.834105,-1.2443419,1002.9352,0,0
53.52,-8.72217,4.476612599999998,-1.2443385,1002.93256,0,0
53.56,-8.707798,4.6005416,-1.24907,1002.9251,0,0
53.6,-8.234563,4.991399,-1.320083,1002.95526,0,0
53.64,-8.143715,5.205893,-1.4384402,1002.8999,0,0
53.68,-8.291853999999999,5.286924,-1.2679985,1002.95276,0,0
53.72,-8.177108,5.1582255,-1.2395891,1002.9803,0,0
53.76,-8.287009,5.034294,-1.367415,1002.9427,0,0
53.8,-8.435148,4.9818615999999984,-1.5331159,1002.9627,0,0
53.84,-8.215243,5.1534567,-1.0738755,1002.96277,0,0
53.88,-8.028796,5.2583203,-1.3958118999999998,1002.9703,0,0
53.92,-8.33945,5.196354,-1.282183,1002.95776,0,0
53.96,-8.154067999999999,5.058149299999998,-1.1639171999999998,1002.95276,0,0
54.0,-8.268792,4.9389853,-1.0929022,1002.96533,0,0
54.04,-8.244903,5.1010485,-1.1591846,1002.9628,0,0
54.08,-8.235351,5.248812,-1.447984,1002.96027,0,0
54.12,-8.144544,5.34891,-1.3580312,1002.94525,0,0
54.16,-7.9342413,5.3870425000000015,-1.3817041,1002.92505,0,0
54.2,-8.240157,5.0724497,-1.1781254,1002.9477,0,0
54.24,-8.321423,5.062917700000002,-1.514269,1002.9653,0,0
54.28,-8.221055,5.1487155,-1.2586118999999998,1002.96027,0,0
54.32,-8.278421,5.120116,-1.0597676,1002.97284,0,0
54.36,-8.135036,5.186848,-1.0597683,1002.94775,0,0
54.4,-8.092027999999999,5.1105839999999985,-0.98875314,1002.9451,0,0
54.44,-8.570015,5.0819845,-1.1781301000000002,1002.93,0,0
54.48,-8.015568,5.2726474,-1.3296319,1002.9502,0,0
54.52,-8.278464999999999,5.224982,-1.0787091999999998,1002.9579,0,0
54.56,-8.020365,5.1677837,-1.055038,1002.9728,0,0
54.6,-8.297602000000001,5.072451999999998,-1.0503044,1002.9427,0,0
54.64,-8.388428,4.9246893,-1.0929149,1002.9477,0,0
54.68,-8.307179,5.1725507,-1.1639317,1002.9451,0,0
54.72,-8.063417999999999,5.1868504999999985,-1.287027,1002.9327,0,0
54.76,-8.3884535,4.92469,-1.1449957,1002.9502,0,0
54.8,-8.326325,5.005721599999998,-0.9982299,1002.9376,0,0
54.84,-8.292875,5.058154,-1.116591,1002.9477,0,0
54.88,-8.178168,5.110586,-1.05031,1002.9147,0,0
54.92,-8.235534,4.9914227,-1.3533127,1002.9577,0,0
54.96,-8.488873,4.9818892,-1.1828749,1002.97284,0,0
55.0,-8.374166,4.948524,-1.2538918,1002.9549,0,0
55.04,-8.335936,5.1916184,-1.211283,1002.96027,0,0
55.08,-7.824506299999999,5.12012,-1.1592053999999998,1002.94006,0,0
55.12,-8.302496000000001,4.848427,-0.9982364,1002.9577,0,0
55.16,-8.598852,4.7816954,-1.556897,1002.9427,0,0
55.2,-8.737551,4.8293633,-1.0739955,1002.93475,0,0
55.24,-8.039710000000001,5.143956,-0.9035578000000002,1002.96747,0,0
55.28,-8.039721499999999,5.329852,-0.8278084000000001,1002.9653,0,0
55.32,-8.08275,5.2011547,-1.045592,1002.9502,0,0
55.36,-8.641999,4.8531966,-0.88935775,1002.9777,0,0
55.4,-8.302645,4.943762,-1.0834693000000002,1002.9247,0,0
55.44,-8.20706,4.996194,-1.4338163000000002,1002.92975,0,0
55.48,-8.226189999999999,5.0533934,-1.1402841,1002.93756,0,0
55.52,-8.4221735,5.0915256,-1.0692691,1002.9373,0,0
55.56,-8.27401,5.3012546999999985,-1.0077229,1002.96246,0,0
55.6,-8.101949000000001,5.3584538,-1.0692711,1002.9473,0,0
55.64,-8.226234,5.1773243,-1.0124594,1002.97,0,0
55.68,-8.240585000000001,5.0724607000000015,-1.1781646,1002.9448,0,0
55.72,-8.436568,5.039095,-1.4243546,1002.9775,0,0
55.76,-8.465258,5.005729,-1.1686976999999998,1002.9549,0,0
55.8,-8.111562,5.000963,-1.206574,1002.93475,0,0
55.84,-8.336225500000001,4.9437647,-0.9130419,1002.9878,0,0
55.88,-8.006431,5.048629,-1.0692781999999998,1002.97284,0,0
55.92,-8.121157,5.0915284000000005,-0.81835586,1002.9777,0,0
55.96,-8.513112,4.8770337,-1.0456083,1002.9624,0,0
56.0,-8.3314905,5.058163,-1.0834846000000002,1002.9474,0,0
56.04,-8.632629,5.163028,-0.92725027,1002.99255,0,0
56.08,-8.274155,5.267892,-1.0976899,1002.9497,0,0
56.12,-7.92046,5.186861,-1.1024251,1002.95734,0,0
56.16,-8.049527000000001,5.0486307,-1.3486153,1002.9374,0,0
56.2,-8.388369,4.877022,-1.3817083,1002.96747,0,0
56.24,-8.474395,4.929454,-1.1686591,1002.95746,0,0
56.28,-8.268854,5.1963816,-1.1970646,1002.95734,0,0
56.32,-8.287965,4.972353,-1.1260477,1002.95245,0,0
56.36,-8.192358,5.0581502999999985,-1.0029523,1002.96246,0,0
56.4,-8.259265,4.9628190000000005,-1.0266232,1002.9597,0,0
56.44,-8.206677,4.8579545,-1.618423,1002.95734,0,0
56.48,-8.608169,4.5957937000000015,-1.5900155,1002.947,0,0
56.52,-8.40263,4.638692400000001,-1.580546,1002.98,0,0
56.56,-8.297462,4.9199195,-1.3248872,1002.9574,0,0
56.6,-8.091923,5.0867486,-1.6326226,1002.9549,0,0
56.64,-8.020214,5.1630129999999985,-1.7651849999999998,1002.9497,0,0
56.68,-8.249636,4.9628177,-1.7415121,1002.9343,0,0
56.72,-8.335661,4.9199185,-1.6610261999999998,1002.9747,0,0
56.76,-8.378671,4.9628167,-1.4621803,1002.97754,0,0
56.8,-8.048853999999999,5.134413,-1.5994772,1002.96967,0,0
56.84,-8.005825,5.1344123,-1.8456652,1002.9574,0,0
56.88,-8.130091,5.0676804,-1.8267267,1002.942,0,0
56.92,-8.364291,4.872251,-1.6468185000000002,1002.957,0,0
56.96,-8.335599,4.9771155999999985,-1.46691,1002.957,0,0
57.0,-8.220877999999999,5.077213,-1.3343459,1002.9619,0,0
57.04,-8.039234,5.2297425,-1.3296108,1002.93427,0,0
57.08,-8.445504,4.9342155,-1.452704,1002.9621,0,0
57.12,-8.412039,5.1391773,-1.5900011,1002.9444,0,0
57.16,-7.957949,5.320306,-1.4858433000000002,1002.9544,0,0
57.2,-7.900453,5.186839,-1.6515349,1002.94434,0,0
57.24,-8.454896000000002,5.0057095999999985,-1.481095,1002.94684,0,0
57.28,-8.306707000000001,4.981877,-1.5379065,1002.967,0,0
57.32,-8.282793,5.0247755,-1.1922935,1002.97955,0,0
57.36,-8.321017,4.9246774,-1.2869803,1002.95685,0,0
57.4,-8.27798,4.953276,-1.1118056,1002.9518,0,0
57.44,-8.23017,5.220203400000001,-0.72831774,1002.94934,0,0
57.48,-8.038964,5.3631997,-1.4621491000000002,1002.9392,0,0
57.52,-8.153665,5.3584323,-1.5615703,1002.967,0,0
57.56,-8.363961,5.1296372,-1.2633014,1002.95685,0,0
57.6,-8.311366,5.0438385000000014,-1.2348934,1002.9872,0,0
57.64,-8.368707,5.015239,-1.0786566999999998,1002.9669,0,0
57.68,-8.072343,5.053371,-1.2680314,1002.94684,0,0
57.72,-7.847682000000002,5.1868343,-1.0739198,1002.9617,0,0
57.76,-8.258728999999999,5.039071,-1.3106387,1002.94403,0,0
57.8,-8.330411999999999,5.015238,-1.3295748,1002.9365,0,0
57.84,-8.373414,5.124868,-1.2774951,1002.9692,0,0
57.88,-8.3064785,5.062903,-1.2064774,1002.9541,0,0
57.92,-8.368601,5.000937,-0.75197303,1002.95905,0,0
57.96,-8.258652,4.924671599999999,-0.8987384,1002.93896,0,0
58.0,-8.272976,4.9437370000000005,-0.9934251,1002.94135,0,0
58.04,-8.387675999999999,4.929437,-1.2490815,1002.94653,0,0
58.08,-8.354201,4.919904,-1.5615507,1002.9516,0,0
58.12,-8.363746,5.0581336,-1.3863763999999998,1002.9642,0,0
58.16,-8.100843,5.1629972,-1.2254053,1002.9666,0,0
58.2,-8.197152,5.07245,-1.4148468,1002.96655,0,0
58.24,-8.058552,5.1487155,-1.2207375,1002.9642,0,0
58.28,-8.1541605,4.99142,-1.376974,1002.9691,0,0
58.32,-8.507883,5.0009537,-1.1639271999999998,1002.9691,0,0
58.36,-8.020353,5.2154484000000005,-1.405383,1002.9667,0,0
58.4,-8.259361,5.182083,-1.4053845,1002.9642,0,0
58.44,-8.029944,5.20115,-1.3012290000000002,1002.96906,0,0
58.48,-8.259386,5.081986,-1.1781354,1002.9641,0,0
58.52,-8.421915,4.972356,-1.2775594,1002.9437,0,0
58.56,-8.096902,5.1963844,-1.3485764999999998,1002.95886,0,0
58.6,-8.235529,5.0819874,-1.2065457,1002.9311,0,0
58.64,-8.288117999999999,5.129653,-1.443267,1002.9691,0,0
58.68,-8.125623,5.115354,-1.2917677,1002.9412,0,0
58.72,-8.345508,5.086755,-1.2633625,1002.9716,0,0
58.76,-8.335957,4.99619,-1.2302225,1002.9563,0,0
58.8,-8.187801,5.096288,-1.263365,1002.9716,0,0
58.84,-8.321645,5.015257,-1.324913,1002.98914,0,0
58.88,-8.020533,5.1010550000000014,-1.5190251,1002.96625,0,0
58.92,-8.431612,4.8960940000000015,-1.4006665,1002.984,0,0
58.96,-8.125717,5.1105895,-1.3722613,1002.94617,0,0
59.0,-8.044472,5.1963882,-1.0219163,1002.96625,0,0
59.04,-8.393416,5.1391892,-1.4527488000000002,1002.94354,0,0
59.08,-8.25481,5.244054,-1.4432808,1002.92365,0,0
59.12,-8.22137,5.0629253,-1.2112966,1002.9765,0,0
59.16,-8.522508,5.0819917000000006,-1.0503277,1002.95593,0,0
59.2,-8.115194,5.2583294,-1.490533,1002.97394,0,0
59.24,-7.957440400000001,5.272628299999999,-1.4857968,1002.96387,0,0
59.28,-8.167716,5.0009336,-1.2822142,1002.9484,0,0
59.32,-7.995617,4.9056015,-1.3058838,1002.96387,0,0
59.36,-8.464015,4.805504,-1.4526483,1002.994,0,0
59.4,-8.92763,4.800736,-0.92239267,1002.9789,0,0
59.44,-8.043338,5.2630919999999985,-1.0928286,1002.9534,0,0
59.48,-8.769834,4.843634,-0.6809321,1002.9735,0,0
59.52,-7.938122,5.153459,-1.1685734,1002.94104,0,0
59.56,-7.7182245,5.115326400000002,-1.7130276000000002,1002.9509,0,0
59.6,-8.803211,4.7292347,-1.3342726,1002.9535,0,0
59.64,-8.741046,4.776899299999998,-1.0833467,1002.9611,0,0
59.68,-8.401652,5.105791,-1.0407344,1002.96106,0,0
59.72,-8.067047,5.2916865,-1.2679842,1002.94855,0,0
59.76,-8.172166,5.477581,-0.39685032,1002.956,0,0
59.8,-7.455168,5.3917828000000005,-1.0691332,1002.9711,0,0
59.84,-8.798266,4.629132299999998,-1.0833341,1002.9636,0,0
59.88,-8.779126,4.6386650000000005,-1.33899,1002.9634,0,0
59.92,-8.0860195,4.853159,-1.845568,1002.9609,0,0
59.96,-8.238947999999999,5.08672,-1.2821715,1002.95856,0,0
60.0,-8.262818,5.091486,-1.1022615,1002.9661,0,0
60.04,-8.387067,5.1534505,-1.0975248,1002.9433,0,0
60.08,-7.751325599999999,5.2916803,-0.9034116,1002.9483,0,0
60.12,-8.487386,4.8817554,-1.2300828,1002.9634,0,0
60.16,-8.167113,4.9294205,-1.2111428,1002.9684,0,0
60.2,-8.37895,5.310783,-1.0361096,1002.9659,0,0
60.24,-7.958362599999999,5.668275,-1.4432716,1002.98114,0,0
60.28,-8.001414,5.4633136,-1.2444297,1002.9483,0,0
60.32,-8.001449000000001,4.800763,-1.4953563,1002.9684,0,0
60.36,-8.321727000000001,4.2573767,-1.6421256999999998,1002.94574,0,0
60.4,-9.019615,4.0953145,-1.0408596,1002.9659,0,0
60.44,-8.426950999999999,4.872264,-1.315458,1002.9555,0,0
60.48,-8.140198,5.301255,-1.5569159,1002.9509,0,0
60.52,-8.145012,5.577716400000001,-1.0740098,1002.9582,0,0
60.56,-7.8534765,5.425186599999999,-0.7236667,1002.9761,0,0
60.6,-7.939547,5.3107905,-0.9840621,1002.9406,0,0
60.64,-8.364982000000001,5.239293,-1.0787531,1002.9658,0,0
60.68,-8.1690445,5.153496,-1.2870700000000002,1002.9657,0,0
60.72,-8.613602,5.2297616,-1.5711377,1002.9379,0,0
60.76,-8.197789,5.286961,-1.566406,1002.9379,0,0
60.8,-7.9492759999999985,5.244063,-1.2539387,1002.9934,0,0
60.84,-8.202639999999999,4.881806,-0.96987754,1002.97565,0,0
60.88,-8.570719,4.6625447,-0.93200547,1002.953,0,0
60.92,-8.369999,4.9628386,-1.2208071000000005,1002.963,0,0
60.96,-8.322235000000001,5.082003599999998,-1.2350132,1002.97327,0,0
61.0,-8.23145,5.2964993,-1.301298,1002.95294,0,0
61.04,-8.111989999999999,5.2822,-1.3675828,1002.9555,0,0
61.08,-8.131142,5.1392045,-1.6847908,1002.96326,0,0
61.12,-8.446642,5.234536599999998,-0.44911438,1002.95795,0,0
61.16,-9.17321,4.872279,-0.43018007,1002.99054,0,0
61.2,-7.9431815000000014,4.8245735,-0.29746863,1002.98065,0,0
61.24,-8.244278,4.314552,-0.33060658,1002.9805,0,0
61.28,-9.071152,4.428948,-0.51051104,1002.9426,0,0
61.32,-8.34937,4.4337134,-0.43475768,1002.97064,0,0
61.36,-8.559654,4.533811,0.08129497,1002.9429,0,0
61.4,-8.999361,4.333615,-0.5767842,1002.9803,0,0
61.44,-8.717323,4.1381855000000005,-0.74248564,1002.9627,0,0
61.48,-9.047098,4.176317,-0.1980262,1002.9429,0,0
61.52,-8.76506,4.343145400000001,-0.022850493,1002.95544,0,0
61.56,-8.583394,4.5957727,0.0955127,1002.9527,0,0
61.6,-8.941848,4.2621126,0.05764039,1002.9604,0,0
61.64,-8.755403999999999,4.424175,-0.18854578,1002.98804,0,0
61.68,-8.234373,4.6863346,-0.6951242,1002.9705,0,0
61.72,-8.884398,4.3574410000000015,-0.52941746,1002.9504,0,0
61.76,-8.932165,4.3050084,-0.35424158,1002.95764,0,0
61.8,-8.712259,4.0857462999999985,-0.8324134,1002.96533,0,0
61.84,-8.836505,4.2049093,-0.47733033,1002.9151,0,0
61.88,-8.831694,4.266874,-0.10804386,1002.96533,0,0
61.92,-8.716949000000001,4.467068,-0.40630862,1002.95795,0,0
61.96,-8.501825,4.3765025,-0.44891536,1002.95276,0,0
62.0,-8.927199,4.305003599999999,-0.44891268,1002.97296,0,0
62.04,-8.669056,4.2764034,-0.6051449000000001,1002.9504,0,0
62.08,-8.946253,4.1953716,-0.50571954,1002.9574,0,0
62.12,-9.003581,4.0380745000000005,-0.33054385,1002.9777,0,0
62.16,-8.702422,4.2192025,-0.20271195,1002.9529,0,0
62.2,-8.64456,4.119092500000002,-0.3636356,1002.9424,0,0
62.24,-9.002995,4.0666595,-0.562476,1002.9526,0,0
62.28,-8.668357,4.0571246,-0.652425,1002.96515,0,0
62.32,-9.031571,4.0332913,-0.51038826,1002.96014,0,0
62.36,-8.864234,3.9856243,-0.38728964,1002.9574,0,0
62.4,-8.897635000000003,4.2048845,-0.48197252,1002.9499,0,0
62.44,-8.888028,4.2906814,-0.52457774,1002.9348,0,0
62.48,-8.577291,4.386011,-0.32572818,1002.96765,0,0
62.52,-8.849689,4.0904837,-0.22630104,1002.94995,0,0
62.56,-9.093411,3.9617853,-0.39673528,1002.96246,0,0
62.6,-8.720532,4.161979,-0.51509047,1002.9524,0,0
62.64,-8.534072,4.371707,-0.22155300000000008,1002.94507,0,0
62.68,-8.792131,4.2716080000000005,-0.264158,1002.9472,0,0
62.72,-8.844662,4.28114,-0.35410732,1002.9574,0,0
62.76,-8.734676,4.4861,-0.51507246,1002.95483,0,0
62.8,-8.500418,4.4575,-0.5860841999999999,1002.9473,0,0
62.84,-8.753694,4.276369,-0.47718793,1002.9521,0,0
62.88,-8.983075999999997,4.119072,-0.24519774,1002.94464,0,0
62.92,-8.758378,4.462263,-0.24045898,1002.95483,0,0
62.96,-8.586252,4.4431953,-0.4487679,1002.94214,0,0
63.0,-8.887332,4.47656,-0.3162002,1002.9346,0,0
63.04,-8.495337,4.5623565,-0.368274,1002.9649,0,0
63.08,-8.805977,4.295428299999998,-0.50556743,1002.9524,0,0
63.12,-8.901522,4.233462,-0.23096727,1002.95233,0,0
63.16,-8.868012,4.4574885,-0.45821407,1002.96234,0,0
63.2,-8.559332000000001,4.638667,-0.53888255,1002.96234,0,0
63.24,-8.506785,4.5910025,-0.25008678,1002.9346,0,0
63.28,-8.659771000000001,4.4575396,-0.6619829,1002.9574,0,0
63.32,-8.889233,4.185847,-0.34478065,1002.95465,0,0
63.36,-8.487761500000001,4.319311,-0.38739324,1002.94464,0,0
63.4,-8.932315,4.4909077,-0.3684585,1002.9396,0,0
63.44,-8.392225999999999,4.757836,-0.65252554,1002.9396,0,0
63.48,-8.650371,4.7721357000000015,-0.3258547,1002.9646,0,0
63.52,-8.559582,4.6386733,-0.30218518,1002.92926,0,0
63.56,-8.851181,4.486144,-0.23117204,1002.9697,0,0
63.6,-8.569206,4.481378599999998,-0.4252857,1002.95233,0,0
63.64,-8.698291000000001,4.4337134,-0.4063508,1002.942,0,0
63.68,-8.583605,4.643443,-0.42529115,1002.937,0,0
63.72,-8.645775,4.5814786,-0.5199822000000001,1002.9195,0,0
63.76,-8.961273,4.4194164,-0.5910011,1002.9495,0,0
63.8,-8.468987,4.676811,-0.30220553,1002.96466,0,0
63.84,-8.359082,4.6148467,-0.34481785,1002.95715,0,0
63.88,-8.846652,4.405119,-0.56260324,1002.9572,0,0
63.92,-8.798884,4.5290504,-0.59101254,1002.9549,0,0
63.96,-8.579044999999999,4.6339154,-0.5247338,1002.94714,0,0
64.0,-8.698572,4.5814843000000005,-0.47739264,1002.95465,0,0
64.04,-8.49785,4.5099860000000005,-0.29748800000000003,1002.9749,0,0
64.08,-8.56958,4.6053180000000005,-0.34956932,1002.9421,0,0
64.12,-8.517031,4.4480224,-0.6809804,1002.97217,0,0
64.16,-8.82775,4.390825,-0.53421676,1002.94464,0,0
64.2,-8.597083,4.519491,-0.49622843,1002.92694,0,0
64.24,-8.520589,4.6243553,-0.638259,1002.9446,0,0
64.28,-8.702202999999999,4.600522,-0.29264559999999995,1002.9518,0,0
64.32,-8.515771,4.548089,-0.5909113,1002.95715,0,0
64.36,-8.62091,4.576688,-0.54830027,1002.9396,0,0
64.4,-8.788183,4.4575239999999985,-0.6619241,1002.94434,0,0
64.44,-8.678229,4.4956555,-0.4204677,1002.95966,0,0
64.48,-8.391421000000001,4.6624846,-0.5009508,1002.95184,0,0
64.52,-8.530016,4.5194874,-0.5482931,1002.92426,0,0
64.56,-8.262329,4.357424,-0.29263365,1002.9545,0,0
64.6,-8.620795,4.252559,-0.5340865,1002.9521,0,0
64.64,-8.549082,4.2239594,-0.79921156,1002.94434,0,0
64.68,-8.3244095,4.309757,-0.42992616,1002.95715,0,0
64.72,-8.467788,4.2525578,-0.482003,1002.9446,0,0
64.76,-8.515566,4.3478894,-0.3873132,1002.9495,0,0
64.8,-8.195302,4.4336863,-0.36837393,1002.9495,0,0
64.84,-8.300438,4.4193864000000005,-0.58142036,1002.9549,0,0
64.88,-8.276521,4.209657,-0.6524348000000001,1002.9545,0,0
64.92,-8.53461,4.1476917,-0.5151353,1002.95233,0,0
64.96,-8.262143,4.133392,-0.6476969,1002.95715,0,0
65.0,-8.214326,4.3860188,-0.41097492,1002.937,0,0
65.04,-8.075693,4.2716208,-0.3920356,1002.9467,0,0
65.08,-8.300324,4.309753,-0.19318886,1002.9392,0,0
65.12,-8.281189,4.223954,-0.33995384,1002.96234,0,0
65.16,-8.123435,4.3907833,-0.48198417,1002.9569,0,0
65.2,-8.177228999999999,4.2192173,-0.3258601,1002.98505,0,0
65.24,-8.215497000000001,4.1524863,-0.41581658,1002.97217,0,0
65.28,-8.182068,4.262117400000001,-0.59099215,1002.9545,1,3
65.32,-8.167757,4.2811847,-0.67147964,1002.9342,1,3
65.36,-8.206023,4.238286,-0.40162116,1002.97723,1,3
65.4,-7.8236732,4.395583599999998,-0.4016243,1002.942,1,3
65.44,-8.072252,4.2954865,-0.472643,1002.9392,1,3
65.48,-8.277813,4.1477237,-0.5720683000000001,1002.9421,1,3
65.52,-8.359099,4.076226,-0.5720708999999999,1002.9747,1,3
65.56,-8.053224,4.243056299999999,-0.48685455,1002.9544,1,3
65.6,-7.986335799999999,4.3574543,-0.6478269,1002.9695,1,3
65.64,-8.1202,4.266891,-0.6099545,1002.9444,1,3
65.68,-8.354439,4.090529,-0.35903364,1002.9569,1,3
65.72,-8.201516999999999,4.076230000000002,-0.55788165,1002.96216,1,3
65.76,-8.158527000000001,4.290725,-0.29749194,1002.9621,1,3
65.8,-8.005602,4.3431582,-0.52948034,1002.9873,1,3
65.84,-8.101231,4.3002605,-0.5768274,1002.97473,1,3
65.88,-8.321132,4.0714663999999985,-0.41112602,1002.9719,1,3
65.92,-7.9961343,4.24783,-0.4774103,1002.9747,1,3
65.96,-7.9292455,4.1763325,-0.6241795,1002.997,1,3
66.0,-8.3976965,4.1048345999999984,-0.65258867,1002.98944,1,3
66.04,-8.039242,4.2525983,-0.81829566,1003.01733,1,3
66.08,-8.235244,4.2097,-0.69520396,1002.9971,1,3
66.12,-8.044081,4.1048365,-0.4490175,1003.00476,1,3
66.16,-8.216183000000001,3.9904401,-0.49162987,1002.9996,1,3
66.2,-8.434947,4.042845,-0.5578102,1003.002,1,3
66.24,-8.100347,4.3526707,-0.62409055,1002.9948,1,3
66.28,-8.315423,4.4051023,-0.6477611999999999,1002.9973,1,3
66.32,-8.310627,4.3669696,-0.86080796,1003.01996,1,3
66.36,-8.181560000000001,4.2954707,-0.5767424,1003.0349,1,3
66.4,-8.425313000000001,4.257338,-0.54360014,1003.05,1,3
66.44,-8.587811,4.2049059999999985,-0.7140373000000001,1003.0195,1,3
66.48,-8.396605000000001,4.3574347,-0.53886306,1003.035,1,3
66.52,-8.516084,4.452766,-0.68562824,1003.0199,1,3
66.56,-8.530408,4.443232,-0.60987633,1003.0196,1,3
66.6,-8.520833999999999,4.3908,-0.5341245,1003.05,1,3
66.64,-8.635535,4.381266,-0.62881136,1003.0476,1,3
66.68,-8.463447,4.4384646,-0.59093463,1003.08026,1,3
66.72,-8.363056,4.3097677,-0.42049468,1003.0574,1,3
66.76,-8.817121499999997,4.371732,-0.51044697,1003.04987,1,3
66.8,-8.291329,4.45753,-0.7234939,1003.08026,1,3
66.84,-8.573323,4.438463,-0.70928925,1003.07996,1,3
66.88,-8.343879,4.443229,-0.45836452,1003.07996,1,3
66.92,-8.678448,4.4813614,-0.4299566,1003.04974,1,3
66.96,-8.683213,4.457528599999999,-0.5246434,1003.0849,1,3
67.0,-8.606722,4.486127400000001,-0.5104388,1003.1229,1,3
67.04,-8.458533000000001,4.576691,-0.7992362,1003.1026,1,3
67.08,-8.750086999999999,4.4384613,-0.5483113000000001,1003.0651,1,3
67.12,-8.668814,4.400328599999999,-0.56251305,1003.10254,1,3
67.16,-8.874332,4.400328,-0.12221219,1003.0999,1,3
67.2,-8.659951,4.6243734000000005,-0.25010622,1003.1,1,3
67.24,-8.793799,4.562408400000002,-0.52943724,1003.0949,1,3
67.28,-8.702996,4.638674,-0.34006238,1003.11786,1,3
67.32,-8.554836,4.6434407,-0.28798509999999994,1003.1427,1,3
67.36,-8.487932,4.4480124000000005,-0.633598,1003.14526,1,3
67.4,-8.922908999999997,4.3479147000000005,-0.37320697,1003.1552,1,3
67.44,-8.550096,4.3526816,-0.39214572,1003.1401,1,3
67.48,-8.631369,4.376515,-0.48683524,1003.158,1,3
67.52,-8.502327000000001,4.428947,-0.44896123,1003.1606,1,3
67.56,-8.693532000000001,4.4527807,-0.3637431,1003.1405,1,3
67.6,-8.526255,4.64821,-0.534183,1003.15515,1,3
67.64,-8.574066,4.524279,-0.5436529999999999,1003.1631,1,3
67.68,-8.894325,4.319318,-0.07021388,1003.1778,1,3
67.72,-8.554974000000001,4.462315,-0.40635785,1003.20044,1,3
67.76,-8.707942,4.543347,-0.4489688,1003.18567,1,3
67.8,-8.84179,4.624378,-0.38268834,1003.2183,1,3
67.84,-8.540675,4.6053123,-0.51998734,1003.2083,1,3
67.88,-8.860937,4.543348,-0.46317574,1003.19775,1,3
67.92,-8.741455,4.4956827000000015,-0.21698798,1003.2234,1,3
67.96,-8.841845,4.3908185999999985,-0.25959894,1003.2004,1,3
68.0,-8.588529,4.529049400000001,-0.4442419,1003.21295,1,3
68.04,-8.717596,4.605314,-0.38269585,1003.23596,1,3
68.08,-8.421263,4.6672797,-0.60047984,1003.2581,1,3
68.12,-8.655486999999999,4.409886,-0.5105274000000001,1003.23303,1,3
68.16,-8.746317,4.2954893,-0.05602573,1003.2209,1,3
68.2,-8.740445,4.2287307,-0.6571952,1003.23303,1,3
68.24,-8.66872,4.3955593,-0.33525312,1003.2607,1,3
68.28,-8.65435,4.6958513,-0.31157827,1003.2306,1,3
68.32,-8.248036,4.60052,-0.36365396,1003.2507,1,3
68.36,-8.850264,4.3574243,-0.429933,1003.2582,1,3
68.4,-8.92671,4.352657,-0.2926325,1003.2456,1,3
68.44,-8.644671,4.6577163,-0.51041234,1003.27325,1,3
68.48,-8.740238,4.7149142999999984,-0.42519042,1003.29333,1,3
68.52,-8.4868765,4.7625794,-0.22160807,1003.29083,1,3
68.56,-8.462947,4.6529474,-0.24527729,1003.26807,1,3
68.6,-8.835742999999997,4.5480824,-0.37310362,1003.2756,1,3
68.64,-8.601499,4.5957475,-0.6287583999999999,1003.30554,1,3
68.68,-8.372042,4.681545,-0.49145815,1003.3235,1,3
68.72,-8.582322,4.524247,-0.43464252,1003.3009,1,3
68.76,-8.496258000000001,4.5862120000000015,-0.27367017,1003.3461,1,3
68.8,-8.515346000000001,4.467047,-0.44410595,1003.3359,1,3
68.84,-8.955057,4.4146147,-0.43936875,1003.3486,1,3
68.88,-8.563083,4.5480776,-0.32574025,1003.35065,1,3
68.92,-8.204568,4.8197703,-0.3683470999999999,1003.3787,1,3
68.96,-8.534346000000001,4.648174,-0.56245506,1003.3385,1,3
69.0,-8.835443,4.4432106,-0.38254493,1003.34827,1,3
69.04,-8.69202,4.533775,-0.5719185,1003.341,1,3
69.08,-8.572496000000001,4.781635,-0.60979116,1003.3511,1,3
69.12,-8.639381,4.7196690000000014,-0.54824096,1003.36584,1,3
69.16,-8.844883,4.672003,-0.5482381,1003.3637,1,3
69.2,-8.400519000000001,4.7578044,-0.48197097,1003.3809,1,3
69.24,-8.773322,4.6624727,-0.64767313,1003.3838,1,3
69.28,-8.586886999999999,4.6910715,-0.5861238000000001,1003.37085,1,3
69.32,-8.529509,4.5290084,-0.49143377,1003.3862,1,3
69.36,-8.625082,4.4670424,-0.49143168,1003.3935,1,3
69.4,-8.400408,4.543307,-0.4961640000000001,1003.411,1,3
69.44,-8.625036,4.6005054,-0.37306738,1003.3984,1,3
69.48,-8.548536,4.724435,-0.5861135000000001,1003.42615,1,3
69.52,-8.386002000000001,4.667235400000001,-0.81809735,1003.4035,1,3
69.56,-8.720566999999999,4.4146075,-0.67606324,1003.4109,1,3
69.6,-8.644061,4.3812413,-0.49615327,1003.4261,1,3
69.64,-8.648825,4.4718046,-0.34465072,1003.4315,1,3
69.68,-8.663141,4.6005015,-0.2973046,1003.42865,1,3
69.72,-8.7634945,4.7005987000000005,-0.45827246,1003.4109,1,3
69.76,-8.768251,4.7625637,-0.8275539000000001,1003.43365,1,3
69.8,-8.438421,4.795929,-0.8417549999999999,1003.4638,1,3
69.84,-8.467077,4.633866,-0.60029817,1003.4511,1,3
69.88,-8.691709,4.4861016,-0.4819362,1003.4791,1,3
69.92,-8.744261,4.5147010000000005,-0.65237254,1003.4611,1,3
69.96,-8.682102,4.5003996,-0.66657376,1003.49927,1,3
70.0,-8.395292,4.519466,-0.46772686,1003.4738,1,3
70.04,-8.6008005,4.3764687,-0.55294394,1003.4687,1,3
70.08,-8.600778,4.4860989999999985,-0.543473,1003.4814,1,3
70.12,-8.509941,4.652928,-0.7896602,1003.48627,1,3
70.16,-8.600733,4.686293599999999,-0.7375795999999999,1003.4814,1,3
70.2,-8.59732,4.548096,-0.6288133,1003.4938,1,3
70.24,-8.755086,4.4146338,-0.35895523,1003.50903,1,3
70.28,-8.645182,4.5385647,-0.50572467,1003.50397,1,3
70.32,-8.444463,4.695862,-0.64302534,1003.50397,1,3
70.36,-8.731285,4.7244625,-0.7661231,1003.52136,1,3
70.4,-8.879488,4.581466000000002,-0.7187816999999999,1003.50385,1,3
70.44,-8.559273,4.614833,-0.6098932,1003.5136,1,3
70.48,-8.650124,4.548102,-0.3684418,1003.52136,1,3
70.52,-8.540221,4.6482005,-0.51047695,1003.5367,1,3
70.56,-8.72667,4.500438,-0.74246615,1003.52875,1,3
70.6,-8.846193,4.4766064000000005,-0.6477805,1003.51636,1,3
70.64,-8.263089,4.6386695,-0.54836106,1003.5313,1,3
70.68,-8.578586999999999,4.538573,-0.5483639,1003.52625,1,3
70.72,-8.521265,4.4098763,-0.5767734999999999,1003.53143,1,3
70.76,-9.047076,4.2859473,-0.628855,1003.53656,1,3
70.8,-8.22976,4.719704,-0.71407706,1003.54144,1,3
70.84,-8.435324000000001,4.6958723,-0.47735968,1003.5515,1,3
70.88,-8.698243,4.4670787,-0.7566924,1003.54663,1,3
70.92,-8.875132,4.3240824,-0.7282890999999999,1003.5641,1,3
70.96,-8.860823,4.543345,-0.7472295999999999,1003.59924,1,3
71.0,-8.631425,4.843639,-0.51998127,1003.5614,1,3
71.04,-8.454606,4.9008384000000005,-0.5673283,1003.58636,1,3
71.08,-8.555014,4.6958769999999985,-0.6951602,1003.5818,1,3
71.12,-8.846616000000003,4.4146514,-0.39216137,1003.59174,1,3
71.16,-8.703251,4.3479199999999985,-0.64308757,1003.5917,1,3
71.2,-8.615296,4.371706,-0.46300447,1003.5868,1,3
71.24,-8.749082000000001,4.290673,-0.51507854,1003.5893,1,3
71.28,-8.576965,4.5099335,-0.519809,1003.60394,1,3
71.32,-8.33793,4.6052637,-0.61922735,1003.619,1,3
71.36,-8.6533575,4.5957300000000005,-0.49139473,1003.6115,1,3
71.4,-8.667648,4.481331,-0.6712977,1003.6193,1,3
71.44,-8.782321000000001,4.3812323,-0.5055896,1003.6395,1,3
71.48,-8.462019999999999,4.6481580000000005,-0.64288235,1003.61414,1,3
71.52,-8.543239999999999,4.6386237,-0.62867576,1003.63184,1,3
71.56,-8.691371,4.49086,-0.73282874,1003.6443,1,3
71.6,-8.686544,4.562357,-0.77543426,1003.6265,1,3
71.64,-8.829892999999998,4.6386213,-0.46295932,1003.6595,1,3
71.68,-8.657775,4.63862,-0.55764323,1003.6518,1,3
71.72,-8.437858,4.5528207,-0.8937818000000001,1003.64417,1,3
71.76,-8.911007000000003,4.514687,-0.8132921999999999,1003.6718,1,3
71.8,-8.571596000000001,4.63385,-1.210978,1003.6544,1,3
71.84,-8.533319,4.5432844,-0.61443967,1003.6718,1,3
71.88,-8.547602000000001,4.376453400000001,-0.36351097,1003.68445,1,3
71.92,-8.676611999999999,4.319254,-0.4392573,1003.6868,1,3
71.96,-8.667017,4.357385,-0.67124,1003.68695,1,3
72.0,-8.772133,4.362151,-0.6475643,1003.6997,1,3
72.04,-8.552217,4.648143,-0.8416707,1003.7173,1,3
72.08,-8.466124,4.6624413,-0.49131957,1003.69904,1,3
72.12,-8.824566,4.3955126,-0.22618899,1003.72217,1,3
72.16,-8.934461,4.333547,-0.3871551,1003.7248,1,3
72.2,-8.711561999999999,4.500419,-0.4393939,1003.7019,1,3
72.24,-8.64945,4.5290194,-0.62403804,1003.7145,1,3
72.28,-8.821558,4.762582,-0.56722826,1003.7421,1,3
72.32,-8.898052999999997,4.505188,-0.6051052,1003.7421,1,3
72.36,-8.568275,4.567154,-0.88917214,1003.75226,1,3
72.4,-8.544406,4.6100535,-0.62878263,1003.73206,1,3
72.44,-8.912471,4.4622912,-0.6713939999999999,1003.74207,1,3
72.48,-8.620931,4.414625599999999,-0.51989573,1003.7622,1,3
72.52,-8.630522000000001,4.371728,-0.4252105,1003.73175,1,3
72.56,-8.587531,4.500425,-0.83710617,1003.7496,1,3
72.6,-8.616234,4.4670596,-0.89392126,1003.777,1,3
72.64,-8.625822,4.486127,-0.6003908,1003.75433,1,3
72.68,-8.592386999999999,4.381263,-0.5104393,1003.79706,1,3
72.72,-8.597195,4.490895,-0.5199107,1003.7847,1,3
72.76,-8.716717,4.6624913,-0.62407,1003.7923,1,3
72.8,-8.487311,4.824555,-0.82765174,1003.7924,1,3
72.84,-8.611611,4.7292247000000005,-0.9696861,1003.7847,1,3
72.88,-8.621189999999999,4.600528,-0.818187,1003.79706,1,3
72.92,-8.812411,4.4861309999999985,-0.53885967,1003.81464,1,3
72.96,-8.501757000000001,4.667261,-0.45364344,1003.8124,1,3
73.0,-8.635614,4.695861,-0.51992726,1003.82495,1,3
73.04,-8.563944000000001,4.6434298,-0.8229315999999999,1003.8276,1,3
73.08,-8.511394000000001,4.691096,-0.7377147,1003.8375,1,3
73.12,-8.597458,4.5433330000000005,-0.8844837999999999,1003.8146,1,3
73.16,-8.387172,4.595766,-0.60042185,1003.83014,1,3
73.2,-8.558195,4.390778,-0.55298173,1003.8421,1,3
73.24,-8.38132,4.5623736,-0.78496563,1003.8598,1,3
73.28,-8.864063999999997,4.619572,-0.6003223000000001,1003.8397,1,3
73.32,-8.371735000000001,4.8578997,-0.97433937,1003.8702,1,3
73.36,-8.577246,4.652937400000001,-0.56717867,1003.8674,1,3
73.4,-8.582007,4.414609,-0.46302012,1003.8877,1,3
73.44,-8.782743,4.4622746,-0.74708295,1003.8877,1,3
73.48,-8.734931,4.6243367,-0.7660193000000001,1003.86487,1,3
73.52,-8.448127000000001,4.8149986,-0.79442424,1003.90796,1,3
73.56,-8.543706,4.7053676,-0.8843763000000001,1003.8851,1,3
73.6,-8.730102,4.6052694,-0.68552977,1003.8975,1,3
73.64,-8.744429,4.538537,-0.5624342,1003.92523,1,3
73.68,-8.596233999999999,4.6243349999999985,-0.7754806,1003.89996,1,3
73.72,-8.385907000000001,4.6100345,-0.58136845,1003.8974,1,3
73.76,-8.495826,4.5242357,-0.8180871999999999,1003.92505,1,3
73.8,-8.749145,4.386006,-0.7423357,1003.9352,1,3
73.84,-8.486233,4.5480684999999985,-0.8843658000000001,1003.9201,1,3
73.88,-8.256788,4.652932,-0.6145033000000001,1003.95776,1,3
73.92,-8.682172999999999,4.462269999999998,-0.6665803000000001,1003.9552,1,3
73.96,-8.772977000000001,4.414603,-0.61450076,1003.9428,1,3
74.0,-8.839875,4.5575995,-0.66657734,1003.96277,1,3
74.04,-8.553071000000001,4.5671325,-0.67131037,1003.92737,1,3
74.08,-8.615192,4.6862965,-0.5860896,1003.9477,1,3
74.12,-8.586497,4.6433964,-0.8133395,1003.9678,1,3
74.16,-8.811131,4.6386294,-0.6902434000000001,1003.9452,1,3
74.2,-8.625083,4.695837,-0.7991680999999999,1003.9502,1,3
74.24,-8.548605,4.7244367999999985,-0.998013,1003.96747,1,3
74.28,-8.735017,4.4956417,-0.89859045,1003.97815,1,3
74.32,-8.6680975,4.4670424,-0.23103926,1003.99054,1,3
74.36,-8.639418,4.533774,-0.4251497,1003.9954,1,3
74.4,-8.424325,4.5147085,-0.69501066,1003.9829,1,3
74.44,-8.596397,4.457509,-0.5813848,1003.99054,1,3
74.48,-8.400423,4.6100388,-1.01695,1004.0282,1,3
74.52,-8.68243,4.5814395,-0.8370424999999999,1003.99554,1,3
74.56,-8.572494500000001,4.5719066,-0.60032207,1004.0232,1,3
74.6,-8.553372999999999,4.5957394,-0.48196188,1004.02057,1,3
74.64,-8.639408999999999,4.586206,-0.66660357,1004.02094,1,3
74.68,-8.58205,4.714903400000002,-0.7470884,1004.0105,1,3
74.72,-8.739780999999999,4.6100388,-0.9601365,1004.0131,1,3
74.76,-8.629846,4.7053699999999985,-0.7849634,1004.01044,1,3
74.8,-8.844936,4.495641,-0.5435085999999999,1004.03314,1,3
74.84,-8.720659,4.7101364000000014,-0.5198364999999999,1004.0483,1,3
74.88,-8.17098,4.8197675,-0.6760716999999999,1004.0256,1,3
74.92,-8.749336,4.4718084000000005,-0.71394676,1004.05865,1,3
74.96,-8.687198,4.223947,-0.8654476000000001,1004.04614,1,3
75.0,-8.763672999999999,4.3669443,-0.8228378000000001,1004.07367,1,3
75.04,-8.534241,4.4956407999999985,-0.5955863,1004.07623,1,3
75.08,-8.505561,4.633871599999999,-0.4488197,1004.03357,1,3
75.12,-8.429082000000001,4.581439,-0.4961635999999999,1004.08655,1,3
75.16,-8.773227,4.4050765,-0.52930427,1004.0788,1,3
75.2,-8.539747,4.471826,-0.58618397,1004.0713,1,3
75.24,-8.687948,4.533792,-0.5625145,1004.0913,1,3
75.28,-8.53502,4.681556,-0.72822106,1004.09155,1,3
75.32,-8.831396,4.614825,-0.45362815,1004.0913,1,3
75.36,-8.535074,4.8960524,-0.46309927,1004.1092,1,3
75.4,-8.525544,4.867454,-0.52464926,1004.1042,1,3
75.44,-8.645066,4.7673564000000015,-0.29266584,1004.12683,1,3
75.48,-8.764588,4.5957620000000015,-0.47257578,1004.1218,1,3
75.52,-8.645123,4.695859400000002,-0.6288136999999999,1004.124,1,3
75.56,-8.525653,4.705394,-0.44890875,1004.1419,1,3
75.6,-8.554359,4.7339935,-0.63355315,1004.1344,1,3
75.64,-8.42533,4.7149277000000005,-0.5720082,1004.12427,1,3
75.68,-8.583092,4.733994999999998,-0.5814795,1004.1647,1,3
75.72,-8.406266,4.662497,-0.73771733,1004.13184,1,3
75.76,-8.497110000000001,4.5814667,-0.6903758000000001,1004.1519,1,3
75.8,-8.506697,4.524268,-0.73298806,1004.1395,1,3
75.84,-8.860432000000003,4.5862346,-0.515208,1004.147,1,3
75.88,-8.564111,4.7196984,-0.65724266,1004.16205,1,3
75.92,-8.4589815,4.624368,-0.66671383,1004.152,1,3
75.96,-8.487688,4.6053023,-0.5341531,1004.1747,1,3
76.0,-8.8318615,4.5290384,-0.6761878000000001,1004.1622,1,3
76.04,-8.793652,4.7292347,-0.7330032,1004.19244,1,3
76.08,-8.669404,4.905597,-0.75194335,1004.18256,1,3
76.12,-8.573836,5.029529,-0.55310094,1004.175,1,3
76.16,-7.914251299999999,5.0104637,-0.57677555,1004.17255,1,3
76.2,-8.477153,4.571913,-0.642955,1004.20807,1,3
76.24,-9.218005,4.147689,-0.813392,1004.20306,1,3
76.28,-8.601394,4.457515,-0.8844065000000001,1004.2278,1,3
76.32,-8.510558999999999,4.6815424000000005,-0.9270145,1004.2102,1,3
76.36,-8.305010000000001,4.8054724,-0.77551204,1004.20807,1,3
76.4,-8.247634,4.843604599999999,-0.5103837,1004.21545,1,3
76.44,-8.367111999999999,4.719673,-0.95541614,1004.2131,1,3
76.48,-8.787718,4.486111599999999,-1.0690402,1004.2131,1,3
76.52,-8.907193,4.3431144,-0.9412097,1004.2305,1,3
76.56,-8.433978,4.524243,-0.81811374,1004.2228,1,3
76.6,-8.371822,4.7387385,-0.898597,1004.2107,1,3
76.64,-8.620353,4.7292047,-0.8323135,1004.2454,1,3
76.68,-8.830648,4.667237999999998,-0.7044831,1004.2784,1,3
76.72,-8.7206955,4.7006044000000005,-0.9459361,1004.2406,1,3
76.76,-8.601182000000001,4.8007016,-0.9222625,1004.2481,1,3
76.8,-8.462551,4.7292027,-0.90332335,1004.26074,1,3
76.84,-8.782781,4.6624703,-0.80389917,1004.2659,1,3
76.88,-8.572452,4.681536,-0.90805453,1004.271,1,3
76.92,-8.629791,4.7387347,-0.8607087999999999,1004.2559,1,3
76.96,-8.601094999999999,4.6910680000000005,-0.77075356,1004.2582,1,3
77.0,-8.510267,4.7149014000000005,-0.7802213000000001,1004.29395,1,3
77.04,-8.777913999999999,4.643402,-0.65712476,1004.2738,1,3
77.08,-8.863931,4.7101336,-0.88910884,1004.3014,1,3
77.12,-8.7492,4.7816315000000005,-0.74707514,1004.3064,1,3
77.16,-8.577108,4.8435964999999985,-0.80862075,1004.2863,1,3
77.2,-8.798359,4.7387657,-0.6951213,1004.2888,1,3
77.24,-8.932231,4.810265,-0.6099055,1004.3291,1,3
77.28,-9.147358,4.8245654,-0.60517436,1004.29913,1,3
77.32,-8.879726,4.896065,-0.7850852,1004.3065,1,3
77.36,-9.204789,4.8960657,-0.69040036,1004.3144,1,3
77.4,-8.693391,4.9341993,-0.63832563,1004.3115,1,3
77.44,-8.707763,4.843636,-0.5815158,1004.30414,1,3
77.48,-9.137986,4.6529737,-0.65727,1004.33685,1,3
77.52,-9.22884,4.800738,-0.44895968,1004.35474,1,3
77.56,-9.185856,4.8293386,-0.52471316,1004.3219,1,3
77.6,-8.975584,4.8960714,-0.56259215,1004.3371,1,3
77.64,-9.028197,4.910372,-0.2595935,1004.34216,1,3
77.68,-9.028237,4.8007417000000006,-0.59100544,1004.3221,1,3
77.72,-9.348521,4.8388753,-0.61468077,1004.37476,1,3
77.76,-9.08089,4.848408999999998,-0.58154345,1004.3848,1,3
77.8,-9.066586,4.8484099999999986,-0.2548728,1004.3547,1,3
77.84,-9.190899,4.7912126,-0.4063772,1004.35724,1,3
77.88,-9.238734,5.000942,-0.29748937,1004.3698,1,3
77.92,-8.889851,5.0390754,-0.5105413,1004.365,1,3
77.96,-9.167112,4.9628115,-0.6620453000000001,1004.345,1,3
78.0,-9.162371,4.810282,-0.524751,1004.37256,1,3
78.04,-9.3775,4.7292523,-0.6573178000000001,1004.39795,1,3
78.08,-9.219805,4.9056153,-0.47267956,1004.3804,1,3
78.12,-9.009528,5.0152473,-0.5058237,1004.3777,1,3
78.16,-9.038245,4.9532824,-0.53896797,1004.40796,1,3
78.2,-9.285629,4.800724,-0.652487,1004.4003,1,3
78.24,-9.27128,4.7006264,-0.42050028,1004.3728,1,3
78.28,-9.151774,4.8054904999999986,-0.63828194,1004.39545,1,3
78.32,-9.118306,4.857922,-0.54359305,1004.3679,1,3
78.36,-9.080059,4.81979,-0.4678416,1004.4206,1,3
78.4,-9.170864,4.8007225999999985,-0.47257507,1004.38544,1,3
78.44,-8.802809,4.991385,-0.76610726,1004.40826,1,3
78.48,-9.084808,4.786423,-0.64774615,1004.40826,1,3
78.52,-9.166054,4.6577253,-0.562526,1004.40576,1,3
78.56,-9.328558,4.643426,-0.5199155,1004.41833,1,3
78.6,-9.027419,4.8483877,-0.72822833,1004.3932,1,3
78.64,-8.783641000000001,4.8102546,-0.5104448,1004.3883,1,3
78.68,-8.759730000000001,4.753056,-0.6903513000000001,1004.4136,1,3
78.72,-9.266381,4.6243587,-0.56725585,1004.4237,1,3
78.76,-8.941343,4.8102540000000005,-0.7424279,1004.4214,1,3
78.8,-8.950895,4.84362,-0.59092605,1004.406,1,3
78.84,-8.903086,4.7959538,-0.4772994,1004.3859,1,3
78.88,-9.008231,4.919884,-0.2595159,1004.4162,1,3
78.92,-8.702314,4.8007197,-0.5719857,1004.4062,1,3
78.96,-8.754881,4.6767892999999985,-0.8607834000000001,1004.3989,1,3
79.0,-8.836128,4.5671587,-0.78976655,1004.42676,1,3
79.04,-8.969953,4.557625,-0.6145925,1004.3862,1,3
79.08,-8.855228,4.60529,-0.51990366,1004.42676,1,3
79.12,-8.635346,4.6624885,-0.4678242,1004.40656,1,3
79.16,-8.78351,4.743519999999998,-0.8797165000000001,1004.40155,1,3
79.2,-8.573411,4.9580199999999985,-0.83239186,1004.3941,0,0
79.24,-8.563849000000001,4.9103546,-0.33527926,1004.40405,0,0
79.28,-8.401335000000001,4.7959566,-0.4725768,1004.39905,0,0
79.32,-8.812397,4.6052947,-0.5341239999999999,1004.4067,0,0
79.36,-8.707239999999999,4.686326,-0.69035923,1004.4222,0,0
79.4,-8.745477000000001,4.8340893,-0.52938926,1004.4017,0,0
79.44,-8.343973,4.924654,-0.65721816,1004.40674,0,0
79.48,-8.281835000000001,4.9723196,-0.48204505,1004.4222,0,0
79.52,-8.473024,4.94372,-0.6714211999999999,1004.4245,0,0
79.56,-8.7311325,4.857922,-0.58146733,1004.4222,0,0
79.6,-8.430003999999998,4.8674555,-0.567264,1004.42474,0,0
79.64,-8.425222,4.962786,-0.6288111999999999,1004.4197,0,0
79.68,-8.210131,5.0104523,-0.6098734,1004.4147,0,0
79.72,-8.458679,4.953253299999999,-0.85132796,1004.43,0,0
79.76,-8.487356,4.80549,-0.6524828,1004.3946,0,0
79.8,-8.439557,4.9198875,-0.66195154,1004.44226,0,0
79.84,-8.444336,4.94372,-0.8276556,1004.43994,0,0
79.88,-8.3009405,5.101016,-0.79924905,1004.4073,0,0
79.92,-8.530369,5.158215,-0.39682457,1004.4272,0,0
79.96,-8.128865,5.158215,-0.58620054,1004.42755,0,0
80.0,-8.061947,5.134382,-0.60513806,1004.39984,0,0
80.04,-8.42043,5.1296153,-0.56726277,1004.46533,0,0
80.08,-8.473007,5.062884,-0.74717,1004.42505,0,0
80.12,-8.277033,5.1486816,-0.63827866,1004.42004,0,0
80.16,-8.257914,5.1486816,-0.5199182999999999,1004.43256,0,0
80.2,-8.162221,5.2583103,-0.57198805,1004.42755,0,0
80.24,-8.348628999999999,5.1677456,-0.5625188,1004.4099,0,0
80.28,-8.42988,5.105779599999999,-0.69508165,1004.4201,0,0
80.32,-8.181326,5.182045,-0.74242514,1004.42786,0,0
80.36,-8.444208999999999,5.0438147,-0.7613623,1004.4354,0,0
80.4,-8.257792,5.0962467,-0.5814545,1004.41754,0,0
80.44,-8.276907000000001,5.101013,-0.67140776,1004.4251,0,0
80.48,-8.324699,5.191577,-0.6524696999999999,1004.42786,0,0
80.52,-8.104824,5.1677446,-0.78976697,1004.42285,0,0
80.56,-8.520661,4.9913816,-0.74242246,1004.4352,0,0
80.6,-8.3677025,4.953249,-0.7802973000000001,1004.4632,0,0
80.64,-8.372478,4.953249,-0.43468526,1004.4432,0,0
80.68,-8.386811999999999,5.005681,-0.53410727,1004.4331,0,0
80.72,-8.305551,5.0485797,-0.2973866,1004.4406,0,0
80.76,-8.114353999999999,5.0771794,-0.18849489,1004.4432,0,0
80.8,-8.597108,4.8912830000000005,-0.628794,1004.4458,0,0
80.84,-8.43937,5.1296115,-0.70927846,1004.42816,0,0
80.88,-8.195596,5.3250403,-0.685606,1004.43054,0,0
80.92,-8.534956,5.1057777,-0.73768395,1004.40546,0,0
80.96,-8.372438,5.0867114,-0.19796138,1004.4355,0,0
81.0,-8.181241,5.129611,-0.24057053,1004.44086,0,0
81.04,-8.281611,5.00568,-0.33999252,1004.4432,0,0
81.08,-8.372423,4.99138,-0.48202428,1004.441,0,0
81.12,-8.511033,4.905582,-0.65246236,1004.43115,0,0
81.16,-8.554047,4.6910870000000005,-0.87497896,1004.4337,0,0
81.2,-9.091341,4.7816997,-0.41592094,1004.45123,0,0
81.24,-7.652695,5.4585524,-0.07978497400000001,1004.41833,0,0
81.28,-7.6431994,5.5062190000000015,-0.58163774,1004.4488,0,0
81.32,-7.867928999999997,5.282193,-0.6384578000000001,1004.42847,0,0
81.36,-8.699682000000001,4.8055396,-0.2833837,1004.42365,0,0
81.4,-9.029567,4.462349400000001,-0.2360468,1004.4412,0,0
81.44,-8.675931,4.7054453,-0.26919398,1004.4206,0,0
81.48,-8.279281,5.458563,-0.4159672,1004.4133,0,0
81.52,-7.901745299999999,5.768391,-0.34495747,1004.42865,0,0
81.56,-7.605471,5.7207274,-0.4680587000000001,1004.44366,0,0
81.6,-8.418111,5.129676,-0.22187643,1004.444,0,0
81.64,-8.422964,5.053413,-0.52961946,1004.4261,0,0
81.68,-8.599886,4.996216,-0.32131198,1004.45123,0,0
81.72,-7.940347,5.1773467,-0.6621958,1004.4313,0,0
81.76,-8.112489,5.2107142999999985,-0.6195925,1004.43115,0,0
81.8,-8.456709,5.105852,-0.5296455,1004.4362,0,0
81.84,-8.213011999999999,5.253617,-0.50124586,1004.4335,0,0
81.88,-8.442514,5.33465,-0.50125253,1004.4261,0,0
81.92,-7.993287599999999,5.3823175,-0.8563396000000001,1004.4236,0,0
81.96,-8.203667999999999,5.277455000000002,-0.44445276,1004.4311,0,0
82.0,-8.404489,5.115394,-0.65750724,1004.4286,0,0
82.04,-8.351989999999999,5.167828,-0.32610609999999995,1004.44116,0,0
82.08,-8.055710000000001,5.1106305,-0.32137802,1004.45654,0,0
82.12,-8.557664,5.1630645,-0.9368573,1004.43616,0,0
82.16,-8.156234,5.477659,-0.4397516,1004.4311,0,0
82.2,-7.653005599999997,5.4966927000000005,-0.65267634,1004.44385,0,0
82.24,-8.733257,5.129668,-0.62900585,1004.4515,0,0
82.28,-7.9541664,5.2202334000000015,-0.6006009,1004.44366,0,0
82.32,-8.207510000000001,5.096303,-0.34967887,1004.4565,0,0
82.36,-8.570793,5.077237599999999,-0.73316723,1004.4366,0,0
82.4,-8.107167,5.1964016,-0.7284341999999999,1004.4188,0,0
82.44,-8.436989,5.0486383,-0.42069933,1004.4466,0,0
82.48,-8.193237,5.348932,-0.065620564,1004.4288,0,0
82.52,-7.710493,5.8017554,-0.64795387,1004.4288,0,0
82.56,-7.9494996,5.7159580000000005,-0.96042615,1004.4161,0,0
82.6,-8.590010000000001,5.1773367,-0.78998893,1004.45435,0,0
82.64,-7.9495315999999985,5.210703400000001,-0.5106606,1004.4644,0,0
82.68,-8.231555,5.0295744,-0.56274045,1004.4366,0,0
82.72,-8.566157,5.1678057,-0.59114826,1004.4391,0,0
82.76,-8.097754,5.2965026,-0.6953068,1004.42413,0,0
82.8,-7.533753,5.658761,-0.25027418,1004.42163,0,0
82.84,-8.22206,5.463333,-0.40177658,1004.4215,0,0
82.88,-8.475406,5.3870683,-0.74265516,1004.43677,0,0
82.92,-8.040461,5.4156685,-0.66690636,1004.4496,0,0
82.96,-8.293807000000001,5.348936599999999,-0.35443708,1004.4669,0,0
83.0,-8.15521,5.348937,-0.69531566,1004.44916,0,0
83.04,-7.9257936,5.472868,-0.799474,1004.4263,0,0
83.08,-8.379891,5.458569000000002,-0.3544414,1004.44135,0,0
83.12,-7.9879656,5.5539002,-0.44913116,1004.42914,0,0
83.16,-7.940183599999999,5.3489385,-0.28816286,1004.4313,0,0
83.2,-8.226231,5.129658999999998,-0.4537992,1004.4213,0,0
83.24,-8.254893,5.105826,-1.0219264,1004.419,0,0
83.28,-8.307457000000001,5.086759,-0.7378608,1004.4418,0,0
83.32,-8.054115,5.377519,-0.4301233,1004.45184,0,0
83.36,-8.288313,5.425184,-0.61002946,1004.45166,0,0
83.4,-8.097105,5.4919150000000005,-0.20286931,1004.4467,0,0
83.44,-8.077972,5.286953400000002,-0.22654,1004.4442,0,0
83.48,-8.422104,5.0962906,-0.41591495,1004.44916,0,0
83.52,-8.144861,5.2631197,-0.72365,1004.4416,0,0
83.56,-8.316923,5.2488199999999985,-0.6336951999999999,1004.4316,0,0
83.6,-8.173513999999999,5.2583528,-0.5958187,1004.42163,0,0
83.64,-7.896273,5.3775163,-0.6242239,1004.42413,0,0
83.68,-8.307321,5.1439548,-0.45378402,1004.4087,0,0
83.72,-8.264289,5.3679830000000015,-0.67156535,1004.42413,0,0
83.76,-8.101761999999999,5.410881,-0.5058600000000001,1004.4442,0,0
83.8,-8.29772,5.2631172999999984,-0.8609391,1004.42377,0,0
83.84,-8.058717,5.4394800000000005,-0.24073084,1004.4085,0,0
83.88,-8.197317,5.3679814000000015,-0.39696488,1004.4669,0,0
83.92,-8.28812,5.27265,-0.46324536,1004.4364,0,0
83.96,-8.216409,5.2154503,-0.20285176,1004.4364,0,0
84.0,-8.206835,5.139185,-0.47271156,1004.42377,0,0
84.04,-8.087326,5.334614,-0.8940723,1004.4288,0,0
84.08,-8.230708,5.3155470000000005,-0.85619587,1004.449,0,0
84.12,-8.5844,5.358446,-0.16023727,1004.4543,0,0
84.16,-7.724021400000002,5.4347105,-0.39222178,1004.4467,0,0
84.2,-8.049475,5.2869577,-0.67159075,1004.4213,0,0
84.24,-8.111614999999999,5.0533967,-0.72840387,1004.43365,0,0
84.28,-8.111619000000001,5.1391945,-0.9793276,1004.4135,0,0
84.32,-8.6852,5.0629300000000015,-0.48694998,1004.4467,0,0
84.36,-8.02081,5.3203239999999985,-0.30230853,1004.4364,0,0
84.4,-8.197668,5.3870559999999985,-0.04665103,1004.4618,0,0
84.44,-7.925223,5.6301503,-0.24549636,1004.42377,0,0
84.48,-8.092572,5.41089,-0.64792585,1004.4211,0,0
84.52,-8.083015,5.4919214000000025,-0.586379,1004.4389,0,0
84.56,-8.226414,5.3203254,-0.628989,1004.43866,0,0
84.6,-8.083022999999999,5.5491204000000005,-0.30231538,1004.444,0,0
84.64,-7.694573399999999,5.6873190000000005,-0.31640086,1004.4135,0,0
84.68,-8.2776575,5.320293,-0.87979037,1004.45416,0,0
84.72,-8.530939,5.1010300000000015,-0.5720496,1004.44916,0,0
84.76,-8.100712,5.244025,-0.54837346,1004.4187,0,0
84.8,-8.028967,5.3298225,-0.5341658,1004.4391,0,0
84.84,-8.162753,5.3536544,-0.44420773,1004.42377,0,0
84.88,-7.947613700000002,5.4156184000000005,-0.6004387,1004.4311,0,0
84.92,-8.4829035,5.448983,-0.4347301,1004.4339,0,0
84.96,-8.062239,5.572913,-0.71405613,1004.4234,0,0
85.0,-8.162566,5.553845,-0.8655526,1004.449,0,0
