Timestamp,Ax,Ay,Az,P,LPFRMSAcc,LPFPValue,Value,Type
0.0,3.6218293,4.2438097,9.244272,1003.0299,0.022442002023240933,3.61090764,0,0
0.02,3.5405445,4.448772,9.72718,1003.0123,0.0656089622741185,10.399350643199998,0,0
0.04,3.3110888,4.6442013,9.755584,1003.0579,0.12700293129244966,19.971189658512,0,0
0.06,3.3349628,5.211422,9.694034,1003.0275,0.20469620203390346,31.96786932967103,0,0
0.08,4.0327873,6.255299,10.371051,1003.101,0.29914108095470804,46.064214757520354,0,0
0.1,4.864446599999999,6.913084,11.213773,1003.0328,0.4107032310517899,61.96483248444092,0,0
0.12,4.86442,6.9941163,12.065963,1003.05304,0.5385009256366269,79.40253585500396,0,0
0.14,5.1272845,7.2848773,11.232706,1003.04065,0.6792819987776574,98.13558776415545,0,0
0.16,6.0302620000000005,7.218155,13.320541,1003.05585,0.8351232076829912,117.94582537513071,0,0
0.18,7.0817770000000015,7.470783,11.133242999999998,1002.995,1.0013335334686566,138.636328356838,0,0
0.2,6.441244599999999,6.274379,9.428853,1002.9599,1.1716729145156637,160.03002164938994,0,0
0.22,2.789435,3.0760202000000003,8.439359,1002.96747,1.3375159766174711,181.96806385675103,0,0
0.24,2.1010988,4.057932,4.1925936,1002.87933,1.4921295362697051,204.30779850929096,0,0
0.26,-0.36532193,1.536425,3.510836,1002.8995,1.6313758195781425,226.92211817364185,0,0
0.28,-4.370837,-0.05560422,2.2136052000000004,1002.8894,1.7587247805087252,249.69761324363708,0,0
0.30000000000000004,-6.316259,-0.63235664,-1.1809667,1002.87427,1.8783390264141573,272.53347665180786,0,0
0.32,-9.537888,-0.33206248,-0.92057824,1002.9126,1.9971963607728616,295.340610403321,0,0
0.34,-10.26446,0.59265065,-0.85430044,1002.95526,2.116472247535408,318.0404065247061,0,0
0.36000000000000004,-9.872555,1.0264082,-0.8969136999999999,1002.93005,2.2349594961916446,340.563549094073,0,0
0.38,-10.474851,1.8319573,-1.607078,1002.92255,2.353961976718824,362.8494902716269,0,0
0.4,-10.059053,2.3467467,-0.8117024,1002.9025,2.4721732703015817,384.8455387311357,0,0
0.42,-9.867899,2.9711664,-0.44242212,1002.97565,2.589164247542306,406.50651555052553,0,0
0.44,-7.817405,4.01981,-1.3987757,1002.96576,2.7017168024599725,427.7934079481565,0,0
0.46,-9.127115,3.428758,-0.89219844,1002.9582,2.8117915221839462,448.67309932208985,0,0
0.48,-9.280106,3.2094972,-1.4413928,1002.9532,2.9195591110576187,469.11780298253785,0,0
0.5,-9.146313,3.2714634,-1.6307728,1002.9381,3.0247443931000344,489.1044962061727,0,0
0.52,-9.351886,3.2571647,-0.6649579999999999,1002.9532,3.1274261135770427,508.6145936722341,0,0
0.54,-8.644517,3.5765254,-1.4982171,1002.91785,3.2265890753036,527.6332075160259,0,0
0.56,-8.859651,3.481195,-1.34672,1002.9407,3.3225757247301315,546.1491616813427,0,0
0.5800000000000001,-9.098682,3.557461,-1.1242067,1002.9381,3.4158676111505515,564.1542989597638,0,0
0.6,-8.998345,3.8529887,-1.517166,1002.941,3.506591246533882,581.6432703827212,0,0
0.62,-9.342533,3.4811980000000005,-1.3041216999999998,1002.97614,3.595029782282285,598.613323862669,0,0
0.64,-9.591123,3.2428713,-1.1478899,1002.96857,3.6814101980751377,615.0637420036451,0,0
0.66,-8.883378,2.9473364,-1.7159879,1002.9611,3.7642605690510393,630.9957619617984,0,0
0.68,-8.835608500000003,2.928271,-2.0047894,1002.95105,3.843706208735851,646.4123338337603,0,0
0.7000000000000001,-9.09852,2.9568708,-1.7633366999999998,1002.94086,3.9202864646632953,661.317919434024,0,0
0.72,-8.969492,3.3858619,-2.4734998,1002.96387,3.9944190354368527,675.7184202924548,0,0
0.74,-8.9743,3.4382944,-2.189438,1002.94354,4.066029330696164,689.6207132819113,0,0
0.76,-9.371048,3.786254,-1.5502957,1002.96643,4.135919258838085,703.0328239475798,0,0
0.78,-9.0364895,3.943551,-1.2709684,1002.9511,4.2034468395094375,715.9634707255537,0,0
0.8,-8.281305,4.129447,-1.6828637999999998,1002.9563,4.267530870266048,728.4221644039592,0,0
0.8200000000000001,-8.290892,4.348709,-1.1715505,1002.9259,4.328403069682897,740.4188795863442,0,0
0.84,-8.778458,4.229546,-1.7018063,1002.94885,4.3871670904548985,751.9642850149887,0,0
0.86,-8.85496,4.1199155,-2.269937,1002.949,4.444137481429531,763.0693502256851,0,0
0.88,-8.869327,3.857756,-2.369362,1002.9463,4.499174870986384,773.7453428650438,0,0
0.9,-9.012749,3.690927,-1.8817211,1002.9538,4.5522258561228846,784.0038004068671,0,0
0.92,-8.840699,3.7099938,-1.2993913,1002.95905,4.602823319560622,793.8564123893573,0,0
0.94,-8.343625999999999,4.06272,-1.8864598,1002.9515,4.650644057892621,803.314922652484,0,0
0.96,-8.668679,4.0055213,-2.2178707,1002.9338,4.69653239246419,812.3910902794338,0,0
0.98,-8.850339,4.0055223,-1.9054024,1002.9338,4.740747865143568,821.0967457496007,0,0
1.0,-8.635273,4.015056,-2.3457046000000004,1002.9313,4.783134882452688,829.4436673183417,0,0
1.02,-8.984227,3.9101925,-1.9432826,1002.9593,4.8241307373799165,837.443663494135,0,0
1.04,-8.754823,3.957859,-1.6923616,1002.9442,4.863264856619447,845.1082620464873,0,0
1.06,-8.4441595,4.091323,-1.5834725,1002.95685,4.900114195828243,852.4489562439783,0,0
1.08,-8.372489999999999,4.1199226000000015,-2.0900564,1002.924,4.9349090656750825,859.4769037944029,0,0
1.1,-8.7405615,4.1437564,-2.3599195,1002.95917,4.968582906589504,866.2033344082984,0,0
1.12,-8.296066,4.281987,-2.4688137,1002.9442,5.000521644202392,872.6390756148662,0,0
1.14,-8.425147,4.1771235,-2.3362525,1002.972,5.030880417904755,878.7948950727766,0,0
1.16,-8.88372,3.9101894,-1.8864578,1002.9468,5.060145687853092,884.681124003524,0,0
1.18,-8.917192,3.89589,-2.165789,1002.9619,5.088508545390293,890.3080066803199,0,0
1.2,-8.984123,3.781493,-1.7965064,1002.9466,5.115852395508235,895.6854191494873,0,0
1.22,-8.855082000000003,3.7195284,-1.9006646,1002.9317,5.14194616230622,900.8229874183054,0,0
1.24,-8.754721,3.7338283,-1.9527444,1002.9797,5.166685846275809,905.7303069059273,0,0
1.26,-8.936367,3.6813965,-1.9101361,1002.9419,5.190422553890799,910.4163761403287,0,0
1.28,-8.91248,3.6527972,-1.8675275,1002.9544,5.213103327062174,914.8901238017404,0,0
1.3,-8.793,3.8148608,-1.8296535,1002.9695,5.2346584103991125,919.1602129896776,0,0
1.32,-8.606602,3.9816906,-1.9006708,1002.9468,5.254961772161182,923.2348955093761,0,0
1.34,-8.945981,3.8672936,-1.9290787,1002.95184,5.274633852331856,927.1222659839481,0,0
1.36,-8.707005,4.0055237,-2.2557537999999995,1002.947,5.293492038544001,930.8301155777374,0,0
1.38,-8.625762,3.9387922,-2.1326606,1002.95435,5.311299885541913,934.3660187227298,0,0
1.4,-8.903004,4.0198245,-1.7823159,1002.9545,5.328552731982359,937.7372612742433,0,0
1.42,-8.630567999999998,4.129455,-1.862802,1002.98486,5.344873862738951,940.9509825481732,0,0
1.44,-8.649702,3.986459,-1.9527569,1002.9775,5.360261018743295,944.0139221286447,0,0
1.46,-8.707073,3.9387937000000006,-2.0616496,1002.9547,5.3748799953489135,946.9325223422861,0,0
1.48,-8.745324,4.000759,-1.9527593,1002.95215,5.388844228906368,949.713068150627,0,0
1.5,-8.687981,4.0722580000000015,-1.7823220000000002,1002.9445,5.402067194780384,952.361591581535,0,0
1.52,-8.797931,4.1103907,-1.8249332,1002.94464,5.414840325288734,954.8839258593918,0,0
1.54,-8.726246000000002,4.172356,-1.9432943,1002.9245,5.4271387401215385,957.2856064942122,0,0
1.56,-8.707141,3.9959943,-1.7113098000000002,1002.9698,5.43869539879404,959.5721945997605,0,0
1.58,-8.630677,4.215256,-1.9811721,1002.9624,5.4497115303541195,961.7488285892633,0,0
1.6,-8.606793,4.1675906000000005,-2.094799,1002.95715,5.460173470674253,963.8204523394674,0,0
1.62,-8.458631500000001,4.105626,-2.090066,1002.9549,5.4697804898261895,965.791823096725,0,0
1.64,-8.692857,4.0627275,-1.6734396,1002.9471,5.478822712700848,967.6674852946901,0,0
1.66,-8.607741,4.0150843,-1.720868,1002.95233,5.487151513622916,969.4518458537508,0,0
1.68,-8.69383,3.9388206,-1.8202951,1002.9724,5.494952472278102,971.1491808386636,0,0
1.7,-8.669977000000001,4.191449,-1.6403922,1002.9675,5.5023674462399175,972.7634919803132,0,0
1.72,-8.574429499999999,4.1199517,-1.6593341,1002.94226,5.509181478674493,974.2985408699457,0,0
1.74,-8.636621,4.2820168,-1.6688077,1002.94464,5.515703389495132,975.7580360256932,0,0
1.76,-8.870880999999997,4.0389233,-1.7066877,1002.955,5.5221767440046,977.145555015619,0,0
1.78,-8.703639,4.0484576,-1.6640828,1002.9323,5.5282657650630895,978.4643990770613,0,0
1.8,-8.72759,3.8244307,-1.7587756,1002.9295,5.53388394160529,979.7178040530744,0,0
1.82,-8.990526,4.119958400000002,-1.630951,1002.9522,5.539758914587528,980.9089565152884,0,0
1.84,-8.670328999999999,4.0103290000000005,-1.7871909,1002.9373,5.545206661746064,982.0407608674457,0,0
1.86,-8.67038,4.034163,-1.79193,1002.92725,5.550279698518951,983.1160145538893,0,0
1.88,-8.488795,3.9578992999999993,-1.9008256,1002.97015,5.554645241094666,984.1375835988364,0,0
1.9,-8.847332000000002,3.862569,-2.0428622,1002.95746,5.559015172917326,985.107993561996,0,0
1.92,-8.75657,3.953135,-2.0333984,1002.9298,5.563275228509625,986.0296063086207,0,0
1.94,-8.747053,3.7434075,-2.09495,1002.94226,5.567260660267961,986.9048288848272,0,0
1.96,-8.809244999999997,3.752942,-1.8440315,1002.9321,5.571007742814682,987.735873729178,0,0
1.98,-8.6898,3.7386436,-1.995537,1002.9296,5.574357815282164,988.5248823682213,0,0
2.0,-8.603812,3.919774,-2.071292,1002.92206,5.577367397743182,989.2738802411542,0,0
2.02,-8.4843645,4.1485696,-2.0523586,1002.94995,5.580035932120925,989.9849286128097,0,0
2.04,-8.584794,4.081839,-1.8961282,1002.9476,5.582452365296375,990.6598765709982,0,0
2.06,-8.360194,4.0341754000000005,-2.2370098,1002.9323,5.58433663958578,991.3004413111979,0,0
2.08,-8.723507000000001,3.938845,-2.023966,1002.92975,5.586231919794277,991.9083098269183,0,0
2.1,-8.886067,4.015111,-1.9387511,1002.925,5.588460077008048,992.485082532032,0,0
2.12,-8.623233,4.0580110000000005,-1.9292873,1002.93506,5.590520688146754,993.0323388131548,0,0
2.14,-8.838374,3.957915,-1.8109318,1002.93475,5.592692516094627,993.5515431434276,0,0
2.16,-8.785405,3.9007068,-1.8250992,1002.94995,5.594813850700698,994.0441463543408,0,0
2.18,-8.713747999999999,3.7815437000000007,-1.7824931,1002.9502,5.596634669579765,994.5114723446277,0,0
2.2,-8.809368,3.7243457,-1.7730267,1002.94763,5.598313364083915,994.9547717572044,0,0
2.22,-8.828522999999997,3.9722078,-1.9718747,1002.94257,5.6001774139204406,995.3752271918312,0,0
2.24,-9.144029,3.7386472,-1.8393149,1002.9325,5.602549417393236,995.773947795977,0,0
2.26,-8.460539,3.8339787,-1.9718803,1002.9299,5.604212595213734,996.1520187497348,0,0
2.28,-8.957683,3.6719172,-1.8061804,1002.9476,5.605975934248582,996.5105463369761,0,0
2.3,-8.866891,3.9007125,-1.7825103999999998,1002.93744,5.607824520340377,996.8504781302491,0,0
2.32,-8.608813,4.02941,-1.8014508,1002.95764,5.609377519817958,997.1728276455163,0,0
2.34,-8.699664,4.1199756,-2.0287056,1002.92236,5.611002596572907,997.4783539936827,0,0
2.36,-8.723592,4.0770773999999985,-1.9245514,1002.9325,5.612648874849642,997.7679520005454,0,0
2.38,-8.780984,3.9007156,-1.8914137,1002.9325,5.614251919207597,998.0424331722072,0,0
2.4,-8.843153,3.8959498,-2.0571208,1002.94006,5.615991954343129,998.3025961920675,0,0
2.42,-8.699792,3.8578184,-2.057124,1002.9148,5.617548970538267,998.5490801701249,0,0
2.44,-8.556431,4.0723143,-1.8062032,1002.96027,5.618751842104942,998.7827536965236,0,0
2.46,-8.5516815,4.186712,-1.900894,1002.9602,5.619767883441429,999.0042664311422,0,0
2.48,-8.446558999999999,4.2868104,-2.0334604,1002.91473,5.620570485699663,999.2140727522992,0,0
2.5,-8.652124,4.1676474,-1.7257273000000002,1002.96783,5.6213259666109145,999.4129711437648,0,0
2.52,-8.613918,4.191481,-1.6310421999999998,1002.94257,5.621954029599588,999.6014243183464,0,0
2.54,-8.719105,4.2343807,-1.9056404,1002.9502,5.6228019730019305,999.7799971358608,0,0
2.56,-8.446691,4.277281,-2.0098004,1002.9275,5.623426335333528,999.9491150877277,0,0
2.58,-8.618794,4.153351,-1.9245842,1002.91986,5.624017374676003,1000.1092423916807,0,0
2.6,-8.475431,4.267749299999998,-2.0192752,1002.9325,5.62445787755015,1000.2608946048442,0,0
2.62,-8.805274,4.0913877,-2.109232,1002.92236,5.625250338963845,1000.4044757758176,0,0
2.64,-8.719269,4.077089,-2.0902975,1002.9527,5.626171985511505,1000.5405177056972,0,0
2.66,-8.528108999999999,4.191487,-1.8109704,1002.9325,5.626838148849592,1000.669335491198,0,0
2.68,-8.475562,4.224853,-1.8772548,1002.95264,5.627236574071292,1000.7913787826981,0,0
2.7,-8.509055,4.1914883000000005,-2.0713687,1002.95776,5.627510185615617,1000.90701520745,0,0
2.72,-8.590345,4.0437255,-2.227607,1002.9325,5.627762753170158,1001.0164832976137,0,0
2.74,-8.915028999999997,3.9340867999999993,-1.9529802,1002.9552,5.628382251093045,1001.1201886822113,0,0
2.76,-8.742975999999999,4.0246515,-1.801481,1002.94257,5.62901970209574,1001.2183833327856,0,0
2.78,-8.656959,3.9340878,-1.7352012,1002.95013,5.629408817055796,1001.311382414035,0,0
2.8,-8.699997,4.1056843,-1.7588751,1002.9248,5.629813247719165,1001.3993647055363,0,0
2.82,-8.881649000000003,3.9293222,-1.938784,1002.9527,5.630487610455685,1001.4826978653673,0,0
2.84,-8.738274,4.115218,-1.9198482,1002.9477,5.631281895344511,1001.5616050530783,0,0
2.86,-8.642697,3.9150236000000014,-1.9719284,1002.95776,5.631853115779022,1001.6363536019487,0,0
2.88,-8.781331,3.9674563,-1.8251638,1002.93744,5.6324673259425415,1001.7070853307636,0,0
2.9,-8.532802,3.9817562,-1.9814008,1002.93506,5.632732776152028,1001.774004595154,0,0
2.92,-8.819613,3.9102585,-1.7683548999999998,1002.91986,5.633075661352791,1001.8372595366264,0,0
2.94,-8.829188,3.938858,-1.9293262,1002.93744,5.633590221639794,1001.8971122525796,0,0
2.96,-8.738391,4.077089,-1.9719373,1002.9628,5.63422077752733,1001.9538345882868,0,0
2.98,-8.757531,4.0770893,-1.9530016,1002.9248,5.634979049988184,1002.0074499195996,0,0
3.0,-8.652394000000001,4.0532565,-2.0003476000000004,1002.94507,5.6356528108281845,1002.0581998586372,0,0
3.02,-8.74323,4.172421,-2.1471157,1002.9325,5.636584085889767,1002.1061899852797,0,0
3.04,-8.647655,3.9722266,-1.986148,1002.9325,5.637320774838092,1002.1515687772336,0,0
3.06,-8.714591,4.000826,-2.0997753,1002.9476,5.6380801564657625,1002.1945311902066,0,0
3.08,-8.685932000000001,3.9102623,-2.109246,1002.94006,5.638732049857457,1002.2351766820244,0,0
3.1,-8.571236,3.9769945,-2.0713727,1002.93506,5.639114249500352,1002.2736106185396,0,0
3.12,-8.518678,4.067559200000002,-2.1423905,1002.9527,5.639270689537839,1002.3100155666176,0,0
3.14,-8.68121,4.0723267,-1.9956257,1002.92236,5.6394647707894645,1002.3443874186992,0,0
3.16,-8.604753,4.0246615,-2.0619092,1002.9376,5.639538190921212,1002.3768939524916,0,0
3.18,-8.68125,4.0103620000000015,-1.8867378,1002.9072,5.639559793108702,1002.4075258275217,0,0
3.2,-8.556993499999999,3.9388642,-1.7494419999999995,1002.9426,5.639190392648483,1002.4365184193186,0,0
3.22,-8.733867,3.972231,-1.9530231,1002.9275,5.638914142710832,1002.4639038071213,0,0
3.24,-8.824873,4.129532,-2.0477285,1002.97046,5.639063393878375,1002.4899251380778,0,0
3.26,-8.351697999999999,4.3297276,-1.9814492,1002.95764,5.6388763781336175,1002.514601359614,0,0
3.28,-8.643291,4.2010307000000005,-1.9767172,1002.9376,5.638803679886244,1002.5379280640688,0,0
3.3,-8.715016,4.201031,-2.0240636000000003,1002.95264,5.638983631181892,1002.5600325030944,0,0
3.32,-8.662460000000001,4.124768,-1.7115952,1002.89966,5.639098652202919,1002.5807866444064,0,0
3.34,-8.648149499999999,4.081869,-1.9577868000000005,1002.9527,5.639188233810433,1002.6004638917494,0,0
3.36,-8.614716,4.177201,-1.8536322,1002.97534,5.639235119585787,1002.6192002614918,0,0
3.38,-8.734236,4.1152368,-2.000401,1002.9552,5.63946935413553,1002.6369653168545,0,0
3.4,-8.724705,4.0628047,-1.8962469,1002.96277,5.639762507268332,1002.6538354166324,0,0
3.42,-8.696057000000001,4.0103736,-1.9577968,1002.9527,5.640033949919269,1002.6698177492964,0,0
3.44,-8.662621000000001,4.0818725,-1.8962517,1002.95013,5.6402598033266615,1002.6849488625404,0,0
3.46,-8.509692999999999,4.1438384,-1.9862078,1002.96027,5.640255556104827,1002.699309870298,0,0
3.48,-8.763047,3.9293444,-1.9057251,1002.94006,5.6402969722558085,1002.7128659572197,0,0
3.5,-8.619679,4.1009407,-1.9199306,1002.9552,5.640265783989463,1002.7257165181771,0,0
3.52,-8.74876,4.0199099999999985,-2.0051527,1002.92737,5.64037428724437,1002.737797226374,0,0
3.54,-8.552814999999999,4.105708600000002,-2.0809052,1002.9275,5.640352400195359,1002.749154670122,0,0
3.56,-8.710576,3.9436464,-1.9436101000000003,1002.93756,5.640307873963988,1002.7598683666052,0,0
3.58,-8.744061,3.9293475,-2.12352,1002.9502,5.640371296080617,1002.7700201826981,0,0
3.6,-8.648489,3.8054175,-2.0809124,1002.97797,5.640231338480888,1002.7797389467396,0,0
3.62,-8.662855,3.957948000000002,-2.047774,1002.9552,5.640050909699508,1002.7889581064387,0,0
3.64,-8.682001,3.9055164,-2.1187925,1002.94507,5.639858366607918,1002.7976661587658,0,0
3.66,-8.610330000000001,3.9341164,-2.15667,1002.9477,5.6395646941190005,1002.8059007156303,0,0
3.68,-8.538658,3.915051,-2.17561,1002.93756,5.639043445884,1002.8136507434996,0,0
3.7,-8.734658999999999,3.8387868,-2.1045966,1002.92737,5.638589620523572,1002.8209080574484,0,0
3.72,-8.710783000000001,3.972251,-2.1566772000000003,1002.9653,5.63828699144788,1002.8278404310464,0,0
3.74,-8.571050999999999,3.9388573,-2.2559974,1002.9299,5.637880366216304,1002.834333290806,0,0
3.76,-8.566252,3.94839,-2.1707764,1002.9148,5.637342092859536,1002.8403600618426,0,0
3.78,-8.355921,4.019888,-2.350682,1002.9275,5.636454412146668,1002.845999020508,0,0
3.8,-8.599672,3.8053923,-2.2796642999999994,1002.9174,5.6354907899080215,1002.8512386479108,0,0
3.82,-8.6187725,3.881657,-2.1092238,1002.93756,5.634481471724975,1002.8561791395517,1,1
3.84,-8.3797655,3.8625898,-1.7920173,1002.94006,5.63284208671694,1002.8608465290628,1,1
3.86,-8.78125,3.8864222,-2.3980193,1002.96783,5.631687347080359,1002.8653557749304,1,1
3.88,-8.642617,3.767258,-2.2559855,1002.9727,5.630541855783656,1002.8697265837892,1,1
3.9,-8.260213,3.5146300000000004,-1.6594485,1002.9323,5.628233890674819,1002.8738138947953,1,1
3.92,-8.695157,3.4192986000000003,-1.976652,1002.94495,5.6257824518212765,1002.8776815327788,1,1
3.94,-8.871991,3.5384622,-1.9624472,1002.97034,5.6236308442927685,1002.8814325481833,1,1
3.96,-8.871972,3.891187,-1.4511297,1002.9047,5.621844939057717,1002.8848307082213,1,1
3.98,-8.365294,4.1342807,-0.8877339,1002.9275,5.619510280697654,1002.8879869318808,1,1
4.0,-8.914952,4.3487754,-1.2759533,1002.96783,5.6180034403703845,1002.891063206152,1,1
4.02,-9.78008,4.0103493,-1.3517022,1002.97034,5.618596203025246,1002.8940667985556,1,1
4.039999999999999,-9.455032,4.1438120000000005,-1.1812618,1002.9298,5.620489440224504,1002.8968494123288,1,1
4.06,-8.953135000000003,4.081846,-1.2380729,1002.94995,5.622541271803894,1002.8994992919743,1,1
4.079999999999999,-8.943558,4.367839,-0.8119748,1002.92725,5.624869085988332,1002.901940628178,1,1
4.1,-8.0640545,4.639533,-0.49003357,1002.9222,5.6260400834084034,1002.904170726586,1,1
4.119999999999999,-7.6529727,4.9064593,-0.7551585,1002.99286,5.625780834773381,1002.9064605229236,1,1
4.14,-8.389042,5.387881299999999,-0.5468430000000001,1002.9476,5.626052811467121,1002.9086318890852,1,1
4.159999999999998,-8.761849,6.2124953000000005,-1.0723603000000002,1002.96246,5.628474692105089,1002.9107442894248,1,1
4.18,-9.273271,6.8559800000000015,-1.1481091,1002.9878,5.6344404499532175,1002.9128882069232,1,1
4.199999999999998,-10.382166,6.317359,-2.0429096,1002.9727,5.6450419935094285,1002.9149978948793,1,1
4.22,-9.407066,6.23156,-1.5410612,1002.9095,5.657758116812558,1002.916842222736,1,1
4.239999999999998,-6.5250177,5.7167764000000005,-1.6736403000000002,1002.9045,5.666989502101743,1002.9184274388284,1,1
4.26,-6.8117943,4.396439,-2.6820674,1002.9172,5.672494165905451,1002.9198237169876,1,1
4.2799999999999985,-7.834662,4.086613,-3.1318347,1002.9298,5.6764226902997175,1002.9210933829879,1,1
4.3,-6.8213315,4.339240599999999,-3.5910711,1002.9247,5.677845307072338,1002.9222282436873,1,1
4.3199999999999985,-7.791620299999999,4.296341,-2.596845,1002.9222,5.677927021740509,1002.923230904924,1,1
4.34,-8.298267,4.5346684,-2.222826,1002.9295,5.677749243828366,1002.9241394251347,1,1
4.3599999999999985,-6.204704,5.1352544,-3.7378345,1002.9172,5.675607379860579,1002.9249172116624,1,1
4.38,-5.956142400000001,4.339239599999999,-2.4027314,1002.9424,5.669392759713175,1002.9256674018767,1,1
4.4,-7.858494,4.1247440000000015,-1.8677427,1002.9675,5.662342546772503,1002.926480867303,1,1
4.42,-7.131952,5.1829195,-2.7530754,1002.9702,5.654925562246572,1002.9273570342314,1,1
4.44,-7.844130499999999,6.0075336,-2.7909493,1002.94214,5.649353635411072,1002.9281844340061,1,1
4.46,-8.881337,5.940801,-3.1554976000000003,1002.9449,5.647249352172928,1002.9289757004848,1,1
4.48,-9.459682,6.6700845,-3.003996,1002.9399,5.649914653525244,1002.9297141910234,1,1
4.5,-10.974869,6.827380000000002,-3.1128857000000005,1002.99286,5.659562682778232,1002.9305940461757,1,1
4.52,-9.497898,5.9789330000000005,-2.11866,1002.9724,5.671452012310763,1002.9315219876221,1,1
4.539999999999999,-7.824957,5.1495514,-1.2001843,1002.9295,5.681169087180512,1002.9323346375284,1,1
4.56,-7.7914867,5.058987,0.29588857,1002.9346,5.6886211898536505,1002.9330608502906,1,1
4.579999999999999,-6.8116155,4.8015924000000005,-0.6415225999999999,1002.9346,5.6920997002552935,1002.9337080728263,1,1
4.6,-7.217888,4.9684215,-0.83089775,1002.95746,5.692976166621131,1002.9343654655968,1,1
4.619999999999999,-6.7207766000000015,4.939822,-1.2333211000000002,1002.9346,5.69078063504959,1002.9349471821727,1,1
4.64,-6.543913400000001,4.849257,-0.9303182,1002.95734,5.685392617697059,1002.9355418010832,1,1
4.659999999999998,-6.9788632,4.915989,-1.4226952,1002.9649,5.678151812698285,1002.9361728958684,1,1
4.68,-6.639486,5.683404,-1.1433643,1002.9424,5.669632581298735,1002.9367529487956,1,1
4.699999999999998,-6.8402267000000005,6.074261,-0.79301727,1002.97,5.660779317019912,1002.9373851729463,1,1
4.72,-8.527486,5.9884629999999985,-2.0855088,1002.99756,5.654665173331039,1002.9381604355837,1,1
4.739999999999998,-9.799029,6.4126897000000005,-2.2275515,1002.99506,5.653682845103687,1002.9390502960817,1,1
4.76,-10.420397,6.8607454,-3.0039935,1002.95734,5.6591338911005336,1002.9399024197518,1,1
4.7799999999999985,-10.841015,5.65004,-3.1412907000000003,1002.932,5.669812166100451,1002.9406269075156,1,1
4.8,-8.981665,5.0971193,-2.781475,1002.93195,5.681065744340036,1002.9412358280368,1,1
4.8199999999999985,-7.289608,4.5537314,-2.0381732,1002.92944,5.688917452269032,1002.9417314052284,1,1
4.84,-6.806842,4.482233,-0.6320543000000001,1002.937,5.692365568070433,1002.9421522641758,1,1
4.8599999999999985,-6.104204,4.725328,-1.8109207,1002.9698,5.691399979738812,1002.9426236669908,1,1
4.88,-6.4483440000000005,4.482233,-1.9245456000000003,1002.99255,5.686863157361492,1002.943219933317,1,1
4.9,-6.586951700000001,4.7586927,-1.5931368,1002.95233,5.67959297374004,1002.9437795904828,1,1
4.92,-7.5046678,4.3440022,-2.3837817,1002.95984,5.671413960997758,1002.9443319210287,1,1
4.94,-7.977861999999999,4.7491593,-1.7162302,1002.93964,5.6633941598171065,1002.9448030693837,1,1
4.96,-9.316201,4.677661,-2.3032959,1002.9496,5.658109323952617,1002.94523664502,1,1
4.98,-9.450028,5.235348,-3.2312386,1002.9723,5.656507601533092,1002.9457171805304,1,1
5.0,-8.842988,5.6119065,-2.928236,1002.9495,5.6573322386445275,1002.9461553998572,1,1
5.02,-10.147868,5.4212437000000016,-2.5920925,1002.9823,5.662206945577379,1002.9466727310153,1,1
5.039999999999999,-9.841954,5.540407,-1.3942878,1002.9496,5.669783159798027,1002.9471403829947,1,1
5.06,-8.733033,6.0456624,-0.95398754,1002.9546,5.678231487640782,1002.9475804549048,1,1
5.079999999999999,-8.498816999999999,5.182915,-1.3185360000000002,1002.9546,5.686125591511789,1002.947994572807,1,1
5.1,-8.178564,4.5966287,-1.020268,1002.9445,5.692245413011332,1002.9483479069232,1,1
5.119999999999999,-7.1891380000000025,4.5441965999999985,-1.3185348999999995,1002.9192,5.695049092616397,1002.9485551804836,1,1
5.14,-6.7876287,4.839722599999999,-0.96818846,1002.9293,5.6944675018871145,1002.9486690087517,1,1
5.159999999999998,-6.801962,4.8206563,-1.062876,1002.9165,5.6909218886207,1002.9486537789779,1,1
5.18,-6.362214,5.0732837,-1.176501,1002.9141,5.6843906260497,1002.9485159283454,1,1
5.199999999999998,-6.022842,5.3497434,-0.6320439999999999,1002.947,5.6749507202554605,1002.9483886661844,1,1
5.22,-6.3908806,5.5404057999999985,-1.7635661,1002.9695,5.664137701679658,1002.9483522181407,1,1
5.239999999999998,-8.527414,5.1352477,-1.8109068,1002.962,5.655221573674723,1002.9483691446643,1,1
5.26,-9.956568,5.0017843,-1.8677188,1002.9367,5.650466446323062,1002.9483420920192,1,1
5.2799999999999985,-8.436583,6.222022,-1.1149478000000002,1002.9066,5.647834157286424,1002.9481679167708,1,1
5.3,-9.03405,6.617646700000001,-2.4263773,1002.9368,5.648991872189403,1002.9479730910213,1,1
5.3199999999999985,-10.836029,6.898873,-3.789885,1002.9445,5.6575156548625865,1002.947788439861,1,1
5.34,-9.851381,5.9789276,-3.7236028,1002.9116,5.669851267737276,1002.9474950037123,1,1
5.3599999999999985,-8.374414,5.025616,-3.1270673,1002.89624,5.6816542845802545,1002.9470512055182,1,1
5.38,-8.020703,4.1914682,-2.128107,1002.92145,5.690952335436427,1002.946566901094,1,1
5.4,-7.490137,4.7253227,-2.2985450000000003,1002.94434,5.697697632651564,1002.9461309528606,1,1
5.42,-6.3907747000000015,4.81112,-3.1886122,1002.9695,5.70104451429112,1002.9458298775712,1,1
5.44,-6.9069857999999975,4.6109247,-2.6630926,1002.9593,5.701604710079828,1002.9456123398868,1,1
5.46,-7.1555285,5.387873,-3.3732529,1002.9418,5.701467475510639,1002.9454063991648,0,0
5.48,-7.1841993,5.192444,-3.1365318,1002.9114,5.700364216206343,1002.9451020069057,0,0
5.5,-7.23199,4.8111196,-3.4347985,1002.9189,5.6982820912994825,1002.9447387186807,0,0
5.52,-8.689822,5.120946,-3.212281,1002.89624,5.697930356583218,1002.944243121818,0,0
5.539999999999999,-8.020642,5.3545065,-2.7672462,1002.9442,5.697960006293483,1002.9438050571916,0,0
5.56,-8.092332,5.3116080000000006,-3.2359514,1002.9367,5.698687132145051,1002.9433924050818,0,0
5.579999999999999,-8.355213000000001,4.8492510000000015,-2.4500396,1002.9468,5.699528951831963,1002.9430400530192,0,0
5.6,-7.896345599999999,4.801585,-2.1943812,1002.92145,5.699496883112865,1002.942650990546,0,0
5.619999999999999,-7.7433844,4.801585,-2.071286,1002.9088,5.69837095385912,1002.9421853513783,0,0
5.64,-7.9680276,4.5918565000000005,-1.858237,1002.90375,5.696362702919421,1002.9416355453453,0,0
5.6599999999999975,-8.603734,4.6776543,-1.8440332,1002.9263,5.694793579222523,1002.9410945287708,0,0
5.68,-8.359956,4.8778489999999985,-1.8819077,1002.94385,5.693399917920788,1002.9406264062222,0,0
5.6999999999999975,-8.049261,4.591856,-1.5552331,1002.9467,5.691202528765277,1002.940234638076,0,0
5.72,-7.8580613,4.3439945999999985,-1.5268258999999995,1002.92145,5.687702632870415,1002.9398208470446,0,0
5.7399999999999975,-8.268322,3.8577864,-0.8734046999999998,1002.8909,5.683184995412304,1002.9392791062402,0,0
5.76,-8.966134,4.0055485,-1.3468415,1002.92865,5.679335682403543,1002.9387621592826,0,0
5.7799999999999985,-8.545475,4.8063293,-1.8439507,1002.9315,5.676224122887652,1002.9382792411778,0,0
5.8,-8.397262,5.02559,-2.0333233,1002.9364,5.673815073342308,1002.937845769472,0,0
5.8199999999999985,-8.908661,5.0017559999999985,-1.9717723000000005,1002.9287,5.672887655074687,1002.9374298291028,0,0
5.84,-8.836925500000003,4.539399,-1.9149562,1002.949,5.672674688003081,1002.9371039568075,0,0
5.8599999999999985,-8.349347,4.639496,-1.5125281000000002,1002.9413,5.672165249626468,1002.9368311218033,0,0
5.88,-8.621755,4.162839,-1.578806,1002.939,5.671463511476884,1002.9365978527549,0,0
5.9,-8.478326,4.0627413,-1.7634445,1002.9491,5.670307577737487,1002.9364367439535,0,0
5.92,-8.535642,4.2152696,-1.5125173,1002.92896,5.668907703647845,1002.9362674719388,0,0
5.94,-8.4830265,4.58706,-1.6072018999999995,1002.9239,5.667583419013911,1002.9360733802873,0,0
5.96,-8.803235,4.6156583,-1.531448,1002.9365,5.666913407073559,1002.9359034167352,0,0
5.98,-8.989605000000003,4.811086,-1.2947239,1002.9109,5.667282773763076,1002.9356632246402,0,0
6.0,-8.583283999999999,4.5298586,-1.8770524,1002.94147,5.667752775996813,1002.9354718952964,0,0
6.02,-8.401613000000001,4.115167,-1.2994514,1002.9412,5.667395471327046,1002.935323457865,0,0
6.039999999999999,-9.046847,3.5241134,-1.4462144,1002.92615,5.667079570347828,1002.9351592741024,0,0
6.06,-8.898636,3.7815062999999993,-1.6687279,1002.9463,5.666792264319079,1002.935054307943,0,0
6.079999999999999,-8.788662,4.0103,-1.5882393999999995,1002.9234,5.666486239638702,1002.934919604336,0,0
6.1,-8.769503,4.291526,-1.7397368000000002,1002.9538,5.6664287061632885,1002.9348685496533,0,0
6.119999999999999,-8.291487,4.382089,-1.5172164,1002.9387,5.665724478067051,1002.9348372309564,0,0
6.14,-8.606914,4.296291,-1.7681363999999995,1002.9413,5.6650345552015455,1002.934832823725,0,0
6.1599999999999975,-8.884103,4.2343245000000005,-2.5067,1002.91595,5.665139255145098,1002.9347609513296,0,0
6.18,-8.764567999999999,4.196191000000002,-2.1610847,1002.9437,5.665527712305519,1002.9347296254564,0,0
6.1999999999999975,-8.33435,4.0245943,-1.1384499,1002.96375,5.664856611818593,1002.9348064192627,0,0
6.22,-8.659336999999999,3.7767324,-1.1715871,1002.97394,5.663656004894122,1002.9350151551613,0,0
6.2399999999999975,-9.095183,3.6337574,-1.7539998,1002.9488,5.662886732332723,1002.9352492196423,0,0
6.26,-8.832292,3.8053534,-2.0948765,1002.9311,5.662278263937041,1002.9354411018272,0,0
6.2799999999999985,-8.664996,3.8530192,-2.180096,1002.9311,5.661580681150505,1002.935595020959,0,0
6.3,-8.421224,4.1151795,-1.8912969,1002.9234,5.660456510798174,1002.9356871218283,0,0
6.3199999999999985,-8.803606,3.8053532,-1.9481095,1002.92596,5.6594268058525286,1002.935733484518,0,0
6.34,-8.765365,3.757687,-2.355268,1002.9284,5.6585605686650355,1002.9357480500464,0,0
6.3599999999999985,-8.994792,3.6194572,-2.1185474,1002.9307,5.658051955648098,1002.9357427471672,0,0
6.38,-8.483352,3.9388163,-1.9812497,1002.9307,5.657105089159463,1002.9357199076532,0,0
6.4,-8.512027,4.0246143,-2.0522654,1002.94867,5.655932141229727,1002.9357463469913,0,0
6.42,-8.736675,3.9817157,-2.213235,1002.94604,5.655013481589048,1002.9358067659407,0,0
6.44,-8.626738000000001,3.9054508,-2.0901403000000003,1002.92834,5.653999616512044,1002.9358332717676,0,0
6.46,-8.674533,3.938816000000001,-1.8960295,1002.9307,5.652938993738716,1002.9358382125376,0,0
6.48,-8.707989999999999,4.0007815,-2.0996087,1002.9483,5.65204175419117,1002.9358874406367,0,0
6.5,-8.61717,4.0389137,-2.0806708,1002.9334,5.651149017104138,1002.9359219837993,0,0
6.52,-8.569369,4.0865793,-2.1090772,1002.9435,5.6502298174103975,1002.9359797869957,0,0
6.539999999999999,-8.923074,4.0293803,-2.2321715,1002.94354,5.649948481306791,1002.9360580786666,0,0
6.56,-8.41641,4.2391086,-2.2700462000000003,1002.9509,5.649507121396518,1002.936180688104,0,0
6.579999999999999,-8.507225,4.0865793,-2.0285914000000003,1002.94073,5.648843131622358,1002.9363054033258,0,0
6.6,-8.650617,4.134244399999999,-2.2037642,1002.9608,5.648368016935986,1002.9365037822439,0,0
6.619999999999999,-8.588476,4.1008787,-2.132748,1002.9433,5.6478860277938985,1002.9367035362396,0,0
6.64,-8.440301,4.0865793,-1.9907155,1002.9155,5.647053002831267,1002.93680370614,0,0
6.6599999999999975,-8.526334,4.153311,-2.1706226,1002.93585,5.646209594929358,1002.9368887829218,0,0
6.68,-8.526330999999999,4.200976,-2.2037632,1002.9181,5.645417979452356,1002.9368963171477,0,0
6.6999999999999975,-8.593247,4.081812,-1.9765116000000005,1002.91785,5.644590509307406,1002.9368344076476,0,0
6.72,-8.574124000000001,4.196209400000001,-2.1469498,1002.93066,5.643875184771957,1002.9367574765463,0,0
6.7399999999999975,-8.574282,4.119948399999998,-2.1232924,1002.9332,5.64318357504434,1002.9366766933093,0,0
6.76,-8.545607,4.143781,-2.2085118,1002.92303,5.642523424561117,1002.9365561851453,0,0
6.7799999999999985,-8.684225,4.129482,-2.2227154,1002.93823,5.6421405933282625,1002.936455729865,0,0
6.8,-8.645989,4.010318,-2.1801062,1002.9204,5.641811614580617,1002.9363091669518,0,0
6.8199999999999985,-8.5026,4.0770497,-2.3647482,1002.9128,5.641416273727574,1002.9360950309607,0,0
6.84,-8.273172,4.224813,-2.35528,1002.9027,5.64067659738688,1002.9357855982872,0,0
6.8599999999999985,-8.516946,4.4154754,-2.071216,1002.9027,5.640115672437093,1002.9353930754236,0,0
6.88,-8.440472999999999,4.36781,-1.9007776,1002.93054,5.639459791959128,1002.9350287711494,0,0
6.9,-8.717705,4.067517,-1.8960437,1002.9431,5.638957513882092,1002.9347359283166,0,0
6.92,-8.693810000000001,4.1533155,-2.2179835,1002.9053,5.638763097013683,1002.9343712030476,0,0
6.94,-8.550419,4.0961165,-2.270062,1002.9279,5.638554467607932,1002.9340256354692,0,0
6.96,-8.416589,4.0865836,-2.33161,1002.9103,5.638112642346344,1002.9336348796692,0,0
6.98,-8.851555000000003,3.8959212,-2.307938,1002.9429,5.638090294948641,1002.9333229622772,0,0
7.0,-8.736842999999999,4.000786,-1.9907334,1002.9378,5.63817007760766,1002.9330634694054,0,0
7.02,-8.407041,4.215281,-2.2085164,1002.9403,5.6380220492163025,1002.9328602330144,0,0
7.039999999999999,-8.450063,4.277246,-2.2653296000000003,1002.9251,5.637834581985495,1002.9326527164999,0,0
7.06,-8.6078005,4.191448,-2.184845,1002.92505,5.63778360056293,1002.9324419851288,0,0
7.079999999999999,-8.478749,4.1104164,-2.5399258,1002.9201,5.6377260040229595,1002.9322113517427,0,0
7.1,-8.550448,4.043685,-2.2984715,1002.9404,5.6376103714599415,1002.9320370432164,0,0
7.119999999999999,-8.445298,4.220048,-2.0806892,1002.9326,5.63730638439025,1002.931885050847,0,0
7.14,-8.411842,4.4488425000000005,-1.8960478,1002.9402,5.636910578897255,1002.9317806842064,0,0
7.1599999999999975,-8.411846,4.486975,-1.7492815,1002.9227,5.636414257083299,1002.9316557753797,0,0
7.18,-8.392731,4.54894,-2.1801128,1002.9125,5.636036949824352,1002.9314764451487,0,0
7.1999999999999975,-8.402294,4.3249125,-2.3742235000000003,1002.9125,5.635665798662893,1002.9312496737545,0,0
7.22,-8.521792,4.401178,-2.4405057,1002.95276,5.6356196412186055,1002.9311267357248,0,0
7.239999999999997,-8.554683,4.3677974000000015,-2.3694377,1002.97064,5.635853159644274,1002.9311603554332,0,0
7.26,-8.425609,4.401163,-2.336295,1002.94794,5.636115935600548,1002.931250468528,0,0
7.2799999999999985,-8.478168,4.486960400000001,-2.0143538,1002.94794,5.636430180982286,1002.9313901747715,0,0
7.3,-8.392114,4.434528,-1.9480704,1002.9579,5.63655607409799,1002.9316090545797,0,0
7.3199999999999985,-8.358636,4.439294,-2.0901008,1002.9628,5.636520989765238,1002.9319147441812,0,0
7.34,-8.28214,4.5155587,-1.9433324,1002.9858,5.636216656107298,1002.9323788384345,0,0
7.3599999999999985,-8.521111999999999,4.5155587,-2.1327069,1002.9477,5.6361855819976725,1002.932844068298,0,0
7.38,-8.435056,4.496491000000002,-2.2936747000000004,1002.95026,5.636299196299424,1002.9333178427596,0,0
7.399999999999999,-8.353782,4.4488254000000005,-2.246329,1002.9856,5.636327080055149,1002.9339246856399,0,0
7.42,-8.277287,4.3487269999999985,-2.1563737,1002.9881,5.6360049465165,1002.9346559231407,0,0
7.439999999999999,-8.415881,4.3868589999999985,-2.2273881,1002.96027,5.635692524605227,1002.935394255273,0,0
7.46,-8.406303,4.520323,-2.1137607000000003,1002.9424,5.635446697247782,1002.936071866226,0,0
7.479999999999999,-8.387165,4.515556,-2.0522118000000003,1002.9803,5.635194487222803,1002.9368298245456,0,0
7.5,-8.444504,4.3487253,-2.591932,1002.9577,5.635148981272317,1002.9375746891487,0,0
7.52,-8.105119,4.4964879999999985,-2.6440086,1002.9652,5.634855639087576,1002.9383323026312,0,0
7.539999999999999,-8.229375,4.11993,-2.5777254000000003,1002.96014,5.634175341077045,1002.9390802376146,0,0
7.56,-8.057284,4.2104940000000015,-2.3078628,1002.9374,5.6327860451440595,1002.9397350641106,0,0
7.579999999999999,-8.219777,4.3773230000000005,-2.1042817000000005,1002.9804,5.631124423760516,1002.9404600625716,0,0
7.6,-8.611702000000001,4.7109814000000005,-2.4640946,1002.95233,5.630419436689429,1002.9411434029864,0,0
7.619999999999999,-8.678600999999999,5.016041,-2.3078575,1002.96014,5.630906372253809,1002.9418155903264,0,0
7.64,-8.315317,5.035106,-2.1232142000000005,1002.9599,5.63174629534503,1002.9424746389346,0,0
7.659999999999997,-7.975933,5.268667,-1.9148988,1002.93463,5.632476888364321,1002.9430287335847,0,0
7.68,-8.463455,5.0875373,-2.2605085,1002.95483,5.633900959473188,1002.9435608161766,0,0
7.699999999999997,-8.090612,4.906408,-2.6913373,1002.98004,5.635323845464118,1002.9441622894168,0,0
7.72,-7.928081,4.7920102999999985,-2.4546158,1002.9698,5.636212817891916,1002.9447860469296,0,0
7.739999999999997,-7.9660454,4.5441427,-2.3267617,1002.9748,5.636373410583992,1002.9454452492993,0,0
7.76,-8.391418,4.3058133000000005,-2.407244,1002.97,5.636456104216957,1002.9461161176154,0,0
7.7799999999999985,-8.4296255,4.6776047,-2.5682108,1002.9751,5.636974084347058,1002.9468132388361,0,0
7.8,-8.295763,4.4488087,-2.520864,1002.94714,5.637393407041277,1002.9474303914868,0,0
7.8199999999999985,-8.247939,4.420209,-2.3930328,1002.9498,5.637544843597926,1002.9479842381596,0,0
7.84,-8.357845,4.248612400000002,-2.4829838,1002.93713,5.637542365283885,1002.9484345418226,0,0
7.8599999999999985,-8.123606,4.7634,-2.0521505,1002.95465,5.6372775782076365,1002.9488548057884,0,0
7.88,-7.846346400000002,4.930228,-2.03321,1002.9599,5.6364681089954285,1002.949265913728,0,0
7.899999999999999,-7.9514747,5.082758,-2.3409436,1002.9901,5.635670844719463,1002.9497761714138,0,0
7.92,-7.8749704,5.163789,-2.4829733,1002.9852,5.634919768722925,1002.9503545608881,0,0
7.939999999999999,-8.238204,4.9492927,-2.3646104,1002.9672,5.634541384086312,1002.950926269408,0,0
7.96,-8.477169,4.8825603,-2.1657631,1002.9823,5.634748035220968,1002.9515443764868,0,0
7.979999999999999,-8.109094,5.0112567000000015,-2.4119494,1002.96967,5.6350830153091085,1002.9521557881458,0,0
8.0,-7.97045,5.0255556,-2.1468198,1002.9823,5.635178975489189,1002.9528045506503,0,0
8.02,-8.257211,5.0112553,-2.2509744,1002.97974,5.635590708067893,1002.9534747648172,0,0
8.04,-8.089889,4.944523,-2.2604403,1002.9645,5.635925168077291,1002.9541066569016,0,0
8.059999999999999,-8.314511999999999,4.834891000000002,-2.4166734,1002.98724,5.6365435373420665,1002.9547842767827,0,0
8.08,-8.07071,5.01602,-2.1515439,1002.9924,5.637048807173105,1002.9555184383133,0,0
8.1,-8.15194,4.8777885,-1.9384931,1002.98737,5.637353818622912,1002.9562818090635,0,0
8.12,-8.070654,4.839655400000002,-2.4450717,1002.9797,5.637537661337434,1002.9570406289456,0,0
8.139999999999999,-7.994148299999999,4.6918917,-2.3172402,1002.9847,5.637263775333049,1002.9578106959295,0,0
8.16,-8.094495,4.8873196,-2.3740501,1002.9973,5.636990520604999,1002.9586332886113,0,0
8.18,-8.319118,4.7776885,-2.3267038,1002.9772,5.6369735469567726,1002.9594269716656,0,0
8.2,-8.2521715,4.67759,-1.9195422,1002.9419,5.6367806972832994,1002.9600651729146,0,0
8.219999999999999,-7.9701343,5.006481,-2.2414792,1002.9416,5.636427692509165,1002.9605626129156,0,0
8.24,-8.535110000000001,4.8063097,-1.8296736,1002.9645,5.636536000361973,1002.9610163254939,0,0
8.26,-8.363048,4.7872434,-2.2131615,1002.9797,5.636890292109461,1002.9614844871567,0,0
8.28,-8.200544,4.853976,-2.0663958,1002.9873,5.637177398521852,1002.9619910906478,0,0
8.299999999999999,-7.779932,5.2114677,-2.19896,1003.0049,5.637129639226355,1002.9625931975662,0,0
8.32,-7.756042,5.2496004,-2.4735565,1002.98706,5.636927287903383,1002.963213299728,0,0
8.34,-7.765611,5.1495028,-2.378869,1002.9696,5.6364435084007685,1002.9637842141193,0,0
8.36,-8.076309,5.1638026,-2.3599327000000003,1002.95184,5.636243886990613,1002.9642456749046,0,0
8.379999999999999,-7.861227,5.1781025000000005,-2.2699795,1002.9595,5.635903185375741,1002.9646363372248,0,0
8.4,-7.942495,5.2925005,-2.2889183,1002.97186,5.6357128478222025,1002.9650075316373,0,0
8.42,-8.085897000000001,5.1495037,-2.5966556,1002.98193,5.635899071775131,1002.9653964399057,0,0
8.44,-7.8564777,5.1066055,-2.7339542000000003,1002.9541,5.636062138566464,1002.965699412068,0,0
8.459999999999999,-8.200635,4.806312,-2.5777197,1002.992,5.6363864122486875,1002.9660618003876,0,0
8.48,-8.592588000000001,4.668082,-2.4072824,1002.95917,5.637313461708412,1002.9663571962253,0,0
8.5,-8.014241,4.649016400000002,-2.2368445,1002.96686,5.637648622602103,1002.9666200180808,0,0
8.52,-8.181544,4.753881,-2.137423,1002.97437,5.6378119809538125,1002.9668801474072,0,0
8.54,-7.899547,4.844446,-2.5303795,1002.9641,5.637625798261531,1002.9670999891496,0,0
8.559999999999999,-7.918674,5.0446415,-2.6061306,1002.9993,5.637418377932991,1002.9674101613522,0,0
8.58,-8.047741,4.9111786,-2.58246,1002.9943,5.6372578067083605,1002.9677810329297,0,0
8.6,-7.956933999999999,4.9683766,-2.5824606,1002.9766,5.637044557411593,1002.9681404833366,0,0
8.62,-8.04776,4.9779105,-2.3930852,1002.99695,5.636850177054563,1002.9685618079764,0,0
8.639999999999999,-8.152925999999999,5.0780087,-2.6061344,1002.9716,5.637071232789151,1002.9689450279193,0,0
8.66,-7.995202000000001,5.1828732,-2.563526,1002.9766,5.637481213036701,1002.9693111989604,0,0
8.68,-7.660626,5.082775,-2.6203394,1002.97406,5.637417796742888,1002.969651843376,0,0
8.7,-7.942644,5.111375,-2.312604,1002.9667,5.637278408926552,1002.9699422101455,0,0
8.719999999999999,-8.530569999999999,4.839681,-2.0758846,1002.9943,5.637697802278465,1002.9702864662663,0,0
8.74,-8.132106,4.93497,-2.3787272,1003.00433,5.638152547763834,1002.9707132076963,0,0
8.76,-7.955197999999997,4.8301044,-2.222487,1002.98425,5.638144585187242,1002.9711390088762,0,0
8.78,-8.074633,4.9111342,-2.359779,1002.9716,5.638086561324445,1002.9715169063667,0,0
8.799999999999997,-8.184509,4.925432,-2.0425684,1002.94104,5.6380410471939815,1002.9717410997264,0,0
8.82,-7.9502354,5.1256260000000005,-2.137251,1002.9991,5.637860253523552,1002.9720376890199,0,0
8.84,-7.888045299999999,5.254322,-2.0141516,1002.97894,5.637543407129281,1002.9723246036392,0,0
8.86,-7.7780466,5.3973174,-2.4165702,1002.9689,5.637276546172326,1002.9725657928238,0,0
8.879999999999997,-7.9405006999999985,5.054124,-2.5633314,1002.9638,5.637022616944996,1002.9727473507331,0,0
8.9,-7.777931,5.2257185,-2.4118252,1002.9892,5.6366157513011395,1002.9729670048393,0,0
8.92,-7.749192999999999,5.330581,-2.3692102000000004,1002.99396,5.636124239854156,1002.9732366659897,0,0
8.94,-7.9355497,5.220949,-2.1230159,1002.9788,5.635630318710255,1002.9734949665848,0,0
8.959999999999997,-7.93071,5.1542153,-2.1277452,1002.9915,5.635055910940975,1002.973788019111,0,0
8.98,-8.107499,5.092249,-1.9951758,1002.9663,5.634588965725095,1002.9740200034545,0,0
9.0,-7.94971,5.325809,-2.104062,1002.961,5.634255383203009,1002.9741781128076,0,0
9.02,-7.772802,5.406839,-2.009369,1002.9535,5.63379525816412,1002.974243377026,0,0
9.04,-8.222039,5.1875753,-2.0614412,1002.96356,5.633762623134677,1002.974262584332,0,0
9.06,-8.102485,5.1446757000000005,-1.8767942,1002.961,5.6337787297449315,1002.9742318106042,0,0
9.08,-8.006836999999999,5.2447715,-1.7631636999999998,1002.96356,5.633740434035274,1002.97416620042,0,0
9.1,-8.116709,5.268602400000002,-1.8010331000000002,1002.9837,5.633883232444703,1002.9741425489397,0,0
9.12,-8.130991999999999,5.1780370000000016,-1.8104969,1002.9888,5.6341136245046455,1002.9741744173157,0,0
9.14,-8.121373,5.0588713,-1.8957107,1002.9938,5.634307919921183,1002.9742732283104,0,0
9.16,-8.183452,5.1351347,-1.6921258999999995,1002.976,5.634582157443126,1002.9743667540828,0,0
9.18,-8.054337,5.235231400000001,-1.9241061,1002.9914,5.6349027627046375,1002.9745107131412,0,0
9.2,-7.977803999999999,5.173264499999998,-1.980914,1002.9989,5.635087386061922,1002.9747257167976,0,0
9.22,-7.9156103,5.2733607000000005,-2.0566595000000003,1002.97614,5.635189997432923,1002.974920785448,0,0
9.24,-8.03587,5.268612999999998,-2.042526,1002.9836,5.635412191763006,1002.97512439328,0,0
9.26,-7.854212299999999,5.4926405,-1.7537252,1002.98114,5.635572257689267,1002.9753259573444,0,0
9.28,-8.174433,5.2304792,-1.9383643,1002.95844,5.635994680949861,1002.9754432699052,0,0
9.3,-8.289122,5.244778,-2.03305,1002.9786,5.636899359479567,1002.9755582915125,0,0
9.32,-8.045325,5.1160809999999985,-1.8199995,1002.9735,5.6375802410590765,1002.9756525147552,0,0
9.34,-7.7967496,5.425906,-1.8910131,1002.9811,5.638017167427847,1002.9757553813592,0,0
9.36,-8.07395,5.1828113,-1.8294632,1002.97845,5.638407005099362,1002.9758559749176,0,0
9.38,-8.332035000000001,5.3019743,-1.7253041,1002.976,5.639290786295546,1002.975945377876,0,0
9.4,-8.284211,5.173277,-1.5738008,1002.9633,5.640332079132272,1002.9759788509697,0,0
9.42,-8.049971000000001,5.4068375,-1.3560156,1002.99615,5.641298351220089,1002.976081043932,0,0
9.44,-7.9256716,5.1685089999999985,-1.4317638,1002.9706,5.641733782302045,1002.9761516098752,0,0
9.46,-8.159855,4.9206476,-1.464902,1002.97565,5.641845982051715,1002.976212156147,0,0
9.48,-8.107252,4.8253155,-1.2849925,1002.9682,5.6414249186783465,1002.9762368110704,0,0
9.5,-8.021189,5.335336,-1.0198634,1002.9858,5.640878586460112,1002.9762930236412,1,2
9.52,-7.1607976,5.4640326,-2.0235548,1002.9657,5.639276768665256,1002.9763045581838,1,2
9.54,-8.140632,4.863446,-2.1987252,1002.95306,5.637792453298775,1002.976231069696,1,2
9.56,-7.9063954,5.278136,-1.0908723,1002.9404,5.636073006135103,1002.9760371434172,1,2
9.58,-7.332792299999999,5.592728,-1.6968735,1002.948,5.633753535065947,1002.9757648564412,1,2
9.6,-7.246728999999997,5.854888,-2.302875,1002.96826,5.63136905320764,1002.9754972461856,1,2
9.62,-6.916898,5.7452564000000015,-2.7195002999999995,1002.97833,5.628514247165611,1002.9752709836778,1,2
9.64,-7.093724000000001,5.940685,-2.5395906000000004,1002.9806,5.6256717223011705,1002.9750902425844,1,2
9.66,-7.437842999999999,6.202845,-2.7999802000000003,1002.96545,5.623861657663988,1002.9748958348813,1,2
9.68,-7.772403,6.155178500000001,-3.0793076,1002.97577,5.6235942318308805,1002.974727203229,1,2
9.7,-7.4903693,5.549825,-3.1029775,1002.9529,5.62353430085513,1002.9744996223696,1,2
9.72,-7.8249288,5.430660700000002,-2.7336915,1002.9882,5.623832760643334,1002.9743478532814,1,2
9.74,-6.9026565999999985,6.016953,-3.9599235,1002.978,5.624586534447063,1002.9742268978433,1,2
9.76,-6.945658,5.583195,-3.268699,1003.00323,5.624732870353174,1002.9742244327864,1,2
9.78,-6.4581017,5.8739557,-2.8426008,1002.97284,5.623695490406513,1002.9742172707035,1,2
9.8,-6.730533,5.6594596,-2.790521,1002.9552,5.621709155762477,1002.9741424801127,1,2
9.82,-7.39969,5.4449644,-2.5395958,1002.97046,5.619527066665887,1002.9740631382184,1,2
9.84,-7.643446000000001,6.217146,-2.5822043,1002.9627,5.618538690529437,1002.9739521244228,1,2
9.86,-8.10707,7.322986599999999,-2.852064,1002.98553,5.620906368862488,1002.9738957129854,1,2
9.88,-8.336482,7.470749,-2.9798908,1002.9904,5.626840052891506,1002.9739052832724,1,2
9.9,-8.981741,7.342052000000002,-2.8520608,1002.96533,5.6366561384519205,1002.9738828685582,1,2
9.92,-7.930167699999997,7.2800865,-1.6684581000000005,1002.97,5.647679634960477,1002.97384908459,1,2
9.94,-7.3039960000000015,6.7414656000000015,-1.019843,1003.02325,5.6578558878630805,1002.973997076371,1,2
9.96,-8.436795,6.3792067,-2.1182237,1003.0331,5.668899826545895,1002.9743406124338,1,2
9.98,-7.2609463,5.9883485,-0.52746195,1002.91956,5.677842930960817,1002.9744469506944,1,2
10.0,-6.8068485,5.7166543,1.2668788,1002.91974,5.683966845779244,1002.9743439661586,1,2
10.02,-7.605060000000001,5.3591623,0.08327914,1002.93713,5.68825366578942,1002.9741189987446,1,2
10.04,-7.7054195,5.044569,-1.1476647,1002.9803,5.690854132977187,1002.9739424691423,1,2
10.06,-7.691063400000001,5.0207357,-1.696854,1002.9501,5.6920780965993885,1002.9737006546968,1,2
10.08,-6.9645166,5.440192,-1.6068988000000002,1002.96014,5.691337538040076,1002.9734381690956,1,2
10.1,-6.6777143,5.0827003,-1.7868049,1002.9549,5.688027800581835,1002.9731394994096,1,2
10.12,-6.6585779999999986,5.468791,-0.43276352,1002.9549,5.682558081197202,1002.9728099326776,1,2
10.14,-7.1795607000000015,7.265782400000001,-0.26705796,1002.91705,5.6785056929340385,1002.9723179917552,1,2
10.16,-6.6011877000000005,7.356347,-0.5463863,1002.9398,5.6750570523139725,1002.971766247986,1,2
10.18,-8.914595,6.770060000000001,-1.6352978,1002.9952,5.6750927009088565,1002.9713630886986,1,2
10.2,-7.313347,7.623272999999997,-1.2707474,1002.97504,5.676809133887372,1002.9710200940332,1,2
10.22,-7.628797500000001,7.437377499999997,-1.1381825,1002.965,5.68015971536637,1002.970695351608,1,2
10.24,-8.871625,6.822493,-2.3738692,1002.942,5.686450560879773,1002.9703051059357,1,2
10.26,-8.125962,6.255273000000001,-3.1597795,1002.95215,5.6938408820152056,1002.969894926478,1,2
10.28,-6.5294967,5.4306583,-3.358623,1002.9194,5.698855161792077,1002.9693507101738,1,2
10.3,-6.5294843,4.9587684,-3.358622,1002.91425,5.701185568311847,1002.9686714780909,1,2
10.32,-7.3802767,4.5965104000000006,-2.539569,1002.94476,5.701546967798515,1002.9679852273011,1,2
10.34,-6.6298337,5.368692,-3.3254788,1002.9697,5.700371576428089,1002.9673850292853,1,2
10.36,-5.7598980000000015,5.6975837,-3.0272105,1002.995,5.696787993984418,1002.9669541082127,1,2
10.38,-6.395598400000001,5.530754,-2.6200502,1002.9798,5.691511602425134,1002.9666195915636,1,2
10.4,-6.8209887,5.225694,-2.5632365000000004,1002.96216,5.684997136320759,1002.966307958123,1,2
10.42,-6.319097,5.2495265,-2.549032,1002.93195,5.676652879903768,1002.9659089101656,1,2
10.44,-6.868763,5.4973874,-2.3596547,1002.91925,5.66777610505275,1002.9653883393137,1,2
10.46,-8.31703,5.249526,-2.5395608,1002.94965,5.6606410792379025,1002.9648717048874,1,2
10.48,-8.078028,5.5927176,-2.416465,1002.94965,5.654987966866566,1002.9643604085707,1,2
10.5,-9.497616,5.7690806,-2.2128847,1002.9975,5.653185254962307,1002.9640279296743,1,2
10.52,-9.430688,6.8320217,-2.5158854,1003.04034,5.656003755106982,1002.9640088747748,1,2
10.54,-9.354198,6.4459300000000015,-1.166579,1003.0202,5.661868186747768,1002.9641943259164,1,2
10.56,-8.560737,6.3077,0.054898657,1002.95435,5.668769075355126,1002.9643227509716,1,2
10.58,-8.976567,6.0121730000000015,0.4762618,1002.97455,5.676936493709338,1002.9644730454472,1,2
10.6,-7.972796400000001,6.3172326,1.366331,1002.9396,5.685048571601479,1002.964516302682,1,2
10.62,-6.366771,7.094181,1.7687563999999998,1002.9367,5.6919007632860055,1002.9644543860852,1,2
10.64,-5.9939327,7.699533,0.788736,1002.9445,5.697811380601247,1002.9643278407902,1,2
10.66,-5.7788296,7.613735,0.9828477,1002.9316,5.702493481681796,1002.9640982051407,1,2
10.68,-5.5111485,7.3849399999999985,1.0396616,1002.96216,5.705375454350275,1002.9638883215424,1,2
10.7,-5.912639,6.9464169999999985,0.36737737,1002.9669,5.706357832680883,1002.9637137104373,1,2
10.72,-6.3189096,7.3086743,0.267956,1002.9393,5.7067718276111785,1002.9634715347072,1,2
10.74,-6.3096247000000005,7.175217599999999,-0.35701057,1002.95435,5.706466490566959,1002.9632247107072,1,2
10.76,-7.3803,6.9940886,-0.5132458,1002.9191,5.706813896163973,1002.962847768062,1,2
10.78,-7.738784,6.6365967,-1.0529678,1002.90643,5.707878473477281,1002.962311597576,1,2
10.8,-8.312358999999999,6.750994,-1.3370321000000005,1002.9367,5.710700715572949,1002.9617456355832,1,2
10.82,-8.909832000000002,6.5746316999999985,-1.6921122,1002.9165,5.715917855801778,1002.9610826672784,1,2
10.84,-7.471111,6.255272,-1.0861083,1002.8863,5.720328405075043,1002.9602276508818,1,2
10.86,-7.3038163,5.7929163,-0.7546998,1002.8913,5.723071626761103,1002.9592240188507,1,2
10.88,-7.3563933000000015,6.0932093,-1.5879549,1002.93427,5.725018735924008,1002.9582473751202,1,2
10.9,-7.65274,6.598464,-1.611627,1002.94403,5.72739672620106,1002.9573332301694,1,2
10.92,-7.5189037,7.108485000000001,-1.3322968000000002,1002.9745,5.730563076353593,1002.9565872920624,1,2
10.94,-7.2416740000000015,7.189517,-1.0577012,1002.9163,5.734054035578628,1002.9557831468994,1,2
10.96,-7.55236,6.8129589999999975,-0.96301323,1002.9112,5.737731165251329,1002.9549121049048,1,2
10.98,-7.471102,6.4411674,-0.5605886,1002.95184,5.740860255812099,1002.9541313926204,1,2
11.0,-7.8343663,5.8072157,-0.38068113,1002.9189,5.743242563733583,1002.9533147222328,1,2
11.02,-7.5188975,6.398268700000001,-0.5369164000000001,1002.9466,5.745222395246056,1002.952568939278,1,2
11.04,-6.7111100000000015,6.2791047,-0.4138217000000001,1002.9617,5.7454105211534126,1002.9519428372777,1,2
11.06,-6.2092285,5.9168463,-0.4990409000000001,1002.9314,5.742750218544551,1002.9513156593359,1,2
11.08,-6.419539,5.402058,-0.6505417,1002.9264,5.7372163792640825,1002.9506717885333,1,2
11.1,-6.9405365,5.0731660000000005,-0.9014651,1002.9189,5.729639152588513,1002.9499884858533,1,2
11.12,-6.7541227,5.46879,-0.8115113,1002.88855,5.720458783997916,1002.949163541056,1,2
11.14,-7.791339,5.888247,-1.0577003,1002.9138,5.7121704846135675,1002.9483073110856,1,2
11.16,-9.129683,6.8558583,-2.1892226000000004,1002.95416,5.70844577246179,1002.9475718159636,1,2
11.18,-8.460508,6.8653910000000025,-2.4590838,1002.9491,5.707819875091753,1002.9469274339364,1,2
11.2,-9.339993,6.364902,-1.9051583,1002.9239,5.710541966783664,1002.9462751592148,1,2
11.22,-8.723395,6.7652936000000015,-1.3607016,1002.96924,5.715507715455464,1002.9457814826976,1,2
11.24,-7.3456306,6.9845257,-1.5262976,1002.94653,5.720624757829762,1002.9453479647896,1,2
11.26,-6.9154034,5.9835477,-1.2564323999999998,1002.93646,5.723737402183577,1002.9449329116928,1,2
11.28,-7.3550944,5.525957,-0.86347216,1002.90607,5.725087439232713,1002.9444262642944,1,2
11.3,-7.742213,5.4210916,-0.96289057,1002.91113,5.725416189970131,1002.9438587241016,1,2
11.32,-7.7278285,5.559321,-1.1901379,1002.9086,5.725035602758997,1002.9432303141805,1,2
11.34,-7.780355,5.778581,-0.7119582,1002.9137,5.724286953082968,1002.942568742043,1,2
11.36,-8.344324,6.0550404,-0.64567214,1002.9313,5.724488439533622,1002.9419436094313,1,2
11.38,-8.253461999999999,6.4077644,-1.4789233,1002.9792,5.72599236091954,1002.9415253652612,1,2
11.4,-7.842351,6.4554285999999985,-0.6977420999999999,1002.9642,5.727869394437126,1002.9412374333976,1,2
11.42,-7.5077167,6.4649606,-0.5509710999999999,1002.9314,5.7295320922598085,1002.940947602043,1,2
11.44,-6.7859178,6.5650573,-0.4184034,1002.89105,5.7300187260438875,1002.9405118756906,1,2
11.46,-6.7189520000000025,6.431592,-0.16274112,1002.9088,5.729155494546725,1002.9400127051332,1,2
11.48,-6.7475830000000006,6.3553267,-0.89183503,1002.9086,5.7271226440358305,1002.93945855229,0,0
11.5,-6.699742999999999,6.46019,-1.7487582999999998,1002.9237,5.724391567074339,1002.9389121720495,0,0
11.52,-7.5505,6.3982230000000015,-1.9381301,1002.896,5.722331488933908,1002.9382749066498,0,0
11.54,-7.7464204,6.1551269999999985,-2.3642220000000003,1002.9188,5.7210542006175045,1002.9376417092784,0,0
11.56,-7.5934215,6.116994,-2.3310769,1002.8885,5.7201675008985315,1002.936905305928,0,0
11.58,-7.091497,5.8166995,-2.0233364,1002.8834,5.718313150724564,1002.9360620008259,0,0
11.6,-6.4891906,5.5783706,-2.340537,1002.9163,5.714528068881469,1002.9352457132347,0,0
11.62,-7.6936526,5.3591075,-2.3405325,1002.9061,5.710697249620718,1002.9344195169516,0,0
11.64,-7.626690400000001,5.597434,-2.8849847,1002.9313,5.7073107218834505,1002.9336782596547,0,0
11.66,-7.468909,5.840528,-2.4068058,1002.9288,5.7041037382152044,1002.9330057229727,0,0
11.68,-7.679175,5.9310913,-2.0091114,1002.9466,5.701330305370886,1002.9324604089577,0,0
11.7,-7.5357327,5.9263234,-2.0469823,1002.93646,5.6987300537029215,1002.9319929680217,0,0
11.72,-6.9812303,5.7356596,-2.6151068,1002.95416,5.695467192313116,1002.9316597385257,0,0
11.74,-8.04354,5.6975565,-2.2554014,1002.93396,5.6930973272145255,1002.9313735778844,0,0
11.76,-7.661157000000001,5.764288400000001,-1.7630233,1002.9314,5.690769544676732,1002.9311208214611,0,0
11.78,-7.642039299999999,5.4210962999999985,-1.8955868,1002.9566,5.688094804012045,1002.9309892109286,0,0
11.8,-8.019645,5.5688596,-1.9003211,1002.96924,5.6859282235891815,1002.9310106227026,0,0
11.82,-7.895372,5.440163,-2.3358867,1002.9566,5.684055925435732,1002.9311216639044,0,0
11.84,-7.928831,4.9635077,-2.46845,1002.94653,5.6820470390691495,1002.9312752499202,0,0
11.86,-8.21084,4.992107,-1.905056,1002.96924,5.680177926661641,1002.931547631624,0,0
11.88,-8.000531,5.006406299999999,-1.8387746,1002.9667,5.678062731546284,1002.9319148566237,0,0
11.9,-7.5703497,5.3305326,-2.0707605,1002.95917,5.675472135846058,1002.9323374551496,0,0
11.92,-8.129588,5.4830623,-1.6920083,1002.9643,5.673433593661843,1002.9328259283684,0,0
11.94,-7.6085906,6.0264497000000015,-2.27434,1002.9541,5.6719281968193975,1002.9333341299623,0,0
11.96,-7.919278999999999,5.559327,-2.2033240000000003,1002.96924,5.670804681622415,1002.9339124380232,0,0
11.98,-8.038775,5.1160374000000015,-2.4163723,1002.99207,5.669828920374888,1002.9346327982488,0,0
12.0,-7.857144,4.911075599999998,-1.999745,1002.9491,5.668257185404736,1002.9353213904702,0,0
12.02,-7.6946325,5.573627,-2.1654491,1002.9138,5.666716938820643,1002.9358523535516,0,0
12.04,-8.0101,5.5879264000000015,-2.009214,1002.9213,5.66568041412294,1002.9362691240573,0,0
12.06,-7.7758913,5.502128,-1.8813853,1002.9468,5.664549241959128,1002.9366752936296,0,0
12.08,-7.838030000000002,5.397264,-1.947667,1002.9618,5.66334718672725,1002.9371246340066,0,0
12.1,-7.694637299999999,5.4163303,-2.1323087000000003,1002.9618,5.661950736951781,1002.9376105024812,0,0
12.12,-7.957527000000002,5.1494035999999985,-1.862448,1002.95917,5.660410851937533,1002.9381174300566,0,0
12.14,-8.143941,5.3543653,-1.9760736,1002.9696,5.6593424860798045,1002.938678688514,0,0
12.16,-8.000548,5.3591323,-1.7535568,1002.9543,5.658368723848549,1002.9392308532083,0,0
12.18,-7.9718703999999985,5.16847,-1.7204161,1002.9667,5.657206216599369,1002.9398176348607,0,0
12.2,-7.924074000000001,5.18277,-1.786698,1002.9566,5.655840253442506,1002.9403965316433,0,0
12.22,-8.0196705,5.340066,-1.7346195,1002.9237,5.654619995603302,1002.9408479373263,0,0
12.24,-8.024961,5.3686776,-1.8624954,1002.98706,5.653623041367887,1002.9414131628135,0,0
12.26,-7.824231599999999,5.2018485,-1.6683867,1002.95166,5.6522230251710575,1002.9419494846678,0,0
12.28,-8.010666,5.454477,-1.7725456000000002,1002.94434,5.651115187269603,1002.9424319845135,0,0
12.3,-8.058485000000001,5.5927076,-2.0282054,1002.94653,5.650611285081718,1002.9428730742328,0,0
12.32,-7.719141499999999,5.454478,-1.871972,1002.95685,5.649850620079357,1002.9433131380417,0,0
12.34,-8.101546,5.292415599999999,-1.7252073,1002.9543,5.64926947573004,1002.943741531126,0,0
12.36,-8.04899,5.4115796,-1.8009598000000002,1002.94403,5.648922272599862,1002.9441210977437,0,0
12.38,-7.6188273,5.28765,-1.7441486000000002,1002.9544,5.647892793049516,1002.9444934868548,0,0
12.4,-8.2258835,5.273350700000001,-1.7962291,1002.94916,5.647299780431878,1002.9448393293206,0,0
12.42,-7.910439,5.4497137,-2.0755608,1002.93896,5.646871867605277,1002.9451237501382,0,0
12.44,-7.872221499999997,5.2352195,-1.9477341,1002.9341,5.646227617931491,1002.9453353788721,0,0
12.46,-8.2211685,5.382983,-1.8199071,1002.9191,5.646103677379452,1002.9454279266572,0,0
12.48,-7.685852499999997,5.7452416,-2.1560516,1002.95166,5.6461100085103135,1002.9455321373443,0,0
12.5,-7.834046400000001,5.4163504,-1.6826131000000002,1002.9112,5.6458917008082645,1002.9455006222126,0,0
12.52,-7.853186599999999,5.525981400000001,-2.0850394,1002.9619,5.645797199114268,1002.9455318132028,0,0
12.54,-7.705035,5.464017,-2.0850415,1002.929,5.645494158109112,1002.9454998590339,0,0
12.56,-7.767194,5.506916,-2.0755744,1002.9669,5.645157044748446,1002.9455486648379,0,0
12.58,-7.9631867,5.449718,-2.0945141,1002.95184,5.645059632957947,1002.9456144384527,0,0
12.6,-8.068363,5.4163527,-1.9146088,1002.9694,5.645237668032423,1002.9457581840406,0,0
12.62,-8.011026,5.449719,-1.8862042,1002.9393,5.6455883071312085,1002.9458619481793,0,0
12.64,-7.9297905,5.244757,-1.8293933,1002.92145,5.645697094399768,1002.9458657511587,0,0
12.66,-7.9823914,5.1732597,-1.5405966,1002.92645,5.645496988934169,1002.9457992147672,0,0
12.68,-7.791219,5.3734555,-1.957226,1002.919,5.645084241544456,1002.9456439460388,0,0
12.7,-7.729102,5.621317,-2.179745,1002.94434,5.644771401822156,1002.9455020563844,0,0
12.72,-7.968114,5.3162584000000015,-2.1702783,1002.9392,5.64458758279866,1002.9453539952826,0,0
12.74,-7.9533815,5.4973774,-2.0234756000000003,1002.9316,5.644635367374913,1002.9451736541102,0,0
12.76,-7.680938,5.6499076,-1.8388344,1002.90894,5.644540414835636,1002.9448838634956,0,0
12.78,-7.657044,5.616542,-1.9998046000000005,1002.9342,5.644306354415739,1002.9445893425998,0,0
12.8,-7.585350999999997,5.5879426,-1.8341008,1002.94434,5.643729642694487,1002.9443282063028,0,0
12.82,-7.5327787,5.6308417,-1.8293668,1002.9366,5.642816384870138,1002.9440696447282,0,0
12.84,-7.5853615,5.7357063,-1.9193211,1002.9141,5.641859558247706,1002.9437332889996,0,0
12.86,-8.283217,5.5688767,-1.4790218000000002,1002.9669,5.641675441132341,1002.9435194852376,0,0
12.88,-8.230644,5.373448000000002,-1.8814468,1002.9493,5.642003672583197,1002.9433513780867,0,0
12.9,-8.407503,5.182786,-1.4174755,1002.9596,5.642720965170379,1002.9432613336473,0,0
12.92,-7.986886,5.249518,-1.8956509,1002.94934,5.6432930391380545,1002.9432036535793,0,0
12.94,-7.853055,5.192319,-1.8672448,1002.9292,5.6434312659768375,1002.9431022743179,0,0
12.96,-7.9629955,5.3353157,-1.7630883000000002,1002.91895,5.64349360919788,1002.9429257474153,0,0
12.98,-7.7479105,5.1494207,-1.8483081,1002.9443,5.642946065511945,1002.9427747155536,0,0
13.0,-7.9869056,5.2399855,-1.654198,1002.9569,5.6422974132040284,1002.9426921148247,0,0
13.02,-8.010809,5.373449,-1.6163232,1002.967,5.641740522741097,1002.942706637207,0,0
13.04,-7.953457000000001,4.8967934,-2.0471544,1002.9316,5.640811895437063,1002.9426794852901,0,0
13.06,-8.794707,4.6965976,-1.4600886999999998,1002.92664,5.640628143024384,1002.9425977517093,0,0
13.08,-8.182897,4.9730587,-2.3975015,1002.9619,5.640676268303348,1002.9425950200113,0,0
13.1,-8.378874,5.1160555,-1.9145926,1002.9393,5.641201665607992,1002.9425807442103,0,0
13.12,-7.8005223,5.1303554,-1.1428851,1002.929,5.64090781049162,1002.9425192394341,0,0
13.14,-8.2450485,4.892027400000001,-2.4685187,1002.9393,5.640917271532262,1002.9424533045517,0,0
13.16,-8.144678,5.168488,-1.8151715,1002.9418,5.641019447447115,1002.9423926925928,0,0
13.18,-7.465951400000002,5.144655,-1.3748722,1002.9797,5.639862598709023,1002.942473442173,0,0
13.2,-8.350219000000001,4.8205295,-1.8861884,1002.95184,5.638956801728496,1002.94257851211,0,0
13.22,-8.632233,4.7871633000000005,-2.378567,1002.9744,5.638959479779407,1002.942785909263,0,0
13.24,-7.895128,5.030233,-2.155957,1002.9619,5.6386282838438975,1002.9430379761136,0,0
13.26,-8.043266000000001,5.0540650000000005,-2.1038752,1002.9292,5.638259051046612,1002.9432108856693,0,0
13.28,-8.191406,4.9873322999999985,-1.9760432,1002.95184,5.63798672782856,1002.9433947333639,0,0
13.3,-8.239166,4.749004,-1.9002892,1002.97473,5.637605921350981,1002.943669988147,0,0
13.32,-8.329949000000001,4.9587309999999984,-2.1275377,1002.9569,5.6376025599624535,1002.9439608313156,0,0
13.34,-8.124382,5.0254626,-2.1654098,1002.95184,5.6376635767406285,1002.9442461853473,0,0
13.36,-8.019191000000001,5.092193,-2.032843,1002.9544,5.637612982386159,1002.944534877902,0,0
13.38,-8.066956,5.0302267,-2.136997,1002.9773,5.637525413351617,1002.9449079210827,0,0
13.4,-7.794473599999999,5.1446233,-2.0565093,1002.95184,5.637029184336642,1002.945262497522,0,0
13.42,-7.956949000000002,5.335285,-2.075443,1002.9672,5.6366711815537585,1002.945654776272,0,0
13.44,-7.846978699999997,5.292385,-1.9476111,1002.9442,5.636147436195055,1002.9459961565813,0,0
13.46,-8.229329,5.135088,-2.009155,1002.9393,5.635983637988455,1002.9462736940587,0,0
13.48,-8.143257,5.301916599999998,-2.151184,1002.95435,5.636235069091582,1002.9465480008748,0,0
13.5,-7.822975,5.4782777000000005,-1.7629596,1002.9594,5.636352323795111,1002.946836645575,0,0
13.52,-7.9185357,5.2590156,-2.0328176,1002.9393,5.636369241858581,1002.9470645601076,0,0
13.54,-8.157492999999999,5.096952,-1.923923,1002.9443,5.63648179726175,1002.9472559929724,0,0
13.56,-8.014061,5.0683517,-1.7676843,1002.9317,5.63633797062518,1002.9473691414772,0,0
13.58,-7.937550999999999,5.149382,-1.9712605,1002.9594,5.636007801919362,1002.9475124305864,0,0
13.6,-7.9422945999999985,5.35911,-1.9381166,1002.9341,5.6357440066400715,1002.9475907560933,0,0
13.62,-8.286407,5.187513,-2.070677,1002.9417,5.635992557738134,1002.9476387577893,0,0
13.64,-8.07606,5.3591084,-1.9665167,1002.9316,5.6364783600651975,1002.9476234325597,0,0
13.66,-8.114265,4.9587164,-2.0185921,1002.9467,5.636821764362503,1002.9476065668297,0,0
13.68,-8.181148,4.944416,-1.9191662,1002.97186,5.6370975398802505,1002.9476789766298,0,0
13.7,-7.9230027,5.1446114000000005,-2.0517263,1002.94684,5.637140112851879,1002.9477399376137,0,0
13.72,-7.8799496,5.0588117,-2.0895987000000003,1002.97455,5.636825513589112,1002.9478903189633,0,0
13.74,-8.106705,5.0350304,-1.995103,1002.9341,5.6365186913710446,1002.9479735507756,0,0
13.76,-7.9824796,5.0969973,-1.9714355,1002.9543,5.636063109138672,1002.9480698696224,0,0
13.78,-8.073341000000001,5.0826983,-1.8341421,1002.9418,5.635562497400559,1002.9481324054246,0,0
13.8,-7.9538965,5.178031,-1.8672873,1002.9543,5.634936688112449,1002.9482098653999,0,0
13.82,-8.250294,4.930171,-1.9335736,1002.94684,5.6344745704486385,1002.9482733775187,0,0
13.84,-8.470214,4.949239,-1.9714533,1002.9897,5.634579847162911,1002.9484786326677,0,0
13.86,-8.130894999999999,5.135135,-1.9335825,1002.95184,5.63477635815995,1002.9486720970398,0,0
13.88,-8.1500635,5.035039,-1.6069129999999998,1002.94684,5.63485449161344,1002.9488364466097,0,0
13.9,-7.9302382,5.0779394999999985,-1.8294342,1002.94403,5.6345762241016075,1002.9489643626816,0,0
13.92,-8.202739,5.006442,-2.0945656,1002.94403,5.634488526081679,1002.9490596256172,0,0
13.94,-8.016374,5.1017737,-2.1087732000000003,1002.9163,5.634357176783936,1002.949025865295,0,0
13.96,-8.131139,5.101775,-1.8294477,1002.8961,5.6342679837436265,1002.9488055015593,0,0
13.98,-8.260239,5.163742,-1.9762186,1002.88354,5.634565461205341,1002.9483758323564,0,0
14.0,-7.6006794000000015,5.330572599999999,-1.8815355,1002.8885,5.634231796582983,1002.9477806236523,0,0
14.02,-7.9592137,5.2209435,-2.1419322,1002.94403,5.633932870542022,1002.9472411949966,0,0
14.04,-8.073976,5.316275599999999,-2.1087956,1002.93396,5.633951678296222,1002.9467167435342,0,0
14.06,-7.89239,5.197113,-2.0661902,1002.95917,5.633791240371973,1002.9462981699452,0,0
14.08,-7.978475599999999,5.09225,-1.9762409,1002.9566,5.633464795886308,1002.9459654049105,0,0
14.1,-8.155380000000001,5.116084,-2.1088092,1002.9491,5.633380225797643,1002.945682658268,0,0
14.12,-8.021589,5.1351510000000005,-2.1750948,1002.9339,5.6333312353679466,1002.9453904057648,0,0
14.14,-8.294087,4.982622599999999,-2.194037,1002.9491,5.633628991026042,1002.9451455259924,0,0
14.16,-7.9834533,5.349648,-2.1609008,1002.93896,5.634083996257613,1002.9449068823317,0,0
14.18,-7.844885,5.244785299999998,-1.9241848,1002.939,5.634220596955907,1002.9446747520168,0,0
14.2,-7.840158,5.211421,-2.4828496,1002.94653,5.634294194774466,1002.9444763205632,0,0
14.22,-7.892782,5.063659,-2.3929,1002.9667,5.634190997773185,1002.9443809917767,0,0
14.24,-7.952922999999997,5.1398745,-2.227013,1002.9363,5.634035234801296,1002.9442676676907,0,0
14.26,-8.081947,5.29717,-1.7961793999999998,1002.9313,5.634043729080768,1002.9441208509247,0,0
14.28,-8.038897500000001,5.2924027,-2.1086473,1002.97174,5.634247561566879,1002.9440905525666,0,0
14.3,-7.608683,5.3257685,-2.5016,1002.9237,5.634135872846434,1002.9439903749486,0,0
14.32,-8.158329,4.9778085,-2.383237,1002.92365,5.634226527122737,1002.9438286326554,0,0
14.34,-7.871511,5.0445395,-2.250671,1002.9212,5.634010556698213,1002.9436042540874,0,0
14.36,-7.9383974,5.5831594,-2.042354,1002.91113,5.634150866691956,1002.9432890858701,0,0
14.38,-7.5798798,5.54026,-2.1512425,1002.9388,5.63401179710438,1002.942994442524,0,0
14.4,-8.062608,5.1398683,-1.9997388,1002.9617,5.633909839670463,1002.9428014356703,0,0
14.42,-8.033899,4.911073,-2.406895,1002.94635,5.633737846922673,1002.942643669646,0,0
14.44,-8.057765,5.459226,-2.174906,1002.891,5.63403293126188,1002.9423183503765,0,0
14.46,-7.565415400000001,5.6308217,-2.5583901,1002.944,5.634321342233315,1002.9420369522082,0,0
14.48,-8.009908,5.683253,-2.3500736,1002.9363,5.635282080182903,1002.9417676557588,0,0
14.5,-7.7326474,5.826249,-2.5725877,1002.9388,5.63666567280703,1002.9415190218556,0,0
14.52,-7.541423299999999,5.597453,-2.1985664000000003,1002.9362,5.63764429094116,1002.9412801804598,0,0
14.54,-7.742145,5.1064973,-2.2601113,1002.95135,5.6380543701023615,1002.9411053915527,0,0
14.56,-7.6895356,5.1922945999999985,-2.4494842999999995,1002.9363,5.638065242384326,1002.9409336486654,0,0
14.58,-7.6225867,5.5021195,-2.5773106,1002.9412,5.638038243779105,1002.9407828555144,0,0
14.6,-7.612995599999999,5.8405447,-2.8140278,1002.94354,5.638500856034413,1002.9406595404064,0,0
14.62,-7.498249,5.492585,-2.4163349,1002.9589,5.638571916378634,1002.9406162448317,0,0
14.64,-8.105253999999999,5.3257556,-2.3879259,1002.94366,5.639095604166897,1002.9405889463803,0,0
14.66,-7.569884,5.5497828,-2.586768,1002.93097,5.639494010137078,1002.9405301972616,0,0
14.68,-7.416899000000001,5.654646,-2.3263726000000005,1002.94366,5.639522773633213,1002.9404895538304,0,0
14.7,-7.713214999999999,5.3781852999999975,-2.5725589,1002.9311,5.6395081430620175,1002.9404198389008,0,0
14.72,-8.06211,5.4592155999999985,-2.2174757,1002.9257,5.6399482533792575,1002.9403052473688,0,0
14.74,-7.493474000000001,5.5068845999999985,-2.8708382,1002.9511,5.640261738180982,1002.9402428554007,0,0
14.76,-7.6607428,5.3209887,-2.3453171000000004,1002.93353,5.640223833250992,1002.940163559578,0,0
14.78,-7.9331675000000015,5.201824,-2.2695644,1002.9335,5.640159325168207,1002.9400695049749,0,0
14.8,-7.7323937,5.168458,-2.2837658,1002.94354,5.6397031217012605,1002.9399988921094,0,0
14.82,-7.923561599999997,5.120791400000001,-2.326373,1002.93866,5.639193200772098,1002.9399316785699,0,0
14.84,-7.923537700000002,5.16369,-2.3216362,1002.9536,5.638682391849747,1002.9399214946435,0,0
14.86,-7.947414,5.354352,-2.5725580000000003,1002.95123,5.638554530328741,1002.9399532067456,0,0
14.88,-7.545884599999999,5.3686504,-2.4873364,1002.96375,5.638073193988338,1002.9400668960147,0,0
14.9,-7.8469915,5.2923856,-2.4447246,1002.94116,5.637668912481441,1002.9401712870273,0,0
14.92,-7.9138827,5.249486,-2.501535,1002.95856,5.6374278294046425,1002.9403297262925,0,0
14.94,-7.5505943,5.540245,-2.5204706000000003,1002.93854,5.637077771044325,1002.9404632802127,0,0
14.96,-7.6031475,5.320983,-2.482593,1002.94867,5.6364416215221596,1002.9406108326475,0,0
14.98,-7.870794,5.1970525,-2.3642309,1002.9458,5.6357984470251274,1002.940759890982,0,0
15.0,-7.952027,5.3543477,-2.1369774,1002.941,5.635355776185602,1002.9408924633183,0,0
15.02,-7.6413155,5.645107,-2.8424015,1002.9789,5.635288326809999,1002.9411464313672,0,0
15.04,-7.6938705,5.4830437000000005,-2.4920533,1002.95856,5.635250045538252,1002.9414335263817,0,0
15.06,-7.918497,5.4687433,-2.6814275000000003,1002.9536,5.635693114067268,1002.9417310028418,0,0
15.08,-7.689042,5.149383,-2.2269225,1002.92084,5.635579383064924,1002.9419186454318,0,0
15.1,-7.708138000000001,5.2923794,-2.2647953,1002.95844,5.635186632777404,1002.9421439233006,0,0
15.12,-7.7511315,5.2542467,-2.3642156,1002.9763,5.634626670430424,1002.9424659407016,0,0
15.14,-7.93752,5.4925737,-2.5299177000000004,1002.9685,5.6345874263845905,1002.9428441978906,0,0
15.16,-7.6172520000000015,5.5021067000000015,-2.5204468,1002.9435,5.634489039442467,1002.9431807868305,0,0
15.18,-7.7988605,5.387708,-2.231646,1002.9483,5.634358127574848,1002.9434966259853,0,0
15.2,-7.736697,5.3352757,-2.061205,1002.9534,5.63395634748151,1002.9438113536085,0,0
15.22,-7.889627000000001,5.220878,-2.2079694,1002.9509,5.633511092430898,1002.9441149660637,0,0
15.24,-8.038577,5.2542624,-2.2979941000000004,1002.9432,5.633360895342728,1002.944379944151,0,0
15.26,-7.670539999999999,5.4401584000000005,-2.4021517999999995,1002.9586,5.633121239169536,1002.9446652709904,0,0
15.28,-8.134189,5.149399,-2.245917,1002.95844,5.633177117958438,1002.9449669748095,0,0
15.3,-7.9191036,5.3114620000000015,-2.212777,1002.98364,5.633292651844601,1002.9453727831954,0,0
15.32,-7.828295,5.3591275000000005,-1.9145103,1002.9658,5.633230671257348,1002.9458048934654,0,0
15.34,-7.7183676,5.5783896,-2.3122008,1002.9713,5.6332649697541655,1002.9462784884836,0,0
15.36,-8.009943,5.2018312999999985,-2.189107,1002.9708,5.633381303041836,1002.9467852344832,0,0
15.38,-8.067307000000001,5.254264,-2.0092003000000003,1002.9432,5.633645416295371,1002.9472200884039,0,0
15.4,-7.9573793,5.3972607,-1.9429193,1002.9432,5.633986215280628,1002.9475898530104,0,0
15.42,-7.6467004,5.535491,-2.2269845,1002.9738,5.634164260687943,1002.9480109335452,0,0
15.44,-7.976514,5.3352957000000005,-1.9855304,1002.9582,5.634406711020168,1002.9484196809456,0,0
15.46,-8.0052,5.268564,-1.9192493,1002.95306,5.6346512555007395,1002.9487975552968,0,0
15.48,-8.115144,5.3448296,-2.013938,1002.95844,5.6352084973789935,1002.9491661578747,0,0
15.5,-7.742326299999997,5.45446,-1.9523914,1002.9684,5.635512594232272,1002.9495610969444,0,0
15.52,-7.756673299999999,5.4163284,-2.1133618,1002.9786,5.6356415409397504,1002.9500146051568,0,0
15.54,-7.8809559999999985,5.3829627,-1.9618617,1002.9329,5.635718531988776,1002.9503537124353,0,0
15.56,-7.7758074000000015,5.4544606,-1.9287217,1002.95593,5.635642356574342,1002.9506734222614,0,0
15.58,-7.861851700000001,5.363897,-1.9050503,1002.9607,5.635460586431862,1002.9509920135437,0,0
15.6,-7.880978999999999,5.492594,-2.0660207,1002.94824,5.635434912454492,1002.951263613552,0,0
15.62,-7.814067999999999,5.5688586,-2.0044742,1002.9355,5.635498854975968,1002.9514468503104,0,0
15.64,-7.990928599999997,5.587925,-2.004475,1002.948,5.635958193014399,1002.9515963496492,0,0
15.66,-7.88578,5.3543644,-1.9145217,1002.9506,5.636281717192342,1002.951724860406,0,0
15.68,-7.804531,5.440162,-1.9239912,1002.9506,5.63645065813221,1002.9518343630136,0,0
15.7,-7.8093185,5.41633,-2.0281487,1002.95807,5.636506762488563,1002.9519535678106,0,0
15.72,-7.823664999999999,5.7118564,-2.1465094,1002.953,5.636887030504024,1002.9520626643252,0,0
15.74,-7.6368446,5.683247,-2.0517843,1002.9506,5.637170494143412,1002.9521537964138,0,0
15.76,-7.8997254,5.54025,-1.9002823,1002.97064,5.637567108975143,1002.9523008710602,0,0
15.78,-7.641607799999999,5.2304235,-2.1227987,1002.93787,5.63736854586349,1002.952378875082,0,0
15.8,-8.057442,5.239957,-1.5925446,1002.9506,5.6371479121087535,1002.9524413954853,0,0
15.82,-7.909259299999999,5.564082,-2.17961,1002.97565,5.637262856271717,1002.95258018949,0,0
15.84,-7.6941586,5.4830510000000015,-2.0801864,1002.9856,5.637177824309554,1002.9528216991904,0,0
15.86,-8.081314,5.325754,-1.8624034,1002.93286,5.6372940665312194,1002.9529632350444,0,0
15.88,-7.861435,5.4592175,-1.8292615,1002.9352,5.637355670058423,1002.953024348479,0,0
15.9,-7.7992897,5.421085,-2.0801842,1002.96545,5.6373253022436485,1002.9531230806552,0,0
15.92,-8.071729,5.4258510000000015,-2.1417308,1002.9454,5.637703282028085,1002.9531825173157,0,0
15.94,-7.59852,5.5211825,-1.9239473,1002.9579,5.637669035597937,1002.9532520184866,0,0
15.96,-7.7562447,5.4925823,-1.8387271,1002.9504,5.637463346473818,1002.9533031624546,0,0
15.98,-7.9856663,5.4449167,-1.9760242,1002.9858,5.637491215730875,1002.95346534188,0,0
16.0,-7.8183646,5.5926795,-2.0233674,1002.92255,5.6376383961833465,1002.9534973483895,0,0
16.02,-7.96175,5.5259480000000005,-2.1038516,1002.9477,5.638085554046872,1002.9535047588872,0,0
16.04,-8.028658,5.4735155,-2.1606636000000004,1002.99066,5.638873084795519,1002.9536450656708,0,0
16.06,-7.737081,5.468749,-2.0754433,1002.9931,5.6394286934556295,1002.9539110785083,0,0
16.08,-7.913925,5.3972497000000015,-2.01863,1002.978,5.6399648932225,1002.954232847569,0,0
16.099999999999998,-7.694046000000001,5.492581,-1.9428785,1002.9906,5.640194007310005,1002.9546480844597,0,0
16.12,-7.612781,5.606978400000001,-2.113316,1002.9731,5.640228034335357,1002.9550814146723,0,0
16.14,-8.004715,5.2494864,-1.966549,1002.96027,5.6402648404819535,1002.9554829841553,0,0
16.16,-8.038165,5.4544473,-1.9050009,1002.96027,5.640567295598607,1002.9558550442076,0,0
16.18,-7.784827000000001,5.4782800000000025,-1.914469,1002.965,5.640709949274691,1002.9562167183107,0,0
16.2,-7.875635000000001,5.483047,-2.0233593,1002.9956,5.640913562243908,1002.9566780733622,0,0
16.22,-8.186313,5.454447,-2.179594,1003.0007,5.641727888733298,1002.9572442056217,0,0
16.24,-7.865898599999999,5.3019137,-1.9239208,1002.9777,5.642254746889077,1002.9578180809456,0,0
16.259999999999998,-7.6746902000000015,5.2637806,-1.8671064,1002.965,5.642136505698012,1002.9583510120908,0,0
16.28,-8.186114,5.5402403,-2.1274974,1002.93994,5.642735721944495,1002.9587556304068,0,0
16.3,-7.7654770000000015,5.4544415,-1.8339629,1002.9449,5.643040177903768,1002.9590632708816,0,0
16.32,-7.645967,5.2065800000000015,-1.4788811000000002,1002.9424,5.6424649347738836,1002.9592751142301,0,0
16.34,-8.238647,5.006384400000001,-2.2221813,1002.9752,5.642206602948984,1002.9595196286012,0,0
16.36,-8.31511,4.973019,-2.0186007,1002.99786,5.6422365171345925,1002.9598737068367,0,0
16.38,-7.8036556,5.154147,-1.748738,1002.9449,5.6417258299728825,1002.9601326650212,0,0
16.4,-8.080869,5.0492826,-1.8481591,1002.9828,5.641138446464561,1002.9604430828786,0,0
16.419999999999998,-8.114313000000001,4.88722,-1.895502,1002.9652,5.640389733976443,1002.9607344929992,0,0
16.44,-8.291151,4.734689,-2.0659392,1002.9804,5.639726744069996,1002.9610627788068,0,0
16.46,-8.252897,4.9825497,-1.952312,1002.9828,5.639281729822638,1002.961431106143,0,0
16.48,-8.109489,4.9587164,-1.9049667,1002.9753,5.638736553065286,1002.9618064881952,0,0
16.5,-8.405821000000001,5.0397477,-1.9096997,1002.9727,5.638709191947073,1002.9621773924183,0,0
16.52,-8.190714999999999,5.068347,-1.8765575,1002.96,5.638781859796042,1002.9624972847777,0,0
16.54,-8.458369,4.7108545,-2.1274798,1002.9675,5.639149688399487,1002.9627979514412,0,0
16.56,-8.563509,4.396261,-1.9665085,1002.9879,5.6395943592506885,1002.9631539878798,0,0
16.58,-8.243248,4.72992,-1.9381006,1002.96234,5.639844678728402,1002.9634656513208,0,0
16.599999999999998,-8.31493,4.8157177,-1.9996465,1002.9724,5.640161832590121,1002.9637732007919,0,0
16.62,-8.329253999999999,4.7442193,-1.9380977,1002.9522,5.64046397593087,1002.9640032879822,0,0
16.64,-8.515651,4.6441207,-1.966503,1002.9728,5.640995880565767,1002.9642382611867,0,0
16.66,-8.343563,4.544023,-2.184284,1002.98,5.641420273199578,1002.9645026257698,0,0
16.68,-8.2479515,4.5678554,-2.0517197,1002.9827,5.641541262171217,1002.9648017288628,0,0
16.7,-8.224039,4.4582243,-1.9522954,1002.9726,5.641200925673963,1002.9650940901316,0,0
16.72,-8.142766,4.620287,-2.0375135,1002.9419,5.640506438849907,1002.9652689218246,0,0
16.74,-8.271966,4.49636,-2.0564644,1002.92444,5.639617090250215,1002.96527641899,0,0
16.759999999999998,-8.405791,4.524959,-1.9381034,1002.9749,5.63877511424379,1002.9653176883768,0,0
16.78,-8.305408,4.6345897,-2.0517285,1002.9345,5.637954542599218,1002.9652432103287,0,0
16.8,-8.195463,4.753753700000001,-1.9191641,1002.9699,5.637024910973863,1002.9651941659683,0,0
16.82,-8.353188000000001,4.5201917,-2.1748214,1002.9496,5.636161890014501,1002.965094691374,0,0
16.84,-8.501352,4.5011253,-2.1416795,1002.95465,5.635592256726634,1002.9649691947336,0,0
16.86,-8.032924000000001,4.6870213,-2.0043812,1002.9217,5.6345749886080405,1002.964702536801,0,0
16.88,-8.353161,4.777585500000002,-1.9949114,1002.9698,5.633817792514678,1002.9644852687192,0,0
16.9,-8.219318,4.648888,-1.9049569,1002.9621,5.632889184230683,1002.9642847036748,0,0
16.919999999999998,-8.310125,4.801417400000001,-2.009113,1002.9421,5.632170665996653,1002.9640276194684,0,0
16.94,-8.290997500000001,4.748985299999998,-2.0895972,1002.96234,5.631588540974415,1002.9637943844334,0,0
16.96,-8.529978999999999,4.629821,-2.051721,1002.94714,5.6314186786685765,1002.9635283421727,0,0
16.98,-8.257521,4.710852,-2.0943298,1002.9521,5.6312287405127845,1002.9632521251992,0,0
17.0,-8.319651,5.0302114,-2.1984859,1002.93445,5.631505745862657,1002.9629043722307,0,0
17.02,-8.4917145,4.7346845,-1.9002178,1002.9975,5.632067207314508,1002.9627216419676,0,0
17.04,-8.128441,4.715618599999999,-2.1511402000000004,1002.9825,5.632324928110827,1002.9626313835961,0,0
17.06,-8.181011,4.486823,-2.0611858,1002.942,5.6321371695892575,1002.962477358318,0,0
17.08,-8.529927,4.49159,-2.0375133,1002.9646,5.632175058227898,1002.9623489030923,0,0
17.099999999999998,-8.25269,4.6965513,-1.9333555,1002.9672,5.632073663479673,1002.9622528640041,0,0
17.12,-8.367395,4.639353,-2.0280428,1002.9546,5.632036108559547,1002.962140453555,0,0
17.14,-8.362607,4.6155195,-2.136933,1002.94934,5.632071332616973,1002.9619950460492,0,0
17.16,-8.257442,4.539254,-2.141667,1002.96967,5.631911527754568,1002.9618941938118,0,0
17.18,-8.467746,4.558321,-2.0185718999999995,1002.94183,5.631918968014376,1002.9617328496768,0,0
17.2,-8.362581,4.6298184,-1.9617579,1002.93176,5.631932033434572,1002.9614823837402,0,0
17.22,-8.238297,4.7966475,-1.9996322,1002.9442,5.631913717446418,1002.9611988554573,0,0
17.24,-8.348607000000001,4.6870265,-2.1085580000000004,1002.98206,5.631999351439059,1002.9610234299868,0,0
17.259999999999998,-8.515906,4.5630956,-2.0754175,1002.95184,5.632338743271183,1002.9608353636928,0,0
17.28,-8.458555,4.6345944,-1.9144485,1002.94934,5.632800123176638,1002.9606278050068,0,0
17.3,-8.171774000000001,4.7823577,-2.0754187,1002.9745,5.633076449178701,1002.9604943460533,0,0
17.32,-8.377312,4.529731,-1.8576367,1002.9416,5.633208887853589,1002.9603084020764,0,0
17.34,-8.31996,4.6202955,-2.0328104,1002.95935,5.633272804495037,1002.9601406517309,0,0
17.36,-8.310408,4.6298285,-2.056483,1002.95166,5.633278735473538,1002.9599618971794,0,0
17.38,-8.4633665,4.5964627,-2.1606402,1002.9644,5.6335193729128505,1002.9598199268277,0,0
17.4,-8.296081,4.5535636,-1.9665304,1002.982,5.633541259698872,1002.9597743300883,0,0
17.419999999999998,-8.415581,4.4391669999999985,-1.8434365,1002.95935,5.633423393470153,1002.9597325132213,0,0
17.44,-8.434708,4.463,-2.0138755,1002.96436,5.633309870493739,1002.95971222279,0,0
17.46,-8.449053,4.677495,-2.1464392999999995,1002.95166,5.6334919873993625,1002.9596653061627,0,0
17.48,-8.506416,4.4915996,-1.9097198,1002.95166,5.633756157606168,1002.9595950315288,0,0
17.5,-8.573339,4.605996599999999,-2.165378,1002.9568,5.6344308653891035,1002.9595228747487,0,0
17.52,-8.315237,4.5201993,-1.9760025,1002.95166,5.634838692583027,1002.9594308106688,0,0
17.54,-8.353481,4.539265,-2.1133008,1002.95166,5.63515613327257,1002.9593214879292,0,0
17.56,-8.434744,4.401035299999998,-2.0943637,1002.9467,5.635397768575183,1002.959179453,0,0
17.58,-8.324815,4.372436,-2.0233483,1002.95667,5.635315429198577,1002.9590449169057,0,0
17.599999999999994,-8.291362,4.4582343,-2.084896,1002.9593,5.634996184725278,1002.958926959112,0,0
17.62,-8.324827,4.5630984,-2.0706935,1002.9643,5.634623695125834,1002.9588420745523,0,0
17.64,-8.353513000000001,4.5249662000000015,-2.094366,1002.93616,5.6342301353112365,1002.9586854150874,0,0
17.66,-8.525592,4.5059004,-2.0848978,1002.95416,5.634105011043292,1002.9585306992896,0,0
17.68,-8.186232,4.6965623,-2.0470233,1002.96185,5.633783881637047,1002.9584059418936,0,0
17.7,-8.573402,4.38197,-2.1511805,1002.9441,5.63372402676437,1002.9582442048676,0,0
17.72,-8.449133,4.577399,-2.0612273,1002.96674,5.633816794462803,1002.9581318788936,1,3
17.74,-8.2088375,4.553534,-2.0090294,1002.92615,5.633569803282278,1002.9579174928994,1,3
17.759999999999994,-8.538601,4.453436,-2.046901,1002.95636,5.633533853175128,1002.9577224544599,1,3
17.78,-7.9649796,4.548765,-1.9474744,1002.9815,5.6327107275189165,1002.957635717659,1,3
17.8,-8.275623,4.339036,-2.1131744,1002.96643,5.631617557995819,1002.957590736438,1,3
17.82,-8.21344,4.510631,-2.141577,1002.9792,5.630356214532566,1002.9576287843802,1,3
17.84,-8.27075,4.415299,-1.9521959,1002.9691,5.628876995364329,1002.957703699918,1,3
17.86,-8.050836,4.524928,-2.0847554,1002.95636,5.626984222592919,1002.9577650579672,1,3
17.88,-8.04601,4.3485646,-1.800687,1002.9741,5.6244290441590845,1002.9578780797312,1,3
17.9,-8.189359,4.2151003,-1.9758558,1002.9616,5.621502476880339,1002.9579913446747,1,3
17.919999999999995,-8.131959,4.238931,-1.9427111,1002.9741,5.618162595644332,1002.958149416738,1,3
17.94,-7.9120417,4.2961290000000005,-1.8338155,1002.9614,5.614083065674381,1002.9583007913127,1,3
17.96,-8.017151,4.2579956,-1.8338114,1002.95654,5.609516543170124,1002.9584282070384,1,3
17.98,-8.117482,4.372392,-1.9900424,1002.9691,5.604892336555565,1002.9585792100282,1,3
18.0,-8.165234,4.41529,-1.9332256,1002.97424,5.600336179751401,1002.958769015114,1,3
18.02,-8.040919,4.563052,-1.7911898999999998,1002.97406,5.59572271089124,1002.9589917744333,1,3
18.04,-7.883139999999999,4.4152875,-1.762779,1002.9766,5.590635464577278,1002.9592519941797,1,3
18.06,-8.131641,4.3866873,-1.9237444,1002.98395,5.585629671253599,1002.9595708371687,1,3
18.08,-7.825691,4.3819194,-1.8905997,1002.9565,5.580149625192872,1002.9598415118201,1,3
18.1,-8.002498,4.319953400000001,-1.7438289,1002.95135,5.5744649401559805,1002.9600501104994,1,3
18.12,-7.854278599999999,4.448649,-1.8195753,1002.9438,5.5685127716905365,1002.9601759278947,1,3
18.14,-7.7873187,4.5153804000000015,-1.909525,1002.9865,5.5623328410723065,1002.9603818668048,1,3
18.16,-8.026263,4.2913504,-1.8858489,1002.98413,5.556166702186145,1002.9606493277048,1,3
18.18,-7.8063498,4.3819137,-1.8195633,1002.97156,5.5497031669687775,1002.9609249345767,1,3
18.2,-7.858882,4.21985,-1.8006215,1002.941,5.542927210332082,1002.9610967310443,1,3
18.22,-8.00223,4.400978599999998,-1.9426494,1002.9766,5.5363918730381965,1002.9613043421713,1,3
18.24,-7.759725,4.362877,-1.7486546000000005,1002.95374,5.529542567317535,1002.961460555731,1,3
18.26,-7.884005499999999,4.443908,-1.8433434,1002.9739,5.522780842044192,1002.9616433680321,1,3
18.28,-7.769297,4.362877,-1.91436,1002.95355,5.5158668590151665,1002.9617757648559,1,3
18.3,-8.041752,4.196048,-1.7912661,1002.98895,5.5091176235031964,1002.9619905779364,1,3
18.32,-7.9222636,4.3104453000000005,-1.9048921000000003,1002.97363,5.502480348631757,1002.9622222886937,1,3
18.34,-7.7597565999999984,4.5297074,-1.9380337,1002.98114,5.495911391833666,1002.9624951320793,1,3
18.36,-7.841019,4.2151146,-1.8291428,1002.9762,5.489211152857612,1002.9627855540193,1,3
18.38,-7.984420299999999,4.191282,-1.8670187,1002.9888,5.4826699705162545,1002.9631358228513,1,3
18.4,-7.8840494,4.2055817000000015,-1.7202528,1002.9839,5.476065927707797,1002.9635200714287,1,3
18.42,-7.707203,4.5106410000000015,-1.7912694,1002.9912,5.469447362664031,1002.9639592412146,1,3
18.44,-7.9318604000000015,4.42961,-1.8717549,1002.9762,5.463188448051636,1002.9643913583693,1,3
18.46,-7.8984074999999985,4.386711,-1.8244114,1002.9888,5.457148157824831,1002.9648610481967,1,3
18.48,-7.76458,4.44391,-1.8291463,1002.9787,5.451144522212074,1002.9653258863547,1,3
18.5,-7.8171644,4.2532477,-1.6965835,1003.00146,5.445045639583506,1002.9658667001604,1,3
18.52,-7.9796834,4.2675475999999986,-1.7391938000000002,1002.9837,5.439207055750437,1002.9664087631186,1,3
18.54,-7.807617,4.381945,-1.7581321,1003.0342,5.4334312686124004,1002.967131778401,1,3
18.56,-7.7454863,4.6774716,-1.7818046000000003,1003.0165,5.4279350924974965,1002.9679483603024,1,3
18.58,-7.979702499999997,4.3390464999999985,-1.7486644,1003.0267,5.422763678334595,1002.9688813979732,1,3
18.6,-8.060965,4.410545,-1.6823833,1003.0165,5.418088083328074,1002.9698772570268,1,3
18.62,-7.946256,4.4915767,-1.7155247,1003.0267,5.413755609270124,1002.9709617599608,1,3
18.64,-7.9319224,4.6536393,-1.8433542,1003.0366,5.4099322508855385,1002.9721563244176,1,3
18.66,-8.032305000000001,4.48681,-1.706057,1003.03674,5.406527064178905,1002.973444342804,1,3
18.68,-8.127907,4.5869083,-1.8149488,1003.04675,5.403816157713966,1002.9748463362159,1,3
18.7,-8.051436,4.5392423,-1.7202612000000002,1003.01636,5.401507872422415,1002.9762345867844,1,3
18.72,-8.123139,4.5440097,-1.7770747,1003.0367,5.399717991669204,1002.977678920474,1,3
18.74,-8.083882000000001,4.7966120000000005,-1.6586213,1003.0316,5.3985364472962525,1002.9791492496088,1,3
18.76,-8.193788,4.791845,-1.781713,1003.06177,5.398131208087648,1002.9807458671337,1,3
18.78,-8.260672,4.5821157,-1.7627726,1003.0643,5.398312768185273,1002.9824574332564,1,3
18.8,-8.208058,4.706045,-1.7154251,1003.0515,5.399025133693381,1002.9842183263232,1,3
18.82,-8.231923,4.501082,-1.658609,1003.07916,5.4000208469208655,1002.9861160414622,1,3
18.84,-8.231891000000001,4.667911,-1.7959039,1003.04663,5.401480672873413,1002.9880107128096,1,3
18.86,-8.011987,4.6202445,-1.691744,1003.0843,5.402867265039828,1002.9900314858462,1,3
18.88,-8.2700615,4.6202440000000005,-1.800632,1003.09186,5.404684238929666,1002.9921836235519,1,3
18.9,-8.007135,4.7203403,-1.6491276999999998,1003.059,5.4064537285270005,1002.9943257913844,1,3
18.92,-8.379928999999999,4.4391127,-1.7106721,1003.0969,5.408582371720837,1002.9965878780321,1,3
18.94,-8.375114,4.6107078,-1.734341,1003.1145,5.411187574201443,1002.9990111414328,1,3
18.96,-8.064395,4.720338,-1.6964629,1003.0994,5.413748512917818,1003.0015137368648,1,3
18.98,-8.408506,4.5630407,-1.6491157,1003.09674,5.416699416384177,1003.0040678447356,1,3
19.0,-8.2842,4.610706,-1.7580042000000002,1003.09436,5.419848206840829,1003.0066497062094,1,3
19.02,-8.36064,4.8061337,-1.6443751,1003.1019,5.423452194209747,1003.0092739400653,1,3
19.04,-8.437082,4.6965017,-1.6727784,1003.10974,5.427481131889828,1003.0119543909157,1,3
19.06,-8.360573,4.825198,-1.8148074,1003.1295,5.431917189298903,1003.0147460014799,1,3
19.08,-8.417897,4.715566,-1.715382,1003.1321,5.4366509145739,1003.0176351429697,1,3
19.1,-8.456102,4.8299629999999985,-1.739051,1003.13226,5.4418225452120135,1003.0206006378747,1,3
19.12,-8.460847,4.6964984,-1.6917037,1003.1346,5.447219793686656,1003.0236313468766,1,3
19.14,-8.475154,4.7155643,-1.7911233,1003.185,5.452878053805663,1003.0268902085021,1,3
19.16,-8.293486999999999,4.7536955,-1.7343072,1003.1422,5.458440236990368,1003.0301848538836,1,3
19.18,-8.283896,4.7822943,-1.7058978,1003.1649,5.463899213089175,1003.0335809770688,1,3
19.2,-8.412918,4.6059303,-1.7106292,1003.175,5.469302317648214,1003.037090899998,1,3
19.22,-8.4224415,4.5773306,-1.7011572,1003.1926,5.4746222377229925,1003.040752100658,1,3
19.24,-8.251135000000001,4.5535164,-1.6728207999999998,1003.16986,5.479508317891914,1003.0444519259987,1,3
19.26,-8.523581,4.5439835,-1.7675086,1003.1624,5.484508952653977,1003.0481457047364,1,3
19.28,-8.361065,4.5439835,-1.7911806,1003.20013,5.489309344370565,1003.0519566710916,1,3
19.3,-8.40886,4.577349,-1.7154298,1003.1624,5.49400549501416,1003.0557216369476,1,3
19.32,-8.423197,4.6059480000000015,-1.7343671000000005,1003.2027,5.498653366527215,1003.0595774828847,1,3
19.34,-8.303699,4.6965127,-1.7059605,1003.2102,5.503107810912645,1003.0635267494164,1,3
19.36,-8.442311,4.758478,-1.8053827,1003.17737,5.507721507878285,1003.0674261570256,1,3
19.38,-8.418409,4.706046,-1.8053825,1003.21515,5.512364289418694,1003.071403479424,1,3
19.4,-8.595261,4.68698,-1.7059598000000002,1003.2178,5.51727712649284,1003.0754448689694,1,3
19.42,-8.251112,4.882408,-1.8432573,1003.21497,5.522047945872499,1003.0795181312433,1,3
19.44,-8.4901,4.65838,-1.7391002,1003.22015,5.526834136604047,1003.0836235405161,1,3
19.46,-8.456638,4.7060456,-1.7485687,1003.22253,5.531607415218956,1003.0877511434036,1,3
19.48,-8.184187,4.849042400000001,-1.6917558,1003.215,5.535993594197036,1003.0918563891987,1,3
19.5,-8.609587,4.6440800000000015,-1.710693,1003.2453,5.540580231518751,1003.0960361813825,1,3
19.52,-8.322796,4.7489443,-1.8053811,1003.2427,5.544953840987333,1003.1002574355026,1,3
19.54,-8.270216,4.615481,-1.7296302,1003.24255,5.548867127560798,1003.1044995888756,1,3
19.56,-8.346689999999999,4.620248,-1.776974,1003.2451,5.552518793760809,1003.1087541170759,1,3
19.58,-8.122036999999999,4.658379,-1.720161,1003.22,5.555542908399642,1003.1129139033724,1,3
19.6,-8.447061,4.6488466,-1.781708,1003.2302,5.5585944851153295,1003.1170117204916,1,3
19.62,-8.208069,4.6726794,-1.7627700000000002,1003.25006,5.561249773693824,1003.1211115255043,1,3
19.64,-8.518753,4.706045,-1.6491441999999998,1003.26544,5.5640918754743085,1003.125253695722,1,3
19.66,-8.384916,4.7775435,-1.72016,1003.293,5.566946717866981,1003.1295176040213,1,3
19.68,-8.432711999999999,4.829975599999999,-1.710691,1003.28564,5.569937272819126,1003.1338472340204,1,3
19.7,-8.365791,4.7870765,-1.6728156000000003,1003.28284,5.572860876275335,1003.1382092690452,1,3
19.72,-8.700376499999999,4.610714,-1.7201593000000002,1003.24506,5.576157562531333,1003.1424482258244,1,3
19.74,-8.389942,4.696518,-1.7343857,1003.2753,5.579303294072868,1003.1466720344217,1,3
19.76,-8.509445,4.753717,-1.7154488999999995,1003.2727,5.582567965540652,1003.150857892374,1,3
19.78,-8.198765,4.8347483,-1.7485904,1003.28284,5.585469486651483,1003.1550316520484,1,3
19.8,-8.432983,4.710818,-1.7012471000000002,1003.29553,5.5883115904833005,1003.1592253801492,1,3
19.82,-8.442549,4.63932,-1.7675292,1003.3156,5.591061573211343,1003.1634939069307,1,3
19.84,-8.423437,4.6679195999999985,-1.7722645,1003.3004,5.593716076985363,1003.1677584391298,1,3
19.86,-8.217914,4.648854,-1.6444362,1003.3156,5.595843870687678,1003.1720588094,1,3
19.88,-8.361315,4.5153904,-1.7343906000000002,1003.31586,5.597656114985262,1003.1763763008568,1,3
19.9,-8.366102,4.539223000000002,-1.7154536,1003.3307,5.599207803013166,1003.1807468016252,1,3
19.92,-8.552522999999999,4.601188,-1.7012511,1003.3182,5.600914427882639,1003.1851034076179,1,3
19.94,-8.289639999999999,4.7060533,-1.7485958,1003.36096,5.602402244364948,1003.1895859884061,1,3
19.96,-8.476061,4.5106244,-1.7580654999999998,1003.351,5.603836409536688,1003.1941278872321,1,3
19.98,-8.323114,4.68222,-1.7580662,1003.3558,5.605112122431043,1003.1987231286405,1,3
20.0,-8.390039,4.563057,-1.7059881999999995,1003.37103,5.606225720923537,1003.203403788686,1,3
20.02,-8.523881,4.7060537,-1.7343953999999997,1003.3559,5.607583212096124,1003.208088606263,1,3
20.04,-8.590806,4.6250230000000006,-1.7012553,1003.37616,5.609180242422638,1003.2128331680914,1,3
20.06,-8.495217,4.782319,-1.7959439,1003.36835,5.611001812504192,1003.217585323518,1,3
20.08,-8.304032000000001,4.696521,-1.6397093999999997,1003.37604,5.612531301579363,1003.222354764888,1,3
20.1,-8.404417,4.701288,-1.7770077000000002,1003.37585,5.614031084222334,1003.227121626129,1,3
20.12,-8.466561,4.60119,-1.72493,1003.37585,5.615492308923121,1003.2318690468677,1,3
20.14,-8.289715,4.6965218,-1.7817433999999996,1003.3734,5.616713880895729,1003.2365733792633,1,3
20.16,-8.337521,4.725121499999998,-1.7201970000000002,1003.3961,5.617810099200294,1003.241304423203,1,3
20.18,-8.299291,4.763254,-1.7154633,1003.3835,5.618760581128549,1003.2459966777043,1,3
20.2,-8.351875,4.539226,-1.5639629,1003.3961,5.619395747619135,1003.2506831257423,1,3
20.22,-8.495277,4.5201597,-1.7391366,1003.3835,5.620052142122365,1003.2553022119755,1,3
20.24,-8.33194,4.686969,-1.6727793999999998,1003.3809,5.620571415632941,1003.2598357886084,1,3
20.26,-8.389273,4.6631355,-1.6964493000000005,1003.4263,5.621054805378625,1003.2644409280824,1,3
20.28,-8.489624000000001,4.5916367,-1.682244,1003.4263,5.6216094051771925,1003.2690927219801,1,3
20.3,-8.346205,4.6631345999999985,-1.710648,1003.4161,5.62204845347357,1003.2737322732692,1,3
20.32,-8.480015,4.524903299999999,-1.6490983,1003.41364,5.6224665385220005,1003.2783354486045,1,3
20.34,-8.656841,4.715565,-1.7153777,1003.4213,5.623392152536246,1003.2829174867157,1,3
20.36,-8.288772999999999,4.987259,-1.7059067,1003.4212,5.624382038061972,1003.2874639926384,1,3
20.38,-8.594653,4.5392013,-1.6396227,1003.44147,5.625496349320708,1003.2920357068983,1,3
20.4,-8.484694000000001,4.520135,-1.6112139,1003.4314,5.626489382693518,1003.2965769850737,1,3
20.42,-8.46555,4.520134400000001,-1.6822279999999998,1003.46405,5.627362016432862,1003.301192561323,1,3
20.44,-8.503764,4.434335,-1.7485071,1003.4338,5.628136593432517,1003.3057482712759,1,3
20.46,-8.498957,4.658363,-1.7200983,1003.4589,5.629018717167272,1003.3103250428142,1,3
20.48,-8.561069999999999,4.5439653,-1.7011586,1003.46655,5.6299865825474615,1003.314931487991,1,3
20.5,-8.23124,4.5677977,-1.6017338,1003.4666,5.6304210863884165,1003.3195477495924,1,3
20.52,-8.627938,4.3962,-1.748498,1003.4691,5.630987504773227,1003.3241650664453,1,3
20.54,-8.417601,4.6154613,-1.7911054,1003.4767,5.6315138134244025,1003.3287940533768,1,3
20.56,-8.360221000000001,4.539196,-1.9189321,1003.5119,5.631876110312674,1003.3335434076372,1,3
20.58,-8.532267,4.2436690000000015,-1.781632,1003.48926,5.6320710347810365,1003.3383005167948,1,3
20.6,-8.422305999999999,4.3008666,-1.73902,1003.4713,5.6319531522439945,1003.3429826965858,1,3
20.62,-8.632593,4.305632599999999,-1.7721587,1003.49426,5.631959909447946,1003.347664468941,1,3
20.64,-8.364898,4.524893799999999,-1.8289689,1003.48676,5.6318198695696005,1003.3523020269064,1,3
20.66,-8.6086445,4.701256,-1.7579508999999998,1003.5042,5.632133414668108,1003.3569466058271,1,3
20.68,-8.527362,4.644056299999999,-1.8336989,1003.4965,5.632673260110903,1003.361552947981,1,3
20.7,-8.603813,4.6202235,-1.710602,1003.5143,5.633479640710155,1003.3661730012954,1,3
20.72,-8.455617,4.601156,-1.7626784,1003.49396,5.6342524422066065,1003.3707153135988,1,3
20.74,-8.42768,4.5725756,-1.7248712,1003.51166,5.634900652075379,1003.3752363016215,1,3
20.76,-8.470702000000001,4.4486446,-1.7911533,1003.4938,5.6354195823401305,1003.3796578759527,1,3
20.78,-8.284296000000001,4.644074,-1.8290288,1003.52924,5.63569290857003,1003.3841032746781,1,3
20.8,-8.346437,4.4248129999999986,-1.7296069,1003.5041,5.635607107722603,1003.388463217203,1,3
20.82,-8.480278,4.5058440000000015,-1.7343417,1003.5417,5.635525489149453,1003.3928673148364,1,3
20.84,-8.260411,4.644074,-1.8574368000000003,1003.53674,5.635236556462528,1003.3972767171713,1,3
20.86,-8.356012,4.5821095000000005,-1.772218,1003.55945,5.634841480579225,1003.4017566888929,1,3
20.88,-8.30344,4.625008599999999,-1.8432345,1003.5241,5.6343299997934215,1003.4061556278259,1,3
20.9,-8.4086,4.6297746,-1.8195629,1003.5419,5.633900741282142,1003.4105312100073,1,3
20.92,-8.451622,4.615475,-1.8337665,1003.55444,5.633614178563392,1003.4149155460665,1,3
20.94,-8.370372,4.658374299999998,-1.8953143,1003.5721,5.633376192709199,1003.4193554094425,1,3
20.96,-8.403835,4.648842,-1.829033,1003.55676,5.633205996167604,1003.4237731292476,1,3
20.98,-8.676289,4.658374299999998,-1.9521279,1003.5671,5.633642538181581,1003.4281926032021,1,3
21.0,-8.346487,4.629775,-1.8716437,1003.56433,5.6339629739948665,1003.4325877450168,1,3
21.02,-8.599822999999999,4.6154757,-1.9000505,1003.5593,5.634630662662219,1003.4369274564424,1,3
21.04,-8.179205,4.6965075,-1.7485499,1003.55945,5.634873376478772,1003.4412031066144,1,3
21.06,-8.609391,4.400981400000001,-1.8479729,1003.5746,5.635262760998553,1003.4454612999228,1,3
21.08,-8.413425,4.620243,-2.0231464,1003.582,5.635708452995727,1003.4497153788504,1,3
21.1,-8.336953,4.677442,-1.942662,1003.6049,5.636088800171749,1003.4540329476268,1,3
21.12,-8.250921,4.6726756,-1.9758033,1003.587,5.636266584574393,1003.4583266327865,1,3
21.14,-8.255707000000001,4.5201454000000005,-1.966335,1003.5946,5.636118237304967,1003.4626111171153,1,3
21.16,-8.370427000000001,4.467713400000001,-1.952132,1003.6173,5.635830900351618,1003.4669537674464,1,3
21.18,-8.160121,4.572578,-1.9663359,1003.59467,5.635154726296843,1003.4712507117163,1,3
21.2,-8.561629,4.510612999999998,-1.9284611,1003.60474,5.634779760336977,1003.4755280531112,1,3
21.22,-8.231827000000001,4.7537074,-1.971071,1003.6425,5.634340993028897,1003.4799086109764,1,3
21.24,-8.475507,4.6107087,-1.8479682,1003.61224,5.634088139486501,1003.4842556649068,1,3
21.26,-8.384691,4.672674,-1.8384995,1003.62494,5.633895382231972,1003.4886031853656,1,3
21.28,-8.379913,4.625008599999999,-1.8432342,1003.6497,5.633702559907805,1003.4930246029761,1,3
21.3,-8.46595,4.653608,-1.8479685,1003.6603,5.633694221840655,1003.4975335590058,1,3
21.32,-8.394255000000001,4.5439773,-1.7911558999999997,1003.61444,5.633591198049452,1003.5019385357413,1,3
21.34,-8.308219,4.768005400000002,-1.8432345,1003.6753,5.633494397417551,1003.5064548744556,1,3
21.36,-8.289102,4.70604,-1.7106712,1003.6447,5.633256375767957,1003.5109431937959,1,3
21.38,-8.504194,4.69174,-1.8621724,1003.6803,5.633321194212653,1003.5155187572673,1,3
21.4,-8.504195,4.768005400000002,-1.8763757,1003.6878,5.633734603501942,1003.5201819376248,1,3
21.42,-8.293885000000001,4.672674,-1.7580158,1003.65247,5.633939090774332,1003.5247785608127,1,3
21.44,-8.43728,4.496311,-1.6775308,1003.6422,5.63401244124832,1003.5292628542427,1,3
21.46,-8.327346,4.4534125,-1.7106718,1003.6777,5.63374196814397,1003.5337595496424,1,3
21.48,-8.403825,4.443879,-1.7201407,1003.6674,5.633301120243336,1003.5382139353187,1,3
21.5,-8.465962,4.434346,-1.8053602,1003.6701,5.6328468343168,1003.5426246203352,1,3
21.52,-8.389486999999999,4.5773425,-1.7485473000000002,1003.69293,5.632360683770707,1003.5470630009823,1,3
21.54,-8.470744999999999,4.672674,-1.7296098000000002,1003.71045,5.632080612942513,1003.5515729473187,1,3
21.56,-8.504205,4.6631413,-1.7106723999999998,1003.6952,5.632027357835206,1003.5560749932913,1,3
21.58,-8.513765,4.653608,-1.7911575000000002,1003.70264,5.632212210418388,1003.5605806351367,1,3
21.6,-8.599805,4.6202426,-1.7722199,1003.71533,5.632721859010989,1003.5651189179848,1,3
21.62,-8.413393,4.7775383,-1.7106727,1003.70544,5.633315881496954,1003.5696341006047,1,3
21.64,-8.642824000000001,4.5106115,-1.7059384999999998,1003.72296,5.634131733012644,1003.5741756892056,1,3
21.66,-8.432514999999999,4.6917405,-1.8100955,1003.72034,5.634976398850018,1003.578714828412,1,3
21.68,-8.389498,4.658374299999998,-1.7012043,1003.7027,5.63569284020364,1003.5831719584328,1,3
21.7,-8.327361,4.806138,-1.8479708,1003.7304,5.636387097415208,1003.5876402994684,1,3
21.72,-8.255666,4.677441,-1.7485485,1003.71783,5.636763401939663,1003.5920572085297,1,3
21.74,-8.436339,4.534421,-1.8194768,1003.7304,5.637066502669803,1003.5964580234253,1,3
21.76,-8.192535000000001,4.5582523,-1.8384113,1003.7582,5.636898078623004,1003.6009288545828,1,3
21.78,-8.450607000000002,4.5105863,-1.8431425,1003.73553,5.636731311743684,1003.6053638451167,1,3
21.8,-8.139882,4.815645,-1.7626538,1003.72534,5.636287670325202,1003.6097145169106,1,3
21.82,-8.154183999999999,4.753679,-1.7673849999999998,1003.7354,5.635563868483152,1003.6140112382466,1,3
21.84,-8.46006,4.5153503,-1.8099918,1003.73804,5.634919880595271,1003.6182543247612,1,3
21.86,-8.49348,4.62498,-1.7247689,1003.7733,5.634483253668232,1003.6225616804367,1,3
21.88,-8.2831335,4.8823733,-1.6490151999999998,1003.79364,5.6340894530738375,1003.6269835418616,1,3
21.9,-8.445608,4.7870407,-1.7294964,1003.78076,5.6339540392994785,1003.6314442938665,1,3
21.92,-8.83274,4.624977,-1.7910409,1003.7756,5.6346068227968855,1003.6359047748796,1,3
21.94,-8.306924,4.77274,-1.7768341,1003.7883,5.6351510960678,1003.6403946787134,1,3
21.96,-8.502858999999999,4.72984,-1.7294866999999998,1003.7708,5.635885580220712,1003.6448314168975,1,3
21.98,-8.397664,4.7346053,-1.6868736,1003.7629,5.636587006039423,1003.6491767656564,1,3
22.0,-8.254235000000001,4.8585353,-1.7484176,1003.81104,5.637151505438221,1003.653599023463,1,3
22.02,-8.325899,4.706004,-1.7389457,1003.7856,5.637560539407677,1003.6579817339766,1,3
22.04,-8.292401,4.8108673,-1.7673486,1003.8061,5.637888474307292,1003.662387522744,1,3
22.06,-8.249346000000001,4.725068599999998,-1.6915948,1003.79065,5.6379515808515475,1003.6667422226171,1,3
22.08,-8.268429,4.696469,-1.5779657,1003.81335,5.637745367299559,1003.6711178234236,1,3
22.1,-8.378331,4.6249695,-1.686854,1003.81866,5.637464979454429,1003.675515256132,1,3
22.12,-8.316155,4.7155333,-1.6963191999999998,1003.7806,5.637102935799756,1003.6797791327507,1,3
22.14,-8.387818,4.858529,-1.6868473000000002,1003.8514,5.6369394755408475,1003.6841645292534,1,3
22.16,-8.292185,4.7584300000000015,-1.6394999,1003.85913,5.636663232916565,1003.6886693412978,1,3
22.18,-8.368628,4.7870282999999985,-1.7483879,1003.8335,5.636492515095194,1003.6931711835913,1,3
22.2,-8.478524,4.5915985,-1.7483845,1003.8385,5.636417621952129,1003.6976721951813,1,3
22.22,-8.545406,4.6249638,-1.7862566000000002,1003.8285,5.6365945450168935,1003.7021202691193,1,3
22.24,-8.321519,4.7107806,-1.7437166000000002,1003.85364,5.636661911337634,1003.706596058282,1,3
22.26,-8.550944,4.7393804,-1.7247787,1003.8691,5.6370633720102905,1003.7111358797766,1,3
22.28,-8.331068,4.915742400000001,-1.7295126,1003.8637,5.6375489175373135,1003.7156964968816,1,3
22.3,-8.335842,4.820411,-1.7437153000000003,1003.8816,5.638022309326245,1003.7203235107672,1,3
22.32,-8.350177,4.686948,-1.7579181000000002,1003.8739,5.6383789220353755,1003.7249648155977,1,3
22.34,-8.340613000000001,4.5773163,-1.7768551,1003.8662,5.6385124066206656,1003.7295743192101,1,3
22.36,-8.484002,4.5534835,-1.6395571,1003.8587,5.638632713971349,1003.7341121290524,1,3
22.38,-8.369282,4.677414,-1.7579169,1003.87885,5.6386996952662765,1003.7386427941644,1,3
22.4,-8.230661999999999,4.7584453,-1.871542,1003.90155,5.638599115105673,1003.7432325557986,1,3
22.42,-8.249777,4.634515,-1.757916,1003.93207,5.638215089697403,1003.7479678839777,1,3
22.44,-8.53178,4.4057198,-1.7342433999999998,1003.9116,5.6378588193170085,1003.7527410955744,1,3
22.46,-8.493537,4.6440473,-1.6632268,1003.92706,5.6376625807734415,1003.7575862533972,1,3
22.48,-8.163725,4.777511,-1.8005241,1003.93726,5.637206588548082,1003.7625142603372,1,3
22.5,-8.526985,4.605914599999998,-1.7200388,1003.9522,5.636967789874393,1003.7675515159316,1,3
22.52,-8.589118,4.5677824000000005,-1.762648,1003.90936,5.637012579010463,1003.7725129455181,1,3
22.54,-8.388361999999999,4.7775106,-1.7626475,1003.8993,5.637154972051024,1003.7773532980967,1,3
22.56,-8.613007000000001,4.582082,-1.7295061,1003.927,5.63758064338908,1003.782168961762,1,3
22.58,-8.531744999999999,4.753677400000001,-1.7957873,1003.9396,5.638301438620127,1003.7869908339144,1,3
22.6,-8.221053,4.877608,-1.7910526000000002,1003.93964,5.638854444543202,1003.791800977146,1,3
22.62,-8.565194,4.605914,-1.6868953000000002,1003.9572,5.63955821531584,1003.7966466561876,1,3
22.64,-8.364436,4.6249804,-1.9283494,1003.93713,5.640143746106367,1003.8014340382268,1,3
22.66,-8.221038,4.729844,-1.7484416,1003.94214,5.640402057289768,1003.8061707104587,1,3
22.68,-8.316628,4.558248000000002,-1.7153002,1003.9774,5.6403565360875225,1003.8109724594854,1,3
22.7,-8.450459,4.5248823,-1.7721127,1003.9674,5.6402720484188205,1003.815778424071,1,3
22.72,-8.173225,4.6345134,-1.757909,1003.98254,5.639759998445983,1003.8206253160524,1,3
22.74,-8.445893,4.5868525999999985,-1.8242108,1003.97,5.639337253167539,1003.8254457786693,1,3
22.76,-8.307282,4.624985,-1.847883,1003.985,5.6387938056200095,1003.8302795346344,1,3
22.78,-8.202131,4.720316,-1.8005394,1003.99506,5.6380361593907615,1003.8351438510804,1,3
22.8,-8.441125,4.5248876,-1.7247893,1003.98755,5.6372963164567125,1003.839990623228,1,3
22.82,-8.312075,4.8061147,-1.8147432,1003.975,5.6366580494594825,1003.844759264854,1,3
22.84,-8.383774,4.7012506,-1.7058523999999995,1003.9926,5.636092332461822,1003.8495050632416,1,3
22.86,-8.493714,4.877612999999998,-1.9236352,1004.0253,5.636049140070408,1003.8543313124692,1,3
22.88,-8.551075,4.772749,-1.7153218999999995,1004.01544,5.636385150901438,1003.8591757775612,1,3
22.9,-8.302528,4.8299484,-1.8289477,1004.033,5.636713844462304,1003.864082114118,1,3
22.92,-8.402908,4.791815799999998,-1.7342601999999998,1004.03284,5.637137999817556,1003.8690248814884,1,3
22.94,-8.312097,4.767983,-1.7200572,1004.02277,5.637454290905808,1003.8739457931636,1,3
22.96,-8.340778,4.6488190000000005,-1.7910737,1004.0026,5.637631907657073,1003.8787570658644,1,3
22.98,-8.259525,4.7822824,-1.7531987,1004.02277,5.6376623390859,1003.8835267529856,1,3
23.0,-8.278648,4.658352,-1.729527,1004.0306,5.637462098852023,1003.8882707122154,1,3
23.02,-8.34079,4.801349,-1.7721372,1004.0559,5.637329740217665,1003.8930659400268,1,3
23.04,-8.288216,4.715551400000002,-1.7531998,1004.0509,5.637070327197609,1003.8978712059368,1,3
23.06,-8.292999,4.610687,-1.6679808,1004.04047,5.636571600455874,1003.9026304945537,1,3
23.08,-8.3647,4.639286,-1.8289509,1004.07855,5.636080131505497,1003.9074691121948,1,3
23.1,-8.345585,4.686952,-1.6253719,1004.0383,5.635535058668277,1003.9122155059388,1,3
23.12,-8.5559,4.696485,-1.5874969,1004.04333,5.6353181687945595,1003.9168814316297,1,3
23.14,-8.38861,4.7298512000000015,-1.7437326000000002,1004.08374,5.6351807996381655,1003.921604934416,1,3
23.16,-8.532007,4.6917186,-1.7153265,1004.0429,5.635322191634432,1003.926215283714,1,3
23.18,-8.455536,4.872848,-1.762671,1004.07574,5.635772152922088,1003.9308272773328,1,3
23.2,-8.264347,4.992012,-1.7200618000000003,1004.0581,5.636264529404258,1003.9353606166956,1,3
23.22,-8.445983,4.7298517,-1.672718,1004.08875,5.636827115339697,1003.9399184771364,1,3
23.24,-8.518197,4.7679973,-1.8384695,1004.08875,5.637677928819177,1003.9444815961044,1,3
23.26,-8.384387,4.582102,-1.6917052,1004.0962,5.6383021515793015,1003.9490597542787,1,3
23.28,-8.374851,4.6822,-1.79113,1004.0811,5.6388428489860924,1003.953580359726,1,3
23.3,-8.269716,4.6154685,-1.7485221999999998,1004.1138,5.639037560778826,1003.958151557404,1,3
23.32,-8.508731,4.5630370000000005,-1.8432126,1004.1088,5.639339111763396,1003.962733002066,1,3
23.34,-8.298446,4.501072,-1.6585729,1004.1089,5.639226260228562,1003.9673073677617,1,3
23.36,-8.513558999999999,4.5964046,-1.7911384999999995,1004.1063,5.639276350896746,1003.9718496507664,1,3
23.38,-8.255473,4.5868715999999985,-1.6822494,1004.0989,5.6389575173451885,1003.9763205932866,1,3
23.4,-8.298516000000001,4.6822032999999985,-1.6254386,1004.11145,5.638465833362951,1003.9807575839617,1,3
23.42,-8.432373,4.5582733,-1.7201288,1004.1216,5.637974341303178,1003.9851851416196,1,3
23.44,-8.590129,4.6154730000000015,-1.8574287,1004.1316,5.637875984134197,1003.9896244250566,1,3
23.46,-8.494557,4.6154733,-1.7296019,1004.13654,5.637905242310997,1003.9940758719713,1,3
23.48,-8.485021000000001,4.77277,-1.7438072,1004.1316,5.63819100146596,1003.9985042573261,1,3
23.5,-8.255616,4.8061365999999985,-1.7627473000000002,1004.1493,5.638336140556379,1004.0029600432988,1,3
23.52,-8.461169,4.758472,-1.994735,1004.1418,5.638764479796362,1004.0073969996288,1,3
23.54,-8.494655999999999,4.501078,-1.8290333,1004.162,5.63918306271768,1004.0118740650432,1,3
23.56,-8.432539,4.658375,-1.824301,1004.1418,5.639630984781383,1004.0162977334093,1,3
23.58,-8.2318125,4.648843,-1.8243033,1004.15186,5.639735970214286,1004.0206945109372,1,3
23.6,-8.580761,4.667909,-1.8385085,1004.1619,5.640185101433053,1004.0250878433212,1,3
23.62,-8.346572,4.6774435,-1.9047922,1004.1845,5.640553947215222,1004.0295436755805,1,3
23.64,-8.227102,4.6917434,-1.8763883,1004.1796,5.640641348909128,1004.034021051732,1,3
23.66,-8.494796000000001,4.4343495000000015,-1.7106860000000002,1004.2124,5.640644082547697,1004.0386194255136,1,3
23.68,-8.399221,4.601179599999999,-1.8101108,1004.1821,5.640597899765985,1004.043199078655,1,3
23.7,-8.399245,4.5010824000000005,-1.7817065,1004.20264,5.640400387894258,1004.0478196474876,1,3
23.72,-8.241537,4.4486513,-1.7248958,1004.1821,5.639713736172593,1004.0523857913772,1,3
23.74,-8.566074,4.4391065,-1.8100705,1004.2149,5.6392068270657285,1004.057005487269,1,3
23.76,-8.53262,4.596403,-1.7674611,1004.20764,5.638934199047633,1004.0616297348047,1,3
23.78,-8.456146,4.6679010000000005,-1.7721958999999998,1004.20514,5.638804050063079,1004.0662323568823,1,3
23.8,-8.432252,4.648835,-1.7201176,1004.2177,5.6387193546421726,1004.0708445172653,1,3
23.82,-8.594769,4.548737,-1.7295866999999998,1004.2228,5.638873813896563,1004.0754668619172,1,3
23.84,-8.489616,4.6297690000000005,-1.6869775000000002,1004.2252,5.639112561245537,1004.0800902049488,1,3
23.86,-8.4944,4.625003,-1.8290099,1004.23785,5.639481649834376,1004.0847433261138,1,3
23.88,-8.5565405,4.5678043,-1.7295878,1004.2278,5.639983567373365,1004.0893698280008,1,3
23.9,-8.527866,4.6917343,-1.7485258999999995,1004.2278,5.640677220123168,1004.0939561536876,1,3
23.92,-8.264981,4.806132,-1.7911359,1004.253,5.641201145787947,1004.0985811889116,1,3
23.94,-8.546992999999999,4.4915395,-1.7295889,1004.23035,5.64174338742316,1004.1031422377548,1,3
23.96,-8.71907,4.739401,-1.866887,1004.2682,5.6429005107802235,1004.1077665884571,1,3
23.98,-8.260212,4.8013654,-1.6917144,1004.2783,5.643775585067303,1004.1124665850192,1,3
24.0,-8.508766,4.5582714000000015,-1.6538395,1004.2555,5.644586560905403,1004.1171344222753,1,3
24.02,-8.561347999999999,4.644069,-1.7674656000000002,1004.248,5.645557080665662,1004.1217300393544,1,3
24.04,-8.570911,4.8680983,-1.7958721000000002,1004.27576,5.646915109840328,1004.126345234464,1,3
24.06,-8.618712,4.7203345,-1.7958726000000005,1004.29095,5.6485488312927865,1004.1310157980188,1,3
24.08,-8.752550999999999,4.815666,-1.724857,1004.26556,5.650728421278505,1004.1356270671029,1,3
24.1,-8.523124000000001,4.977729,-1.8526862,1004.2859,5.653184843021967,1004.140242567024,1,3
24.12,-8.652182,4.9300632,-1.7106543,1004.2834,5.656004775041457,1004.1448361895133,1,3
24.14,-8.766900999999999,4.9062304,-1.772202,1004.2858,5.659338243643704,1004.1494025840622,1,3
24.16,-8.800364,4.920531,-1.8810937,1004.2834,5.6632278900612425,1004.153919840983,1,3
24.18,-8.676093,4.920531,-1.7816714,1004.30597,5.667336450249731,1004.1584586697708,1,3
24.2,-8.809931,4.839499,-1.7627342,1004.3036,5.671775142711049,1004.1629916876767,1,3
24.22,-8.70478,5.0825934,-1.8526882,1004.286,5.676580562604247,1004.1674398922224,1,3
24.24,-8.647841,4.9157743,-1.8432579,1004.31366,5.6814181047779675,1004.1718967181473,1,3
24.26,-8.929871,4.8347435,-1.7864468999999998,1004.2859,5.686669657835457,1004.1762451813487,1,3
24.28,-8.748258,4.8728766,-1.8385272,1004.329,5.691999176097085,1004.1806374007808,1,3
24.3,-8.767398,4.8490443,-1.7769816000000005,1004.32886,5.6973662515339765,1004.1850519672284,1,3
24.32,-8.815213,4.834745,-1.7864522,1004.32385,5.702822225907206,1004.1894523510596,1,3
24.34,-8.891711,4.8538112999999985,-1.8432671000000005,1004.33655,5.7085140128268135,1004.1938700817486,1,3
24.36,-8.92041,4.906244,-1.8716754,1004.367,5.714507268004299,1004.1983968562912,1,3
24.38,-8.949110000000003,4.949144,-1.7391139,1004.324,5.7207911572801855,1004.2028488855943,1,3
24.4,-8.973028,4.9491444000000016,-1.8196006,1004.3542,5.727380750791157,1004.2073275626989,1,3
24.42,-8.762733,5.030176,-1.8906181,1004.3491,5.733949726054963,1004.2117953025622,1,3
24.44,-8.953948,4.791849,-1.8290728,1004.3643,5.740559366227722,1004.2162920144164,1,3
24.46,-9.140381,4.729883999999998,-1.7769963,1004.3593,5.747440972180728,1004.2207801377588,1,3
24.48,-8.772357000000001,4.920547,-1.7769982,1004.329,5.754059964142952,1004.2251354350484,1,3
24.5,-9.006587,4.8776480000000015,-1.7391248,1004.34424,5.760787350026959,1004.2294125521672,1,3
24.52,-8.992268,4.915781,-1.8290802,1004.3617,5.767629933972398,1004.2336680476656,1,3
24.54,-9.035307,4.944381,-1.7864726000000002,1004.35187,5.7746397152341125,1004.2378537305163,1,3
24.56,-9.011426,4.8967166,-1.7864743000000003,1004.33655,5.781682334709103,1004.2419075064536,1,3
24.58,-9.068803,4.8633504,-1.7201943,1004.35675,5.788776411882484,1004.2459028558484,1,3
24.6,-8.949327,4.8728843,-1.7486026,1004.37964,5.795694164913052,1004.2499146002924,1,3
24.62,-9.044944,4.8156867,-1.7817453,1004.38715,5.8025598319615925,1004.2539534251222,1,3
24.64,-9.107102,4.8681192000000015,-1.7486064,1004.37445,5.809506011259242,1004.2579559184112,1,3
24.66,-9.025861,4.906251,-1.7912176,1004.3643,5.816403897907032,1004.2618753601753,1,3
24.68,-8.834692,4.834754,-1.8811733,1004.3872,5.822854198622338,1004.2657897476213,1,3
24.7,-8.858611,4.672692,-1.6397206000000002,1004.3721,5.828685251056617,1004.2696312172773,1,3
24.72,-8.935108999999997,4.625026,-1.7533481,1004.35925,5.8340812066470145,1004.2733481674827,1,3
24.74,-8.995801,4.6154575,-1.8100287,1004.3796,5.8391952292928435,1004.2770149712816,1,3
24.76,-8.957514999999997,4.663122,-1.852634,1004.39484,5.844032713545794,1004.2806791292217,1,3
24.78,-8.909678,4.6964865,-1.7626767,1004.3796,5.848520428481848,1004.2842728943125,1,3
24.8,-8.890526,4.753685,-1.8052833,1004.3823,5.8527186420487585,1004.2878012427268,0,0
24.82,-8.890486,4.701251999999998,-1.7910765,1004.362,5.856590306773622,1004.291186006912,0,0
24.84,-8.957377000000003,4.5963874,-1.8336836,1004.38464,5.860197439102714,1004.2945132189212,0,0
24.86,-8.790034,4.6154519999999986,-1.8147415,1004.36725,5.863265045734607,1004.2977149958645,0,0
24.88,-8.976409,4.605918,-1.8762853,1004.37714,5.866197218217615,1004.3008300159863,0,0
24.9,-8.732600999999999,4.7203145,-1.8194689,1004.3874,5.868645778201174,1004.3038940997084,0,0
24.92,-8.766026,4.5868497,-1.8620756,1004.37714,5.870606608352027,1004.3068652093264,0,0
24.94,-8.703851,4.658347,-1.8999472,1004.35706,5.8721002173447285,1004.3096711830314,0,0
24.96,-8.895011,4.582082,-1.814725,1004.3799,5.873416418250233,1004.3124033651379,0,0
24.98,-8.832838,4.7346106,-1.9378163,1004.3673,5.874650764376272,1004.3150151491327,0,0
25.0,-8.660718,4.6154449999999985,-1.890468,1004.3899,5.875365265737307,1004.3175925069336,0,0
25.02,-8.593762,4.5201135,-2.0230277,1004.3949,5.875460517137147,1004.320148167262,0,0
25.04,-8.679761,4.4962797,-1.8762579,1004.38995,5.875081294092549,1004.3226576353256,0,0
25.06,-8.636709,4.4533796,-1.9709427,1004.4177,5.874204145797245,1004.3252171538196,0,0
25.08,-8.584091,4.5773096,-1.9946111,1004.3647,5.8729223311725285,1004.327620882607,0,0
25.1,-8.478897,4.5344095,-1.9946077,1004.38495,5.871057540445649,1004.3299512021864,0,0
25.12,-8.603136,4.4962764,-1.8762444,1004.38245,5.868823534917133,1004.3321992682384,0,0
25.14,-8.564872,4.524874700000002,-1.994602,1004.3622,5.866277557079973,1004.3342936620368,0,0
25.16,-8.583941000000001,4.5201072999999985,-1.9141127,1004.35205,5.863461857713548,1004.3362081912134,0,0
25.18,-8.564786,4.4676743,-1.899906,1004.39764,5.860328027549522,1004.3381210237056,0,0
25.2,-8.583866,4.563004,-1.8336207,1004.4178,5.857023428489036,1004.3400980468103,0,0
25.22,-8.426108000000001,4.648802,-1.8904314,1004.3901,5.853402423521402,1004.3420249514572,0,0
25.24,-8.509303,4.253225,-1.8385304,1004.37994,5.849269038340903,1004.343864058578,0,0
25.26,-8.528461,4.5249195,-1.8195964,1004.3497,5.8449792159977365,1004.3455101030188,0,0
25.28,-8.3325205,4.8633456,-1.9142874,1004.40765,5.840590612300283,1004.347188251516,0,0
25.3,-8.3708,4.615486,-1.9711038,1004.3901,5.835972564547683,1004.3488255458225,0,0
25.32,-8.313491,4.6869855000000005,-1.8574827,1004.3673,5.831090949060599,1004.3503387671068,0,0
25.34,-8.356552,4.744185,-1.9758466,1004.4077,5.826176082812825,1004.351882349872,0,0
25.36,-8.2992325,4.720353,-2.0989447,1004.4101,5.821177510665884,1004.353455843144,0,0
25.38,-8.466566,4.5630584,-1.814884,1004.3975,5.816147776813918,1004.3550047407635,0,0
25.4,-8.447486999999999,4.6536236,-1.9048414,1004.38495,5.8111983104512746,1004.3564811496336,0,0
25.42,-8.294571000000001,4.6726913,-1.777016,1004.40265,5.806033739138652,1004.3579519123724,0,0
25.44,-8.380638000000001,4.6822243,-1.7533468999999997,1004.4103,5.800851713319736,1004.3594399314436,0,0
25.46,-8.476286,4.6679263,-1.8196331,1004.4078,5.795854790634179,1004.360928841342,0,0
25.48,-8.275572,4.782325,-1.753355,1004.4052,5.790771895347162,1004.3624038182994,0,0
