Timestamp,Ax,Ay,Az,P,Value,Type
0.0,3.6512442000000003,3.856645,8.822182000000002,1002.9851,0,0
0.04,4.831857,4.538262400000002,9.361903,1003.0481,0,0
0.08,3.3023211999999997,4.285635,7.9699880000000025,1003.04565,0,0
0.12,4.1101093,5.6155043,8.803244,1003.0387,0,0
0.16,2.8673613,5.5344725,8.571258,1003.0260000000001,0,0
0.2,3.0681142999999995,5.9634633,9.58442,1003.00085,0,0
0.24,3.0149724,5.8681455,10.299263999999999,1003.02625,0,0
0.28,3.172687,6.1255403,9.238756,1003.0319,0,0
0.32,2.135448,5.6774845,10.446028,1003.03436,0,0
0.36,4.3484739999999995,7.2933474,12.15041,1003.03674,0,0
0.4,5.8493129999999995,8.051231,14.072576999999999,1003.0369999999999,0,0
0.44,7.173298,8.280026,12.330314,1002.9870599999999,0,0
0.48,5.9018474,7.3648467,8.680086,1002.9522,0,0
0.52,6.5614399999999975,7.6365414000000005,4.546949400000001,1002.9144,0,0
0.56,3.6983159,4.657443499999999,3.7278953,1002.9245,0,0
0.6,0.63922125,3.1416798,0.30965328,1002.8996599999999,0,0
0.64,-3.2372212000000005,1.5067513000000001,-0.9260283000000001,1002.9276,0,0
0.68,-6.195943,0.87756634,-0.675107,1002.9200400000001,0,0
0.72,-8.236938,1.1254277,-1.3379253999999998,1002.92786,0,0
0.76,-10.712898,1.3065574,-1.8729153000000005,1002.9128,0,0
0.8,-9.331555999999999,3.1321492,-1.2669133,1002.9102,0,0
0.84,-8.571588,3.7279693999999997,-0.61830163,1002.951,0,0
0.88,-9.149966000000001,4.0425625,0.9771905999999999,1002.9839,0,0
0.92,-7.892899499999999,4.881476999999999,-0.42892954,1002.9713,0,0
0.96,-7.7638664,5.181771,1.4979713,1002.9789400000001,0,0
1.0,-8.251425999999999,4.9958754,1.0908105,1002.9789400000001,0,0
1.04,-8.700747999999999,4.647917700000002,-0.04544842,1002.95886,0,0
1.08,-9.255227,3.9710669999999997,0.45166212,1002.9491,0,0
1.12,-9.436881,4.152197,0.18653348,1002.9494,0,0
1.16,-8.571758,4.4095907,-0.17328325,1002.93445,0,0
1.2,-8.175055,4.4763236,0.48479718,1002.9822,0,0
1.24,-7.9610167,4.414384,-0.5994778000000001,1002.955,0,0
1.28,-8.893142,3.8757648000000002,-0.7935941999999999,1002.9245,0,0
1.32,-9.246909,3.6565049,-0.9877106,1002.9401,0,0
1.36,-9.734513,3.3228470999999997,-0.73679304,1002.95795,0,0
1.4,-8.898107000000003,3.637441200000002,-0.42906216,1002.94495,0,0
1.44,-8.826469,3.7137077000000014,-0.52375567,1002.9682,0,0
1.48,-8.7644,3.6469777000000003,-0.8646389000000001,1002.9735,0,0
1.52,-9.1850815,3.3323864999999997,-0.097670875,1002.95844,0,0
1.56,-9.40502,3.0940602000000004,-0.95460427,1002.9335,0,0
1.6,-9.840041000000001,2.8509672000000004,-0.41488755,1002.9711,0,0
1.64,-8.912823,3.299025,-1.1913357,1002.9685699999999,0,0
1.68,-8.721689,3.7423162000000003,-1.4706709999999998,1002.9512300000001,0,0
1.72,-9.070679,3.8328824,-0.44804546,1002.9714,0,0
1.76,-8.88911,3.8233511,-1.0493206,1002.93115,0,0
1.8,-9.45797,3.4992267999999997,-0.5522139,1002.9416,0,0
1.84,-9.214263,3.4706292000000003,0.091659285,1002.96686,0,0
1.88,-9.152185000000001,3.6326932999999997,-0.50961554,1002.9593,0,0
1.92,-9.290863,3.4849317,-0.8173577,1002.9543,0,0
1.96,-8.46402,3.9377557999999997,-1.4754457,1002.95935,0,0
2.0,-8.913381,4.009256,-0.585383,1002.9267,0,0
2.04,-8.736591,3.8567275999999997,-0.82684356,1002.9468400000001,0,0
2.08,-9.271994,3.7184991999999997,-0.6043323,1002.97504,0,0
2.12,-8.8370905,4.02356,-0.71322894,1002.9522,0,0
2.16,-8.837154,3.9615962999999996,-0.85053253,1002.9926,0,0
2.2,-8.971052,3.9520648,-0.5238644,1002.965,0,0
2.24,-9.061433000000001,3.9139218000000002,-0.552231,1002.97327,0,0
2.28,-8.71733,4.1188845999999995,-1.0919572,1002.95294,0,0
2.32,-8.535735,4.0521536,-1.1061637,1002.9454,0,0
2.36,-9.114137,3.9282247999999997,-0.83157253,1002.9682,0,0
2.4,-9.128517,3.8567271,-1.0446244,1002.9932,0,0
2.44,-8.569325,4.1188883999999995,-1.2198016999999999,1002.9355,0,0
2.48,-9.061684,3.9282277000000003,-0.8599903,1002.9355,0,0
2.52,-8.454692,4.0902915,-1.1014489,1002.9656,0,0
2.56,-8.889699,3.6899017999999995,-0.9594209999999999,1002.9682,0,0
2.6,-9.281687,3.6136377,-0.61854774,1002.9709,0,0
2.64,-9.080975,3.6422383999999997,-1.0635854999999999,1002.9409,0,0
2.68,-8.928064,3.75187,-1.0399173000000002,1002.93854,0,0
2.72,-9.014142,3.6422404999999998,-0.9310298,1002.95905,0,0
2.76,-9.119342999999999,3.5659769,-0.9547059999999999,1002.93646,0,0
2.8,-9.191078,3.3657825,-0.9594439,1002.94147,0,0
2.84,-9.434891,3.4658809,-0.76060283,1002.9239,0,0
2.88,-9.30588,3.4086833,-0.79374754,1002.9313,0,0
2.92,-8.722787,3.7423432,-0.95945585,1002.9338,0,0
2.96,-8.89968,3.7137449,-0.8742401,1002.9491,0,0
3.0,-8.894946000000003,3.7089796,-1.0778238000000002,1002.92926,0,0
3.04,-9.425544,3.3324225,-1.1819843,1002.9164400000001,0,0
3.08,-9.425585,3.2704582,-0.96893996,1002.957,0,0
3.12,-8.751676,3.5278532999999994,-1.4755251,1002.9243,0,0
3.16,-9.181896,3.4897218,-1.2861524,1002.9394,0,0
3.2,-8.923833,3.7089849000000004,-1.1535933,1002.9265,0,0
3.24,-8.871205999999997,3.6327186,-1.1772608,1002.9471,0,0
3.28,-9.115015,3.5898206,-1.2861557,1002.9069,0,0
3.32,-8.775689,3.4611243999999997,-1.5181451000000001,1002.93225,0,0
3.36,-9.153328,3.4086933,-1.1393958,1002.9548300000001,0,0
3.4,-9.497516000000001,3.570757,-0.71330327,1002.9373,0,0
3.44,-8.651525999999999,3.7280542999999997,-1.1583408000000002,1002.9501,0,0
3.48,-8.627664,3.7566545,-1.262501,1002.9526,0,0
3.52,-9.139146,3.4897285000000005,-1.1678169,1002.96014,0,0
3.56,-9.320816,3.5373949999999996,-1.1583515,1002.9253,0,0
3.6,-8.890672,3.6708595999999996,-1.5371073,1002.9124,0,0
3.64,-8.976747,3.7852578,-0.8316844999999999,1002.93787,0,0
3.68,-8.728234,3.9044227999999994,-0.91217285,1002.9428,0,0
3.72,-8.842992,3.8186254999999996,-1.0684120000000001,1002.95294,0,0
3.76,-9.120257,3.780494,-0.72280383,1002.9533,0,0
3.8,-8.943442,3.6994636,-1.0210748,1002.93036,0,0
3.84,-9.168134,3.8233953,-1.049485,1002.9253,0,0
3.88,-8.876605,3.9044275,-0.9121908999999999,1002.94073,0,0
3.92,-8.757147999999999,3.9377940000000002,-1.0210854999999999,1002.95105,0,0
3.96,-8.785862,3.9663947,-1.1678555,1002.92346,0,0
4.0,-9.225646000000001,3.7614336,-0.94534224,1002.9257,0,0
4.04,-8.848078999999998,3.9425638,-1.172597,1002.9513,0,0
4.08,-8.805098,3.890132700000001,-1.0637091,1002.9413,0,0
4.12,-9.053689,3.8996663000000003,-0.90274316,1002.9413,0,0
4.16,-8.919888499999997,3.7852702000000007,-0.67076045,1002.9613,0,0
4.2,-8.781316,3.8996682000000003,-0.8932813000000001,1002.93353,0,0
4.24,-9.120719,3.7185404,-0.9122223,1002.9337,0,0
4.28,-8.915033,3.7519023000000002,-0.87906754,1002.9386599999999,0,0
4.32,-8.742991,3.9806979,-1.0163679,1002.9339,0,0
4.36,-8.953335000000003,4.033130600000002,-1.0116365,1002.9364,0,0
4.4,-8.762172,4.157062000000002,-1.0069048,1002.9313,0,0
4.44,-8.781324,4.176129,-1.0211111,1002.9213,0,0
4.48,-8.762236,4.0569654,-1.1820834999999998,1002.9289,0,0
4.52,-9.058617,3.7805063999999997,-0.79859984,1002.9339,0,0
4.56,-9.049087,3.7566737999999997,-0.8838218000000001,1002.9265,0,0
4.6,-9.168614,3.689943,-1.3572652,1002.929,0,0
4.64,-9.340716,3.8186410000000004,-1.0258596,1002.9368,0,0
4.68,-8.542519,4.1427674,-0.869627,1002.9566,0,0
4.72,-8.155387,4.2047334,-0.59029996,1002.9368,0,0
4.76,-9.025344,3.5469494,-0.9122425999999999,1002.9544,0,0
4.8,-9.36474,3.375354,-1.3620138000000002,1002.9367699999999,0,0
4.84,-9.422130000000001,3.3133894999999995,-0.8317633,1002.9521,0,0
4.88,-9.063677,3.5850839999999997,-1.0448145,1002.9468400000001,0,0
4.92,-9.044588000000001,3.9330437000000007,-1.1584431,1002.9343,0,0
4.96,-8.580979,3.894912,-0.9122568999999999,1002.94714,0,0
5.0,-8.662264,3.7423828,-0.59031993,1002.9445,0,0
5.04,-8.977762,3.6184532999999997,-1.3241556,1002.9524,0,0
5.08,-9.326717,3.4182587,-1.0116876000000001,1002.9342,0,0
5.12,-9.121217999999999,3.6089218,-0.8554550999999999,1002.947,0,0
5.16,-8.992194999999997,3.7709854,-1.0400996999999998,1002.9295,0,0
5.2,-8.590722999999999,3.952115,-1.2815573999999998,1002.927,0,0
5.24,-9.016157000000002,3.8996839999999997,-1.1442626,1002.9499,0,0
5.28,-9.01619,3.7137887000000003,-0.7513098000000001,1002.9674699999999,0,0
5.32,-9.078357,3.6422915000000002,-0.82232857,1002.93445,0,0
5.36,-8.758141,3.8472538,-1.096927,1002.9245,0,0
5.4,-8.958933,3.7233245000000004,-0.87441355,1002.9423,0,0
5.44,-9.107138,3.6470604,-1.0448551,1002.9674699999999,0,0
5.48,-9.092827999999999,3.6804273000000003,-0.84601283,1002.9449,0,0
5.52,-8.968585000000003,3.7900584000000004,-0.7513276,1002.95746,0,0
5.56,-8.834775,3.7471601999999997,-0.95490915,1002.94745,0,0
5.6,-8.839592,3.7805269,-1.1348200000000002,1002.9145,0,0
5.64,-9.188549,3.7090294000000004,-1.0164628,1002.9399400000001,0,0
5.68,-8.973488,3.7042637000000003,-0.9454494000000001,1002.9399,0,0
5.72,-8.944842,3.7709966,-1.0354062,1002.95795,0,0
5.76,-8.992663,3.78053,-1.0070019000000001,1002.93256,0,0
5.8,-8.868427,3.7376318,-0.9170517,1002.9348,0,0
5.84,-9.203043,3.4945378,-0.71347505,1002.95276,0,0
5.88,-9.088361,3.623236,-0.8129006,1002.9554400000001,0,0
5.92,-9.040593,3.6232366999999996,-0.64246476,1002.9602,0,0
5.96,-9.007164,3.747168,-0.8933909,1002.9426,0,0
6.0,-9.026317,3.713803,-1.0259573,1002.95795,0,0
6.04,3.6512442000000003,3.856645,8.822182000000002,1002.9851,0,0
6.08,4.831857,4.538262400000002,9.361903,1003.0481,0,0
6.12,3.3023211999999997,4.285635,7.9699880000000025,1003.04565,0,0
6.16,4.1101093,5.6155043,8.803244,1003.0387,0,0
6.2,2.8673613,5.5344725,8.571258,1003.0260000000001,0,0
6.24,3.0681142999999995,5.9634633,9.58442,1003.00085,0,0
6.28,3.0149724,5.8681455,10.299263999999999,1003.02625,0,0
6.32,3.172687,6.1255403,9.238756,1003.0319,0,0
6.36,2.135448,5.6774845,10.446028,1003.03436,0,0
6.4,4.3484739999999995,7.2933474,12.15041,1003.03674,0,0
6.44,5.8493129999999995,8.051231,14.072576999999999,1003.0369999999999,0,0
6.48,7.173298,8.280026,12.330314,1002.9870599999999,0,0
6.52,5.9018474,7.3648467,8.680086,1002.9522,0,0
6.56,6.5614399999999975,7.6365414000000005,4.546949400000001,1002.9144,0,0
6.6,3.6983159,4.657443499999999,3.7278953,1002.9245,0,0
6.64,0.63922125,3.1416798,0.30965328,1002.8996599999999,0,0
6.68,-3.2372212000000005,1.5067513000000001,-0.9260283000000001,1002.9276,0,0
6.72,-6.195943,0.87756634,-0.675107,1002.9200400000001,0,0
6.76,-8.236938,1.1254277,-1.3379253999999998,1002.92786,0,0
6.8,-10.712898,1.3065574,-1.8729153000000005,1002.9128,0,0
6.84,-9.331555999999999,3.1321492,-1.2669133,1002.9102,0,0
6.88,-8.571588,3.7279693999999997,-0.61830163,1002.951,0,0
6.92,-9.149966000000001,4.0425625,0.9771905999999999,1002.9839,0,0
6.96,-7.892899499999999,4.881476999999999,-0.42892954,1002.9713,0,0
7.0,-7.7638664,5.181771,1.4979713,1002.9789400000001,0,0
7.04,-8.251425999999999,4.9958754,1.0908105,1002.9789400000001,0,0
7.08,-8.700747999999999,4.647917700000002,-0.04544842,1002.95886,0,0
7.12,-9.255227,3.9710669999999997,0.45166212,1002.9491,0,0
7.16,-9.436881,4.152197,0.18653348,1002.9494,0,0
7.2,-8.571758,4.4095907,-0.17328325,1002.93445,0,0
7.24,-8.175055,4.4763236,0.48479718,1002.9822,0,0
7.28,-7.9610167,4.414384,-0.5994778000000001,1002.955,0,0
7.32,-8.893142,3.8757648000000002,-0.7935941999999999,1002.9245,0,0
7.36,-9.246909,3.6565049,-0.9877106,1002.9401,0,0
7.4,-9.734513,3.3228470999999997,-0.73679304,1002.95795,0,0
7.44,-8.898107000000003,3.637441200000002,-0.42906216,1002.94495,0,0
7.48,-8.826469,3.7137077000000014,-0.52375567,1002.9682,0,0
7.52,-8.7644,3.6469777000000003,-0.8646389000000001,1002.9735,0,0
7.56,-9.1850815,3.3323864999999997,-0.097670875,1002.95844,0,0
7.6,-9.40502,3.0940602000000004,-0.95460427,1002.9335,0,0
7.64,-9.840041000000001,2.8509672000000004,-0.41488755,1002.9711,0,0
7.68,-8.912823,3.299025,-1.1913357,1002.9685699999999,0,0
7.72,-8.721689,3.7423162000000003,-1.4706709999999998,1002.9512300000001,0,0
7.76,-9.070679,3.8328824,-0.44804546,1002.9714,0,0
7.8,-8.88911,3.8233511,-1.0493206,1002.93115,0,0
7.84,-9.45797,3.4992267999999997,-0.5522139,1002.9416,0,0
7.88,-9.214263,3.4706292000000003,0.091659285,1002.96686,0,0
7.92,-9.152185000000001,3.6326932999999997,-0.50961554,1002.9593,0,0
7.96,-9.290863,3.4849317,-0.8173577,1002.9543,0,0
8.0,-8.46402,3.9377557999999997,-1.4754457,1002.95935,0,0
8.04,-8.913381,4.009256,-0.585383,1002.9267,0,0
8.08,-8.736591,3.8567275999999997,-0.82684356,1002.9468400000001,0,0
8.12,-9.271994,3.7184991999999997,-0.6043323,1002.97504,0,0
8.16,-8.8370905,4.02356,-0.71322894,1002.9522,0,0
8.2,-8.837154,3.9615962999999996,-0.85053253,1002.9926,0,0
8.24,-8.971052,3.9520648,-0.5238644,1002.965,0,0
8.28,-9.061433000000001,3.9139218000000002,-0.552231,1002.97327,0,0
8.32,-8.71733,4.1188845999999995,-1.0919572,1002.95294,0,0
8.36,-8.535735,4.0521536,-1.1061637,1002.9454,0,0
8.4,-9.114137,3.9282247999999997,-0.83157253,1002.9682,0,0
8.44,-9.128517,3.8567271,-1.0446244,1002.9932,0,0
8.48,-8.569325,4.1188883999999995,-1.2198016999999999,1002.9355,0,0
8.52,-9.061684,3.9282277000000003,-0.8599903,1002.9355,0,0
8.56,-8.454692,4.0902915,-1.1014489,1002.9656,0,0
8.6,-8.889699,3.6899017999999995,-0.9594209999999999,1002.9682,0,0
8.64,-9.281687,3.6136377,-0.61854774,1002.9709,0,0
8.68,-9.080975,3.6422383999999997,-1.0635854999999999,1002.9409,0,0
8.72,-8.928064,3.75187,-1.0399173000000002,1002.93854,0,0
8.76,-9.014142,3.6422404999999998,-0.9310298,1002.95905,0,0
8.8,-9.119342999999999,3.5659769,-0.9547059999999999,1002.93646,0,0
8.84,-9.191078,3.3657825,-0.9594439,1002.94147,0,0
8.88,-9.434891,3.4658809,-0.76060283,1002.9239,0,0
8.92,-9.30588,3.4086833,-0.79374754,1002.9313,0,0
8.96,-8.722787,3.7423432,-0.95945585,1002.9338,0,0
9.0,-8.89968,3.7137449,-0.8742401,1002.9491,0,0
9.04,-8.894946000000003,3.7089796,-1.0778238000000002,1002.92926,0,0
9.08,-9.425544,3.3324225,-1.1819843,1002.9164400000001,0,0
9.12,-9.425585,3.2704582,-0.96893996,1002.957,0,0
9.16,-8.751676,3.5278532999999994,-1.4755251,1002.9243,0,0
9.2,-9.181896,3.4897218,-1.2861524,1002.9394,0,0
9.24,-8.923833,3.7089849000000004,-1.1535933,1002.9265,0,0
9.28,-8.871205999999997,3.6327186,-1.1772608,1002.9471,0,0
9.32,-9.115015,3.5898206,-1.2861557,1002.9069,0,0
9.36,-8.775689,3.4611243999999997,-1.5181451000000001,1002.93225,0,0
9.4,-9.153328,3.4086933,-1.1393958,1002.9548300000001,0,0
9.44,-9.497516000000001,3.570757,-0.71330327,1002.9373,0,0
9.48,-8.651525999999999,3.7280542999999997,-1.1583408000000002,1002.9501,0,0
9.52,-8.627664,3.7566545,-1.262501,1002.9526,0,0
9.56,-9.139146,3.4897285000000005,-1.1678169,1002.96014,0,0
9.6,-9.320816,3.5373949999999996,-1.1583515,1002.9253,0,0
9.64,-8.890672,3.6708595999999996,-1.5371073,1002.9124,0,0
9.68,-8.976747,3.7852578,-0.8316844999999999,1002.93787,0,0
9.72,-8.728234,3.9044227999999994,-0.91217285,1002.9428,0,0
9.76,-8.842992,3.8186254999999996,-1.0684120000000001,1002.95294,0,0
9.8,-9.120257,3.780494,-0.72280383,1002.9533,0,0
9.84,-8.943442,3.6994636,-1.0210748,1002.93036,0,0
9.88,-9.168134,3.8233953,-1.049485,1002.9253,0,0
9.92,-8.876605,3.9044275,-0.9121908999999999,1002.94073,0,0
9.96,-8.757147999999999,3.9377940000000002,-1.0210854999999999,1002.95105,0,0
10.0,-8.785862,3.9663947,-1.1678555,1002.92346,0,0
10.04,-9.225646000000001,3.7614336,-0.94534224,1002.9257,0,0
10.08,-8.848078999999998,3.9425638,-1.172597,1002.9513,0,0
10.12,-8.805098,3.890132700000001,-1.0637091,1002.9413,0,0
10.16,-9.053689,3.8996663000000003,-0.90274316,1002.9413,0,0
10.2,-8.919888499999997,3.7852702000000007,-0.67076045,1002.9613,0,0
10.24,-8.781316,3.8996682000000003,-0.8932813000000001,1002.93353,0,0
10.28,-9.120719,3.7185404,-0.9122223,1002.9337,0,0
10.32,-8.915033,3.7519023000000002,-0.87906754,1002.9386599999999,0,0
10.36,-8.742991,3.9806979,-1.0163679,1002.9339,0,0
10.4,-8.953335000000003,4.033130600000002,-1.0116365,1002.9364,0,0
10.44,-8.762172,4.157062000000002,-1.0069048,1002.9313,0,0
10.48,-8.781324,4.176129,-1.0211111,1002.9213,0,0
10.52,-8.762236,4.0569654,-1.1820834999999998,1002.9289,0,0
10.56,-9.058617,3.7805063999999997,-0.79859984,1002.9339,0,0
10.6,-9.049087,3.7566737999999997,-0.8838218000000001,1002.9265,0,0
10.64,-9.168614,3.689943,-1.3572652,1002.929,0,0
10.68,-9.340716,3.8186410000000004,-1.0258596,1002.9368,0,0
10.72,-8.542519,4.1427674,-0.869627,1002.9566,0,0
10.76,-8.155387,4.2047334,-0.59029996,1002.9368,0,0
10.8,-9.025344,3.5469494,-0.9122425999999999,1002.9544,0,0
10.84,-9.36474,3.375354,-1.3620138000000002,1002.9367699999999,0,0
10.88,-9.422130000000001,3.3133894999999995,-0.8317633,1002.9521,0,0
10.92,-9.063677,3.5850839999999997,-1.0448145,1002.9468400000001,0,0
10.96,-9.044588000000001,3.9330437000000007,-1.1584431,1002.9343,0,0
11.0,-8.580979,3.894912,-0.9122568999999999,1002.94714,0,0
11.04,-8.662264,3.7423828,-0.59031993,1002.9445,0,0
11.08,-8.977762,3.6184532999999997,-1.3241556,1002.9524,0,0
11.12,-9.326717,3.4182587,-1.0116876000000001,1002.9342,0,0
11.16,-9.121217999999999,3.6089218,-0.8554550999999999,1002.947,0,0
11.2,-8.992194999999997,3.7709854,-1.0400996999999998,1002.9295,0,0
11.24,-8.590722999999999,3.952115,-1.2815573999999998,1002.927,0,0
11.28,-9.016157000000002,3.8996839999999997,-1.1442626,1002.9499,0,0
11.32,-9.01619,3.7137887000000003,-0.7513098000000001,1002.9674699999999,0,0
11.36,-9.078357,3.6422915000000002,-0.82232857,1002.93445,0,0
11.4,-8.758141,3.8472538,-1.096927,1002.9245,0,0
11.44,-8.958933,3.7233245000000004,-0.87441355,1002.9423,0,0
11.48,-9.107138,3.6470604,-1.0448551,1002.9674699999999,0,0
11.52,-9.092827999999999,3.6804273000000003,-0.84601283,1002.9449,0,0
11.56,-8.968585000000003,3.7900584000000004,-0.7513276,1002.95746,0,0
11.6,-8.834775,3.7471601999999997,-0.95490915,1002.94745,0,0
11.64,-8.839592,3.7805269,-1.1348200000000002,1002.9145,0,0
11.68,-9.188549,3.7090294000000004,-1.0164628,1002.9399400000001,0,0
11.72,-8.973488,3.7042637000000003,-0.9454494000000001,1002.9399,0,0
11.76,-8.944842,3.7709966,-1.0354062,1002.95795,0,0
11.8,-8.992663,3.78053,-1.0070019000000001,1002.93256,0,0
11.84,-8.868427,3.7376318,-0.9170517,1002.9348,0,0
11.88,-9.203043,3.4945378,-0.71347505,1002.95276,0,0
11.92,-9.088361,3.623236,-0.8129006,1002.9554400000001,0,0
11.96,-9.040593,3.6232366999999996,-0.64246476,1002.9602,0,0
12.0,-9.007164,3.747168,-0.8933909,1002.9426,0,0
12.04,-9.026317,3.713803,-1.0259573,1002.95795,0,0
12.08,-9.035907,3.6661382000000007,-1.0685697,1002.9273,0,0
12.12,-8.964239,3.7138044999999997,-0.91707146,1002.92,0,0
12.16,-9.024842999999999,3.7328330999999997,-1.0542288999999998,1002.93744,0,0
12.2,-8.857548,3.7518992,-1.0921040000000002,1002.93005,0,0
12.24,-9.082196000000001,3.751899,-1.0400254,1002.9428,0,0
12.28,-8.96748,3.7423656000000003,-0.95007145,1002.9703400000001,0,0
12.32,-8.943579,3.6851672999999994,-0.8127734000000001,1002.9504,0,0
12.36,-8.847980499999998,3.7614322000000002,-1.0068839,1002.9451,0,0
12.4,-9.125207000000001,3.5898361000000003,-1.0352900999999999,1002.9450699999999,0,0
12.44,-9.187342999999998,3.5707698,-0.92166424,1002.92755,0,0
12.48,-8.900552000000003,3.6756339999999996,-1.1441811000000002,1002.9302,0,0
12.52,-9.010486,3.7232995000000004,-0.89325744,1002.9248699999999,0,0
12.56,-9.158657,3.6565678,-0.95480454,1002.9502,0,0
12.6,-8.747593,3.6470342000000002,-1.1205083999999998,1002.9349,0,0
12.64,-9.23513,3.575536,-0.8175064999999999,1002.9477,0,0
12.68,-9.043937,3.6756334,-0.8601158999999999,1002.9377,0,0
12.72,-8.804945,3.8281633999999998,-1.0636952,1002.9273,0,0
12.76,-8.953114999999997,3.6899330000000004,-0.9784755999999999,1002.94006,0,0
12.8,-9.216002,3.7042327000000004,-0.7322864,1002.96045,0,0
12.84,-9.010469,3.6756334,-0.98320967,1002.9552,0,0
12.88,-9.048706,3.8043303,-0.9074591000000001,1002.9476300000001,0,0
12.92,-8.752355999999999,3.8090968000000003,-0.8364428,1002.97784,0,0
12.96,-8.828831,3.823397,-0.9500683000000001,1002.9327,0,0
13.0,-9.039141,3.6089013,-1.13471,1002.9378,0,0
13.04,-9.454982000000001,3.4516047999999997,-0.8743174000000001,1002.9554400000001,0,0
13.08,-8.742789,3.7042322,-1.1157719,1002.97784,0,0
13.12,-8.771466,3.7566642999999997,-1.1489125,1002.9454,0,0
13.16,-8.882643,3.766228,-1.2531831,1002.9504,0,0
13.2,-9.193374,3.6041665000000003,-0.9927949,1002.9529,0,0
13.24,-9.069144999999999,3.7662303,-0.9454551,1002.9504,0,0
13.28,-8.878,3.7423985,-0.9880690000000001,1002.9427,0,0
13.32,-9.026218,3.6995008,-1.1963868999999998,1002.9251,0,0
13.36,-8.973691,3.823432700000001,-0.96440566,1002.9377,0,0
13.4,-8.959392999999997,3.9854962999999994,-0.99281585,1002.96796,0,0
13.44,-8.701333,3.8996994,-1.1111803999999998,1002.9429,0,0
13.48,-8.849548,3.718571700000002,-1.0922468,1002.9302,0,0
13.52,-8.849597,3.6518406999999997,-1.4283938,1002.96045,0,0
13.56,-9.13165,3.6232425999999998,-1.2248185,1002.9554400000001,0,0
13.6,-8.854467999999997,3.7233415,-1.0212436,1002.9476300000001,0,0
13.64,-9.112627,3.7185763999999994,-0.8981536,1002.9451,0,0
13.68,-9.021855,3.8472739999999996,-1.1301434,1002.9451,0,0
13.72,-8.868946000000003,3.8091428,-0.9218335999999999,1002.95776,0,0
13.76,-9.007603999999999,3.6327815,-1.0165256999999999,1002.9348,0,0
13.8,-9.155831,3.6899812000000014,-1.3905486,1002.9376,0,0
13.84,-9.041160000000001,3.6184843,-1.0828162000000001,1002.9426,0,0
13.88,-8.998188,3.6375512999999997,-0.8603035,1002.9652,0,0
13.92,-8.912199000000003,3.7185843000000003,-1.1443721000000002,1002.9477,0,0
13.96,-8.955261,3.7233519999999998,-1.2532674,1002.94995,0,0
14.0,-8.883608,3.8091505,-1.0923017,1002.9677,0,0
14.04,-9.089189999999999,3.7424202000000006,-1.3006202,1002.94244,0,0
14.08,-8.94106,3.9044845,-1.4900002,1002.93256,0,0
14.12,-9.103617,3.7519555,-1.3290346000000002,1002.95276,0,0
14.16,-8.896528,3.7376177000000004,-1.3146888,1002.9399400000001,0,0
14.2,-8.982547,3.6851852,-1.3667656000000001,1002.9524,0,0
14.24,-8.5427885,3.8281815000000003,-1.1963257,1002.9245,0,0
14.28,-8.968177,3.8234146,-0.7986343000000001,1002.9396,0,0
14.32,-8.95382,3.8758461000000004,-0.96433693,1002.927,0,0
14.36,-8.767392,4.1761394,-1.1158364,1002.9599,0,0
14.4,-8.858191999999997,4.0140758000000005,-0.9548652,1002.93195,0,0
14.44,-9.0350275,3.866312,-0.9738011999999999,1002.96466,0,0
14.48,-8.901176,3.770980600000001,-1.1205661,1002.965,0,0
14.52,-9.044555,3.718548,-0.9548606,1002.94464,0,0
14.56,-9.0158615,3.7948120000000003,-0.86963993,1002.9117,0,0
14.6,-9.025403,3.7662125,-0.77021587,1002.9546,0,0
14.64,-8.657344,3.904442500000002,-1.1679045,1002.91943,0,0
14.68,-8.881979,3.6804142,-1.016402,1002.957,0,0
14.72,-8.8915205,3.7376120000000004,-1.1347606000000001,1002.9269400000001,0,0
14.76,-8.896284,3.742378,-1.2483848,1002.9368,0,0
14.8,-8.891489,3.7995765,-1.2578523000000001,1002.9317,0,0
14.84,-8.786318,3.7280777,-1.328867,1002.9596,0,0
14.88,-9.144785,3.8234086000000014,-0.9737849000000001,1002.9268,0,0
14.92,-8.977476,3.9425724,-1.1631595,1002.9468400000001,0,0
14.96,-8.642875,3.8281744,-1.371472,1002.9016,0,0
15.0,-9.182976,3.7471426,-1.2294383,1002.94916,0,0
15.04,-8.795795,3.9187381,-1.2294368999999998,1002.924,0,0
15.08,-8.877036,3.980703,-1.0542624,1002.9440300000001,0,0
15.12,-8.891358,3.985469,-1.0684642,1002.929,0,0
15.16,-8.748783,3.9759559999999996,-1.1679614999999999,1002.9187,0,0
15.2,-8.930431,3.8615589999999997,-0.7276634,1002.9339,0,0
15.24,-9.116858500000001,3.6661308,-0.7608056,1002.93146,0,0
15.28,-9.155114,3.6804307,-0.7797446,1002.9264,0,0
15.32,-8.882681,3.9425917,-1.1111544,1002.9415,0,0
15.36,-8.935275,3.9473586000000003,-1.2863288999999998,1002.9086,0,0
15.4,-9.116924000000001,3.9616587,-1.0543447,1002.9186,0,0
15.44,-8.447769000000001,4.0236244,-1.3478792,1002.9086,0,0
15.48,-8.739352,3.8234296000000003,-1.3904903999999998,1002.9387,0,0
15.52,-9.116973,3.7757642,-1.007005,1002.91864,0,0
15.56,-8.954476,3.6994995999999998,-0.91231847,1002.9338,0,0
15.6,-8.820658,3.8329635000000004,-0.64719325,1002.93353,0,0
15.64,-9.045324,3.8520305,-0.9265245000000001,1002.89825,0,0
15.68,-8.882829,4.052226,-1.1111678999999999,1002.9338,0,0
15.72,-8.452662,4.1475577,-1.1537791000000002,1002.9209,0,0
15.76,-8.835063,3.9044638,-0.94073236,1002.9438,0,0
15.8,-8.935454,3.7567004999999996,-1.2768767,1002.91077,0,0
15.84,-9.164900999999999,3.6566036,-0.8602504000000001,1002.9262,0,0
15.88,-8.968945,3.7996008000000003,-1.0401592,1002.9484,0,0
15.92,-8.887704,3.9950300000000003,-1.3573658000000002,1002.9309699999999,0,0
15.96,-9.193628,3.9711974000000003,-1.3526329,1002.9257,0,0
16.0,-8.739563,4.185693,-1.0638357,1002.93335,0,0
16.04,-8.73958,4.123728,-1.0117588,1002.9432400000001,0,0
16.08,-9.064623,4.0236306000000015,-1.0875107,1002.9257,0,0
16.12,-8.586658,4.1713943,-0.9691521000000001,1002.97864,0,0
16.16,-8.897808,4.028409,-0.8792408000000002,1002.9483,0,0
16.2,-8.854825,4.071308999999999,-1.115964,1002.92584,0,0
16.24,-8.850079,4.1094418,-0.95026314,1002.94073,0,0
16.28,-8.678041,4.1952405,-1.1775178999999998,1002.9508,0,0
16.32,-8.807129,4.2619734000000005,-1.0449574000000001,1002.9509,0,0
16.36,-8.625531,4.3573055,-0.97394454,1002.9403699999999,0,0
16.4,-8.740277,4.1285120000000015,-1.0591668,1002.94293,0,0
16.44,-8.711631,4.0379477,-1.2012017,1002.95294,0,0
16.48,-9.036692,3.9807502999999995,-0.91240627,1002.94525,0,0
16.52,-8.568308,4.152347,-1.2864276000000001,1002.9354,0,0
16.56,-8.922042999999997,4.0713162,-1.0071003,1002.9634,0,0
16.6,-8.931639,4.090383,-1.1538703000000001,1002.95074,0,0
16.64,-8.549289,4.6337720000000004,-1.3195776000000001,1002.8923300000001,0,0
16.68,-8.759633000000001,4.3573116999999995,-0.798796,1002.9580699999999,0,0
16.72,-9.208966,4.18095,-0.7893300999999999,1002.9275,0,0
16.76,-8.401214,4.37638,-1.2438360000000002,1002.9606,0,0
16.8,-9.108661999999999,4.1094537,-0.82247746,1002.9529,0,0
16.84,-8.410839,4.204786,-1.1112788999999998,1002.9305400000001,0,0
16.88,-8.8076,4.161887,-0.8414210999999999,1002.9628,0,0
16.92,-8.735937,4.2333865,-1.1302229,1002.955,0,0
16.96,-8.898485,4.223854,-1.2769926999999999,1002.9247,0,0
17.0,-8.516131,4.4764824,-1.1775731000000005,1002.925,0,0
17.04,-8.836413,4.2238555,-1.1207633,1002.9099,0,0
17.08,-8.889023,4.1857242999999995,-1.0686878999999998,1002.9450699999999,0,0
17.12,-8.764785,4.0856276,-0.83197093,1002.96014,0,0
17.16,-9.035186,4.023612,-0.7891739999999999,1002.93976,0,0
17.2,-8.714891999999999,4.042676999999999,-0.9027953000000002,1002.9399400000001,0,0
17.24,-8.82,4.1666064,-0.99274457,1002.9372599999999,0,0
17.28,-8.848633999999997,4.0760407,-0.9075211999999999,1002.935,0,0
17.32,-8.781668,4.1332379999999995,-0.9880015999999999,1002.94745,0,0
17.36,-8.714702,4.1713696,-0.7418081999999999,1002.92975,0,0
17.4,-8.652517,4.2428665,-0.78914785,1002.9325,0,0
17.44,-8.767186,4.2142663,-0.8175501000000001,1002.9295,0,0
17.48,-8.881857,4.1570663,-0.92643726,1002.9245,0,0
17.52,-8.695396,4.1093993,-0.9027608,1002.927,0,0
17.56,-8.896098,3.9997678,-0.9643033999999999,1002.9471,0,0
17.6,-8.838695,4.0283656,-1.0495185,1002.91156,0,0
17.64,-8.881668,3.9473336000000003,-0.91695106,1002.955,0,0
17.68,-8.905516,4.014064,-0.86486787,1002.9674,0,0
17.72,-8.948487,3.9616307999999996,-0.8222540999999999,1002.9471,0,0
17.76,-8.628193,4.0712605,-0.8127810000000001,1002.9089,0,0
17.8,-8.843242,4.137991,-0.7038858,1002.9316,0,0
17.84,-8.900546,4.1332226,-0.70388085,1002.95416,0,0
17.88,-8.489441000000001,4.118922,-0.9453315999999999,1002.957,0,0
17.92,-9.053410000000001,3.9663918,-0.8411703000000001,1002.9265,0,0
17.96,-8.728319,4.1284529999999995,-0.64705396,1002.95166,0,0
18.0,-8.862112,4.1522846,-0.72753495,1002.9064,0,0
18.04,-8.795146,4.15705,-0.7701401999999999,1002.9440300000001,0,0
18.08,-8.79033,4.209481200000001,-0.8032776999999999,1002.9415,0,0
18.12,-8.752031,4.185647,-0.6896465,1002.9516,0,0
18.16,-8.882488,4.0426839999999995,-0.8980886999999999,1002.939,0,0
18.2,-8.743882000000001,4.095117,-0.9501679,1002.9463,0,0
18.24,-9.002001,4.0712843,-0.7276516,1002.9438,0,0
18.28,-8.791696,4.261946,-0.7939338,1002.9164,0,0
18.32,-8.576611999999999,4.2333474,-0.8602164000000001,1002.9438,0,0
18.36,-9.035485000000001,4.261947,-0.81760776,1002.92896,0,0
18.4,-8.696128,4.199982,-0.86495245,1002.9286,0,0
18.44,-8.834750999999997,4.2285814,-0.779734,1002.94354,0,0
18.48,-8.643569,4.228582,-1.0164552,1002.93604,0,0
18.52,-8.849109,4.204749,-0.8933614,1002.9183300000001,0,0
18.56,-8.944713,4.042686499999999,-0.82234603,1002.93604,0,0
18.6,-8.72963,4.1141853,-0.7513308000000001,1002.93854,0,0
18.64,-8.557566,4.1237187,-0.7750037,1002.9286,0,0
18.68,-8.705749,4.1189523,-0.7513324,1002.9412,0,0
18.72,-8.887389,4.228583,-0.79867727,1002.9209,0,0
18.76,-8.896958999999997,4.257182599999998,-1.1679617,1002.9437,0,0
18.8,-8.820491,4.3239145,-0.82235086,1002.951,0,0
18.84,-8.672325,4.2381167,-0.8838988999999999,1002.9433,0,0
18.88,-8.715352000000001,4.1475525,-0.88389975,1002.9334,0,0
18.92,-8.97825,4.0855879999999996,-0.8554940000000001,1002.9457,0,0
18.96,-8.729709,4.133253,-0.79868203,1002.9306,0,0
19.0,-8.853993,4.1475534,-0.9927935,1002.938,0,0
19.04,-8.667589,4.2857833,-0.91704375,1002.9431,0,0
19.08,-8.705835,4.3525157,-0.7892157,1002.95557,0,0
19.12,-8.724963,4.371582,-0.6661219,1002.9580699999999,0,0
19.16,-8.800389,4.152295,-0.9264179,1002.9554400000001,0,0
19.2,-8.838593,4.085562,-1.0021652,1002.9306,0,0
19.24,-8.891136999999997,4.1284604,-0.87906766,1002.9127,0,0
19.28,-8.618657,4.2380900000000015,-0.7891111,1002.93286,0,0
19.32,-8.824156,4.1570582,-0.7654361999999999,1002.95294,0,0
19.36,-8.871921,4.1713567000000005,-0.72755784,1002.9428,0,0
19.4,-8.551642999999999,4.3191195,-0.7417581999999999,1002.9454,0,0
19.44,-8.91488,4.2333207,-0.9216629000000001,1002.96045,0,0
19.48,-8.604157,4.333417400000001,-1.0258166,1002.9675,0,0
19.52,-8.862235,4.366782,-0.83643764,1002.9549599999999,0,0
19.56,-8.656672,4.342949,-0.95006037,1002.9501,0,0
19.6,-8.680535,4.39538,-0.8601034,1002.95795,0,0
19.64,-8.752199000000001,4.2333169999999996,-0.7748811999999999,1002.9346300000001,0,0
19.68,-8.728267,4.2237824999999996,-0.85062855,1002.955,0,0
19.72,-8.65654,4.252381,-0.9216418,1002.94495,0,0
19.76,-8.943294999999997,4.2237805999999996,-0.79380983,1002.9851,0,0
19.8,-8.79987,4.2952785,-0.9169014999999999,1002.94476,0,0
19.84,-8.479589,4.342943,-0.8411481,1002.94214,0,0
19.88,-8.790244,4.247611,-0.7417226,1002.9443,0,0
19.92,-8.646819,4.252377,-0.77486056,1002.9622,0,0
19.96,-8.775841,4.257143,-0.7795919,1002.9594,0,0
20.0,-8.646753,4.290508,-1.0068403000000001,1002.9622,0,0
20.04,-8.938288,4.157044,-0.7890547,1002.94434,0,0
20.08,-8.598889999999999,4.266674,-0.99263126,1002.9293,0,0
20.12,-8.957344,4.1856413,-0.6990951999999999,1002.9318,0,0
20.16,-8.531394,4.400123000000002,-0.63749784,1002.9644,0,0
20.2,-8.646059,4.476386499999999,-0.9831048000000001,1002.9367,0,0
20.24,-8.789401,4.447786,-0.7937236999999999,1002.95685,0,0
20.28,-8.449981,4.50975,-0.888407,1002.9493,0,0
20.32,-8.956588,4.2857203,-0.79844844,1002.95166,0,0
20.36,-8.612388000000001,4.366750700000001,-0.83631885,1002.9613,0,0
20.4,-8.521521,4.4859133,-0.7700326,1002.97186,0,0
20.44,-8.875177,4.3047824,-0.7321526999999999,1002.96655,0,0
20.48,-8.578776,4.371514,-0.826836,1002.95905,0,0
20.52,-8.927648,4.2285156,-0.7368774,1002.9566699999999,0,0
20.56,-8.722063,4.347678,-0.8836391,1002.9513,0,0
20.6,-8.612075,4.4096417,-0.8126180000000001,1002.946,0,0
20.64,-8.678942,4.347676,-0.8599575999999999,1002.93616,0,0
20.68,-8.659769,4.304775,-0.7321238,1002.9588,0,0
20.72,-8.750532000000002,4.190376799999999,-0.7037124,1002.9713,0,0
20.76,-9.094628,4.166543,-0.80786484,1002.966,0,0
20.8,-8.578357,4.214207,-1.0682521,1002.9434,0,0
20.84,-9.041941,4.056908999999999,-0.7889170999999999,1002.9688,0,0
20.88,-8.731203,4.285702,-0.50958276,1002.9635,0,0
20.92,-8.621215,4.361966000000002,-0.52851546,1002.95844,0,0
20.96,-8.635501,4.42393,-0.7604964,1002.9635599999999,0,0
21.0,-8.860102000000003,4.2332664000000015,-0.88832074,1002.9534,0,0
21.04,-8.989106,3.9854046999999997,-0.7888937,1002.9508,0,0
21.08,-8.960374,4.028302,-0.8220296,1002.9484,0,0
21.12,-8.850383,4.1188655,-0.71313316,1002.9758,0,0
21.16,-8.727919,4.1665754,-0.6848925,1002.9657,0,0
21.2,-8.785296,4.037879,-0.6990976,1002.9505,0,0
21.24,-8.737518,3.9949807999999996,-0.71803707,1002.97046,1,1
21.28,-9.086463,3.856750700000001,-0.68489796,1002.9682,1,1
21.32,-8.68498,4.0378804,-0.746447,1002.96796,1,1
21.36,-8.962228999999997,3.9806826,-0.6328232,1002.9906599999999,1,1
21.4,-8.708919,4.180878,-1.2435631999999999,1002.9501300000001,1,1
21.44,-8.718497,4.352474,-0.77485895,1002.94244,1,1
21.48,-8.321795,4.662301,-0.39610845,1002.98553,1,1
21.52,-8.536906,4.45734,-1.1536151000000001,1002.96,1,1
21.56,-8.288375,4.5336050000000006,-1.2104295,1002.96796,1,1
21.6,-8.350533,4.4954730000000005,-1.0541962,1002.9549599999999,1,1
21.64,-8.240618,4.4764075,-1.7643586,1002.9450699999999,1,1
21.68,-8.049446000000001,4.8672657,-2.2141290000000002,1002.9476300000001,1,1
21.72,-8.565684,4.9959625999999995,-2.5597425,1002.9399400000001,1,1
21.76,-8.350613000000001,5.158026,-2.3940398999999997,1002.9471,1,1
21.8,-8.269377,5.0245633000000005,-2.7159812000000003,1002.9624,1,1
21.84,-8.694798,4.414444400000002,-3.0900013,1002.9700300000001,1,1
21.88,-8.145142,4.3810787000000015,-3.1373472000000002,1002.9596,1,1
21.92,-8.1834,4.304814299999999,-2.7254555,1002.93195,1,1
21.96,-8.422409,4.8577356,-2.0579064,1002.97974,1,1
22.0,-8.216899,5.329625,-2.0815802,1002.9747,1,1
22.04,-8.561064,5.86348,-2.1952078,1002.962,1,1
22.08,-8.556303999999999,6.1780734000000015,-1.8874733,1002.97974,1,1
22.12,-8.111802,6.7834262999999995,-1.8353966,1002.9667400000001,1,1
22.16,-8.822247500000003,6.311495,-0.41491547,1003.0048,1,1
22.2,-9.381438000000001,5.177053,0.09640446,1002.9895,1,1
22.24,-8.38241,4.962557,-0.8362688,1002.9591,1,1
22.28,-8.645249,4.7814264,-0.1450411,1002.9488,1,1
22.32,-7.9616922999999975,4.924422,0.69295275,1002.9442,1,1
22.36,-6.427328599999999,5.2580800000000005,-0.32967442,1002.9490400000001,1,1
22.4,-6.5515537,5.572671400000001,0.29053715,1002.96155,1,1
22.44,-7.072506,5.3009768,0.19585329999999998,1002.96405,1,1
22.48,-7.4882965,4.8672185,-0.43855214,1002.96655,1,1
22.52,-7.994909,5.067413,-0.40540704,1002.9385,1,1
22.56,-8.013976,5.834827400000001,0.25741443,1002.9540400000001,1,1
22.6,-7.9852539999999985,6.7547717,0.43732575,1002.9412,1,1
22.64,-7.425967,7.9082766000000015,0.18167244,1002.9462,1,1
22.68,-7.3350982999999985,7.998840299999999,-0.85989183,1002.9513,1,1
22.72,-8.334031,6.878698299999999,-0.4811352,1002.9437,1,1
22.76,-8.563410000000001,6.239979,-0.71785057,1002.9362,1,1
22.8,-9.657941000000001,5.801454,-0.4574544,1002.961,1,1
22.84,-9.629211999999999,5.753787,-0.6042164000000001,1002.96606,1,1
22.88,-7.913214,5.634622,-1.3096381000000001,1002.92786,1,1
22.92,-7.573798700000001,5.1817980000000015,-0.30593982,1002.9633,1,1
22.96,-6.9523744999999995,4.5716777,0.20064597,1002.9306,1,1
23.0,-5.4610324,4.2618504,-1.9014256999999999,1002.9253,1,1
23.04,-6.9140429999999995,3.5992977999999995,-1.442184,1002.9405,1,1
23.08,-7.41109,3.8519243999999997,-1.6078833000000001,1002.9355,1,1
23.12,-7.4014807000000005,4.6527042000000005,-1.5084562,1002.9481,1,1
23.16,-8.2483225,5.820531,0.29054278,1002.9858,1,1
23.2,-9.500616,6.025492,0.12483995,1002.9655,1,1
23.24,-9.720473,5.906328,-0.22077028,1002.9454,1,1
23.28,-9.209019,6.5355134,-0.36753544,1002.9351,1,1
23.32,-9.591386,6.9692698,0.32368909999999995,1002.9527,1,1
23.36,-10.767203,6.1446548,0.5035978,1002.95526,1,1
23.4,-8.55414,5.9539919999999995,-0.14027995,1002.9653300000001,1,1
23.44,-7.2922573,5.281907599999999,0.2195363,1002.9427,1,1
23.48,-7.4882149999999985,4.8815165,0.7071813,1002.9602,1,1
23.52,-8.759627,4.509723999999999,0.82080835,1002.9448,1,1
23.56,-7.9613853,4.6860867,1.3084536,1002.9449,1,1
23.6,-6.8381157,4.647953500000002,1.7156136000000002,1002.9523300000001,1,1
23.64,-6.6230106,4.576455,1.2327058000000002,1002.932,1,1
23.68,-7.110536,4.7480507,0.7403289000000001,1002.9399,1,1
23.72,-6.914548,5.5297655999999975,0.89656574,1002.93976,1,1
23.76,-6.278819,6.3448467000000015,1.3416011,1002.9775400000001,1,1
23.8,-7.0913714999999975,6.630839999999999,1.218508,1002.92944,1,1
23.84,-9.161012,6.363912,0.26689392,1002.9671,1,1
23.88,-10.0596,6.4735427,1.549919,1002.9773,1,1
23.92,-9.557706,7.302923700000001,0.2479591,1002.9296,1,1
23.96,-8.396197,6.854866499999999,-0.916703,1002.89667,1,1
24.0,-8.769008,4.9673095,0.39472842,1002.9444,1,1
24.04,-7.3015933,4.304757599999999,0.13433748,1002.93933,1,1
24.08,-7.9564114,3.9424992,0.12960446,1002.9317599999999,1,1
24.12,-9.146567999999998,3.7947354,1.2327219999999999,1002.93695,1,1
24.16,-7.5118589999999985,5.1150720000000005,-0.24914512,1002.9494,1,1
24.2,-7.7699539999999985,5.134137,0.86817575,1002.9393,1,1
24.24,-6.914353,5.334332,0.5130968,1002.93695,1,1
24.28,-6.6275509999999995,5.177035,-0.23967229,1002.952,1,1
24.32,-7.698211,5.2675996,0.16748796,1002.9237699999999,1,1
24.36,-9.208615,4.862442,0.21483333,1002.95917,1,1
24.4,-10.675999999999998,4.49065,0.19589712,1002.9717400000001,1,1
24.44,-9.935116,5.968282,1.2327331,1002.9440300000001,1,1
24.48,-9.782146000000001,5.7966857,0.6077931,1002.96924,1,1
24.52,-9.648297,5.0435696,0.9723436,1002.91895,1,1
24.56,-7.1484440000000005,5.6012564000000005,0.8587193000000001,1002.9341,1,1
24.6,-8.113949,4.9625373,2.6814666000000003,1002.9819,1,1
24.64,-7.9609820000000004,4.6098123,1.7629932000000001,1002.9289,1,1
24.68,-8.104361,4.152222,1.1049124,1002.93146,1,1
24.72,-8.606221000000001,4.3095183,2.378469,1002.96375,1,1
24.76,-7.8414410000000005,4.5907445,2.6483312000000003,1002.97424,1,1
24.8,-6.483959,5.2056293,1.8340150000000002,1002.94885,1,1
24.84,-6.7181581999999995,5.6393867,1.8387505000000002,1002.939,1,1
24.88,-6.8663163,5.9873443,1.5878285,1002.9639,1,1
24.92,-7.6501894,6.1684732,1.7109243000000005,1002.9211,1,1
24.96,-8.921598,6.0969744000000015,0.6314818,1002.9386599999999,1,1
25.0,-9.829744999999999,6.1398730000000015,0.8397969999999999,1002.9286,1,1
25.04,-9.409761,6.707109,0.55567425,1002.92395,1,1
25.08,-8.898321000000003,6.0874567000000015,0.27634448,1002.9666,1,1
25.12,-8.769266,5.4392046999999994,0.49886155,1002.93604,1,1
25.16,-8.415558,4.423928299999999,0.19112542,1002.92834,1,1
25.2,-8.439457,3.9711056000000013,0.034890216,1002.94604,1,1
25.24,-8.993913000000003,4.014004,0.22426648,1002.9436599999999,1,1
25.28,-8.162225999999999,4.3953285000000015,-0.06453207,1002.96375,1,1
25.32,-6.1738267,5.034047,-0.10240717,1002.94604,1,1
25.36,-7.081988000000001,4.9148836,0.82080185,1002.9484,1,1
25.4,-7.4117929999999985,4.8624516,0.41364315,1002.9461699999999,1,1
25.44,-7.588644500000001,4.562158,-0.91199005,1002.9486699999999,1,1
25.48,-9.534022,4.409628400000001,-0.3485957,1002.9386599999999,1,1
25.52,-10.279671,4.9434830000000005,0.053828775999999995,1002.9735,1,1
25.56,-9.31415,5.9063272000000016,-0.26811063,1002.9409,1,1
25.6,-10.25099,5.6298666,0.6361608,1002.9559300000001,1,1
25.64,-9.228109,5.5107026,1.4930881,1002.9737,1,1
25.68,-7.096317,5.36294,0.6219578,1002.9409,1,1
25.72,-8.229128999999999,5.1913433,1.4646819,1002.9331,1,1
25.76,-8.362962,5.396305,0.30001855,1002.9484,1,1
25.8,-8.453776,4.8481510000000005,-0.35332918,1002.93115,1,1
25.84,-8.6067295,4.624123,0.6124895,1002.9788,1,1
25.88,-7.5312724,4.8481510000000005,0.9581011,1002.9712,1,1
25.92,-6.948135400000001,5.4010715,0.2716126,1002.9562400000001,1,1
25.96,-7.230142,5.6060339999999975,0.22900304,1002.9509,1,1
26.0,-6.465372,6.2447524,0.29528484,1002.9384,1,1
26.04,-6.7133594,6.249505,0.71669835,1002.9760000000001,1,1
26.08,-8.013442999999999,5.639385,0.69302845,1002.9506,1,1
26.12,-8.089895,5.7490153,0.7545779,1002.9256,1,1
26.16,-9.571611,5.1436625,-0.055003114000000006,1002.9511,1,1
26.2,-12.272177000000001,4.0473537,0.8492703000000001,1002.9306,1,1
26.24,-9.380372,5.04833,-1.8682758000000002,1002.93335,1,1
26.28,-7.9177294000000025,5.6584487,-0.6231253000000001,1002.938,1,1
26.32,-7.6500363,5.219925,0.35216424,1002.966,1,1
26.36,-8.539055000000001,4.433441999999999,-0.77935624,1002.9434,1,1
26.4,-9.098267,4.1951137,-1.7215005,1002.9158,1,1
26.44,-8.73498,4.319044,-0.73674226,1002.9788,1,1
26.48,-7.7837744,5.0340266,-1.7925122,1002.9306,1,1
26.52,-7.951045,4.833831,-2.4979365000000002,1002.92834,1,1
26.56,-7.8410864,4.876729,-2.0008220000000003,1002.9406,1,1
26.6,-8.921297000000003,4.5001707,-1.4942383999999995,1002.9861,1,1
26.64,-9.982389,4.3238072,-0.5994335999999999,1002.9783,1,1
26.68,-9.016846000000001,4.495403,-0.22541358,1002.9612400000001,1,1
26.72,-8.070421000000001,4.838594400000002,0.129669,1002.9557,1,1
26.76,-8.175552,4.619333,0.35218823,1002.9506,1,1
26.8,-8.543575,4.2475404999999995,0.1580797,1002.966,1,1
26.84,-8.52443,4.2427730000000015,-0.4005777,1002.9509,1,1
26.88,-8.911571499999997,3.918647,-0.21593386,1002.9456,1,1
26.92,-8.686896,4.1712737,-0.7414506,1002.95374,1,1
26.96,-8.973662,4.218938400000001,-0.48579067,1002.9433,1,1
27.0,-8.9115,4.247537,0.16755939,1002.9609,1,1
27.04,-8.381637,4.8147745,-0.5379304,1002.95844,1,1
27.08,-8.171330000000001,4.624112599999999,-0.6515565999999999,1002.92804,1,1
27.12,-8.787930000000001,4.228488400000002,-0.45744643,1002.9506,0,0
27.16,-9.022144,3.8519309,-0.40063396,1002.9484,0,0
27.2,-8.759261,4.0902586,-0.2964776,1002.95844,0,0
27.24,-8.960017,4.280921,-0.37222849999999996,1002.9256,0,0
27.28,-8.596757,4.4906497000000005,-0.5900116,1002.93585,0,0
27.32,-8.821411999999997,4.5526147,-0.45271435,1002.9484,0,0
27.36,-8.888336,4.3857856,-0.36276108,1002.9462,0,0
27.4,-8.529856,4.5335493,-0.7083729999999999,1002.9359,0,0
27.44,-8.649355,4.2475557,-0.1591826,1002.9632,0,0
27.48,-8.305214,4.5383153,-0.49059135,1002.9609,0,0
27.52,-8.668485,4.5478487,-0.42904454,1002.91565,0,0
27.56,-9.026975,4.5573825999999995,-0.4101074000000001,1002.93854,0,0
27.6,-8.840567,4.7003794,-0.5095304,1002.9458,0,0
27.64,-8.577683,4.914874,0.0065192766,1002.9607,0,0
27.68,-8.013671,4.995905400000002,-0.23967023,1002.9559300000001,0,0
27.72,-8.185749000000001,5.0721707,-0.43851563,1002.95844,0,0
27.76,-8.668514,4.8529089999999995,-0.694174,1002.9386599999999,0,0
27.8,-8.372171,4.652714,-0.93562907,1002.9311,0,0
27.84,-8.53947,4.7146792,-0.3817042,1002.96375,0,0
27.88,-8.314824,4.676547,-0.43378308,1002.96625,0,0
27.92,-8.180994,4.695613400000001,-0.40064266,1002.94116,0,0
27.96,-9.175199000000001,4.3619547,-0.121313296,1002.9762,0,0
28.0,-9.189542999999999,4.476351999999999,-0.14498572,1002.9788,0,0
28.04,-8.486917,4.719446,-0.45272252,1002.9462,0,0
28.08,-8.777584,4.5239954000000004,0.05867566,1002.9634,0,0
28.12,-8.629379,4.4381967000000015,-0.2821987,1002.9484,0,0
28.16,-8.705828,4.3380985,-0.27272729999999995,1002.94116,0,0
28.2,-8.84919,4.2856654999999995,-0.3579436,1002.9586,0,0
28.24,-8.667527,4.419128400000001,-0.25378394,1002.93854,0,0
28.28,-8.691395,4.4620266,-0.28218752,1002.9562400000001,0,0
28.32,-8.710486,4.4810925,-0.26324737,1002.9286,0,0
28.36,-9.09762,4.352394,-0.40527666,1002.9737,0,0
28.4,-8.8825,4.2999616,-0.6609319,1002.9461699999999,0,0
28.44,-8.653039,4.738484,-0.12594143,1002.96625,0,0
28.48,-8.351881,4.962511,-0.44787815,1002.9536,0,0
28.52,-8.356630000000001,5.048308400000002,-0.5899074000000001,1002.9561,0,0
28.56,-8.227547,4.862412,-0.87396914,1002.94104,0,0
28.6,-8.590782,4.4810870000000005,-0.33897862,1002.95874,0,0
28.64,-8.480818,4.4763203,-0.45733616,1002.9386599999999,0,0
28.68,-8.619402000000001,4.590716400000002,-0.021768127,1002.93365,0,0
28.72,-8.437738000000001,4.657447,-0.286892,1002.9511,0,0
28.76,-8.781854,4.719412,-0.53781265,1002.9261,0,0
28.8,-8.719686,4.7623105,-0.5614819000000001,1002.9461699999999,0,0
28.84,-8.471105999999999,4.87194,-0.68457365,1002.9511,0,0
28.88,-8.585791,4.8052077,-0.6561644,1002.94604,0,0
28.92,-8.413689,4.805207,-0.40050393,1002.9589,0,0
28.96,-8.318064999999999,4.7861400000000005,-0.49045503,1002.9386599999999,0,0
29.0,-8.542686,4.724174,-0.31527948,1002.9616,0,0
29.04,-8.772085,4.562110400000001,-0.29633886,1002.9409,0,0
29.08,-8.3526945,4.790935500000002,-0.60892236,1002.9511,0,0
29.12,-8.701638,4.843368,-0.1875621,1002.9687,0,0
29.16,-8.4100895,4.957765,-0.22543897,1002.9307,0,0
29.2,-8.276275,5.0101986,-0.4242858,1002.9386599999999,0,0
29.24,-8.472263,4.8672023,-0.20177029999999999,1002.9540400000001,0,0
29.28,-8.348006,4.6622405,-0.42902336,1002.9591,0,0
29.32,-8.673053999999999,4.6002754999999995,-0.03133534,1002.9812,0,0
29.36,-8.500998,4.667008,-0.17810339,1002.9612400000001,0,0
29.4,-8.653972,4.957768,-0.760437,1002.9365,0,0
29.44,-8.410219,4.8862705,-0.8598611999999999,1002.93835,0,0
29.48,-8.357660000000001,4.8243055,-0.21598387,1002.94604,0,0
29.52,-8.415037,4.7146754,-0.23018883,1002.9511,0,0
29.56,-8.759202,4.6288776,-0.17337757,1002.94604,0,0
29.6,-8.620607000000001,4.6098123,-0.17811383,1002.95374,0,0
29.64,-8.625404,4.5716800000000015,-0.43377334,1002.93365,0,0
29.68,-8.386434,4.790942,-0.39589986,1002.96375,0,0
29.72,-8.525065,4.7480435,-0.343823,1002.9132699999999,0,0
29.76,-8.606342999999999,4.8100095000000005,-0.62315476,1002.9738,0,0
29.8,-8.654160000000001,4.790943599999999,-0.5474059,1002.9511,0,0
29.84,-8.453424,4.814776999999999,-0.45271948,1002.9512300000001,0,0
29.88,-8.802368,4.643181299999998,-0.1686568,1002.9183,0,0
29.92,-8.319628999999999,4.800478,-0.40064457,1002.95874,0,0
29.96,-8.453482000000001,4.7766459999999995,-0.06923789,1002.93585,0,0
30.0,-8.544315,4.7957125,-0.34383497,1002.9511,0,0
30.04,-8.525215,4.6813154,-0.76519877,1002.9436599999999,0,0
30.08,-8.568188000000001,4.6479483,-0.8030698000000001,1002.9511,0,0
30.12,-8.735497,4.624116000000001,-0.39117813,1002.92334,0,0
30.16,-8.381809,4.790946,-0.28702268,1002.971,0,0
30.2,-8.515658,4.7003818,-0.6042291999999999,1002.9359,0,0
30.24,-8.592151,4.700382,-0.5190114,1002.9559300000001,0,0
30.28,-8.625625,4.543086499999999,-0.09765088,1002.9534,0,0
30.32,-8.4774685,4.705149,-0.7083906,1002.92334,0,0
30.36,-8.539622,4.748049,-0.6941889,1002.9609,0,0
30.4,-8.563538000000001,4.7099166,-0.7036591999999999,1002.9559300000001,0,0
30.44,-8.444059,4.8052487,-0.5663629,1002.9509,0,0
30.48,-8.625707,4.790949299999999,-0.6042396,1002.9607,0,0
30.52,-8.420191,4.714685,-0.50008416,1002.918,0,0
30.56,-8.687878,4.6574864,-0.43380406,1002.9557,0,0
30.6,-8.405886,4.728985,-0.6657914,1002.9735,0,0
30.64,-8.525397,4.7289853,-0.5284951999999999,1002.9455,0,0
30.68,-8.678367,4.633655,-0.70840394,1002.9607,0,0
30.72,-8.578008,4.8147845,-0.45748207,1002.9509,0,0
30.76,-8.463308,4.8338513,-0.6468596999999999,1002.9583,0,0
30.8,-8.4633255,4.900583,-0.5805796,1002.94073,0,0
30.84,-8.310387,4.8672175000000015,-0.33912635,1002.9580699999999,0,0
30.88,-8.673668,4.681322,-0.5143008,1002.9331699999999,0,0
30.92,-8.601986,4.6622567,-0.67527205,1002.9557,0,0
30.96,-8.444271,4.771888,-0.58058554,1002.9558,0,0
31.0,-8.439506,4.7575884,-0.48589873,1002.95795,0,0
31.04,-8.535119,4.738523000000002,-0.46696272,1002.9554,0,0
31.08,-8.497314,4.7671328,-0.5806281999999999,1002.96796,0,0
31.12,-8.631183,4.5717050000000015,-0.48594317,1002.943,0,0
31.16,-8.602535000000001,4.4954405,-0.60430616,1002.95026,0,0
31.2,-8.650367999999999,4.4001102,-0.74160707,1002.948,0,0
31.24,-8.67908,4.5288080000000015,-0.6279844,1002.9273699999999,0,0
31.28,-8.550056,4.891067,-0.60431516,1002.9502,0,0
31.32,-8.29198,5.100796,-0.13087773,1002.9605,0,0
31.36,-8.554901,4.967333999999999,-0.10247432,1002.9427,0,0
31.4,-8.272926,4.8767695,-0.3344632,1002.96295,0,0
31.44,-8.66968,4.6146097,-0.003057465,1002.9504400000001,0,0
31.48,-8.774868,4.4334817000000015,-0.7084868000000001,1002.9427,0,0
31.52,-8.569367999999999,4.7528415,-0.46703514,1002.9653300000001,0,0
31.56,-8.555060000000001,4.790975,-0.3534123,1002.9653300000001,0,0
31.6,-8.469059,4.9006066,-0.15457049,1002.9554,0,0
31.64,-8.316134,4.967339,-0.5712008000000001,1002.9653,0,0
31.68,-8.607738000000001,4.8195767,-0.52385986,1002.9602699999999,0,0
31.72,-8.435697,4.881543,-0.571207,1002.955,0,0
31.76,-8.63648,4.7099476,-0.46231848,1002.95776,0,0
31.8,-8.464439,4.6765823,-0.54754084,1002.9473,0,0
31.84,-8.607869,4.738548799999999,-0.24927652,1002.935,0,0
31.88,-8.474066,4.9292115999999995,-0.339233,1002.9273,0,0
31.92,-8.278125,4.986411,-0.7890043000000001,1002.9625,0,0
31.96,-8.550607000000001,4.857714700000002,-0.56649035,1002.9399400000001,0,0
32.0,-8.426366999999999,4.800517,-0.60436875,1002.9522,0,0
32.04,-8.512433,4.7814510000000015,-0.5475587,1002.94995,0,0
32.08,-8.467414999999999,4.652705,-0.5331723,1002.9625,0,0
32.12,-8.916672,4.3857775000000006,-0.26804167,1002.9574,0,0
32.16,-8.60116,4.790933,-0.39586657,1002.94495,0,0
32.2,-8.280861,4.9577613,-0.24909517,1002.9522,0,0
32.24,-8.328617999999999,4.9958925,-0.23015378,1002.9247,0,0
32.28,-8.371589,4.7718635,-0.27749354,1002.94464,0,0
32.32,-8.175573,4.6431656,-0.41478723,1002.96,0,0
32.36,-8.156408,4.5430665,-1.2054286,1002.9548300000001,0,0
32.4,-8.801631,4.666996,-0.8503436,1002.9648,0,0
32.44,-8.691651,5.2818804,-0.29167983,1002.9698,0,0
32.48,-8.208847,5.577406,-0.121237256,1002.9774,0,0
32.52,-8.180119,5.1722474,-0.43843782,1002.93695,0,0
32.56,-8.428626,4.705124,-0.15910417,1002.9695,0,0
32.6,-8.581533,4.395296599999999,-0.36267927,1002.9723,0,0
32.64,-9.198079,4.666989,-0.14489207,1002.9873,0,0
32.68,-9.169353,5.0244800000000005,0.016081981000000002,1002.9545,0,0
32.72,-7.764047,5.5583334,-0.43841684,1002.9445,0,0
32.76,-8.184624000000001,5.4058022,0.19599767,1002.9848599999999,0,0
32.8,-8.576511,5.091208,-0.70826846,1002.9671,0,0
32.84,-8.141514,5.1293397,-0.4194666,1002.962,0,0
32.88,-8.017192,5.296167400000002,-0.15907006,1002.98456,0,0
32.92,-8.213108,5.1007375999999995,-0.26322186,1002.97955,0,0
32.96,-8.284769,5.253267,-0.22534339,1002.95905,0,0
33.0,-8.380317,5.396262,-0.30582370000000003,1002.9769,0,0
33.04,-8.289458999999999,5.505892,-0.52833694,1002.97455,0,0
33.08,-7.8509254,5.4630220000000005,-0.3722122000000001,1002.9568,0,0
33.12,-7.688414,5.606019,-0.47636932,1002.95905,0,0
33.16,-8.247653999999999,5.205628400000001,-0.13075802,1002.992,0,0
33.2,-8.453187,5.0483317,-0.026601282999999996,1002.9565,0,0
33.24,-8.410172,4.795705,-0.7699031,1002.9386599999999,0,0
33.28,-8.888154,4.5669103,-0.7604344,1002.9515,0,0
33.32,-8.185526,5.315259999999999,-0.60893375,1002.9513,0,0
33.36,-7.8748417,5.4582562,-0.59473085,1002.9689,0,0
33.4,-8.018238,5.2103953,-0.78884166,1002.9616,0,0
33.44,-8.305028,5.0673985,-0.8172483,1002.9513,0,0
33.48,-8.658735,5.105531,-0.38641766,1002.9713,0,0
33.52,-7.578502999999999,4.981600299999998,-0.5473876,1002.9386599999999,0,0
33.56,-9.0602455,5.1531970000000005,-0.07394747,1002.9562400000001,0,0
33.6,-8.4866705,5.1198315999999995,-0.26805824,1002.9461699999999,0,0
33.64,-8.56315,4.943468599999999,-0.50951314,1002.96625,0,0
33.68,-8.219007000000001,5.134131,-0.329606,1002.94635,0,0
33.72,-7.822286599999999,5.5249887000000015,-0.47637275,1002.9713,0,0
33.76,-8.209452,5.415358,-0.66574913,1002.9534,0,0
33.8,-7.846189999999999,5.5297550000000015,-1.0918458999999998,1002.9511,0,0
33.84,-7.984807000000001,5.510689299999999,-0.4811078,1002.9687,0,0
33.88,-8.242919,5.567888,-0.40535757,1002.9459,0,0
33.92,-8.405434,5.324794,-0.26806009999999997,1002.9738,0,0
33.96,-8.448455000000001,5.6298532,0.17697372,1002.9836,0,0
34.0,-7.2821856,5.6584525,-0.78411067,1002.95844,0,0
34.04,-8.314469,5.429654,-0.45268828,1002.961,0,0
34.08,-8.108934,5.653682,-0.09760756,1002.966,0,0
34.12,-7.736105999999999,5.6441493,-0.5568445,1002.9456,0,0
34.16,-7.855597500000001,5.3486223,-0.3343271,1002.9760000000001,0,0
34.2,-8.166281,5.305723,-0.007652838,1002.9406,0,0
34.24,-8.443505,5.4534864,0.59835124,1002.9657599999999,0,0
34.28,-8.0181,5.6775150000000005,-0.21596596,1002.9403699999999,0,0
34.32,-8.386139,5.8395777,-0.17809036,1002.96075,0,0
34.36,-8.171045,5.6346154,-0.17809,1002.9682,0,0
34.4,-8.156702000000001,5.2485247,0.12964661,1002.9757699999999,0,0
34.44,-8.161478,4.99113,-0.23490219,1002.9403699999999,0,0
34.48,-8.089777999999999,5.0530953,-0.3437932,1002.9426,0,0
34.52,-8.118454,4.8672,-0.64206046,1002.94794,0,0
34.56,-8.811521,4.8243003,-0.58998156,1002.9657599999999,0,0
34.6,-8.572526,4.96253,0.11544511,1002.9681,0,0
34.64,-8.137561,5.2151575,-0.22069728,1002.9526400000001,0,0
34.68,-7.874667599999999,5.267589599999999,-0.23490016,1002.97046,0,0
34.72,-8.228369,5.3009559999999984,-0.3059159,1002.95795,0,0
34.76,-8.1614485,5.2056246,-0.4668853,1002.9677,0,0
34.8,-8.161445,5.219924400000001,-0.43374413,1002.9628,0,0
34.84,-8.534266,5.153192,-0.6941361,1002.9476300000001,0,0
34.88,-8.4864645,5.4487185,-0.39113387,1002.9450699999999,0,0
34.92,-8.161433,5.324788,-0.3106486,1002.9425699999999,0,0
34.96,-8.357402,5.067394,-0.31538263,1002.9399400000001,0,0
35.0,-8.3191595,4.938697,-0.40533596,1002.9702,0,0
35.04,-8.290477000000001,4.9482300000000015,-0.41480443,1002.9450699999999,0,0
35.08,-8.480757,5.0340050000000005,-0.28215759999999995,1002.96,0,0
35.12,-8.308644000000001,5.024471299999999,-0.42892060000000004,1002.9526400000001,0,0
35.16,-8.303825,4.9958706,0.035054665,1002.9476300000001,0,0
35.2,-8.083915,5.0483017,-0.13064587,1002.9725300000001,0,0
35.24,-8.227272,4.995868700000001,-0.32948753,1002.9325,0,0
35.28,-8.490125,4.8242717000000015,-0.27740565,1002.955,0,0
35.32,-8.767314,4.910069,-0.073822685,1002.9625,0,0
35.36,-8.418349000000001,5.005399,-0.55199397,1002.9673,0,0
35.4,-8.394413,5.043531,-0.48097449999999997,1002.93225,0,0
35.44,-8.556885000000001,4.9672647,-0.15429674,1002.9522,0,0
35.48,-8.556849,4.9863305,0.03508279,1002.9472,0,0
35.52,-8.360836,5.219890599999999,-0.17796181,1002.9724,0,0
35.56,-7.9784107,5.396252,-0.007519426,1002.95435,0,0
35.6,-8.207807,5.4677496,0.30968887,1002.9644,0,0
35.64,-8.09783,5.520181,-0.34838957,1002.96265,0,0
35.68,-8.059552,5.5535455,-0.1400722,1002.93933,0,0
35.72,-8.260266,5.215119400000002,-0.36732020000000004,1002.9518400000001,0,0
35.76,-8.341486999999999,5.1197870000000005,-0.6892564,1002.9544,0,0
35.8,-8.475280999999999,4.9529567000000005,-0.43359494,1002.96686,0,0
35.84,-8.298389,4.9005237,-0.45252895,1002.95435,0,0
35.88,-8.303132000000002,4.762293,-0.22527416,1002.9540400000001,0,0
35.92,-8.771511,4.6049953000000015,-0.29155198,1002.9644,0,0
35.96,-8.656758,4.6240606,-0.078500405,1002.9769,0,0
36.0,-8.303015,4.833787999999998,0.15348904,1002.9744,0,0
36.04,-8.299161999999999,4.9005427,-0.47627172,1002.9894400000001,0,0
36.08,-8.710225,4.8528767,-0.37211484,1002.9518400000001,0,0
36.12,-8.303942,5.2914004,-0.40525565,1002.9566,0,0
36.16,-7.950237299999999,5.362899,-0.5330845999999999,1002.9239,0,0
36.2,-8.237024,5.272334,-0.5804286,1002.9468400000001,0,0
36.24,-8.461675999999999,5.0292397000000015,-0.33897397,1002.9468,0,0
36.28,-8.614628999999999,4.7909120000000005,-0.19694185,1002.94916,0,0
36.32,-8.499914,4.7003474,-0.6277727,1002.9466,0,0
36.36,-8.447336,4.5525837,-0.5567565999999999,1002.9642,0,0
36.4,-8.600289,4.57165,-0.09278494,1002.9436599999999,0,0
36.44,-8.4138775,4.8052114999999995,-0.4478653,1002.92365,0,0
36.48,-8.11275,5.253268,-0.42419326,1002.93146,0,0
36.52,-8.657647,4.986341,-0.5520222,1002.9692,0,0
36.56,-8.337401,5.3438324999999995,-0.48100612,1002.949,0,0
36.6,-8.198787,5.2437344,-0.5804286,1002.93616,0,0
36.64,-8.155769,5.2628010000000005,-0.60883504,1002.9515,0,0
36.68,-7.8307424,5.281867,-0.5567565999999999,1002.9486699999999,0,0
36.72,-8.380419,5.115037999999998,-0.7413984,1002.96155,0,0
36.76,-8.514254,5.038773,-0.57095987,1002.9589,0,0
36.8,-8.14143,5.215135,-0.48100612,1002.95874,0,0
36.84,-8.1270895,5.205602,-0.45733413,1002.9540400000001,0,0
36.88,-8.084071,5.219901999999999,-0.48574054,1002.9736,0,0
36.92,-8.58117,4.867177,-0.7461328,1002.9486699999999,0,0
36.96,-8.652868,4.905309,-0.14959779999999998,1002.9788,0,0
37.0,-8.370859,5.024473,-0.3673804,1002.9559300000001,0,0
37.04,-8.399538,5.1198044000000005,-0.102253765,1002.9585,0,0
37.08,-8.366079,5.0149403,0.091856845,1002.9459,0,0
37.12,-8.743685000000001,4.8385773,0.13920088,1002.9406,0,0
37.16,-8.447336,4.676514599999999,0.21021695,1002.9635,0,0
37.2,-8.146208999999999,4.5811834000000005,0.53689086,1002.9534,1,2
37.24,-8.14143,4.447719599999999,0.42799960000000004,1002.9555,1,2
37.28,-8.265703,4.590716400000002,0.27176422,1002.9731,1,2
37.32,-8.208345,4.8290443,0.13446648,1002.92035,1,2
37.36,-7.868981,4.7384796,-0.03123768,1002.9432,1,2
37.4,-8.031494,4.633615499999999,0.2480922,1002.9759,1,2
37.44,-8.055392,4.5954833,-0.07384734,1002.9228,1,2
37.48,-8.35652,4.981574,-0.0549097,1002.9657,1,2
37.52,-8.887078,5.143637,-0.6467103,1002.966,1,2
37.56,-10.029451,4.9100757,0.47060922,1002.9452,1,2
37.6,-9.312481,5.148403599999999,0.89197123,1002.9479,1,2
37.64,-7.515275,5.8538537,-0.17326981,1002.9580699999999,1,2
37.68,-7.032514999999999,5.748989599999999,-0.33423959999999997,1002.9481,1,2
37.72,-6.401581,5.663192,-1.181698,1002.93005,1,2
37.76,-7.0468545,5.0530725,-1.4941688999999998,1002.9452,1,2
37.8,-8.380419,4.7813787,-1.1248851999999998,1002.9405,1,2
37.84,-9.704425,6.058816,-0.9497121999999999,1002.9756,1,2
37.88,-9.489333,7.116991499999999,-0.75560164,1002.9777,1,2
37.92,-8.877519,7.1789570000000005,-1.7072168999999997,1002.9526400000001,1,2
37.96,-8.738904,7.6127133,-0.30109873,1002.9784,1,2
38.0,-8.284822,7.550748299999999,0.59843814,1002.9624,1,2
38.04,-7.1950283,7.8605740000000015,1.7299609,1002.9726,1,2
38.08,-7.14723,6.3972416,0.7972832,1002.9501,1,2
38.12,-9.905175999999999,4.809978,1.0008625,1002.9448,1,2
38.16,-9.054371000000002,5.0483055,1.6684134999999998,1002.9526,1,2
38.2,-5.158832,6.0921817,1.3985527,1002.92474,1,2
38.24,-4.5900354000000005,6.1493807,1.1097538,1002.9524,1,2
38.28,-6.310765,4.390521,0.71679825,1002.9424,1,2
38.32,-7.5965320000000025,4.0520954,-1.1722293,1002.9245,1,2
38.36,-10.617367,4.0473294,1.7725703999999998,1002.97,1,2
38.4,-7.63955,5.7728224,-0.33897397,1002.93713,1,2
38.44,-6.979937,6.883430499999999,-0.760336,1002.9624,1,2
38.48,-6.8317633,7.7414103,1.2091763,1002.9501,1,2
38.52,-7.013396000000001,7.6556125,1.5784599,1002.975,1,2
38.56,-8.098411,6.959695299999999,0.6883918000000001,1002.94934,1,2
38.6,-8.160548,6.6165032,1.1855043,1002.95966,1,2
38.64,-10.368817,5.5916934000000005,1.1713011999999998,1002.94934,1,2
38.68,-9.704425,5.7632895,0.6126414000000001,1002.9619,1,2
38.72,-5.9708276,6.4973254,-2.4646695,1002.9197,1,2
38.76,-6.816839,5.9444040000000005,-1.5414591999999998,1002.93427,1,2
38.8,-8.312905,4.8909945,0.120317906,1002.9566,1,2
38.84,-7.0653619999999995,4.5096703,-0.45727816,1002.93427,1,2
38.88,-6.0472507,4.609767400000001,-1.697691,1002.92426,1,2
38.92,-6.9649589999999995,5.548779,-0.06905449999999999,1002.9616,1,2
38.96,-6.9267077000000015,5.9825354000000015,-0.41466483,1002.9490400000001,1,2
39.0,-5.784321,6.2875943,-0.96385455,1002.94434,1,2
39.04,-7.4046607,5.806172,0.39965525,1002.9444,1,2
39.08,-6.7020154000000005,6.897713,-0.6087716999999999,1002.929,1,2
39.12,-8.527887,6.4258237000000005,-0.6561144,1002.9164400000001,1,2
39.16,-12.146184,5.8395367,1.2991959,1002.9569,1,2
39.2,-10.903421,5.4772777999999995,1.1476963,1002.9490400000001,1,2
39.24,-9.077523,5.6488733,0.29550466,1002.9616,1,2
39.28,-10.148185,5.839535700000001,3.6001203,1002.9992699999999,1,2
39.32,-7.3328675999999975,6.382923,1.3844204,1002.9337,1,2
39.36,-7.4093313,5.8443010000000015,1.8105179,1002.9237,1,2
39.4,-7.4714550000000015,5.706071400000001,3.2450438,1002.9741,1,2
39.44,-5.889327,5.529708,1.8341922999999998,1002.9393,1,2
39.48,-5.306176,5.8633666,2.3786502,1002.9312,1,2
39.52,-5.506915,6.3781548,3.4628300000000003,1002.9513,1,2
39.56,-5.8892856,6.382921,1.8057898000000001,1002.9440300000001,1,2
39.6,-6.706619,6.487785,1.9241511000000002,1002.94653,1,2
39.64,-8.078408999999999,6.0635605,1.720573,1002.9666,1,2
39.68,-10.458737,6.2780557,1.4270412000000001,1002.9714,1,2
39.72,-10.621139,6.4305825,1.6969123,1002.9942,1,2
39.76,-7.8297157,5.8442955,-0.021674916000000002,1002.9187,1,2
39.8,-8.427173,5.405772,1.0293646,1002.9488,1,2
39.84,-7.308682000000001,5.0816455000000005,1.7442613999999999,1002.9814,1,2
39.88,-7.031435000000001,5.124544599999999,0.60327137,1002.9563,1,2
39.92,-8.900321,5.3199724999999995,0.05881634400000001,1002.9563,1,2
39.96,-8.556157,6.216085,-0.0027292669,1002.9463,1,2
40.0,-7.2655945000000015,6.854803599999999,0.1677108,1002.93115,1,2
40.04,-8.675618,5.510634,0.9914988000000001,1002.9737,1,2
40.08,-8.756858,4.5620885,0.90628123,1002.94354,1,2
40.12,-8.130687,4.523956,1.446005,1002.95886,1,2
40.16,-7.877339,4.8099484000000015,1.521757,1002.9609,1,2
40.2,-7.7387074999999985,5.262771,1.9005109,1002.9764,1,2
40.24,-8.732888,5.5249314000000025,0.46125352,1002.9563,1,2
40.28,-9.641034,5.1960387,-0.3057184,1002.9183,1,2
40.32,-8.011103,5.296135400000002,-0.021652473,1002.9634,1,2
40.36,-7.776875,5.4391317,1.0341214,1002.9735,1,2
40.4,-8.2404995,5.9777527,0.5606824,1002.9585,1,2
40.44,-9.631405,5.539229,1.4933618,1002.9884599999999,1,2
40.48,-7.2940635999999985,5.62026,0.8305466999999999,1002.98596,1,2
40.52,-7.4135413,4.8528438,0.8352826999999999,1002.9534,1,2
40.56,-8.904819999999997,4.4333863,1.7111493000000002,1002.966,1,2
40.6,-8.101797,4.838543,0.7121914,1002.95575,1,2
40.64,-8.359889,5.167435,1.2140399,1002.9429,1,2
40.68,-8.751814999999999,5.291365,1.7869046000000002,1002.9431,1,2
40.72,-7.700241,5.953916,0.63644576,1002.9281,1,2
40.76,-7.1362065999999995,6.2828083,0.77847946,1002.908,1,2
40.8,-8.445856,5.9777484,1.550189,1002.9482,1,2
40.84,-7.4803169999999986,6.0301805,0.21982297,1002.95325,1,2
40.88,-7.2508698,5.7203535999999975,0.09672998,1002.9228,1,2
40.92,-8.297627,5.1960315999999995,1.479178,1002.9579,1,2
40.96,-7.8961062,5.415293,0.32871926,1002.9356,1,2
41.0,-8.230677,4.7956400000000015,-0.25834548,1002.9105,1,2
41.04,-9.836674,4.395248400000002,0.66486496,1002.9454,1,2
41.08,-8.656044,4.8433046,-0.24887352,1002.93536,1,2
41.12,-7.7191854000000015,5.0720987,-0.48559213,1002.9228,1,2
41.16,-7.470619,5.296126999999999,0.039928317000000005,1002.9606,1,2
41.2,-8.092191,5.057803599999999,0.05884792,1002.96045,1,2
41.24,-8.536698,4.952939,-0.73653096,1002.9403,1,2
41.28,-9.229759,4.862374,-0.39565277,1002.9328,0,0
41.32,-8.522337,5.157901,-1.1058124,1002.9328,0,0
41.36,-8.421948,4.933872,-1.0442641,1002.9427,0,0
41.4,-8.517532000000001,5.1769657,-0.31043017,1002.9427,0,0
41.44,-7.790991,5.482025599999999,-0.97324574,1002.9403,0,0
41.48,-8.192482,5.172199,-1.1010733999999998,1002.9173,0,0
41.52,-8.770827,4.9291043,-0.36250540000000003,1002.9808,0,0
41.56,-8.216356,4.857606,-0.4145826,1002.9374,0,0
41.6,-8.646528,4.5334797,-0.5708171,1002.9302,0,0
41.64,-8.737331,4.5954447,-0.5187373,1002.9607,0,0
41.68,-8.30236,4.6240435,-0.81226957,1002.9479,0,0
41.72,-8.326246000000001,4.8957370000000004,-0.6986428000000001,1002.9482,0,0
41.76,-7.71442,5.291361,-0.7743920999999999,1002.9529,0,0
41.8,-8.316663,5.1531305,-0.28674740000000004,1002.9303,0,0
41.84,-8.770733,4.9338690000000005,-0.22519903,1002.9452,0,0
41.88,-8.3501,4.8623695,-0.6039504,1002.9328,0,0
41.92,-8.947562,4.619275599999999,0.19616511,1002.9477,0,0
41.96,-8.335736,4.790871,-0.3388215,1002.9579,0,0
42.0,-8.044155,5.219861,-0.21572591,1002.9753,0,0
42.04,-8.531684,5.362858,0.24351245,1002.9479,0,0
42.08,-8.536451,5.243693,0.049402952,1002.9403,0,0
42.12,-8.488642,5.0959296,-0.36248922,1002.9452,0,0
42.16,-8.2353,5.2484593,-0.38142577,1002.9502,0,0
42.2,-7.9108815,5.162676,-0.66554564,1002.93536,0,0
42.24,-8.364975,5.0768785,-0.67501557,1002.9273699999999,0,0
42.28,-8.2789545,5.1007112999999995,-0.18263897,1002.9198,0,0
42.32,-8.197711,5.062579,-0.045342427000000005,1002.9504400000001,0,0
42.36,-8.345896,5.0768794999999995,-0.19684438,1002.9273699999999,0,0
42.4,-8.52276,4.9720154,-0.09268864,1002.9703,0,0
42.44,-8.393721000000001,5.0006146,0.3760162,1002.9348,0,0
42.48,-8.345932000000001,5.1674447,-0.06428431,1002.9427,0,0
42.52,-8.341163,5.162678700000002,-0.21105194,1002.9482,0,0
42.56,-8.03527,5.234177,-0.16370904,1002.9728,0,0
42.6,-8.503705,5.176978599999999,0.2623859000000001,1002.9502,0,0
42.64,-8.369883,5.1722126,0.23871279,1002.9502,0,0
42.68,-8.661461,5.157913,0.36180636,1002.9682,0,0
42.72,-8.164375999999999,5.6822349999999995,0.06353759,1002.9324,0,0
42.76,-7.753325999999999,5.49634,-0.23946555,1002.9324,0,0
42.8,-8.006665,5.305676999999998,-0.026418188999999998,1002.9403,0,0
42.84,-7.8107076,5.4010086,0.0067213066,1002.9429,0,0
42.88,-7.7724824,5.258013,-0.3246882,1002.9479,0,0
42.92,-8.828831,4.63836,-0.10217230000000001,1002.9349,0,0
42.96,-9.192108000000001,4.9100547,-0.29154956,1002.9303,0,0
43.0,-7.858556299999999,5.248480000000002,-1.0159147,1002.9298,0,0
43.04,-8.522962,5.286613,-0.06903497,1002.9273699999999,0,0
43.08,-8.441717,5.343812000000002,0.0777305,1002.9349,0,0
43.12,-7.8251339999999985,5.486809,-0.67030656,1002.9273699999999,0,0
43.16,-8.74287,4.7289267,-0.26788336,1002.9628,0,0
43.2,-8.431583,4.833776,-0.35778227,1002.95276,0,0
43.24,-8.230823,4.9624734,-0.58503276,1002.9602,0,0
43.28,-8.26427,4.9148073,-0.7507359,1002.96246,0,0
43.32,-8.42677,4.8719077,-0.22048147,1002.9473,0,0
43.36,-8.359843,5.067336599999999,0.23402235,1002.9649699999999,0,0
43.4,-8.106505,5.1865005,-0.15893243,1002.9046599999999,0,0
43.44,-8.421961999999999,5.0244374,-0.24888515,1002.9498,0,0
43.48,-8.503204,5.0149035,-0.6134331000000001,1002.9423,0,0
43.52,-8.651366000000001,4.8528404,-0.7223233,1002.9423,0,0
43.56,-8.53186,5.0292025,-0.44299236,1002.9448,0,0
43.6,-8.068207000000001,5.3914604000000015,-0.4382569000000001,1002.9424,0,0
43.64,-8.235489999999999,5.0864005,-0.8075396,1002.94495,0,0
43.68,-8.608302,5.1388326,-0.0026895683000000004,1002.9473,0,0
43.72,-8.049055000000001,5.415293,0.14881235,1002.9599599999999,0,0
43.76,-7.642760000000001,5.4009924000000025,-0.30568945,1002.9398,0,0
43.8,-8.029913,5.3723927000000025,-0.54240865,1002.9195,0,0
43.84,-8.397944,5.1388316,-0.90695685,1002.93207,0,0
43.88,-8.632145,5.410525,-0.67497,1002.9647,0,0
43.92,-7.9677424,5.6107206,-0.7128441999999999,1002.9574,0,0
43.96,-7.881694,5.6011868,-0.40510675,1002.9398,0,0
44.0,-7.924702000000001,5.6488514,-0.71757656,1002.9574,0,0
44.04,-8.091983,4.8814363,-0.8312011999999999,1002.9424,0,0
44.08,-8.350081,5.186496,0.06833675,1002.9473,0,0
44.12,-8.163657,5.3866906,-0.040553592,1002.95984,0,0
44.16,-7.8051615000000005,5.543986299999999,-0.83593255,1002.9549599999999,0,0
44.2,-8.53168,5.529687,-0.43350708,1002.97504,0,0
44.24,-7.7573414000000005,5.6583834,-1.4561375,1002.9248,0,0
44.28,-8.254429,5.5916510000000015,-0.25359768,1002.93964,0,0
44.32,-8.584224,5.3008914,0.36187598,1002.9422599999999,0,0
44.36,-7.9389395999999985,5.4581870000000015,-0.1731107,1002.9423,0,0
44.4,-8.2543955,5.32949,-0.25359464,1002.95715,0,0
44.44,-8.517272,5.539218,0.49444246,1002.9473,0,0
44.48,-8.631978,5.3008904,0.073081344,1002.95465,0,0
44.52,-7.857638400000001,5.510618,-0.28673238,1002.93713,0,0
44.56,-7.685553,4.962464,-1.0726423999999999,1002.93713,0,0
44.6,-8.101386,4.9433975,-0.68442035,1002.9474,0,0
44.64,-8.660611,4.8718987,0.21985205,1002.9825,0,0
44.68,-8.029666,4.981529,-0.29146259999999996,1002.9398,0,0
44.72,-8.130030999999999,4.9338636,-0.6086666999999999,1002.9649,0,0
44.76,-8.588881,5.0291944000000015,-0.6418065,1002.9522,0,0
44.8,-8.06787,5.07686,-0.71755594,1002.9345,0,0
44.84,-8.426344,5.162657299999999,0.092028305,1002.9772300000001,0,0
44.88,-8.588846,5.095925299999998,0.01627886,1002.9646,0,0
44.92,-8.182552000000001,5.620246,-0.23464361,1002.9422599999999,0,0
44.96,-8.579264,5.6440790000000005,0.030484106,1002.9496,0,0
45.0,-7.852723599999999,5.5487475,-0.40508008,1002.9474,0,0
45.04,-7.7236585999999985,5.410517,-0.461892,1002.9445,0,0
45.08,-8.282883,4.97676,-0.5187037999999999,1002.94464,0,0
45.12,-8.474064,4.747965,-0.7222821999999999,1002.9496,0,0
45.16,-8.344998,5.057791,-0.2867159,1002.97455,0,0
45.2,-8.517091,4.967226999999999,-0.22990493,1002.9393,0,0
45.24,-8.607897999999999,5.053025,-0.121012725,1002.95984,0,0
45.28,-8.354559,5.134056,-0.20623112,1002.9518,0,0
45.32,-8.301971,4.9624596,0.006817933000000001,1002.9646,0,0
45.36,-8.540951,5.0291915000000005,-0.32932377,1002.9443,0,0
45.4,-8.364088,5.0720897,-0.5423710999999999,1002.9496,0,0
45.44,-8.593508,4.6145,-0.39086923,1002.9418,0,0
45.48,-8.464444,4.5620675,-0.36719632,1002.9443,0,0
45.52,-8.34494,4.6478660000000005,-0.40033624,1002.93427,0,0
45.56,-8.545681,4.833761,-0.40506968,1002.9521,0,0
45.6,-8.2063055,5.1149883,-0.32931837,1002.9671,0,0
45.64,-8.239754,5.13882,-0.74121064,1002.9521,0,0
45.68,-8.56477,4.9767566,-0.68913126,1002.9697,0,0
45.72,-8.521742999999999,4.781328,-0.07839220000000001,1002.9621,0,0
45.76,-8.08199,4.97199,-0.26303303,1002.94147,0,0
45.8,-8.363989,4.7717943,-0.79801977,1002.9089,0,0
45.84,-8.650767,4.6764627,-1.3708818999999999,1002.92645,0,0
45.88,-8.636417,5.105453,-0.81222117,1002.95154,0,0
45.92,-7.5035934000000015,5.6393075,-0.4382023,1002.9716,0,0
45.96,-8.010242,5.443878,-0.12099623,1002.93646,0,0
46.0,-8.387837,5.2961144,0.030505575,1002.93896,0,0
46.04,-8.392608000000001,5.148350700000001,-0.6559822,1002.94653,0,0
46.08,-8.760642,5.014887,-0.05944626,1002.9568,0,0
46.12,-8.038881,5.2865806,-0.28669673,1002.9515,0,0
46.16,-8.626788000000001,4.976754,0.24355745,1002.9490400000001,0,0
46.2,-8.363761,4.8242207000000015,-0.48552829999999997,1002.95654,0,0
46.24,-8.301608,4.523927,-0.57548064,1002.92865,0,0
46.28,-8.167760000000001,4.8289870000000015,-0.3908375,1002.95154,0,0
46.32,-8.717419999999999,5.510604,-0.04048998,1002.95654,0,0
46.36,-7.4411993,5.9729595,-1.2146211999999998,1002.9468,0,0
46.4,-7.914384,5.7060319999999995,-1.1530725,1002.944,0,0
46.44,-8.970705,5.1435785,-0.19672133,1002.94855,0,0
46.48,-8.086428,5.4009714,-0.8216614,1002.94855,0,0
46.52,-8.425777,5.086378599999999,-0.0026080199,1002.9337,0,0
46.56,-7.7852697,5.3533053,-0.39082783,1002.96655,0,0
46.6,-8.320592,4.9290814,-0.13990301,1002.9440300000001,0,0
46.64,-8.435293,4.876649,-0.296137,1002.94653,0,0
46.68,-8.879800999999997,4.671687,-0.09255632,1002.95654,0,0
46.72,-8.535639,4.833749299999999,-0.37188473,1002.9643599999999,0,0
46.76,-8.12456,5.029178,-0.485509,1002.9562400000001,0,0
46.8,-8.2966175,5.162641000000002,-0.22038098,1002.9490400000001,0,0
46.84,-8.478235,4.9910445,-0.44763103,1002.9540400000001,0,0
46.88,-8.377844999999999,4.9767447,0.18678063,1002.97406,0,0
46.92,-8.468646000000001,4.9100122000000015,-0.12095438,1002.96155,0,0
46.96,-8.315679,4.986276999999999,-0.21564119,1002.9636,0,0
47.0,-8.36824,5.3294687000000005,0.07315892,1002.94653,0,0
47.04,-7.9619427,5.4343324,-0.10674709,1002.939,0,0
47.08,-8.129221000000001,4.991042,-0.15882424,1002.9511,0,0
47.12,-8.602406,5.0101085,-0.28665164,1002.9184,0,0
47.16,-8.573713,5.033941,-0.40501055,1002.941,0,0
47.2,-8.086159,5.381899,0.08263449,1002.951,0,0
47.24,-8.387271,5.153103400000001,-0.16828755,1002.9490400000001,0,0
47.28,-8.454877,5.1578875,-0.25830424,1002.9511,0,0
47.32,-7.9004307,4.6812315,-0.9116530999999999,1002.9033,0,0
47.36,-9.224445,4.604967,0.17725904,1002.9337,0,0
47.4,-7.981708500000001,4.657399,-0.9874054,1002.9312,0,0
47.44,-8.751266000000001,4.8671284,0.049428277,1002.94604,0,0
47.48,-8.196819999999999,4.6383339999999995,-0.73648393,1002.9433,0,0
47.52,-9.076314,4.5334697,0.6364925,1002.9459,0,0
47.56,-8.2303,4.890962,-0.07366916,1002.9585599999999,0,0
47.6,-8.689171,5.277053400000002,0.17725329,1002.951,0,0
47.64,-7.9052940000000005,5.4915485,-0.154156,1002.93085,0,0
47.68,-7.470342,5.3771515,-1.0347563,1002.9463,0,0
47.72,-8.574488,5.176956,0.08256234,1002.941,0,0
47.76,-8.746571000000001,5.420051,0.03048287,1002.9716,0,0
47.8,-8.402435,5.358086,0.05415397,1002.9535,0,0
47.84,-8.173016,5.6250134,-0.39088112,1002.9588,0,0
47.88,-7.709385,5.6297803,-0.60393023,1002.9408599999999,0,0
47.92,-8.297312,5.291355,0.025744632000000003,1002.9408599999999,0,0
47.96,-8.321219000000001,5.0625606,0.12043181,1002.9585,0,0
48.0,-8.282992,5.057794599999999,0.068352446,1002.9663,0,0
48.04,-7.991434599999999,5.2532234,-0.3056665,1002.9359,0,0
48.08,-8.177857000000001,5.3723870000000025,0.011537705,1002.9684,0,0
48.12,-8.416857,5.2770567,-0.45243496,1002.9256,0,0
48.16,-8.3834095,5.3056564,-0.22518457,1002.93066,0,0
48.2,-8.555492999999998,5.1721926,-0.35301438,1002.9151,0,0
48.24,-8.488586,5.1006947,-0.5281883,1002.9508,0,0
48.28,-8.320936,5.110219,-0.14466886,1002.9457,0,0
48.32,-8.034145,5.281815,-0.2535599,1002.9406,0,0
48.36,-8.034142,5.2627487,-0.040511273,1002.94775,0,0
48.4,-8.163192,5.21985,-0.5328890000000001,1002.9433,0,0
48.44,-8.196647,5.0673194000000015,-0.5802326999999999,1002.9231599999999,0,0
48.48,-8.368715,4.9147897,-0.6323109,1002.91254,0,0
48.52,-8.287456500000001,5.110218499999998,-0.7980147,1002.918,0,0
48.56,-8.325689,5.2770480000000015,-0.1730729,1002.9304,0,0
48.6,-8.072357,5.3580794,-0.31983912,1002.9327,0,0
48.64,-8.043674000000001,5.458177,-0.3529796,1002.9302,0,0
48.68,-8.153606,5.391445,-0.012102136000000001,1002.9302,0,0
48.72,-8.105804,5.405744599999999,-0.35297890000000004,1002.9331699999999,0,0
48.76,-8.201397,5.5439744000000015,-0.021570249,1002.9502,0,0
48.8,-8.096237,5.3771453000000005,-0.25829017,1002.9153,0,0
48.84,-8.464278,5.2055489999999995,-0.2819618,1002.94775,0,0
48.88,-8.057992,5.339012599999998,-0.40979037,1002.9555,0,0
48.92,-8.062768,5.42481,-0.04997529,1002.9326,0,0
48.96,-8.091443,5.2627473,0.077853985,1002.93,0,0
49.0,-8.206154,5.3247127999999995,0.03524465,1002.92786,0,0
49.04,-8.100995,5.42481,0.05891701,1002.9251,0,0
49.08,-8.1201105,5.591639499999999,0.05891739,1002.9353,0,0
49.12,-8.096208,5.696503599999999,-0.29616264,1002.9251,0,0
49.16,-8.144002,5.6822040000000005,-0.35770953,1002.943,0,0
49.2,-8.091421,5.572573,-0.4050533,1002.943,0,0
49.24,-7.962362,5.71557,-0.03576935,1002.9228,0,0
49.28,-7.727825599999999,5.7060285,-0.17777166,1002.9426,0,0
49.32,-8.091074,5.472467,-0.14462931,1002.93286,0,0
49.36,-8.03848,5.4391003,-0.26298797,1002.92755,0,0
49.4,-8.339591,5.4391,-0.37661225,1002.92523,0,0
49.44,-8.129264,5.3866677,-0.19196893,1002.93744,0,0
49.48,-7.7755427,5.6631274000000005,-0.31032753,1002.9174,0,0
49.52,-7.976278,5.7060260000000005,-0.30559173,1002.9428,0,0
49.56,-7.708591999999999,5.729858999999999,-0.38134062,1002.9124,0,0
49.6,-8.000145,5.429565,-0.1872286,1002.94244,0,0
49.64,-8.157864,5.3914323,-0.22036812,1002.95276,0,0
49.68,-8.239102,5.3247004,-0.70801014,1002.9024,0,0
49.72,-7.990536,5.4676967,-0.2250994,1002.955,0,0
49.76,-8.353785499999999,5.501062,0.040028684,1002.9223599999999,0,0
49.8,-8.239054,5.4676957,0.011623759,1002.9248699999999,0,0
49.84,-8.129102,5.663124,-0.078328416,1002.925,0,0
49.88,-8.305939,5.2341332000000005,-0.15881187,1002.9275,0,0
49.92,-8.630948,5.3866629999999995,-0.116200626,1002.94006,0,0
49.96,-7.980881,5.176934200000002,0.006895210600000001,1002.9327,0,0
50.0,-8.023881,5.410495,0.19153859,1002.9275,0,0
50.04,-8.272416,5.2007660000000016,0.15839918,1002.9325,0,0
50.08,-8.48749,5.5677900000000005,0.27676082,1002.93,0,0
50.12,-7.8039618000000015,5.4533925000000005,-0.27716290000000005,1002.9172,0,0
50.16,-8.755127,4.6764436,-0.35291198,1002.9275,0,0
50.2,-8.100277,4.6049447,-0.92577344,1002.9021,0,0
50.24,-8.315353,4.871871499999999,-0.25822097,1002.922,0,0
50.28,-8.70728,4.8766375,-0.33396995,1002.9446,0,0
50.32,-8.157586,5.472457,-0.7790024999999999,1002.925,0,0
50.36,-8.052415,5.443857,-0.3387014,1002.93744,0,0
50.4,-8.0285,5.3056264,-0.14458932,1002.94244,0,0
50.44,-8.539921000000001,4.9767339999999995,-0.1493221,1002.927,0,0
50.48,-8.425193,5.1483297,-0.11618015,1002.9071,0,0
50.52,-8.367816,4.9672,-0.36236748,1002.915,0,0
50.56,-8.415598,5.0196314000000015,-0.38603804,1002.8969,0,0
50.6,-8.229171000000001,4.7384043,-0.13037875,1002.9046,0,0
50.64,-8.644998,4.781303,-0.15404928,1002.94495,0,0
50.68,-8.39165,5.0005646,-0.35762703,1002.9069,0,0
50.72,-8.00925,5.200759400000001,-0.7742532,1002.9450699999999,0,0
50.76,-8.4489765,4.909999,-0.47124985,1002.9245599999999,0,0
50.8,-8.3151245,5.024396,-0.20138727,1002.94476,0,0
50.84,-8.339007,4.8718657,-0.35762109999999997,1002.9421,0,0
50.88,-8.864769,4.6764364,-0.29133794,1002.9371,0,0
50.92,-8.764378,4.7956,-0.04041308,1002.94495,0,0
50.96,-8.033053,5.1816907,-0.29133509999999996,1002.9345,0,0
51.0,-8.569688000000001,4.9243283,-0.10681214,1002.9346,0,0
51.04,-8.349831,4.9290949999999984,-0.30565834,1002.9421,0,0
51.08,-8.526697,4.8671303,-0.02159534,1002.93427,0,0
51.12,-8.545832,5.0434933,-0.24411364,1002.9367699999999,0,0
51.16,-8.445468,5.0291944000000015,-0.25831816,1002.94476,0,0
51.2,-8.383345,4.9910616999999995,-0.25831944,1002.9396,0,0
51.24,-8.383358,4.8099327,-0.22517984,1002.89935,0,0
51.28,-8.913931,4.4524417000000005,-0.09261775,1002.942,0,0
51.32,-8.569798,4.6240377,-0.21571349,1002.9371,0,0
51.36,-8.345161000000001,4.733669,-0.10208908,1002.9394,0,0
51.4,-8.517248,4.71937,-0.28199768,1002.92676,0,0
51.44,-8.6463175,4.6860040000000005,-0.47610959999999997,1002.93445,0,0
51.48,-8.565074000000001,4.752736,-0.23939057,1002.8969,0,0
51.52,-8.502949000000001,4.8194685,-0.10682846,1002.9317,0,0
51.56,-8.1158,4.7908697,-0.272534,1002.92444,0,0
51.6,-8.545997,4.838535,-0.3340825,1002.9293,0,0
51.64,-8.698964,4.848068700000002,-0.53766316,1002.92664,0,0
51.68,-8.440866999999999,4.9719999999999995,-0.33881938,1002.9317,0,0
51.72,-8.479123,4.8909683,-0.2725393,1002.9268,0,0
51.76,-8.742022500000001,4.8099370000000015,-0.13997683,1002.93396,0,0
51.8,-8.546064999999999,4.829004299999999,-0.21099424,1002.92664,0,0
51.84,-8.397903999999999,4.8671370000000005,-0.16838582,1002.9141,0,0
51.88,-8.450495,4.786105,-0.30568475,1002.90894,0,0
51.92,-8.24498,4.8147054,-0.29148296,1002.89124,0,0
51.96,-8.622597,4.509646,-0.31042182,1002.93695,0,0
52.0,-8.74566,4.533449,-0.34818605,1002.9313,0,0
52.04,-8.697828999999999,4.5858803,-0.2156198,1002.9114400000001,0,0
52.08,-8.32019,4.895706,-0.22981991,1002.94653,0,0
52.12,-8.425319,4.814674,-0.31977105,1002.93896,0,0
52.16,-8.315342999999999,4.8051395,-0.29136086,1002.92145,0,0
52.2,-8.434803,4.819438,-0.36710823,1002.9766,0,0
52.24,-8.879291,4.5525103,-0.17772889,1002.9163,0,0
52.28,-8.563791,4.457178,-0.24874203,1002.949,0,0
52.32,-8.640236999999999,4.476244,-0.17772304,1002.9440300000001,0,0
52.36,-8.334289,4.786069,0.11107938,1002.9211,0,0
52.4,-8.052252000000001,4.738403,-0.040419035,1002.9337,0,0
52.44,-8.410705,4.709802,-0.09249453,1002.9287,0,0
52.48,-8.606641,4.514373,-0.16350728,1002.9212,0,0
52.52,-8.310259,4.6764355,-0.11142569,1002.9438,0,0
52.56,-8.166833,4.5811033,-0.29606453,1002.9437,0,0
52.6,-8.487044000000001,4.357074,0.0069405064,1002.9412,0,0
52.64,-7.9134345,4.5906343000000005,-0.111416474,1002.9337,0,0
52.68,-8.228869,4.557268,-0.15402319,1002.9387,0,0
52.72,-8.295751,4.3761377,-0.32919285,1002.95386,0,0
52.76,-8.348296000000001,4.3618374000000015,-0.17768893,1002.9287,0,0
52.8,-8.104492,4.3618364000000005,0.040096804,1002.93616,0,0
52.84,-8.257411,4.433333999999999,-0.078260176,1002.9462,0,0
52.88,-8.157005,4.528664599999999,-0.1350703,1002.93085,0,0
52.92,-8.070934,4.6525940000000015,-0.1824112,1002.9513,0,0
52.96,-8.209513000000001,4.709791,-0.03564133,1002.9533,0,0
53.0,-8.091016,4.4714885,-0.26298407,1002.9337,0,0
53.04,-8.229635,4.4905550000000005,-0.030998748,1002.9461699999999,0,0
53.08,-8.028889999999999,4.323725700000002,-0.12568744,1002.9413,1,3
53.12,-8.349143,4.299893,0.40456529999999996,1002.9462,1,3
53.16,-7.8185910000000005,4.481022,-0.12568855,1002.9413,1,3
53.2,-7.904633500000001,4.562053700000001,-0.13515794,1002.93585,1,3
53.24,-7.899859399999999,4.495322,-0.17303374,1002.9229,1,3
53.28,-8.616838000000001,4.237928,-0.28666016,1002.9458,1,3
53.32,-8.086285,4.4047575,-0.22037895,1002.9433,1,3
53.36,-7.9428990000000015,4.557288,0.11576311,1002.9609,1,3
53.4,-7.8329679999999975,4.5382214,0.0021369625,1002.9533,1,3
53.44,-8.191460000000001,4.4047585,0.11102764,1002.9405,1,3
53.48,-8.181908,4.2998943,-0.24405341,1002.98315,1,3
53.52,-8.24883,4.4333577,-0.0830842,1002.9709,1,3
53.56,-7.7899766,4.423825,-0.25352338,1002.9609,1,3
53.6,-8.181925,4.3380275,0.021071713,1002.96796,1,3
53.64,-7.8999224,4.4524245,-0.012069711,1002.9934699999999,1,3
53.68,-8.186717999999999,4.4142923,-0.06888330000000001,1002.9684,1,3
53.72,-7.9811916,4.199797,-0.16357183,1002.9834,1,3
53.76,-8.062453999999999,4.266529599999998,-0.031008998,1002.9834599999999,1,3
53.8,-8.119819999999999,4.285595400000001,0.025803119,1002.9734,1,3
53.84,-8.076808,4.385694,-0.21091767,1002.9809,1,3
53.88,-8.291903999999999,4.385694,0.1252245,1003.0056,1,3
53.92,-7.8091507,4.5906553,-0.06415225,1002.9985,1,3
53.96,-7.8468339999999985,4.7241063,0.011649056999999999,1002.9934699999999,1,3
54.0,-8.085807,4.600175,0.11107305,1002.98553,1,3
54.04,-8.210067,4.581108599999999,0.016386381999999998,1002.9928,1,3
54.08,-8.071439999999999,4.4857764000000016,-0.054628447000000004,1003.0007300000001,1,3
54.12,-8.573298,4.371379,-0.17772117,1003.0441,1,3
54.16,-8.281715,4.514375,-0.3812992,1003.0233,1,3
54.2,-8.334276,4.681204,-0.049889237,1003.0286,1,3
54.24,-8.033138000000001,4.8432674,-0.06409152,1003.071,1,3
54.28,-8.386823,4.8194337,0.46616369999999996,1003.04315,1,3
54.32,-8.047441000000001,4.805134,0.030599993,1003.07874,1,3
54.36,-8.879109,4.4381084,0.30519697,1003.0612,1,3
54.4,-8.425011999999999,4.695501999999999,0.059009335999999996,1003.0632300000001,1,3
54.44,-8.095191999999999,4.909997,0.08741709,1003.0582,1,3
54.48,-8.291144000000001,4.809899,-0.05934766,1003.0682400000001,1,3
54.52,-8.649614999999999,4.676435,0.03534175,1003.06335,1,3
54.56,-8.902927,4.6430682999999995,0.09689060599999999,1003.09125,1,3
54.6,-8.348455,4.6001687,0.08742321,1003.0883,1,3
54.64,-8.429692999999999,4.7383986,0.40462995,1003.06085,1,3
54.68,-8.267168,4.8337297,0.26733324,1003.1034,1,3
54.72,-8.052058,4.962426,0.00220838,1003.0758,1,3
54.76,-8.262350999999999,4.728864700000001,0.30521187,1003.13135,1,3
54.8,-8.596923,4.676432,0.64609045,1003.1081,1,3
54.84,-8.424838000000001,4.509602,0.42830884,1003.1008,1,3
54.88,-8.453497,4.4524035,0.3052163,1003.1034,1,3
54.92,-8.644671,4.7574625,0.7076422,1003.1159,1,3
54.96,-8.252711999999999,4.9242916,-0.21083088,1003.0881,1,3
55.0,-7.980251299999999,5.052988,-0.5848477,1003.1260000000001,1,3
55.04,-9.060464999999999,4.6001644,-0.40967286,1003.1234,1,3
55.08,-8.435072,4.876643,-0.28191350000000004,1003.1407,1,3
55.12,-8.607156,4.709814,-0.15408565,1003.1260000000001,1,3
55.16,-8.650186999999999,4.7527137,-0.035726592,1003.12823,1,3
55.2,-8.693216,4.4333544,-0.10200935,1003.1332,1,3
55.24,-8.745804,4.657383,0.12524118,1003.17084,1,3
55.28,-8.927449000000003,4.552519,0.10156799999999999,1003.17834,1,3
55.32,-7.871123299999999,4.9052444,-0.4097487,1003.1757,1,3
55.36,-8.769739,4.4571879999999995,-0.40501544,1003.1585699999999,1,3
55.4,-8.416044,4.6335516,0.08736163400000001,1003.17084,1,3
55.44,-8.282222,4.476255999999999,0.06842295,1003.2009,1,3
55.48,-8.683733,4.323725700000002,-0.012062731,1003.2012300000001,1,3
55.52,-8.540353999999999,4.5191550000000005,-0.054673623,1003.17584,1,3
55.56,-8.5069065,4.6430855000000015,-0.10201877,1003.20874,1,3
55.6,-8.750688,4.609719999999999,-0.21091108,1003.20074,1,3
55.64,-8.607306,4.4571905,0.068417676,1003.20325,1,3
55.68,-8.674233000000001,4.5763545,0.29566809999999993,1003.2182,1,3
55.72,-9.070969999999999,4.509623,0.31460464,1003.2158,1,3
55.76,-8.712495,4.738418599999998,0.0826178,1003.2235,1,3
55.8,-7.962078599999999,4.9481473,-0.44763666,1003.2183,1,3
55.84,-8.253658,4.538223,-0.35768396,1003.2384599999999,1,3
55.88,-8.965860000000003,4.566823,-0.106761605,1003.2583,1,3
55.92,-8.698201,4.7717852999999995,0.06367598,1003.25085,1,3
55.96,-8.277591000000001,5.114978,0.29092628,1003.2459,1,3
56.0,-8.148548,5.2055419999999994,0.14415872,1003.2456,1,3
56.04,-8.287174,5.439104,0.20097049,1003.27094,1,3
56.08,-8.501785,5.148332599999999,0.0069037230000000005,1003.2808,1,3
56.12,-8.301026,5.1149664,0.10632697,1003.2507,1,3
56.16,-8.420514,5.0005690000000005,0.36198553,1003.2609,1,3
56.2,-8.487424,4.890937999999999,0.43300223,1003.263,1,3
56.24,-8.688168,4.871871,0.30517402,1003.30853,1,3
56.28,-8.334455499999999,4.9052367,0.21995544,1003.3032,1,3
56.32,-8.645136,4.7956057,0.39512902,1003.30853,1,3
56.36,-8.573431,4.6573753,-0.035701115,1003.3138,1,3
56.4,-8.573423,4.719341,0.3572552,1003.3336,1,3
56.44,-8.367884,4.8480372,-0.012027656000000001,1003.3182,1,3
56.48,-8.425234,4.833737999999999,0.20575562,1003.3356,1,3
56.52,-8.707236,4.747939,0.04005209999999999,1003.3207,1,3
56.56,-8.630751,4.657374400000001,0.04952164,1003.3107,1,3
56.6,-8.343955000000001,4.6907406,-0.12565067,1003.3459,1,3
56.64,-8.721553,4.409513,0.2578368,1003.3206,1,3
56.68,-8.539912,4.6955066,0.082664475,1003.3309300000001,1,3
56.72,-8.468207000000001,4.7145730000000015,0.08266521,1003.3336,1,3
56.76,-8.539897,4.9862660000000005,0.14421318,1003.33826,1,3
56.8,-8.229202,4.82897,0.07793217,1003.3662,1,3
56.84,-8.917487,4.6526065,0.1726209,1003.34827,1,3
56.88,-8.487296,4.924300700000001,0.06846474,1003.35065,1,3
56.92,-8.439492,4.924300700000001,-0.054629155,1003.3558,1,3
56.96,-8.176594999999999,4.9576654000000016,-0.059362825,1003.35596,1,3
57.0,-8.979594,4.7145715,0.15368609,1003.36816,1,3
57.04,-8.578083,4.7860694000000015,0.058998644,1003.36316,1,3
57.08,-8.898483,4.7765403,0.5182219,1003.3788,1,3
57.12,-8.195851,4.952903,0.13000078,1003.3934300000001,1,3
57.16,-8.181511,4.886171,0.011640783,1003.4032599999999,1,3
57.2,-8.539994,4.5286794000000015,0.19628266,1003.3606599999999,1,3
57.24,-8.425278,4.657376,0.15840754,1003.3807,1,3
57.28,-8.506534,4.6526093,0.19628292,1003.4134,1,3
57.32,-8.597349000000001,4.8289723,0.1915486,1003.388,1,3
57.36,-8.224523,5.0768332,0.28623682,1003.41595,1,3
57.4,-8.49697,4.9767356,0.09686074,1003.4058,1,3
57.44,-8.48741,4.9433694,0.07318884,1003.4134,1,3
57.48,-8.759856,4.795605999999999,0.39039406,1003.41583,1,3
57.52,-8.492187,4.9243035000000015,0.054251455,1003.4085,1,3
57.56,-8.453947,5.024401,0.16787727,1003.436,1,3
57.6,-8.291431,5.024401,-0.06410843,1003.4209599999999,1,3
57.64,-8.568660000000001,4.7813063,0.26729998,1003.4359,1,3
57.68,-8.606896,4.7288747,0.1631432,1003.4183300000001,1,3
57.72,-8.936702,4.5048466,0.11579928,1003.42584,1,3
57.76,-8.582995,4.7813063,-0.15879609,1003.4434,1,3
57.8,-8.1145735,4.9386024000000015,-0.21560882,1003.4384,1,3
57.84,-8.554314,4.8480377,-0.22981192,1003.4384,1,3
57.88,-8.659469,4.6907415,-0.16353014,1003.4710699999999,1,3
57.92,-8.979714,4.4810133,-0.1445924,1003.4384,1,3
57.96,-8.774181,4.299884,0.13947196,1003.4760000000001,1,3
58.0,-8.506511,4.433347,0.2578322,1003.47064,1,3
58.04,-8.367894999999999,4.5858774,0.12526901,1003.48096,1,3
58.08,-8.481773,4.7288537,-0.078233756,1003.4834599999999,1,3
58.12,-8.596455,4.576322599999999,-0.22499718,1003.4882,1,3
58.16,-8.887988,4.738385,0.044867054,1003.4934699999999,1,3
58.2,-8.620284,4.8432484,0.1726991,1003.4780000000001,1,3
58.24,-8.44818,4.9814777,-0.25339437,1003.5136,1,3
58.28,-8.548521000000001,4.762215599999998,-0.18237518,1003.50366,1,3
58.32,-8.4242115,4.676416400000001,0.04487939,1003.4829,1,3
58.36,-8.534115,4.5906177,0.34788424,1003.5211,1,3
58.4,-8.859106,4.500051999999998,0.17271459,1003.5312,1,3
58.44,-8.352414,4.5858493,-0.16342524,1003.5086699999999,1,3
58.48,-8.753884,4.50005,0.12537661,1003.5208,1,3
58.52,-8.710830999999999,4.380885,-0.07346527,1003.4982,1,3
58.56,-8.380989999999999,4.6954769999999995,-0.11607174599999999,1003.5132,1,3
58.6,-8.662968,4.509581,-0.030849524,1003.51855,1,3
58.64,-8.490862,4.762208,-0.20601958,1003.5382699999999,1,3
58.68,-8.313972999999999,4.776507,0.007031951,1003.5412,1,3
58.72,-8.705885,4.623976,0.02597252,1003.5331,1,3
58.76,-8.567238,4.71454,0.11592916,1003.5732,1,3
58.8,-8.911347,4.738372,0.0023067743,1003.5559,1,3
58.84,-8.524152,4.8384686,0.0070441140000000015,1003.5784,1,3
58.88,-8.40462,4.990998,-0.09237505,1003.5733,1,3
58.92,-8.533642,4.943331,-0.1633882,1003.5481,1,3
58.96,-8.586191,4.828933,0.06860039,1003.61096,1,3
59.0,-8.524014,4.6907015,0.08754154,1003.5960699999999,1,3
59.04,-8.547882000000001,4.6335025000000005,0.14435731,1003.59106,1,3
59.08,-8.472045,4.676417400000001,0.22478348,1003.5986,1,3
59.12,-8.510278,4.719316,-0.021404912999999998,1003.60065,1,3
59.16,-8.429012,4.7431483,-0.05454501,1003.5907599999999,1,3
59.2,-8.529383000000001,4.65735,-0.059278805,1003.5981,1,3
59.24,-8.534153,4.64305,0.19637978,1003.6312,1,3
59.28,-8.510247,4.633517299999999,-0.15869987,1003.61835,1,3
59.32,-8.658413000000001,4.6621165,0.12536511,1003.64124,1,3
59.36,-8.443315,4.7574472000000005,0.12536578,1003.6463,1,3
59.4,-8.64884,4.685949,-0.120822616,1003.6387300000001,1,3
59.44,-8.878262,4.685949,-0.082946695,1003.6510000000001,1,3
59.48,-8.51021,4.747913400000002,0.04014852,1003.6334,1,3
59.52,-8.696614,4.733614,0.1064309,1003.7012300000001,1,3
59.56,-8.624908999999999,4.7097807000000005,0.063821934,1003.6864,1,3
59.6,-8.624902,4.7193135999999996,0.120635495,1003.6609,1,3
59.64,-8.4576025,4.652582,0.23426184,1003.6809,1,3
59.68,-8.787401,4.562017,0.05435518,1003.6885,1,3
59.72,-8.481486,4.528651,0.106434345,1003.6709599999999,1,3
59.76,-8.338084,4.6430483,0.049622155999999994,1003.69354,1,3
59.8,-8.634426,4.638281299999999,0.10643564,1003.711,1,3
59.84,-8.486241999999999,4.700247,-0.021392542999999997,1003.73175,1,3
59.88,-8.467117,4.7479115,0.17745309,1003.7239400000001,1,3
59.92,-8.639180999999999,4.6859465,0.05909371400000001,1003.7112400000001,1,3
59.96,-8.600937,4.771744,0.111172765,1003.7289400000001,1,3
60.0,-8.591369,4.786043599999998,0.2011272,1003.7515,1,3
60.04,-8.897269,4.7240787000000015,0.11117415,1003.7186,1,3
60.08,-8.467978,4.8623304,-0.05934589,1003.6985,1,3
60.12,-8.668758,4.809899,0.20104365,1003.7515,1,3
60.16,-8.58275,4.7002690000000005,0.14896265,1003.74615,1,3
60.2,-8.7261715,4.7765346,0.1821009,1003.7539999999999,1,3
60.24,-8.43463,4.828967,0.035331972,1003.7389999999999,1,3
60.28,-8.367741,4.786069,0.14422072,1003.7916,1,3
60.32,-8.420347,4.714571,-0.08776763,1003.76624,1,3
60.36,-8.420374,4.781304,-0.035691604,1003.77936,1,3
60.4,-8.43474,4.7908373,0.1016036,1003.7788,1,3
60.44,-8.5447035,4.647842,-0.08777514,1003.7663,1,3
60.48,-8.449136,4.7717724000000015,0.035316806,1003.76404,1,3
60.52,-8.692932,4.6764417,0.011642403999999999,1003.7967,1,3
60.56,-8.602143,4.7431746,0.05424948,1003.7989,1,3
60.6,-8.463557000000002,4.7002764,-0.03570677,1003.8114,1,3
60.64,-8.645214999999999,4.72411,0.0021660887,1003.8014,1,3
60.68,-8.764737,4.5715804,-0.03571154,1003.7838,1,3
60.72,-8.707407,4.76701,-0.040448513,1003.82416,1,3
60.76,-8.449326,5.0291714999999995,0.10631548,1003.8396,1,3
60.8,-8.478033,4.9719734,0.03529687,1003.8142,1,3
60.84,-8.506739,4.9004755,0.347765,1003.7989,1,3
60.88,-8.392052,4.8432775,0.24833998,1003.8316699999999,1,3
60.92,-8.568931,4.7241144,0.1536495,1003.85205,1,3
60.96,-8.645437,4.805146700000001,-0.16355835,1003.8321,1,3
61.0,-8.377794999999999,4.8003800000000005,-0.29138967,1003.837,1,3
61.04,-8.41606,4.7670155,-0.18250091,1003.8421,1,3
61.08,-8.597045,4.5620375,0.03060656,1003.8446,1,3
61.12,-8.687863,4.7527003,0.24365467,1003.8618,1,3
61.16,-8.224224000000001,4.790832,0.1110912,1003.8823,1,3
61.2,-8.711764,4.6955013,0.27206084,1003.84424,1,3
61.24,-8.530134,4.7479334,-0.04040999,1003.88495,1,3
61.28,-8.520575,4.843265,-0.24398947,1003.8598599999999,1,3
61.32,-8.487117,4.8718642999999995,0.040074684,1003.89026,1,3
61.36,-8.630513,4.91953,-0.059347924,1003.87714,1,3
61.4,-8.706991,4.8241982000000005,-0.13983294,1003.8823,1,3
61.44,-8.53014,4.9004636,-0.13509862,1003.8897,1,3
61.48,-8.487122,4.819432,-0.13036433,1003.9378,1,3
61.52,-8.625738,4.6716690000000005,-0.049879572999999996,1003.8977699999999,1,3
61.56,-8.468005999999999,4.5525044999999995,0.21051258,1003.93286,1,3
61.6,-8.487125,4.6764355,0.22945008,1003.93585,1,3
61.64,-8.549265,4.7622333,0.02113615,1003.918,1,3
61.68,-8.386753,4.8051330000000005,-0.19191217,1003.9228,1,3
61.72,-8.396313000000001,4.724101,-0.16824028,1003.913,1,3
61.76,-8.745241,4.509606,0.049542225999999995,1003.93286,1,3
61.8,-8.606627,4.5525044999999995,-0.11616204,1003.9530599999999,1,3
61.84,-8.477574,4.595404,0.10635486,1003.93835,1,3
61.88,-8.530154,4.7765336,-0.12089666,1003.9408599999999,1,3
61.92,-8.563613,4.886164,-0.040411904,1003.9731400000001,1,3
61.96,-8.458458,4.995794999999998,-0.25346023,1003.93835,1,3
62.0,-8.697451,4.800366,-0.21558511,1003.93585,1,3
62.04,-8.721351,4.8098993,-0.012005833,1003.97845,1,3
62.08,-8.520599,4.743167400000001,-0.049881168,1003.9814,1,3
62.12,-8.444123,4.757467299999999,-0.016740479,1004.00903,1,3
62.16,-8.472804,4.7622337,0.21997967,1003.9864,1,3
62.2,-8.530164,4.552505,-0.18244483,1003.9635599999999,1,3
62.24,-8.6162,4.657369,-0.0025375746,1004.0039999999999,1,3
62.28,-8.506267,4.7813,-0.01200651,1004.00397,1,3
62.32,-8.386773,4.843266000000002,-0.14456993,1004.00146,1,3
62.36,-8.49193,4.6526027,0.044806122999999996,1004.02155,1,3
62.4,-8.597087,4.5620384000000005,0.092150055,1004.0266,1,3
62.44,-8.606647500000001,4.666903,0.32413575,1004.0165400000001,1,3
62.48,-8.472814,4.7908335,-0.22505529999999999,1004.0395,1,3
62.52,-8.692687,4.7574677,0.059008896,1004.04443,1,3
62.56,-8.429799000000001,4.971963,-0.23452431,1004.0165400000001,1,3
62.6,-8.826524000000003,4.6764364,0.16316555,1004.03937,1,3
62.64,-8.797846,4.6383038,-0.030945148,1004.0395,1,3
62.68,-8.5970955,4.6955023,0.27679104,1004.0295,1,3
62.72,-8.563638000000001,4.690736,0.21050926,1004.05206,1,3
62.76,-8.630556,4.5143733,0.09214902,1004.0545699999999,1,3
62.8,-8.640118,4.471474,0.17263377,1004.05707,1,3
62.84,-8.520622999999999,4.528673,0.15843049,1004.0545699999999,1,3
62.88,-8.343772,4.7574677,-0.18718119,1004.0622599999999,1,3
62.92,-8.42503,4.7527013,-0.15404047,1004.0671,1,3
62.96,-8.563645,4.7431684,0.18683656,1004.0724,1,3
63.0,-8.616224,4.690736,0.14422679,1004.09015,1,3
63.04,-8.644905,4.6240044000000005,-0.06408714,1004.0774,1,3
63.08,-8.558580000000001,4.6954956,0.05903375,1004.08014,1,3
63.12,-8.592030000000001,4.6907287,0.12531628,1004.095,1,3
63.16,-8.400826,4.9290566,-0.03565255,1004.0980000000001,1,3
63.2,-8.596789,4.7765265,0.0069579407999999995,1004.09546,1,3
63.24,-8.668477000000001,4.800358999999999,0.025896508,1004.1003,1,3
63.28,-8.525072999999999,4.8670907,0.011694178000000001,1004.13544,1,3
63.32,-8.448586,4.9290557,-0.14454025,1004.12317,1,3
63.36,-8.725802999999999,4.8432574,0.18686901,1004.1307,1,3
63.4,-8.338631,5.0625186,-0.011975086000000001,1004.1257,1,3
63.44,-8.262143,5.038686,-0.035646163,1004.1358,1,3
63.48,-8.591939,4.9338207,-0.054582857,1004.1283599999999,1,3
63.52,-8.362499,4.8956885,-0.35758382,1004.1311599999999,1,3
63.56,-8.36249,4.595395,0.049575827999999995,1004.1432,1,3
63.6,-8.649268,4.3618336,0.46147,1004.1486,1,3
63.64,-8.577558999999999,4.3904324,0.13953137,1004.1609,1,3
63.68,-8.481955000000001,4.76699,-0.07351596,1004.13104,1,3
63.72,-8.486724,4.8241887000000006,-0.10192144,1004.1562,1,3
63.76,-8.658787,4.862321,-0.12085814,1004.1588,1,3
63.8,-8.539283,4.676425,-0.021434747,1004.1436,1,3
63.84,-8.763923,4.5381947,0.26736483,1004.1637,1,3
63.88,-8.653977000000001,4.6859574,0.16320883,1004.1714,1,3
63.92,-8.711325,4.9290519999999995,0.016443253,1004.1737,1,3
63.96,-8.419746,5.010083,-0.2581513,1004.1588,1,3
64.0,-8.419737,4.9290514000000005,-0.13505585,1004.1739,1,3
64.04,-8.725635,4.8098874,0.06378998,1004.19916,1,3
64.08,-8.373201,4.643089,-0.09729621,1004.1944,1,3
64.12,-8.502294000000001,4.585891200000002,0.10154532,1004.1915,1,3
64.16,-8.440197999999999,4.6716904999999995,0.17729208,1004.19934,1,3
64.2,-8.473696,4.747955999999999,-0.04049425,1004.202,1,3
64.24,-8.602789,4.628793,-0.021560118,1004.2171,1,3
64.28,-8.559814,4.705058999999999,-0.031032882999999997,1004.2398699999999,1,3
64.32,-8.521614,4.833757,0.021042086,1004.2096,1,3
64.36,-8.368698,4.8480573,0.016304217,1004.2323,1,3
64.4,-8.579049000000001,4.7813272000000016,-0.06418438,1004.26276,1,3
64.44,-8.908896,4.647864299999998,0.229345,1004.2524,1,3
64.48,-8.29712,4.9910574,0.07784058,1004.2502,1,3
64.52,-8.536153,4.8909607,-0.45715114,1004.26276,1,3
64.56,-8.464502,4.843296,-0.08313730000000001,1004.2453,1,3
64.6,-8.440634,4.9290949999999984,-0.097343326,1004.2555,1,3
64.64,-8.674887,4.8242316,-0.28672343,1004.26276,1,3
64.68,-8.593671,4.833766000000002,0.09202521,1004.29065,1,3
64.72,-8.498116,4.8242335,-0.08788588,1004.2756,1,3
64.76,-8.952235,4.724137000000002,0.01626755,1004.28314,1,3
64.8,-8.273543,5.0148980000000005,-0.17784674,1004.30566,1,3
64.84,-8.737222000000001,4.800403599999999,-0.15891264,1004.29846,1,3
64.88,-8.589091999999999,4.733672599999999,-0.07369731,1004.2707,1,3
64.92,-8.555669,4.833771700000002,0.08726922,1004.3138,1,3
64.96,-8.985891,4.814706299999999,-0.14472032,1004.31354,1,3
65.0,-8.847321,4.857606400000001,0.106199175,1004.3088,1,3
65.04,-8.689622,5.043503299999999,-0.11158667,1004.30066,1,3
65.08,-8.516664,5.091147,-0.102036886,1004.3367,1,3
65.12,-8.884713,4.890951599999998,-0.1872566,1004.3290400000001,1,3
65.16,-9.152387,4.8480525000000005,-0.07836567,1004.35425,1,3
65.2,-9.224086999999999,4.8814187,-0.031021927,1004.3216,1,3
65.24,-8.669634,5.14358,-0.2914145,1004.3216,1,3
65.28,-8.7795725,5.1102137999999995,-0.3861029,1004.3393,1,3
65.32,-9.047246000000001,5.0053496,-0.14938307,1004.3265,1,3
65.36,-8.903855,5.0911474000000005,-0.03575769,1004.36194,1,3
65.4,-8.927758,5.024416,-0.10677412,1004.3517,1,3
65.44,-9.028137,4.948151,-0.14938408,1004.3266,1,3
65.48,-8.827391,4.9910502,-0.3150886,1004.34186,1,3
65.52,-9.047265,5.033949400000001,-0.14938478,1004.3668,1,3
65.56,-8.899094999999997,5.1912456,-0.27721405,1004.3747599999999,1,3
65.6,-8.875199,5.200779,-0.30562076,1004.3393599999999,1,3
65.64,-8.856083,5.1531134000000005,-0.13991693,1004.3597,1,3
65.68,-9.004261,5.0577825999999995,-0.03102602,1004.3773,1,3
65.72,-8.927788,4.952918,-0.15412092,1004.3544300000001,1,3
65.76,-9.166780000000001,4.9910507000000015,-0.10204272,1004.3601,1,3
65.8,-8.937356,5.124514,-0.078371145,1004.3726,1,3
65.84,-9.071194,5.234145,-0.20620038,1004.4027,1,3
65.88,-9.090316,5.1149817,-0.267748,1004.3802,1,3
65.92,-9.138117999999999,5.238912,-0.083106525,1004.40027,1,3
65.96,-9.004287,5.157881,-0.035762817,1004.4003,1,3
66.0,-8.827438,5.18648,-0.1777953,1004.3701,1,3
66.04,-8.994735,5.119748,-0.19673324,1004.4028,1,3
66.08,-9.205503,4.9243307000000005,-0.12575895,1004.3927,1,3
66.12,-9.081249,4.8909655,-0.22518343,1004.4105,1,3
66.16,-8.861399,5.0673285,-0.18731,1004.3852,1,3
66.2,-8.679788,5.1006947,-0.29620332,1004.4181,1,3
66.24,-9.138668,4.995831,-0.24412668,1004.40814,1,3
66.28,-9.17215,4.886201,-0.13050309,1004.4081,1,3
66.32,-8.832805,5.0196652,-0.22045861,1004.398,1,3
66.36,-9.014458,4.9005017,-0.20625736,1004.40814,1,3
66.4,-8.966682,4.9338684,-0.29147863,1004.3905,1,3
66.44,-8.689473,5.0768657,-0.28201166,1004.4132699999999,1,3
66.48,-9.162696,4.886204,-0.25360720000000003,1004.4183300000001,1,3
66.52,-8.909382,4.943403,-0.29148394,1004.3879,1,3
66.56,-8.832925999999997,4.8766713,-0.11631283,1004.4309,1,3
66.6,-8.871192,4.910038,-0.15892492,1004.4209599999999,1,3
66.64,-8.742158,5.167433,-0.15419249,1004.4060000000001,1,3
66.68,-8.732617999999999,5.153133,-0.39564902,1004.4186,1,3
66.72,-8.938169,4.9910707,-0.24888407,1004.4286,1,3
66.76,-8.498452,5.0768695,-0.23468316,1004.4237699999999,1,3
66.8,-8.756583000000001,4.871908,-0.26782602,1004.4134,1,3
66.84,-8.617989999999999,4.96724,-0.37198487,1004.43604,1,3
66.88,-8.761405,4.9291077,0.0020311475,1004.4261,1,3
66.92,-8.608473,4.9243417,-0.1589406,1004.39594,1,3
66.96,-8.579814,4.976774,-0.17314565,1004.4211,0,0
67.0,-8.670651,4.8862104,-0.28203893,1004.4261,0,0
67.04,-8.618095,4.8004127,-0.14474306,1004.4339,0,0
67.08,-8.626386,4.786081299999998,-0.1304237,1004.4163,0,0
67.12,-8.831888000000003,4.647851,-0.16356188,1004.4213,0,0
67.16,-8.420798,4.8957120000000005,-0.23930985,1004.4263,0,0
67.2,-8.382529,4.8623447,-0.1682911,1004.4237699999999,0,0
67.24,-8.688412,4.7527137,-0.04519426,1004.4264,0,0
67.28,-8.544988,4.7956114,-0.19195798,1004.4237699999999,0,0
67.32,-8.654895,4.8146772,0.0068895295,1004.44385,0,0
67.36,-8.368076,4.9529065999999995,-0.14460859,1004.4087,0,0
67.4,-8.32981,5.005338,-0.14460608,1004.4163,0,0
67.44,-8.607009,4.657378,-0.05938412,1004.4314,0,0
67.48,-8.626101,4.7622423,-0.02150637,1004.4267,0,0
67.52,-8.487455,4.7336415999999994,-0.22981738,1004.4138,0,0
67.56,-8.7073,4.762241,-0.12092355,1004.4342,0,0
67.6,-8.200612,4.8146724999999995,-0.13038972,1004.4313,0,0
67.64,-8.850636,4.6859746,0.08266118,1004.4316,0,0
67.68,-8.343947,4.948135,0.04478863,1004.4367,0,0
67.72,-8.277004,5.195995,-0.11144439,1004.4314,0,0
67.76,-8.377352,5.138795,-0.21559866,1004.4137,0,0
67.8,-8.1622305,5.067296499999999,-0.15878312,1004.4142,0,0
67.84,-8.764456,4.7717686,-0.10670185,1004.44434,0,0
67.88,-8.506317999999998,4.752701999999998,-0.2866067,1004.44135,0,0
67.92,-8.276858,4.8909316,-0.12563428,1004.4667400000001,0,0
67.96,-8.477584,4.93383,-0.30080473,1004.44714,0,0
68.0,-8.582707000000001,4.895696599999999,-0.34814596,1004.45966,0,0
68.04,-8.510983,4.938594999999999,-0.054610364,1004.4392,0,0
68.08,-8.436734,4.7527537,-0.11162704,1004.4392,0,0
68.12,-8.460688000000001,4.8766856,0.01619675,1004.4393,0,0
68.16,-8.150057,5.014917400000002,-0.37202954,1004.42163,0,0
68.2,-8.733255999999999,4.886221400000001,-0.20633116,1004.4191,0,0
68.24,-8.432188,4.9910879999999995,-0.39097846,1004.4392,0,0
68.28,-8.307969,4.9529559999999995,-0.24421698,1004.4241300000001,0,0
68.32,-8.303253,4.9529575999999995,-0.21581635,1004.45416,0,0
68.36,-8.666571000000001,4.605,-0.24422759,1004.45166,0,0
68.4,-8.418083,4.8337965,-0.11167004,1004.4442,0,0
68.44,-8.384681,4.8337984,-0.12587836,1004.4241300000001,0,0
68.48,-8.628514,4.9195980000000015,-0.3294636,1004.42676,0,0
68.52,-8.207947,5.1483940000000015,0.044549285999999994,1004.4341,0,0
68.56,-8.403979,4.900534599999999,-0.48570952,1004.4141,0,0
68.6,-8.499628,4.8290370000000005,-0.27740046,1004.42664,0,0
68.64,-8.384975,4.7813735,-0.31054709999999996,1004.4317,0,0
68.68,-8.504526,4.7766085,-0.22059856,1004.4417,0,0
68.72,-8.600186,4.8624077,-0.21113555,1004.4295,0,0
68.76,-8.294334,4.938674,-0.007561246,1004.4316,0,0
68.8,-8.332636,5.243735,-0.1401304,1004.452,0,0
68.84,-8.356591,5.1579385,-0.40999654,1004.4218,0,0
68.88,-8.313633,5.043543,-0.51415896,1004.45734,0,0
68.92,-8.265891,4.919614,-0.34372544,1004.4495,0,0
68.96,-8.50972,4.9482145,-0.44788787,1004.4472,0,0
69.0,-8.442863000000001,4.9100833,-0.2443139,1004.4396,0,0
69.04,-8.614995,4.900551999999999,-0.0786152,1004.4446,0,0
69.08,-8.169081,5.1245456,-0.17791016,1004.4399,0,0
69.12,-8.384172999999999,5.067347,-0.21578561,1004.4497,0,0
69.16,-8.255121,5.086412999999999,-0.22998907,1004.4295,0,0
69.2,-8.350719999999999,4.962483,-0.15897323,1004.4321,0,0
69.24,-8.728327,4.8814519999999995,-0.11636381,1004.4145,0,0
69.28,-8.154753999999999,5.2389436,-0.34834987,1004.43976,0,0
69.32,-8.355507000000001,5.200811,-0.91174424,1004.43756,0,0
69.36,-8.494124000000001,5.2484765,-0.24419342,1004.4449,0,0
69.4,-8.130861,5.1531453,-0.13056794,1004.45984,0,0
69.44,-8.446330999999999,4.929117,-0.021676859,1004.4423,0,0
69.48,-8.116528,5.010149,-0.0074738953,1004.4472,0,0
69.52,-8.326839999999999,4.9005184,-0.16844387,1004.4501,0,0
69.56,-8.7092285,4.8194870000000005,-0.27260100000000004,1004.4373,0,0
69.6,-8.216909,5.0864139999999995,-0.40516454,1004.4751,0,0
69.64,-8.350748,4.962484,-0.5282593000000001,1004.4198,0,0
69.68,-8.508483,4.852853,-0.36255533,1004.45026,0,0
69.72,-8.479807000000001,4.9243510000000015,-0.64188546,1004.4401,0,0
69.76,-8.728359,4.8099537,-0.37675905,1004.4554,0,0
69.8,-8.350758,4.852853,-0.40043125,1004.4275,0,0
69.84,-8.317302,4.762289,-0.27733696,1004.4633,0,0
69.88,-8.618432,4.628825,0.063539915,1004.4401,0,0
69.92,-8.527617,4.657424400000001,-0.40990075,1004.4730000000001,0,0
69.96,-8.498941,4.876686,-0.52352667,1004.4352,0,0
70.0,-8.3125305,4.972017299999999,-0.43357328,1004.443,0,0
70.04,-8.350773,4.9481845,-0.38149506,1004.45026,0,0
70.08,-8.364696499999999,4.85761,-0.15893991,1004.4580000000001,0,0
70.12,-8.579774,4.8671427000000005,-0.11632906,1004.4706,0,0
70.16,-8.388567,4.9100413,-0.3388448,1004.45074,0,0
70.2,-8.469811,5.0292044,-0.10685779,1004.4735,0,0
70.24,-8.445897,4.857609,-0.25362298,1004.47064,0,0
70.28,-8.32639,5.0911694,-0.1115897,1004.4282,0,0
70.32,-8.297697,4.9910717,-0.1826045,1004.4607,0,0
70.36,-8.412398,4.905273,-0.30569777,1004.4559300000001,0,0
70.4,-8.479301,4.833774,-0.03583541,1004.4409,0,0
70.44,-8.493627,4.86714,-0.23467913,1004.42566,0,0
70.48,-8.268963000000001,5.172199,-0.054770455,1004.4484,0,0
70.52,-8.273728,5.0578012,-0.3293647,1004.46375,0,0
70.56,-8.388431,5.1388326,-0.35776988,1004.4459,0,0
70.6,-8.479234,4.8862046999999995,-0.07843876,1004.4334,0,0
70.64,-8.574816,4.8099394,0.016250618,1004.4685,0,0
70.68,-8.264113,5.0053678,-0.13524905,1004.4512300000001,0,0
70.72,-8.268881,4.967235,-0.38617134,1004.44116,0,0
70.76,-8.340565,5.0292,-0.40037328,1004.45154,0,0
70.8,-8.656017,4.910036,-0.29621515,1004.45905,0,0
70.84,-8.373994999999999,5.033965599999998,-0.17785364,1004.45654,0,0
70.88,-8.345302,4.995833,-0.0926331,1004.4569,0,0
70.92,-8.340508,4.9863,0.17722918,1004.4616,0,0
70.96,-8.2018795,5.0053654000000005,-0.29621002,1004.4540400000001,0,0
71.0,-8.522115,5.0673304,-0.121035844,1004.4568,0,0
71.04,-8.479083000000001,4.9576993,-0.16364431,1004.4519,0,0
71.08,-8.542619,4.7623053,-0.01227133,1004.4519,0,0
71.12,-8.394489,4.686041,0.18656962,1004.4667,0,0
71.16,-8.523585,4.5811777000000005,0.16289376,1004.4544,0,0
71.2,-8.705257000000001,4.738476,0.07767089,1004.4594,0,0
71.24,-8.342033,5.1674666,-0.15905319,1004.44434,0,0
71.28,-8.428111999999999,5.2389660000000005,-0.29162034,1004.4624,0,0
71.32,-8.499846,5.2532663,-0.08330988,1004.4498,0,0
71.36,-7.8737364,5.4915949999999984,-0.13065803,1004.48236,0,0
71.4,-8.47603,5.091205599999999,-0.18274008,1004.4799,0,0
71.44,-8.413938,4.857645,-0.12119687,1004.4672,0,0
71.48,-8.480895,4.8385796999999995,-0.088059634,1004.4368,0,0
71.52,-8.586091999999999,4.8433475,-0.20642358,1004.4724,0,0
71.56,-8.132052,5.1150427,-0.34372512,1004.4498,0,0
71.6,-8.265926,5.1484094,-0.13068053,1004.4524,0,0
71.64,-8.3759,5.0054135,-0.3200603,1004.4448,0,0
71.68,-8.514557,4.967282,-0.07387511,1004.46765,0,0
71.72,-8.3377495,4.9386835,-0.21117689,1004.4703,0,0
71.76,-8.414261999999999,4.957751,-0.3295404000000001,1004.4501300000001,0,0
71.8,-8.170537,5.1579475,-0.41476372,1004.4576400000001,0,0
71.84,-8.586418,5.029251,-0.35322005,1004.4555,0,0
71.88,-8.337911,5.1865487,-0.10703485,1004.4577,0,0
71.92,-8.189776,5.067386,-0.09283522,1004.46295,0,0
71.96,-8.342772,5.138885,0.30485097,1004.46277,0,0
72.0,-8.185081,5.076921,-0.187531,1004.4757699999999,0,0
72.04,-8.586625999999999,5.048322,-0.38164544,1004.4683,0,0
72.08,-8.208099,5.1197987000000005,-0.74611026,1004.4709,0,0
72.12,-8.485332000000001,4.876704,-0.15430991,1004.4482,0,0
72.16,-8.485336,4.752774,0.09187873,1004.4457,0,0
72.2,-8.303706,4.8719377999999995,0.120284855,1004.4432400000001,0,0
72.24,-8.499682,4.8624043,0.19130057,1004.4683,0,0
72.28,-8.346733,4.9768023,-0.35315630000000003,1004.45355,0,0
72.32,-8.580946,4.8957705,-0.17324926,1004.4585599999999,0,0
72.36,-8.499694,5.024468,-0.15431199999999998,1004.4331,0,0
72.4,-8.370642,5.1483984000000005,0.21497124,1004.45355,0,0
72.44,-8.279829,5.0959663,-0.021749336,1004.4739400000001,0,0
72.48,-8.36587,4.957736,0.1770953,1004.4536,0,0
72.52,-8.456691000000001,4.9815693,-0.08803172,1004.4586,0,0
72.56,-8.5905285,4.848106,-0.30581465,1004.45386,0,0
72.6,-8.619211,4.910071,-0.11170441,1004.4741,0,0
72.64,-8.117335,5.1436324,-0.021751074,1004.44104,0,0
72.68,-8.222495,5.1626983,-0.050157823,1004.4717400000001,0,0
72.72,-8.41847,5.034002,-0.16378388,1004.45636,0,0
72.76,-8.451932000000001,4.8814720000000005,-0.23953466,1004.4541,0,0
72.8,-8.714825,4.767075,-0.026486807999999997,1004.4868,0,0
72.84,-8.337226,4.862406,-0.17798814,1004.4591,0,0
72.88,-8.480623,4.962504,-0.28214538,1004.45654,0,0
72.92,-8.404149,5.048301,-0.045425504000000005,1004.47424,0,0
72.96,-8.198622,5.1579328,-0.16378598,1004.4569,0,0
73.0,-8.332460000000001,5.100733999999999,-0.16378629,1004.45685,0,0
73.04,-8.389821000000001,5.0244694,-0.09750498,1004.4974,0,0
73.08,-8.337214999999999,4.8814720000000005,-0.21112809999999999,1004.4723,0,0
73.12,-8.51885,4.7861410000000015,-0.25373796,1004.4773,0,0
73.16,-8.442377,4.82904,-0.2916134,1004.4494,0,0
73.2,-8.480617,4.9386706,-0.1448471,1004.4748,0,0
73.24,-8.346786,4.957737,-0.14011297,1004.4901,0,0
73.28,-8.413705,4.9529705,0.0019189697,1004.4569,0,0
73.32,-8.394588,4.9482040000000005,-0.07383172,1004.4569,0,0
73.36,-8.456729,4.9005384,-0.14958242,1004.4544,0,0
73.4,-8.609683,4.8242736,-0.23480193,1004.4675,0,0
73.44,-8.590568,4.9577374,-0.25373979999999996,1004.4773,0,0
73.48,-8.236865,4.9720373,-0.19219275,1004.4497,0,0
73.52,-8.1699505,5.0673685,-0.22533382,1004.4675,0,0
73.56,-8.561896,4.8385735,-0.054895476,1004.4775400000001,0,0
73.6,-8.585797999999999,4.8385735,-0.04542692,1004.4776,0,0
73.64,-8.370708,4.957738,-0.25374097,1004.4549599999999,0,0
73.68,-8.4424095,4.914839,-0.2063971,1004.4672,0,0
73.72,-8.093486,5.0435360000000005,-0.08330281,1004.44244,0,0
73.76,-8.547569000000001,4.87194,0.025588278,1004.435,0,0
73.8,-8.514113,4.8576403,-0.13538176,1004.465,0,0
73.84,-8.475877,4.891006,-0.23007005,1004.4675,0,0
73.88,-8.447201,4.8814730000000015,-0.12117897,1004.44995,0,0
73.92,-8.428083,5.086435,-0.25374252,1004.4549599999999,0,0
73.96,-8.523683,4.938672,-0.021756906,1004.44495,0,0
74.0,-8.6001625,4.8528733,0.11080617,1004.49036,0,0
74.04,-8.275138,4.871940599999999,0.04925867,1004.45776,0,0
74.08,-8.438231,4.8862543,-0.040748112,1004.4476,0,0
74.12,-8.414355,4.991119,-0.14017281,1004.4753,0,0
74.16,-8.481299,5.014952,-0.1259719,1004.4602699999999,0,0
74.2,-8.361829,4.99112,-0.32955363,1004.4677,0,0
74.24,-8.390532499999999,4.9529886,0.087071806,1004.47504,0,0
74.28,-8.366660000000001,4.9434557,0.08706936,1004.455,0,0
74.32,-8.438381,4.8862575999999995,-0.03129293,1004.455,0,0
74.36,-8.476643,4.9100914000000015,-0.39110988,1004.4277,0,0
74.4,-8.280697,5.0673885,-0.1307201,1004.45276,0,0
74.44,-8.581849,4.9529915,-0.069175005,1004.47015,0,0
74.48,-8.409802,4.91486,-0.16386558,1004.47015,0,0
74.52,-8.4050455,4.9291596,0.11546227,1004.4677,0,0
74.56,-8.481547,4.986358999999998,0.016037453,1004.4476,0,0
74.6,-8.366857000000001,4.9577602999999995,-0.12599684,1004.4602699999999,0,0
74.64,-8.204369999999999,5.024493,-0.16387457,1004.47815,0,0
74.68,-8.548541,4.838598,-0.12126724,1004.44006,0,0
74.72,-8.596362,4.795699,-0.021846905,1004.4427,0,0
74.76,-8.352616000000001,4.867198999999999,-0.0076458864,1004.47064,0,0
74.8,-8.400441,4.876732,0.04916449,1004.4455,0,0
74.84,-8.448269,4.962530999999999,-0.09760479,1004.43744,0,0
74.88,-8.486527,5.010196700000002,-0.34852996,1004.4526400000001,0,0
74.92,-8.443533,5.014964,-0.25384408,1004.4377,0,0
74.96,-8.252366,5.1627279999999995,-0.21123673,1004.45557,0,0
75.0,-8.309749,5.0101986,-0.059738114,1004.48785,0,0
75.04,-8.510525999999999,4.9434676,0.17224538,1004.43756,0,0
75.08,-8.534258,4.781400700000002,-0.12600671,1004.45557,0,0
75.12,-8.524714,4.833833,-0.08813308,1004.4703400000001,0,0
75.16,-8.151909,5.0054297,-0.2680421,1004.4526400000001,0,0
75.2,-8.3478985,5.105528,-0.040792316,1004.4575,0,0
75.24,-8.453075,5.0721620000000005,-0.28698325,1004.45514,0,0
75.28,-8.443529,5.0197306,-0.2727813,1004.4758,0,0
75.32,-8.290592,5.053097,0.11543827,1004.4682,0,0
75.36,-8.328847999999999,5.0578637,-0.11654905,1004.45526,0,0
75.4,-8.371883,5.005432,-0.20650439,1004.4501300000001,0,0
75.44,-8.357561,4.972067,0.36635697,1004.4806,0,0
75.48,-8.238085,4.962534,-0.11655394,1004.4602699999999,0,0
75.52,-8.553573,4.876736,-0.055008594,1004.45776,0,0
75.56,-8.33372,5.1007648,0.0065370053,1004.4753,0,0
75.6,-8.615742,4.967302,-0.040808252999999996,1004.4580000000001,0,0
75.64,-8.271616999999999,5.234229599999999,-0.026606937999999997,1004.44775,0,0
75.68,-8.214276,5.2199306,0.072813906,1004.4628,0,0
75.72,-8.276433,5.115067,0.034936953,1004.4706,0,0
75.76,-8.3816,5.005436,0.10121751,1004.4427,0,0
75.8,-8.477214,4.9673038,0.0065278746,1004.44006,0,0
75.84,-8.3290615,5.062636,-0.040818207,1004.4501300000001,0,0
75.88,-8.448576,5.034036599999999,-0.097632766,1004.44006,0,0
75.92,-8.333872999999999,5.0721693,0.06333588,1004.4277,0,0
75.96,-8.424711,5.029271,0.13434991,1004.45557,0,0
76.0,-8.324353,5.034038,0.011253774,1004.4451,0,0
76.04,-8.467765,5.1293697,-0.13551444,1004.4403,0,0
76.08,-8.171919,5.1579814000000015,-0.22077960000000002,1004.4628,0,0
76.12,-8.253209,5.1436825,0.16743843,1004.4352,0,0
76.16,-8.444442,4.876755999999999,-0.0124725355,1004.4451,0,0
76.2,-8.673905,4.857691,0.034868363,1004.45026,0,0
76.24,-8.138602,5.1961174,-0.13083896,1004.47015,0,0
76.28,-8.234238000000001,5.2008843,-0.13557696,1004.4403,0,0
76.32,-8.358546,5.1055546,-0.08823604,1004.4575,0,0
76.36,-8.334682,4.9434924,-0.12611443,1004.4753,0,0
76.4,-8.60239,4.838629,0.1106022,1004.4452,0,0
76.44,-8.444692,4.871996,-0.012495478,1004.4501300000001,0,0
76.48,-8.157943,5.1246243,0.0159074,1004.4577,0,0
76.52,-8.143636,5.2485557,0.053779654,1004.45526,0,0
76.56,-8.468689,5.081727,-0.14980224,1004.4426,0,0
76.6,-8.468735,4.9530306,-0.29657298,1004.39984,0,0
76.64,-8.444872,4.905366000000001,-0.08826234,1004.46265,0,0
76.68,-8.440119000000001,4.9053664,-0.05985845,1004.4653,0,0
76.72,-8.411488,4.9578,-0.13087896,1004.42755,0,0
76.76,-8.253791,5.015,-0.102475904,1004.4575,0,0
76.8,-8.311183,5.0674324,-0.11194785,1004.4725300000001,0,0
76.84,-8.387697,4.9816356,-0.19717051,1004.4248699999999,0,0
76.88,-8.339933,4.953037,0.07268739,1004.4599599999999,0,0
76.92,-8.502486,4.872006400000001,-0.031473078,1004.44495,0,0
76.96,-8.383025,4.905373,-0.35815015,1004.4577,0,0
77.0,-8.473877,5.015005,-0.12616748,1004.45526,0,0
77.04,-8.335301,5.0054727,-0.031482976,1004.4678,0,0
77.08,-8.204377000000001,5.091225,0.049172886,1004.45026,0,0
77.12,-8.424211,4.991126,-0.08812136,1004.4577,0,0
77.16,-8.424175,5.0006585,0.025507613999999998,1004.44775,0,0
77.2,-8.261621,5.010191000000002,-0.01709833,1004.45026,0,0
77.24,-8.5913925,5.014956,0.08232745,1004.4424,0,0
77.28,-8.247209,5.0483212,0.030252475,1004.465,0,0
77.32,-8.371447,5.1198190000000015,0.14861587,1004.44995,0,0
77.36,-8.634298,5.038787,0.08233766,1004.4325,0,0
77.4,-8.251877,5.0959845,-0.07389419,1004.44995,0,0
77.44,-8.361774,5.005419,-0.026546652999999996,1004.4852,0,0
77.48,-8.333057,5.0149508,0.12022336,1004.435,0,0
77.52,-8.232646,5.0721483,0.0066009127,1004.44495,0,0
77.56,-8.677132,5.0006495000000015,0.23859,1004.4526,0,0
77.6,-8.390305499999998,4.91485,0.21018706,1004.4901,0,0
77.64,-8.777429,4.614556299999999,-0.23010887,1004.47015,0,0
77.68,-8.624441000000001,4.714653,0.087099284,1004.4399400000001,0,0
77.72,-8.504909,4.671753400000001,0.124978006,1004.46,0,0
77.76,-8.978071,4.4238915,0.23387280000000002,1004.4625,0,0
77.8,-8.151128,4.891013,0.43745568,1004.4575,0,0
77.84,-8.748563,4.7241826,0.6268355999999999,1004.45245,0,0
77.88,-9.001856,4.7289486,1.1097481000000002,1004.465,0,0
77.92,-7.816427,4.509685500000002,0.7120616,1004.4826,0,0
77.96,-8.853609,3.9901303999999995,0.4706102,1004.4497,1,4
78.0,-8.437725,3.8518993999999998,0.5368956,1004.43744,1,4
78.04,-7.888012,3.9043307,1.1381683,1004.4722,1,4
78.08,-8.008147,4.0425763,1.0197495,1004.43964,1,4
78.12,-8.796803,4.3762345,1.1523139999999998,1004.47015,1,4
78.16,-8.256675,4.833824,0.8540475000000001,1004.4700300000001,1,4
78.2,-9.203064999999999,4.8576565,1.0907687,1004.44495,1,4
78.24,-9.289089,5.029252,0.17702965,1004.4296,1,4
78.28,-8.99273,5.1102834,-0.38636348,1004.4399400000001,1,4
78.32,-9.183911,4.814757,-0.10229826,1004.47473,1,4
78.36,-9.026167,4.585962,-0.7035666,1004.4522,1,4
78.4,-8.313965,4.4667974,-0.70829993,1004.4572,1,4
78.44,-8.524264,4.242769,-1.0349728,1004.46234,1,4
78.48,-8.538592,3.9281763999999995,-1.1628007,1004.44995,1,4
78.52,-8.58638,4.228469400000002,-1.0917838,1004.4468400000001,1,4
78.56,-8.385617,4.0378065,-0.79351515,1004.4723,1,4
78.6,-7.7020940000000016,4.5144614999999995,-0.036009345,1004.4497,1,4
78.64,-8.643703,4.4000645,-0.06441474,1004.4647,1,4
78.68,-9.312866,4.6717577000000015,-0.07388256,1004.4321,1,4
78.72,-9.327194,5.315243,-0.021803055,1004.4272,1,4
78.76,-9.943777,5.3486080000000005,-0.06914606,1004.46234,1,4
78.8,-9.671317,5.6441339999999975,0.115496755,1004.46466,1,4
78.84,-9.762122,5.8967614,1.4079903,1004.4698,1,4
78.88,-8.753572,5.6250677000000024,1.8009468000000002,1004.462,1,4
78.92,-7.960114999999999,5.429639,1.4079924,1004.4723,1,4
78.96,-7.491681599999999,5.78713,1.8766993000000003,1004.4625,1,4
79.0,-6.827278,5.8633942999999995,1.8198876,1004.4672,1,4
79.04,-7.2431097000000015,5.46777,1.1286656000000002,1004.4672,1,4
79.08,-8.022463,4.6574607000000015,1.081299,1004.4569,1,4
79.12,-7.8073716,4.309503,1.256472,1004.4569,1,4
79.16,-7.6161785,4.247537599999999,0.76409405,1004.43427,1,4
79.2,-7.2863703,4.4000673,-0.26800609999999997,1004.45685,1,4
79.24,-7.730890799999999,4.7480254,-0.1969899,1004.4441,1,4
79.28,-7.941200999999999,5.5297410000000005,-0.0028791707,1004.47455,1,4
79.32,-7.7165490000000005,6.2256584,-0.41950667,1004.4192,1,4
79.36,-8.175408000000001,6.811945,0.7356882,1004.4644,1,4
79.4,-7.988995599999999,7.493562700000001,0.68834424,1004.4723,1,4
79.44,-9.633246,6.2351913,0.508437,1004.4949,1,4
79.48,-10.598765,5.9205985,0.077606276,1004.4692,1,4
79.52,-8.705962,6.511652,-0.7982584,1004.45166,1,4
79.56,-6.975672,6.626049000000001,-1.3995278,1004.4264,1,4
79.6,-7.119064999999999,5.8729334,0.27171722,1004.4943,1,4
79.64,-6.7318993,5.339079,0.86351794,1004.47186,1,4
79.68,-5.8954325,4.7527924000000015,-0.11176932,1004.46185,1,4
79.72,-6.7414565,4.390534,0.2243735,1004.4493,1,4
79.76,-7.138178999999999,4.9625205999999995,-0.45738068,1004.44916,1,4
79.8,-8.227972,4.800457,-1.2622293,1004.4343,1,4
79.84,-9.002299,5.262814,-1.5652311,1004.43396,1,4
79.88,-10.713469,5.1770153,-0.7651167,1004.4716,1,4
79.92,-9.39902,6.0016294000000014,-0.30114484,1004.4739400000001,1,4
79.96,-9.64757,5.6870365,-0.11650293,1004.45654,1,4
80.0,-10.589189999999999,4.7098923,1.157052,1004.4816,1,4
80.04,-8.438277000000001,4.771857700000001,-0.40530136,1004.4691,1,4
80.08,-8.38589,4.4954023,1.0623465,1004.42645,1,4
80.12,-8.142127,4.6479325,1.4505671,1004.4639,1,4
80.16,-7.267428999999999,4.7289639999999995,-0.25855353,1004.4413,1,4
80.2,-8.242516,4.423905,0.5604979,1004.4338,1,4
80.24,-8.00831,4.91486,1.7298953999999995,1004.4536,1,4
80.28,-6.1585335999999975,5.706109,0.48474628,1004.4639,1,4
80.32,-6.2302365,5.887238,1.1475624,1004.43146,1,4
80.36,-6.832498599999999,5.4725475,0.21014966,1004.42847,1,4
80.4,-7.477778,5.37245,-0.11652481599999999,1004.4415,1,4
80.44,-9.6812725,4.9720597,0.42793113,1004.4540400000001,1,4
80.48,-9.69084,5.7728410000000006,0.25275758,1004.4465,1,4
