Timestamp,Ax,Ay,Az,P,LPFRMSAcc,LPFPValue,Value,Type
0.0,-7.9943285,4.5365148,-0.6985189,1002.88544,0.01915989123332422,3.6103875839999997,0,0
0.04,-8.563211,4.474551,-0.6464483,1002.9566699999999,0.05614714827481028,10.39817266992,0,0
0.08,-8.443759,4.56035,-0.35765359999999996,1002.9789400000001,0.10858687030674853,19.969150334227198,0,0
0.12,-8.706736,4.541286,-0.1919573,1002.947,0.17494588398268515,31.964786457205825,0,0
0.16,-8.52041,4.5603546999999995,-0.5517799,1002.9498,0.25307000636831345,46.05967658422379,0,0
0.2,-8.520538,4.6509220000000004,-0.6133390000000001,1002.96783,0.34140579594051684,61.958790852753665,0,0
0.24,-8.640077,4.6795230000000005,-0.48551407,1002.9576400000001,0.43867796303352746,79.39484407735674,0,0
0.28,-8.396393,4.650925,-0.48078758,1002.9582,0.5430234545916874,98.1261687879375,0,0
0.32,-8.047553,4.684293299999998,-0.8122037,1002.9534,0.6526955076397329,117.93454533457016,0,0
0.36,-8.506501,4.465033999999998,-0.53761625,1002.9335,0.7672513307378362,138.62322308797027,0,0
0.4,-8.157618,4.4555016,-0.70332426,1002.94604,0.885085407076986,160.0153008917579,0,0
0.44,-8.04299,4.6461663,-0.9400525,1002.9566699999999,1.0054217289548075,181.95192976797435,0,0
0.48,-8.282065,3.7834218,-0.49029192,1002.9843,1.127083856742645,204.29085157583447,0,0
0.52,-8.984825,3.8024910000000003,-0.026332078999999998,1002.9619,1.2508052405178185,226.90473865958663,0,0
0.56,-7.799521,4.731971700000001,-0.34354509999999994,1003.0027,1.3745972211288688,249.6803219476156,0,0
0.6,-8.626555999999999,4.7510414,-0.121039905,1003.0002,1.4995022079773959,272.51677890190655,0,0
0.64,-7.9669867,4.693844,-0.064231,1002.9703,1.6236898183246145,295.3247049426712,0,0
0.68,-8.167824000000001,4.5460825,-1.1010735,1002.9757699999999,1.7471399366700784,318.0253322264972,0,0
0.72,-8.631553,4.546084400000002,-0.7554699,1002.9760000000001,1.870267977667568,340.5494288984704,0,0
0.76,-9.186095,4.3077583,0.19613756,1002.9838,1.9934229352086617,362.83648445379134,0,0
0.8,-7.900457,4.9560137000000015,-1.2952117,1002.9912,2.1146366591549386,384.8338837184395,0,0
0.84,-8.368921,4.722453,-1.0821675,1002.9745,2.2342274093117056,406.4960919272962,0,0
0.88,-7.2027350000000006,5.427906,-1.60296,1002.9815,2.3508938966504123,427.78416656970353,0,0
0.92,-9.176923,4.727225,-0.272604,1002.9696,2.4669804424762116,448.6649768840838,0,0
0.96,-8.630871,4.8654275,-0.61337537,1002.9798,2.5813057663327674,469.1107942410877,0,0
1.0,-7.9330387,5.2372190000000005,-1.2383186000000002,1002.998,2.692955439166248,489.0987123984682,0,0
1.04,-8.377597999999999,5.0131917,0.65543985,1003.003,2.8022521502647404,508.61009231769515,0,0
1.08,-7.4168954,5.475549,-0.50449276,1003.0210000000001,2.90792884377002,527.6302268819803,0,0
1.12,-7.770639,5.8235083,-0.39560497,1003.0061599999999,3.0110361064415967,546.1477711422077,0,0
1.16,-6.8768725,6.4097957999999995,-0.09734268,1003.0210000000001,3.1108423979495967,564.1546168744326,0,0
1.2,-7.096762700000001,6.1619353,-0.30565825,1003.00635,3.2073771340232744,581.6453320026785,0,0
1.24,-6.528004,6.762522,-1.2336049999999998,1003.00385,3.3008322512490222,598.617018554787,0,0
1.28,-7.866387,5.971275299999999,0.6270125,1003.01965,3.3920944891426728,615.0690502654329,0,0
1.32,-7.130354400000001,5.761547599999999,-1.1625976999999998,1002.98724,3.479728525891165,631.002570968004,0,0
1.36,-8.946719,4.7844050000000005,-1.2336171999999999,1003.0151,3.5658775945263765,646.4206749653109,0,0
1.4,-8.741205,4.789171700000002,-1.6265745,1003.0177,3.6501522092095913,661.3278609474563,0,0
1.44,-7.8999977,5.323027,-1.0537151000000002,1003.0081,3.7313968801938087,675.7298993418691,0,0
1.48,-8.268063,5.332561,-0.42877543,1002.9856599999999,3.810220095959209,689.6336612055412,0,0
1.52,-7.661103,5.44696,-0.6134241,1002.998,3.8857307937284737,703.0471368079425,0,0
1.56,-7.627663,5.532758,-0.5471441999999999,1002.9884,3.9580817112032487,715.9790723977153,0,0
1.6,-7.866672,5.4183617,-0.6655061,1003.0113,4.027663742497061,728.4390467042067,0,0
1.64,-8.550261500000001,5.170502,-0.47613686,1003.039,4.09543848713021,740.4372398332878,0,0
1.68,-8.535941000000001,5.1752696,-0.56135786,1002.9839999999999,4.161361211231746,751.9840116187436,0,0
1.72,-7.7998886,5.2134027000000005,-0.5424237,1003.01184,4.224161861467412,763.090439350545,0,0
1.76,-7.6804320000000015,5.318268,-0.8264915,1002.972,4.2839383613595805,773.7676525127027,0,0
1.8,-8.239706,5.2610703,-0.8359636999999999,1003.00226,4.341728039344528,784.0272826497397,0,0
1.84,-7.6900673,5.365935299999999,-0.6844663000000001,1003.0026,4.396702610139159,793.8810029812863,0,0
1.88,-7.651867,5.3611703,-0.36726472,1003.0003,4.448884243857401,803.3405797355083,0,0
1.92,-8.249399,5.075178,-0.34359792,1002.9927,4.499119667890817,812.417809388491,0,0
1.96,-8.083287,5.2182035,-0.9355065999999999,1003.0060000000001,4.547402636878945,821.124566996068,0,0
2.0,-8.064252999999999,5.294471,-0.5283555999999999,1002.97815,4.593775673347434,829.4725309169371,0,0
2.04,-7.8301277,5.7425294000000005,-0.22536145,1003.0139999999999,4.638400955346744,837.4735411261162,0,0
2.08,-7.342673,5.713932,-0.39580777,1002.9761,4.680489041517442,845.1390429588928,0,0
2.12,-7.2088804,5.7806644,-0.63726634,1002.99646,4.7200796367292615,852.480567079682,0,0
2.16,-7.328503599999999,5.713936,-0.8739982,1003.0095,4.757469547871225,859.5094419513248,0,0
2.2,-7.873442999999999,5.161016,-0.39109279999999996,1002.9996,4.79296431067549,866.2367203568832,0,0
2.24,-7.844892,5.1753197,-0.2064627,1002.9870599999999,4.826611327649891,872.67324477875,0,0
2.28,-7.8162556,5.2229857000000015,-0.4905309,1002.9973,4.858531631078549,878.8297243567081,0,0
2.32,-7.419617,5.4231834,-0.49527302,1002.99457,4.888375097137397,884.7165831561076,0,0
2.36,-8.117553,5.4946837,-0.07865325,1003.00494,4.917521107050867,890.3440496758949,0,0
2.4,-7.8356724,5.923677,0.053898428,1003.0249,4.945988092113162,895.7221301539461,0,0
2.44,-7.912192299999999,5.9856434,-0.20649770000000006,1003.06104,4.973961308906544,900.8606221397977,0,0
2.48,-7.8549185,6.247806,0.19591889999999998,1003.03815,5.001636991717283,905.7688327587928,0,0
2.52,-7.0759380000000025,6.4241714000000005,-0.23492359999999998,1003.03894,5.027955469384243,910.4559000478051,0,0
2.56,-6.746217,6.262111,-0.31068182,1003.0065300000001,5.052252225259907,914.9305749722046,0,0
2.6,-7.138245599999999,5.9856524,-0.50953454,1002.9992699999999,5.074924026434887,919.201445037504,0,0
2.64,-7.664109,5.766393,-0.6752465,1003.0118,5.096671244956278,923.2769031050676,0,0
2.68,-7.664109,5.766393,-0.6752465,1003.04205,5.117523212258287,927.1651323823883,0,0
2.72,-7.912787,5.5233016,-1.2007771999999999,1003.0399,5.137736388950368,930.8739209352524,0,0
2.76,-8.137522,5.5185375,-1.143972,1003.0249,5.157674745218637,934.4107500251964,0,0
2.8,-7.9750934,5.5709715,-0.48589763,1003.02,5.176969533456603,937.7828855089799,0,0
2.84,-7.243869,5.7759356,-0.4764366,1003.0028,5.194663125711987,940.9972961146187,0,0
2.88,-7.1101193,5.9237013,-0.42910033,1003.0054,5.210851984180575,944.0607784997487,0,0
2.92,-6.751761,6.281196,-0.79366106,1002.9873699999999,5.225635184923513,946.9798072646504,0,0
2.96,-6.7511470000000005,6.333613,-0.89776176,1003.0058,5.239215984177834,949.7607546551646,0,0
3.0,-7.6020103,6.133419,-0.67525005,1003.0109,5.252705189550946,952.4097002926643,0,0
3.04,-7.9557743,6.052389,-0.9451165000000001,1003.0489,5.266584062105592,954.9326097769058,0,0
3.08,-7.678603999999999,5.8331290000000005,-1.1865766000000002,1003.01855,5.280081380048563,957.3349619819844,0,0
3.12,-8.104094,5.4804059999999994,-0.7746913000000001,1003.0314300000001,5.293396987962572,959.6221876752572,0,0
3.16,-7.965509,5.427974,-0.7510220000000001,1003.02405,5.306201640430048,961.7994270022017,0,0
3.2,-7.296394999999999,5.556673,-0.992482,1003.0271,5.317587126550113,963.871655294282,0,0
3.24,-7.8031416,5.551908,-0.56639355,1002.99945,5.328443555321048,965.8435362741046,0,0
3.28,-7.8270693,5.6329410000000015,-0.6752875,1003.00684,5.338946183617716,967.7196782012892,0,0
3.32,-7.6550555,5.6281753,-0.8741379000000001,1003.0021,5.348837748859579,969.5044539266247,0,0
3.36,-7.602506,5.661542,-0.9262189000000001,1003.0397300000001,5.3581176507886585,971.2022087513956,0,0
3.4,-7.769858,5.790241,-0.6942384,1003.0274699999999,5.367220217847864,972.816915855058,0,0
3.44,-7.832053699999999,5.70921,-0.54274285,1003.02045,5.376117394760703,974.352403774776,0,0
3.48,-7.3589115000000005,5.747344,-0.45752892,1003.0057,5.384055456938971,975.8123127670494,0,0
3.52,-7.736574000000001,5.694913400000001,-0.3249709,1003.0282599999999,5.391665277288253,977.2002657626607,0,0
3.56,-7.7270727,5.775947,-0.43860194,1003.0131,5.399051441008347,978.5195872328377,0,0
3.6,-7.8036375,5.8093147000000025,-0.41020355,1003.0083,5.406379670758243,979.7734990498476,0,0
3.64,-8.243438000000001,5.837915,-0.093003795,1003.0035,5.414387899270596,980.9650835347784,0,0
3.68,-8.482457,5.790250299999999,-0.32025784,1003.02124,5.42332896840063,982.0973697489377,0,0
3.72,-7.942427,5.7187543,-0.50964206,1003.0239,5.432074869986519,983.1731933566726,0,0
3.76,-7.5170827000000005,5.7664212999999975,-0.27292717,1003.0068,5.4399469488455034,984.1951920803833,0,0
3.8,-6.7714915,5.818855,-0.57593447,1003.0448,5.445914325440698,985.1660887411646,0,0
3.84,-7.641503299999999,5.3517345999999995,-0.36762866,1003.0419999999999,5.450987197768939,986.0883263111627,0,0
3.88,-7.751467699999999,5.1849055,-0.23506796,1003.0423,5.455235273519119,986.964249733293,0,0
3.92,-7.92357,5.0895753,-0.30608672,1003.0346699999999,5.458933985167202,987.7960691820473,0,0
3.96,-8.473306,5.413703,-1.020987,1003.03,5.463556604341608,988.5859069979114,0,0
4.0,-8.199652,5.265909,-1.1818466,1003.01984,5.468375260391369,989.3357698508163,0,0
4.04,-7.879413599999999,5.075248,0.47045982,1003.01965,5.472451725033992,990.0476106361799,0,0
4.08,-8.147096000000001,5.161046,0.96283674,1003.0424,5.4764977098195375,990.7233743958374,0,0
4.12,-8.472127,5.0323496,0.6456312,1003.01245,5.480882435700753,991.3647199260457,0,0
4.16,-8.190127,5.2516108,-0.29178175,1002.9928,5.485256485201801,991.9732739248036,0,0
4.2,-8.448246000000001,5.4851722999999994,0.11537625,1002.99786,5.490311630378429,992.550680747977,0,0
4.24,-7.774302499999999,5.470873,-0.03139112,1003.0233,5.4947718697033165,993.0985788462403,0,0
4.28,-7.626137299999999,5.570971,-0.36753467,1003.0183,5.498576103306887,993.6184126020194,0,0
4.32,-7.941617999999999,5.489939700000001,-0.3864735,1003.0159,5.5022251543559335,994.1115686632584,0,0
4.36,-7.8938284,5.7521010000000015,-0.14975406,1003.0082,5.505944681356787,994.5793492317813,0,0
4.4,-7.8794937,5.6138706,0.001746476,1002.9957,5.509518571527656,995.022979004894,0,0
4.44,-6.7323494,5.4089084000000005,-0.21603698,1003.0341,5.510797437241533,995.4438103079988,0,0
4.48,-7.0526050000000025,5.0275846,-0.050333615,1002.9913,5.510090777397443,995.8428278103132,0,0
4.52,-7.7217816999999975,4.9131870000000015,0.1769174,1003.0116,5.508656380173632,996.2212072552412,0,0
4.56,-8.926300999999997,4.5366290000000005,-0.36280558,1003.0088,5.5083830375763405,996.5799786666603,0,0
4.6,-9.084044,4.6462603,-0.9262004999999999,1003.0188,5.50960571477908,996.9201688425908,0,0
4.64,-8.711229,5.1133833,-0.4764329000000001,1003.01184,5.511869571884175,997.2426908982094,0,0
4.68,-7.086108,5.971364,-0.8409833000000001,1002.9893,5.513366633013737,997.5483591793204,0,0
4.72,-6.9092592999999995,5.947531,-0.8504525,1003.0395,5.513871923192407,997.8382157794646,0,0
4.76,-7.5497627000000005,5.380311,-0.16396463,1003.0243,5.513740348199066,998.113002974546,0,0
4.8,-8.534410000000001,4.5890627,0.38995993,1003.0073,5.513931164333947,998.3734244094113,0,0
4.84,-8.873791,4.3698015,0.18164493,1003.01984,5.514811923850229,998.6202598853847,0,0
4.88,-8.046892999999999,4.646262,-0.46696934,1003.0044,5.51507415750171,998.8541466163672,0,0
4.92,-7.669297699999999,4.798792400000001,-0.42909497,1003.0148300000001,5.514276382882081,999.0757873920444,0,0
4.96,-8.024144999999999,4.922750499999999,-0.67065424,1002.9898,5.513335962175868,999.2857196268214,0,0
5.0,-8.306181,4.927518,-0.8363607,1003.0148300000001,5.5128054839384575,999.4846405468138,0,0
5.04,-8.631260000000001,4.8178883,-0.5570357,1003.0148300000001,5.513068570379383,999.6731157537506,0,0
5.08,-8.234589999999999,4.7177916,-0.012584096999999999,1003.02765,5.51317924801972,999.8517287698863,0,0
5.12,-8.965953,4.703493,0.1578496,1003.0098,5.514476113798549,1000.0209202873724,0,0
5.16,-8.95642,4.770226,0.06789348,1003.0028,5.516861642877375,1000.1811526791887,0,0
5.2,-8.636227,5.0562205,-0.4386927,1002.9927,5.519928939752544,1000.3328555909522,0,0
5.24,-8.688857,5.30885,-0.6990898,1002.99817,5.5239808849224055,1000.4764954156592,0,0
5.28,-8.053197,5.432780999999999,-0.71803236,1002.9703,5.527920882690031,1000.6123932612738,0,0
5.32,-7.675646,5.075291,-1.4992139,1002.9952,5.530879623889249,1000.7410507019183,0,0
5.36,-7.494067,4.798832,-1.5891726000000002,1003.0003,5.532371363677492,1000.8628657139448,0,0
5.4,-8.039043,4.217314,-0.33929699999999996,1003.0238,5.532654584535973,1000.9782808220014,0,0
5.44,-8.082088,4.088617299999999,-0.74172384,1002.9957,5.531875803310252,1001.0875243205207,0,0
5.48,-8.62226,4.121985,-0.89796406,1003.0138,5.531224030041724,1001.1909864682589,0,0
5.52,-8.330746000000001,4.450878599999999,-0.66598314,1002.9907,5.530415919659541,1001.2888845907144,0,0
5.56,-7.833699,4.822671400000001,-0.992662,1003.00366,5.529023518205311,1001.3815605631897,0,0
5.6,-7.652092999999999,4.984735,-1.1252277,1003.0038,5.527013739117214,1001.469289114441,0,0
5.64,-7.260228999999999,5.3088627,-1.1347038,1003.00635,5.524182846294439,1001.5523394815148,0,0
5.68,-7.5088058,5.051469,-1.073159,1002.9917,5.520735928274294,1001.6309044837276,0,0
5.72,-8.656011999999999,4.431818499999999,-0.85538125,1003.0088,5.518105794088706,1001.7052849435418,0,0
5.76,-9.167503,4.1458262999999995,-1.158388,1003.0166,5.516966916704472,1001.7757282520366,0,0
5.8,-8.522310000000001,4.5700517,-1.0921136,1003.0165400000001,5.516326681786604,1001.8424388817152,0,0
5.84,-8.297687,4.7416477,-0.8980055,1002.97864,5.515853389215285,1001.9054747181253,0,0
5.88,-8.0252905,4.984744,-0.9216825000000001,1003.01404,5.515307348395242,1001.9651640181917,0,0
5.92,-7.8581038,5.003813,-0.8222697,1003.01416,5.51440798989516,1002.0216818692653,0,0
5.96,-7.8581038,5.003813,-0.8222697,1003.0369,5.513199677583595,1002.075275827744,0,0
6.0,-8.837169,4.2316113,-1.163074,1002.98425,5.51279236737715,1002.1259037564764,0,0
6.04,-8.674674000000001,4.3603086,-1.1488725,1002.987,5.512906724762877,1002.1737385407808,0,0
6.08,-7.9864016000000015,4.7511663,-1.0967958,1002.9844400000001,5.51261009950167,1002.2189238814453,0,0
6.12,-7.9099345,4.89893,-1.0494527,1002.9998,5.511963474961141,1002.2616608024832,0,0
6.16,-7.938622500000001,5.0180945,-0.95476544,1002.99695,5.511169828072964,1002.3020701870237,0,0
6.2,-7.9912295,4.994262,-1.0825969,1002.9667400000001,5.510343559793241,1002.34016873053,0,0
6.24,-8.153752,4.9036984000000015,-1.0399882,1003.0019,5.509669992708851,1002.3762148361425,0,0
6.28,-8.517046,4.6653705,-0.7890674,1003.0173300000001,5.509490710909319,1002.4103731896512,0,0
6.32,-8.172918,4.7607026,-1.0352582000000001,1003.0299699999999,5.5092744044548105,1002.4427860593293,0,0
6.36,-7.986516,4.7988349999999995,-0.9973837999999999,1003.0044,5.508726301847405,1002.473447881163,0,0
6.4,-8.225534,4.693971599999999,-0.8932295,1002.9973,5.508182269405353,1002.502426534563,0,0
6.44,-8.297241,4.6367726,-0.73699504,1002.987,5.50768704926311,1002.5297765371828,0,0
6.48,-8.397646,4.679673,-0.98792106,1002.9948,5.507508356923712,1002.555617083964,0,0
6.52,-8.182573,4.727339,-0.9405788,1002.9719,5.507261912169462,1002.5799484095974,0,0
6.56,-7.9770603000000015,4.841737,-0.9737213,1003.0075699999999,5.506718366050099,1002.6029870066527,0,0
6.6,-8.211281,4.775005,-0.8979716999999999,1002.9799,5.50624465995577,1002.6247007977867,0,0
6.64,-8.378592999999999,4.6987404999999995,-0.7512069,1002.9749,5.506030670005512,1002.6451478207606,0,0
6.68,-8.149191,4.6796755999999995,-0.74647516,1002.9948,5.505613262167818,1002.6644735581057,0,0
6.72,-8.192219,4.722574,-0.7654135,1002.9949,5.505142356133207,1002.6827393148143,0,0
6.76,-8.340411,4.7082752999999995,-0.8127594,1002.99005,5.504885955300058,1002.6999852559093,0,0
6.8,-8.268733000000001,4.670143,-0.8032923000000001,1002.9953,5.504650258418969,1002.7162869025392,0,0
6.84,-8.278302,4.5652795,-0.7180739,1003.00494,5.5043309611242925,1002.7317301886524,0,0
6.88,-8.431275,4.3507843,-0.6944036,1002.99506,5.504005719652296,1002.7463238635826,0,0
6.92,-8.55557,4.407984,-0.8317030999999999,1003.0202,5.5039823038291065,1002.7602047888423,0,0
6.96,-8.182774,4.713043700000001,-0.45295334,1002.9878,5.5037967859103425,1002.7732893171616,0,0
7.0,-8.039408,5.0610037000000005,-0.8601148000000001,1003.0102,5.503644883027889,1002.785703684843,0,0
7.04,-8.087214999999999,5.046704,-0.9926790000000001,1003.0028699999999,5.503618011307705,1002.7974548188607,0,0
7.08,-8.182821,5.008572,-0.97374225,1003.0179,5.5038243889872085,1002.8086317235308,0,0
7.12,-8.154171,4.808377,-0.6423364,1002.9575,5.503913572573742,1002.8190435622928,0,0
7.16,-7.8960795,4.779778,-1.0305593000000002,1003.0028699999999,5.503481852197433,1002.8289052381984,0,0
7.2,-8.742125,4.6129489999999995,-0.88379455,1003.0060000000001,5.503914429544508,1002.8382565561712,0,0
7.24,-8.498374,4.794079,-0.6092009,1002.9703400000001,5.5048022887498,1002.8469948811296,0,0
7.28,-7.972614,5.0943723,-0.97375184,1002.98584,5.505538222263231,1002.855215907491,0,0
7.32,-8.044319999999999,5.113439,-0.8411893,1003.0035,5.506257368197676,1002.8630138291168,0,0
7.36,-7.9726424,5.118206,-0.73229975,1003.00824,5.506820615544993,1002.8704268868806,0,0
7.4,-8.4992,4.665401999999999,-0.82705903,1002.95776,5.507718614086295,1002.877291463928,0,0
7.44,-8.437101,4.651103,-0.8317972,1002.97784,5.508783061185541,1002.8837189789367,0,0
7.48,-8.413223,4.589139,-0.70870453,1002.9808,5.509865205943657,1002.8897478228745,0,0
7.52,-8.093036,4.6415725,-0.8033981,1002.9934699999999,5.510448846901102,1002.8954483092157,0,0
7.56,-8.040478,4.689238,-0.8128687,1002.9985,5.510546814122938,1002.9008562450333,0,0
7.6,-8.169573,4.7798038,-0.79393476,1002.9583,5.510537373075688,1002.9058414946396,0,0
7.64,-7.892384,4.8560696,-0.8034071999999999,1002.97845,5.510023755662584,1002.9105078518112,0,0
7.68,-7.9067636,4.71784,-0.8128797,1002.9809,5.508945350403002,1002.9148844567412,0,0
7.72,-7.5913367,4.932336299999999,-0.94544667,1002.9884599999999,5.507078853821706,1002.9190164968132,0,0
7.76,-7.4480023,5.6139555,-0.5288246,1002.97845,5.505020662741586,1002.9228815280323,0,0
7.8,-7.887784,5.7283545,-0.15007587,1003.0235,5.503648027649052,1002.9266588961168,0,0
7.84,-8.556997,5.6044245,0.115047105,1003.0109,5.503883888305459,1002.93029984653,0,0
7.88,-8.839046000000002,5.461428,0.38017009999999996,1003.0259,5.505888356377941,1002.9338611508676,0,0
7.92,-7.6823929999999985,5.5281625,-0.16902635,1002.956,5.507513364378686,1002.9370876192372,0,0
7.96,-7.6823929999999985,5.5281625,-0.16902635,1002.9862699999999,5.5087972314312434,1002.9401155832593,0,0
8.0,-7.639415,5.5662949999999976,-0.54778236,1002.98834,5.509779002200495,1002.9429647001697,0,0
8.04,-7.9740615,5.3232026,-0.6472104000000001,1002.99866,5.510784102559817,1002.9456826829507,0,0
8.08,-7.9740615,5.3232026,-0.6472104000000001,1002.9962,5.511806198583624,1002.9482661548776,0,0
8.12,-7.806828,5.366103,-0.12169692,1002.9834599999999,5.512558133096992,1002.9506756085144,0,0
8.16,-8.060198,5.4185360000000005,0.17656688,1002.9965,5.513567150394163,1002.9529695695577,0,0
8.2,-7.816487299999999,5.842761,-0.055424407,1003.0066,5.51489361108271,1002.9551895830847,0,0
8.24,-7.501060499999999,5.8379955,-0.055428057999999995,1002.9211,5.515968498368518,1002.9570284645384,0,0
8.28,-7.8165674,5.118246,0.03925634,1002.98096,5.5164804058451935,1002.9587394537184,0,0
8.32,-8.079476,4.7798214,0.029785713,1002.9657599999999,5.516584989587061,1002.9602765577243,0,0
8.36,-8.418882,4.603460299999999,-0.24007903,1002.98096,5.516767352814304,1002.9617092032164,0,0
8.4,-8.360178,4.8131557,-0.5903016,1002.9836,5.517155943691264,1002.9630538956412,0,0
8.44,-7.953879,5.189712999999999,-0.59503466,1002.9783,5.517415861514751,1002.9642969518436,0,0
8.48,-7.987323,5.2659769999999995,-0.38198498,1002.9635,5.517683345925584,1002.9653924472777,0,0
8.52,-8.049445,5.2898097,-0.45299968,1002.99854,5.518097924137863,1002.9664797582327,0,0
8.56,-8.149805,5.3184085,-0.09791794,1003.0085,5.518826947843532,1002.9675917790636,0,0
8.6,-7.7626333,5.442339,-0.1784021,1003.0137300000001,5.519311416286912,1002.9687404582643,0,0
8.64,-7.9538100000000025,5.5376697,-0.28729203,1002.97845,5.520022621872236,1002.9697903855566,0,0
8.68,-7.236824,5.9189944,-0.9595761,1002.9839999999999,5.520312835325462,1002.9707692559241,0,0
8.72,-7.3419647,5.9952583,-0.7559954000000001,1002.9736,5.520460010226171,1002.9716443764594,0,0
8.76,-7.3037114,5.904693599999999,-1.1063399,1002.98584,5.520372265480487,1002.9724687372093,0,0
8.8,-7.8390270000000015,5.680665,-0.74178857,1002.9583,5.52060179975081,1002.9731461349138,0,0
8.84,-7.686058,5.6186996,-0.505067,1002.9762,5.520746846467283,1002.9737556774396,0,0
8.88,-7.700382,5.756929,-0.32042378,1003.0085,5.520994725188241,1002.9744193487774,0,0
8.92,-7.5522009999999975,5.8284273,-0.42458004,1002.9758,5.521185738813328,1002.9750107391153,0,0
8.96,-7.2271585000000025,6.147786,-0.405641,1002.9760000000001,5.521217243514934,1002.975536852957,0,0
9.0,-7.3609776,5.980956,-0.5097965,1002.9758,5.5211103276835765,1002.976002674477,0,0
9.04,-7.6381836,5.6282305999999975,-0.43404390000000004,1002.9708,5.52088055878162,1002.9763955447438,0,0
9.08,-7.542579700000001,5.6139307,-0.4009024000000001,1002.9760000000001,5.520362819472481,1002.9767412609506,0,0
9.12,-7.695511,5.566264,-0.59974533,1002.96277,5.51981172433084,1002.9769964392516,0,0
9.16,-7.8006509999999984,5.7330937,-0.43403974,1002.9633,5.519594900549572,1002.9771726076167,0,0
9.2,-7.351334599999999,5.928522,-0.41510078,1002.9602699999999,5.519180750036624,1002.9772674205972,0,0
9.24,-7.351334599999999,5.928522,-0.41510078,1002.9825400000001,5.518593732565414,1002.9773701786322,0,0
9.28,-7.595074,5.756925,-0.41036355,1002.99335,5.518034895578658,1002.977518502989,0,0
9.32,-7.709781599999999,5.6806602,-0.35828444,1002.9602699999999,5.517594627355425,1002.9775874677797,0,0
9.36,-7.6619606,5.632994,-0.27306303,1002.9658,5.517116156668909,1002.977605970185,0,0
9.4,-7.5475864,5.6330028,-0.16420294,1003.00824,5.516409467811344,1002.9777326014176,0,0
9.44,-7.595383999999999,5.6234694,-0.20207812,1002.99585,5.515573093513644,1002.9779097154097,0,0
9.48,-7.7292166,5.5567374,-0.26362517,1002.96545,5.514771203569919,1002.9780213583574,0,0
9.52,-7.7292156,5.542438,-0.25889072,1002.96277,5.513985071388097,1002.978065101176,0,0
9.56,-7.8821673,5.671135,-0.15473364,1002.97784,5.51362518413168,1002.9781029419662,0,0
9.6,-7.676635000000001,5.8522635,-0.21154644,1003.0003,5.513526263268067,1002.9782162874974,0,0
9.64,-7.3898454,6.066758999999999,-0.20207748,1003.02075,5.513467054589493,1002.9784695609738,0,0
9.68,-7.504558999999999,5.8713303,-0.268359,1002.9708,5.513378573500309,1002.978665742998,0,0
9.72,-7.590594999999999,5.6854343,-0.23048373,1003.0202,5.513169629370551,1002.9789886127595,0,0
9.76,-7.7531075,5.5662704000000005,-0.12632675,1003.0027,5.512976829584578,1002.9793592614752,0,0
9.8,-7.9156203,5.4137406,-0.12159222,1003.0053,5.512893530466681,1002.9797801533392,0,0
9.84,-7.7244253,5.642535,-0.11685764,1002.9829,5.512857181484672,1002.980163284838,0,0
9.88,-7.4997735,5.790299,-0.168936,1002.9904,5.512675165236815,1002.9805386720047,0,0
9.92,-7.5141125,5.890396,-0.21627997,1003.0027,5.512518326041222,1002.9809501448864,0,0
9.96,-7.743541199999999,5.8141313,-0.20207663,1003.0152,5.512665447341738,1002.9814370218028,0,0
10.0,-7.7053027,5.795065,-0.32043666,1002.9829,5.512999957291436,1002.9818724929677,0,0
10.04,-7.6288240000000025,5.6425347000000015,-0.41039026,1002.9953,5.513189249124913,1002.9823056143144,0,0
10.08,-7.9538493,5.2707434,-0.10265382,1003.01074,5.5133422700911385,1002.9827906841248,0,0
10.12,-8.178498,5.113447,0.001503214,1002.9953,5.513677188840953,1002.9832643253462,0,0
10.16,-7.9825253,5.4042069999999995,-0.05057514,1002.9649,5.514160154183774,1002.9836167231584,0,0
10.2,-7.7339759999999975,5.6139355,-0.09318471,1003.0002,5.514600113395708,1002.9839878016617,0,0
10.24,-7.6813955,5.599636,-0.25415426,1003.0101,5.514900744062157,1002.9844096905414,0,0
10.28,-8.106797,5.2421440000000015,-0.11212205,1002.9799,5.515379609535855,1002.9847662366697,0,0
10.32,-8.197612,5.2040120000000005,-0.003230665,1003.01044,5.51612906328327,1002.9851737063764,0,0
10.36,-8.011198,5.3136425,-0.25415385,1002.9898,5.516920910093578,1002.985550401266,0,0
10.4,-7.7493386,5.4614305,-0.44362435,1002.9949,5.517486036402202,1002.9859169074263,0,0
10.44,-7.558185000000001,5.451899,-0.48623762,1002.9898,5.517518581734642,1002.9862547314026,0,0
10.48,-7.601224,5.4471326,-0.44362974,1003.0224,5.517142781662606,1002.9866833556353,0,0
10.52,-7.9262896,5.285071,-0.33474204,1002.9873,5.51676210759505,1002.9870643079267,0,0
10.56,-8.012385,5.242173,-0.43416995,1003.0199,5.516486903384204,1002.9875191258632,0,0
10.6,-7.9072685,5.4090032999999975,-0.22112535,1002.9848599999999,5.5163019699968245,1002.9879114301384,0,0
10.64,-7.5870605,5.6187334,-0.30161384,1003.0023,5.515912765800231,1002.9883098690477,0,0
10.68,-7.6301190000000005,5.6378,-0.2826798,1002.9974,5.515438726368729,1002.9886946541393,0,0
10.72,-7.6301190000000005,5.6378,-0.2826798,1002.9873,5.514891433065613,1002.9890296294913,0,0
10.76,-7.7210135,5.609203,-0.3963127,1002.9823,5.5144069948725685,1002.989301387046,0,0
10.8,-7.7210335999999975,5.6521025,-0.3584393,1002.9945,5.51402926383861,1002.989560227028,0,0
10.84,-7.8118690000000015,5.6139708,-0.26848736,1003.0173300000001,5.513847312707852,1002.9898889092192,0,0
10.88,-7.539479300000001,5.752202,-0.15960146,1003.0144,5.513549996780426,1002.9902675727296,0,0
10.92,-7.601656399999999,5.6950045,-0.20221472,1003.0048,5.513184888242179,1002.9906544765456,0,0
10.96,-7.8454647,5.552008,-0.20695269,1002.98694,5.512996049308002,1002.9909829726423,0,0
11.0,-7.8120270000000005,5.4566774,-0.17854808,1003.0218,5.512791673117134,1002.9913841730915,0,0
11.04,-7.8025055,5.3899474000000005,-0.2069581,1002.9691,5.512480140475413,1002.9916584507854,0,0
11.08,-8.1180315,5.62351,-0.25430754,1003.0045,5.5128926717240825,1002.9919470321328,0,0
11.12,-8.108492,5.7283745,-0.08860518,1003.0169,5.514046211030271,1002.9922918532958,0,0
11.16,-7.577972999999999,5.8761387,0.09129860000000001,1002.9916400000001,5.5151468017808885,1002.9925941906032,0,0
11.2,-7.3677009999999985,5.733143,0.19545187,1002.9966,5.515672522795451,1002.9928757567624,0,0
11.24,-8.142088000000001,5.103959,-0.13122743,1002.9865,5.5162556244034295,1002.993101595896,0,0
11.28,-8.08953,5.056294,-0.23538615,1003.0165400000001,5.516746341123695,1002.9933855256093,0,0
11.32,-7.960514999999999,5.165926,-0.47210997,1003.0092,5.517068255245893,1002.9936933380117,0,0
11.36,-8.113488,5.223125,-0.4010957000000001,1003.0015,5.517564344092773,1002.9939934250335,0,0
11.4,-7.6964455,5.5472209999999995,-0.1974065,1003.0015,5.517862496462995,1002.994285605596,0,0
11.44,-7.806364,5.5090885,-0.09798244,1002.9942,5.518121436855117,1002.994543468161,0,0
11.48,-7.8302517000000025,5.432823,-0.16426307,1002.9713,5.518296493145003,1002.9946876390379,0,0
11.52,-7.8398004,5.40899,-0.44359186,1003.0166,5.518403451759768,1002.994893912924,0,0
11.56,-7.8254550000000025,5.3946905,-0.40571612,1003.04926,5.5184049666839465,1002.9952718944437,0,0
11.6,-7.940158999999999,5.3708577,-0.20687008,1002.9963,5.5184689043794535,1002.995609580094,0,0
11.64,-7.701157000000001,5.5233865,-0.42465168,1003.02167,5.518376479710691,1002.9960017766464,0,0
11.68,-7.6246634,5.742648,-0.41044688,1003.0111699999999,5.518286605657999,1002.9964029271242,0,0
11.72,-7.705908999999999,5.647317,-0.31102332,1003.0109,5.518208877867672,1002.9968095731488,0,0
11.76,-7.849291,5.551985,-0.32522547,1003.0111699999999,5.518269146126619,1002.9972205831128,0,0
11.8,-7.658087700000001,5.661616,-0.2352708,1003.0186,5.5182572362578055,1002.9976607174176,0,0
11.84,-7.5815990000000015,5.642549,-0.3062858,1003.02136,5.518034570411374,1002.9981349375067,0,0
11.88,-7.8827214,5.566284,-0.2494724,1003.01636,5.518036566552636,1002.9986195686024,0,0
11.92,-7.887488999999999,5.5901165,-0.22106494,1003.0213,5.518272315620525,1002.9991294381916,0,0
11.96,-7.705846000000001,5.6902137,-0.65662915,1003.0088,5.518571289425227,1002.9996147729833,0,0
12.0,-7.815769,5.6616144,-0.5808776,1003.0284,5.519063953237788,1003.0001472416224,0,0
12.04,-7.777525999999999,5.6044154000000015,-0.18318708,1003.02094,5.519559270947263,1003.0006925848421,0,0
12.08,-7.5480833,5.5758157,0.27131679999999997,1003.0309,5.519639372129699,1003.0012831968053,0,0
12.12,-7.7583833,5.485251,0.1150825,1003.0234,5.519589610595183,1003.0018846820276,0,0
12.16,-7.80617,5.4995503,-0.15477753,1003.0009,5.519524725615841,1003.0024126095147,0,0
12.2,-7.657985000000001,5.5996475,-0.017478745,1003.0259,5.519315235916368,1003.0029636408484,0,0
12.24,-7.634074000000001,5.7331114,-0.17844746,1003.01526,5.5191073947342515,1003.0034947990273,0,0
12.28,-7.6627410000000005,5.733111,-0.33941618,1003.00085,5.51895847429832,1003.0039546091181,0,0
12.32,-7.76788,5.5710473,-0.15477282,1003.00824,5.518829472696361,1003.0043763247212,0,0
12.36,-7.9447217000000006,5.4423504000000005,0.07247964,1003.0182,5.518863941863868,1003.0047987178592,0,0
12.4,-7.768049,5.528153,-0.012756146999999999,1002.9827,5.51884319687925,1003.0050923890517,0,0
12.44,-7.7250285000000005,5.566285,-0.09797525,1003.0107,5.518748213849026,1003.0053720643166,0,0
12.48,-7.906656,5.647317,-0.12164676,1003.0028,5.518993423887887,1003.0056099259492,0,0
12.52,-7.476468,5.728348,-0.27314720000000003,1002.9903,5.518926305653286,1003.0057649847544,0,0
12.56,-7.7441330000000015,5.5329190000000015,-0.17372432,1002.9802,5.518784129112222,1003.0058099607696,0,0
12.6,-7.854067,5.389922,-0.12164570400000001,1002.9977,5.518591143630391,1003.0058205057176,0,0
12.64,-7.863622,5.3756223,-0.22106786,1003.00824,5.518357264536267,1003.0058385334132,0,0
12.68,-7.863622,5.3756223,-0.22106786,1002.99536,5.518088093811062,1003.0058167399648,0,0
12.72,-7.7489,5.4995527000000015,-0.254208,1003.0107,5.517742016226952,1003.0058150630098,0,0
12.76,-7.8253727,5.470953,-0.21633242,1003.0182,5.517422968043414,1003.0058581670256,0,0
12.8,-7.858828999999999,5.494786,-0.26841068,1003.0157,5.517217038813671,1003.0059316843324,0,0
12.84,-7.7106514000000015,5.537685,-0.30628562,1003.00085,5.516914529351308,1003.0059783501614,0,0
12.88,-7.8301425,5.5329185,-0.21159713,1003.0282,5.516718887881742,1003.0060995820273,0,0
12.92,-7.8062380000000005,5.5901165,0.13401495,1003.0327,5.516643896253541,1003.0063024640087,0,0
12.96,-7.8062344,5.5805836,0.00618635,1003.0282,5.516662305553738,1003.0065605616568,0,0
13.0,-7.8444686,5.551984,-0.3630969,1003.0179,5.516807726519897,1003.0068294387172,0,0
13.04,-7.8827057,5.5281515,-0.3441591,1003.0177,5.517099821133425,1003.0071061525076,0,0
13.08,-7.854021,5.4375870000000015,-0.16425118,1003.0079,5.517354088053259,1003.0073535146643,0,0
13.12,-7.8922570000000025,5.451886,-0.15004778,1003.0282,5.5176557880453805,1003.0076471312133,0,0
13.16,-7.98307,5.3660884000000015,-0.055359322999999995,1003.0054,5.518051764688367,1003.0078984811232,0,0
13.2,-7.892251499999999,5.442353,-0.045890383,1003.01276,5.5184626926568985,1003.0081380753716,0,0
13.24,-7.7775292,5.5329175,-0.2684067,1003.01526,5.518805651843288,1003.0083754197784,0,0
13.28,-7.720169500000001,5.561517,-0.25420329999999997,1002.9976,5.519024194866886,1003.008546345785,0,0
13.32,-7.701046499999999,5.447119,-0.15478045,1003.0079,5.518957103887384,1003.0086950491597,0,0
13.36,-7.944813000000001,5.3517876,-0.036419977,1003.00824,5.518939780276655,1003.0088248052845,0,0
13.4,-7.849214599999999,5.413753,-0.08376383,1003.01825,5.518875470572457,1003.0089733884973,0,0
13.44,-7.844171,5.504311599999999,-0.121614985,1003.0077,5.5188696019702395,1003.0091000924252,0,0
13.48,-7.906295,5.5376769999999995,-0.26364586,1003.0204,5.5190668089159525,1003.0092527276836,0,0
13.52,-7.672071000000001,5.585342,-0.20683174,1003.0173300000001,5.519101328986299,1003.009416674378,0,0
13.56,-7.825011,5.466178,-0.10267355,1003.0201400000001,5.519103436718384,1003.0096001416496,0,0
13.6,-8.044861000000001,5.3088812999999995,-0.08846841,1002.9851,5.5192709753398645,1003.0096740528207,0,0
13.64,-7.8297553,5.3327136,-0.03165429,1003.0102,5.519239575171134,1003.0097412541414,0,0
13.68,-7.7197995,5.561507700000001,-0.060058802,1002.9976,5.519118474228359,1003.0097569247134,0,0
13.72,-7.7150050000000014,5.5424414,-0.074260764,1003.0179,5.518887526960398,1003.009800086302,0,0
13.76,-7.6863199999999985,5.5615067000000025,-0.11686974,1003.0077,5.518536056391044,1003.0098306635707,0,0
13.8,-7.671972999999999,5.5662730000000025,-0.13580672,1003.02264,5.51806154760096,1003.0099037952568,0,0
13.84,-8.025658,5.294579,-0.05058554,1003.02527,5.517761445515928,1003.0100237327516,0,0
13.88,-7.987412,5.318412,0.006227964,1003.0384,5.5175773624709885,1003.0102318640841,0,0
13.92,-7.9252543000000015,5.556739299999999,-0.18314631,1003.0177,5.517672878824533,1003.0104426542188,0,0
13.96,-7.810525,5.6139374,-0.17841063,1003.0052,5.5178893160602005,1003.0106100348263,0,0
14.0,-7.915674,5.547205,-0.15473798,1003.0302,5.518308902207875,1003.0108284562062,0,0
14.04,-7.762706,5.5186057,-0.16893993,1003.03534,5.5186129896311416,1003.0111096948947,0,0
14.08,-7.7387924,5.4995389999999995,-0.21154827,1003.02576,5.518752240411065,1003.0114109384987,0,0
14.12,-7.8678339999999976,5.518604799999999,-0.2967663,1003.0282,5.51899192320418,1003.0117375579684,0,0
14.16,-7.6192694,5.5519705,-0.3961875,1003.0204,5.518947309454753,1003.012057343723,0,0
14.2,-7.872585000000001,5.466172,-0.36304542,1003.0126300000001,5.5189743223988685,1003.0123419679784,0,0
14.24,-7.800874,5.5758023,-0.12632390000000002,1003.02527,5.519061355806085,1003.0126400028856,0,0
14.28,-7.561870599999999,5.680667,-0.30623004,1003.0048,5.518937814242897,1003.0128751225196,0,0
14.32,-7.590535000000001,5.6759,-0.38197917,1003.0298,5.5186760754961535,1003.0131438037868,0,0
14.36,-7.7769337,5.6091676,-0.3109618,1003.0201400000001,5.518517816876496,1003.0134063968612,0,0
14.4,-7.590538499999999,5.6616,-0.30622903,1003.01276,5.5182034322927915,1003.0136360970728,0,0
14.44,-7.772158,5.5758014000000005,-0.3488375,1003.0307,5.51795454149584,1003.0139004902304,0,0
14.48,-7.619198,5.623467400000001,-0.34410250000000003,1003.0126300000001,5.517565414953406,1003.0141295342596,0,0
14.52,-7.7195616,5.685432,-0.23994447,1002.9848,5.517291355951358,1003.0142263312404,0,0
14.56,-7.709989,5.6663656,-0.44825706,1003.0126300000001,5.517096018729546,1003.0143061142604,0,0
14.6,-7.590481299999999,5.7283306,-0.31095818,1003.0152,5.5168374077399305,1003.0143798285252,0,0
14.64,-7.5665636,5.5329013,-0.21626836,1003.0173300000001,5.516236297721924,1003.0144555830667,0,0
14.68,-7.7099442,5.6234655,-0.20206400000000002,1002.9976,5.515685660681377,1003.0144618396807,0,0
14.72,-7.719498599999999,5.7807617,-0.26361063,1003.02576,5.515394935411693,1003.0145080414025,0,0
14.76,-7.4661493000000005,6.0572214,-0.33935937,1003.0054,5.515277864202361,1003.014516076294,0,0
14.8,-7.62387,5.952357,-0.13577884,1002.9927,5.515424958729651,1003.0144446380499,0,0
14.84,-7.5617204,5.9285239999999995,0.07253615599999999,1003.02515,5.515671267375961,1003.0144200545204,0,0
14.88,-7.604719,5.909457,-0.14997913,1003.04065,5.516052279440949,1003.0144927603177,0,0
14.92,-7.4852114,5.8999239999999995,-0.07896192,1003.0328400000001,5.5163413757179365,1003.0146230532223,0,0
14.96,-7.700296400000001,5.8045926,-0.003210845,1003.0076,5.516780636754434,1003.0147128970418,0,0
15.0,-7.70507,5.8093585999999995,-0.093163945,1003.0052,5.517365821462778,1003.0147580366112,0,0
15.04,-7.5186443,5.771226,-0.34408626,1003.0177,5.517733505739732,1003.0148085130032,0,0
15.08,-7.6620193,5.6472955,-0.07895786,1002.9927,5.517978695932156,1003.0147735232961,0,0
15.12,-7.757603,5.6425279999999995,-0.050550255999999995,1002.9976,5.518268803983437,1003.0146807817067,0,0
15.16,-7.6381016000000015,5.652061499999999,-0.02214324,1002.9976,5.5184087895692695,1003.0145373444244,0,0
15.2,-7.661981,5.652061,0.1577659,1002.99786,5.518458204278273,1003.0143505648019,0,0
15.24,-7.638076299999999,5.6615934,0.04887514,1002.9927,5.518396787696672,1003.0141075842944,0,0
15.28,-7.6046047,5.7140260000000005,-0.083687,1003.0003,5.518247591782527,1003.0138431794144,0,0
15.32,-7.8101244,5.63776,-0.18310836,1003.01276,5.518274174657961,1003.0136056518164,0,0
15.36,-7.814891,5.6997256,-0.13102874,1003.0307,5.5185378640954745,1003.013457312084,0,0
15.4,-7.8440304,5.699737,-0.01744523,1003.02075,5.5190572782296226,1003.0133524927736,0,0
15.44,-7.375616,5.8665660000000015,-0.06478985400000001,1003.0107,5.519236005176623,1003.0132503254564,0,0
15.48,-7.4998975,5.7378697,0.07250732,1003.0202,5.519152314103499,1003.0131850692433,0,0
15.52,-7.5190234,5.6282387,0.015693868,1002.9903,5.51873069421421,1003.0130450226044,0,0
15.56,-7.6719832,5.5424414,-0.06479159,1003.0132,5.518162909411184,1003.0129218353128,0,0
15.6,-7.786705,5.6139392999999975,-0.15948024,1003.0182,5.517750625705666,1003.0128319884146,0,0
15.64,-7.724570299999999,5.6711383,-0.26837185,1003.01324,5.517447794806051,1003.0127540685373,0,0
15.68,-7.7580357000000015,5.666372,-0.26837242,1003.00824,5.517293013130836,1003.0126689678868,0,0
15.72,-7.758042,5.633006,-0.01271518,1002.9977,5.5172210185289225,1003.0125398846677,0,0
15.76,-7.6911335,5.675905,-0.13581055,1003.0057400000001,5.517164873116906,1003.0124013471506,0,0
15.8,-7.820195,5.5805745,-0.08373267,1003.02075,5.517222414834633,1003.0123089905507,0,0
15.84,-7.829761,5.5567417,-0.35359436,1003.0132,5.517380451254399,1003.0122305918933,0,0
15.88,-7.786752000000001,5.50431,-0.2352351,1002.9858,5.517483280856153,1003.0120661687082,0,0
15.92,-7.98273,5.4185120000000015,-0.44354945,1003.0084,5.517785410166672,1003.0119076861748,0,0
15.96,-8.049650999999999,5.5424430000000005,-0.6565979999999999,1002.9907,5.5185473628569035,1003.011691303338,0,0
16.0,-8.040097,5.4947767,-0.20209570000000002,1002.9932,5.519599021002947,1003.0114335387714,0,0
16.04,-7.452188499999999,5.4852443,0.16245288,1003.0057400000001,5.519893235357099,1003.0111852812607,0,0
16.08,-7.3900604,5.8141365,0.034623068,1002.99084,5.519825573257116,1003.0108926779117,0,0
16.12,-7.3900604,5.8141365,0.034623068,1003.0009,5.519438400705818,1003.0105981599522,0,0
16.16,-7.7055373,5.6520743,-0.45775586,1002.971,5.51911131139629,1003.0101953705072,0,0
16.2,-8.068805000000001,5.590109,-0.68974197,1003.0038,5.519406086659646,1003.0098164424196,0,0
16.24,-7.753344,5.628241,0.03935574,1003.01886,5.519710143713351,1003.0095141783693,0,0
16.28,-7.7724695000000015,5.771237999999999,-0.20683385,1002.97833,5.520233671291976,1003.0091348348116,0,0
16.32,-7.4283333,5.928535,-0.11688105,1003.0163,5.520578785906029,1003.0088254414392,0,0
16.36,-7.514375999999999,5.8236704,0.15297943,1003.0111699999999,5.520771906271375,1003.008560501866,0,0
16.4,-7.438387,5.8141494000000025,0.006168297,1002.9964,5.520690682745931,1003.0082826234523,0,0
16.44,-7.338023700000001,5.7760177000000015,-0.10745858400000001,1002.9989999999999,5.520155574618551,1003.0080036726416,0,0
16.48,-7.624837400000001,5.7950845,0.053508855,1003.0191,5.519716165375781,1003.0077971384836,0,0
16.52,-7.366753,5.980981,-0.34418347,1002.9914,5.5191924178104985,1003.0075556152033,0,0
16.56,-7.524512,6.0000477,-0.46728033,1003.0138,5.518886942380779,1003.007364685018,0,0
16.6,-7.9356003,5.9476166,-0.16428074,1002.9814,5.519364062143376,1003.0071025062399,0,0
16.64,-7.34293,5.94285,-0.2873776,1002.9739400000001,5.5195591691871115,1003.0067514600496,0,0
16.68,-7.5341477,5.9333177,-0.1169413,1002.9992,5.5197950255439725,1003.0064140903792,0,0
16.72,-7.276076,5.961918,-0.045928758,1003.01166,5.519683829614085,1003.0061348758132,0,0
16.76,-7.395583999999999,6.000051,-0.32999417,1003.02905,5.519520623770116,1003.0059706562697,0,0
16.8,-7.534223599999999,5.938086,-0.07907307,1002.9839,5.5194454662657595,1003.0057460975188,0,0
16.84,-7.7302213,5.8189225,-0.18796669,1002.9817,5.519623091582298,1003.0054611114552,0,0
16.88,-7.701555,5.7855573,-0.39628163,1002.9992,5.519947277787233,1003.0051867577679,0,0
16.92,-7.448276,5.88089,0.29020238,1003.0515,5.520095906658597,1003.0051110665222,0,0
16.96,-7.304907000000001,5.990521,-0.7797754,1003.0839,5.520057127548316,1003.005327825898,0,0
17.0,-7.376616999999999,5.880891,-0.6519476,1003.0015,5.519805513006741,1003.0055055743088,0,0
17.04,-7.878534299999999,5.6377974,-0.027009705,1002.9194,5.519847957181071,1003.0053526527375,0,0
17.08,-7.7494929999999975,5.7664943,-0.36315359999999997,1002.9268,5.520105209974668,1003.0049347416873,0,0
17.12,-7.1281433000000005,5.9333243,-0.5998762,1002.9643599999999,5.519776928843171,1003.0044194064128,0,0
17.16,-7.682625999999999,5.904725599999999,-0.39156467,1003.0045,5.519771574729713,1003.0039643463016,0,0
17.2,-7.348065400000001,5.947625599999999,-0.415239,1002.9795,5.519563304349995,1003.0034741835403,0,0
17.24,-7.1760306,6.085856400000001,-0.4010393,1003.0169,5.519083261379514,1003.003089408664,0,0
17.28,-7.7113934,5.8046303,-0.27794709999999995,1002.9916400000001,5.518859825331285,1003.002708203712,0,0
17.32,-7.763984700000001,5.709299,-0.41051158,1003.0123,5.518843202485184,1003.002405901483,1,1
17.36,-7.625395299999999,5.776032,-0.3252946,1003.007,5.518854820557216,1003.0021553259883,1,1
17.4,-7.47186,5.866582,-0.45780474,1002.98694,5.518765007626959,1003.0018791423073,1,1
17.44,-7.6009164,5.8475155999999995,-0.39152312,1002.9973,5.5187670609726736,1003.0016186214946,1,1
17.48,-7.3667064,5.9714465,-0.32524157,1003.00726,5.518622865963278,1003.0014087342673,1,1
17.52,-7.338029,6.0048122,-0.4530706,1002.9823,5.5183584397070184,1003.0011544864695,1,1
17.56,-7.600919999999999,5.9476137000000024,-0.34417942,1003.0173300000001,5.518331358041318,1003.0009880649644,1,1
17.6,-7.390609299999999,5.899948,-0.25422582,1003.00726,5.5181040635757554,1003.0008635938884,1,1
17.64,-7.6104816999999985,5.7664843,-0.34417966,1003.0222,5.517896898565802,1003.0008304223078,1,1
17.68,-7.6678405,5.652087,-0.41993028,1002.9974,5.517667760068998,1003.0007887623786,1,1
17.72,-7.5292277,5.6759205,-0.26842943,1002.9953,5.517207360929335,1003.000732192121,1,1
17.76,-7.0464687,5.8236833,-0.44360249999999996,1002.9898,5.515961326356505,1003.0006428507496,1,1
17.8,-7.1755247,6.0524783,-0.6897916000000001,1002.99506,5.514566527332674,1003.0005438104512,1,1
17.84,-8.121927000000001,5.7617183,-0.8981055,1003.0151,5.514263102904266,1003.0005087007255,1,1
17.88,-7.796902,5.470958,-0.59036946,1003.01776,5.513978702336472,1003.0005397824497,1,1
17.92,-7.6630692,5.6568537,-0.59510404,1002.9853,5.5137126985064455,1003.0005123830442,1,1
17.96,-7.6630692,5.6568537,-0.59510404,1003.0129400000001,5.513463907647696,1003.0005329123503,1,1
18.0,-7.8542633,5.561523,-0.46254084,1003.0129400000001,5.513421653897165,1003.0005957175612,1,1
18.04,-7.8733830000000005,5.742652,-0.486213,1002.99286,5.5138161370311005,1003.0006233636619,1,1
18.08,-7.7156509999999985,5.6711540000000005,-0.18321119,1002.9903,5.514221241670609,1003.0006106276476,1,1
18.12,-7.7060933,5.766484999999999,-0.25422737,1002.9979,5.514739684558298,1003.0005896158457,1,1
18.16,-7.734773599999999,5.656854,-0.34418118,1002.98596,5.515274674672921,1003.0005183832004,1,1
18.2,-7.796912,5.370861,-0.93598187,1003.04095,5.515666645993727,1003.0006009958555,1,1
18.24,-8.671617,5.289829,-0.538292,1003.03577,5.517298636271399,1003.0008006008127,1,1
18.28,-8.074143,5.342262,0.23341579999999998,1003.0035,5.519006866511479,1003.0009866895897,1,1
18.32,-7.973769,5.7331195,0.6169024999999999,1002.99084,5.521100377889409,1003.0011145895506,1,1
18.36,-7.777798,5.87135,0.010898524,1002.99097,5.523329057152115,1003.0011910814336,1,1
18.4,-7.691412400000001,5.7283444,-0.0742888,1002.9685,5.525347768264036,1003.0011409817683,1,1
18.44,-7.3902725999999985,5.8570410000000015,-0.5145873,1003.0012,5.5268688741613685,1003.0010969261698,1,1
18.48,-7.662708,5.60918,0.044073626,1003.0062,5.528054127554797,1003.0010763697086,1,1
18.52,-6.41516,6.2764974,1.009894,1003.02655,5.527972110850059,1003.0011499110884,1,1
18.56,-6.3960349999999995,6.691187400000001,1.1708642,1003.0037,5.527391346975333,1003.001224072572,1,1
18.6,-6.625453,6.786517999999999,1.9993863,1002.9941,5.527125748953498,1003.0012639549975,1,1
18.64,-6.8548713,6.6101550000000024,1.8384175999999999,1002.9742,5.52715161257923,1003.0012017648706,1,1
18.68,-6.8883233,6.5148244,1.7626679,1002.9716,5.5273205565933665,1003.001040247321,1,1
18.72,-7.5335839999999985,7.015312,0.9720233,1002.9792,5.529062639256594,1003.0008189055237,1,1
18.76,-8.1071415,7.277472500000001,-0.3299362,1002.9642,5.5333512274834025,1003.000491499852,1,1
18.8,-7.8107877000000006,7.10111,-1.1063781000000001,1002.967,5.5392814661710235,1003.0000816348007,1,1
18.84,-5.6598562999999995,6.3908925000000005,-1.5324726999999998,1002.982,5.542607105749153,1002.9996543841562,1,1
18.88,-5.167524299999998,5.885637,-1.5703467,1002.982,5.5421952454603405,1002.9992133097037,1,1
18.92,-6.7352934000000015,5.5043120000000005,-1.7265816000000005,1002.97705,5.5403113656143335,1002.9987437884027,1,1
18.96,-8.412986,5.6711415999999994,-0.8601837999999999,1002.98236,5.539865249708461,1002.9982699377427,1,1
19.0,-6.266841,6.3956574999999996,-1.2578725,1002.9571,5.538321244902594,1002.997703031524,1,1
19.04,-5.8844438,6.4099565,-1.0116824,1002.95514,5.535226338389816,1002.9970488862751,1,1
19.08,-6.2811613,6.290793,-1.3336214,1002.9901,5.531248553178268,1002.996445867543,1,1
19.12,-6.6683125,5.9333005,-1.3194169,1002.9801,5.526574869641523,1002.9958541950681,1,1
19.16,-6.806907700000001,5.347014,-1.2152582,1002.9751,5.520716923457056,1002.9952566781668,1,1
19.2,-6.180741,5.976198999999999,-0.98800564,1003.0105,5.513653376945696,1002.9947835881917,1,1
19.24,-6.3528075,6.691182,-1.3525543,1003.03033,5.506944953560756,1002.994493532972,1,1
19.28,-7.9110107,6.9819417,-0.5335011,1002.97296,5.503151033729567,1002.9941597194612,1,1
19.32,-8.040052000000001,7.4204645000000005,-1.7928515999999999,1002.9951,5.5030311364911615,1002.9938681468532,1,1
19.36,-9.344927,7.115405,-1.1868466999999998,1002.9901,5.507651151326228,1002.9935969479677,1,1
19.4,-10.095344,6.905676400000001,0.0914438,1002.9906599999999,5.517328811590909,1002.99334674362,1,1
19.44,-7.3899617,7.1058707,0.029897714,1002.9555,5.527326225731456,1002.9929894147814,1,1
19.48,-6.118521,6.085828,0.0725085,1002.9879,5.5341989205378965,1002.9926553571263,1,1
19.52,-7.241756,5.699736,1.7579582999999999,1003.0032,5.539848473743926,1002.9923981444966,1,1
19.56,-7.1270285000000015,6.009562,2.1461806,1003.0157,5.54478029403028,1002.9922547580968,1,1
19.6,-6.8402332999999995,6.0572276,1.7721633999999995,1002.9638,5.548520978450953,1002.9920256247448,1,1
19.64,-6.013315,6.305088,0.64064175,1002.96326,5.550009817736164,1002.991719606266,1,1
19.68,-6.4626036,5.909463400000001,0.5790956,1002.9507,5.549586389070884,1002.9913015377556,1,1
19.72,-6.931018400000001,5.737868,0.8016131999999999,1002.9808,5.548009583463736,1002.9908943268834,1,1
19.76,-6.6681094,6.2478886,0.61697316,1002.9710699999999,5.545679332537771,1002.9904631477804,1,1
19.8,-6.300059,6.538648,0.24295579,1002.9991,5.542534858516398,1002.9901132505928,1,1
19.84,-6.505571,7.606357000000001,0.13406622,1003.0112,5.5406083580602,1002.9898799937357,1,1
19.88,-6.720656,8.078244999999999,0.49388155,1002.9688,5.5408252008789765,1002.9895979999992,1,1
19.92,-6.6919584,8.373772,0.7116659000000001,1002.9586,5.543398427566067,1002.9892372375338,1,1
19.96,-6.535394999999999,8.297535,0.124492615,1002.9792,5.54767058158212,1002.9888823337642,1,1
20.0,-7.806840400000001,7.520587400000001,-1.2106112,1002.9788,5.554144466681759,1002.9885324443918,1,1
20.04,-9.809596,5.6520967,-1.4804739,1002.9467,5.563601324668385,1002.9880726853426,1,1
20.08,-6.9513,4.980013400000002,-1.3526474,1002.9842,5.5699225298635655,1002.9876525005794,1,1
20.12,-6.9895477,4.760752,-0.94548947,1002.9916400000001,5.573142998798264,1002.9872955803206,1,1
20.16,-7.9742235999999975,4.7750525,-0.5383339,1002.9892,5.57527610486137,1002.9869870614908,1,1
20.2,-7.7400210000000005,5.0276804,-0.46731862,1002.9742,5.576297858483978,1002.9866684208313,1,1
20.24,-7.070858500000001,5.4137716,-0.8886814000000001,1002.95917,5.575727445799456,1002.9862878756296,1,1
20.28,-6.980069,5.5615354,-1.0496536,1002.9617,5.573828510085484,1002.9858631095371,1,1
20.32,-6.980069,5.5615354,-1.0496536,1002.95416,5.570762527591263,1002.9853736550236,1,1
20.36,-7.1282787,5.2803097,-1.6461919999999999,1002.98224,5.566751418178499,1002.9849298918573,1,1
20.4,-6.855839,5.318442,-1.7976936000000001,1002.97974,5.561584460202558,1002.9845190991127,1,1
20.44,-7.0518284,5.080115,-1.7787578000000002,1002.9721,5.555435867388736,1002.9841114138867,1,1
20.48,-7.3004050000000005,5.6378026,-1.7929635,1002.98474,5.549533796980829,1002.9837534461312,1,1
20.52,-7.668458999999999,5.7998657,-1.8923866999999999,1002.99725,5.544707714964012,1002.9834857334164,1,1
20.56,-9.121547,6.4814844,-1.4852303999999998,1002.97974,5.543944037192391,1002.9832356978212,1,1
20.6,-9.279289,6.781778,-1.2343078,1002.9826,5.5473369499714105,1002.9830124778572,1,1
20.64,-9.604334,6.5291505,-0.434195,1002.9873,5.5545195545864665,1002.9828306757769,1,1
20.68,-8.342483,5.8189335,-0.27796128,1002.9726,5.562018546489682,1002.9826332050256,1,1
20.72,-6.7651660000000025,4.941888,-0.06491472599999999,1002.9923,5.566035114277471,1002.9824935203316,1,1
20.76,-8.476353,4.279337,1.1044816000000002,1003.0047599999999,5.5694151622152495,1002.9824502542633,1,1
20.8,-8.485930999999999,4.6844945,1.5589828000000001,1002.95984,5.572757447455323,1002.9823306274492,1,1
20.84,-7.3579149999999975,4.760759999999999,-0.06491964,1002.95514,5.573864427533791,1002.982127038938,1,1
20.88,-8.1705,4.632063400000002,0.90563166,1002.9853,5.574388467209044,1002.9819585707892,1,1
20.92,-6.6409801999999996,5.242183,0.7872699000000001,1002.97504,5.572444868252532,1002.9817848054782,1,1
20.96,-6.607823,5.695012999999999,0.30433312,1002.9547,5.568808835511517,1002.9815337611496,1,1
21.0,-7.200532400000001,5.799877599999999,0.13862762,1002.96515,5.564767680189562,1002.9812529568409,1,1
21.04,-6.598321,6.2241029999999995,0.21437408,1002.9801,5.560022077687035,1002.9810006875088,1,1
21.08,-7.606889,6.3003683,1.2890813,1002.96515,5.5565162929201195,1002.980720719852,1,1
21.12,-7.9175910000000025,6.338501,1.1423135,1002.96765,5.554628637414041,1002.9804262858388,1,1
21.16,-7.453978999999999,6.54823,-1.0402498,1002.9576400000001,5.553699045922731,1002.9800840933158,1,1
21.2,-9.327705,6.877123399999999,-0.8177369000000001,1002.9853,5.557031157302396,1002.9798005092666,1,1
21.24,-8.744585,7.020120599999999,-0.112311855,1002.96014,5.563278764258635,1002.9794791565674,1,1
21.28,-7.7073965,6.7293615,-0.8414129000000001,1002.9630000000001,5.570109381933005,1002.9791358843588,1,1
21.32,-7.157762,5.4471583,-1.5989216999999998,1002.9454,5.575080789078422,1002.9787111198517,1,1
21.36,-6.675046000000001,4.6225452,-1.7598953999999998,1002.9779699999999,5.576670903573321,1002.9783331299014,1,1
21.4,-7.119582,4.341319,-1.295925,1002.9703400000001,5.575539823833384,1002.9779703627138,1,1
21.44,-7.3824863,4.2888875,-1.2154416000000001,1002.99554,5.572393055464772,1002.9777130723213,1,1
21.48,-8.544037,4.613014,-0.7562097,1002.9657599999999,5.569794535325028,1002.9774426994696,1,1
21.52,-8.544037,4.613014,-0.7562097,1002.9884,5.567689801992809,1002.9772432443002,1,1
21.56,-7.8748784,4.832276,-1.4569028999999998,1002.9780000000001,5.5652271726742,1002.9770697300328,1,1
21.6,-6.8281307,4.6892805,-1.5515937,1002.9703400000001,5.560532285674536,1002.9768921857981,1,1
21.64,-7.549925,3.7502699999999995,-1.4332373999999999,1002.97327,5.554138943069384,1002.9767222678437,1,1
21.68,-8.161783,4.8132133,-1.9540261000000003,1002.9705,5.548603384782307,1002.9765497281744,1,1
21.72,-7.631255,5.8237239999999995,-0.9929446,1002.9911,5.543795984218155,1002.9764496531012,1,1
21.76,-7.205881599999999,6.019153599999999,0.15277877,1002.98816,5.539107932106357,1002.9764033840158,1,1
21.8,-7.9324407999999975,5.942889,0.60727894,1002.9904,5.535664466862927,1002.9764128884692,1,1
21.84,-8.338754,5.880925,-0.41535518,1002.9680000000001,5.533919453148081,1002.9763910002057,1,1
21.88,-9.11789,5.423336,-1.3338324,1002.9681,5.534679202805052,1002.9763418121356,1,1
21.92,-10.781277000000001,4.8561163,-0.61893857,1002.9630000000001,5.54003599184899,1002.9762503190327,1,1
21.96,-12.344288,4.722653,0.10542404,1002.9580699999999,5.5522966840297165,1002.9761040265787,1,1
22.0,-8.553649,5.2040690000000005,-0.03185052,1002.9907,5.563952357194158,1002.9760273080707,1,1
22.04,-7.1531850000000015,5.108738,1.128077,1002.9833,5.572640962373736,1002.975985701288,1,1
22.08,-7.4686694000000005,4.8275122999999995,1.9755337,1002.9786,5.579191090142622,1002.9759583490103,1,1
22.12,-7.5403756999999985,4.9848084,1.9613298,1002.9561,5.584118323763545,1002.975862690481,1,1
22.16,-8.152208,4.8179793,1.4736844999999998,1002.9736,5.588288098893057,1002.9757700209187,1,1
22.2,-8.620646,4.584418299999999,1.4310732,1002.9530599999999,5.5923652412003415,1002.9756063820184,1,1
22.24,-6.5271099999999995,4.9848099999999995,0.49365950000000003,1002.9685,5.5929362612963915,1002.9754362077107,1,1
22.28,-7.674289999999999,4.6463847000000005,0.6356892,1002.9780000000001,5.591999423192352,1002.9752950713447,1,1
22.32,-7.177208,4.593953,0.4037017000000001,1002.9759,5.588771996745253,1002.9751725409948,1,1
22.36,-7.4688025,5.4185677000000005,0.64515394,1002.9808,5.58502615903057,1002.9750845320302,1,1
22.4,-7.5500774,6.06682,0.45577613,1002.9713,5.581763567141619,1002.9749931429936,1,1
22.44,-8.190588,6.23365,-0.06974444,1002.96075,5.580180307827592,1002.974861116326,1,1
22.48,-9.906556,6.8628364,0.9812917999999999,1002.9886,5.583824138303563,1002.9747939175439,1,1
22.52,-9.332988,7.282292999999999,1.1233231000000001,1002.98096,5.591657251781541,1002.9747567385969,1,1
22.56,-7.6313963000000005,7.2679934999999976,-0.47217292,1002.95575,5.600374652854409,1002.9746554630203,1,1
22.6,-8.635163,6.553011,-0.18810944,1002.9638,5.610450138116585,1002.974526896254,1,1
22.64,-7.091322,4.5605907,-1.4995428,1002.9685,5.6169542299604345,1002.9743915978328,1,1
22.68,-7.091322,4.5605907,-1.4995428,1002.9685,5.620279223849212,1002.9742508383954,1,1
22.72,-7.3159994999999975,4.184034,-0.7325716,1002.9834599999999,5.620567355013553,1002.9741596163384,1,1
22.76,-8.4775095,4.0076713999999996,-0.8272613000000001,1002.9812,5.6201534949573375,1002.97410435791,1,1
22.8,-9.204058,4.0124383,-0.9645608,1002.9759,5.620520398138354,1002.9740619958742,1,1
22.84,-8.205097,4.365164,-0.8130615,1002.96106,5.620001696600584,1002.9739777575943,1,1
22.88,-7.6267580000000015,4.6749906999999995,-0.51952994,1002.9657599999999,5.617935685179195,1002.9738737407226,1,1
22.92,-7.621987,4.7846217000000015,-0.6378908000000001,1002.9861,5.614637200251441,1002.9738258459483,1,1
22.96,-8.653653,4.265048,-0.5620696999999999,1002.9530599999999,5.611596144216857,1002.9737087690803,1,1
23.0,-8.094402,4.217382,-0.51945883,1002.9713,5.607708534790891,1002.973596648391,1,1
23.04,-7.210124,4.4128110000000005,-0.6520209,1002.9862699999999,5.6017077959848685,1002.9735432026157,1,1
23.08,-7.9987774000000025,3.9123218,-0.70883244,1002.9655,5.5948051998927335,1002.9734670223993,1,1
23.12,-8.419387,3.821757,-1.3479756999999999,1003.0115,5.58798575157808,1002.9735366282796,1,1
23.16,-9.255838,4.055318,-1.7172581000000002,1002.96606,5.58314782856021,1002.9735712161732,1,1
23.2,-9.595198,4.060084,-1.4852717,1003.0160000000001,5.580647782653132,1002.9737545216581,1,1
23.24,-11.7174015,5.204057,0.7209635,1003.0059,5.585038592175846,1002.9740322141065,1,1
23.28,-11.062563,5.494817299999999,1.3790463,1002.9859,5.5946449496143815,1002.9743203071832,1,1
23.32,-9.1840925,5.8427753,1.6631113000000002,1002.9934,5.605879225789397,1002.9746435531197,1,1
23.36,-6.660342,5.5186496,1.8240824,1002.97644,5.613997947562373,1002.9749356404379,1,1
23.4,-7.133528699999999,4.17448,1.6205043,1002.98145,5.618467223704632,1002.9752171804868,1,1
23.44,-9.265293,3.1401365,0.78251714,1002.9633,5.622588217592972,1002.9754230474243,1,1
23.48,-9.289186,3.3879974,0.92454994,1002.9710699999999,5.626629148090961,1002.9755892804795,1,1
23.52,-7.9221473,4.512904,0.63101816,1002.95355,5.628939311605703,1002.9756568225972,1,1
23.56,-6.932714,5.246954,0.006078002,1002.9630000000001,5.628787420813557,1002.9756709382514,1,1
23.6,-6.789313000000001,5.289852,-0.2827201,1002.9934,5.626288157988482,1002.9757472354657,1,1
23.64,-7.778712,4.408039,-0.04126353,1002.9736,5.622408620596832,1002.9758069216364,1,1
23.68,-7.8886330000000005,4.3317738,0.4747879,1002.971,5.617471550417132,1002.9758423554186,1,1
23.72,-8.1993065,4.6415997,0.18599047,1002.9984,5.6124732207070425,1002.9759548722296,1,1
23.76,-8.562557,5.270785,0.3185551,1002.9862699999999,5.608760741972506,1002.9760914265436,1,1
23.8,-8.6438,5.485279,-0.08860244,1002.9786,5.606567609658713,1002.9762211167998,1,1
23.84,-8.466925999999999,6.3289595,0.6736386,1002.9635599999999,5.606461947169112,1002.9762901310901,1,1
23.88,-8.227929,6.5053220000000005,0.43691903,1002.9759,5.608005095525392,1002.9763497076443,1,1
23.92,-8.839729,5.9238014,-0.1690835,1002.9561,5.611299630078747,1002.9763294505408,1,1
23.96,-9.031608,5.618759,-0.22595909,1002.98645,5.616123054354309,1002.9763479853419,1,1
24.0,-8.563201,4.7512455000000005,-0.5100246,1002.94824,5.620548932025682,1002.976263173945,1,1
24.04,-7.7602077000000005,4.2888904000000005,-0.28750888,1002.9406,5.622664089841804,1002.9760598471685,1,1
24.08,-7.1006089999999995,3.9266322,-0.9219204,1002.9655,5.621264606413669,1002.9758421721788,1,1
24.12,-7.6741990000000015,3.6215724999999996,-1.3953621,1002.9530599999999,5.617665769733748,1002.975567818738,1,1
24.16,-10.035437,3.5119423999999997,-0.73254675,1002.9888,5.616413248861876,1002.9753730358904,1,1
24.2,-10.346136999999999,3.9552326,-0.0744658,1002.9655,5.6181097983084936,1002.9751653828372,1,1
24.24,-7.0767727,5.5615625,-0.3869384,1002.9759,5.618108451663778,1002.9749845452208,1,1
24.28,-6.355029,5.7236257,-0.7940978,1002.9759,5.615734693127041,1002.9748280527403,1,1
24.32,-6.8808217,4.9419107,-1.201258,1002.98145,5.6112046449153565,1002.9747136149948,1,1
24.36,-8.204842,3.9647672,-0.88878846,1002.9710699999999,5.606031539896655,1002.9745993807886,1,1
24.4,-8.400834,3.6025093,-0.56685084,1002.95575,5.60031392026504,1002.9744305856732,1,1
24.44,-8.663730000000001,3.7645720000000003,-0.6568053,1002.98096,5.594781829675736,1002.9743049442012,1,1
24.48,-8.82625,4.0124335,-0.7751659000000001,1002.96826,5.5899684386068555,1002.9741721655968,1,1
24.52,-7.736476,5.204073,-1.546876,1002.9685,5.5852357289234105,1002.9740344226262,1,1
24.56,-8.123653,5.261272,-1.2344064,1003.0060000000001,5.581226541123444,1002.9740277890158,1,1
24.6,-9.619753999999999,5.213607,0.24746034,1002.9707599999999,5.580339372815124,1002.9740101635173,1,1
24.64,-10.29372,5.2183743,0.550461,1002.9830300000001,5.583480804559739,1002.9740270610381,1,1
24.68,-10.159892,5.3137050000000015,0.41316256,1002.9580699999999,5.590002211010764,1002.9739845462677,1,1
24.72,-8.391385000000001,5.0420120000000015,0.11962758,1002.9728,5.595989440221987,1002.9739427158501,1,1
24.76,-7.229907499999999,4.756018599999999,0.38001856,1002.93854,5.599138476197416,1002.9737783047158,1,1
24.8,-6.7806130000000016,4.484326,0.29006422,1002.9657599999999,5.598671298873269,1002.9736041651407,1,1
24.84,-7.3972286999999985,3.4499831,0.2900623,1002.9529,5.595078790541887,1002.9733757604176,1,1
24.88,-9.223127,3.6597117999999993,0.8203144,1002.9858,5.592456424294259,1002.9732186692668,1,1
24.92,-10.097838000000001,3.6740117,1.7387881,1002.9780000000001,5.592630969356547,1002.9730970763163,1,1
24.96,-9.385309,4.4890847,1.4405515,1002.9605,5.5944816120678365,1002.972944287311,1,1
25.0,-8.897771,5.0563044999999995,1.1801593000000001,1002.9554,5.597388821009065,1002.9727461235112,1,1
25.04,-6.96195,6.305143,0.7019845,1002.9730000000001,5.599383922242264,1002.9725719399333,1,1
25.08,-6.799436599999999,5.8570867,0.8534854,1002.943,5.599725877821901,1002.9723115723399,1,1
25.12,-6.6751614,5.7331557,0.59309316,1002.9580699999999,5.598199417870184,1002.9720302418739,1,1
25.16,-7.5020675999999975,5.185002,0.63096845,1003.01105,5.5956969574271715,1002.9719221294037,1,1
25.2,-8.730477,4.927608,0.63570285,1002.98,5.5942198950490925,1002.971855681559,1,1
25.24,-8.43413,5.566326,1.0854713,1002.9579,5.5939000142496065,1002.9717467277898,1,1
25.28,-7.7123785000000025,6.0525155,0.33270094,1002.9605,5.593867791830358,1002.9716099680193,1,1
25.32,-7.325214999999999,6.3623414,0.23801285,1002.9705,5.593873693692522,1002.9714851312013,1,1
25.36,-8.567963,5.6807237,-0.008176205,1002.96783,5.595107772388358,1002.9713616669163,1,1
25.4,-9.012486,4.922841,-0.022379404,1002.9580699999999,5.59740028164091,1002.9712047238736,1,1
25.44,-8.214258000000001,4.8894753,-0.45794466,1002.98553,5.599166804896333,1002.9711176199949,1,1
25.48,-7.6598015,4.7178793,-0.8509003,1002.9653300000001,5.599352330843713,1002.9710198195756,1,1
25.52,-7.578544,4.627315,-0.71360254,1002.98553,5.597873889559003,1002.9709856397748,1,1
25.56,-7.650241,4.41282,-0.9408540000000001,1002.9755,5.594875433775889,1002.9709716901992,1,1
25.6,-8.328973,4.303189,-1.2296528,1002.9579,5.591736762032715,1002.97091230627,1,1
25.64,-9.112861,4.1554255,-0.9124475000000001,1003.00494,5.5897363758106025,1002.9709823343272,1,1
25.68,-8.677899,4.255523,-0.94558835,1002.99554,5.588030362649731,1002.9711326187152,1,1
25.72,-8.701798,4.274589499999999,-0.9124475000000001,1002.9554,5.586645787051445,1002.9712087725728,1,1
25.76,-8.68268,4.355621299999999,-0.6993993000000001,1002.99036,5.585552732764144,1002.9713450065403,1,1
25.8,-8.582303,4.679747,-0.12653632,1002.9825,5.584798145110158,1002.9715055408507,1,1
25.84,-8.587083,4.560582599999999,-0.45794466,1002.9725,5.584257415784142,1002.97165096902,1,1
25.88,-8.548844,4.3079553,-0.21175560000000002,1002.97,5.583578153561579,1002.971773525862,1,1
25.92,-8.113883,4.560582599999999,-0.80829066,1002.96765,5.582295658174805,1002.9718669723944,1,1
25.96,-8.190132,4.6320760000000005,-1.0875998,1002.9775400000001,5.58075319636472,1002.9719699646497,1,1
26.0,-8.954897,4.646375,-0.9692392,1002.99286,5.5803647860372365,1002.972136172734,1,1
26.04,-8.118422,4.918069,-1.0733953,1002.985,5.579786565109504,1002.9723293439753,1,1
26.08,-7.9606752000000025,4.4700120000000005,-1.0118466999999998,1003.06256,5.5782805483991735,1002.9728248604456,1,1
26.12,-8.486445,4.1697187000000016,-0.25907559999999996,1003.10736,5.576528265880861,1002.9737470253017,1,1
26.16,-8.113616,4.441413,0.006051467,1002.95984,5.5741295877794075,1002.974511784877,1,1
26.2,-8.734982,4.4795446,0.33746058,1002.9148,5.572358784437281,1002.9749725640124,1,1
26.24,-9.093458,4.54151,0.034459498,1002.9176,5.571860170307238,1002.9751731672258,1,1
26.28,-7.549572,4.9562,-0.44371456,1002.9348,5.570154235952241,1002.9752050768233,1,1
26.32,-7.4922104,5.0562973,-0.31588522,1002.965,5.5673925163757065,1002.9751965338668,1,1
26.36,-7.9606179999999975,4.9133005,-0.53840107,1002.9522,5.564385374676019,1002.9751061977887,1,1
26.4,-8.634561,4.808436,-0.60468197,1002.9498,5.562276635129749,1002.9749352745184,1,1
26.44,-8.290405999999999,4.841801599999998,-0.77985406,1002.96234,5.560409607571748,1002.974738903728,1,1
26.48,-8.180461,4.837035,-0.7277748,1002.9647,5.558552952555711,1002.9745292504442,1,1
26.52,-8.639315,4.7941356,-0.8603373,1002.9523300000001,5.557515268926642,1002.9742640835012,1,1
26.56,-7.893656,4.9132996,-0.6188818,1002.9621,5.55595933150178,1002.9739859912896,1,1
26.6,-7.649881,5.1277947,-1.1159940000000002,1003.05756,5.553864673153999,1002.9740411354428,1,1
26.64,-8.0991745,4.9323654,-0.34428516,1002.9697,5.551742684661276,1002.9740742327292,1,1
26.68,-8.070485000000001,4.7703023,-0.22118984,1002.9422599999999,5.549372182040122,1002.9739889462537,1,1
26.72,-8.629710000000001,4.613005,-0.70883226,1002.9572,5.5476914805438815,1002.973853146917,1,1
26.76,-8.099148,4.9657307,-0.55259657,1002.9545,5.546013989899645,1002.9736634832943,1,1
26.8,-7.869708,5.1945252,-0.34428190000000003,1002.9572,5.544178007249589,1002.9734366279775,1,1
26.84,-8.108689,5.0181623,-0.37742195,1002.9523300000001,5.542432140875409,1002.9731601947592,1,1
26.88,-8.333326,4.865632,-0.82245475,1002.9721,5.541066192585587,1002.9729121216658,1,1
26.92,-8.299864,4.8560989999999995,-0.7277663000000001,1002.9721,5.539955255346336,1002.9726900006427,1,1
26.96,-8.13246,4.794131,-0.3205973,1002.9597,5.538662545604584,1002.9724469705043,1,1
27.0,-8.208931,4.803664,-0.5194417,1002.98224,5.537379109901332,1002.9722674839802,1,1
27.04,-8.543503999999999,4.7321653,-0.3821428,1002.9617,5.536625358218175,1002.9720708467453,1,1
27.08,-8.079851,4.9180613,-0.7703629,1002.9646,5.535752598823788,1002.971870203036,1,1
27.12,-8.452656,4.941893599999998,-0.5573129,1002.97705,5.535436509665859,1002.9717115615238,1,1
27.16,-8.237552,5.065823,-0.9786736999999999,1002.9646,5.535432199912666,1002.9715457842619,1,1
27.2,-8.027234,5.123022,-0.7324841,1002.9795,5.535351865380181,1002.9714279386501,0,0
27.24,-8.051115,4.9418926,-0.11700978,1002.957,5.534990006005267,1002.9712718696884,0,0
27.28,-8.242293,4.794128400000001,-0.38213527,1002.9543,5.534578646532851,1002.9710728684227,0,0
27.32,-8.538629,4.7178629999999995,-0.47682223,1002.9593,5.534590959868192,1002.970854648578,0,0
27.36,-8.471705,4.798895,-0.5573064999999999,1002.9545,5.534947344632828,1002.9706029527887,0,0
27.4,-8.247048,4.913292,-0.68040043,1002.9292,5.535339091437434,1002.9702315037587,0,0
27.44,-7.9554677,5.0944204000000015,-0.64725846,1002.9496,5.535438917694318,1002.9698290179828,0,0
27.48,-8.380851,4.751228299999998,-0.2969108,1002.98956,5.535632823289081,1002.9695444130864,0,0
27.52,-8.414304,4.6844964000000004,-0.32531659999999996,1002.9692,5.5359037524025085,1002.9692916963126,0,0
27.56,-8.175294000000001,4.9609559999999995,-0.35845572,1002.97705,5.5361036889894235,1002.9690963256644,0,0
27.6,-8.1944,5.199283,-0.21168801,1002.9593,5.53652596796,1002.9688884293877,0,0
27.64,-8.156157,5.323214,-0.34898517,1002.97705,5.537223937309873,1002.9687341138916,0,0
27.68,-7.7880917,5.432844,-0.28270176,1002.9642,5.537652045526348,1002.9685814379093,0,0
27.72,-7.768965700000001,5.3565793,-0.24009155,1002.9695,5.537714765092325,1002.9684498402347,0,0
27.76,-8.041396,5.29938,-0.0033695540000000003,1002.9671,5.537851132807622,1002.9683287011047,0,0
27.8,-7.9553533,5.1945157,-0.3395117,1002.97955,5.537795604161746,1002.9682620592453,0,0
27.84,-8.485887,4.517664,-0.7608714,1002.9748,5.537854264017992,1002.9682267110852,0,0
27.88,-8.270788,4.68926,-1.0259975000000001,1002.98975,5.537845794505948,1002.9682729612912,0,0
27.92,-8.122602,4.722625700000001,-0.8508234,1002.99725,5.5375106414341655,1002.9684181453121,0,0
27.96,-7.989045599999999,4.8084297,-0.8319112,1002.9951,5.536737000850335,1002.96864248459,0,0
28.0,-7.812191499999999,4.937126999999999,-0.18803196,1002.99475,5.5353332579599765,1002.9689346978316,0,0
28.04,-8.137217,4.832262999999998,-0.12175023,1002.9873,5.533837648434075,1002.9692590125394,0,0
28.08,-8.419224,4.5510364,-0.11701569999999999,1002.9772300000001,5.532487796117114,1002.9695742725702,0,0
28.12,-7.9555817,4.7321653,-0.344267,1002.98724,5.5306308966746185,1002.9699164329522,0,0
28.16,-8.371423,4.789364,-0.22590679,1002.9596,5.529131337434757,1002.9701816267074,0,0
28.2,-7.926900999999999,4.9752593,-0.86031693,1002.9772300000001,5.527435571774586,1002.9704413260527,0,0
28.24,-8.328402,4.908528,-0.5573149000000001,1002.9697,5.526164810751052,1002.9706681276207,0,0
28.28,-8.443116,4.703565599999999,-0.48629865,1002.9772300000001,5.5252612432446515,1002.9708921522267,0,0
28.32,-8.940214,4.498604,-0.38214162,1002.9801,5.52538880445336,1002.9711232486206,0,0
28.36,-8.624746,4.5033703,-0.59518975,1002.9547,5.525870671193997,1002.9712683216992,0,0
28.4,-8.476571,4.6606665000000005,-0.6093929,1002.9801,5.526548890625222,1002.9714283023137,0,0
28.44,-8.170663000000001,4.6654334,-0.48629826,1002.98224,5.526834569571947,1002.9716085832956,0,0
28.48,-8.242358,4.5701017,-0.1075457,1002.9547,5.5267802424837,1002.9717070086716,0,0
28.52,-8.318833999999999,4.589168,-0.33006266,1002.9951,5.5265945949023365,1002.971878192103,0,0
28.56,-9.097941,4.37944,-0.44368824,1002.9748,5.527541557471955,1002.9720399682914,0,0
28.6,-8.85895,4.408039,-0.66147083,1002.9673,5.529091498957844,1002.9721658498453,0,0
28.64,-8.089399,4.5415025,-1.1869896999999998,1002.97015,5.529995471806156,1002.9722698217267,0,0
28.68,-8.232793,4.5415025,-0.95973796,1002.95984,5.530530193341197,1002.9723169439231,0,0
28.72,-8.304489,4.4366384000000005,-0.99761313,1002.9878,5.53077168856662,1002.972414320098,0,0
28.76,-8.486121,4.327008,-0.7466897,1002.9775400000001,5.53093363874331,1002.9725188141333,0,0
28.8,-8.533917,4.393739,-0.5904541,1002.9672,5.531153355530352,1002.9725919973323,0,0
28.84,-8.481338000000001,4.417571499999998,-0.6093917,1002.95514,5.5313516643121465,1002.9725938348164,0,0
28.88,-8.285364,4.751231,-0.98340946,1002.97504,5.531570339305228,1002.972604264612,0,0
28.92,-8.35731,4.632073,-0.9502914000000001,1002.9878,5.531807871854634,1002.9726681850267,0,0
28.96,-8.376439,4.427111,-0.86507297,1002.99554,5.531877309564378,1002.9728070036392,0,0
29.0,-8.409906,4.322247,-0.9360898999999999,1002.9674699999999,5.531773070498653,1002.9729104505524,0,0
29.04,-8.577205000000001,4.1315856,-1.0686536,1002.9625,5.531678678928975,1002.9729643786225,0,0
29.08,-8.758844999999999,4.064853,-1.0165759,1002.9725,5.531861987274011,1002.9730103577024,0,0
29.12,-8.835327000000003,4.1458855,-0.9644978999999999,1002.9523300000001,5.532493185912348,1002.9729765355294,0,0
29.16,-8.424273,4.3889794,-0.9408268,1002.9449,5.532973897689429,1002.9728455747296,0,0
29.2,-8.247428999999999,4.5081434,-1.1917508999999995,1002.9599599999999,5.533172059614666,1002.9726834696976,0,0
29.24,-8.620266,4.293648999999999,-1.1207361,1002.9599599999999,5.5335792118162965,1002.9724944292008,0,0
29.28,-8.744546000000001,4.174485,-1.0449860999999998,1002.97504,5.534274861814739,1002.9723365570725,0,0
29.32,-8.548583,4.0124226,-1.1112685,1002.9680000000001,5.5347293206671395,1002.9721814496544,0,0
29.36,-8.414758,4.107754,-1.4332088,1002.9755,5.534894913154083,1002.972056343521,0,0
29.4,-8.80671,3.9981234,-1.4900225,1002.9705,5.535455162837766,1002.9719401969047,0,0
29.44,-8.1662245,4.41758,-1.5184298999999999,1002.98553,5.535576434575457,1002.9718864930462,0,0
29.48,-8.496044,4.6988077000000015,-0.42951792,1002.9325,5.535954695947615,1002.9716972489416,0,0
29.52,-8.1949215,4.746474,-0.46739355,1002.97327,5.536067006859267,1002.9715356947546,0,0
29.56,-8.075435,4.541512,-0.6188953,1002.9957,5.5355360091607775,1002.9714799369738,0,0
29.6,-8.52475,4.2221519999999995,-0.74672556,1002.9880400000001,5.5349721924061805,1002.9714902856256,0,0
29.64,-8.419603,4.3222510000000005,-1.2154323999999999,1002.98553,5.5343806784306695,1002.971549972666,0,0
29.68,-8.6108,4.3603830000000015,-1.3574648999999999,1002.9755,5.5341927407247375,1002.9716169322336,0,0
29.72,-8.596471000000001,4.5224459999999995,-1.5563107,1002.9685,5.534550183764948,1002.971664876751,0,0
29.76,-8.414842,4.574879,-1.5989207,1002.99054,5.535124729888654,1002.9717751909703,0,0
29.8,-8.376616,4.5033803,-1.1491536,1002.9755,5.5356167688280475,1002.9718860739273,0,0
29.84,-8.629951,4.3317842,-0.7940735,1002.9833,5.5362609046130045,1002.9720251402417,0,0
29.88,-8.414873,4.460482,-1.0970768,1002.9685,5.536825620189253,1002.9721353287323,0,0
29.92,-8.324065,4.5987124,-1.1112806999999998,1002.9681,5.537292484036474,1002.9722181640992,0,0
29.96,-8.247375,4.703571,-1.168074,1002.9710699999999,5.537653180927997,1002.9722872240384,0,0
30.0,-8.2234745,4.7131047,-1.5278888000000002,1002.9960000000001,5.5379910098352285,1002.9724336113943,0,0
30.04,-8.486364,4.5987067,-1.3763877,1002.9736,5.538617573899188,1002.9725671582613,0,0
30.08,-8.376429,4.63684,-1.4000598,1002.9907,5.539343375210863,1002.9727504385028,0,0
30.12,-8.280832,4.4080449999999995,-1.1207299,1002.9555,5.539679737147463,1002.9728502833457,0,0
30.16,-8.252153,4.3842125,-1.0165731,1002.9783,5.539570833187796,1002.9729581252286,0,0
30.2,-8.266492999999999,4.322247,-1.2012148,1002.9836,5.539080696790415,1002.9730917250656,0,0
30.24,-8.5102625,4.3842125,-1.2059492,1002.9657599999999,5.538761668489139,1002.9731833796716,0,0
30.28,-8.299952000000001,4.3603787,-1.3290436,1002.9888,5.538221893523861,1002.9733205855143,0,0
30.32,-8.190016,4.312713,-1.3195748,1002.9685,5.537240363087263,1002.9734244664893,0,0
30.36,-8.725354,4.0362535,-1.0449795,1002.9630000000001,5.536538404248037,1002.9734787276393,0,0
30.4,-8.615418,4.05532,-0.8414,1002.9605,5.5358551150255835,1002.973479949372,0,0
30.44,-8.615418,4.05532,-0.8414,1002.9834599999999,5.535190782117711,1002.9735169570772,0,0
30.48,-8.34775,4.508141999999999,-0.8698065,1002.9783,5.534478709336946,1002.9735668760402,0,0
30.52,-8.4051075,4.8322687,-1.0355107,1002.9988,5.534191078833731,1002.973701823682,0,0
30.56,-8.481585,4.837035,-1.1586052,1002.9884,5.534450149729683,1002.9738739768532,0,0
30.6,-8.538941000000001,4.860868,-1.2343556,1002.9909,5.535337599921224,1002.9740873850784,0,0
30.64,-8.505484,4.4795427000000005,-1.5326229999999998,1002.9635599999999,5.536427100753055,1002.9742380539999,0,0
30.68,-8.338189999999999,4.3603787,-1.1396674999999998,1002.9886,5.537158811550604,1002.9744228880647,0,0
30.72,-8.409887,4.3174800000000015,-0.9408226000000001,1002.9735,5.537617175299766,1002.9745828850473,0,0
30.76,-8.667997,4.508141999999999,-1.0875891000000002,1002.9907,5.53851924719183,1002.9747822799948,0,0
30.8,-8.897428,4.6463722999999995,-0.87454087,1002.9659,5.540319400995859,1002.9749264891625,0,0
30.84,-8.467245,4.655906,-0.992901,1002.9555,5.542154582756712,1002.9749839770219,0,0
30.88,-8.127879,4.355613,-1.2911686000000002,1002.9780000000001,5.543177632368032,1002.9750456309777,0,0
30.92,-8.629758,3.7550266000000003,-1.3006374,1002.9907,5.543873136410181,1002.9751564641408,0,0
30.96,-8.682336,3.6930614,-1.1586052,1002.97565,5.544287589471342,1002.9752561730536,0,0
31.0,-8.586471000000001,3.9599817,-1.073361,1002.9685,5.544473740656475,1002.9753199536252,0,0
31.04,-8.486089999999999,4.1554103,-1.0544232,1002.98096,5.5444391308874765,1002.9753966143056,0,0
31.08,-8.3426895,4.3460727,-1.1207042999999999,1002.9663,5.5441386046461965,1002.9754316038714,0,0
31.12,-8.046332000000001,4.5462675,-1.1254378999999999,1002.9630000000001,5.543264913297156,1002.9754177668774,0,0
31.16,-8.438267,4.369905,-1.1491089,1002.9761,5.542431943198806,1002.9754079965487,0,0
31.2,-8.500389,4.0886774,-0.9313249,1002.971,5.541443791354887,1002.9753834946993,0,0
31.24,-8.53861,4.064844,-0.93132347,1002.96826,5.540372111875701,1002.9753362002838,0,0
31.28,-8.466905,4.3031726,-1.0828233999999999,1002.96075,5.5393482578346855,1002.9752419006172,0,0
31.32,-8.466905,4.3031726,-1.0828233999999999,1002.96606,5.538370348225384,1002.9751255225896,0,0
31.36,-8.261362,4.6654305,-1.2390579,1002.95575,5.537455389959388,1002.9749529390832,0,0
31.4,-8.342599,4.5939309999999995,-0.77035,1002.97327,5.536571632919659,1002.9747943857162,0,0
31.44,-8.342599,4.5939309999999995,-0.77035,1002.9735,5.535718626808807,1002.9746496281723,0,0
31.48,-8.141832,4.1983065999999996,-1.2059138,1002.96075,5.534240384528924,1002.9744716817456,0,0
31.52,-8.390377,3.9409125,-1.201179,1002.9605,5.532438945955104,1002.9742641502282,0,0
31.56,-8.7823,4.050543,-1.1538329999999999,1002.9755,5.531174562844505,1002.9740852244388,0,0
31.6,-8.677139,4.3031707,-1.0118004,1002.9456,5.530385724316592,1002.9738245788033,0,0
31.64,-8.156131,4.6320624000000015,-1.0260028,1002.9884,5.529390911419191,1002.9736467438361,0,0
31.68,-8.04141,4.722626999999999,-1.0023303,1002.9735,5.5281006937239265,1002.9734890805812,0,0
31.72,-8.457243,4.517665,-0.85082835,1002.9579,5.527066575447818,1002.9732936486392,0,0
31.76,-8.834838000000003,4.0267095999999984,-0.8318898000000001,1002.9681,5.526509539730369,1002.97310226784,0,0
31.8,-9.040359,3.9027786,-0.62357503,1002.9707599999999,5.526629127538303,1002.9729247316016,0,0
31.84,-8.653185,3.9742763,-1.1159523999999998,1002.9780000000001,5.526765923125764,1002.9727861315477,0,0
31.88,-8.481096,4.1411050000000005,-1.1822325,1002.96606,5.5267604608175285,1002.9726394504663,0,0
31.92,-8.710517,3.9790427999999998,-1.1822315,1002.97327,5.526914405147163,1002.9725121130408,0,0
31.96,-8.567112,4.117272,-1.0922768999999999,1002.96783,5.5270395776227,1002.9723827420853,0,0
32.0,-8.528864,4.322234,-0.8792279000000001,1002.9630000000001,5.5272099887569714,1002.9722346520372,0,0
32.04,-8.356786,4.5176625,-0.6235695,1002.9786,5.5272499479156805,1002.9721267149235,0,0
32.08,-8.208608,4.63206,-0.41998965,1002.9555,5.526996817487979,1002.9719714855161,0,0
32.12,-8.477314999999999,4.2316947,-1.0166198,1002.9605,5.526682030201611,1002.9717930274637,0,0
32.16,-8.735437,3.9647682,-1.1160434,1002.98096,5.5265811567499075,1002.9716683430299,0,0
32.2,-8.807162,3.8408379999999998,-0.7893720000000001,1002.9786,5.526633952119969,1002.9715831258293,0,0
32.24,-8.725931,3.8456056000000003,-0.9030001,1002.948,5.526693073957175,1002.9714229286577,0,0
32.28,-8.434415,4.2602970000000004,-0.7941136,1002.9529,5.526558476831506,1002.9712146958938,0,0
32.32,-8.334066,4.3508625,-0.9692889000000001,1002.9904,5.526187996575844,1002.9710997685183,0,0
32.36,-8.577863,4.231699,-0.81305605,1002.9755,5.5259182972584275,1002.9710140595228,0,0
32.4,-8.69259,4.1935663,-0.5668681999999999,1002.9825,5.525881055972644,1002.9709796764399,0,0
32.44,-8.687837,4.341330999999999,-0.3869632,1002.9730000000001,5.526157298397816,1002.9709565687127,0,0
32.48,-8.582707000000001,4.2364674,-1.1018608,1002.9880400000001,5.5265322624240865,1002.9709976510776,0,0
32.52,-8.453692,4.031505999999999,-0.8320033000000001,1002.9655,5.526511144376566,1002.9710141599112,0,0
32.56,-8.654458,4.04104,-1.0450528000000001,1002.9579,5.5265677754876625,1002.9709815361412,0,0
32.6,-8.65925,3.9743078,-0.8083336999999999,1002.985,5.5265963376299405,1002.9710031762476,0,0
32.64,-8.205209,4.060107,-0.8414780999999999,1002.9726,5.525833884184324,1002.9710280460114,0,0
32.68,-8.272139,4.0029087,-0.9456361999999999,1002.97784,5.524468579606422,1002.9710745439688,0,0
32.72,-8.754926,3.8885121,-0.8746225000000001,1002.965,5.523367804375472,1002.9710937612058,0,0
32.76,-8.7119465,4.2078724,-1.2770504999999999,1002.9628,5.522794414168644,1002.9710808840159,0,0
32.8,-8.578125,4.3699355,-1.0971444,1002.96014,5.522544726912749,1002.9710301185486,0,0
32.84,-8.20534,4.3794703,-1.2675865,1002.98553,5.5219532750242735,1002.9710374617548,0,0
32.88,-8.563851,4.112543,-1.0024623,1002.98755,5.521406921113386,1002.9711033953496,0,0
32.92,-8.5113,3.9981459999999998,-1.1066216,1002.9576400000001,5.520726952691381,1002.9711131860506,0,0
32.96,-8.707284,3.983847,-0.88410574,1002.96014,5.520238214390817,1002.9710823336444,0,0
33.0,-8.578257,4.1125445,-0.68052876,1002.96014,5.519756690610031,1002.9710156800568,0,0
33.04,-8.688217,4.422372,-0.912517,1002.97015,5.519811523520487,1002.9709536684987,0,0
33.08,-8.296301,4.617801,-0.91251945,1002.98474,5.519814314467991,1002.9709485058796,0,0
33.12,-8.557642999999999,4.4795327,-1.125426,1002.95984,5.5201574587792255,1002.9709039535679,0,0
33.16,-8.481129,4.5176644,-1.1964386999999999,1002.9723,5.520714885422258,1002.9708696129126,0,0
33.2,-8.442853999999999,4.50813,-0.9549806999999999,1002.99225,5.521324689203073,1002.9709162389032,0,0
33.24,-8.046075,4.746457,-0.7561306999999999,1002.9851,5.521466691961233,1002.9710084991682,0,0
33.28,-7.940882000000001,4.6844907,-0.8744874,1002.99005,5.520963587419944,1002.9711585697414,0,0
33.32,-7.940882000000001,4.6844907,-0.8744874,1002.9773,5.519892277245206,1002.9713132812487,0,0
33.36,-8.844192,4.3746624,-1.030716,1002.9418,5.519693789712262,1002.9713437365243,0,0
33.4,-8.825035,4.493826,-0.8602741,1002.9596,5.520308684570629,1002.9713283693544,0,0
33.44,-8.52387,4.598689,-0.7703171,1002.9621,5.521172903794783,1002.9712815687932,0,0
33.48,-7.978936,4.732151999999999,-0.73717284,1002.9392,5.521402292369549,1002.9711247221696,0,0
33.52,-7.8689833,4.703551999999998,-0.8176561,1002.9646,5.520858001383507,1002.9709626434932,0,0
33.56,-8.069697,4.603453599999999,-1.0827793,1002.957,5.519942444361164,1002.970769165258,0,0
33.6,-7.964505,4.674950599999999,-1.0733072,1002.9621,5.5185858192427375,1002.9705669988948,0,0
33.64,-8.126982,4.6987830000000015,-0.9454748,1002.9545,5.517130596269814,1002.9703305235,0,0
33.68,-8.160421000000001,4.7750473,-1.0401613,1002.9692,5.515753121129237,1002.9701175039568,0,0
33.72,-8.07433,5.165903599999999,-1.2484701,1002.9646,5.514770588987823,1002.969909416874,0,0
33.76,-8.427999999999999,5.089638,-1.111169,1002.9795,5.514642832852343,1002.9697600772267,0,0
33.8,-8.619137,4.9609394,-0.7371459,1002.9566699999999,5.515403963180742,1002.9695809964363,0,0
33.84,-8.370549,4.9895377,-0.7418769000000001,1002.9692,5.516533888378628,1002.9694213890633,0,0
33.88,-8.270156,5.084869,-0.8791730999999999,1002.97705,5.517933692629422,1002.9693078229874,0,0
33.92,-7.8160186000000005,5.142066000000002,-0.8744334999999999,1002.9488,5.518836412942653,1002.9691336478404,0,0
33.96,-7.9354954,5.061033999999999,-0.92177594,1002.9613,5.5194223579724335,1002.9689515455476,0,0
34.0,-8.11233,5.089633,-1.0259311,1002.9738,5.520088983717512,1002.9688080943982,0,0
34.04,-8.20311,4.9323354,-1.2437103999999999,1002.94135,5.520867500649335,1002.9685824918226,0,0
34.08,-7.643836,4.918035,-1.1206125,1002.9786,5.520715059681209,1002.9684192124164,0,0
34.12,-8.542937,4.489057,-0.8223906999999999,1002.95636,5.520836810492941,1002.968231525568,0,0
34.16,-8.37085,4.7273846,-0.95968693,1002.9588,5.52114996636554,1002.9680317319768,0,0
34.2,-8.131844000000001,4.960945,-0.9738888000000001,1002.9641,5.52145241306237,1002.9678410401248,0,0
34.24,-8.423382,4.374658,-1.0022925,1002.9561,5.521680090873655,1002.9676302770596,0,0
34.28,-8.7723,4.13633,-0.90286934,1002.95105,5.522248500372638,1002.967384357818,0,0
34.32,-8.89178,4.126796700000001,-0.76083577,1002.9763,5.523306593247306,1002.967199159888,0,0
34.36,-8.901332,4.150629,-0.53831804,1002.9941,5.524801819189482,1002.9671323620212,0,0
34.4,-8.877417999999997,4.0552983,-1.1963989,1002.9663,5.526670954231074,1002.967070342923,0,0
34.44,-9.192869,3.9885660000000014,-0.9738805,1002.96826,5.529352587643262,1002.9670198256133,0,0
34.48,-8.867835000000003,4.122029,-0.74189395,1002.9736,5.532200170743667,1002.966998877146,0,0
34.52,-8.203427,4.1315620000000015,-0.8081743,1002.966,5.533964998005729,1002.9669767711227,0,0
34.56,-7.8783702999999985,3.874167,-1.5893482,1002.95325,5.53414636756375,1002.9669078218648,0,0
34.6,-8.380235,4.179226,-1.3905017,1002.9707599999999,5.53406089214683,1002.9668607661412,0,0
34.64,-7.935697599999999,4.517651,-1.7976590000000001,1002.966,5.533406513648491,1002.9668160889461,0,0
34.68,-7.978708,4.593916,-1.7692521,1002.9607,5.5323939979877865,1002.966754594256,0,0
34.72,-8.915534,4.5748496,-1.1253718000000001,1002.94794,5.532541447209042,1002.9666325250087,0,0
34.76,-8.351495,4.8036437,-1.1348383,1002.9761,5.532917832387028,1002.9665587475316,0,0
34.8,-8.021682,4.922807700000001,-1.0780249,1002.9382300000001,5.533021802070569,1002.9663915742619,0,0
34.84,-7.9308496,5.075337,-1.0638201999999999,1002.97565,5.532889690557108,1002.9662771902932,0,0
34.88,-8.050322999999999,4.9275730000000015,-1.343148,1002.948,5.5326701175618425,1002.9661103227336,0,0
34.92,-8.203269,4.8131757,-1.2531936000000001,1002.98816,5.532497722014854,1002.9660422573962,0,0
34.96,-8.346655,4.798876,-1.158505,1002.9299,5.532583900406455,1002.9658520027373,0,0
35.0,-8.141100999999999,4.813175,-1.1111587,1002.99554,5.532534982549543,1002.9657907705107,0,0
35.04,-8.1363125,4.894206,-0.9454539000000001,1002.9780000000001,5.532406975456297,1002.9657806189416,0,0
35.08,-8.370507,4.5843796999999995,-0.83182675,1002.9779699999999,5.532288583866653,1002.9658155307867,0,0
35.12,-8.447972,4.89423,-0.7277603,1002.96045,5.532616636978706,1002.9658270629826,0,0
35.16,-7.554175,5.0658264000000015,-1.1349214,1002.95514,5.532040331485375,1002.9657987794039,0,0
35.2,-8.371559,4.7512345,-1.1207216999999998,1002.9751,5.5317578883870375,1002.9658072724279,0,0
35.24,-8.763515,4.5319734,-1.0591756,1002.96,5.532217922813735,1002.9657938706833,0,0
35.28,-8.558010000000001,4.7512355,-1.1491316999999999,1002.96765,5.53319305502828,1002.9657887109672,0,0
35.32,-7.9223332,4.9466653,-1.0923221,1002.9775,5.533680018475771,1002.9658263124826,0,0
35.36,-8.037074,4.746471,-0.85086995,1002.96246,5.5336698446336765,1002.9658474184564,0,0
35.4,-8.080105999999999,4.679739499999998,-0.93609035,1002.9472,5.53324446217996,1002.9657989369887,0,0
35.44,-8.295236000000001,5.056298,-0.8035305,1002.9399400000001,5.533209671432087,1002.9656630065906,0,0
35.48,-7.965440299999999,5.27556,-0.8698133,1002.9396,5.533199210562228,1002.9654490716672,0,0
35.52,-7.7264880000000025,5.5520214999999995,-1.0875995,1002.9574,5.533174514769606,1002.9652310621108,0,0
35.56,-7.75996,5.4566903,-1.1396791000000002,1002.92706,5.53309223024353,1002.9649010130432,0,0
35.6,-7.9368505,5.1182656,-0.56208515,1002.9597,5.532764233815234,1002.96459065804,0,0
35.64,-8.247563000000001,4.989569,-0.8224796999999998,1002.9724,5.532664386997117,1002.9643445419904,0,0
35.68,-8.085075,5.137334,-0.6331058,1002.98474,5.532611954052394,1002.9642004974976,0,0
35.72,-7.999063499999999,5.103968,-0.5289513000000001,1002.9571,5.532400742054403,1002.9640476579928,0,0
35.76,-8.348015,5.132568,-0.95505005,1002.9596,5.532762106116537,1002.9638965974376,0,0
35.8,-8.319349,5.018171,-1.2154433999999998,1002.9471,5.533514442516466,1002.9637026525804,0,0
35.84,-8.104283,5.1135025,-1.1681018,1002.977,5.534323162052786,1002.9635791533552,0,0
35.88,-7.678905499999999,5.0706050000000005,-0.77041405,1002.9895,5.534307075223102,1002.9635633444876,0,0
35.92,-7.8366647,4.889476,-0.9834646,1002.9642,5.533676399857754,1002.963551667732,0,0
35.96,-7.855809700000001,4.8894763,-0.9739981,1002.9467,5.532536457258375,1002.963480684147,0,0
36.0,-8.223892,5.3375335,-0.6852029000000001,1002.94916,5.53203935447188,1002.9633664085884,0,0
36.04,-8.013607,5.6711936,-0.7088772,1002.9488,5.532142873189313,1002.963212995634,0,0
36.08,-7.817647,5.7236257,-0.6946751999999999,1002.9392,5.5325083991527615,1002.962990993163,0,0
36.12,-7.597196,5.618747,-0.47683948,1002.9738,5.5325791677443945,1002.9628337442044,0,0
36.16,-7.7262516,5.394718599999999,-0.43422994,1002.94916,5.532331089145295,1002.9626455735453,0,0
36.2,-7.893545599999999,5.19929,-0.5667934,1002.9566699999999,5.5318764388615085,1002.962457793886,0,0
36.24,-8.242474000000001,4.984795,-0.6898880000000001,1002.9692,5.531632174760202,1002.9623161437213,0,0
36.28,-8.079962,5.041994,-0.8508579,1002.9792,5.5313766679822685,1002.9622517635183,0,0
36.32,-8.271154,5.0753603,-0.74196666,1002.9463,5.53146659201632,1002.9621374508224,0,0
36.36,-8.094303,5.189757299999999,-0.7703732,1002.9941,5.531681547727486,1002.9621515093013,0,0
36.4,-7.9987080000000015,5.189757299999999,-0.8413895,1002.9588,5.531852203666296,1002.9621518659396,0,0
36.44,-8.266378,4.8370323,-0.623607,1002.9761,5.532037089106027,1002.962202394348,0,0
36.48,-8.070408,4.8036666,-0.66621673,1002.956,5.531854748485792,1002.9622247126297,0,0
36.52,-8.113428,4.8322660000000015,-0.76563925,1002.95355,5.531471175920024,1002.9622132040982,0,0
36.56,-8.099089,4.7989,-0.7798425999999999,1002.9635599999999,5.530852748832906,1002.9622078836252,0,0
36.6,-8.2042465,4.8560987,-0.55732566,1002.96606,5.530244481028328,1002.9622170500737,0,0
36.64,-8.036956,5.065827,-0.6851548000000001,1002.9588,5.529595375494669,1002.9622128481676,0,0
36.68,-8.175570500000001,5.0848937,-0.8697968,1002.93604,5.529207953285172,1002.9621149131101,0,0
36.72,-8.256828,5.008628400000001,-0.9218753000000001,1002.96625,5.529123844658662,1002.9620432640056,0,0
36.76,-8.166014,4.9943290000000005,-0.81298405,1002.9458,5.529111762732519,1002.9619214791068,0,0
36.8,-7.8218679999999985,5.046761,-0.84612495,1002.966,5.5286237633232105,1002.9618285526452,0,0
36.84,-7.9079055999999985,4.9657290000000005,-0.88873464,1002.96277,5.5277853618247486,1002.9617498320346,0,0
36.88,-7.5494223,5.1039596,-0.8508597,1002.95325,5.526167624106221,1002.9616496751074,0,0
36.92,-7.5494223,5.1039596,-0.8508597,1002.9737,5.523867088759433,1002.9616045576164,0,0
36.96,-8.457587,4.8275,-0.5667955,1002.9833,5.522223456456658,1002.9616427953937,0,0
37.0,-8.103883999999999,4.9085307,-0.7135623000000001,1002.97845,5.520639337732706,1002.9617370882304,0,0
37.04,-8.371553,4.8560989999999995,-0.4010917,1002.98834,5.519498019451136,1002.961916175863,0,0
37.08,-8.02263,5.0133953,-0.34901336,1002.98285,5.5182955380340015,1002.9621497794624,0,0
37.12,-7.8113985,5.1230035,-0.2116314,1002.9833,5.516788029795652,1002.9624323323967,0,0
37.16,-8.375378999999999,4.9132739999999995,-0.29211304,1002.97546,5.5157868805079096,1002.9627288957727,0,0
37.2,-8.346665,4.8084087,-0.65665895,1002.9633,5.515112949938507,1002.9629929951468,0,0
37.24,-8.050282000000001,4.703543,-0.4720139,1002.96045,5.514066708077523,1002.9632171985717,0,0
37.28,-8.466089,4.5700793,-0.18321197,1002.97046,5.513291744893753,1002.9634413788028,0,0
37.32,-8.246183,4.5462456,-0.57142985,1002.97546,5.512366683487601,1002.9636827314912,0,0
37.36,-8.432542,5.061033,-0.003296458,1002.9554400000001,5.512145872770777,1002.9638663168936,0,0
37.4,-8.246094,5.2278614,-0.84128284,1002.98285,5.512475570549254,1002.964096874214,0,0
37.44,-8.246094,5.2278614,-0.84128284,1002.97546,5.513290510722184,1002.9643415019153,0,0
37.48,-8.518507000000001,5.1325293,-0.4293864000000001,1002.9753,5.514852798364572,1002.9645971055452,0,0
37.52,-8.676186999999999,5.0514965,-0.3394278,1002.96,5.5172586327563895,1002.9648064073326,0,0
37.56,-8.346362,5.15636,-0.39623904,1002.9728,5.519930075607028,1002.9650201233256,0,0
37.6,-7.6484575,5.037195,-0.35362452,1002.9829,5.521467915924661,1002.9652733303328,0,0
37.64,-7.8921924,4.8417654,-0.3962309,1002.9828,5.522211585743697,1002.9655601600557,0,0
37.68,-7.9399729999999975,4.7464337,-0.5287926,1002.9853,5.522246927880094,1002.9658846662219,0,0
37.72,-8.092874,4.751199,-0.27786428,1003.0075699999999,5.521911894849498,1002.9663214670726,0,0
37.76,-8.24581,4.960927,-0.15003373,1002.9645,5.521740658955816,1002.9667008670224,0,0
37.8,-7.9685273,5.456648,-0.81758,1003.0123,5.521856176438104,1002.9672002616973,0,0
37.84,-7.4379334,5.4185143,-0.55245,1002.9674,5.521240715687504,1002.9676422458896,0,0
37.88,-7.6482267,5.256451,-0.27311847,1002.97504,5.520117708822645,1002.9680594150366,0,0
37.92,-8.260007,4.927558,-0.1500207,1003.0148300000001,5.5192463484672185,1002.9685963998007,0,0
37.96,-8.221714,4.9275565000000014,-0.29204798,1003.0048,5.518538981613345,1002.9692012124992,0,0
38.0,-8.14522,5.0800852999999995,-0.16895184,1002.9873,5.518002647662727,1002.9698007806343,0,0
38.04,-8.05435,5.347012,-0.31571347,1002.9574,5.51776843917079,1002.9702859162284,0,0
38.08,-8.039992999999999,5.3279448,-0.2636334,1002.99255,5.517752034354297,1002.9707947327407,0,0
38.12,-7.825044,5.432812,-0.29678723,1002.9898,5.517682885116792,1002.9713127419734,0,0
38.16,-7.686401400000001,5.4232793,-0.07900204,1002.9895,5.517311017141825,1002.9718359290599,0,0
38.2,-7.939703,5.4042115,-0.08373386,1003.0023,5.517083231806921,1002.9724078878253,0,0
38.24,-7.7628226,5.366079,-0.08846573,1003.0093,5.5166356764016236,1002.9730460821942,0,0
38.28,-8.111721000000001,5.28028,-0.022181496000000002,1002.987,5.516497625621948,1002.9736602248424,0,0
38.32,-8.054348,5.342245,-0.20682202,1002.992,5.516609163587887,1002.9742689044772,0,0
38.36,-7.6336837,5.4137425000000015,-0.03164522,1003.0144,5.5162993373192775,1002.9749512057463,0,0
38.4,-7.982581599999999,5.270745,-0.06478349,1002.9816,5.51604925959442,1002.9755780228068,0,0
38.44,-7.7244444,5.375609,-0.29203236,1002.98676,5.515540026198874,1002.9761721334796,0,0
38.48,-7.619275,5.3327093,-0.34884396,1002.98413,5.514577531519443,1002.9767257379897,0,0
38.52,-7.824778999999999,5.289809,-0.17840281,1003.0144,5.5135092919088935,1002.9773505302776,0,0
38.56,-7.738728,5.270743,-0.34884012,1003.01404,5.512191212774051,1002.9780346788344,0,0
38.6,-8.388739999999999,5.3422403,-0.19733535,1002.9865,5.511857812824725,1002.9786696676554,0,0
38.64,-8.273997,5.4804697,-0.38197455,1002.9814,5.5123633731381965,1002.9792405729739,0,0
38.68,-8.254849,5.3899045,-0.22100227,1003.0015,5.51346161088431,1002.979825158851,0,0
38.72,-8.379096,5.2707396,-0.060029942999999995,1003.0017,5.515158588603631,1002.9804204483597,0,0
38.76,-8.039689,5.2421393,-0.39143443,1002.9914,5.516768579983103,1002.9809859725557,0,0
38.8,-7.9631977,5.299338,-0.16418177,1003.0092,5.5182148908986255,1002.981587240234,0,0
38.84,-7.556886,5.394668,-0.055287875,1003.0216,5.518925877321409,1002.9822625662899,0,0
38.88,-7.724138000000001,5.475699,-0.045815255,1003.0113,5.519365351973208,1002.9829638191541,0,0
38.92,-7.977453,5.408966,-0.15943970000000002,1003.0216,5.519919510687966,1002.983722536436,0,0
38.96,-8.144719,5.3422339999999995,-0.2209844,1002.9758,5.520787761306711,1002.984364417895,0,0
39.0,-7.9726186000000006,5.3517665999999995,-0.31566992,1002.9884599999999,5.521648886900837,1002.9849463284476,0,0
39.04,-8.068186,5.285034,-0.58079404,1002.99365,5.522615037836429,1002.9854918378296,0,0
39.08,-7.8865395000000005,5.351765599999999,-0.5760584,1002.98114,5.523433160891327,1002.9859581833036,0,0
39.12,-7.930318400000001,5.2850523,-0.36307973,1003.0038,5.524093888564808,1002.9864344767044,0,0
39.16,-7.877742,5.270753,-0.14529723,1003.0011599999999,5.5244937235477805,1002.9869083414372,0,0
39.2,-7.662654400000001,5.4137497,-0.06954712,1003.0187400000001,5.5244598329933705,1002.9874416422856,0,0
39.24,-7.8299512999999985,5.294585700000002,-0.14529793,1002.9957,5.52418981780362,1002.9879425970037,0,0
39.28,-8.064166,5.194488,-0.16897033,1003.0234,5.524004599606147,1002.9885128872428,0,0
39.32,-7.9112160000000005,5.3803835,-0.20211153,1002.98816,5.52384450679411,1002.9890155253042,0,0
39.36,-7.763046000000001,5.418516,-0.29679996,1002.9834599999999,5.52350378796734,1002.9894396564042,0,0
39.4,-7.825189,5.41375,-0.1500339,1003.0057400000001,5.5230978992680715,1002.989873099881,0,0
39.44,-7.844310000000001,5.323185400000002,-0.13109647,1003.00824,5.522561699079884,1002.9903222113776,0,0
39.48,-7.8586526,5.242154,-0.23998815,1002.9903,5.5218474530938915,1002.990718966335,0,0
39.52,-8.006833,5.280287,-0.16423818,1002.99036,5.521275518066356,1002.9910682467364,0,0
39.56,-7.906461,5.399451,-0.23052022,1003.0007,5.520799029300326,1002.9914115452112,0,0
39.6,-7.777409599999999,5.561514,-0.11216042,1002.9878,5.520377292205233,1002.9917018821803,0,0
39.64,-7.624459700000001,5.4280504999999994,-0.09795755,1003.0001,5.51958525022242,1002.9919886571507,0,0
39.68,-7.734398,5.375618,-0.083754495,1003.00085,5.518592761284146,1002.9922739523488,0,0
39.72,-8.19326,5.184955599999999,-0.15950516,1003.01526,5.518004440335621,1002.9926087889572,0,0
39.76,-8.045093,5.194489,-0.31100659999999997,1002.99817,5.517534321308816,1002.992924670944,0,0
39.8,-8.107234,5.31842,-0.25892854,1002.9827,5.5174157875531575,1002.9931669754524,0,0
39.84,-7.7630916,5.4185176,-0.35361698,1003.0073,5.5171390675006124,1002.9934319546044,0,0
39.88,-8.025984,5.275521,-0.45777422,1003.0077,5.51701821827029,1002.9937174551463,0,0
39.92,-8.198063000000001,5.16589,-0.11216322,1003.0023,5.517191651480976,1002.9940006205867,0,0
39.96,-8.198063000000001,5.16589,-0.11216322,1002.9948,5.517624488296981,1002.9942537033355,0,0
40.0,-7.796563000000001,5.3613195,-0.21158606,1003.0298,5.517814885433588,1002.9946052939207,0,0
40.04,-8.26977,5.0705595,-0.685027,1003.0023,5.518331304387081,1002.9949436603036,0,0
40.08,-8.408859,4.941873999999999,-0.713477,1003.02765,5.519248083407448,1002.9953603836624,0,0
40.12,-7.921342,5.0848713,-0.32999229999999996,1002.9998,5.519765318416936,1002.995744583041,0,0
40.16,-7.644125,5.1182375,-0.43415022,1003.0173300000001,5.51949307161669,1002.9961617691127,0,0
40.2,-7.7732024000000015,4.9752410000000005,-0.20690088,1003.02765,5.518569416922568,1002.9966437523572,0,0
40.24,-8.026542999999998,4.918043,0.029818285,1002.9873,5.517451956945691,1002.9970359952432,0,0
40.28,-8.0648155,5.2564697,-0.5241102,1002.9748,5.516639918569205,1002.9973025314748,0,0
40.32,-7.9692539999999985,5.5090976,-0.5430510000000001,1003.0173300000001,5.516230432270555,1002.9976101417757,0,0
40.36,-7.9692539999999985,5.5090976,-0.5430510000000001,1003.0023,5.516178115138552,1002.997898829727,0,0
40.4,-7.950169,5.189739,-0.060144797,1003.0144,5.516007229155735,1002.9982133186136,0,0
40.44,-7.950169,5.189739,-0.060144797,1003.0119,5.515732190925879,1002.9985404730472,0,0
40.48,-8.141396,5.0610433,-0.07435118,1002.99945,5.5155578094256485,1002.9988328210015,0,0
40.52,-7.716027,5.3994694,-0.1832456,1002.99945,5.5151255537689545,1002.9990933614985,0,0
40.56,-7.749509,5.4519024000000025,-0.41523352,1002.9870599999999,5.5146017548512125,1002.99928025498,0,0
40.6,-7.749509,5.4519024000000025,-0.41523352,1003.0046,5.51399895398412,1002.9994645451424,0,0
40.64,-8.074580000000001,5.304139599999999,0.006124327,1003.0294,5.513695703650073,1002.9997351515674,0,0
40.68,-7.974216499999999,5.30414,-0.036486357000000004,1003.00183,5.513484348766992,1002.9999818008588,0,0
40.72,-7.916882000000001,5.3565726,-0.045957267,1002.997,5.513316790902884,1003.0001890056897,0,0
40.76,-8.237150999999999,5.251709,-0.121709816,1003.0094,5.513626617234277,1003.0004052514577,0,0
40.8,-8.227613999999999,5.2755427,-0.11697750000000001,1002.9817,5.514367008537802,1003.0005289873128,0,0
40.84,-7.854812599999999,5.456672,-0.069635555,1003.0093400000001,5.515048778273185,1003.0006700399604,0,0
40.88,-7.7496800000000015,5.523404599999999,-0.050700042,1003.02185,5.515577161799301,1003.000870921936,0,0
40.92,-7.916996000000001,5.4519067,0.20495574,1003.0017,5.516171922139174,1003.0010514059303,0,0
40.96,-7.649360700000001,5.385176,0.04398286,1002.9913,5.5162830968676255,1003.0011757765268,0,0
41.0,-7.649360700000001,5.385176,0.04398286,1002.9913,5.515966575120807,1003.0012501175902,0,0
41.04,-7.893165,5.2755456,-0.06964601599999999,1002.9909,5.515562571525952,1003.0012785449304,0,0
41.08,-7.893188,5.389944,0.001367977,1003.0013,5.515215341085553,1003.0013037405664,0,0
41.12,-7.762408,5.4995317,-0.22099102,1003.00104,5.514831776907559,1003.0013250539644,0,0
41.16,-7.7862589999999985,5.532897,-0.36775333,1002.9809,5.514507423589783,1003.0012703562886,0,0
41.2,-7.900927999999999,5.4661636,-0.07421591,1003.0037,5.5143379593071735,1003.0012307721396,0,0
41.24,-7.642771700000001,5.59486,-0.012664348999999998,1002.9936,5.51402332484855,1003.0011683248058,0,0
41.28,-7.4754314,5.5614930000000005,-0.10261374,1003.0038,5.513261670942891,1003.0011226203724,0,0
41.32,-7.508819,5.5567245000000005,-0.35353073,1002.97327,5.512170321298814,1003.0009819665016,0,0
41.36,-7.613952,5.6806545,-0.48609197,1002.99316,5.511132538775248,1003.000829525662,0,0
41.4,-7.5852020000000016,5.976179,-0.16414598,1003.0058,5.510449251393443,1003.0007127226436,0,0
41.44,-7.7429130000000015,5.9618793,-0.08365893,1003.0007,5.5103198484468825,1003.0006094696954,0,0
41.48,-7.8432179999999985,5.8570127,0.04891083400000002,1003.02625,5.510714255725268,1003.0006105412992,0,0
41.52,-7.8432179999999985,5.8570127,0.04891083400000002,1003.0053,5.511570081852215,1003.0006283702196,0,0
41.56,-7.7619386,5.8713120000000005,0.067850605,1003.0007,5.512713583819848,1003.0006443817207,0,0
41.6,-7.71885,6.019074,-0.16886322,1003.0087,5.514225742333344,1003.0006875297094,0,0
41.64,-7.704463499999999,6.0286055,-0.52867365,1003.0057,5.5160734747895885,1003.0007437001648,0,0
41.68,-7.6231594,5.8522419999999995,0.13888168,1003.01855,5.517825356605722,1003.0008574350587,0,0
41.72,-7.948115299999999,5.5281142999999995,-0.18305136,1002.9858,5.519635487028843,1003.0009037244447,0,0
41.76,-8.129725,5.4804482000000005,-0.33928459999999994,1003.0104,5.521754648217438,1003.0009788123384,0,0
41.8,-7.522642999999999,5.6663422999999975,-0.1120289,1002.99786,5.5233250277340185,1003.0010339322766,0,0
41.84,-7.6325080000000005,5.518578,-0.26352337,1002.9981,5.524412482409501,1003.001072074098,0,0
41.88,-7.570346400000001,5.432779,-0.44816300000000003,1002.9906599999999,5.524874971534857,1003.0010682927444,0,0
41.92,-7.4747276,5.4089456,-0.36767602,1003.0082,5.524586211388376,1003.0010906256866,0,0
41.96,-7.8666015,5.261181,-0.4008104,1002.99316,5.524130317406484,1003.001081808822,0,0
42.0,-7.6992617,5.6043715,-0.38660288,1003.0157,5.523650116873705,1003.0011266437283,0,0
42.04,-7.355045,5.856998,-0.08359452,1003.0075699999999,5.522883521475331,1003.0011894559344,0,0
42.08,-7.756500999999999,5.637735,-0.11199668,1002.9976,5.522255329929172,1003.0012320347583,0,0
42.12,-7.781256699999999,5.4804597,-0.27777928,1003.0028,5.521610380723912,1003.0012753020818,0,0
42.16,-7.929419999999999,5.3994279999999995,-0.3772007,1002.9851,5.5211172093866745,1003.0012553020016,0,0
42.2,-7.8481574000000025,5.4661593,-0.22096483,1003.0049,5.520689384760308,1003.0012507508432,0,0
42.24,-7.7955685,5.6139220000000005,-0.22569822,1002.9951,5.520409356600671,1003.0012245867367,0,0
42.28,-7.413167,6.0190790000000005,-0.13574298,1003.03,5.520137783100476,1003.0013050596201,0,0
42.32,-7.6617045,6.123943,-0.09786666,1003.0126,5.520412682517615,1003.0014168272452,0,0
42.36,-7.413144,6.1477757,-0.2398978,1002.9951,5.520805283851408,1003.0014928445404,0,0
42.4,-7.403578299999999,6.0190787000000014,-0.10733392,1003.0126,5.521110401562312,1003.0015999991824,0,0
42.44,-7.5517410000000025,5.7235518,0.13412176,1002.99475,5.521200736013376,1003.0016700210267,0,0
42.48,-7.6616649999999975,5.623454,0.02523151,1002.9695,5.521157812880096,1003.0016160802527,0,0
42.52,-7.881525,5.6997184999999995,-0.27776933,1003.0174,5.521468155937445,1003.001625240296,0,0
42.56,-7.360514599999999,6.052443,-0.23515867,1003.0149,5.521677581147977,1003.0016811232452,0,0
42.6,-7.4035215,6.0476766,-0.34404895,1002.99475,5.52186677133532,1003.0017055493753,0,0
42.64,-7.4035100000000025,6.004777,-0.28250062,1003.0099,5.521976929005292,1003.0017566323262,0,0
42.68,-7.6042447,5.814114,0.067846894,1002.99457,5.5220912482266735,1003.0017758973453,0,0
42.72,-7.6615963,5.8617797,-0.13099757,1002.997,5.5223650531437505,1003.0017757266852,0,0
42.76,-7.522976400000001,5.9189787,-0.41032693,1002.9995,5.522640455906949,1003.0017673832743,0,0
42.8,-7.370006,6.0858073,-0.31563723,1003.0247,5.522878911458432,1003.0018425684567,0,0
42.84,-7.4512568,5.97141,-0.3582464,1003.0219999999999,5.523067950640892,1003.0019815688374,0,0
42.88,-7.714129,5.790280999999999,-0.43399528,1003.0094,5.523419962523747,1003.0021310959261,0,0
42.92,-7.6519856,5.7378483000000005,-0.23514979,1003.0344,5.523731714758427,1003.002379386116,0,0
42.96,-7.422544,5.575785,-0.27775836,1002.9995,5.523425790291334,1003.0025884095378,0,0
43.0,-7.585045,5.7426143,-0.10731876,1002.9889999999999,5.523046259020113,1003.0027241843593,0,0
43.04,-7.2074237000000005,6.1144047,-0.41505352,1002.99896,5.522491670174418,1003.0028306039276,0,0
43.08,-7.3173537,6.1573043,-0.49080345,1003.0168,5.522023700944357,1003.002974926084,0,0
43.12,-7.699657000000001,5.9094415,0.058394965,1003.0115,5.521904801806903,1003.0031331394076,0,0
43.16,-7.341157000000001,6.1239357000000005,-0.10730792,1003.0089999999999,5.521792394969761,1003.0032940573984,0,0
43.2,-7.341157000000001,6.1239357000000005,-0.10730792,1003.0089999999999,5.521686129393794,1003.0034567859284,0,0
43.24,-7.6087985,5.6520457,0.31879106,1003.00635,5.521425717847394,1003.003610988428,0,0
43.28,-7.7426186,5.5471816,0.08207211,1002.98926,5.52111587842942,1003.0036955781984,0,0
43.32,-7.819089,5.6282125,-0.24460119,1002.9965,5.520996537891712,1003.0037444176382,0,0
43.36,-7.7856229999999975,5.737843499999999,-0.5002582999999999,1003.0015,5.521144301760343,1003.0037794922637,0,0
43.4,-7.3888783,5.9904704,-0.37716195,1003.0035,5.521184942629176,1003.0038094780303,0,0
43.44,-7.5561576,5.9952364000000005,-0.23039414,1002.9811,5.5213983922643255,1003.003754219333,0,0
43.48,-7.5561433000000005,5.9285045,-0.26826808,1003.0035,5.5216798985277125,1003.0037044775585,0,0
43.52,-7.513111,5.82364,-0.069421805,1002.9808300000001,5.521808702517143,1003.0035781776073,0,0
43.56,-7.5752277,5.775974,-0.62807965,1002.9934699999999,5.521886549523433,1003.0034301895308,0,0
43.6,-7.6086725999999985,5.5424123,-0.59493756,1002.98065,5.521680759251485,1003.0032174185844,0,0
43.64,-7.7568398,5.523346,-0.37715426,1002.98596,5.521428306480528,1003.002967287469,0,0
43.68,-7.6229910000000025,5.7283072,-0.2398553,1003.0133,5.521153284095986,1003.0027834693808,0,0
43.72,-7.422219,6.0285997,-0.37715107,1003.0334,5.520923983180437,1003.0027312672279,0,0
43.76,-7.2883770000000005,6.076266,-0.36768168,1002.9956699999999,5.5205833988186015,1003.002659720844,0,0
43.8,-7.4891148,5.961868,-0.362946,1003.0260000000001,5.520318499934131,1003.002680527464,0,0
43.84,-7.6802926,5.799804,-0.49077362,1002.9981,5.520240738794781,1003.0026824222944,0,0
43.88,-7.881031,5.585308599999999,-0.5523196,1002.9756,5.520408890288948,1003.0025865998464,0,0
43.92,-7.7376223,5.661574,-0.20197237,1003.00323,5.520616102984551,1003.0025042473718,0,0
43.96,-7.594222,5.7426047,-0.32033184,1003.0207,5.52072523222421,1003.0024969854347,0,0
44.0,-7.5607419999999985,5.8236356,-0.29192352,1003.0082,5.5207922440959045,1003.0025110996396,0,0
44.04,-7.83795,5.880833999999999,-0.14515504,1002.9956699999999,5.521345387452868,1003.0024989429924,0,0
44.08,-7.7662454,5.8522344,-0.28718656,1003.0129,5.522177820463458,1003.002525645184,0,0
44.12,-7.5131288,5.852239599999999,-0.43870699999999996,1003.00037,5.52284859708884,1003.002541478918,0,0
44.16,-7.6326194,5.675877,-0.43397212,1002.9956699999999,5.523349306019042,1003.0025307322812,0,0
44.2,-7.6517334,5.5138135,-0.65175426,1002.9881,5.523557206495961,1003.0024692859166,0,0
44.24,-7.6326065000000005,5.5805454,-0.62334716,1002.98004,5.523550846812422,1003.0023342464797,0,0
44.28,-7.799892,5.5853114,-0.23512529999999998,1002.9755,5.523606014959328,1003.0021183223456,0,0
44.32,-7.6851745,5.7569075,-0.116764925,1003.0007300000001,5.523729231487301,1003.0019225338208,0,0
44.36,-7.431837,5.761674,-0.5665326999999999,1002.98004,5.523533288294997,1003.0016707579581,0,0
44.4,-7.6803820000000025,5.737841599999999,-0.2303895,1003.0174599999999,5.523407448211096,1003.0015051300772,0,0
44.44,-7.6803820000000025,5.737841599999999,-0.2303895,1002.9898,5.523344004258084,1003.0013166428134,0,0
44.48,-7.3696899999999985,5.680642,-0.34874916,1003.0101,5.522757453440446,1003.001181715553,0,0
44.52,-7.7711883,5.61391,-0.3960927,1002.9948,5.522300106862258,1003.0010395196497,0,0
44.56,-7.627789,5.618677,0.03473857,1003.0047599999999,5.521706750084382,1003.0009272690787,0,0
44.6,-7.541747,5.7712069999999995,-0.29666933,1002.9904,5.5210521879242656,1003.0007901863057,0,0
44.64,-7.79029,5.8570046,-0.5191856,1003.0148300000001,5.520884348337307,1003.0007196032968,0,0
44.68,-7.5178356,5.7998056,-0.28246492,1003.0075699999999,5.520604641831748,1003.0006818975779,0,0
44.72,-7.6468880000000015,5.7378407,-0.22565183,1002.9848,5.520359384594205,1003.0005914059736,0,0
44.76,-7.6182035999999975,5.7759724000000014,-0.2351202000000001,1002.9921,5.5201460510491085,1003.0004808785308,0,0
44.8,-7.465245200000001,5.7521396,-0.44816792,1002.9918,5.519695151575902,1003.0003519653192,0,0
44.84,-7.6898875,5.728307,0.001601226,1002.9797,5.5193560829531805,1003.0001637105304,0,0
44.88,-7.331401,5.8760699999999995,-0.050477013,1002.9822,5.518715507316442,1002.9999326992412,0,0
44.92,-7.5130253,5.8760699999999995,-0.14043002,1002.9842,5.518108661255527,1002.9996719399487,0,0
44.96,-7.4556656000000014,5.895136,0.091556065,1002.9822,5.5174633533585515,1002.9993786340542,0,0
45.0,-7.460437299999999,5.752139,-0.17356989,1002.9996,5.516613690589627,1002.9991202658832,0,0
45.04,-7.6277285,5.666341,-0.64227575,1002.97925,5.5157979019248,1002.99882043881,0,0
45.08,-7.656402000000001,5.718773400000001,-0.9405428,1002.9867,5.515178779732373,1002.9985118780285,0,0
45.12,-7.680579700000001,5.752146,-0.7511920999999999,1003.0094,5.5147824990139815,1002.9982784309607,0,0
45.16,-7.3173213000000015,6.076272,-0.25881457,1002.99445,5.514355251149423,1002.9980583747806,0,0
45.2,-6.982744,6.471896,-0.12625214,1002.9889999999999,5.513916245369687,1002.9978313229905,0,0
45.24,-6.891931,6.471896,-0.15939328,1003.00885,5.513331467223319,1002.997670367266,0,0
45.28,-7.288661,5.7807455,-0.12151860000000002,1002.97406,5.512303865474474,1002.9974431494657,0,0
45.32,-8.18727,5.3374557000000005,-0.306161,1002.9844400000001,5.5118752282513706,1002.997195568479,0,0
45.36,-7.5706854,5.9428085999999976,-0.68491423,1003.02435,5.5117086050776205,1002.9970745618728,0,0
45.4,-6.8680634000000005,6.4766636,-0.2067402,1002.99866,5.511345027694832,1002.9969733480127,0,0
45.44,-6.9636625999999975,6.3813330000000015,-0.14519323,1002.9688,5.5108169700617005,1002.9967824913933,0,0
45.48,-7.226555999999999,6.2002034,-0.14992794,1002.9787,5.510304684698101,1002.9965487535153,0,0
45.52,-7.5850525,6.0762734000000025,-0.30143008,1003.0065,5.510224690361615,1002.9963780472134,0,0
45.56,-7.5850525,6.0762734000000025,-0.30143008,1002.9762,5.510526956356295,1002.9961545701552,0,0
45.6,-7.412989599999999,6.1573052000000015,-0.25408685,1002.99396,5.510992481815338,1002.995949205374,0,0
45.64,-7.064070699999999,6.104873,-0.29669709999999994,1002.98645,5.510979631410514,1002.9957335479139,0,0
45.68,-7.083193,6.047674,-0.16886847,1002.9787,5.5104902025943145,1002.99548167221,0,0
45.72,-7.4847054,5.95711,-0.31090143,1002.9862699999999,5.510112992905724,1002.9952259528177,0,0
45.76,-7.422572,6.0190754,-0.40085545,1002.99115,5.509823252580631,1002.9949853257327,0,0
45.8,-7.322202000000001,6.1716055999999995,-0.29196469999999997,1002.9984,5.50964485393566,1002.994785000468,0,0
45.84,-7.0067414999999995,6.3575015,-0.07418269,1002.98895,5.509317613222602,1002.9945869870621,0,0
45.88,-7.403475,6.1334734000000015,-0.4055919,1002.9759,5.5091952277424285,1002.9943447492633,0,0
45.92,-7.5325320000000024,6.0667415,-0.38665456,1002.9834,5.509372573920462,1002.9940913068468,0,0
45.96,-7.3795853000000005,6.085808,-0.08365322,1002.98895,5.509577439364425,1002.9938488564231,0,0
46.0,-7.2696595,6.1239405,-0.19254543,1002.9762,5.509684413272803,1002.9935710913456,0,0
46.04,-7.0880300000000025,6.1763725,-0.20201454,1003.0062,5.509489182522949,1002.993371122194,0,0
46.08,-7.4513044000000015,6.071509,-0.045780033,1002.99084,5.5094603267645885,1002.993185317412,0,0
46.12,-7.2066655,6.2764497000000015,-0.59015703,1002.95844,5.509501766031276,1002.992896057164,0,0
46.16,-7.0536976,6.376547,-0.5948901999999999,1002.9781,5.5095062366651,1002.9925872010028,0,0
46.2,-7.125353,6.2478489999999995,-0.2682124,1002.9911,5.509380630635818,1002.9923089417753,0,0
46.24,-7.2878523,6.166817,-0.16405421,1002.9934,5.509281567991604,1002.9920669997316,0,0
46.28,-7.235246000000001,6.200182,-0.14037964,1002.98035,5.509167248535594,1002.9918110385423,0,0
46.32,-7.225673,6.276447,-0.21612883,1002.9861,5.509131265514541,1002.9915643114972,0,0
46.36,-7.0870304000000015,6.490941,-0.16878223,1003.0137300000001,5.509244360657294,1002.9914260999583,0,0
46.4,-6.953168400000001,6.419442,-0.40076548,1002.9830300000001,5.5091979324911895,1002.9912737502832,0,0
46.44,-7.249474,6.2097125,-0.19244786,1002.98553,5.509167649855256,1002.9911184566088,0,0
46.48,-7.392853999999999,6.100080999999999,-0.16877457,1002.99084,5.5092322720716185,1002.9909802366743,0,0
46.52,-7.0868910000000005,6.285976,-0.107222185,1002.9631,5.509146634919149,1002.9907577366884,0,0
46.56,-7.158573599999999,6.3098083,-0.24925302,1002.9830300000001,5.5090784677328335,1002.9905333158487,0,0
46.6,-7.287600999999999,6.1620445,-0.3534074,1002.9805,5.509035107171488,1002.9902988976576,0,0
46.64,-7.1346197,6.1191444000000015,-0.34393603,1002.99036,5.508713407520019,1002.9900919857124,0,0
46.68,-7.4357190000000015,6.095311,-0.31552702,1002.96783,5.508592352080549,1002.9898290151692,0,0
46.72,-7.3783330000000005,6.1382093,0.04902466,1002.9826,5.508603329667858,1002.9895706299424,0,0
46.76,-6.995907000000001,6.381303,-0.3770679,1003.0033599999999,5.5084787979959975,1002.9893919624884,0,0
46.8,-6.995907000000001,6.381303,-0.3770679,1002.9826,5.508234978656752,1002.9892096408607,0,0
46.84,-7.263548399999999,6.2526054,-0.24450207,1003.0005,5.508116470207448,1002.9890891867636,0,0
46.88,-7.27308,6.114374,-0.168749,1002.9876,5.507934668621355,1002.9889773924514,0,0
46.92,-7.206121,6.1572723,-0.22555803,1002.98285,5.507651538442532,1002.9888565523836,0,0
46.96,-7.225212,6.2192373,-0.27289949999999996,1002.98,5.5073963962253965,1002.9887178945115,0,0
47.0,-7.2968955,6.2335362000000005,-0.3723207000000001,1002.97015,5.507306239533748,1002.9885285319957,0,0
47.04,-7.2538350000000005,6.390832,-0.29656643,1003.01544,5.507503280573757,1002.9884580925611,0,0
47.08,-7.019611,6.400364,-0.30129957,1002.98,5.507604544389227,1002.9883654031436,0,0
47.12,-7.2026405,6.3146005,-0.06470719,1002.9876,5.507776130757327,1002.9882807473233,0,0
47.16,-7.3317093999999985,6.185904,-0.036302086000000004,1002.9880400000001,5.508037889128417,1002.9882050787497,0,0
47.2,-7.422584,5.9618773,-0.40085658,1002.98,5.508245632982281,1002.9881086797149,0,0
47.24,-7.3891399999999985,6.033375299999999,-0.37245145,1002.9976,5.5084419813552845,1002.9880576702803,0,0
47.28,-7.2840137,6.15254,-0.30617252,1002.972,5.5086128110281285,1002.9879547907312,0,0
47.32,-7.370064699999999,6.114408,-0.19254811,1002.9722,5.5088405561887575,1002.987807169115,0,0
47.36,-7.0164027,6.367037,-0.33931866,1002.98236,5.50891528899922,1002.9876571208459,0,0
47.4,-7.379697,6.200207700000001,-0.16888277,1002.9599,5.509185745202552,1002.9874246125604,0,0
47.44,-7.3749466,6.138243,-0.16888542,1003.0001,5.509537989400859,1002.9872647996342,0,0
47.48,-7.3319573,6.152544,-0.19256012,1002.9876,5.509912669650398,1002.987124795654,0,0
47.52,-6.9735154999999995,6.338441,-0.21150173,1003.00494,5.509999735925648,1002.9870652228723,0,0
47.56,-7.3415895,6.252643,-0.24464525,1002.9949,5.510290474495928,1002.9870407895604,0,0
47.6,-7.222123599999999,6.276477,-0.10735018,1003.00745,5.510599009350664,1002.9870926734436,0,0
47.64,-7.2173734,6.2002125,-0.24465062,1002.9775,5.5108163361083635,1002.9871039844184,0,0
47.68,-7.2652,6.033384,-0.06474586,1002.98724,5.510798402661114,1002.9871144684516,0,0
47.72,-7.164853599999999,5.9761863,0.011001925,1002.9997599999999,5.510335851446471,1002.987169256057,0,0
47.76,-7.432552,6.176382,-0.19258012,1002.987,5.510179911701997,1002.9872170570633,0,0
47.8,-7.2604933,6.2669473,-0.5760683000000001,1002.9546,5.5101761487394585,1002.9871418726268,0,0
47.84,-7.2031794000000025,6.324147,-0.20205429,1002.97705,5.510263574933555,1002.9870391089177,0,0
47.88,-7.3083644,6.1144185,-0.10736885,1003.0071,5.510310401886102,1002.987020526112,0,0
47.92,-7.2940392,6.1001195999999975,-0.14524539,1002.982,5.510280328774437,1002.986986032451,0,0
47.96,-7.2940392,6.1001195999999975,-0.14524539,1002.9693599999999,5.51018241502924,1002.9868921001352,0,0
48.0,-7.351441,6.1048875,-0.19259346,1002.9820599999999,5.51012463504348,1002.9867917059804,0,0
48.04,-7.3992679999999975,6.0333896,-0.36776915,1002.99457,5.510095541570012,1002.9867309995641,0,0
48.08,-7.1985455,6.0190907,-0.23047407,1003.00214,5.509742438189255,1002.9867328317756,0,0
48.12,-7.407311,5.966620400000001,-0.23033258,1003.0045,5.509370460514712,1002.9867984125236,0,0
48.16,-7.3785979999999975,6.1048503,-0.24453269,1002.9820599999999,5.509119302293048,1002.9868393013876,0,0
48.2,-7.2447295,6.190647,-0.32974878,1003.0045,5.5088829717460035,1002.9869390093028,0,0
48.24,-7.0965039999999995,6.2716775,-0.17350872,1002.99176,5.508529971253319,1002.9870444667827,0,0
48.28,-7.0439095,6.2097120000000015,-0.25872645,1003.0043,5.507912070140074,1002.987199768932,0,0
48.32,-7.378443700000001,6.057181,-0.1687681,1002.9941,5.5073822160107495,1002.9873618347427,0,0
48.36,-7.335391499999999,6.133445,-0.20190577,1002.99176,5.506965621052939,1002.9875208694882,0,0
48.4,-7.3831725000000015,6.228775,-0.23977946,1002.9968,5.506855835431105,1002.987694797459,0,0
48.44,-7.0533314,6.3288720000000005,-0.36760527,1003.0039999999999,5.506645502679907,1002.9879071789431,0,0
48.48,-7.3209667000000005,6.2383065,-0.20189795,1003.0039999999999,5.50663153710484,1002.9881527733785,0,0
48.52,-7.254014999999999,6.162041,-0.15455076,1003.0011599999999,5.50658063110262,1002.9884166066373,0,0
48.56,-7.2587776,6.19064,-0.1829556,1003.0043,5.506544371789073,1002.9887069099208,0,0
48.6,-7.1965885,6.1763387000000005,-0.10720045,1003.0116,5.506401256749598,1002.9890458370263,0,0
48.64,-7.2969303,6.1525050000000014,-0.31077665,1002.9966,5.506300251844445,1002.9893725080037,0,0
48.68,-7.3446774,6.0953054,-0.23975596,1003.0067,5.506232403058448,1002.9897235334503,0,0
48.72,-7.3446774,6.0953054,-0.23975596,1003.0092,5.506194095274964,1002.9901038148143,0,0
48.76,-6.9956830000000005,6.3097987,-0.06931110000000001,1002.9862,5.505919426762914,1002.9904257776946,0,0
48.8,-7.253775599999999,6.2859654,-0.11665358,1003.0063,5.505806937755247,1002.9907674112957,0,0
48.84,-7.2011460000000005,6.0381035999999995,-0.27761862,1003.0015,5.505427738031017,1002.9911079160652,0,0
48.88,-7.5261559999999985,5.9570713,-0.20660100000000006,1002.9937,5.505227705607758,1002.9914181175811,0,0
48.92,-7.55958,5.9189386,-0.29181716,1002.99866,5.5051968601542365,1002.9917182824178,0,0
48.96,-7.2775206999999975,6.1763306,-0.2681404000000001,1003.0007300000001,5.5051978879061565,1002.9920159502506,0,0
49.0,-7.3492007,6.138198,-0.23973246,1002.98584,5.5052884088295535,1002.9922567361267,0,0
49.04,-7.4447446,5.933235,-0.36282226,1002.99866,5.505350351880592,1002.9924925462767,0,0
49.08,-7.683718700000001,5.866503,-0.25392935,1002.9987,5.505685720038179,1002.9927232549593,0,0
49.12,-7.517161,6.014284,-0.20665264,1002.9856,5.506175556767646,1002.9929014654326,0,0
49.16,-7.0009380000000005,6.33841,-0.17351149,1002.99084,5.5064183807308105,1002.9930515109315,0,0
49.2,-7.273383,6.4289746,0.015865033,1002.99585,5.506986334172727,1002.9931941656952,0,0
49.24,-7.1491046,6.3527093,-0.3581526,1002.9733,5.50755498280635,1002.9932485964476,0,0
49.28,-7.5888405,6.076249,-0.14983824,1003.0057400000001,5.508438800772827,1002.9933416605134,0,0
49.32,-7.2781496,6.138214,-0.21138515,1003.0007300000001,5.509183232575354,1002.9934504899437,0,0
49.36,-7.0391555,6.3002769999999995,-0.19244719,1002.9954,5.509646960517565,1002.9935536698648,0,0
