Timestamp,Ax,Ay,Az,P,LPFRMSAcc,LPFPValue,Value,Type
0.0,-7.339889500000001,5.5805173,-0.13086389999999998,1002.9485,0.0191662138873157,3.6106146,0,0
0.02,-8.1287,5.337426,-0.16401787,1002.9337,0.056247134655820805,10.398516768,0,0
0.04,-7.550488,5.675855,-0.94047344,1002.92645,0.10853937083532007,19.96940768328,0,0
0.06,-8.105088,5.4947300000000014,-0.026746329,1002.9218,0.17470654687913625,31.964875508361594,0,0
0.08,-8.219874,5.370801,0.10107602,1002.9474,0.25295231125251355,46.059607966773605,0,0
0.1,-7.9619803,5.285008,-0.47180665,1002.94775,0.34106640021747514,61.95851087834604,0,0
0.12,-8.105447,5.2230444,-0.14513925,1002.95325,0.4377400711655481,79.3943625518494,0,0
0.14,-7.804461999999999,5.5376410000000025,-0.097808324,1002.95856,0.5414759081254473,98.12551220137031,0,0
0.16,-7.9289520000000016,5.5996118,-0.07415598,1002.95374,0.651363584531298,117.93373765176209,0,0
0.18,-7.976821000000001,5.594847,-0.116772175,1002.942,0.7663679593498907,138.62231540418188,0,0
0.2,-7.5611935,5.5424204,-0.84589016,1002.9392,0.8847915673460629,160.01428349076497,0,0
0.22,-7.480008,5.5519542999999985,-0.83642787,1002.92926,1.0056847874756032,181.950720407503,0,0
0.24,-8.268819,5.2945647000000005,0.058361452,1002.9075,1.1292936017512103,204.28920047366574,0,0
0.26,-8.020413000000001,5.2850347,0.4276319000000001,1002.89734,1.2544325668505578,226.90247076242198,0,0
0.28,-7.1028337,5.8093596,-1.5987065,1002.953,1.3798486501329656,249.6773382948222,0,0
0.30000000000000004,-7.690964,5.8427305,-0.06004458,1002.94104,1.5057742435497654,272.5129605725897,0,0
0.32,-6.5821934,5.918999,-0.44827887,1002.92615,1.6300436486769436,295.32000389916374,0,0
0.34,-7.495208,5.6473074,1.2040218,1002.9588,1.753645286494244,318.0198070484876,0,0
0.36000000000000004,-8.054587,5.347017299999999,0.5743329,1002.92957,1.8766762074903216,340.5430282578555,0,0
0.38,-7.3521,5.3422540000000005,-0.23052905,1002.90717,1.9975255738719533,362.8290574287248,0,0
0.4,-8.069142,5.280291,-0.13111311,1002.9324,2.1171619806799744,384.82536483736135,0,0
0.42,-7.5374880000000015,5.4947589999999975,-0.79382944,1002.9227,2.2347082818578388,406.4864524702183,0,0
0.44,-7.456278,5.656823,-0.7559585,1002.9456,2.350043450098746,427.77344243371766,0,0
0.46,-6.7012076,6.305078,-0.9216754,1002.9561,2.462713276807875,448.65328433270446,0,0
0.48,-7.1553809999999975,6.1573176,-0.0032092545,1002.93835,2.573023068536368,469.0981388710515,0,0
0.5,-7.5713167000000015,6.0429225,-1.2104911,1002.92395,2.681520959881188,489.0849852611991,0,0
0.52,-7.9919868,5.6091666,-0.39617756,1002.934,2.7880468966755325,508.5952191845932,0,0
0.54,-8.278867,5.4757056,-1.2105037,1002.9066,2.8929196403761246,527.6139828502397,0,0
0.56,-7.542916,5.9618974,-1.4235646999999998,1002.89905,2.995372037043984,546.1299886669441,0,0
0.5800000000000001,-7.547741999999999,6.0286303,-0.5524383,1002.9379,3.0952260724101888,564.1352398873829,0,0
0.6,-7.5431466,6.2049975,-0.7797066999999999,1002.92505,3.1926799137659367,581.6243231821683,0,0
0.62,-7.1226172000000005,6.171634,-0.6755583000000001,1002.9332,3.2869351452943243,598.5943891379846,0,0
0.64,-7.113103999999999,6.171635,-0.52406156,1002.9357,3.3779898525229544,615.0447681356472,0,0
0.66,-6.639996000000001,6.3337,-0.56667966,1002.95105,3.465394035941771,630.9767856326938,0,0
0.68,-6.859959,6.300337,-0.88862765,1002.951,3.5495959462787616,646.3934234648061,0,0
0.7000000000000001,-7.232877,6.305105,-0.57616544,1002.94885,3.6311974872515305,661.2991641887874,0,0
0.72,-7.4336743,6.205009,-0.9880629,1002.9438,3.7104586663671633,675.6997973814176,0,0
0.74,-7.2855935,6.3337083,-1.6130128,1002.9563,3.787479383273444,689.6023202798526,0,0
0.76,-7.3861084,6.0906177,-1.0306938,1002.9421,3.8619129142637716,703.0146127199022,0,0
0.78,-7.1854024,6.1954827,-1.523076,1002.9197,3.933751523790777,715.9453726341385,0,0
0.8,-7.5057425,5.895192,-1.1301290000000002,1002.9122,4.003042197059885,728.4040726728748,0,0
0.8200000000000001,-7.443697,6.2193203,-1.253232,1002.93286,4.070184975712269,740.4008836614798,0,0
0.84,-6.774617,6.3384867,-0.675643,1002.93536,4.134193640157378,751.9463899658299,0,0
0.86,-6.8989850000000015,6.2050247,-1.0449351999999998,1002.9306,4.195276373928456,763.0515424924766,0,0
0.88,-7.6256075,6.0381975,-0.95972425,1002.9561,4.254460929584288,773.7277116720488,0,0
0.9,-7.5582204,6.0429525,-0.52411604,1002.9543,4.3115830506436845,783.9863904770993,0,0
0.92,-7.3957415,6.0572534000000005,-0.7371674,1002.92865,4.366462848131857,793.8391512035244,0,0
0.94,-7.620460499999999,5.9952893,-0.7371736999999999,1002.9463,4.41944655636242,803.2978363170607,0,0
0.96,-7.333707,6.1001544,-0.81766176,1002.9488,4.47025238146895,812.3742739526404,0,0
0.98,-7.295536999999999,6.0143585,-0.6709015,1002.93695,4.518752796899456,821.0802398812089,0,0
1.0,-7.381642,5.9476285,-1.1632858999999998,1002.95233,4.565191042309841,829.4275709001196,0,0
1.02,-7.549003599999999,5.8379993,-0.9786502,1002.9552,4.609728059101479,837.4279720531888,0,0
1.04,-7.142789,6.019129799999999,-1.4426281,1002.9479,4.652130484991278,845.0929982526491,0,0
1.06,-7.41056,6.085864,-1.224855,1002.95807,4.692942459454232,852.4341296607828,0,0
1.08,-7.0951619999999975,6.0906324,-0.84610885,1002.9488,4.731623964735358,859.4626061862308,0,0
1.1,-6.966141,6.1573653,-0.917128,1002.9583,4.768187016393517,866.1895525418463,0,0
1.12,-6.3878536,6.2812977,-0.62833565,1002.9438,4.80199482974664,872.6257976325172,0,0
1.14,-6.8563766,6.214568,-0.55259454,1002.939,4.833847925980172,878.7819913231572,0,0
1.16,-7.520872,6.1478386,-1.2012174,1002.92896,4.864935170711795,884.6685331554432,0,0
1.18,-8.003701,6.4243,-0.9692378,1002.9493,4.8963164235748735,890.2956922790918,0,0
1.2,-7.946377799999999,6.491033,-0.87455285,1002.95917,4.927821592289875,895.6734386005428,0,0
1.22,-7.650132000000001,6.4481373,-0.5620916,1002.94183,4.95874750347012,900.8113814592148,0,0
1.24,-7.650132000000001,6.4481373,-0.5620916,1002.9471,4.9890502494124025,905.7189563558844,0,0
1.26,-6.7229533,6.3623414,-0.9408535,1002.93176,5.017202983394765,910.4052556277004,0,0
1.28,-6.493557,6.271778,-0.98346615,1002.91724,5.042891784688356,914.8791128080172,0,0
1.3,-6.828212,6.004852,-1.5705386,1002.9451,5.066615286206217,919.1492505664363,0,0
1.32,-7.052965,6.0572863,-1.3432966,1002.92804,5.088861761237718,923.2239479317365,0,0
1.34,-7.5931516000000014,5.9810233,-0.61893886,1002.92786,5.110330074733801,927.1112846071612,0,0
1.36,-7.182157000000001,6.200287,-0.5384603,1002.9734,5.1306549820359315,930.8192389089808,0,0
1.38,-7.402062400000001,6.1955214000000005,-0.43430653,1002.96606,5.150226812170768,934.355315885996,0,0
1.4,-7.3017235,6.2527204,-0.8604064,1002.9509,5.169039987369222,937.7267376056972,0,0
1.42,-7.0436809999999985,6.324221,-0.8888189000000001,1002.9284,5.186816460221569,940.9404518218448,0,0
1.44,-7.168057000000001,6.1478605,-0.8556872999999999,1002.95105,5.203559300573492,944.0033278566742,0,0
1.46,-7.249347,6.104963,-0.9929882,1002.9335,5.219426964927914,946.9218337407654,0,0
1.48,-7.287653,6.1049643,-1.0119319,1002.9462,5.234528965795075,949.7023132584816,0,0
1.5,-7.416808599999999,6.0287013,-0.5811103,1002.9388,5.2489312854708965,952.350796312605,0,0
1.52,-7.1778520000000015,6.0382357,-0.50536287,1002.9466,5.262284979140516,954.873140832503,0,0
1.54,-7.197038,5.847575,-0.4390874,1002.9263,5.274435571759977,957.274875823288,0,0
1.56,-7.378703999999999,5.852342,-0.3822776,1002.97424,5.28577454073643,959.5615665721815,0,0
1.58,-7.507859700000001,6.100206,-0.6994918999999999,1002.97186,5.296923768144173,961.7383635742444,0,0
1.6,-7.531792599999997,6.1860050000000015,-0.56693166,1002.9419,5.307998293082849,963.8101141363996,0,0
1.62,-7.3598203999999985,6.286105,-0.8225988000000001,1002.9343,5.3188647925012145,965.7815600022293,0,0
1.64,-7.465043,6.190775,-0.5385406999999999,1002.9497,5.329506632977648,967.6573348732679,0,0
1.66,-7.608504300000001,6.052547,-0.7184541999999999,1002.9421,5.339986011695761,969.441794703774,0,0
1.68,-7.383921000000001,5.9619839999999975,-0.78474194,1002.94226,5.349814370204485,971.1391450850757,0,0
1.7,-7.331410400000001,5.8475885000000005,-0.34444854,1002.9472,5.358743992496066,972.7534328796874,0,0
1.72,-7.4701257,5.7188935,-0.50542754,1002.9572,5.366924872906327,974.2885511366395,0,0
1.74,-7.642232400000001,5.695061,-0.33025759999999993,1002.9426,5.374653994712964,975.7481362043904,0,0
1.76,-7.21215,6.1240544,-1.2061316,1002.9353,5.381959103133067,977.1356993599196,0,0
1.78,-6.9636679999999975,6.3957496,-0.72796303,1002.9251,5.388748991025152,978.4545920064493,0,0
1.8,-7.2026916,6.4195833,-0.55752754,1002.9176,5.395436120544359,979.7080323776996,0,0
1.82,-7.599449000000001,6.381451599999999,-0.64274985,1002.9429,5.402589988596471,980.8992178131766,0,0
1.84,-7.652093400000001,6.2098575,-0.8131946,1002.963,5.410014233591835,982.0311788798367,0,0
1.86,-8.005867,5.5902066,-0.5575428000000001,1002.9228,5.417426312903265,983.1065895143704,0,0
1.88,-7.451510000000002,5.69984,-0.3729103,1002.9405,5.423987441776537,984.1282244287922,0,0
1.9,-7.3702869999999985,5.8905025,-0.391851,1002.93835,5.429885676838341,985.098657491232,0,0
1.92,-7.3890533,6.2718186,-0.83211833,1002.9533,5.435768209711419,986.0204088582353,0,0
1.94,-7.083196000000001,6.5911794000000015,-0.74216926,1002.92053,5.441566475949412,986.8957088022296,0,0
1.96,-7.432198,6.247989,-0.2592669,1002.92053,5.447288252963856,987.7268131890552,0,0
1.98,-7.327068,6.0573273,-0.4013014,1002.92334,5.452510656539369,988.5158845217734,0,0
2.0,-6.868283,5.9476986,-1.0688593000000002,1002.9658,5.456510461354715,989.2651276470848,0,0
2.02,-7.3319488,5.776103,-0.69957817,1002.9334,5.459855717922316,989.9763646530807,0,0
2.04,-6.7202100000000025,5.957234,-0.87475806,1002.9309,5.4619101206427585,990.6514499988276,0,0
2.06,-6.935327,5.957235,-0.9410421999999998,1002.9488,5.46316547835352,991.2922258703336,0,0
2.08,-6.9258175,6.157431,-1.1872358,1002.954,5.464026242326913,991.9003978172632,0,0
2.1,-7.795792999999999,6.090701,-0.6522526999999999,1002.95874,5.4657231311357615,992.4775885814281,0,0
2.12,-8.2499,6.2336984000000015,-0.6711927,1002.96387,5.469082841311646,993.0253449537507,0,0
2.14,-8.264316,5.237489,-0.3776665,1002.9613,5.472713966676358,993.5451119225016,0,0
2.16,-7.791139599999997,5.213657,-0.09360456,1002.95624,5.475706475598832,994.0382580771692,0,0
2.18,-7.337109599999999,5.757046,-0.09834362,1002.9565,5.478023194195715,994.5061076903554,0,0
2.2,-6.4720154,6.5864286,-0.259318,1002.944,5.479549581219988,994.9498760208812,0,0
2.22,-6.5103300000000015,6.791392299999999,-0.903204,1002.94147,5.480815648928656,995.3707594560593,0,0
2.24,-7.174772999999999,6.300438,-0.6096756,1002.9495,5.482089903748559,995.7699355253404,0,0
2.26,-7.910914,5.8809824,-0.197787,1002.96387,5.483972675570471,996.1485456642656,0,0
2.28,-7.447324000000001,5.9191160000000025,-0.751717,1002.937,5.485728177690421,996.5075240186293,0,0
2.3,-7.112787700000001,6.1240788,-0.5197358,1002.947,5.487068938164359,996.8478994060774,0,0
2.32,-7.117594,6.128846,-0.57181656,1002.967,5.48805869933763,997.1706838605652,0,0
2.34,-7.275403,6.1574472999999985,-0.84641904,1002.9393,5.489064633281331,997.476663222652,0,0
2.36,-7.414067699999999,6.2670794,-0.604969,1002.9418,5.490409621547905,997.7667010793906,0,0
2.38,-7.394974,6.2051144,-0.5481585,1002.9595,5.4919292178589805,998.041672605719,0,0
2.4,-7.279544400000002,5.95247,-0.73273486,1002.962,5.4931048050972695,998.3023506250024,0,0
2.42,-7.1218204,6.0239687,-0.9268464,1002.947,5.493851392309033,998.5494064605908,0,0
2.44,-7.289142,5.876205400000001,-0.50548697,1002.957,5.494221695527921,998.7835723336588,0,0
2.46,-7.2317944,5.9572377,-0.44394055,1002.942,5.49426568499982,999.0054516387004,0,0
2.48,-6.739503,6.1622,-0.7280075,1002.9649,5.493565942658926,999.2157582067357,0,0
2.5,-6.8829064,6.181267,-0.7280084,1002.9345,5.492458265345771,999.4149725607075,0,0
2.52,-7.571227,6.090703,-0.94105923,1002.9496,5.491997575543383,999.6037230226586,0,0
2.54,-7.709861,6.100236,-0.81323195,1002.9495,5.492323121011132,999.7825477279573,0,0
2.56,-7.8771625,6.119303,-0.96473384,1002.9323,5.493667271573791,999.9518963457381,0,0
2.58,-7.8580723,6.300432700000001,-0.4202799,1002.935,5.4960301925477735,1000.1122719575644,0,0
2.6,-7.4040003,6.472029,-0.5717817,1002.932,5.498806342292694,1000.2641308691271,0,0
2.62,-6.811323599999999,6.448197,-1.2156624,1002.91956,5.50112144845779,1000.4078729482553,0,0
2.64,-7.1889566999999985,6.023974,-1.0452266,1002.9499,5.502978013801672,1000.544034746759,0,0
2.66,-7.2750125,5.952476,-0.78483593,1002.9549,5.504413023221392,1000.6730264268286,0,0
2.68,-7.4662137,5.9191103,-0.7564305,1002.92456,5.505730718421979,1000.7951089962016,0,0
2.7,-7.6000770000000015,5.9238777,-1.1730607,1002.962,5.507250422181038,1000.9107819621132,0,0
2.72,-7.4949307,5.9810767,-0.78957474,1002.962,5.508764765602408,1001.020374979729,0,0
2.74,-7.0504380000000015,6.252771,-1.3671747,1002.9575,5.5100631014559065,1001.1241850201674,0,0
2.76,-7.0504380000000015,6.252771,-1.3671747,1002.9245,5.511165899013356,1001.222392705826,0,0
2.78,-6.897512400000001,6.2623050000000005,-1.3150989,1002.93256,5.511855527475836,1001.3153256191333,0,0
2.8,-7.241687,5.8857474000000005,-1.1162566,1002.9374,5.512156428472784,1001.4032806091024,0,0
2.82,-7.2416964,5.8523817000000005,-0.88427156,1002.9323,5.512017927497503,1001.4865021080465,0,0
2.84,-7.772272999999997,5.7141523,-0.9363518,1002.9649,5.5121969046438934,1001.5653588569245,0,0
2.86,-7.323001,6.0430449999999984,-1.1872778999999998,1002.9395,5.512398695354432,1001.639983588348,0,0
2.88,-7.3899274,6.100244,-1.0689185,1002.9524,5.512772713402161,1001.7106467001158,0,0
2.9,-7.442524400000001,6.224175,-1.4382038,1002.9395,5.513643086576312,1001.7775084975534,0,0
2.92,-7.681533,6.147911,-1.5234249,1002.9374,5.515256362455502,1001.8407631911784,0,0
2.94,-7.557287,6.071646,-1.1257375,1002.9649,5.5171113416118684,1001.9007019309768,0,0
2.96,-7.4664803,6.100246,-1.2298954,1002.965,5.519090967554098,1001.9574952745113,0,0
2.98,-7.667250599999999,5.9238839999999975,-1.3056475,1002.9346,5.521291925412482,1002.01119544987,0,0
3.0,-7.6481514000000015,5.8523855000000005,-0.94583446,1002.9599,5.5234727609789385,1002.0620602611976,0,0
3.02,-7.375711999999999,5.857153,-0.7706624,1002.932,5.525156568361631,1002.1101361915463,0,0
3.04,-6.8547416,6.0525823,-0.6144295999999999,1002.9549,5.5258030856003915,1002.1556572333127,0,0
3.06,-7.1463284,5.9953837,-0.5244776999999999,1002.917,5.525900302521813,1002.1986204597777,0,0
3.08,-6.830871000000001,6.1050153,-0.6333698,1002.9445,5.525180112029305,1002.2392679330268,0,0
3.1,-7.394916499999999,5.966785400000001,-0.4250587000000001,1002.927,5.524422314963949,1002.277659875831,0,0
3.12,-7.28022,5.9286532,-0.83221924,1002.9395,5.523455677563506,1002.3139656209396,0,0
3.14,-7.2754498,5.9334207,-0.761204,1002.93195,5.522294087393199,1002.3482701210824,0,0
3.16,-7.5622663,5.752292,-0.5528928000000001,1002.9445,5.521169158280092,1002.3807280049724,0,0
3.18,-7.332855,5.742759,-0.6996611,1002.9445,5.519712229013695,1002.41143737036,0,0
3.2,-7.43325,5.7570596,-0.74700695,1002.9374,5.518157121722053,1002.440465631083,0,0
3.22,-7.495798,5.7856684000000005,-0.7044349,1002.9448,5.516652885501292,1002.467930605986,0,0
3.24,-7.2185983999999985,5.8619347,-0.7517815,1002.937,5.514854353202795,1002.4938873076288,0,0
3.26,-7.137356,6.043064,-0.9885031,1002.9044,5.512957806075422,1002.5183004948927,0,0
3.28,-7.495870599999999,6.124096,-0.9080208,1002.9419,5.5116421499732065,1002.5413969453776,0,0
3.3,-7.1470027,6.1479300000000014,-0.7470564000000001,1002.93195,5.5102937227589095,1002.5632109600227,0,0
3.32,-7.0992193,6.0859656,-0.54821277,1002.952,5.508733888250057,1002.583885463907,0,0
3.34,-7.1996098,6.0383005,-0.44405717,1002.9399,5.507076368403333,1002.6034351078688,0,0
3.36,-7.5724635,5.8619385,-0.66184247,1002.9346,5.505737646423809,1002.6219013668857,0,0
3.38,-7.1757827,6.1384,-0.8890978,1002.94745,5.50444797871187,1002.6393901284315,0,0
3.4,-7.347884700000002,6.157467,-0.80861574,1002.942,5.503488859516332,1002.6559325936715,0,0
3.42,-7.4052715,6.1956004999999985,-0.8559623,1002.947,5.502975551426416,1002.6715973586203,0,0
3.44,-7.367062,6.386263,-0.84649616,1002.9399,5.503052025181616,1002.6864046344383,0,0
3.46,-7.759034599999999,6.1574693,-0.8891084,1002.9424,5.5039793783150825,1002.7004099266667,0,0
3.48,-7.7829776,5.6188493,-0.8559716,1002.93195,5.505015358593644,1002.7136185471436,0,0
3.5,-8.002877,5.437721,-0.6239884,1002.9295,5.506264573641643,1002.7260668574277,0,0
3.52,-7.696998599999999,5.3948220000000005,-0.998009,1002.95734,5.507191837562416,1002.7378987677076,0,0
3.54,-7.6205373,5.399589,-0.8701815,1002.9595,5.507681348257257,1002.7491512080674,0,0
3.56,-7.658789599999999,5.380523,-0.7565571,1002.9419,5.507803790600108,1002.75978776002,0,0
3.58,-7.6062555,5.4234233,-0.52930963,1002.9323,5.507531531250336,1002.7698072613896,0,0
3.6,-7.209575,5.6808185999999985,-0.6571425,1002.9444,5.5065903784441375,1002.7792890266584,0,0
3.62,-7.209575,5.6808185999999985,-0.6571425,1002.9418,5.505061579529947,1002.788252153954,0,0
3.64,-8.189478,5.695119,-0.69975615,1002.927,5.504676246699378,1002.7966714654783,0,0
3.66,-8.01264,5.7666182999999975,-0.8891336,1002.927,5.505120542985583,1002.8045799518652,0,0
3.68,-7.7211156,5.561657,-0.47251004,1002.9471,5.505496971326765,1002.8120809626104,0,0
3.7,-7.821505,5.5521245000000015,-0.46777695,1002.93207,5.505969604890492,1002.8191408162393,0,0
3.72,-7.8537946,5.442465,-0.4250603,1002.93695,5.5064455569151445,1002.8258030159673,0,0
3.74,-8.040189,5.4281644999999985,-0.32090159999999995,1002.9569,5.507217104849691,1002.8321616847893,0,0
3.76,-8.030609,5.7093906,0.124134146,1002.9595,5.5085542194000645,1002.8382386224953,0,0
3.78,-6.873878,6.209879,0.47448182,1002.9195,5.5091840026794685,1002.8439007456112,0,0
3.8,-6.309842,6.295676,-1.263043,1002.9119,5.508618751691041,1002.8491485949124,0,0
3.82,-7.7246356,5.6426578,-1.5944486,1002.9446,5.508445251957915,1002.8541292196132,0,0
3.84,-7.7246356,5.6426578,-1.5944486,1002.91925,5.508618528233013,1002.8587645344082,0,0
3.86,-7.939688,5.4662943,-0.8984877,1002.93396,5.5090626762327775,1002.8631310022372,0,0
3.88,-7.786725,5.7046213,-0.49606237,1002.9365,5.509711861905072,1002.8672533416028,0,0
3.9,-7.1987815,6.6055,-0.30194923,1002.9416,5.510767011422987,1002.8711634886363,0,0
3.92,-6.940653,6.7818627000000005,-0.47238603,1002.91156,5.512053711034257,1002.8747639219963,0,0
3.94,-6.9310839999999985,6.8867264000000015,-0.6191517,1002.9494,5.513696033791512,1002.878213954794,0,0
3.96,-7.3851457,6.3862375999999985,-0.79905736,1002.9212,5.51565862436488,1002.8814171535366,0,0
3.98,-7.2082744,6.4100699999999975,-0.82746196,1002.9594,5.517659175826851,1002.8845282381932,0,0
4.0,-7.0122833,6.2861395,-0.6096776999999999,1002.95624,5.519177991051827,1002.8875353549378,0,0
4.02,-6.9453380000000005,6.100242,-0.5102526,1002.92377,5.519893419390223,1002.8903228880156,0,0
4.039999999999999,-7.337262599999999,5.585454,-0.5860013000000001,1002.93146,5.519858768048844,1002.8929340458465,0,0
4.06,-7.614472,5.3614254,-0.16463754,1002.94653,5.5193156198336935,1002.8954342103407,0,0
4.079999999999999,-7.791314999999999,5.3375926,-0.33034083,1002.9215,5.5186077359834425,1002.8977371925304,0,0
4.1,-7.385012599999999,5.923878,-0.5244496999999999,1002.91895,5.517822951050143,1002.8998484737004,0,0
4.119999999999999,-7.074316499999999,6.105007,-0.81324744,1002.9387,5.516760655552687,1002.9018538672368,0,0
4.14,-7.595276400000001,6.076407,-0.6475399000000001,1002.9434,5.516223229971256,1002.9037753990433,0,0
4.159999999999998,-7.5665884,6.0382742999999985,-0.7895711,1002.9518,5.516077521012448,1002.9056461531113,0,0
4.18,-7.4470649999999985,5.847611,-0.52444184,1002.954,5.51580105741958,1002.9074732252542,0,0
4.199999999999998,-7.4470649999999985,5.847611,-0.52444184,1002.954,5.515410054300991,1002.909255122589,0,0
4.22,-7.361418,5.8380876,-0.6665097,1002.9059,5.514786157513733,1002.9108175286326,0,0
4.239999999999998,-7.3279567,5.8714533,-0.5576181,1002.9359,5.513932873006813,1002.9122883675096,0,0
4.26,-7.3661923,5.9143524,-0.7375253,1002.9485,5.513023121276002,1002.9137183626184,0,0
4.2799999999999985,-7.1080804,6.105015,-1.1020741000000005,1002.9312,5.5119817086846625,1002.9150448401912,0,0
4.3,-7.461785000000001,6.0430493,-1.0499957,1002.92303,5.511294547827691,1002.9162456623498,0,0
4.3199999999999985,-7.198892999999999,6.0859485,-1.0026515,1002.9309,5.51055027431481,1002.9173594644244,0,0
4.34,-7.848942299999999,5.8523865,-0.66177386,1002.9312,5.510450516461775,1002.9183934458656,0,0
4.3599999999999985,-7.380519,6.0478153,-0.889025,1002.893,5.510443139637946,1002.919215655462,0,0
4.38,-7.0746107,6.219412,-0.9221658,1002.9055,5.510271150543042,1002.9198927835016,0,0
4.4,-7.0554885999999986,6.2527776,-0.6712421,1002.9429,5.509926433516128,1002.9205739198172,0,0
4.42,-7.566923599999999,5.7522892999999975,-0.4392559,1002.9484,5.5095631961219125,1002.9212759457539,0,0
4.44,-7.4187474,5.785655,-0.8369456000000001,1002.8954,5.509039323690233,1002.9218031024672,0,0
4.46,-7.6386156,5.8142543,-0.7848669,1002.9483,5.508763041152898,1002.9223642869699,0,0
4.48,-7.108053999999999,6.2003455,-1.1494156999999998,1002.92303,5.5084371114323165,1002.9228625461636,0,0
4.5,-7.217988,6.1383800000000015,-1.1683533000000002,1002.9311,5.508161693486587,1002.9233324628208,0,0
4.52,-7.1319504,6.157446,-1.177822,1002.92786,5.507825153572483,1002.923763980313,0,0
4.539999999999999,-7.409175,5.661724,-0.8984916999999999,1002.943,5.5071705118194965,1002.92421451884,0,0
4.56,-7.471311599999999,5.5282607000000015,-0.8842884,1002.948,5.50617112804794,1002.9246982424146,0,0
4.579999999999999,-8.111801,5.533027,-0.7801312,1002.918,5.5059388877783775,1002.9251015468924,0,0
4.6,-7.504763,6.028749,-1.0405233,1002.9355,5.506036908957465,1002.9254953411604,0,0
4.619999999999999,-7.3565884000000015,6.157446,-1.0547265,1002.9355,5.506361464634278,1002.9258793145468,0,0
4.64,-7.22275,6.2003445999999975,-0.5670823,1002.92303,5.506645400384246,1002.9262083358992,0,0
4.659999999999998,-7.0411160000000015,6.2051110000000005,-0.7138486999999999,1002.95526,5.506635339929332,1002.9266036451567,0,0
4.68,-7.6290283,5.914351,-0.5386754,1002.9401,5.506897292455162,1002.9270015272944,0,0
4.699999999999998,-7.533431,5.919118,-0.9174276,1002.9276,5.507307986146048,1002.9273552504526,0,0
4.72,-7.538925,5.8714695,-1.1352756000000002,1002.9223,5.507845192984141,1002.9276496013338,0,0
4.739999999999998,-7.538925,5.8714695,-1.1352756000000002,1002.9501,5.508492252894484,1002.9279905112076,0,0
4.76,-7.371683,6.0049343,-0.6949807,1002.9376,5.5090480296464905,1002.9283263333316,0,0
4.7799999999999985,-7.409934,6.109799,-0.6807786,1002.94507,5.509718162024028,1002.9286833429603,0,0
4.8,-7.4338455,6.314761,-0.7517958,1002.93976,5.510808504011783,1002.9290386726336,0,0
4.8199999999999985,-6.888986,6.2575629999999975,-0.770737,1002.93475,5.511342913858397,1002.9293732027116,0,0
4.84,-7.558184599999999,5.8857727,-0.42986217,1002.9426,5.511905115974461,1002.9297164099588,0,0
4.8599999999999985,-7.71593,5.685578,-0.54348904,1002.93225,5.5125118931807435,1002.9300287888063,0,0
4.88,-7.7303076,5.857175,-0.83229125,1002.92224,5.513435389800205,1002.9302767671164,0,0
4.9,-7.5869393,5.861942,-0.6571205,1002.91473,5.514377436126303,1002.9304399123897,0,0
4.92,-7.6634544999999985,5.9191413,-0.3257157,1002.91705,5.515495649092887,1002.9305358638684,0,0
4.94,-7.6634544999999985,5.9191413,-0.3257157,1002.91956,5.516765497336325,1002.9305811334848,0,0
4.96,-7.3671570000000015,5.814278,-0.7849575,1002.93976,5.517601933433042,1002.9306541776376,0,0
4.98,-7.634839,5.776146400000001,-0.9222565,1002.9243,5.518468199790069,1002.9306958444113,0,0
5.0,-7.290717999999999,5.7999797,-1.2110575,1002.92474,5.5188937314867665,1002.9307112201327,0,0
5.02,-7.7352777,5.533053400000001,-0.8985902,1002.9218,5.519256909513199,1002.930692725728,0,0
5.039999999999999,-7.7352777,5.533053400000001,-0.8985902,1002.92694,5.519563684395688,1002.930662874259,0,0
5.06,-7.419849,5.275660500000001,-1.2773461000000002,1002.9194,5.5190724176318895,1002.930595951154,0,0
5.079999999999999,-7.3481646,5.089765,-1.2868161,1002.9218,5.517540043514533,1002.9305051524741,0,0
5.1,-7.9074273,5.394825,-0.6476738000000001,1002.9243,5.516264318472435,1002.9304025842116,0,0
5.119999999999999,-8.21336,6.0192447,-0.21684527,1002.9346,5.5164480067500286,1002.9303270655915,0,0
5.14,-6.9228380000000005,6.619831,-0.8701955,1002.9343,5.516741648228304,1002.9302746399028,0,0
5.159999999999998,-7.329159700000001,6.3290725,-0.27366394,1002.9419,5.517276035277767,1002.9302701678606,0,0
5.18,-7.878862,5.8047523000000005,-0.15057173,1002.9192,5.518228870441726,1002.9302263637601,0,0
5.199999999999998,-7.654224,5.738020400000001,-0.3352147,1002.9243,5.519100331212221,1002.9301663235467,0,0
5.22,-7.475802000000002,5.7713475,-0.58599454,1002.90894,5.51966909017537,1002.9300368572501,0,0
5.239999999999998,-7.150718,6.066873,-0.9884136999999998,1002.95416,5.51989981763596,1002.9300093041437,0,0
5.26,-7.136359700000001,6.1431375,-1.187257,1002.9063,5.519958313302741,1002.9298996047245,0,0
5.2799999999999985,-7.7003384000000015,5.9953730000000025,-0.89845467,1002.9134,5.520507802480007,1002.9297432757402,0,0
5.3,-7.2414393,6.100236,-1.0262803,1002.886,5.520914546805493,1002.9294476676573,0,0
5.3199999999999985,-7.6046667,6.0716357000000025,-0.56703943,1002.9138,5.521658824438885,1002.9291301367516,0,0
5.34,-7.002373,5.9906034,-1.068883,1002.9263,5.521720416728081,1002.9288393779508,0,0
5.3599999999999985,-7.695406,5.7808743,-0.3587187,1002.9312,5.521915415078358,1002.928590961714,0,0
5.38,-7.442039,5.857138,-0.813218,1002.939,5.521965281371012,1002.928408933665,0,0
5.4,-7.394222,5.928636599999999,-0.9694516,1002.9288,5.521931695870961,1002.9282495015196,0,0
5.42,-7.441963,5.914335,-0.8605552,1002.91846,5.521861507613348,1002.9280733850703,0,0
5.44,-7.628337400000001,5.6903057,-0.8700205,1002.9263,5.5217837473196525,1002.92791138439,0,0
5.46,-7.5136027,5.709371,-0.7563930999999999,1002.9313,5.521513317282037,1002.9277804396048,0,0
5.48,-7.66172,5.5616074,-0.8179350999999999,1002.9288,5.5211480331653,1002.9276684072099,0,0
5.5,-7.4466095,5.690304,-1.0877944,1002.9284,5.520558932472104,1002.9275720491198,0,0
5.52,-7.518267999999999,5.699836,-1.1872134,1002.9161,5.519928572341192,1002.9274456077346,0,0
5.539999999999999,-7.4656334000000015,5.8666635000000005,-0.8842063,1002.9186,5.519320041345162,1002.9273020399388,0,0
5.56,-7.3652196,6.1431236,-1.3008303999999995,1002.93097,5.519029521958002,1002.9271883880908,0,0
5.579999999999999,-7.8575015,6.267053,-0.8652616,1002.9335,5.5198715402833365,1002.9271106871204,0,0
5.6,-7.776187400000001,5.981058,-1.0735701000000002,1002.94104,5.52125608207683,1002.9270921760697,0,0
5.619999999999999,-7.374665299999997,5.8523602,-1.1871942,1002.9236,5.522325908361455,1002.9270632478713,0,0
5.64,-7.312489500000001,5.523467,-1.0877683,1002.9234,5.522571822589007,1002.9270244992227,0,0
5.6599999999999975,-7.5466614,5.0468106,-1.1682496,1002.93604,5.521933119026069,1002.9270227167198,0,0
5.68,-7.8143125,4.9085800000000015,-1.0972316999999998,1002.9282,5.520805129880227,1002.92702537992,0,0
5.6999999999999975,-7.6851997,4.9753102999999985,-1.3670876,1002.8954,5.519173054787449,1002.926913881756,0,0
5.72,-7.6095614,5.056362,-1.3245548,1002.91064,5.517049926500179,1002.926756776004,0,0
5.7399999999999975,-8.202254,5.361422,-1.0215526,1002.9183,5.515789915397417,1002.9265875129677,0,0
5.76,-7.499616599999999,5.962008,-0.65226847,1002.91785,5.514778930496153,1002.9264064971023,0,0
5.7799999999999985,-7.638227,5.890509,-0.25457808,1002.92804,5.5140877287533865,1002.926252432094,0,0
5.8,-7.795957,5.828544,-0.15515526,1002.92303,5.513860374845635,1002.9261046994973,0,0
5.8199999999999985,-7.1124410000000005,5.785645,-0.94106615,1002.9377,5.512965975487771,1002.9260159060564,0,0
5.84,-7.8819857,5.5377839999999985,-0.75168955,1002.91534,5.5124114777043625,1002.9258990149104,0,0
5.8599999999999985,-7.528276400000001,5.614049,-1.0404879,1002.91046,5.511715285599163,1002.92574014944,0,0
5.88,-7.528276400000001,5.614049,-1.0404879,1002.9098,5.510896398682807,1002.9255423913723,0,0
5.9,-8.0301485,5.432919,-1.2961451000000002,1002.93787,5.510664296888431,1002.9254120317348,0,0
5.92,-8.006248,5.409086,-1.4097705,1002.92035,5.510915974863925,1002.9252786226448,0,0
5.94,-7.8341702999999985,5.437686,-0.013120862,1002.89984,5.5111200843583825,1002.9250691633316,0,0
5.96,-7.413544,5.776111599999999,-0.40134168,1002.9277,5.51101177031729,1002.9248935560942,0,0
5.98,-7.389642,6.0192055999999985,-0.79429686,1002.89734,5.5109546546413455,1002.9246391967372,0,0
6.0,-7.642967,6.009672,-0.93632865,1002.9353,5.5113665177390665,1002.9244528237014,0,0
6.02,-7.5425878,5.8333097,-1.2345959,1002.9301,5.511873288781445,1002.9243084743216,0,0
6.039999999999999,-7.733776,5.6188150000000014,-1.1257043,1002.9226,5.512484481894556,1002.9241747767018,0,0
6.06,-8.020559,5.5520825,-0.19776037,1002.9348,5.513458604104451,1002.924094892289,0,0
6.079999999999999,-7.714647,5.8285427000000025,-0.12200954,1002.9351,5.5145689252933465,1002.9240639248096,0,0
6.1,-7.714647,5.8285427000000025,-0.12200954,1002.9176,5.515795594743813,1002.9240132918152,0,0
6.119999999999999,-7.308356,6.2622995,-0.30665067,1002.95233,5.517036640496869,1002.9240704926513,0,0
6.14,-7.3991704,6.157435,-0.6191211999999999,1002.9299,5.518320701331336,1002.924142021536,0,0
6.1599999999999975,-7.3322515,6.100236,-0.8984508,1002.9276,5.519501607076988,1002.9242176731813,0,0
6.18,-7.652492,5.7332115,-0.6948709,1002.91455,5.5206013394106375,1002.9242497153516,0,0
6.1999999999999975,-7.504314999999999,5.7808769999999985,-0.9410597,1002.9151,5.521484588457093,1002.924245088838,0,0
6.22,-7.504314999999999,5.7808769999999985,-0.9410597,1002.9172,5.522173373174418,1002.9242156385308,0,0
6.2399999999999975,-7.408745,6.0573378,-0.6901385999999999,1002.9248,5.522844245936985,1002.9241917199404,0,0
6.26,-7.198432,6.162202,-0.7942953,1002.9273,5.5233188730781055,1002.9241817752825,0,0
6.2799999999999985,-7.2796850000000015,5.976306,-0.43921465,1002.9223,5.5234517742014715,1002.9241662137916,0,0
6.3,-7.542573,5.7856440000000005,-0.38240167,1002.9198,5.523458614503844,1002.9241367452884,0,0
6.3199999999999985,-7.7624397,5.6140475,-1.0168116,1002.94763,5.523603339973015,1002.9241952826362,0,0
6.34,-7.547347500000001,5.737978,-0.6569967,1002.9371,5.523599117516136,1002.9242934632193,0,0
6.3599999999999985,-7.4565277,5.747511,-0.6711996,1002.8993,5.523327864087831,1002.9242902391147,0,0
6.38,-7.317912,6.028738,-1.2014527,1002.9498,5.523068573054641,1002.924379225435,0,0
6.4,-7.4182844,5.8952746,-0.8700440999999999,1002.9423,5.522733732671777,1002.924522368536,0,0
6.42,-7.853244,5.7427444,-0.6854021,1002.9471,5.5228273969264965,1002.9247301292537,0,0
6.44,-8.034875999999999,5.77611,-0.8179653,1002.92706,5.5236657208011914,1002.924922094158,0,0
6.46,-7.485195,6.1193023,-0.7090736999999999,1002.9018,5.524670205969522,1002.9250084748088,0,0
6.48,-7.265320299999999,6.1240687000000005,-0.77062064,1002.92957,5.525483454942584,1002.9251012222426,0,0
6.5,-7.714618700000001,5.8237752999999985,-0.24510153,1002.9418,5.5264071783887765,1002.9252432894748,0,0
6.52,-7.4804068,5.585448,-0.5386344,1002.91675,5.526764296642972,1002.9253382442392,0,0
6.539999999999999,-7.671597,5.518716,-0.40607095,1002.9572,5.5268438592629545,1002.9255368485897,0,0
6.56,-7.705052,5.5282493,-0.72327566,1002.89667,5.52678504109306,1002.9256084147388,0,0
6.579999999999999,-7.719389,5.561615,-0.7706195,1002.9518,5.526676354190335,1002.9257659402953,0,0
6.6,-7.719389,5.561615,-0.7706195,1002.9321,5.52652399454813,1002.9259279324916,0,0
6.619999999999999,-7.666806699999999,5.676012,-0.6901343000000001,1002.9242,5.526372634492295,1002.9260648482395,0,0
6.64,-7.6237864,5.6664786,-0.6143835,1002.9318,5.526128516070004,1002.9262064735408,0,0
6.6599999999999975,-7.6572429999999985,5.676012,-0.8132283,1002.92926,5.525901684632653,1002.9263426063519,0,0
6.68,-7.819752999999999,5.680778,-1.068886,1002.9393,5.526019618497614,1002.9265095399213,0,0
6.6999999999999975,-7.1888165,5.7856426,-0.6143828,1002.94183,5.525452290007813,1002.9267121960793,0,0
6.72,-7.5860205,5.7713547,-0.15992393,1002.9442,5.524873745211677,1002.9269542191548,0,0
6.7399999999999975,-7.6864203999999985,5.785655,-0.84168047,1002.9392,5.52454530199141,1002.9272121555548,0,0
6.76,-7.66253,5.7713556,-0.78013396,1002.9418,5.524370930242497,1002.9274925843984,0,0
6.7799999999999985,-7.614756599999999,5.847621,-0.89376193,1002.92145,5.524370700773335,1002.9277186180208,0,0
6.8,-7.514388999999999,5.9095864,-0.8511530999999999,1002.9418,5.524430977674028,1002.9279690343044,0,0
6.8199999999999985,-7.4474883,5.76659,-0.62390316,1002.8994,5.524216330569834,1002.9280874536094,0,0
6.84,-7.466624,5.79519,-0.7043896,1002.93896,5.52383896523278,1002.9282312300737,0,0
6.8599999999999985,-7.619594599999999,5.8237896,-0.47713962,1002.914,5.523577520672458,1002.9283070385301,0,0
6.88,-7.15119,6.12885,-0.16940482,1002.92377,5.5230401378335845,1002.9283576895427,0,0
6.9,-7.0699415,6.1002502,-0.4771419,1002.9293,5.522116226415948,1002.9284058370956,0,0
6.92,-7.763037700000001,5.733226,-0.81802136,1002.9263,5.521550624581479,1002.9284407992596,0,0
6.94,-7.8825493,5.652195,-0.47714567,1002.91156,5.521357857256874,1002.9284109209503,0,0
6.96,-7.610109,5.704627,-1.0121341,1002.9064,5.521190219147449,1002.9283052811608,0,0
6.98,-7.863462400000001,5.7618265,-1.3530136,1002.92145,5.521621849786552,1002.9281872588307,0,0
7.0,-7.3902793,5.8476253,-1.2535926000000002,1002.9343,5.521885262279698,1002.928104980168,0,0
7.02,-7.380727999999999,5.78566,-0.9079817,1002.954,5.521822414635812,1002.9281255008127,0,0
7.039999999999999,-7.476339999999999,5.8428593,-0.5765749,1002.92145,5.521646507052844,1002.9281196010519,0,0
7.06,-7.533722999999997,5.766595,-0.5055611,1002.9388,5.5213602981178695,1002.9281528374594,0,0
7.079999999999999,-7.452474,5.8619265999999985,-0.64285964,1002.9465,5.5209829756736015,1002.9282482549339,0,0
7.1,-7.892239999999997,5.6521983,-0.73755,1002.9388,5.521008765395689,1002.9283705520967,0,0
7.119999999999999,-7.6580386,5.7713623,-0.7044099,1002.9311,5.5211405558368565,1002.9284884398824,0,0
7.14,-7.4764222999999985,5.6760316,-0.9411317,1002.92834,5.520989056369401,1002.9285920711462,0,0
7.1599999999999975,-7.667639,5.7189317000000015,-0.21203558,1002.94073,5.520866041558686,1002.9287273362747,0,0
7.18,-7.634189599999999,5.704632,-0.37774047,1002.93896,5.520705817321243,1002.9288836941316,0,0
7.1999999999999975,-7.624637599999999,5.6426669999999985,-0.7801657,1002.93866,5.520471524581139,1002.9290570466353,0,0
7.22,-7.7578520000000015,5.637885,-1.0878451999999998,1002.9433,5.520451284174813,1002.9292614955394,0,0
7.239999999999997,-7.657472,5.704617,-1.1351888,1002.9509,5.5205463347178245,1002.9295200452073,0,0
7.26,-7.375458999999997,5.8428473,-1.329299,1002.9134,5.520507563095896,1002.929690467531,0,0
7.2799999999999985,-7.6622343,5.814247,-0.93160784,1002.9356,5.520684680919803,1002.9298623270132,0,0
7.3,-7.3515380000000015,5.814247,-0.78010607,1002.9309,5.520515208490084,1002.9300179176744,0,0
7.3199999999999985,-7.494923,5.8142467,-0.7943084,1002.9357,5.520276357805796,1002.930175853079,0,0
7.34,-7.48535,5.8476120000000025,-0.89372975,1002.9433,5.520022159261161,1002.9303626517316,0,0
7.3599999999999985,-7.5474830000000015,5.7665805999999975,-0.96474546,1002.91534,5.519768914926667,1002.9304736254744,0,0
7.38,-7.7625656,5.7284484,-0.8369155999999999,1002.90784,5.519801057558833,1002.930490200822,0,0
7.399999999999999,-7.643062,5.685549,-1.0736351,1002.9124,5.519882644461398,1002.9304397220765,0,0
7.42,-7.6526165,5.7808800000000025,-0.91266495,1002.9306,5.520107062421461,1002.9303956960573,0,0
7.439999999999999,-7.595250599999999,5.790413,-0.7232879,1002.9505,5.520340664541884,1002.9304291701607,0,0
7.46,-7.4136043,5.895277,-0.66647387,1002.91547,5.5204093811630965,1002.930404894866,0,0
7.479999999999999,-7.662145599999999,5.89051,-0.54337853,1002.92285,5.520716067831152,1002.930356247594,0,0
7.5,-7.556986,5.819011,-0.52917486,1002.92035,5.520966834891716,1002.9302772403734,0,0
7.52,-7.2940826,5.9429417,-0.6475338,1002.9504,5.520914647986847,1002.9302798715275,0,0
7.539999999999999,-7.327536999999999,5.857144,-0.6570022,1002.9101,5.520538578216582,1002.9302095488782,0,0
7.56,-7.872425999999999,5.5902160000000025,-0.7848303000000001,1002.9558,5.520466781234732,1002.9302395374092,0,0
7.579999999999999,-7.3753133,5.8237767,-0.8227042999999999,1002.9356,5.520136551714693,1002.9302853329403,0,0
7.6,-7.490023,5.8952756,-0.6475309,1002.9099,5.519829352335318,1002.9302524106732,0,0
7.619999999999999,-7.470891,5.938174,-0.8274370999999999,1002.9356,5.519596486313641,1002.9302425718796,0,0
7.64,-7.427869,5.9858394,-0.69013894,1002.9534,5.5193996339911235,1002.9303172450624,0,0
7.659999999999997,-7.54735,5.861909,-1.1162341999999998,1002.95074,5.519353464830656,1002.9304567482048,0,0
7.68,-7.6668406,5.7236786,-0.90791994,1002.9456,5.519418430291536,1002.9306345288879,0,0
7.699999999999997,-7.7146297000000015,5.609281,-0.43921307,1002.9583,5.519451959681602,1002.9308912115956,0,0
7.72,-7.5698895,5.6426134,-0.6237315999999999,1002.9254,5.5192781666778865,1002.931098248074,0,0
7.739999999999997,-7.4024696,5.928604,-0.46748465,1002.91034,5.518991110063193,1002.9312064558136,0,0
7.76,-7.435864,5.809438,-0.8414968,1002.9226,5.518559679430932,1002.9312710849312,0,0
7.7799999999999985,-7.579227,5.742706299999999,-1.0071981,1002.9277,5.518186544178595,1002.931315335314,0,0
7.8,-7.6556406,5.4948435,-0.8130816999999999,1002.92236,5.517650495329945,1002.9313221957448,0,0
7.8199999999999985,-7.837178,5.604472,-0.76099455,1002.9448,5.517401448967156,1002.9313767777167,0,0
7.84,-7.287437400000001,5.833265,-0.81306714,1002.9226,5.516793693039403,1002.9313934099476,0,0
7.8599999999999985,-7.650638000000002,5.6807337,-0.88881177,1002.9298,5.516287971873472,1002.9314023699108,0,0
7.88,-7.7079334,5.6330667000000005,-0.6710235,1002.90283,5.515874334195459,1002.9313074264026,0,0
7.899999999999999,-7.6887507,5.594932599999999,-0.94561315,1002.93286,5.515513165544845,1002.9312291235836,0,0
7.92,-7.8655715,5.4948344,-0.82725,1002.92554,5.515354617150626,1002.931139454368,0,0
7.939999999999999,-7.7746916,5.4709992,-0.8083066999999999,1002.92285,5.515189880355647,1002.9310303806133,0,0
7.96,-7.588216,5.3995,-0.9219267,1002.90045,5.514641361945556,1002.9308239136734,0,0
7.979999999999999,-7.726767,5.3661322999999985,-1.1207658,1002.92035,5.513995073940031,1002.930603773396,0,0
8.0,-8.051730000000001,5.5377264,-0.64258516,1002.9405,5.513928725322334,1002.9304448838627,0,0
8.02,-7.296458199999999,5.9190497,-0.68518895,1002.9399,5.513599779596967,1002.9303385274893,0,0
8.04,-7.043065,6.071578,-0.893497,1002.92035,5.512876500755934,1002.9302085922988,0,0
8.059999999999999,-7.353689,5.9142804,-0.77039665,1002.9399,5.512070576773337,1002.930128670632,0,0
8.08,-7.425323,5.8094144,-0.7041092,1002.92285,5.511165038907949,1002.9300318486332,0,0
8.1,-8.013175,5.571085,-0.7183066,1002.9402,5.510864331969786,1002.9299829020598,0,0
8.12,-7.7311354,5.642582,-1.0165712,1002.9126,5.510764916141111,1002.9298770744203,0,0
8.139999999999999,-7.7358202999999985,5.6807120000000015,-1.0165626,1002.9304,5.510898084157327,1002.92978544765,0,0
8.16,-7.7453475,5.7093110000000005,-0.7987770000000001,1002.9254,5.5112446681495975,1002.929688698624,0,0
8.18,-7.836100599999999,5.5853796,-0.5715197,1002.9409,5.5117465741449125,1002.92964357187,0,0
8.2,-7.620914,5.6950080000000005,-0.6283239,1002.9254,5.512164807348313,1002.9295884210112,0,0
8.219999999999999,-7.6954966,5.6855454000000005,-0.38239893,1002.9334,5.512593098329709,1002.9295534113968,0,0
8.24,-7.619074,5.604515,-0.8937195,1002.9181,5.5128726316981265,1002.9294812446203,0,0
8.26,-8.039777,5.50442,-0.9268676,1002.92285,5.5136162843380365,1002.929393605576,0,0
8.28,-8.039777,5.50442,-0.9268676,1002.8977,5.5147673556167325,1002.9292020707364,0,0
8.299999999999999,-7.485425,5.695084,-0.7706420999999999,1002.9073,5.515545990026655,1002.9289539830977,0,0
8.32,-7.600167,5.685552,-0.7422380999999999,1002.9101,5.5161659083777845,1002.9286668985203,0,0
8.34,-7.1891837,5.833317299999999,-0.960028,1002.9511,5.5162011986870185,1002.9284939897535,0,0
8.36,-7.743694,5.561625,-0.90322,1002.95557,5.516278755614326,1002.9284386812042,0,0
8.379999999999999,-7.648152,5.6521907,-1.0594602,1002.9359,5.516377277143484,1002.9284166713174,0,0
8.4,-7.8154984,5.728457,-0.33510122,1002.9433,5.516757820547516,1002.9284508033647,0,0
8.42,-7.6530375,5.771357,-0.8369530000000001,1002.9379,5.517232168255132,1002.9285149795495,0,0
8.44,-7.571808,5.7856574,-1.1636293,1002.9226,5.517742506660147,1002.9285503917006,0,0
8.459999999999999,-7.724814999999999,5.704627,-1.0026644,1002.93616,5.518397308099399,1002.9286090764667,0,0
8.48,-7.548014999999999,5.709395,-0.6049794,1002.94867,5.5188206298283315,1002.9287331496507,0,0
8.5,-7.6771235,5.6474314,-0.964799,1002.9663,5.519237075554495,1002.9289780213774,0,0
8.52,-7.6723967,5.5854673,-0.87958467,1002.95355,5.519545258748107,1002.929282849158,0,0
8.54,-7.529082300000002,5.652201,-0.9316704,1002.9357,5.519610640922163,1002.9295752967282,0,0
8.559999999999999,-7.682062599999999,5.6379023,-0.794375,1002.94604,5.5196719728578305,1002.9298929763327,0,0
8.58,-7.6964817,5.537806,-0.8890703999999999,1002.9438,5.519649189917955,1002.9302237433168,0,0
8.6,-7.7251883,5.5425735000000005,-0.84172887,1002.9186,5.519597246777782,1002.9304741635478,0,0
8.62,-7.648738000000002,5.5378075,-0.9648258,1002.93616,5.5194099158003285,1002.9307159038752,0,0
8.639999999999999,-7.677496400000001,5.4424787000000014,-1.0784589,1002.92084,5.519062663871014,1002.9308939523744,0,0
8.66,-7.797018,5.4186463,-0.922226,1002.92834,5.518715083384253,1002.9310420817999,0,0
8.68,-7.6680160000000015,5.561644,-0.78019863,1002.9463,5.518295706638815,1002.931227897466,0,0
8.7,-7.7875643,5.6188445,-0.49613923,1002.92145,5.518045358297498,1002.9313568837573,0,0
8.719999999999999,-7.5324144,5.656932,-0.82738084,1002.93896,5.517613858091417,1002.9314982272628,0,0
8.74,-7.780943,5.585433,-0.86525416,1002.94147,5.517357961934126,1002.9316590167664,0,0
8.76,-7.623187,5.5091677,-0.94573706,1002.94354,5.516916958043732,1002.931843861911,0,0
8.78,-7.690094,5.537767,-0.7895008000000001,1002.944,5.5164311969338415,1002.932050953178,0,0
8.799999999999997,-8.053327000000001,5.3852363,-0.8889201999999999,1002.9313,5.516363487510771,1002.9322312355904,0,0
8.82,-7.795195599999999,5.652163,-1.0546225,1002.96686,5.516577330437172,1002.9325151966817,0,0
8.84,-7.5705132,5.704594,-0.709008,1002.93396,5.516663766973294,1002.9327713059937,0,0
8.86,-7.422328,5.7093606,-0.6995380999999999,1002.93396,5.516397455146453,1002.9330018834804,0,0
8.879999999999997,-7.5035734,5.5568304,-0.7326779999999999,1002.93646,5.515769625864079,1002.9332180709672,0,0
8.9,-7.9385033,5.337568,-0.50068915,1002.95667,5.515267999173158,1002.9334935211748,0,0
8.92,-7.790319,5.370933999999999,-0.68533,1002.9367,5.514688431235457,1002.933748452302,0,0
8.94,-7.8858933,5.4853305999999975,-0.8652354,1002.9138,5.5143700704094805,1002.933901895018,0,0
8.959999999999997,-7.541726,5.6759925,-0.8368270000000001,1002.9418,5.513932555386939,1002.9340659101796,0,0
8.98,-7.7089979999999985,5.680758,-0.7847465,1002.92145,5.5136658602673805,1002.9341654166997,0,0
9.0,-7.8475795,5.480562,-0.6095706999999999,1002.9363,5.513516111212598,1002.9342610251607,0,0
9.02,-7.675485000000001,5.509161,-0.813148,1002.929,5.513244944215443,1002.9343265651064,0,0
9.04,-7.642016,5.5186934,-0.86522555,1002.929,5.512832353734602,1002.934365300568,0,0
9.06,-8.019599000000001,5.4519615,-0.9599116,1002.9293,5.5128755820630415,1002.9343812921396,0,0
9.08,-7.699330000000002,5.4662604,-1.0498633,1002.94183,5.512814107253457,1002.9344222376407,0,0
9.1,-7.761446,5.490093,-0.78473467,1002.9218,5.512740581600915,1002.93441297703,0,0
9.12,-7.7375255,5.45196,-0.6521694,1002.9318,5.512549786082469,1002.9343953876372,0,0
9.14,-7.7422943,5.5282245,-0.49119872,1002.9218,5.512335546835848,1002.9343345022542,0,0
9.16,-7.632337599999999,5.5806559999999985,-0.5669472,1002.95404,5.511988903481061,1002.9343516437216,0,0
9.18,-7.904754,5.4853244000000005,-0.69477314,1002.9194,5.511889502690144,1002.9343129640048,0,0
9.2,-8.052916999999999,5.3852262,-0.70424104,1002.9317,5.512147359333987,1002.9342693799364,0,0
9.22,-7.8195972,5.4519800000000025,-0.4865399,1002.9342,5.512370368113028,1002.934230619286,0,0
9.24,-7.824392299999999,5.5091790000000005,-0.5244165,1002.9218,5.512642218189887,1002.9341516201456,0,0
9.26,-7.7431583,5.63311,-0.6901228,1002.90424,5.512990646825181,1002.933974134673,0,0
9.28,-7.982163000000001,5.4424480000000015,-0.77534336,1002.91675,5.513596352269543,1002.9337553016245,0,0
9.3,-7.7049509999999986,5.618811599999999,-0.54809344,1002.9342,5.514135741269198,1002.9335635416568,0,0
9.32,-7.7192974,5.566379,-0.47707805,1002.91675,5.5145668811762585,1002.9333335737996,0,0
9.34,-7.4994416,5.69031,-0.85583174,1002.91705,5.514742481535947,1002.933071753335,0,0
9.36,-7.5759335,5.5806794,-0.5717689,1002.8893,5.514637927576215,1002.9326828304606,0,0
9.38,-8.187764,5.27562,-0.25929958,1002.92206,5.514944661154343,1002.9323009360193,0,0
9.4,-8.025273,5.33282,-0.30664575,1002.92206,5.51539916024658,1002.9319266267212,0,0
9.42,-7.599886,5.699845,-0.5907114,1002.9067,5.515728450412666,1002.931505071169,0,0
9.44,-7.4134884,5.8237752999999985,-0.57650954,1002.8946,5.515793908447571,1002.930999726427,0,0
9.46,-7.499541000000002,5.699846,-0.64279264,1002.92206,5.5156189666928,1002.9305210207978,0,0
9.48,-7.9870953999999985,5.3947864,-0.34926096,1002.89685,5.515654201698396,1002.9299768208288,0,0
9.5,-7.8341565000000015,5.3614206,-0.48656008,1002.9071,5.515585905692369,1002.9294136091812,0,0
9.52,-7.6955576,5.5139502999999985,-0.4865615,1002.92206,5.515372338856092,1002.9288894823767,0,0
9.54,-7.6382074000000015,5.55685,-0.6570007,1002.9201,5.515008193183695,1002.9283947217954,0,0
9.56,-7.786403999999999,5.680781,-0.67120606,1002.9198,5.5149140248059245,1002.9279266103473,0,0
9.58,-7.6000074999999985,5.761812,-0.8416459999999999,1002.9172,5.514876907666838,1002.9274743712746,0,0
9.6,-7.623914,5.7475133000000005,-0.61912966,1002.9451,5.514876689866264,1002.9271382250934,0,0
9.62,-7.5617990000000015,5.6664824000000005,-0.41555238,1002.91724,5.514681986228695,1002.9268055727173,0,0
9.64,-7.800805599999999,5.385256299999999,-0.59546113,1002.9498,5.514397889061077,1002.9265944210159,0,0
9.66,-7.8294992,5.390023,-0.5954625,1002.91473,5.5140904440090335,1002.926365135457,0,0
9.68,-7.944222,5.4233894,-0.47236872,1002.9326,5.51398472340237,1002.9261849842494,0,0
9.7,-7.260357000000001,5.86667,-1.2251067,1002.9301,5.513608488403606,1002.9260398966992,0,0
9.72,-7.566264,5.842838,-1.0215273,1002.9177,5.513409556426394,1002.9258816737117,0,0
9.74,-7.8052545,5.623576,-0.85582316,1002.9073,5.513459504947907,1002.9256749738544,0,0
9.76,-7.7096589999999985,5.594977,-0.42025796,1002.93567,5.513473637694094,1002.9255283159545,0,0
9.78,-7.781356,5.537778,-0.23088175,1002.91046,5.5134942439917545,1002.9253444830968,0,0
9.8,-7.456328999999997,5.6617084,-0.3681795,1002.9226,5.513137991420035,1002.9251721682448,0,0
9.82,-7.8434935,5.599743,-0.5480868,1002.9382,5.513039024689388,1002.9250668110357,0,0
9.84,-7.6857595,5.699841,-0.7611351,1002.9131,5.513055525519404,1002.924930636886,0,0
9.86,-7.7192183,5.7522730000000015,-0.7706039000000001,1002.92316,5.513296003976816,1002.9248039391147,0,0
9.88,-7.771795699999997,5.776106,-0.6569782,1002.9152,5.513833031590114,1002.924657414783,0,0
9.9,-7.666639999999999,5.680774,-0.61910295,1002.9152,5.5143319947782405,1002.9244938991903,0,0
9.92,-7.599723299999999,5.7332067,-0.46760198,1002.93036,5.514731546800599,1002.9243705347757,0,0
9.94,-7.6092825,5.6855410000000015,-0.51494604,1002.94324,5.515003361983959,1002.9243294600535,0,0
9.96,-7.384631599999999,5.776106,-0.74219745,1002.9508,5.514936679509424,1002.9243884603728,0,0
9.98,-7.8817315,5.676008,-0.8510888000000001,1002.93353,5.515289046338261,1002.9244735025978,0,0
10.0,-7.2651367,5.8333044,-0.8084792,1002.9211,5.515183500358247,1002.9245365012983,0,0
10.02,-7.829153999999999,5.556844,-0.5102116,1002.9309,5.515218496248287,1002.9246150755456,0,0
10.04,-7.561484299999999,5.680774,-0.51494604,1002.9286,5.515081114710583,1002.9246988494783,0,0
10.06,-7.604503,5.7284403,-0.46286756,1002.9409,5.5149171823963705,1002.9248311962673,0,0
10.08,-7.7335577,5.804705,-0.35397628,1002.9158,5.5150301230954994,1002.9249156255831,0,0
10.1,-7.7670164,5.737973,-0.35397628,1002.9183,5.515360257892199,1002.9249664110747,0,0
10.12,-7.642741,5.737973,-0.52914923,1002.9409,5.515690897272948,1002.9250686460556,0,0
10.14,-7.499347,5.838071,-0.6806502,1002.90326,5.515930551302155,1002.9250804697583,0,0
10.16,-7.5089070000000016,5.8571370000000025,-0.6806502,1002.9286,5.516128877042968,1002.9251035874913,0,0
10.18,-7.747897,5.599743,-0.70432216,1002.9186,5.516369281083014,1002.9251006014048,0,0
10.2,-7.7574562999999985,5.642642,-0.65224373,1002.9234,5.516706605704568,1002.9250918407339,0,0
10.22,-7.733005499999999,5.5425309999999985,-0.4012698,1002.94104,5.516936888641113,1002.9251415131786,0,0
10.24,-7.527452499999999,5.4900980000000015,-0.8983802,1002.9136,5.516733922212905,1002.9251438543033,0,0
10.26,-7.6995144,5.3423347,-0.7989569000000001,1002.956,5.516243078630347,1002.9252570050453,0,0
10.28,-7.8619949999999985,5.7999230000000015,-0.34445104,1002.9359,5.5162697736742095,1002.9253952998226,0,0
10.3,-7.4078927,6.038251,-0.29237062,1002.9309,5.516308054317051,1002.9255373140088,0,0
10.32,-7.5895142999999985,5.9858184,-0.14086866,1002.9312,5.516575620487024,1002.9256831834132,0,0
10.34,-7.412628999999999,5.9953504,-0.62377495,1002.9136,5.516810146184958,1002.9257685741586,0,0
10.36,-7.5321136,5.9047856,-0.55275786,1002.9288,5.5170824332023045,1002.9258549385544,0,0
10.38,-7.6850457,5.6759906,-0.45333344,1002.9263,5.51734125686946,1002.9259328523557,0,0
10.4,-7.3982363,5.7141223,-0.6285044,1002.90857,5.5171808421412525,1002.9259391907216,0,0
10.42,-7.369535400000001,5.6998224,-0.36811024,1002.9513,5.516556434929264,1002.9260360902156,0,0
10.44,-7.7901479999999985,5.5425260000000005,-0.31603074,1002.9335,5.516027393730316,1002.9261485806836,0,0
10.46,-7.833133,5.542525,-1.0356573,1002.95374,5.515762359271772,1002.9263473063704,0,0
10.48,-7.809212700000002,5.618789,-1.0545931,1002.9013,5.515787105828411,1002.9264327300847,0,0
10.5,-7.7661734,5.718886,-0.609557,1002.93353,5.51603814531312,1002.92653376065,0,0
10.52,-7.3550777,5.7093525000000005,-0.52433467,1002.91064,5.515785343343782,1002.9265658137192,0,0
10.54,-7.76135,5.537756,-0.5290682,1002.90857,5.515552560792897,1002.926529350882,0,0
10.56,-7.660941999999999,5.714118,-0.6521597,1002.9438,5.515401465842746,1002.9265593066556,0,0
10.58,-7.6704907,5.680752,-0.60008025,1002.9161,5.515290628123709,1002.9265481220732,0,0
10.6,-7.507956,5.8618803,-0.8083921,1002.89575,5.515206747805328,1002.9264273661372,0,0
10.62,-7.3358617,5.938144,-0.95989096,1002.90356,5.51499565921653,1002.9262383436735,0,0
10.64,-7.684755,5.723649,-0.7657774,1002.9113,5.514934565856093,1002.9260175453876,0,0
10.66,-7.5270100000000015,5.6664495000000015,-0.69949484,1002.9311,5.51466292161798,1002.9258407448588,0,0
10.68,-7.8806944,5.509153,-0.25445879,1002.92096,5.514562361660516,1002.92566695323,0,0
10.7,-7.622563,5.7665467,-0.36808258,1002.89105,5.514501864387218,1002.9253887699153,0,0
10.72,-7.3129864,6.052567,-0.9836568,1002.90106,5.514432269588752,1002.9250553835665,0,0
10.74,-7.561546300000002,6.1049995,-1.0167986,1002.90326,5.514828465555984,1002.924682340008,0,0
10.76,-7.246103,6.1335992999999975,-1.1398952,1002.9284,5.515198815042484,1002.9243661022957,0,0
10.78,-7.6572,5.752276,-0.57650423,1002.9337,5.515613060000226,1002.9241202766846,0,0
10.8,-7.6715508,5.6855445,-0.5196923999999999,1002.92377,5.5159988998710805,1002.9239018041786,0,0
10.82,-7.509060400000001,5.699845,-0.62858576,1002.9163,5.516120041235377,1002.9236813953772,0,0
10.84,-7.7002754,5.7522774000000005,-0.7185416,1002.92096,5.516402139985836,1002.9234768451372,0,0
10.86,-7.5999227,5.871442,-0.72801256,1002.9435,5.5168107134289786,1002.9233681879024,0,0
10.88,-7.604736999999999,5.8380766,-0.64279634,1002.9335,5.517282651804254,1002.9233086528934,0,0
10.9,-7.5091634,5.776112,-0.69014245,1002.9363,5.517580334996172,1002.9233028166092,0,0
10.92,-7.480496,5.766579,-0.8321757,1002.9234,5.517687546459185,1002.9232980095284,0,0
10.94,-7.6717105,5.5568514,-0.94580346,1002.9335,5.517705320739495,1002.9233304891576,0,0
10.96,-7.485332499999997,5.6807823,-0.78483677,1002.92346,5.517456353819312,1002.9233596543968,0,0
10.98,-7.447105400000001,5.752281,-0.8227131,1002.93353,5.5170064522551225,1002.9234220380464,0,0
11.0,-7.7721550000000015,5.6950827,-0.8463871999999999,1002.93604,5.5168515533585305,1002.9235225849023,0,0
11.02,-7.638332000000001,5.6807833,-0.94581074,1002.9105,5.516736752354928,1002.9235645467984,0,0
11.04,-7.5857887,5.804715,-0.7375001,1002.9211,5.516687413609805,1002.9235927519617,0,0
11.06,-7.686197999999999,5.780883,-0.548127,1002.9435,5.516805773717637,1002.9236893401364,0,0
11.08,-7.5189166,5.78565,-0.5197215999999999,1002.9038,5.5167982938734985,1002.9237030838237,0,0
11.1,-7.461582000000001,5.795183,-0.8558664,1002.9259,5.516648331099812,1002.9237231366437,0,0
11.12,-7.8678875,5.6045213,-0.7753836,1002.9435,5.516798260768863,1002.9238120520233,0,0
11.14,-7.748427,5.5616236,-0.7185739999999999,1002.91064,5.516950407417027,1002.9238431982657,0,0
11.16,-7.466429700000001,5.618823,-0.69490296,1002.93854,5.516699527106527,1002.9239236275715,0,0
11.18,-7.748461200000001,5.590224,-0.39663756,1002.9286,5.5164935758872415,1002.924011529847,0,0
11.2,-7.514273599999999,5.671256,-0.68070394,1002.92346,5.5160703830222495,1002.92408721479,0,0
11.22,-7.786428999999999,5.718914,-1.0168198,1002.9186,5.5160294702604125,1002.9241343360326,0,0
11.24,-7.786428999999999,5.718914,-1.0168198,1002.93353,5.516326487483666,1002.9242097967527,0,0
11.26,-7.7051883,5.761813,-0.34927014,1002.9509,5.516740717543764,1002.9243725585768,0,0
11.28,-7.6048174,5.6521826,-0.15042560000000002,1002.94086,5.516942889412477,1002.9245757297136,0,0
11.3,-7.743446,5.67125,-0.35400644,1002.9259,5.517223429787898,1002.9247600191028,0,0
11.32,-7.6430755,5.64265,-0.29245959999999993,1002.94855,5.517364711749368,1002.9250085011388,0,0
11.34,-7.528375599999999,5.733215,-0.6570102,1002.9236,5.517342621675116,1002.9252229892617,0,0
11.36,-7.4088854999999985,5.714149,-0.69962025,1002.9184,5.516961967432151,1002.9253879482055,0,0
11.38,-7.753047,5.6807833,-0.87006027,1002.9434,5.516823380248049,1002.9255985493147,0,0
11.4,-7.681354,5.7379823,-0.6617469,1002.9259,5.516815824696885,1002.9257857216776,0,0
11.42,-7.6096725,5.6950835999999985,-0.5481226,1002.92053,5.5167367751398775,1002.9259321865793,0,0
11.44,-7.456724,5.742749,-0.477107,1002.9355,5.516393843052132,1002.9260960470945,0,0
11.46,-7.571449799999999,5.6188197,-0.41556063,1002.93835,5.515847756155863,1002.926284948476,0,0
11.48,-7.7817717,5.5616207000000015,-0.7185635,1002.92316,5.515444504826419,1002.9264406119223,0,0
11.5,-7.82958,5.518722,-0.85112774,1002.9031,5.515220755895479,1002.9264941299408,0,0
11.52,-7.681420299999999,5.6426525000000005,-0.9268795,1002.93567,5.515071932532835,1002.926574451594,0,0
11.54,-7.4663343,5.699852,-0.903208,1002.93054,5.514699868980106,1002.926659699781,0,0
11.56,-7.8248353,5.5568557,-0.27353358,1002.90784,5.5144737481536525,1002.92666727416,0,0
11.58,-7.681445599999999,5.566388,-0.2545964,1002.93036,5.514145779967296,1002.9266872606939,0,0
11.6,-7.4137917,5.776118,-0.95055526,1002.90283,5.513638698299217,1002.9266190346573,0,0
11.62,-7.4137917,5.776118,-0.95055526,1002.9156,5.512975177452695,1002.9265190816064,0,0
11.64,-7.743613199999999,5.580689,-0.39189696,1002.92786,5.512397870746334,1002.9264355903964,0,0
11.66,-7.7245054,5.6474214000000025,-0.7043686,1002.9334,5.51198525509268,1002.9263868894383,0,0
11.68,-7.6098046,5.780885,-0.42977455,1002.92523,5.511660524848896,1002.9263396924696,0,0
11.7,-7.437867599999999,5.823787,-0.5954911,1002.8929,5.5112049899564175,1002.926177606335,0,0
11.72,-7.500013,5.7379894,-0.6901799,1002.89734,5.510641892467826,1002.9259305716437,0,0
11.74,-7.600403999999997,5.7999550000000015,-0.46292987,1002.9276,5.5102007030639255,1002.9257183017328,0,0
11.76,-7.657777,5.61406,-0.8132772,1002.9227,5.509781850047852,1002.9255198741533,0,0
11.78,-7.5191774,5.809489,-0.9553107,1002.9176,5.509425655183359,1002.9253160319968,0,0
11.8,-7.638687599999999,5.885754,-0.63337266,1002.9376,5.5093632265269745,1002.9251801393524,0,0
11.82,-7.380594,5.79519,-0.73753095,1002.9401,5.5090385543099165,1002.9251137761099,0,0
11.84,-7.7916718,5.6998596,-0.37298313,1002.9201,5.508999441768461,1002.9250370879547,0,0
11.86,-7.3758445,5.785658,-0.8132842,1002.9177,5.508689725041774,1002.9249429127846,0,0
11.88,-7.5957303,5.861923,-0.73280066,1002.9454,5.508584956071514,1002.924933345118,0,0
11.9,-7.5861864,5.757059,-0.77541167,1002.93317,5.5085208653750195,1002.9249545430852,0,0
11.92,-7.7726134999999985,5.6664949999999985,-0.47714564,1002.9152,5.508650590718927,1002.924938157254,0,0
11.94,-7.7009315,5.656962,-0.5434287,1002.9251,5.508826680590336,1002.9249242613677,0,0
11.96,-7.4571770000000015,5.7665935,-0.76594704,1002.9451,5.508808141907263,1002.9249846156214,0,0
11.98,-7.136937599999999,5.9048233,-0.4582115,1002.9022,5.5082363373744485,1002.9249559200238,0,0
12.0,-7.87783,5.6855626,-0.44874477,1002.90515,5.508115709827778,1002.9248592632815,0,0
12.02,-7.858719000000002,5.6474304,-0.6239185,1002.9073,5.508335857301719,1002.9247106440364,0,0
12.04,-7.853954300000002,5.5997650000000005,-0.68073267,1002.98773,5.5087987079893095,1002.9248061937526,0,0
12.06,-7.54329,5.7284627,-0.59551555,1002.9401,5.509101811878587,1002.9249456791846,0,0
12.08,-7.3807839999999985,5.8142605000000005,-0.6712667,1002.89233,5.509115506549286,1002.9249515120673,0,0
12.1,-7.8540072,5.709397,-0.69494075,1002.90515,5.509528113625977,1002.9248853805587,0,0
12.12,-7.572014299999997,5.7761297,-0.728083,1002.9426,5.509910597358623,1002.9248907193879,0,0
12.14,-7.576801299999999,5.7665963,-0.63812995,1002.9326,5.5102476252420365,1002.9249231901877,0,0
12.16,-7.514672,5.809496,-0.55291146,1002.9223,5.510484107487482,1002.9249424379013,0,0
12.18,-7.6007314,5.699866,-0.5576479,1002.9371,5.510635735608078,1002.9250032124048,0,0
12.2,-7.7677655,5.6283603,-0.6807188,1002.9301,5.510919261718608,1002.9250752611914,0,0
12.22,-7.834684399999999,5.647427,-0.6475781,1002.91473,5.511449191142306,1002.9251016805588,0,0
12.24,-7.4953227,5.728459,-0.71386015,1002.94476,5.511739899643787,1002.9251957946623,1,1
12.26,-7.662621499999997,5.647427,-0.9221745,1002.9323,5.512031766838561,1002.9253045290227,1,1
12.28,-7.772558,5.5282636,-0.8227521999999999,1002.94476,5.512344424597771,1002.9254706463997,1,1
12.3,-7.7869034,5.3947997,-1.2583178,1002.92706,5.512638669805321,1002.9256231493868,1,1
12.32,-7.700869,5.3948,-1.1446923,1002.9248,5.5127402148568345,1002.9257549376885,1,1
12.34,-7.595719,5.456765,-0.7754093000000001,1002.9396,5.512489796528765,1002.925921228056,1,1
12.36,-7.6244016000000014,5.5377965,-0.75173765,1002.9373,5.5120717598057904,1002.9261091258037,1,1
12.38,-7.428432000000001,5.6569605,-0.8843011000000001,1002.9421,5.511352715635095,1002.9263327194006,1,1
12.4,-7.8872985999999985,5.685560700000001,-0.9505833,1002.9522,5.511181550347991,1002.9266234089133,1,1
12.42,-7.590954300000001,5.4472327000000025,-1.0831469,1002.9373,5.510739539977533,1002.9269186978944,1,1
12.44,-7.2754892999999985,5.3757343,-1.2062416,1002.92706,5.509478626127472,1002.9271801239256,1,1
12.46,-7.6578794000000014,4.98011,-1.3577433,1002.92456,5.5077252678512405,1002.9274016875206,1,1
12.48,-7.6578794000000014,4.98011,-1.3577433,1002.9346,5.505543097769843,1002.9276233750383,1,1
12.5,-7.4762526,5.094507,-1.2251803999999995,1002.93976,5.502770474518373,1002.9278629499786,1,1
12.52,-7.724805,5.1660066,-0.89377224,1002.92975,5.499914918727852,1002.9280814317759,1,1
12.54,-6.950482000000001,5.7475260000000015,0.3513757,1002.92926,5.496352019424786,1002.9282787251376,1,1
12.56,-7.528841499999999,6.1145510000000005,0.9053007,1002.9348,5.493663654871521,1002.9284765301416,1,1
12.58,-7.7009163,6.5864406,0.7490651999999999,1002.92456,5.492630318746453,1002.9286372111343,1,1
12.6,-8.331855000000001,7.0630960000000025,0.06731054,1002.92957,5.4946467977093025,1002.9287825468996,1,1
12.62,-8.776381,6.881967,-0.33037978,1002.9398,5.499838787146138,1002.9289506284132,1,1
12.64,-8.1215515,6.719904400000001,-1.1731042,1002.92725,5.5066717201608855,1002.9290930229764,1,1
12.66,-7.6005563999999985,6.3099804000000015,-0.5671007,1002.92456,5.5134511160166255,1002.9292025239296,1,1
12.68,-7.452386,5.8237915000000005,0.005761909,1002.92975,5.519251146026342,1002.9293012498854,1,1
12.7,-6.348257,5.609297,-0.5055543,1002.9348,5.522145544080916,1002.9294082796404,1,1
12.72,-6.9546470000000005,5.8285427000000025,-0.19302462,1002.9198,5.523687709102116,1002.9294682613254,1,1
12.74,-7.246205000000002,6.1479015,-0.05572586,1002.9529,5.524916735148007,1002.9296056154013,1,1
12.76,-7.3083095999999985,6.4767933,-0.0320509,1002.9251,5.526409816780382,1002.9297107612475,1,1
12.78,-7.5616174,6.8438177,-0.065189764,1002.9074,5.529032307542929,1002.9297233493767,1,1
12.8,-7.336946000000001,7.592166400000001,-1.3245395,1002.9251,5.533561467359985,1002.9297178281897,1,1
12.82,-7.1935406,7.6445979999999984,-1.343476,1002.9402,5.539638173000856,1002.9297506854876,1,1
12.84,-7.7097383000000015,6.209864,-1.8027112,1002.9127,5.545979194429702,1002.929718335728,1,1
12.86,-7.3177614,5.351883,-1.5612538,1002.9102,5.550737284213763,1002.9296194854719,1,1
12.88,-7.203035400000001,5.3566494,-1.4050175,1002.9002,5.553843327262586,1002.9294262312384,1,1
12.9,-7.752681,5.351882,-1.8784549,1002.9227,5.556559693530239,1002.9292312573648,1,1
12.92,-8.111144,5.0229893,-1.9021251,1002.92523,5.559176080941422,1002.9290445739232,1,1
12.94,-6.5290074,5.3185150000000005,-1.5281049999999998,1002.95844,5.5592636042751815,1002.9289854439684,1,1
12.96,-6.18484,5.456745,-1.0783347,1002.9532,5.556616478325258,1002.929020369142,1,1
12.98,-6.2278476,5.5663753,-0.94577026,1002.9256,5.551745728703982,1002.9290389156968,1,1
13.0,-6.791842999999999,6.0144315000000015,-0.7185169,1002.9309,5.5463706476662935,1002.9290620033356,1,1
13.02,-6.758363,6.452954,-1.9494601000000005,1002.95593,5.5414942311332505,1002.9291791283614,1,1
13.04,-6.5862789999999976,6.705581,-1.8263646,1002.93317,5.5371371914145024,1002.9292969871724,1,1
13.06,-7.030779400000001,6.700814,-0.67116797,1002.9555,5.533588823418374,1002.9294954580637,1,1
13.08,-7.881562,6.7198796000000005,-1.0877936,1002.9161,5.532178426638348,1002.9296226032941,1,1
13.1,-8.349962,6.939140299999999,-1.5186224,1002.9459,5.5338018028249,1002.9297935474478,1,1
13.12,-8.244774000000001,6.877175,-0.7232394,1002.92053,5.537680443299347,1002.9299112449312,1,1
13.14,-8.937835,6.5006166,-0.6995664,1002.9183,5.544188727195348,1002.929973441946,1,1
13.16,-7.3126693,6.0287266,-0.68536025,1002.9455,5.5497301650989606,1002.9300842948372,1,1
13.18,-6.672165,5.8332973,-0.6900937,1002.9363,5.55312381497585,1002.9302046209905,1,1
13.2,-7.7523794000000015,5.175513,0.22364841,1002.9261,5.555510585979572,1002.9302961645436,1,1
13.22,-7.5188785,5.3566585,-0.5055149,1002.9033,5.556836514183874,1002.9302798662352,1,1
13.24,-7.0982637,5.504422,-0.7280327,1002.9409,5.556734340603597,1002.9303036975316,1,1
13.26,-6.7971396,5.5759206,-0.35874948,1002.9211,5.5549279933855376,1002.9302916215537,1,1
13.28,-6.978787400000001,5.285161,0.0010639301,1002.9388,5.5515294727921,1002.9303115813817,1,1
13.3,-6.7732635,5.5663877,-0.5149869,1002.9413,5.5467944873239015,1002.9303687761933,1,1
13.32,-6.5581755999999976,5.7332172,-0.7375043000000001,1002.9113,5.540812194339583,1002.9303506659345,1,1
13.34,-6.921448700000001,6.4625005999999985,0.11942231,1002.94604,5.535262750817855,1002.930391145312,1,1
13.36,-7.232143400000001,6.9391565,0.062608734,1002.911,5.531264646092186,1002.930357104767,1,1
13.38,-7.872644999999999,6.948690400000001,-1.4429326,1002.9089,5.52984957306138,1002.9302497809643,1,1
13.4,-9.449987,6.9391570000000025,-0.6286156999999999,1002.93854,5.533094809714852,1002.9301847944412,1,1
13.42,-7.705367,7.2632837,-1.7364671000000005,1002.9138,5.538346051857143,1002.9300683870888,1,1
13.44,-7.370784299999999,7.2585169999999986,-2.3566747,1002.9259,5.545100116591753,1002.9299505233588,1,1
13.46,-6.9979672000000015,7.3347820000000015,-1.3766534,1002.95874,5.552369608477262,1002.9299500210832,1,1
13.48,-6.2810082000000005,6.000146400000001,-0.4865864,1002.9187,5.556886962032611,1002.9299090771964,1,1
13.5,-5.693096,5.699854,-0.77065104,1002.9288,5.557694293186938,1002.9298689064999,1,1
13.52,-7.810560700000001,4.8514066,-0.6901672,1002.8985,5.557564368778444,1002.9297204836093,1,1
13.54,-9.005519999999997,4.6750436,-0.8748096,1002.93146,5.558610082267337,1002.9295955994023,1,1
13.56,-6.7924776,5.4472265,-1.3813915,1002.9263,5.557846367704438,1002.9294733875588,1,1
13.58,-6.0038137,5.728453599999999,-1.381392,1002.9113,5.554648237791579,1002.9292999769788,1,1
13.6,-6.3145084,5.9477153,-1.1778133,1002.906,5.550020847344804,1002.9290628714732,1,1
13.62,-6.778157000000001,5.5663905,-0.9695001,1002.9163,5.544292946782225,1002.9288074187112,1,1
13.64,-6.266726,5.5997567,-0.71857744,1002.9363,5.5368036765221245,1002.9286086739431,1,1
13.66,-6.639554,5.628356,-0.3445598,1002.9265,5.528359050381769,1002.92842547184,1,1
13.68,-8.365075,6.1812773000000005,-0.52920264,1002.9318,5.522641509110235,1002.9282757427632,1,1
13.7,-8.962558,6.696065400000001,-0.9884406,1002.9113,5.521051766772446,1002.9280823294768,1,1
13.72,-8.087145,7.134571,-0.32082456,1002.9313,5.522196225704048,1002.9279230131108,1,1
13.74,-9.568863,6.0811614999999986,0.25677463,1002.9363,5.526898593330603,1002.9278123983224,1,1
13.76,-8.283086,5.919099,-0.15038322,1002.9214,5.532319122917711,1002.9276915744616,1,1
13.78,-6.653163,5.7093690000000015,-0.9646999,1002.9566,5.535524346559742,1002.9276888848303,1,1
13.8,-8.517266000000001,4.551096,0.6544683000000001,1002.9292,5.538546188172103,1002.9276919482866,1,1
13.82,-8.550695,4.5939945999999985,0.82490975,1002.92694,5.541525150067326,1002.9276919481428,1,1
13.84,-8.431179,4.7846565000000005,0.57872254,1002.8913,5.544392780253621,1002.9275609370025,1,1
13.86,-5.7926965,5.904796,1.1421195,1002.92206,5.544322436946239,1002.9274253721852,1,1
13.88,-5.0231379999999985,6.17649,0.9669474,1002.9393,5.540969398743258,1002.9273483357733,1,1
13.9,-6.982837,5.771332,0.8627923000000001,1002.9218,5.536973467074151,1002.9272602923908,1,1
13.92,-6.7724957,6.3051853,0.7254975,1002.94214,5.532801035156704,1002.9272360642053,1,1
13.94,-6.7724957,6.3051853,0.7254975,1002.8991,5.528487668374726,1002.9271133663497,1,1
13.96,-6.715108,6.543513,0.33727905,1002.90894,5.524274172091203,1002.9269395264051,1,1
13.98,-7.4177284,6.1002226,-0.13142611,1002.92957,5.520626995789046,1002.9267953911354,1,1
14.0,-8.698694999999999,5.8857269999999975,-0.82738173,1002.93976,5.5194274111353705,1002.9267147058032,1,1
14.02,-10.385946,5.718897,-0.14089122,1002.9042,5.523142274528228,1002.9265623593022,1,1
14.04,-7.341191,6.8485710000000015,-1.0262231,1002.927,5.527517313746003,1002.9264293214408,1,1
14.06,-7.0687113,6.3671474,-0.24504349,1002.9144,5.531264094219866,1002.9262684636293,1,1
14.08,-7.09738,5.7903943,-0.14088565,1002.90936,5.533702684331717,1002.9260654591977,1,1
14.1,-7.6279080000000015,5.080176,-0.8699812,1002.91693,5.535070359410547,1002.9258531968287,1,1
14.12,-8.029401,4.603520400000002,-0.8983866,1002.9472,5.535680122851912,1002.9257424902914,1,1
14.14,-9.200423,4.0791984,-0.18348877,1002.91437,5.537211935137751,1002.9256037290297,1,1
14.16,-9.200423,4.0791984,-0.18348877,1002.91473,5.539552955258339,1002.9254419741544,1,1
14.18,-6.9921229999999985,4.7798815,-1.0404133,1002.9097,5.539415501350751,1002.9252423764397,1,1
14.2,-6.57626,5.437666,-0.39179793,1002.93207,5.537106747945753,1002.9250905913436,1,1
14.22,-6.3659277,5.2041044,-1.3008018,1002.93726,5.532435612470096,1002.925000283904,1,1
14.24,-7.235832,5.0039077,-1.1208926,1002.937,5.526824548911967,1002.9249636872282,1,1
14.26,-7.455692999999999,5.165971,-0.57170063,1002.9343,5.520860208627081,1002.9249649611315,1,1
14.28,-8.058905000000001,5.776114,-0.5623194,1002.8971,5.516356309279018,1002.9248657728923,1,1
14.3,-8.058905000000001,5.776114,-0.5623194,1002.93207,5.5131590695803885,1002.924804065382,1,1
14.32,-9.18218,5.6426506,-1.2393413999999998,1002.91205,5.513034603394308,1002.9247036259904,1,1
14.34,-9.578918,5.9048110000000005,-0.5812603,1002.9326,5.516497107209499,1002.9246433046902,1,1
14.36,-9.034036,6.2098713,0.73490286,1002.91724,5.522533446760678,1002.9245633528926,1,1
14.38,-7.413689,6.3099690000000015,0.45083788,1002.94226,5.528242421443789,1002.9245564154138,1,1
14.4,-7.972947599999999,4.522511,0.3561478,1002.93475,5.532451364356158,1002.924586982362,1,1
14.42,-9.120115,3.8456602,0.9574159,1002.94006,5.536921684181436,1002.924669694181,1,1
14.44,-8.427066,4.02679,-0.25932807,1002.9223,5.540358477946968,1002.9247342474453,1,1
14.46,-8.427066,4.02679,-0.25932807,1002.9145,5.542869675628551,1002.9247544434187,1,1
14.48,-7.9299803,4.655976,0.29459593,1002.8944,5.544257151584357,1002.9246630125843,1,1
14.5,-7.17002,4.856172,-0.78011656,1002.93005,5.5435956770997,1002.9246016174541,1,1
14.52,-7.714925,4.6750426,-0.3066768,1002.91187,5.541814611273736,1002.9245015348939,1,1
14.54,-7.7340589999999985,5.1373997000000005,0.26145047,1002.9376,5.53959618840251,1002.9244602564183,1,1
14.56,-7.6145710000000015,5.5282574,0.5029044,1002.95013,5.537279145906073,1002.924516193834,1,1
14.58,-7.079247500000001,5.9477150000000005,0.44135585,1002.92725,5.534537219917778,1002.9245754618368,1,1
14.6,-8.637485,5.113568,-0.82746655,1002.95013,5.5331237848534585,1002.9247198273814,1,1
14.62,-10.582879,5.0945015,-0.16938564,1002.93225,5.536370243476533,1002.924874497398,1,1
14.64,-8.078277,6.028747,-0.38716957,1002.905,5.540274005540018,1002.924939615634,1,1
14.66,-7.385211999999999,6.0049148,-0.8511419,1002.8997,5.5436409898172965,1002.9249062914912,1,1
14.68,-8.570625,4.975339,-0.32089052,1002.9301,5.5472674515276665,1002.9248955436293,1,1
14.7,-7.8202105,4.4605513,0.06259492,1002.91223,5.549214259005287,1002.9248404508612,1,1
14.72,-7.4569526,4.5844817,0.09100068,1002.93225,5.5491520604396785,1002.9248184452684,1,1
14.74,-8.1022415,4.5892487,-0.4250508,1002.92725,5.548494286016479,1002.9248077547237,1,1
14.76,-9.803865,3.8837988,-0.6807099,1002.92975,5.549901745524418,1002.924816100641,1,1
14.78,-9.36422,4.2937245000000015,-0.66178113,1002.91223,5.552621513066788,1002.9247781651312,1,1
14.8,-7.3328204,5.108806,-0.53868824,1002.9251,5.553644202639989,1002.9247458039207,1,1
14.82,-5.7889614,5.6569605,-0.6002371,1002.91974,5.551424046837674,1002.9246991886607,1,1
14.84,-6.697142,5.1469393,-0.38719046,1002.94476,5.547051264746129,1002.924730218338,1,1
14.86,-6.4629583,5.1707735,-0.79908615,1002.9401,5.5405012480547295,1002.9248129673747,1,1
14.88,-7.2611940000000015,5.1564736,-0.6807268,1002.93225,5.533332304210657,1002.924912857741,1,1
14.9,-8.3032,5.0182433,-0.27830324,1002.9426,5.527251040743493,1002.9250647945806,1,1
14.92,-8.6904,6.4005456,-1.0121392,1002.91956,5.524510899075958,1002.9251792287117,1,1
14.94,-7.8682914,6.9963665,-0.8653743,1002.92975,5.524159309221387,1002.9252967974867,1,1
14.96,-8.4896755,6.5530767,-0.6523269,1002.92224,5.526293564651746,1002.9253896767856,1,1
14.98,-9.641624,5.456769,0.12884825,1002.95514,5.5313129056752075,1002.9255788460972,1,1
15.0,-8.202922000000001,5.213675,0.6164903,1002.94476,5.536077643148162,1002.925815048255,1,1
15.02,-7.471621000000002,5.437703599999999,0.7537872,1002.94226,5.539628473701471,1002.9260829583079,1,1
15.04,-8.021335,5.4472375,0.37503162,1002.8921,5.542991344222388,1002.9261973449808,1,1
15.06,-8.021335,5.4472375,0.37503162,1002.93976,5.546176026924805,1002.9263472426034,1,1
15.08,-7.3904266,5.490137,0.26613787,1002.9145,5.548167164780812,1002.9264370420688,1,1
15.1,-7.237481599999999,5.7332315000000005,0.78218716,1002.93225,5.549212616513199,1002.9265373155253,1,1
15.12,-6.2050705000000015,5.866696,-0.31619713,1002.9198,5.5479201449554365,1002.9266016628154,1,1
15.14,-6.7069674,5.4806050000000015,-0.5765911,1002.9072,5.5448479028866755,1002.9265886740947,1,1
15.16,-7.529112,4.984884,-0.4819046,1002.9251,5.540966533015405,1002.9265718380346,1,1
15.18,-7.3761673,5.1803126,0.03887914,1002.9547,5.536323891941335,1002.9266582230748,1,1
15.2,-7.223231,5.4949059999999985,0.27086335,1002.93225,5.531162858919618,1002.9267546832933,1,1
15.22,-7.500486,6.286155,-0.09842266,1002.93225,5.527032000274518,1002.9268596986827,1,1
15.24,-8.002383,6.8772087,0.005732635,1002.9522,5.525415540648699,1002.9270437153656,1,1
15.26,-8.088428500000001,7.1679688,0.32293692,1002.93256,5.5265687719089645,1002.9272261711307,1,1
15.28,-6.815950999999999,6.9391479999999985,-0.8795058000000001,1002.94214,5.527991192645457,1002.9274410788292,1,1
15.3,-7.767119,6.438659,-0.6664564000000001,1002.92725,5.530362214945779,1002.9276302833877,1,1
15.32,-7.967845,5.752275,-0.15513836,1002.9472,5.532976086935227,1002.9278679155153,1,1
15.34,-6.576884700000001,5.823772,-0.3965895,1002.93225,5.533644335542593,1002.9280936627672,1,1
15.36,-6.4239180000000005,5.7713394000000005,-0.30190027,1002.9346,5.532273582707945,1002.9283165558533,1,1
15.38,-9.411258,5.428147,-1.4381539,1002.9198,5.533924543927803,1002.9284828445828,1,1
15.4,-9.602437,5.3661814,-0.6001631,1002.9376,5.538358534572778,1002.9286625990636,1,1
15.42,-9.7266865,5.151685,0.14314076,1002.91693,5.545217328460512,1002.9287791927667,1,1
15.44,-8.173238000000001,5.2851485999999985,-0.027296642000000003,1002.927,5.551545071666397,1002.9288758098686,1,1
15.46,-6.447703,5.070653,0.06265936,1002.9522,5.5542002062632045,1002.9290451478244,1,1
15.48,-6.8109174,5.3232794000000005,0.005851174000000001,1002.92456,5.554518244386785,1002.9291786283096,1,1
15.5,-6.6149197,5.728436,-0.6711664,1002.9145,5.553044095236522,1002.9292437286048,1,1
15.52,-7.2219424,5.652171,-0.5812115,1002.9446,5.550849960442972,1002.9293565338023,1,1
15.54,-9.368036,5.22318,0.024795732,1002.93225,5.5512212748833445,1002.9294666249536,1,1
15.56,-8.326014,5.4138412,-0.66169065,1002.92725,5.552252709337759,1002.9295559216447,1,1
15.58,-8.072658,5.4138410000000015,-1.0167687,1002.91974,5.553488749783433,1002.9295994868833,1,1
15.6,-8.082206,5.3614087,-0.93154824,1002.91223,5.5548397064247785,1002.929575450975,1,1
15.62,-6.8394184000000005,5.5377703,-0.51018274,1002.92944,5.55435769358188,1002.9295537252233,1,1
15.64,-7.422528999999999,5.671233,0.63081115,1002.9446,5.553395505562199,1002.9295886949376,1,1
15.66,-7.298228999999999,5.8428288,0.4793125,1002.9419,5.552010033403612,1002.929663914876,1,1
15.68,-7.436830499999999,5.933393,-0.03673642,1002.9243,5.550572717168318,1002.9297110691199,1,1
15.7,-8.192026,5.809462,-0.19770505,1002.927,5.550198390156837,1002.9297429747608,1,1
15.72,-8.569606,5.8142276,0.17631526,1002.9243,5.551414246010818,1002.9297515718761,1,1
15.74,-7.345950599999999,6.0906878,0.5456012,1002.9218,5.552369608954681,1002.9297305426284,1,1
15.76,-6.863165,6.0525546,0.7539173000000001,1002.9218,5.5523091810631575,1002.9296834112317,1,1
15.78,-7.207778500000001,5.6617084,-0.37291375,1002.91705,5.551333439811459,1002.9295962856488,1,1
15.8,-7.6427374000000015,5.6140428,-0.08884923,1002.9243,5.550197562725217,1002.9295002348558,1,1
15.82,-8.947616,5.466279,0.3703887,1002.91187,5.551019923783288,1002.9293518955296,1,1
15.84,-7.4897714,6.166963,0.13840333,1002.94214,5.551930095831176,1002.9292668600772,1,1
15.86,-6.7058782999999975,6.5768867,0.26623273,1002.94476,5.5522777346534005,1002.9292474980548,1,1
15.88,-6.572041499999999,6.4243565,-0.10778502,1002.8894,5.5516999814700165,1002.9290869387787,1,1
15.9,-6.863601700000001,5.880969,-0.49600545,1002.89935,5.550017833439795,1002.9288380156233,1,1
15.92,-9.425571,4.9133577000000015,0.63078326,1002.9522,5.550682920151967,1002.9287021702664,1,1
15.94,-9.306074,5.1707519999999985,-0.12198683,1002.98676,5.5534171119864,1002.9287911454963,1,1
15.96,-7.413266,5.6617074,-0.23087768,1002.94934,5.555234548290168,1002.9289437398858,1,1
15.98,-7.4993005,5.5377765,-0.1693302,1002.8871,5.556220957106072,1002.9289279348246,1,1
16.0,-7.690487400000001,5.294682,0.5124245,1002.8569,5.556525688955448,1002.9286546689074,1,1
16.02,-7.4419327000000015,5.4758115,-0.46286234,1002.8819,5.5560193128182265,1002.9282448943344,1,1
16.04,-8.04418,5.757038,-0.18826617,1002.91705,5.556134137323991,1002.9278425159024,1,1
16.06,-6.992615700000001,6.0048985,0.03425152,1002.93225,5.555391090012273,1002.9275028412628,1,1
16.08,-7.9963703,5.4901104000000025,0.52189565,1002.9442,5.554924635162465,1002.9272628145222,1,1
16.099999999999998,-8.407428,5.3566465,0.13367496,1002.91693,5.5552365312952805,1002.927013528762,1,1
16.12,-8.020258,5.4948764,-0.013091117,1002.9046,5.555720185520077,1002.926712571161,1,1
16.14,-7.8864193,5.4948764,0.16681673,1002.9218,5.556127987952103,1002.9264289597687,1,1
16.16,-7.943773700000001,5.4138449999999985,0.21889539,1002.9019,5.556472063119662,1002.9260900564868,1,1
16.18,-7.5135865000000015,5.5759077,-0.050965212,1002.9019,5.556220267763356,1002.925703517344,1,1
16.2,-7.6091747,5.6045065,-0.18352781,1002.8997,5.5556413765519785,1002.9252683586948,1,1
16.22,-7.585273299999999,5.642639,-0.032026634,1002.9145,5.554779181542847,1002.9248450864212,1,1
16.24,-7.561366,5.7808695,0.2331007,1002.92224,5.553808906217128,1002.9244617047287,0,0
16.259999999999998,-7.805134,5.7522699999999976,0.21889772,1002.9096,5.5531153561990285,1002.9240694465283,0,0
16.28,-7.8385906,5.728437,0.2473044,1002.93005,5.55269698084565,1002.9237443771752,0,0
16.3,-7.403944,5.8619084,-0.30664986,1002.9276,5.551975959976574,1002.9234710261368,0,0
16.32,-7.585584,5.6903124000000025,-0.32085374,1002.93726,5.551072359155931,1002.9232791334654,0,0
16.34,-7.8054624000000015,5.656946,-0.008383714,1002.92456,5.550326090527488,1002.9231141882202,0,0
16.36,-7.246237,6.009672,-0.7611551,1002.92004,5.5493160757850015,1002.922957375524,0,0
16.38,-7.6525273,5.895275,-0.5670451999999999,1002.91205,5.548558566624142,1002.9227795492736,0,0
16.4,-7.4756827,5.9143414000000005,-0.18355912,1002.94257,5.547730664206182,1002.9226936676216,0,0
16.419999999999998,-7.265375,6.0907044,-0.06993377,1002.9202,5.546732955714563,1002.9226088053903,0,0
16.44,-7.3036213,6.233701,-0.093606494,1002.9326,5.5458418520677535,1002.9225697894232,0,0
16.46,-7.040743400000001,6.638859,-0.30665576,1002.953,5.5452130401604816,1002.922644863673,0,0
16.48,-7.112444,6.4672627,0.024752233,1002.9202,5.544675245185057,1002.9227023977706,0,0
16.5,-7.566533,6.0668726,-0.4770954000000001,1002.90265,5.544421383421104,1002.9226810462677,0,0
16.52,-7.8342094,5.552084,-0.36820477,1002.93225,5.544209428197124,1002.9226966283127,0,0
16.54,-7.4900713,5.4853525,-0.39187747,1002.9151,5.5433763367126225,1002.9226830487461,0,0
16.56,-7.4040465,5.6045165,-0.88899094,1002.9276,5.542072974543425,1002.9226887508653,0,0
16.58,-7.346692599999999,5.7046145999999975,-0.8511161,1002.9126,5.540383278237252,1002.9226574697548,0,0
16.599999999999998,-7.6478275999999985,5.757047,-0.49603644,1002.9176,5.538867655885042,1002.9226116228745,0,0
16.62,-7.490102,6.0668736,-0.6712100999999999,1002.93036,5.5376711412660455,1002.9225990067288,0,0
16.64,-7.3945136,6.233703,-0.5481163,1002.95044,5.536812373468857,1002.922688086678,0,0
16.66,-7.705211599999997,5.842846,-0.7848376,1002.9209,5.536285873823833,1002.9227603606092,0,0
16.68,-7.447106,5.94771,-0.7138219,1002.9328,5.535754743878337,1002.9228603645564,0,0
16.7,-7.016936,6.0668745,-0.7753701,1002.92334,5.534703782202356,1002.922950454732,0,0
16.72,-7.0360627,6.186038,-1.2251393,1002.96643,5.533488563751378,1002.923186584774,0,0
16.74,-7.537949,6.0192084,-1.0641702,1002.939,5.532665378010354,1002.923452157574,0,0
16.759999999999998,-7.6096535,5.895279,-1.064171,1002.9335,5.5321497067106735,1002.9237229899327,0,0
16.78,-7.518494,5.8523707,-0.8274191999999999,1002.92914,5.531655908665078,1002.9239817986412,0,0
16.8,-7.6475463,5.7856393,-0.68538684,1002.95374,5.531287880464122,1002.9243176115407,0,0
16.82,-7.461124000000001,5.8762035,-0.6238387,1002.95154,5.530832298812108,1002.9247123364174,0,0
16.84,-7.451558,5.7665725,-0.96944964,1002.9161,5.530205946451964,1002.9250301109073,0,0
16.86,-7.4897933,5.647409,-0.789542,1002.9287,5.529309311188163,1002.9253241080472,0,0
16.88,-7.7239976,5.566376999999999,-0.54335237,1002.9494,5.528432238861186,1002.9256705571312,0,0
16.9,-7.657077,5.513944,-0.7327283,1002.932,5.5274258956864735,1002.925999465536,0,0
16.919999999999998,-7.962975,5.428147,-0.83214986,1002.91644,5.5267428348541605,1002.9262556749266,0,0
16.94,-7.862595,5.5473104000000015,-0.7421959,1002.93445,5.526302461745537,1002.9265115611142,0,0
16.96,-7.6427183,5.72844,-0.63330406,1002.92426,5.525914128158939,1002.9267295565297,0,0
16.98,-7.508874400000002,5.82377,-1.0215243,1002.952,5.525542291712114,1002.9270131508754,0,0
17.0,-7.723960000000001,5.8571362,-0.69484985,1002.922,5.525521219657736,1002.927245687496,0,0
17.02,-7.4993051999999985,5.7618050000000025,-0.83688164,1002.92944,5.525343885319463,1002.9274590563788,0,0
17.04,-7.1216946,5.728439,-0.47706637,1002.95984,5.5243182606540575,1002.9277641605213,0,0
17.06,-7.5709867,5.461511,0.048453435,1002.9549,5.522927803905296,1002.9281314395633,0,0
17.08,-7.355892,5.5282434999999985,-0.1598601,1002.9348,5.520944842012106,1002.9284799741423,0,0
17.099999999999998,-7.5136194,5.6903057,-0.2308756,1002.9174,5.51891304475738,1002.9287480513893,0,0
17.12,-7.5948663,6.0287313,-0.7848,1002.9473,5.517469947273279,1002.9290517114599,0,0
17.14,-7.5136002999999985,6.0096645,-1.21563,1002.9074,5.516488507074177,1002.929242079337,0,0
17.16,-7.5136002999999985,6.0096645,-1.21563,1002.94006,5.515918520436816,1002.9294492329076,0,0
17.18,-7.7191224,5.8666677000000025,-0.42024916,1002.9404,5.5157282046836205,1002.929671696564,0,0
17.2,-7.68088,5.852368,-0.45338967,1002.968,5.5157959885497725,1002.9300062473436,0,0
17.22,-7.513578,5.842835,-0.2498094,1002.93256,5.515788648275108,1002.9303110499216,0,0
17.24,-7.671308,5.776103,-0.22613712,1002.9428,5.515889746423626,1002.9306253336998,0,0
17.259999999999998,-7.3940735,5.823768,-0.27348056,1002.9279,5.515692919551698,1002.9308932236453,0,0
17.28,-7.685635,5.728437,-0.24033917,1002.9053,5.51559209263947,1002.9310377955952,0,0
17.3,-7.486229400000001,5.8905330000000005,-0.5055890000000001,1002.9133,5.5154738662128695,1002.9311016833066,0,0
17.32,-7.529269999999999,5.871467,-0.7470458000000001,1002.9435,5.515419461182018,1002.9312027684283,0,0
17.34,-7.701411699999999,5.8524027,-0.5908167,1002.9282,5.515657809014276,1002.9312812772757,0,0
17.36,-7.8161507,5.7427726,-0.40617698,1002.941,5.5161888197074544,1002.9313856350948,0,0
17.38,-7.558109299999999,5.80474,-0.38724563,1002.9254,5.51662372449805,1002.9314562973776,0,0
17.4,-7.4912148,5.881005,-0.28309083,1002.9158,5.516951941628188,1002.9314623719,0,0
17.419999999999998,-7.32877,6.1765327,-0.6239741999999999,1002.92334,5.517343868088508,1002.931438498809,0,0
17.44,-7.32877,6.1765327,-0.6239741999999999,1002.95654,5.517790677177715,1002.9315077699504,0,0
17.46,-7.3575177,5.9334407,-1.2063122,1002.9315,5.518126227874111,1002.9315689499588,0,0
17.48,-7.567852,5.7094125999999985,-0.8607029,1002.9385,5.518342251361258,1002.9316479603945,0,0
17.5,-7.634838,5.776146400000001,-0.38253424,1002.93365,5.518581416783749,1002.931724981358,0,0
17.52,-7.285958,6.047841,-0.5151018,1002.9337,5.518635852398959,1002.9318001471485,0,0
17.54,-7.438934,6.1241064000000005,-0.5198383,1002.9387,5.51887295020675,1002.9318914031113,0,0
17.56,-6.9466600000000005,6.376735,-0.63346815,1002.9315,5.518857900563269,1002.9319706278287,0,0
17.58,-7.2191772,6.3386045,-0.74236566,1002.95905,5.519004013213794,1002.9321381165288,0,0
17.599999999999994,-7.0949483,6.3529053,-0.6192754,1002.9265,5.51910080181522,1002.9322658123247,0,0
17.62,-6.9993978000000014,6.4005712999999975,-0.4535754,1002.95166,5.519053597638687,1002.9324484634061,0,0
17.64,-7.1045766000000015,6.443472,-0.25473246,1002.9415,5.5190855002710855,1002.9326424394327,0,0
17.66,-7.1381035000000015,6.510205,-0.37783328,1002.9544,5.519340383359152,1002.9328921638679,0,0
17.68,-7.071232000000001,6.619837,-0.58141685,1002.9215,5.519864821746901,1002.9330718085894,0,0
17.7,-6.923104,6.7342353,-0.71398443,1002.9393,5.520585506709034,1002.933252964154,0,0
17.72,-6.7701726,6.767602,-0.6382359999999999,1002.92426,5.521288753840853,1002.93338065854,0,0
17.74,-6.746364999999999,6.777137299999999,-0.41572738,1002.9317,5.5219277367020325,1002.9334874389286,0,0
17.759999999999994,-6.746364999999999,6.777137299999999,-0.41572738,1002.9393,5.522507635315376,1002.9336027153,0,0
17.78,-7.1475873,6.610301,-0.28313828,1002.92957,5.523382858729303,1002.9336900557267,0,0
17.8,-6.994649400000001,6.6389008,-0.29734296,1002.9571,5.524325518300586,1002.9338515055272,0,0
17.82,-7.01858,6.548337,-0.3494243,1002.9446,5.525235282994978,1002.9340328571508,0,0
17.84,-6.803520699999999,6.567404,-0.31628633,1002.9596,5.525813524563137,1002.9342851411596,0,0
17.86,-6.927827400000001,6.4720736,-0.1363819,1002.9396,5.526138708463801,1002.9345271928016,0,0
17.88,-6.8370585,6.4434752,-0.070104554,1002.9494,5.52605937346498,1002.9347946117388,0,0
17.9,-7.0712850000000005,6.376744,-0.10798127,1002.9296,5.5258875590718874,1002.935012202509,0,0
17.919999999999995,-6.98528,6.405344,-0.12218736,1002.9446,5.5255427515074205,1002.9352389817848,0,0
17.94,-6.918394,6.5817074999999985,-0.2736912,1002.93445,5.525201461697638,1002.935436523618,0,0
17.96,-6.775048,6.6436734,-0.42519653,1002.9321,5.524751320650476,1002.9355990600972,0,0
17.98,-7.066631299999999,6.6150746,-0.2689626,1002.95465,5.524591104093624,1002.9358112607138,0,0
18.0,-7.076223,6.6007757,-0.19794945,1002.92456,5.524678358916223,1002.93595825664,0,0
18.02,-6.502694,6.8295717000000025,-0.26423544,1002.94464,5.524474545333077,1002.9361193965165,0,0
18.04,-7.248375,6.1145887000000005,-0.2973792,1002.9276,5.524126064837444,1002.9362311098836,0,0
18.06,-7.3822255,6.009725,-0.098535635,1002.9371,5.523717516901177,1002.9363329478197,0,0
18.08,-7.334459,6.0144925,-0.29738358,1002.9421,5.523195379121794,1002.9364436932076,0,0
18.1,-7.2245398,6.1670227,-0.49622998,1002.96246,5.522620206727403,1002.9366352065367,0,0
18.12,-6.870881,6.6341467000000005,-0.2689829,1002.9296,5.5220897279475905,1002.9367791009712,0,0
18.14,-6.909136,6.576948,-0.49623576,1002.96,5.521594710147928,1002.9369898413297,0,0
18.16,-6.9999995,6.5817156,-0.4725681,1002.94464,5.521274138461305,1002.9372035920816,0,0
18.18,-6.9617767000000015,6.657981,-0.47256958,1002.94507,5.521160225404258,1002.9374207813147,0,0
18.2,-7.071759700000001,6.371989,-0.44890186,1002.9272,5.520990325651777,1002.9375758949085,0,0
18.22,-7.0956902999999985,6.1860943,-0.50571764,1002.95496,5.5205587301029,1002.9377755360581,0,0
18.24,-7.3920702999999985,6.1098294,-0.22639066,1002.9175,5.5202418551794645,1002.9378789470476,0,0
18.26,-6.818525,6.4339566,-0.8039909000000001,1002.9151,5.519645807530268,1002.9378883167892,0,0
18.28,-6.727725,6.605553,-0.7377107,1002.93256,5.518904967790394,1002.937877413952,0,0
18.3,-6.9072504,6.591202,-0.36823434,1002.953,5.5182410873891365,1002.937922221515,0,0
18.32,-7.1127315000000015,6.6054997,-0.42030814,1002.95496,5.517983096455397,1002.9380231494804,0,0
18.34,-7.031449,6.6102657,-0.40610257,1002.94244,5.517966845559559,1002.938128230092,0,0
18.36,-7.031449,6.6102657,-0.40610257,1002.93,5.518164254664433,1002.9381918176924,0,0
18.38,-6.98355,6.4339004,-0.5717975000000001,1002.94794,5.5182451282549465,1002.9382830971524,0,0
18.4,-7.060001400000001,6.391001,-0.8795315,1002.93256,5.518328436363984,1002.9383431485334,0,0
18.42,-6.973914,6.4720316,-0.5954625,1002.96533,5.5183499414593244,1002.938493362599,0,0
18.44,-6.9117255,6.514929,-0.27351835,1002.9376,5.51825275410092,1002.938622875642,0,0
18.46,-6.8686314,6.486328,-0.12674484,1002.93506,5.517938678594622,1002.9387244870143,0,0
18.48,-7.0167546000000005,6.5625915999999975,-0.28297552,1002.9251,5.5177738824594735,1002.93876522267,0,0
18.5,-6.835071000000001,6.595956299999999,-0.3918622000000001,1002.94244,5.517523701875869,1002.9388144458934,0,0
18.52,-6.8971839999999975,6.615022,-0.3918599,1002.9251,5.517319383419422,1002.9388085675283,0,0
18.54,-6.6916012999999985,6.7294183000000025,-0.54809064,1002.94745,5.517034234778217,1002.9388344825619,0,0
18.56,-6.9687533,6.6579175,-0.4107859,1002.93506,5.516971384981298,1002.9388437929488,0,0
18.58,-6.7822910000000025,6.629317,-0.43445325,1002.9276,5.5167876654992,1002.9388115419516,0,0
18.6,-6.944779,6.6722155,-0.3871069,1002.94006,5.516797880980998,1002.9387875394195,0,0
18.62,-6.868251299999999,6.6245494,-0.38236782,1002.9197,5.516795871745634,1002.9386976156404,0,0
18.64,-6.9733815,6.5053839999999985,-0.37763113,1002.9321,5.516770761066241,1002.9385944075727,0,0
18.66,-6.8872684999999985,6.705578,-0.45810905,1002.94495,5.516889982072106,1002.9385260930568,0,0
18.68,-6.8394203,6.791374,-0.47704202,1002.9351,5.517192262461053,1002.9384533964158,0,0
18.7,-6.6433973,6.815206,-0.38234928,1002.93994,5.5173950598286625,1002.9383945134364,0,0
18.72,-6.997027,6.538744,-0.21663815,1002.95544,5.5176215596922615,1002.9384038481876,0,0
18.74,-6.997027,6.538744,-0.21663815,1002.94763,5.517868187681813,1002.9384453105204,0,0
18.76,-6.815318,6.5196760000000005,-0.28764728,1002.93256,5.5178340720681485,1002.9384607595192,0,0
18.78,-6.9156685,6.481543,-0.22136328,1002.94794,5.517645230878719,1002.9385085355208,0,0
18.8,-6.8104367,6.619771000000001,-0.54329586,1002.93256,5.5173874020262055,1002.938529335668,0,0
18.82,-6.898492,6.624586999999999,-0.37777644,1002.9296,5.517191353289988,1002.9385155690692,0,0
18.84,-7.0084534,6.495890599999999,-0.14105861,1002.93744,5.5170199417716645,1002.9384995328543,0,0
18.86,-6.9845815,6.3528949999999975,-0.31623396,1002.93744,5.516642194861568,1002.9384815489364,0,0
18.88,-6.9750476,6.4529924,-0.46300292,1002.92004,5.516221953984479,1002.93839926877,0,0
18.9,-6.975074,6.429161,-0.35411406,1002.92957,5.515722415964882,1002.9382947806478,0,0
18.92,-6.975074,6.429161,-0.35411406,1002.93256,5.5151546093270385,1002.9381818097328,0,0
18.94,-7.319272,6.3576636,-0.3730564,1002.94244,5.514963780925684,1002.9380973181168,0,0
18.96,-7.046836,6.572159299999999,-0.29257277,1002.93994,5.514978432484255,1002.93802929498,0,0
18.98,-6.5832086,6.7675886,-0.2689019,1002.93506,5.514768869346403,1002.9379585002744,0,0
19.0,-6.8222246,6.657958,-0.3777956,1002.94763,5.514559297739448,1002.9379307634716,0,0
19.02,-6.9560850000000025,6.662725,-0.43461087,1002.94543,5.5145622000357255,1002.9379332524838,0,0
19.04,-7.099519,6.4196324,-0.39673924,1002.94995,5.514623546714163,1002.9379787120662,0,0
19.06,-6.975270299999999,6.4100995,-0.23103748,1002.96497,5.514520886266356,1002.9381160487897,0,0
19.08,-6.8175630000000025,6.519731,-0.16949263,1002.94495,5.514187690527241,1002.9382620017427,0,0
19.1,-6.913172,6.510198,-0.19790027,1002.94495,5.513783620744281,1002.9384150425662,0,0
19.12,-6.9275509999999985,6.767593400000001,-0.339936,1002.955,5.513718402222723,1002.9386099752844,0,0
19.14,-6.8224077,6.7389936000000015,-0.33993718,1002.94464,5.5137553930968926,1002.9388039259233,0,0
19.16,-6.6503615000000025,6.710395299999999,0.05775041,1002.955,5.513575345941783,1002.9390336065744,0,0
19.18,-6.894158,6.5006676,-0.20264424,1002.94763,5.513266673457864,1002.9392674994141,0,0
19.2,-7.080609299999999,6.5531006,-0.50564975,1002.9346,5.513226065264878,1002.9394573641292,0,0
19.22,-6.90855,6.6150660000000014,-0.43936926,1002.9596,5.5132437884017635,1002.9396976420804,0,0
19.24,-7.2336154000000015,6.529269,-0.07955812,1002.9596,5.513666143780347,1002.9399816001668,0,0
19.26,-7.2336154000000015,6.529269,-0.07955812,1002.92957,5.51444451172833,1002.9401950237717,0,0
19.28,-6.750908,6.8295636,-0.018015658,1002.9469,5.515239782823992,1002.9404077427828,0,0
19.3,-6.903887700000001,6.5674033,-0.09850294,1002.9621,5.515893528007583,1002.9406737934273,0,0
19.32,-6.903887700000001,6.5674033,-0.09850294,1002.9546,5.516419867412609,1002.9409590101204,0,0
19.34,-6.9794908,6.51495,-0.33040878,1002.94257,5.5168821531280114,1002.9412168271539,0,0
19.36,-6.8408630000000015,6.6865454,-0.23571950000000005,1002.93207,5.517318330948087,1002.9414117057072,0,0
19.38,-6.8647575,6.6865454,-0.2641255,1002.9418,5.517766944215452,1002.9415852982561,0,0
19.4,-6.9221024999999985,6.6960783,-0.21204583,1002.9521,5.518321542171808,1002.9417765375586,0,0
19.42,-6.687887,6.810476,-0.29726472,1002.929,5.518794525052424,1002.9418995210713,0,0
19.44,-6.845611999999999,6.696078,-0.1978414,1002.9421,5.519252391576848,1002.9420089110272,0,0
19.46,-6.8025845999999985,6.6627116,-0.42982644,1002.929,5.519598738057273,1002.9420587359123,0,0
19.48,-6.769117,6.715144,-0.39668477,1002.9337,5.519869252008389,1002.9420726697316,0,0
19.5,-6.7595487000000025,6.572147,-0.29252705,1002.9494,5.519841625960716,1002.9421113600432,0,0
19.52,-7.137144,6.5769134000000005,-0.41088638,1002.9167,5.520136131674316,1002.9420540659064,0,0
19.54,-6.89815,6.677011,-0.48663646,1002.9468,5.52050346299186,1002.9420205261696,0,0
19.56,-6.7834210000000015,6.877206,-0.21203974,1002.9543,5.521036473512226,1002.9420350965644,0,0
19.58,-6.716495,6.738975,-0.33513343,1002.9518,5.521419423242039,1002.9420831246176,0,0
19.6,-6.960261,6.624578,-0.2972578,1002.9337,5.521861890805658,1002.9420953829564,0,0
19.62,-6.6877985,6.6388774,-0.4345543,1002.9287,5.521981232048769,1002.9420579910465,0,0
19.64,-6.726028,6.7199087,-0.2262397,1002.9387,5.5219745558639834,1002.9420128627866,0,0
19.66,-6.400997,6.867672,-0.49136597,1002.9315,5.521629195420156,1002.9419351411502,0,0
19.68,-6.9506655,6.715142,-0.42508352,1002.93115,5.5215531263649416,1002.9418276398044,0,0
19.7,-6.754685,6.743741,-0.6475996999999999,1002.9337,5.5214924904071605,1002.9417033921117,0,0
19.72,-7.1418357000000015,6.6674757,-0.39667502,1002.93115,5.521885699760997,1002.9415556146388,0,0
19.74,-6.7976804,6.943936,-0.19309479,1002.9335,5.522555451087826,1002.9413960382512,0,0
19.76,-6.510888,6.9296355,-0.26884484,1002.93616,5.52303698112633,1002.9412361868174,0,0
19.78,-6.5204387000000015,6.6293425999999975,-0.45822024,1002.93365,5.522929795276252,1002.941067631818,0,0
19.8,-7.1035710000000005,6.3576489999999986,-0.4392822,1002.9387,5.522787786198246,1002.9409101731458,0,0
19.82,-7.1131210000000005,6.2527843,-0.6144543,1002.92596,5.522506098120718,1002.9407172220398,0,0
19.84,-6.8745410000000025,6.6198190000000015,-0.81807137,1002.93097,5.522285029184522,1002.9405116404432,0,0
19.86,-6.4634933,6.9868440000000005,-0.6807749,1002.92114,5.522042840896443,1002.9402602506387,0,0
19.88,-6.951040700000001,6.643653,-0.31622648,1002.9634,5.521945438535581,1002.9401214257052,0,0
19.9,-6.951040700000001,6.643653,-0.31622648,1002.92346,5.521976319668502,1002.9399387788617,0,0
19.92,-6.712062,6.553088,-0.5340102,1002.9484,5.521653167628561,1002.9398078525064,0,0
19.94,-6.7789907000000005,6.6436534,-0.18366526,1002.92334,5.521221552243032,1002.93963288171,0,0
19.96,-6.4587474,6.791416000000001,-0.51507396,1002.9359,5.520472995018219,1002.9394648391403,0,0
19.98,-6.8889375,6.5673885,-0.9364367,1002.9208,5.5198157102656245,1002.9392491633046,0,0
20.0,-6.979761,6.534023,-1.282049,1002.9435,5.5194133852697975,1002.9390738951483,0,0
20.02,-6.7838005999999975,6.4291589999999985,0.27083477,1002.94574,5.5186221560040165,1002.9389430261828,0,0
20.04,-6.463557700000001,6.6960864,0.46021062,1002.95844,5.517423288470547,1002.9388975794708,0,0
20.06,-6.5926204,6.8962812000000016,-0.21680993,1002.9331,5.516335943386345,1002.93883655147,0,0
20.08,-6.9989114,6.6627199999999975,-0.2783579,1002.943,5.51560918128386,1002.9387976155432,0,0
20.1,-7.142317,6.5292572999999985,0.09092461,1002.93823,5.515224929035447,1002.938761168342,0,0
20.12,-7.142317,6.5292572999999985,0.09092461,1002.9254,5.515144701802182,1002.9386808633893,0,0
20.14,-7.003706,6.6055220000000014,-0.060576662,1002.9178,5.515229646133388,1002.9385347348247,0,0
20.16,-7.2427115,6.076435,-0.45826808,1002.9332,5.515122917382328,1002.9383864105797,0,0
20.18,-6.8746743000000015,6.205132,-0.3162366,1002.943,5.514433868282572,1002.9382719601988,0,0
20.2,-6.798201,6.238498,-0.21681446,1002.943,5.513155962754806,1002.9381878527852,0,0
20.22,-7.233175,6.5483246,0.47440755,1002.9381,5.5124829799349,1002.9381132192048,0,0
20.24,-7.395691999999999,6.6960883,0.5596265,1002.93005,5.512812101177466,1002.9380182453841,0,0
20.26,-6.6930679999999985,7.106012,0.8389556999999999,1002.9178,5.51362108392205,1002.9378615408324,0,0
20.28,-7.1137023,6.791419,0.6921881,1002.9024,5.5149791893318465,1002.9375954151436,0,0
20.3,-7.3001227,6.48636,0.10512123,1002.93506,5.516623637314939,1002.9373511389908,0,0
20.32,-7.405597,6.6531973,-0.022736846,1002.9299,5.518908572799416,1002.9371084724817,0,0
20.34,-6.9228570000000005,5.981113,-0.23578694,1002.95276,5.520081108907332,1002.9369503978533,0,0
20.36,-7.180986999999999,5.4377265,-0.032209374,1002.9323,5.5199667714036496,1002.9367939816792,0,0
20.38,-7.8740788,5.9000825999999975,-0.26419705,1002.9145,5.520451862609144,1002.9365755140137,0,0
20.4,-7.152348,6.5674009999999985,-0.8228586999999999,1002.9399,5.521261348315865,1002.9363944441341,0,0
20.42,-6.5453334000000005,6.8390955999999985,-0.45357695,1002.9473,5.521798391599761,1002.9362737107897,0,0
20.44,-7.491764999999999,6.3576739999999985,0.05773595,1002.9374,5.522817366016216,1002.9361710854474,0,0
20.46,-7.2002070000000025,5.881019,0.2471112,1002.942,5.523165324273812,1002.9361013897876,0,0
20.48,-7.577841800000002,5.5807265999999975,-0.09376871,1002.91943,5.52315089287523,1002.9359797896992,0,0
20.5,-6.9039100000000015,6.0383162000000015,-1.244231,1002.912,5.522493011541829,1002.9357860166183,0,0
20.52,-7.4344883,6.5340385,-0.3636335,1002.927,5.522616679912534,1002.935583169064,0,0
20.54,-6.411631,7.015461,0.1950244,1002.9245,5.522602350810044,1002.9353640335569,0,0
20.56,-6.230008,7.101260000000001,-0.13165046,1002.93195,5.522344907731326,1002.9351581149016,0,0
20.58,-6.6172027999999985,7.020229,-0.7376571,1002.9346,5.522347119760945,1002.934974155964,0,0
20.6,-6.383003,6.7199364,-0.93650293,1002.9395,5.521830390618929,1002.9348279028854,0,0
20.62,-7.143012,6.4339433,-0.31156337,1002.957,5.521486872004619,1002.9347784932147,0,0
20.64,-6.526448,6.9916315,-0.80867875,1002.92694,5.521256114790528,1002.9347066162544,0,0
20.66,-6.526448,6.9916315,-0.80867875,1002.90906,5.521125824275645,1002.9345507779532,0,0
20.68,-6.421322,7.082196700000001,-0.33997540000000004,1002.9443,5.521016999303648,1002.93444817643,0,0
20.7,-6.736809700000001,6.777137299999999,-0.3115708,1002.914,5.520917188108776,1002.9342839042888,0,0
20.72,-6.7798380000000025,6.724705,-0.32577497,1002.92145,5.520812948753028,1002.9340925513698,0,0
20.74,-6.4644012,6.7390056,-0.7518741999999999,1002.9191,5.520317889301215,1002.9338694987454,0,0
20.76,-6.870705,6.6532083,-0.8844394,1002.93427,5.519970708977274,1002.9336738512508,0,0
20.78,-7.2626696,6.176553,-0.79448754,1002.9387,5.5196766709163345,1002.9335190712602,0,0
20.8,-6.904194,6.171787,-0.55776817,1002.9287,5.5188287147245925,1002.933364959004,0,0
20.82,-6.4585957999999986,6.3624225,0.21877265,1002.9541,5.517060664559466,1002.9333034315621,0,0
20.84,-7.3093767,6.7008476,0.55491763,1002.93146,5.516279398283943,1002.9332424295604,0,0
20.86,-6.5159054,7.182269,-0.08422482,1002.90607,5.51588715511767,1002.9330907074452,0,0
20.88,-6.8265686,7.482562,0.23298249,1002.9187,5.5167410729947575,1002.932904839238,0,0
20.9,-6.9317007,7.129836,-0.060548387,1002.9287,5.518303915527191,1002.9327254686683,0,0
20.92,-6.984253999999999,7.1107693,0.16670524,1002.9337,5.520538049978878,1002.932570485146,0,0
20.94,-6.491886,6.6102789999999985,-0.14102666,1002.9209,5.521897382311988,1002.9323915279593,0,0
20.96,-6.491886,6.6102789999999985,-0.14102666,1002.898,5.522478845896725,1002.932109591888,0,0
20.98,-7.247071000000001,6.176522,0.19038387,1002.93854,5.522906870843097,1002.9318836226448,0,0
21.0,-7.084533,6.2861524000000015,0.5028568,1002.93054,5.5231161494310905,1002.9316791191801,0,0
21.02,-7.519471,6.3433504,0.11937221,1002.92053,5.52386665140203,1002.9314582830896,0,0
21.04,-6.812024000000001,6.672242,-0.2215016,1002.9109,5.524468029055743,1002.9311891425008,0,0
21.06,-7.203943700000001,6.45298,0.23300342,1002.9254,5.525218972727151,1002.9309304889637,0,0
21.08,-6.950589999999999,6.27185,0.090973504,1002.92053,5.525451161857455,1002.930664500938,0,0
21.1,-7.0509424,6.3195148,0.10517892,1002.93085,5.525445773958156,1002.9304301417152,0,0
21.12,-7.060489,6.591208999999999,0.40344754,1002.92303,5.525642580975158,1002.9301964213955,0,0
21.14,-6.8788214000000005,6.7961698,-0.35405394,1002.93036,5.526036051303444,1002.929990495004,0,0
21.16,-6.5250916,6.948699499999999,-0.2356916000000001,1002.9251,5.526308179437809,1002.9297909326626,0,0
21.18,-6.5011683,6.7103699999999975,-0.32564306,1002.9201,5.526085064638281,1002.92957971202,0,0
21.2,-6.850082,6.443443,-0.49134618,1002.92303,5.5255672246711525,1002.9293694984973,0,0
21.22,-7.1225066,6.3195114000000014,-0.4629375,1002.9455,5.5250318653130055,1002.9292418236336,0,0
21.24,-6.9695287,6.295678,-0.11732375,1002.9226,5.524191160723566,1002.929105099559,0,0
21.26,-6.912147,6.476807,0.06732023,1002.9202,5.52324978549495,1002.9289522318084,0,0
21.28,-7.098535000000001,6.476806,-0.093647316,1002.9401,5.522507743873756,1002.9288572898294,0,0
21.3,-7.0220460000000005,6.5483046,-0.25461596,1002.89233,5.521934473841903,1002.9286419008532,0,0
21.32,-7.0799410000000025,6.348122,-0.5481982,1002.9251,5.521346212372143,1002.9284388323108,0,0
21.34,-7.457545,6.243258,-0.21678981,1002.91223,5.5211695153992935,1002.9282010491507,0,0
21.36,-6.879187,6.033529,-0.29254013,1002.9073,5.520165286162765,1002.9279157001732,0,0
21.38,-7.228111,6.1717596,-1.1920768999999998,1002.9126,5.5193149330522715,1002.9276084292962,0,0
21.4,-7.275908500000001,6.2956900000000005,-1.2678273000000002,1002.9223,5.518864946806799,1002.9273178144036,0,0
21.42,-6.9030824000000015,6.381488,-0.5008536,1002.91223,5.5181664313865255,1002.9270067109528,0,0
21.44,-6.955659,6.4053206,-0.17417960000000002,1002.92975,5.517340358357632,1002.9267416957844,0,0
21.46,-7.218546400000001,6.3671885,-0.14103861,1002.91724,5.51675619975304,1002.9264733222766,0,0
21.48,-7.027353999999999,6.44822,-0.14577293,1002.9097,5.516205279676751,1002.9261758034849,0,0
21.5,-7.056031,6.44822,-0.5718691999999999,1002.937,5.515762879256312,1002.925951882988,0,0
21.52,-7.0847073000000025,6.381488,-0.33041438,1002.94476,5.515345274929961,1002.9258217360582,0,0
21.54,-6.9174137,6.4005537000000015,-0.35408637,1002.91974,5.514722926798018,1002.9256848439813,0,0
21.56,-6.8839545,6.44822,-0.31621101,1002.9421,5.513935708002296,1002.9256229807036,0,0
21.58,-7.0369066999999985,6.4958854000000015,-0.55766547,1002.9243,5.513328620856592,1002.9255635555812,0,0
21.6,-7.103822,6.519718,-0.5197902,1002.924,5.513014142076028,1002.9255054187427,0,0
21.62,-6.974767,6.581683,-0.51032126,1002.93207,5.512849824713267,1002.9254776815246,0,0
21.64,-6.9699855,6.5054183,-0.4251019,1002.91437,5.512694546219122,1002.9254131852654,0,0
21.66,-6.955644,6.3242892999999984,-0.56239945,1002.92224,5.512286056166128,1002.9253447729036,0,0
21.68,-6.788351,6.3433547,-0.5623993,1002.937,5.511426896360358,1002.9253262825586,0,0
21.7,-7.447962299999999,6.152693,-0.6239465,1002.90936,5.51094768437275,1002.9252524658723,0,0
21.72,-6.893503699999999,6.357654599999999,-0.3540853,1002.8988,5.510189792676624,1002.9250920125712,0,0
21.74,-6.8457046,6.3814874,-0.3256788,1002.9318,5.509147101869676,1002.9249743847893,0,0
21.76,-7.2663255000000015,6.3814874,-0.22625616,1002.9017,5.5084985697254405,1002.9247866610956,0,0
21.78,-7.12771,6.367188,-0.3966946,1002.9167,5.5079768749795655,1002.9245916764604,0,0
21.8,-6.955635000000001,6.3814874,-0.3114752,1002.9142,5.507317507853919,1002.9243819780008,0,0
21.82,-7.131949400000001,6.3338084000000014,-0.14572163,1002.9292,5.5067361360013365,1002.9242140333217,0,0
21.84,-6.9263945000000025,6.5149370000000015,-0.2830173,1002.94147,5.506170833432948,1002.9241277588827,0,0
21.86,-6.9550505000000005,6.4958706,-0.2830152,1002.91644,5.505638113288727,1002.9240238508568,0,0
21.88,-6.9741583,6.5387692,-0.35403025,1002.914,5.505230897156148,1002.923895951862,0,0
21.9,-7.017131299999999,6.5387683,-0.37769806,1002.93146,5.505003123482684,1002.9238101708834,0,0
21.92,-7.0792575,6.5483007,-0.28774333,1002.9341,5.505036306535347,1002.9237714181952,0,0
21.94,-6.725528999999999,6.7341960000000025,-0.29247567,1002.9267,5.505038513770192,1002.9237477192148,0,0
21.96,-6.9644960000000005,6.715129400000001,-0.18358225,1002.9292,5.505334146775227,1002.9237464070067,0,0
21.98,-6.921467,6.610264999999999,-0.37769178,1002.91895,5.505684410363835,1002.9237279804744,0,0
22.0,-6.7589073000000015,6.4386673,-0.09362334,1002.8938,5.505576518757837,1002.9236039580603,0,0
22.02,-6.7589073000000015,6.4386673,-0.09362334,1002.91895,5.505064189631666,1002.9234776176064,0,0
22.04,-6.424299,6.4529667,-0.28773186,1002.9138,5.503728396052655,1002.923331143758,0,0
22.06,-7.069537599999999,6.1526723,-0.78957564,1002.9085,5.502282939325763,1002.923148327348,0,0
22.08,-7.040825,6.3481,-0.11255261,1002.9263,5.500902844312408,1002.9229981367896,0,0
22.1,-6.7731447,6.5149300000000006,-0.18356764,1002.92377,5.499416956500076,1002.9228682071199,0,0
22.12,-6.6201789999999985,6.6626925,-0.48183408,1002.9363,5.49785365044096,1002.922801755718,0,0
22.14,-6.8161397,6.734191,-0.78483486,1002.9192,5.49666193776913,1002.9227300729386,0,0
22.16,-7.150703,6.638859299999999,-0.775364,1002.9312,5.496165278666725,1002.9226972257724,0,0
22.18,-7.045501700000001,6.839053599999999,-0.57178044,1002.91846,5.4963831098149205,1002.9226529480034,0,0
22.2,-6.830387599999999,6.810453999999999,-0.3966054,1002.92377,5.496853428796912,1002.9226178455538,0,0
22.22,-6.968990299999999,6.7723207,-0.4439484,1002.92346,5.497698985368691,1002.9225898607854,0,0
22.24,-7.3178934999999985,6.443428,-0.5196968,1002.9109,5.498948891477486,1002.9225230499452,0,0
22.26,-6.8972362999999985,6.386228,-0.2640358,1002.9263,5.499801864786347,1002.9224776129073,0,0
22.28,-7.054947,6.3099627,-0.01784467,1002.9363,5.500429117941242,1002.9224872253336,0,0
22.3,-6.9832387,6.3719277000000005,-0.050984472,1002.90106,5.500830657181799,1002.9224185808624,0,0
22.32,-6.8401647,6.6150303,-0.46290696,1002.9484,5.501183640873731,1002.9224514597169,0,0
22.34,-6.9978940000000005,6.595964,-0.16937345,1002.9158,5.501681916446805,1002.9224565662172,0,0
22.36,-6.773234,6.6865277,-0.1362318,1002.9084,5.502100303578546,1002.922410474683,0,0
22.38,-6.916614,6.6340957,-0.35874759999999994,1002.9437,5.502596102655295,1002.9224463904944,0,0
22.4,-6.92139,6.648395,-0.13149576,1002.9061,5.503174181950215,1002.9224192786992,0,0
22.42,-6.806665400000001,6.624562700000001,0.020005984,1002.89575,5.503615197066908,1002.922299313314,0,0
22.44,-6.907033,6.772325500000001,-0.19777581,1002.9435,5.5043015089441765,1002.9222696343717,0,0
22.46,-6.801868400000001,6.7532587,-0.21671262,1002.898,5.505019555014798,1002.9221560393744,0,0
22.48,-6.806639,6.6722274000000015,-0.25458702,1002.92316,5.505653807617893,1002.9220592810933,0,0
22.5,-6.911786,6.595961999999999,0.07208771,1002.91583,5.5062521244297375,1002.9219513600638,0,0
22.52,-6.7922864,6.672227,-0.14569448,1002.94086,5.506750105413769,1002.921924072146,0,0
22.54,-6.887869,6.7246585,-0.1551621,1002.8982,5.507376105817992,1002.9218145538824,0,0
22.56,-6.7110080000000005,6.7866240000000015,-0.22144294,1002.93835,5.507945722368561,1002.9217773111502,0,0
22.58,-6.816159,6.762791,-0.1598953,1002.95856,5.50858025126196,1002.9218768211521,0,0
22.6,-6.667976,6.724658,-0.38241148,1002.9234,5.509009321527508,1002.9219702316336,0,0
22.62,-7.012109,6.5625954,-0.21670611,1002.9109,5.509522690289552,1002.9220129163012,0,0
22.64,-6.9069443,6.5911940000000016,-0.4439567,1002.93317,5.5100070216904005,1002.9220907979746,0,0
22.66,-6.6727204,6.6626916,-0.33506420000000003,1002.9158,5.5102102992617965,1002.9221369673488,0,0
22.68,-6.8400089999999985,6.5864270000000005,-0.27351654,1002.90283,5.510297613614829,1002.9221082575252,0,0
22.7,-6.9308167,6.505395,-0.49129835,1002.91315,5.510321078011807,1002.9220506397984,0,0
22.72,-6.9021240000000015,6.510162,-0.33032733,1002.9109,5.510236973170687,1002.9219595864713,0,0
22.74,-6.9021240000000015,6.510162,-0.33032733,1002.918,5.510058122928211,1002.9218648772404,0,0
22.76,-6.7778363,6.5053945,-0.4155454000000001,1002.9105,5.509609362166149,1002.9217402786056,0,0
22.78,-7.0263815,6.424363,-0.30665374,1002.92804,5.509176772138934,1002.9216528622493,0,0
22.8,-6.73958,6.6245584000000015,-0.33505890000000005,1002.91046,5.5086157603472286,1002.9215353268524,0,0
22.82,-6.653696000000001,6.7246594,-0.31140083,1002.9353,5.507962046556004,1002.9214810253993,0,0
22.84,-6.9309210000000006,6.6388617,-0.30193174,1002.9685,5.507513675243171,1002.9216023129436,0,0
22.86,-6.878342,6.6769943,-0.14096184,1002.93286,5.50721699110646,1002.9217500102916,0,0
22.88,-6.6154485,6.643628,-0.022601344,1002.9355,5.506615743597812,1002.9219300156308,0,0
22.9,-6.7540617,6.6912937,0.034211612999999995,1002.9508,5.50602156397042,1002.9221930002924,0,0
22.92,-6.6919203,6.686527000000001,-0.4818382000000001,1002.9127,5.505362580857631,1002.9223911987384,0,0
22.94,-6.8735504,6.6817600000000015,-0.78957427,1002.8873,5.504952620580809,1002.9224399985696,0,0
22.96,-6.84965,6.7008259999999975,-0.5907291,1002.93036,5.504726612878107,1002.9225116301058,0,0
22.98,-6.907004,6.624561999999999,-0.23564844,1002.9127,5.504607516686732,1002.9225396018628,0,0
23.0,-6.935682000000001,6.6007285000000016,-0.28772676,1002.90784,5.504595148789191,1002.9225113991404,0,0
23.02,-6.7062473,6.686526299999999,-0.11255344,1002.9429,5.504452366393696,1002.9225598781779,0,0
23.04,-6.959574000000001,6.629328,-0.046271533,1002.9401,5.504487829379623,1002.9226658586944,0,0
23.06,-6.7827205999999975,6.724659,-0.17883474,1002.9177,5.50455838386358,1002.9227416259872,0,0
23.08,-6.620206,6.8390559999999985,-0.3776796,1002.91724,5.504603492661191,1002.9227887681136,0,0
23.1,-6.7157993000000005,6.705592599999999,-0.39188263,1002.91986,5.504568930555598,1002.9228198793312,0,0
23.12,-7.0886216,6.662692999999999,0.024745224,1002.9096,5.504941923373441,1002.9227997776376,0,0
23.14,-6.6488770000000015,6.7151256,-0.35874134,1002.9172,5.50510909049055,1002.9227618565816,0,0
23.16,-6.8448467000000015,6.7103585999999975,-0.02259834,1002.9123,5.5053614443032535,1002.9226906868524,0,0
23.18,-6.6679883,6.872422,-0.20723966,1002.9123,5.505672309215317,1002.9225903948076,0,0
23.2,-6.7110047,6.796157000000001,-0.22617705,1002.9147,5.505983921360609,1002.9224733713353,0,0
23.22,-6.8065977,6.624561,-0.07941028,1002.9446,5.506179913901058,1002.9224496252583,0,0
23.24,-6.820935,6.738957400000001,-0.008393992,1002.9321,5.506460107453783,1002.9224633845738,0,0
23.26,-6.830493,6.767557000000001,-0.34927103,1002.92206,5.506882794906648,1002.9224740901204,0,0
23.28,-7.270232000000001,6.4148316,-0.63333505,1002.9147,5.50762655704715,1002.9224555628168,0,0
23.3,-6.834515,6.414813,0.13370763,1002.9396,5.507940494836158,1002.9225009120656,0,0
23.32,-6.834515,6.414813,0.13370763,1002.9198,5.507873509652151,1002.9225312593784,0,0
23.34,-7.235986,6.4005127,-0.56698126,1002.91425,5.508099586816673,1002.92252826173,0,0
23.36,-6.346893,6.7913694000000016,-0.3065845,1002.94226,5.5078009658173634,1002.9225966472657,0,0
23.38,-6.944336,6.5292077000000015,-0.32551908,1002.9421,5.507531951366542,1002.9227272847947,0,0
23.4,-7.125935000000001,6.390977,-0.6190491,1002.9571,5.507403764687531,1002.9229664578903,0,0
23.42,-6.963389,6.4958405,-0.43913874,1002.92957,5.507277757552012,1002.9232015639892,0,0
23.44,-6.9346933,6.5911713,-0.4059964,1002.9446,5.507243404481363,1002.9234863381076,0,0
23.46,-6.652635000000001,6.762766,-0.45333594,1002.91675,5.507126671466667,1002.9237137137017,0,0
23.48,-6.9393907000000015,6.600703,-0.28762874,1002.91425,5.507112862095075,1002.923880553407,0,0
23.5,-6.9967318,6.5339704,-0.25448638,1002.9242,5.507179699666152,1002.9240291229784,0,0
23.52,-6.8007274,6.6436,-0.47700045,1002.92957,5.507198160592196,1002.9241803462093,0,0
23.54,-6.7720156000000005,6.7055645,-0.50066936,1002.9242,5.507224032278597,1002.9243140378093,0,0
23.56,-6.9488187,6.667431,-0.30655432,1002.92676,5.50744701576113,1002.9244409731708,0,0
23.58,-6.9153266,6.7579947,-0.5527403000000001,1002.9367,5.507946971586553,1002.9245972657532,0,0
23.6,-7.0300255000000025,6.686496000000001,-0.38703462,1002.9192,5.508741570949623,1002.9247159357222,0,0
23.62,-6.891361999999999,6.59593,-0.2828732,1002.9293,5.509447869545552,1002.9248372951384,0,0
23.64,-7.0347395000000015,6.610229,-0.10769875,1002.94147,5.510302820345575,1002.9250044060558,0,0
23.66,-7.2593575,6.5863957,-0.008273215,1002.9589,5.511594212004497,1002.9252740894008,0,0
23.68,-7.1111665,6.672192999999999,-0.18344468,1002.91187,5.513164722145512,1002.9254641268823,0,0
23.7,-6.7191734,6.9391193,-0.43436357,1002.91187,5.5148014322521055,1002.9255831051444,0,0
23.72,-6.6522064,6.8104210000000025,-0.7799706,1002.93646,5.5162479484928095,1002.925727391158,0,0
23.74,-6.824247,6.467229,-0.23551108,1002.919,5.5172151737039545,1002.9258306636716,0,0
23.76,-6.991523299999999,6.4004955,-0.14082147,1002.93646,5.517911339177211,1002.9259601808756,0,0
23.78,-6.5373926,7.172677,-0.4390844,1002.9265,5.5188538499004505,1002.9260765656256,0,0
23.8,-6.790706,7.277541,-0.5858495,1002.93146,5.520542974179048,1002.9261987835547,0,0
23.82,-6.1802683,7.225142,-1.0972912,1002.9342,5.522054305906138,1002.926335579696,0,0
23.84,-6.811225,6.5578246,-0.39660144,1002.93146,5.523179543089459,1002.9264749006793,0,0
23.86,-7.289217,6.333797,-0.14567903,1002.91895,5.524363478896028,1002.9265709150579,0,0
23.88,-6.8829565000000015,6.4100623,-0.37766692,1002.9589,5.5250866757189705,1002.9267721380687,0,0
23.9,-6.830401400000001,6.300432,-0.40607548,1002.949,5.5251678299991775,1002.9270299590238,0,0
23.92,-6.9308004,6.438663,-0.07466924,1002.9288,5.525011872168739,1002.9272641417673,0,0
23.94,-6.801768300000001,6.424364,-0.022592861,1002.93616,5.524430359085712,1002.927503090729,0,0
23.96,-6.6727366,6.562595,-0.32559684,1002.9086,5.523492911852577,1002.9276461749048,0,0
23.98,-6.6154012999999985,6.6865253,-0.30192697,1002.9513,5.522340117381953,1002.9278577578532,0,0
24.0,-6.620193,6.643627,-0.30192800000000003,1002.94147,5.520944967197592,1002.928093716618,0,0
24.02,-7.160345,6.4053,-0.52444816,1002.9081,5.519834743589977,1002.9282302324028,0,0
24.04,-6.8210015,6.452966,-0.6759512,1002.92377,5.518549014657125,1002.9283348009137,0,0
24.06,-6.892710000000001,6.410067,-0.45816958,1002.93616,5.51713320422064,1002.9284553683664,0,0
24.08,-6.8592744,6.5482984,-0.65228224,1002.9636,5.515777412690362,1002.9286884224416,0,0
24.1,-6.8784164999999975,6.576898,-0.40609533,1002.9989,5.514520794442854,1002.9291471107016,0,0
24.12,-6.9740467000000015,6.548299299999999,-0.24986309,1002.93085,5.513448509179926,1002.9295585380496,0,0
24.14,-6.878462299999999,6.5625997000000025,-0.37295866,1002.96387,5.5124275226435255,1002.9300455965172,0,0
24.16,-7.017111,6.4863353,-0.3445554,1002.9288,5.5115548039616975,1002.9304714772318,0,0
24.18,-6.8546205,6.562601,-0.19779095,1002.94604,5.510670233973538,1002.9309038321132,0,0
24.2,-7.0649548,6.419605000000002,-0.22619946,1002.9306,5.509896642208751,1002.9312847670908,0,0
24.22,-7.0649548,6.419605000000002,-0.22619946,1002.95074,5.509223895732489,1002.9316914000757,0,0
24.24,-7.0888990000000005,6.5101705,-0.16465639,1002.9509,5.508803736955796,1002.9321198519403,0,0
24.26,-7.0888990000000005,6.5101705,-0.16465639,1002.9056,5.5086082772420415,1002.9324029605414,0,0
24.28,-7.251458,6.391008,0.04365328,1002.9181,5.508694872872392,1002.9326016246432,0,0
24.3,-7.8059382,6.0764155,0.13360487,1002.9481,5.5095025009505685,1002.9328329583948,0,0
24.32,-7.0405789999999975,6.1193004,-0.2877031,1002.9109,5.509779461669846,1002.9329584062474,0,0
24.34,-7.0118985,6.2527637,-0.7895499,1002.91034,5.50978470585699,1002.9329878257075,0,0
24.36,-7.1218330000000005,6.2003309999999985,-0.55282944,1002.92535,5.509614007720423,1002.9329863245697,0,0
24.38,-6.944978999999999,6.4148264,-0.47234452,1002.9404,5.509303355089413,1002.9330116873964,0,0
24.4,-6.7872443,6.7484850000000005,-0.46761,1002.90546,5.5091125574592565,1002.9329349119153,0,0
24.42,-6.8207020000000025,6.83905,-0.53389156,1002.92535,5.509217479940877,1002.9328397674172,0,0
24.44,-6.7012053,6.9105477,-0.52442265,1002.9279,5.509514150864363,1002.9327379145759,0,0
24.46,-6.749003,6.972513,-0.6427826999999999,1002.9257,5.510155340951134,1002.932622580913,0,0
24.48,-6.213663,7.1059766,-0.8274243,1002.938,5.5105802375047634,1002.932540030797,0,0
24.5,-6.691642,6.710353,-0.81322104,1002.92035,5.510886825730702,1002.9324232054036,0,0
24.52,-7.217419,6.4529586,-0.45340616,1002.9384,5.511463248954743,1002.9323414949467,0,0
24.54,-6.854153599999999,6.433892299999999,-0.4628749,1002.9456,5.511694103758984,1002.9323170262053,0,0
24.56,-7.050123700000001,6.290896,-0.12673199,1002.9304,5.511696694171747,1002.9322885043307,0,0
24.58,-7.222195599999999,6.2670627,-0.3776553,1002.9126,5.51174708484588,1002.9321924237868,0,0
24.6,-7.241313499999999,6.38146,0.12419169,1002.9379,5.5120121301772125,1002.9321280742928,0,0
24.62,-6.715534,6.5578227,-0.28770146,1002.9254,5.511921390347525,1002.932046994012,0,0
24.64,-7.193513,6.352861,0.37511536,1002.9231,5.511960848410988,1002.931943142298,0,0
24.66,-7.0070996,6.352861,0.09578556,1002.9405,5.511812243466585,1002.9318821836107,0,0
24.68,-7.332124,6.4243593,-0.032043185,1002.93036,5.512100311128711,1002.931822840654,0,0
24.7,-7.0740146999999975,6.4481916,-0.05098076,1002.8829,5.5124063447308265,1002.9315942829908,0,0
24.72,-6.9545179999999975,6.6150210000000005,-0.2214192,1002.9156,5.512786709478339,1002.931334750021,0,0
24.74,-7.1361485,6.6007214,0.16680215,1002.9124,5.513484065136706,1002.9310372615887,0,0
24.76,-6.8015614,6.753251,-0.4439359000000001,1002.91034,5.514194613762032,1002.9306998906683,0,0
24.78,-6.639047,6.843816,-0.63804644,1002.9202,5.514833641301836,1002.9303639901167,0,0
24.8,-7.0453286,6.3051949999999986,-0.5007484999999999,1002.92035,5.5152237384691984,1002.9300311380248,0,0
24.82,-6.8195830000000015,6.5387297,-0.6474149,1002.92084,5.5153966421474845,1002.9297039418196,0,0
24.84,-6.8099789999999985,6.5244284000000015,-0.33494014,1002.9459,5.515308339532732,1002.929473137062,0,0
24.86,-6.8625345,6.624526,-0.24025002,1002.9431,5.515206429198064,1002.9293182546846,0,0
