Timestamp,Ax,Ay,Az,P,Value,Type
0.0,3.7310830000000004,6.14533,7.6831694000000015,1001.0179,0,0
0.04,4.428923,6.4694567,8.8004875,1001.0307,0,0
0.08,3.7788532,6.2263627,8.734204,1001.02295,0,0
0.12,4.2998376,7.103409299999999,8.421732,1001.00037,0,0
0.16,3.893539,7.360803999999999,8.50695,1000.965,0,0
0.2,3.8983035000000004,7.7421284,8.69159,1000.9879,0,0
0.24,3.9500551,7.7802815,10.268071,1000.9529,0,0
0.28,3.8687544000000003,7.970944999999999,9.25964,1000.9301,0,0
0.32,4.7577419999999995,8.500034,10.149702,1000.9047,0,0
0.36,4.0168230000000005,8.013846000000001,10.471638,1000.9277,0,0
0.4,3.8447027,7.684955,8.421636,1000.9027,0,0
0.44,3.4001489,7.4227953,7.323251700000001,1000.8851,0,0
0.48,2.305518,6.431352599999999,2.8492336,1000.8324,0,0
0.52,0.22625645,5.1253176,2.4657428,1000.81464,0,0
0.56,-3.5116002999999996,3.4331915,0.5009601,1000.8273300000001,0,0
0.6,-5.4522414,3.0518677000000003,0.07012551,1000.8653,0,0
0.64,-6.5229645,2.8755064,-0.6068986,1000.845,0,0
0.68,-9.199701,1.7934990000000002,-1.250782,1000.898,0,0
0.72,-9.548665,1.6123707,-0.22815406,1000.8981,0,0
0.76,-8.411127,2.150993,-2.2024060000000003,1000.8829,0,0
0.8,-9.175934,2.346423,-3.1066808999999997,1000.8704,0,0
0.84,-9.854722,2.5895185,-2.6947925,1000.8855,0,0
0.88,-8.626356,2.8516803,-2.6853278,1000.8706699999999,0,0
0.92,-8.7650175,2.985145,-2.377596,1000.9109,0,0
0.96,-8.191485,3.5618992,-3.8547344,1000.92847,0,0
1.0,-8.760328,3.0423457999999997,-2.8415758999999996,1000.9209599999999,0,0
1.04,-8.755599,3.528536,-2.8368458999999997,1000.9239,0,0
1.08,-8.397158000000001,3.7287323,-2.3065965,1000.9009,0,0
1.12,-8.636194999999999,3.5476042999999997,-2.7232287,1000.9440300000001,0,0
1.16,-8.488068,3.8145328000000003,-3.5328160000000004,1000.9692,0,0
1.2,-8.129622999999999,3.7287354,-2.969426,1000.9591,0,0
1.24,-9.033053,3.4332106,-3.0309772,1000.9516,0,0
1.28,-8.550343,3.6143403,-2.718511,1000.9543,0,0
1.32,-8.440451,3.7335062000000003,-2.7232494,1000.95935,0,0
1.36,-8.019864,4.1529636,-3.2345683999999997,1000.99457,0,0
1.4,-8.756008999999999,3.776407,-3.5044345999999997,1001.0249,0,0
1.44,-8.21115,3.924171,-3.0120602,1000.9698,0,0
1.48,-7.9148583,4.2435317,-3.1919725,1000.95435,0,0
1.52,-7.824089,4.453261,-3.0262724999999997,1000.9215,0,0
1.56,-7.9531899999999975,4.55336,-3.2582629,1000.92664,0,0
1.6,-7.63777,4.90132,-3.3860959999999998,1000.9418,0,0
1.64,-7.905483199999999,4.7344913,-3.3718967000000006,1000.9218,0,0
1.68,-7.2698160000000005,5.3922777,-3.2961504,1000.9317599999999,0,0
1.72,-7.633128599999999,5.1825504,-3.8169396,1000.9498,0,0
1.76,-7.661850999999999,5.1777844,-3.5423481,1000.9671,0,0
1.8,-7.4372473,5.3589150000000005,-3.2819599999999998,1000.9142,0,0
1.84,-7.1313834,5.4256477,-3.0689158,1000.9144,0,0
1.88,-7.609411200000001,5.3732166,-3.5897045,1000.9346300000001,0,0
1.92,-7.719378999999999,5.2921863,-3.4476755,1000.922,0,0
1.96,-7.5569243,5.230222,-3.2014918,1000.922,0,0
2.0,-7.700368400000001,5.1682587,-3.2819812000000006,1000.9295699999999,0,0
2.04,-7.2463303,5.497152,-3.3861422999999995,1000.94476,0,0
2.08,-7.705236,5.2159260000000005,-3.4476932999999996,1000.98004,0,0
2.12,-7.4997544000000005,5.206394,-3.19204,1000.94476,0,0
2.16,-7.5667157000000005,5.030033,-3.353014,1000.9575,0,0
2.2,-7.5759788,5.263587,-3.4050653,1000.93713,0,0
2.24,-7.5186524000000015,5.0490923,-3.4382087999999995,1000.92975,0,0
2.28,-7.6094933000000005,5.03956,-3.5092273,1000.92224,0,0
2.32,-7.4613605,5.1015263,-3.4666214,1000.9374,0,0
2.36,-7.3657850000000025,5.187325,-3.4476855000000004,1000.92725,0,0
2.4,-7.3419237000000015,5.025263,-3.3482665999999996,1000.9147300000001,0,0
2.44,-7.4375587,5.187327,-3.1778316,1000.91223,0,0
2.48,-7.4232520000000015,5.320791000000002,-3.168366,1000.92,0,0
2.52,-7.447184599999999,5.4971547,-3.2867286,1000.94006,0,0
2.56,-7.485449000000001,5.4542556,-3.2441218,1000.95276,0,0
2.6,-7.5906405,5.273128,-3.3435473,1000.93,0,0
2.64,-7.432939,5.220697,-3.2488625,1000.9427,0,0
2.68,-7.528568300000001,5.292196,-3.2630687000000003,1000.9401,0,0
2.72,-7.461684700000001,5.2159314000000006,-3.1636490000000004,1000.9098,0,0
2.76,-7.4425898,5.42566,-3.2109954,1000.9073,0,0
2.8,-7.4043902999999975,5.316031,-3.2157335,1000.9148,0,0
2.84,-7.4330935,5.3112650000000015,-3.1541884,1000.9023,0,0
2.88,-7.4952726,5.4208965,-3.2394114,1000.9501300000001,0,0
2.92,-7.5478809999999985,5.506695,-3.1920702000000003,1001.0006,0,0
2.96,-7.2706857000000005,5.5114627,-3.258355,1000.9653,0,0
3.0,-7.567069,5.2016373,-3.2394207,1000.9653,0,0
3.04,3.7310830000000004,6.14533,7.6831694000000015,1001.0179,0,0
3.08,4.428923,6.4694567,8.8004875,1001.0307,0,0
3.12,3.7788532,6.2263627,8.734204,1001.02295,0,0
3.16,4.2998376,7.103409299999999,8.421732,1001.00037,0,0
3.2,3.893539,7.360803999999999,8.50695,1000.965,0,0
3.24,3.8983035000000004,7.7421284,8.69159,1000.9879,0,0
3.28,3.9500551,7.7802815,10.268071,1000.9529,0,0
3.32,3.8687544000000003,7.970944999999999,9.25964,1000.9301,0,0
3.36,4.7577419999999995,8.500034,10.149702,1000.9047,0,0
3.4,4.0168230000000005,8.013846000000001,10.471638,1000.9277,0,0
3.44,3.8447027,7.684955,8.421636,1000.9027,0,0
3.48,3.4001489,7.4227953,7.323251700000001,1000.8851,0,0
3.52,2.305518,6.431352599999999,2.8492336,1000.8324,0,0
3.56,0.22625645,5.1253176,2.4657428,1000.81464,0,0
3.6,-3.5116002999999996,3.4331915,0.5009601,1000.8273300000001,0,0
3.64,-5.4522414,3.0518677000000003,0.07012551,1000.8653,0,0
3.68,-6.5229645,2.8755064,-0.6068986,1000.845,0,0
3.72,-9.199701,1.7934990000000002,-1.250782,1000.898,0,0
3.76,-9.548665,1.6123707,-0.22815406,1000.8981,0,0
3.8,-8.411127,2.150993,-2.2024060000000003,1000.8829,0,0
3.84,-9.175934,2.346423,-3.1066808999999997,1000.8704,0,0
3.88,-9.854722,2.5895185,-2.6947925,1000.8855,0,0
3.92,-8.626356,2.8516803,-2.6853278,1000.8706699999999,0,0
3.96,-8.7650175,2.985145,-2.377596,1000.9109,0,0
4.0,-8.191485,3.5618992,-3.8547344,1000.92847,0,0
4.04,-8.760328,3.0423457999999997,-2.8415758999999996,1000.9209599999999,0,0
4.08,-8.755599,3.528536,-2.8368458999999997,1000.9239,0,0
4.12,-8.397158000000001,3.7287323,-2.3065965,1000.9009,0,0
4.16,-8.636194999999999,3.5476042999999997,-2.7232287,1000.9440300000001,0,0
4.2,-8.488068,3.8145328000000003,-3.5328160000000004,1000.9692,0,0
4.24,-8.129622999999999,3.7287354,-2.969426,1000.9591,0,0
4.28,-9.033053,3.4332106,-3.0309772,1000.9516,0,0
4.32,-8.550343,3.6143403,-2.718511,1000.9543,0,0
4.36,-8.440451,3.7335062000000003,-2.7232494,1000.95935,0,0
4.4,-8.019864,4.1529636,-3.2345683999999997,1000.99457,0,0
4.44,-8.756008999999999,3.776407,-3.5044345999999997,1001.0249,0,0
4.48,-8.21115,3.924171,-3.0120602,1000.9698,0,0
4.52,-7.9148583,4.2435317,-3.1919725,1000.95435,0,0
4.56,-7.824089,4.453261,-3.0262724999999997,1000.9215,0,0
4.6,-7.9531899999999975,4.55336,-3.2582629,1000.92664,0,0
4.64,-7.63777,4.90132,-3.3860959999999998,1000.9418,0,0
4.68,-7.905483199999999,4.7344913,-3.3718967000000006,1000.9218,0,0
4.72,-7.2698160000000005,5.3922777,-3.2961504,1000.9317599999999,0,0
4.76,-7.633128599999999,5.1825504,-3.8169396,1000.9498,0,0
4.8,-7.661850999999999,5.1777844,-3.5423481,1000.9671,0,0
4.84,-7.4372473,5.3589150000000005,-3.2819599999999998,1000.9142,0,0
4.88,-7.1313834,5.4256477,-3.0689158,1000.9144,0,0
4.92,-7.609411200000001,5.3732166,-3.5897045,1000.9346300000001,0,0
4.96,-7.719378999999999,5.2921863,-3.4476755,1000.922,0,0
5.0,-7.5569243,5.230222,-3.2014918,1000.922,0,0
5.04,-7.700368400000001,5.1682587,-3.2819812000000006,1000.9295699999999,0,0
5.08,-7.2463303,5.497152,-3.3861422999999995,1000.94476,0,0
5.12,-7.705236,5.2159260000000005,-3.4476932999999996,1000.98004,0,0
5.16,-7.4997544000000005,5.206394,-3.19204,1000.94476,0,0
5.2,-7.5667157000000005,5.030033,-3.353014,1000.9575,0,0
5.24,-7.5759788,5.263587,-3.4050653,1000.93713,0,0
5.28,-7.5186524000000015,5.0490923,-3.4382087999999995,1000.92975,0,0
5.32,-7.6094933000000005,5.03956,-3.5092273,1000.92224,0,0
5.36,-7.4613605,5.1015263,-3.4666214,1000.9374,0,0
5.4,-7.3657850000000025,5.187325,-3.4476855000000004,1000.92725,0,0
5.44,-7.3419237000000015,5.025263,-3.3482665999999996,1000.9147300000001,0,0
5.48,-7.4375587,5.187327,-3.1778316,1000.91223,0,0
5.52,-7.4232520000000015,5.320791000000002,-3.168366,1000.92,0,0
5.56,-7.447184599999999,5.4971547,-3.2867286,1000.94006,0,0
5.6,-7.485449000000001,5.4542556,-3.2441218,1000.95276,0,0
5.64,-7.5906405,5.273128,-3.3435473,1000.93,0,0
5.68,-7.432939,5.220697,-3.2488625,1000.9427,0,0
5.72,-7.528568300000001,5.292196,-3.2630687000000003,1000.9401,0,0
5.76,-7.461684700000001,5.2159314000000006,-3.1636490000000004,1000.9098,0,0
5.8,-7.4425898,5.42566,-3.2109954,1000.9073,0,0
5.84,-7.4043902999999975,5.316031,-3.2157335,1000.9148,0,0
5.88,-7.4330935,5.3112650000000015,-3.1541884,1000.9023,0,0
5.92,-7.4952726,5.4208965,-3.2394114,1000.9501300000001,0,0
5.96,-7.5478809999999985,5.506695,-3.1920702000000003,1001.0006,0,0
6.0,-7.2706857000000005,5.5114627,-3.258355,1000.9653,0,0
6.04,-7.567069,5.2016373,-3.2394207,1000.9653,0,0
6.08,-7.586219,5.2826695,-3.1589386000000004,1000.9174,0,0
6.12,-7.581469999999999,5.2731376,-2.9837685,1000.8645,0,0
6.16,-7.710560000000001,5.349403,-2.9080209999999997,1000.8923300000001,0,0
6.2,-7.7631702,5.311271700000002,-2.9837747,1000.9403,0,0
6.24,-7.710089,5.3493915,-3.1399639,1000.9075,0,0
6.28,-7.652742999999999,5.4304233,-3.1589026000000002,1000.8923300000001,0,0
6.32,-7.74357,5.234995,-3.3719517999999997,1000.9075300000001,0,0
6.36,-7.475912599999999,5.2397614,-2.9979348,1000.89984,0,0
6.4,-7.2656116,5.320793,-3.0736863999999997,1000.89496,0,0
6.44,-7.361217,5.106299,-3.0594837999999998,1000.8874,0,0
6.48,-7.767512,5.039567,-3.0642192,1000.8824,0,0
6.52,-7.753182400000001,5.173031,-3.0216107000000005,1000.8823,0,0
6.56,-7.495087599999999,5.335094000000002,-2.9932053,1000.90515,0,0
6.6,-7.724527,5.3875265,-3.1636447999999997,1000.8924599999999,0,0
6.64,-7.643282000000001,5.2492967,-2.8795817,1000.89496,0,0
6.68,-7.628956,5.173032,-3.1967882999999997,1000.9075300000001,0,0
6.72,-7.734122,4.872739,-3.1494447999999995,1000.89996,0,0
6.76,-7.8440695000000025,5.096767400000001,-3.1399772,1000.8497,0,0
6.8,-7.385219,5.196866,-2.8511794,1000.8497,0,0
6.84,-7.662459399999999,5.1492,-2.9221966,1000.8824,0,0
6.88,-7.585994,5.3541627,-3.1115737,1000.9024,0,0
6.92,-7.672039999999999,5.2540645999999995,-2.7943697,1000.9227,0,0
6.96,-7.667273,5.3303304,-3.087904,1000.8698,0,0
7.0,-7.705521000000001,5.296964599999999,-2.7706997,1000.8748,0,0
7.04,-7.858486,5.115835700000001,-2.8369823,1000.8974599999999,0,0
7.08,-7.7772417,4.953773,-3.0926414,1000.9278,0,0
7.12,-7.868069599999999,4.7392783,-2.9979541000000003,1000.9227,0,0
7.16,-7.9206585999999986,4.658247,-3.2346754,1000.9075,0,0
7.2,-7.968468,4.815544,-3.1163163,1000.8899,0,0
7.24,-7.9499226,4.8584566,-2.8417735,1000.9125,0,0
7.28,-7.854357,4.963322,-2.7660258,1000.9150400000001,0,0
7.32,-7.887853999999999,4.6963954,-3.0406246,1000.9053,0,0
7.36,-8.031281,4.7297626,-2.9743462000000003,1000.93005,0,0
7.4,-7.754088,5.1015544,-3.111647,1000.9150400000001,0,0
7.44,-7.7063235999999975,5.006224,-3.0595717000000002,1000.9226,0,0
7.48,-7.7684929999999985,4.801263,-2.993293,1000.9177,0,0
7.52,-7.8689017,4.7011660000000015,-3.1968756000000003,1000.9428,0,0
7.56,-7.7972383,4.7631326,-3.1495345,1000.9327,0,0
7.6,-7.969345,4.7059345,-3.1968818,1000.9227,0,0
7.64,-7.935919,4.8775315,-3.3199794000000002,1000.98315,0,0
7.68,-7.620488000000001,4.949030400000002,-3.2868416,1000.93256,0,0
7.72,-7.916867999999999,4.739303,-3.3294542000000003,1000.94775,0,0
7.76,-7.921684299999999,4.629673,-3.253707,1000.9150400000001,0,0
7.8,-7.845239,4.763138,-3.2726476000000004,1000.8972,0,0
7.84,-7.7687945,4.725005599999999,-3.2821192999999997,1000.9175,0,0
7.88,-7.979140299999999,4.601076,-3.1353557,1000.91754,0,0
7.92,-7.878798,4.705941,-3.2205784,1000.9074,0,0
7.96,-7.7354383,4.9871693,-3.1637685,1000.8972,0,0
8.0,-7.9362216,4.601078500000002,-2.9743953,1000.95526,0,0
8.04,-7.9075729999999975,4.6868773,-3.2631967,1000.93,0,0
8.08,-7.931511,4.7059445,-3.130637,1000.9577,0,0
8.12,-7.9076457,4.7774434,-3.083296,1000.915,0,0
8.16,-7.8694396,4.686879599999998,-3.0690958,1000.9124,0,0
8.2,-7.874254,4.8203444000000015,-3.0738335,1000.9427,0,0
8.24,-7.8203955,4.810779599999999,-3.0216380000000003,1000.9376,0,0
8.28,-7.9972277,4.9156437,-3.1494647999999996,1000.93256,0,0
8.32,-7.853814999999999,4.887044,-2.9364147000000003,1000.9023,0,0
8.36,-7.7773204,4.8203115,-3.073711,1000.9275,0,0
8.4,-8.040189999999999,4.69638,-3.2252102000000002,1000.9350599999999,0,0
8.44,-7.8107419999999985,4.9251747,-3.2062707,1000.9376,0,0
8.48,-7.834622,5.173035,-3.23941,1000.90717,0,0
8.52,-7.7676854,5.0157385,-3.2062673999999998,1000.9299,0,0
8.56,-7.700755,4.872741,-3.2394068,1000.9424,0,0
8.6,-7.8536839999999986,4.7249775000000005,-3.3530307,1000.9349,0,0
8.64,-7.810648,4.7154440000000015,-3.4098413,1000.9147300000001,0,0
8.68,-7.796289,4.7678757,-3.3151517,1000.92725,0,0
8.72,-7.8010564,4.9347053,-3.3624947,1000.9198,0,0
8.76,-7.6576433,4.801241,-3.4382434,1000.94244,0,0
8.8,-7.801017999999999,4.7345085,-3.3577566,1000.9324,0,0
8.84,-7.781875,4.782173,-3.2488634999999997,1000.9095,0,0
8.88,-7.796195,4.882271,-3.324612,1000.9422599999999,0,0
8.92,-7.8391967000000005,4.8298383000000005,-3.2157192,1000.91455,0,0
8.96,-7.9777913,4.772639,-3.3482807,1000.9323,0,0
9.0,-7.8821783,4.8155375,-3.3482792000000003,1000.9245599999999,0,0
9.04,-7.686186,4.7345057,-3.2299173,1000.92975,0,0
9.08,-7.748305999999999,4.801237,-3.1352273999999998,1000.9422599999999,0,0
9.12,-7.786522,4.8441358,-3.2251792,1000.91455,0,0
9.16,-7.8247466,4.896567299999999,-3.2251778,1000.9119,0,0
9.2,-7.7673664,5.0204973,-3.1873004000000003,1000.9398,0,0
9.24,-7.8390493,4.9728317,-3.1162832000000003,1000.9122,0,0
9.28,-7.8928056,4.9823933,-3.0927192999999997,1000.9449,0,0
9.32,-7.835466999999999,5.0491257,-3.2205496,1000.922,0,0
9.36,-7.792484,4.8775306,-2.9933014,1000.91705,0,0
9.4,-7.7160306,4.8441653,-3.0690541000000002,1000.9348,0,0
9.44,-7.6491375,5.0538940000000006,-3.1400723,1000.92206,0,0
9.48,-7.6921887,5.1110935,-3.4383428,1000.9144,0,0
9.52,-7.720895,4.887066,-3.4288766,1000.9396,0,0
9.56,-7.5918649999999985,4.9061327000000015,-3.2110963,1000.8843,0,0
9.6,-7.6635895000000005,5.0681970000000005,-3.5141008,1000.9674,0,0
9.64,-7.281233,5.2016606,-3.4146807,1000.92426,0,0
9.68,-7.419874,5.2445607,-3.6229968,1000.9498,0,0
9.72,-7.415122,5.3970910000000005,-3.594593,1000.93695,0,0
9.76,-7.243069999999999,5.349426,-3.3342028,1000.94476,0,0
9.8,-7.171398599999999,5.592521,-3.3152676,1000.91675,0,0
9.84,-7.4056435,5.397093,-3.5188498,1000.9091,0,0
9.88,-7.3291960000000005,5.4352264,-3.4857117999999994,1000.93195,0,0
9.92,-7.181039299999999,5.454293,-3.5046510000000004,1000.9469,0,0
9.96,-7.32925,5.5114923,-3.4573104,1000.9191,0,0
10.0,-7.3197160000000006,5.33513,-3.5851417000000003,1000.9367,0,0
10.04,-7.4153395,5.2731657,-3.5046593999999995,1000.9114400000001,0,0
10.08,-7.3388867,5.277933,-3.3578949999999996,1000.89636,0,0
10.12,-7.487085,5.339899,-3.495195,1000.9293,0,0
10.16,-7.3484982999999975,5.2874675,-3.4431190000000003,1000.9419,0,0
10.2,-7.2194767,5.5114965,-3.480997,1000.9518400000001,0,0
10.24,-7.3533387,5.4304657,-3.6277663999999996,1000.93933,0,0
10.28,-7.2707944000000015,5.5257654,-3.6087108,1000.9269400000001,0,0
10.32,-7.2134156,5.630629,-3.5945058,1000.9245,0,0
10.36,-7.093895,5.563896,-3.6418474,1000.8993,0,0
10.4,-7.07953,5.4018326,-3.6513138,1000.92926,0,0
10.44,-7.3184958,5.301735,-3.4240602999999994,1000.9064300000001,0,0
10.48,-7.5431213,5.1492043,-3.5282150000000003,1000.89886,0,0
10.52,-7.3375745,5.2064023,-3.4287907999999994,1000.90906,0,0
10.56,-7.4713774000000015,5.1635027000000004,-3.4051160000000005,1000.91156,0,0
10.6,-7.5573974,5.1825686,-3.3483016000000005,1000.8837,0,0
10.64,-7.7724600000000015,5.058637,-3.2441419999999996,1000.89636,0,0
10.68,-7.729425,5.1921005,-3.1447182000000002,1000.8788,0,0
10.72,-7.6051173,5.092002,-3.2015278,1000.9165,0,0
10.76,-7.777172,5.2397647,-3.116307,1000.9062,0,0
10.8,-7.5763940000000005,4.9871370000000015,-3.225196,1000.94916,0,0
10.84,-7.528577,5.1158333,-3.3009446000000002,1000.9237699999999,0,0
10.88,-7.729305,5.0491004,-3.5518657999999994,1000.9314,0,0
10.92,-7.5619826,4.963302,-3.2157207000000003,1000.90375,0,0
10.96,-7.6910149999999975,4.8584375,-3.2630625,1000.9237699999999,0,0
11.0,-7.8726225,4.758339,-3.2583256,1000.9062,0,0
11.04,-7.800901400000001,4.772638,-3.4287620000000003,1000.8987400000001,0,0
11.08,-7.729184,4.910868,-3.4524324,1000.9237699999999,0,0
11.12,-7.7100425,4.8489017,-3.5518527,1000.9038,0,0
11.16,-7.7195797000000015,4.934699500000002,-3.2583177000000005,1000.8987400000001,0,0
11.2,-7.6669774,4.901333,-3.3103937999999995,1000.9113,0,0
11.24,-7.490099400000001,4.9489980000000005,-3.0073895,1000.8811599999999,0,0
11.28,-7.743336699999999,4.8345985,-3.2867107000000004,1000.8986,0,0
11.32,-7.776769,4.887029599999999,-3.3908656,1000.9214,0,0
11.36,-7.8197637,4.9537606,-3.4618792999999997,1000.9491,0,0
11.4,-7.819737,4.9108615,-3.4050643,1000.92615,0,0
11.44,-7.7480235,4.906094,-3.3482497,1000.92645,0,0
11.48,-7.642834,4.786929,-3.2914337999999996,1000.9085,0,0
11.52,-7.7288422999999975,4.5962667,-3.3340408999999998,1000.9362,0,0
11.56,-7.829192599999999,4.677297599999998,-3.3198357000000005,1000.9136,0,0
11.6,-7.876961,4.8822589999999995,-3.509209,1000.9135,0,0
11.64,-7.762217999999999,4.896558,-3.357705,1000.883,0,0
11.68,-7.848229400000001,4.7058945,-3.2677492999999997,1000.9209,0,0
11.72,-7.843423,4.7106605,-3.4239824,1000.9311,0,0
11.76,-7.7956065999999975,4.7630925,-3.3150894999999996,1000.9084,0,0
11.8,-7.7095437,4.815524,-3.386103,1000.92346,0,0
11.84,-7.785985,4.829823,-3.3245523,1000.91846,0,0
11.88,-7.704704799999999,4.7821565,-3.343488,1000.9186,0,0
11.92,-7.828958,4.8488874000000015,-3.3529546000000003,1000.9009,0,0
11.96,-7.776361,4.8345876,-3.3056089999999996,1000.9007,0,0
12.0,-7.666392,4.9537505999999984,-3.2819339999999997,1000.8929400000001,0,0
12.04,-7.7332839999999985,4.9728165,-3.2819316,1000.8805,0,0
12.08,-7.728474,4.8917839999999995,-3.2913976000000003,1000.8981,0,0
12.12,-7.7953634,4.7916856,-3.348207700000001,1000.898,0,0
12.16,-7.8048964000000005,4.944215,-3.2677207000000004,1000.89307,0,0
12.2,-7.694941,5.020479,-3.2677188,1000.8955699999999,0,0
12.24,-7.7044735,4.977579599999999,-3.3150604,1000.9132699999999,0,0
12.28,-7.690813,4.991896,-3.144684,1000.898,0,0
12.32,-7.671695,5.0490947,-3.3056536,1000.92834,0,0
12.36,-7.6621365999999975,5.1587257000000015,-3.2583096,1000.913,0,0
12.4,-7.705156,4.9680634,-3.2441068,1000.91034,0,0
12.44,-7.7194967000000005,4.8774986,-3.244107,1000.86005,0,0
12.48,-7.690819,4.925164,-3.2819822,1000.9003,0,0
12.52,-7.819875200000001,4.8917985,-3.244107,1000.8929,0,0
12.56,-7.8294353,4.858433,-3.3056542999999996,1000.9053,0,0
12.6,-7.6573644,5.082461,-3.2583102999999998,1000.8774,0,0
12.64,-7.709944,4.9489975,-3.2204354,1000.8724,0,0
12.68,-7.714724,4.9728303,-3.2109666,1000.8977699999999,0,0
12.72,-7.7577440000000015,4.925164,-3.1920292000000003,1000.8977699999999,0,0
12.76,-7.8581204,4.8346,-3.1399508,1000.8929,0,0
12.8,-7.8963600000000005,4.7249694,-3.1778264,1000.89264,0,0
12.84,-7.9059215,4.8012342000000015,-3.1210134,1000.9102,0,0
12.88,-7.872464,4.763102,-3.2725146,1000.9100300000001,0,0
12.92,-7.7816490000000025,4.7488017,-3.1778266,1000.9102,0,0
12.96,-7.819889,4.729736,-3.3056555,1000.8949,0,0
13.0,-7.839010000000001,4.7774019999999995,-3.3861406,1000.8874,0,0
13.04,-7.7625337,4.7011366,-3.2819839,1000.8898300000001,0,0
13.08,-7.8342323,4.7440357,-3.2204366,1000.8797599999999,0,0
13.12,-7.7003984,4.8536663,-3.1920304,1000.9100300000001,0,0
13.16,-7.939389999999999,4.6868370000000015,-3.2251713,1000.9226,0,0
13.2,-7.996748399999999,4.7154365,-3.3103905,1000.8747599999999,0,0
13.24,-7.8676960000000005,4.772635,-3.2441092,1000.88715,0,0
13.28,-7.819514999999999,4.610563,-3.3766372000000002,1000.86945,0,0
13.32,-7.786042,4.705893,-3.3482296000000003,1000.9075300000001,0,0
13.36,-7.7908089999999985,4.6582274,-3.4665885000000003,1000.9049699999999,0,0
13.4,-7.7286577,4.739259,-3.4902594,1000.88965,0,0
13.44,-7.8433595,4.462798599999998,-3.4334452000000004,1000.8846,0,0
13.48,-7.7668657,4.5819616,-3.3908343,1000.9173,0,0
13.52,-7.7907543000000015,4.5247626,-3.4192398,1000.8996,0,0
13.56,-7.876774,4.462797,-3.5470669999999997,1000.8944,0,0
13.6,-7.742926,4.791689,-3.6133474999999997,1000.9072,0,0
13.64,-7.7476916,4.4055976999999995,-3.5991428,1000.89984,0,0
13.68,-7.652082400000001,4.5009284,-3.4192343000000003,1000.8794,0,0
13.72,-7.699867999999999,4.3436317,-3.5612654999999998,1000.9045,0,0
13.76,-7.876705,4.2769,-3.6038733,1000.9147,0,0
13.8,-7.5946820000000015,4.496161,-3.3434798999999997,1000.9273,0,0
13.84,-7.8718996,4.5724254,-3.5470582999999998,1000.93713,1,1
13.88,-7.9005637,4.562892400000001,-3.2961335,1000.89935,1,1
13.92,-7.6042039999999975,4.601024,-3.1351626,1000.9019,1,1
13.96,-7.685447999999999,4.62009,-3.1683022999999997,1000.8767,1,1
14.0,-8.866042,4.477093,-2.8937051,1000.8339,1,1
14.04,-8.9759655,4.763086299999999,-2.9789236,1000.8263,1,1
14.08,-8.985511,5.234975,-2.5764978,1000.88684,1,1
14.12,-8.507518,5.349371400000001,-2.5575593,1000.9144,1,1
14.16,-8.297195,5.1920753,-2.3492439999999997,1000.91943,1,1
14.2,-7.3077607,5.010946,-2.0225687,1000.8993,1,1
14.24,-6.6337905,5.182541400000002,-1.6390804,1000.9069,1,1
14.28,-6.872292,5.177763,-1.4259875,1000.8789999999999,1,1
14.32,-7.3358955,6.283603,-0.535916,1000.8662,1,1
14.36,-7.5939765,7.2416806,-1.0282913,1000.9092,1,1
14.4,-8.363487,7.5848713000000005,-0.8010366,1000.8686,1,1
14.44,-7.4696293,8.194989999999999,-1.5490693000000002,1000.90674,1,1
14.48,-8.702791,7.2655106,-3.2108428,1000.9619,1,1
14.52,-7.732461,7.4895380000000005,-3.9683447,1000.8637,1,1
14.56,-6.1455264000000005,7.036714,-4.6027510000000005,1000.80084,1,1
14.6,-5.3042545,6.4265943,-3.8026347,1000.8463,1,1
14.64,-5.7439637,5.8069415,-3.4333482,1000.85114,1,1
14.68,-5.949466,5.3874830000000005,-3.2629068,1000.89136,1,1
14.72,-5.500129,5.163454,-3.5232959000000004,1000.96686,1,1
14.76,-5.4761996,5.406548,-3.1966193,1000.9214,1,1
14.8,-5.8681064,4.9632572999999995,-2.8746762,1000.939,1,1
14.84,-5.6959987000000005,5.959467,-3.1587374,1000.91394,1,1
14.88,-6.0640144,6.378923,-4.148225,1000.9163,1,1
14.92,-7.1776795,6.183493599999999,-3.7931422999999995,1000.9443,1,1
14.96,-8.05712,6.450419999999999,-3.3954484,1000.9239,1,1
15.0,-7.9758334,6.4218197,-3.1539907000000005,1000.9541,1,1
15.04,-8.30561,7.1272693,-2.8036423,1000.9213,1,1
15.08,-8.382058,7.4370949999999985,-2.5479817000000002,1000.90375,1,1
15.12,-8.028322,7.2273654999999986,-1.9656471999999998,1000.94653,1,1
15.16,-7.492951400000001,6.602946,-2.1313481,1000.9465,1,1
15.2,-9.156289,5.0252147,-0.98088485,1000.8960599999999,1,1
15.24,-7.908732400000001,5.6258,-0.76783407,1000.8936,1,1
15.28,-6.575576,6.0643334000000015,-0.7015899,1000.90375,1,1
15.32,-6.518210400000001,5.792639299999999,-0.8672931999999999,1000.9112,1,1
15.36,-6.7810845,5.568611,-1.2507788,1000.92114,1,1
15.4,-6.929241,5.58291,-0.89096236,1000.9135,1,1
15.44,-6.2791714999999995,6.131064,-0.7252566999999999,1000.9059,1,1
15.48,-6.7045603000000025,6.564820299999999,-1.0898045,1000.9159,1,1
15.52,-7.689183,7.1749387,-1.4638209999999998,1000.91614,1,1
15.56,-7.5362144,7.1749387,-1.6437271,1000.94116,1,1
15.6,-8.869764,6.836512599999999,-2.4675121,1000.9614,1,1
15.64,-8.415668,7.213071,-2.6332150000000003,1000.88824,1,1
15.68,-7.2302604000000015,6.703048,-2.7421045,1000.8781,1,1
15.72,-7.015154400000001,5.806935299999999,-3.4475296,1000.8932,1,1
15.76,-7.158533,4.6009955,-2.7752428,1000.87537,1,1
15.8,-6.929088,4.6820273,-2.3822857999999996,1000.8731,1,1
15.84,-6.5992684000000015,5.292146,-2.4959102000000004,1000.9083,1,1
15.88,-6.2503269999999995,5.134849,-2.424893,1000.9331,1,1
15.92,-6.4271660000000015,4.9155874000000015,-2.2355150000000004,1000.9184,1,1
15.96,-7.034186,4.929887,-2.9267369999999997,1000.9106,1,1
16.0,-6.776061,4.8917537000000015,-2.4438264,1000.8577,1,1
16.04,-6.5179377,6.369386,-2.1786985,1000.8527,1,1
16.08,-8.826564999999997,6.2454550000000015,-2.8509822,1000.9032,1,1
16.12,-8.491964,6.5838804,-3.7836587,1001.0063,1,1
16.16,-8.611442,6.455183,-3.3575606,1000.9888,1,1
16.2,-9.964115,6.1262903,-3.4617164,1001.0038,1,1
16.24,-7.875325,5.9642269999999975,-1.5537499,1000.9105,1,1
16.28,-8.549261999999999,5.387473,-1.2128714,1000.85504,1,1
16.32,-9.600805000000001,5.1110125,-0.76783615,1000.89307,1,1
16.36,-7.985218,5.7640305,-0.20444067,1000.88525,1,1
16.4,-7.163074000000001,5.525702,-0.7441612,1000.89545,1,1
16.44,-7.550223399999999,5.3016734,-0.8151759,1000.8929400000001,1,1
16.48,-7.626691,5.3302727,-0.9950825000000001,1000.9608,1,1
16.52,-6.990961599999999,5.7592626,-1.274411,1000.90533,1,1
16.56,-6.1258019999999975,5.98329,-0.69207776,1000.93567,1,1
16.6,-6.661123,6.0738544,-1.5158627,1000.9682,1,1
16.64,-8.023351,5.9546905,-2.0177083,1000.9554400000001,1,1
16.68,-8.429617,6.8937016,-2.7704767999999995,1000.9455,1,1
16.72,-8.941041,6.712572,-3.5090425000000005,1000.9078,1,1
16.76,-8.673357000000001,6.669672500000001,-3.258118,1000.8648,1,1
16.8,-7.626566,6.2597485,-3.5989937999999992,1000.92285,1,1
16.84,-5.6716120000000005,5.7544928,-2.964582,1000.953,1,1
16.88,-6.617996700000001,4.7249165,-2.5479531000000004,1000.9707599999999,1,1
16.92,-6.8187337,5.096707299999999,-2.8604224,1000.99084,1,1
16.96,-7.3683996,4.963244,-3.1397512,1000.9176,1,1
17.0,-7.220207,5.158672,-3.0213895,1000.86725,1,1
17.04,-6.6848529999999995,5.034741,-2.798871,1000.8800699999999,1,1
17.08,-6.68962,4.715381,-2.9124953999999996,1000.9151,1,1
17.12,-6.484074,4.867911,-2.8888220000000002,1000.9378,1,1
17.16,-6.0204177,5.849821599999999,-3.1208065,1000.9628,1,1
17.2,-6.8759875,5.678225,-3.2533684,1000.9884,1,1
17.24,-7.908409,5.406531,-3.859371,1000.97327,1,1
17.28,-8.438628999999999,6.2978682999999975,-3.5658068999999997,1000.9251,1,1
17.32,-9.279853,7.098649000000001,-3.7220400000000002,1000.95276,1,1
17.36,-9.437563,7.4132414,-3.3527546000000004,1000.9780000000001,1,1
17.4,-7.181463000000001,6.736389599999999,-1.4021765,1000.9325,1,1
17.44,-7.888839999999999,5.587649,-0.834045,1000.9125,1,1
17.48,-8.252089999999999,5.7592444,-0.9760759,1000.925,1,1
17.52,-7.731051,5.8974733,-1.2175268,1000.9048,1,1
17.56,-7.3343067,5.5876470000000005,-1.2222591999999999,1000.857,1,1
17.6,-6.7893815,5.4208164000000005,-1.0660213,1000.88965,1,1
17.64,-6.254017,5.873639,-2.050775,1000.9248699999999,1,1
17.68,-6.273115,5.8307395,-2.0886483,1000.8996599999999,1,1
17.72,-6.110567,5.525679,-1.7430335,1000.9073,1,1
17.76,-5.7855105,5.9975677,-2.2022681,1000.9526,1,1
17.8,-7.3341410000000025,5.7783050000000005,-2.7703943,1000.96,1,1
17.84,-7.444053999999999,6.226361,-2.6425633,1000.9476,1,1
17.88,-7.8168473,6.536185700000001,-2.8414056,1000.9275,1,1
17.92,-7.2528043,6.707782000000001,-2.5668075,1000.8971,1,1
17.96,-6.4354315,6.59815,-2.3774290000000002,1000.9071,1,1
18.0,-8.0366335,6.3312225,-2.3774261,1000.9222,1,1
18.04,-8.571946,7.0223727,-3.3527112,1000.9954,1,1
18.08,-7.988780499999999,8.24261,-3.6083663,1000.9198,1,1
18.12,-6.9276414000000015,7.7945533,-3.7077866000000004,1000.8743,1,1
18.16,-6.263215,6.8460073,-4.2901154,1000.9398,1,1
18.2,-6.119793,6.626745,-4.370598,1000.9499,1,1
18.24,-3.8541398,7.246397,-4.024984,1000.9901,1,1
18.28,-3.3864949,6.8936910000000005,-3.2202057999999996,1000.9445,1,1
18.32,-5.331878700000001,6.274039,-3.5847553999999997,1000.96246,1,1
18.36,-5.3127629999999995,7.012855,-4.1055402999999995,1000.9169999999999,1,1
18.4,-6.0201769999999994,7.2654824000000024,-4.025056,1000.8941699999999,1,1
18.44,-6.9618034,6.7506948000000015,-3.8830242,1000.9118699999999,1,1
18.48,-5.919809,6.884158599999999,-3.740992,1000.89667,1,1
18.52,-6.0584273,6.469468,-3.466397,1000.92206,1,1
18.56,-6.0918884,6.2931056,-3.8877592000000014,1000.9346,1,1
18.6,-6.746726,5.973746,-3.385913,1000.9345,1,1
18.64,-7.6883516000000025,6.1167426,-3.6557739999999996,1000.93695,0,0
18.68,-7.850869,5.339794,-3.3243663,1000.9219400000001,0,0
18.72,-7.9225698000000015,5.215864,-2.4106264,1000.9219400000001,0,0
18.76,-7.229501700000001,5.0919337,-2.505315,1000.93964,0,0
18.8,-7.296422,5.1824985,-2.5005808,1000.92944,0,0
18.84,-7.5306362999999985,4.54378,-2.5431907000000002,1000.942,0,0
18.88,-8.558297999999999,3.919361,-2.538457,1000.9142,0,0
18.92,-8.285852,3.8001974,-2.841459,1000.9191,0,0
18.96,-8.333655,3.9479606,-2.789381,1000.9092,0,0
19.0,-8.089889999999999,4.176755399999999,-3.3006973,1000.90155,0,0
19.04,-8.257186,4.4198494,-3.1349932999999996,1000.8915,0,0
19.08,-7.468522,4.4198494,-3.3196356,1000.8588,0,0
19.12,-7.8222312999999986,4.1243234,-3.0403056,1000.8459,0,0
19.16,-8.099463,4.205355,-2.8888052,1000.8459,0,0
19.2,-7.707524,4.6200457,-2.7041638,1000.8487,0,0
19.24,-8.0373335,4.820241,-2.6804919999999997,1000.8688,0,0
19.28,-8.796686,4.238705,-2.1643836,1000.9242,0,0
19.32,-8.227864,4.4532,-1.7619569,1000.9494,0,0
19.36,-7.955399000000001,4.4246,-2.1975207,1000.9089,0,0
19.4,-7.4296039999999985,4.848823,-2.438974,1000.9164400000001,0,0
19.44,-9.207664999999999,4.6772265,-2.0649536,1000.9391,0,0
19.48,-8.500225,4.3578663,-2.6141419999999997,1000.9443,0,0
19.52,-8.103488,4.4960965999999996,-2.7277663,1000.9189,0,0
19.56,-8.648358,4.844054,-2.3253392999999996,1000.9417,0,0
19.6,-8.328096,5.2158456,-2.3442757000000003,1000.9241300000001,0,0
19.64,-6.8033195000000015,5.463706,-3.9823777999999996,1000.9694,0,0
19.68,-7.864412,5.2968755,-3.0212915000000002,1000.96185,0,0
19.72,-7.835714,4.858352,-2.9786801,1000.92145,0,0
19.76,-8.022102,5.049013599999999,-2.7040827000000003,1000.8987400000001,0,0
19.8,-7.58712,5.311173999999999,-2.6946117999999997,1000.8988,0,0
19.84,-7.448482,5.344539,-2.7750947,1000.9038,0,0
19.88,-7.687454700000001,5.1109776,-2.633061,1000.9088,0,0
19.92,-7.768683,5.1491094,-2.8129654,1000.9543,0,0
19.96,-7.9263945000000025,5.168175,-2.7798226,1000.929,0,0
20.0,-7.496191499999999,5.587631,-3.0070722,1000.9214,0,0
20.04,-7.261966,5.8211927,-2.8792419999999996,1000.91394,0,0
20.08,-7.429239,5.7115607000000015,-2.9313187999999997,1000.9366,0,0
20.12,-7.4387746,5.4398665,-2.7798152000000003,1000.9165,0,0
20.16,-7.395737,5.687727,-2.6851256,1000.9743699999999,0,0
20.2,-7.15672,5.911755,-2.9076400000000002,1000.9616,0,0
20.24,-7.271412400000001,5.854555,-2.9833884,1000.9438,0,0
20.28,-7.118437299999999,6.1405487,-2.95498,1000.9237,0,0
20.32,-6.998922299999999,6.059517,-2.7229924,1000.9338,0,0
20.36,-7.242675999999999,5.940352,-2.7892725,1000.9493,0,0
20.4,-6.9702053,6.0690484000000025,-2.7703330000000004,1000.9463,0,0
20.44,-7.166150599999999,6.0738144,-3.059129,1000.91614,0,0
20.48,-7.0322957,6.126246,-2.9691737000000002,1000.9363,0,0
20.52,-6.7837243,5.9832487,-3.1159382,1000.91364,0,0
20.56,-7.2569035999999985,5.721088,-3.0307169999999997,1000.92365,0,0
20.6,-7.1612860000000005,5.935582,-2.8366043999999997,1000.9388,0,0
20.64,-7.0752289999999975,6.2263417,-2.8081959999999997,1000.91864,0,0
20.68,-7.3046380000000015,5.806885,-2.5383332000000003,1000.92114,0,0
20.72,-7.749144999999999,5.84025,-2.5146596000000003,1000.9209599999999,0,0
20.76,-7.2854757,5.754451,-3.1727392999999995,1000.9463,0,0
20.8,-7.1372800000000005,6.002311,-2.888673,1000.9311,0,0
20.84,-6.965188499999999,5.864081,-3.025969,1000.92346,0,0
20.88,-7.051207499999999,5.7973485,-3.0496397,1000.8958,0,0
20.92,-7.079859299999999,5.811648,-3.1206532000000005,1000.9184,0,0
20.96,-7.2280197,5.968943599999999,-3.3857787000000004,1000.95135,0,0
21.0,-6.9746690000000005,6.040441,-3.248479,1000.9059,0,0
21.04,-7.6772757,6.2120370000000005,-3.4567904,1000.91846,0,0
21.08,-6.769095399999999,6.331200599999999,-3.073302,1000.8883,0,0
21.12,-7.390442,6.107172,-2.9454706,1000.91364,0,0
21.16,-7.5577183,5.773512,-2.2542459999999997,1000.9135,0,0
21.2,-7.6724067,5.659114,-2.8413098,1000.9209,0,0
21.24,-7.8827024,5.5685487,-2.5998537999999995,1000.93616,0,0
21.28,-7.719819999999999,5.697237,-2.519335,1000.9286,0,0
21.32,-6.9741306,5.6877027,-2.3915021,1000.9286,0,0
21.36,-6.868942,5.902197,-2.4625154,1000.90076,0,0
21.4,-6.9214754,5.3921747,-2.4530425,1000.9085,0,0
21.44,-7.036155,5.4875050000000005,-2.4341017999999996,1000.9286,0,0
21.48,-7.619255499999999,5.7019987,-2.5287867000000004,1000.9561,0,0
21.52,-8.0063925,5.7544303,-2.798645,1000.9688,0,0
21.56,-7.8390774999999975,5.954625599999999,-2.9785504,1000.9638,0,0
21.6,-7.074264,5.935558,-2.8838582,1000.9436599999999,0,0
21.64,-6.9451632,5.5399327000000005,-2.6708060000000002,1000.9385,0,0
21.68,-7.0694137,5.339737,-2.6897411,1000.9335,0,0
21.72,-7.5234710000000025,5.0108440000000005,-2.7749585999999997,1000.9486699999999,0,0
21.76,-7.513858,5.3826336999999995,-2.8791103,1000.93604,0,0
21.8,-7.824509,5.5256295,-2.8601693999999998,1000.92847,0,0
21.84,-7.7097588,5.187203,-2.940651,1000.92065,0,0
21.88,-7.9056954,4.996539599999998,-2.8838348,1000.9335,0,0
21.92,-7.7049119999999975,4.7915773,-2.7749407,1000.92084,0,0
21.96,-7.747892999999999,4.78681,-2.6092334,1000.9284,0,0
22.0,-8.015526,4.8440080000000005,-2.8364813,1000.9234,0,0
22.04,-7.71437,4.958404499999999,-2.8790886,1000.9436599999999,0,0
22.08,-7.9198656000000005,4.8487725,-2.9216947999999996,1000.9435,0,0
22.12,-7.9676240000000025,4.6914754,-3.1584112999999996,1000.9134,0,0
22.16,-8.197019000000001,5.1538305,-3.2530959999999998,1000.92065,0,0
22.2,-7.9054155,5.301593,-3.5939699999999997,1000.9259,0,0
22.24,-7.695069,4.681939,-2.987963,1000.91077,0,0
22.28,-7.661574000000001,4.3292136,-2.9548187,1000.92084,0,0
22.32,-8.278135,4.3530455,-2.9074720000000003,1000.9055,0,0
22.36,-7.8526974,4.6152053,-2.9406092,1000.9156,0,0
22.4,-7.694942,4.7439017,-2.9027321,1000.93567,0,0
22.44,-8.263692,4.7296010000000015,-3.1536515,1000.941,0,0
22.48,-8.067686,4.681935,-3.0873668,1000.9484,0,0
22.52,-8.053322999999999,4.8773627,-3.025817,1000.9433,0,0
22.56,-8.058053999999998,4.920261,-2.9263902,1000.9484,0,0
22.6,-7.8477163,5.0346575,-3.115764,1000.9484,0,0
22.64,-7.9193729999999976,4.14331,-2.8648367,1000.9433,0,0
22.68,-7.9432383,4.2910724,-2.8458962000000003,1000.93066,0,0
22.72,-8.115272000000001,4.4245358,-2.8553612,1000.93066,0,0
22.76,-7.914484,4.710528,-2.808014,1000.9231599999999,0,0
22.8,-8.143881,4.786792,-2.6186347000000003,1000.9307,0,0
22.84,-7.8809576,4.8630557,-2.8269452999999998,1000.9181,0,0
22.88,-7.923939999999999,4.8487554,-2.9358334999999998,1000.9586,0,0
22.92,-8.024282000000001,4.8106217000000004,-2.826939,1000.9231599999999,0,0
22.96,-7.9095429999999975,4.8916526,-2.7085764,1000.9206,0,0
23.0,-7.9429539999999985,4.872586,-2.7890572999999996,1000.94574,0,0
23.04,-8.086313,4.8916507000000005,-2.7417097000000004,1000.93854,0,0
23.08,-7.7230149999999975,5.048946400000001,-2.708566,1000.9559300000001,0,0
23.12,-7.952419,4.920249,-2.6848917,1000.9484,0,0
23.16,-7.9810534,4.963147,-2.580731,1000.9585,0,0
23.2,-7.947559,5.1109089999999995,-2.5807276000000003,1000.9184,0,0
23.24,-7.9637046,4.9488907,-2.6140337000000002,1000.9309699999999,0,0
23.28,-8.054522500000001,5.0346885000000015,-2.6661122,1000.9206,0,0
23.32,-8.030625,4.939357299999998,-2.6566433999999997,1000.9281599999999,0,0
23.36,-7.987610000000001,4.8535595,-2.5856276,1000.9432400000001,0,0
23.4,-8.102326,4.7439290000000005,-2.5714247,1000.93066,0,0
23.44,-8.102328,4.834493599999999,-3.1442878,1000.9206,0,0
23.48,-8.226605000000001,4.7915944999999995,-2.656644,1000.9356,0,0
23.52,-8.13579,4.7010303,-2.7797389999999997,1000.918,0,0
23.56,-7.97328,4.7820616,-2.604566,1000.9403699999999,0,0
23.6,-8.083217,4.772528,-2.765536,1000.9154699999999,0,0
23.64,-7.9924026,4.86786,-2.8602244999999997,1000.9760000000001,0,0
23.68,-7.8729086,4.772528,-2.793943,1000.94574,0,0
23.72,-8.102342,4.6199985,-2.7986772,1000.9382,0,0
23.76,-7.997188,4.72963,-2.827084,1000.90796,0,0
23.8,-8.059327,4.6390652999999995,-2.6519112999999996,1000.9102,0,0
23.84,-8.097567999999999,4.515135,-2.7229276000000002,1000.9178,0,0
23.88,-8.07845,4.662898,-2.950179,1000.9507,0,0
23.92,-7.954178,4.715330000000002,-2.9217727000000004,1000.9331,0,0
23.96,-8.078453999999999,4.5771,-2.817616,1000.9354,0,0
24.0,-8.121474000000001,4.7439294,-2.8744292000000002,1000.9077,0,0
24.04,-8.040219,4.786828,-2.8176162000000002,1000.92303,0,0
24.08,-8.102358,4.596166,-2.7844757999999996,1000.9231,0,0
24.12,-8.226635,4.5199013,-2.7513351000000004,1000.9354,0,0
24.16,-7.8920517000000014,4.724864,-2.898102,1000.9354,0,0
24.2,-8.054565,4.505602,-2.8933675,1000.9153,0,0
24.24,-8.174461,4.500845,-2.8792012000000002,1000.93286,0,0
24.28,-8.088448,4.6772084000000005,-2.9975631000000003,1000.9178,0,0
24.32,-8.026326,4.734407,-3.0259712000000003,1000.9302,0,0
24.36,-7.935528,4.600944,-2.9218159,1000.9200400000001,0,0
24.4,-7.9642196,4.610478,-2.9028794999999996,1000.9227,0,0
24.44,-8.184113,4.6390777000000005,-2.8365996,1000.91,0,0
24.48,-8.016833,4.7391760000000005,-2.917086,1000.9078,0,0
24.52,-7.753964999999999,4.7105765,-3.025979,1000.92523,0,0
24.56,-8.083789,4.658144999999998,-3.1727474,1000.91534,0,0
24.6,-7.758781,4.7010445999999995,-2.973904,1000.9151,0,0
24.64,-7.978667999999999,4.648613,-2.9739053,1000.9150400000001,0,0
24.68,-7.902208,4.8821745000000005,-2.9123597,1000.8898300000001,0,0
24.72,-8.126877,4.710578400000001,-2.8413455,1000.92255,0,0
24.76,-8.064758,4.8821754,-2.8839567,1000.9326,0,0
24.8,-8.079114,4.920308,-2.9833806000000003,1000.92523,0,0
24.84,-7.9166136,4.9012423,-2.9455066000000003,1000.9053,0,0
24.88,-7.9931083,4.758246,-2.8744922,1000.9405,0,0
24.92,-7.964450999999999,4.8154454000000015,-2.860291,1000.94006,0,0
24.96,-7.91189,4.7963796,-2.8886988,1000.9225,0,0
25.0,-8.112658999999999,4.8345127,-2.883966,1000.9099,0,0
25.04,-7.7780869999999975,5.025175,-2.9975932000000003,1000.92755,0,0
25.08,-7.8402410000000025,4.7105823,-2.850828,1000.92505,0,0
25.12,-7.9884367,4.7630153,-3.0875502,1000.93,0,0
25.16,-7.888075,4.805915,-2.9123787999999995,1000.93256,0,0
25.2,-7.9932523,4.639086,-2.8745053,1000.9301,0,0
25.24,-8.116453,4.500829,-3.0211737000000003,1000.9124,0,0
25.28,-7.920452,4.796355,-2.9974990000000004,1000.9073,0,0
25.32,-8.035141000000001,4.69149,-3.106388,1000.9099,0,0
25.36,-7.9347405,4.572325,-2.9501503,1000.9173,0,0
25.4,-7.9490547000000005,4.6056905,-3.0827112000000003,1000.9323,0,0
25.44,-7.968155,4.639056,-3.0732405,1000.9299,0,0
25.48,-8.02549,4.538957599999999,-3.134786,1000.9350599999999,0,0
25.52,-8.111495,4.434093,-3.134783,1000.9175,0,0
25.56,-7.8915973,4.6533537,-3.0684988,1000.9098,0,0
25.6,-8.125785,4.5866218,-3.172654,1000.9124,0,0
25.64,-7.905889,4.6342870000000005,-3.2768083,1000.9174,0,0
25.68,-7.929760499999999,4.4197907,-3.0164134999999996,1000.9124,0,0
25.72,-7.924958,4.3339925,-3.059021,1000.89716,0,0
25.76,-8.020535,4.5055879999999995,-3.1631763,1000.9174,0,0
25.8,-8.020502,4.5437193,-3.2815335,1000.91724,0,0
25.84,-8.015699,4.591384400000001,-3.2389216,1000.9174,0,0
25.88,-7.9678764000000015,4.45792,-3.0684807000000003,1000.9071,0,0
25.92,-8.063447,4.5103517,-3.2341824,1000.9248699999999,0,0
25.96,-7.8817906,4.519883999999999,-3.1205547,1000.9373,0,0
26.0,-8.087295,4.386420200000001,-3.196303,1000.91986,0,0
26.04,-8.082491000000001,4.305388,-3.1016122999999998,1000.9424,0,0
26.08,-7.948638000000001,4.338753,-3.2815182000000003,1000.9099,0,0
26.12,-8.302318,4.3864183,-3.0826707000000004,1000.93,0,0
26.16,-7.8099675,4.7486760000000015,-3.2057624,1000.9348,0,0
26.2,-8.001135000000001,4.8535395,-3.1773536,1000.93225,0,0
26.24,-7.791442999999999,4.8535547,-3.2673642999999997,1000.9172,0,0
26.28,-7.8870387000000015,4.653359,-3.1821446,1000.92206,0,0
26.32,-7.9921947,4.6247597,-3.3099737,1000.93207,0,0
26.36,-8.054332,4.3387666,-3.1774104,1000.9247,0,0
26.4,-8.039992,4.386432,-3.1584727999999997,1000.9321,0,0
26.44,-7.7293053,4.6438265,-3.1774104,1000.9674,0,0
26.48,-7.8392406,4.8773870000000015,-3.1679416000000002,1000.9195,0,0
26.52,-7.973076,4.8297224000000005,-3.1821446,1000.9018599999999,0,0
26.56,-7.9204974,4.77729,-3.011706,1000.9018599999999,0,0
26.6,-7.8726993,4.667659,-3.1442697,1000.88904,0,0
26.64,-8.116469,4.467464,-3.0921912,1000.8943,0,0
26.68,-8.0877905,4.5627947,-3.2342231,1000.9042,0,0
26.72,-8.020873,4.45793,-3.2626297,1000.9042,0,0
26.76,-7.8679204,4.5961604000000005,-3.1774104,1000.9494,0,0
26.8,-7.8440210000000015,4.658126,-3.1442697,1000.9091,0,0
26.84,-7.9109383,4.8249555,-3.2531607000000005,1000.932,0,0
26.88,-7.6910669999999985,4.8630877,-3.1963482000000005,1000.9293,0,0
26.92,-8.10213,4.672425700000002,-3.2342231,1000.9343,0,0
26.96,-8.006534,4.5770940000000016,-3.1395352,1000.92926,0,0
27.0,-8.016094,4.7200913,-3.0685189999999998,1000.93195,0,0
27.04,-7.9921947,4.591394,-3.1916137000000004,1000.93933,0,0
27.08,-7.977855,4.5580287,-3.2626297,1000.91925,0,0
27.12,-7.9682955999999985,4.4340980000000005,-2.9359558,1000.91925,0,0
27.16,-7.86314,4.629526599999998,-2.973831,1000.9167,0,0
27.2,-7.9682955999999985,4.782057,-3.1774104,1000.9315,0,0
27.24,-8.0680275,4.7296085,-3.2436333,1000.952,0,0
27.28,-7.838571000000001,4.662876,-3.1726148,1000.9671,0,0
27.32,-7.824207,4.581844,-3.087393,1000.9495,0,0
27.36,-8.005818,4.553243599999999,-3.1442041,1000.92426,0,0
27.4,-7.871956,4.7582054000000005,-3.186811,1000.9419,0,0
27.44,-7.9675264000000015,4.658107,-3.17734,1000.9114400000001,0,0
27.48,-7.9340425,4.7057720000000005,-3.191541,1000.92426,0,0
27.52,-7.953137,4.7582035000000005,-3.1868043,1000.9089,0,0
27.56,-7.991351,4.729604,-3.2530835,1000.93427,0,0
27.6,-7.8622710000000025,4.8630667,-3.2530813,1000.9092,0,0
27.64,-8.101235,4.629504,-3.087375,1000.8963,0,0
27.68,-8.00562,4.7582010000000015,-3.224671,1000.91925,0,0
27.72,-7.757041,4.7486672,-3.2151994999999998,1000.9417,0,0
27.76,-7.84784,4.7582,-3.2388697,1000.9089,0,0
27.8,-7.895611,4.7963314000000015,-3.2814769999999998,1000.95166,0,0
27.84,-7.7521863,4.7629657,-3.2388644,1000.88354,0,0
27.88,-7.871657400000001,4.629501,-3.186784,1000.9141,0,0
27.92,-7.93855,4.686699,-3.0589526,1000.9366,0,0
27.96,-7.9480867,4.691465,-3.3146086,1000.9443,0,0
28.0,-7.7855487000000005,4.834461,-3.1441677,1000.9163,0,0
28.04,-7.885898599999999,4.6866975,-3.2530563,1000.9267,0,0
28.08,-8.019712,4.677164,-3.2199137,1000.9239,0,0
28.12,-7.8667307,4.6628633000000015,-3.1110198,1000.9036,0,0
28.16,-7.9575224,4.705762,-3.0873458,1000.9162,0,0
28.2,-7.924042,4.7391276,-3.163094,1000.9364,0,0
28.24,-7.938865,4.8011040000000005,-3.1773417,1000.9292,0,0
28.28,-7.9197392,4.5913754,-3.2057476,1000.9364,0,0
28.32,-7.9388547,4.6485744,-3.1773407000000002,1000.9138,0,0
28.36,-7.8432536,4.724839,-3.1868090000000002,1000.9312,0,0
28.4,-7.9053864,4.7153053,-3.167871,1000.9163,0,0
28.44,-7.8480234,4.739138,-3.163136,1000.9237699999999,0,0
28.48,-7.709403,4.896434999999999,-3.2104797,1000.9313,0,0
28.52,-7.8049946,4.7820373,-3.0258372000000002,1000.9287,0,0
28.56,-7.8862457,4.734371,-3.1063218,1000.91864,0,0
28.6,-7.9388204,4.796336,-3.0826495,1000.9137,0,0
28.64,-7.7332826,4.824935400000001,-2.992695,1000.9011,0,0
28.68,-8.010506,4.7772703000000005,-3.054242,1000.92896,0,0
28.72,-7.900566,4.877367,-2.9926944,1000.93646,0,0
28.76,-7.800185000000001,4.958399,-3.030569,1000.9163,0,0
28.8,-7.934015299999999,4.853534,-3.0542407000000003,1000.9112,0,0
28.84,-7.8766527,4.853534,-2.9879583999999997,1000.9415,0,0
28.88,-7.7953915999999985,4.9774647000000005,-2.8885355,1000.9413,0,0
28.92,-7.8527429999999985,4.905966,-2.888535,1000.93604,0,0
28.96,-7.8383985,5.063263,-2.973754,1000.9363,0,0
29.0,-7.8575144,4.9440985,-3.0021603,1000.9437,0,0
29.04,-7.761912,5.082329,-2.8885336,1000.9362,0,0
29.08,-7.871842,4.958398000000001,-2.8980021000000002,1000.89075,0,0
29.12,-7.8288193,4.9631643,-2.8837984,1000.92365,0,0
29.16,-7.905289999999999,5.006063,-2.874329,1000.9189,0,0
29.2,-7.785791400000001,5.0251293,-2.8033125,1000.8832,0,0
29.24,-7.8530855,5.068038,-2.8743632000000003,1000.9259599999999,0,0
29.28,-7.967814,5.0823374,-2.8648956,1000.9134,0,0
29.32,-7.824428599999999,4.9250417,-2.8838341,1000.9412,0,0
29.36,-7.8101,4.9250417,-2.7938817000000005,1000.93854,0,0
29.4,-7.82923,4.9393415,-3.0684779,1000.94104,0,0
29.44,-7.9630737000000025,4.805878599999999,-2.8838369999999998,1000.92346,0,0
29.48,-7.743214,5.1252375,-2.7938842999999998,1000.9437,0,0
29.52,-7.810138,4.9631753,-2.7891507,1000.9133,0,0
29.56,-7.8388285999999985,5.1014050000000015,-2.9406524,1000.94855,0,0
29.6,-7.896197,5.029907700000001,-2.9217157000000005,1000.9664,0,0
29.64,-7.886647,5.039441,-2.8933103,1000.9409,0,0
29.68,-7.7145844,5.0966396,-3.0258743999999997,1000.9712,0,0
29.72,-7.8388686000000005,4.987009,-2.8980467,1000.9815,0,0
29.76,-7.776739599999999,4.9012117,-2.8554378,1000.92084,0,0
29.8,-7.838886299999999,4.9870095,-2.96433,1000.9384,0,0
29.84,-7.8675766000000005,4.9917765,-2.9832685000000003,1000.9334,0,0
29.88,-7.7863326,4.996543,-2.9738007,1000.9257,0,0
29.92,-7.8436960000000004,5.0203760000000015,-3.0448172000000002,1000.91077,0,0
29.96,-7.7815685,4.9870105,-2.9501302000000003,1000.93085,0,0
30.0,-7.8676186,4.977478,-2.9832723,1000.9484,0,0
30.04,-7.791150599999999,5.001311,-2.8743818,1000.9359,0,0
30.08,-7.795939999999999,4.967944999999999,-2.9548674,1000.93835,0,0
30.12,-7.748153,4.944113,-2.90279,1000.9204,0,0
30.16,-7.7768393,4.9202805,-3.0164165,1000.9334,0,0
30.2,-7.9202433,4.9917784,-2.8459787,1000.9132699999999,0,0
30.24,-7.9142227,4.982215,-2.9594907999999998,1000.93835,0,0
30.28,-7.9046216000000005,5.177643,-3.0115654,1000.9558,0,0
30.32,-7.789879300000001,5.082310700000002,-3.2151427000000004,1000.97327,0,0
30.36,-7.7802777,4.734351,-3.1109817000000004,1000.9557,0,0
30.4,-7.7276630000000015,4.7629504,-3.0304935,1000.9382300000001,0,0
30.44,-7.675041,4.953611,-3.1725216,1000.9181,0,0
30.48,-7.784942599999999,4.9154773,-3.3524260000000004,1000.9331699999999,0,0
30.52,-7.7944627,4.891644,-3.2482655,1000.9405,0,0
30.56,-7.7227187000000015,4.8678102,-3.2435267000000003,1000.93066,0,0
30.6,-7.823052400000001,5.006039,-3.243523,1000.95355,0,0
30.64,-7.674849000000001,5.029871,-3.3524114999999997,1000.95557,0,0
30.68,-7.770409,4.872574,-3.4565650999999997,1000.9634,0,0
30.72,-7.6843330000000005,4.7438765,-3.4423583,1000.9812,0,0
30.76,-7.703413,4.743875,-3.4281513999999995,1000.9078400000001,0,0
30.8,-7.8706635999999985,4.753407,-3.4612885,1000.8977,0,0
30.84,-7.6985564,4.877337000000002,-3.4423477999999994,1000.9506,0,0
30.88,-7.76065,4.753405,-3.3571243,1000.9657599999999,0,0
30.92,-7.621991,4.8010697,-3.352386,1000.95557,0,0
30.96,-7.6554210000000005,4.7438703,-3.3097733999999996,1000.96826,0,0
31.0,-7.851364999999999,4.7677026,-3.3476462,1000.9305400000001,0,0
31.04,-7.770060000000001,4.94883,-3.3523762,1000.93036,0,0
31.08,-7.7700179999999985,4.863030999999999,-3.3618410000000005,1000.9255400000001,0,0
31.12,-7.7651935,4.8773300000000015,-3.3760402000000003,1000.93036,0,0
31.16,-7.8225217,4.9821935,-3.3334281000000003,1000.9279,0,0
31.2,-7.698208,5.0870565999999995,-3.243471,1000.9150400000001,0,0
31.24,-7.808584700000001,4.824907,-3.4802312999999994,1000.9178,0,0
31.28,-7.789439,4.886871299999999,-3.3950095,1000.9276,0,0
31.32,-7.755967,4.877338,-3.3855394999999997,1000.9554,0,0
31.36,-7.7511663,4.8392050000000015,-3.2908494,1000.9406,0,0
31.4,-7.7272490000000005,4.824905,-3.2529727999999998,1000.9100300000001,0,0
31.44,-7.6411915,4.948835,-3.1393452,1000.9279,0,0
31.48,-7.813239,4.877336,-3.2529682999999996,1000.905,0,0
31.52,-7.832341,5.0775312999999995,-3.1961539,1000.9456,0,0
31.56,-7.784525,4.986966000000002,-3.219824,1000.9075,0,0
31.6,-7.7653875,4.891634,-3.0067744,1000.9151,0,0
31.64,-7.7797065000000005,4.886867,-3.1061952,1000.95776,0,0
31.68,-7.8657246,4.877333599999999,-3.3097727,1000.9856,0,0
31.72,-7.717528,5.0536959999999995,-3.0872537999999996,1000.9479,0,0
31.76,-7.7222880000000025,4.972664,-3.1487992,1000.95276,0,0
31.8,-7.7605065999999985,4.9821963,-3.191407,1000.9149,0,0
31.84,-7.707914,5.006028700000001,-3.0209669999999997,1000.9379,0,0
31.88,-7.755689,4.991729,-3.1677313,1000.9177,0,0
31.92,-7.8703823,4.9011636,-3.0635726,1000.95276,0,0
31.96,-7.7413125,4.991728,-3.1724625,1000.93286,0,0
32.0,-7.6934905,5.00126,-2.93574,1000.9554400000001,0,0
32.04,-7.803402,4.934528,-3.276615,1000.9404,0,0
32.08,-7.7460265,5.039391999999999,-2.9878147,1000.9277,0,0
32.12,-7.6551914000000005,5.153788,-3.0067506,1000.93536,0,0
32.16,-7.7029705,5.1204220000000005,-3.1393123,1000.9074,0,0
32.2,-7.7029552,5.077523,-3.2150613999999997,1000.98065,0,0
32.24,-7.6885853000000015,5.1776195,-3.058823,1000.9425699999999,0,0
32.28,-7.5881915,5.244351,-3.2008536,1000.9223599999999,0,0
32.32,-7.6503130000000015,5.13472,-3.0730232999999996,1000.92505,0,0
32.36,-7.6789684000000005,5.115653,-3.3002727,1000.9502,0,0
32.4,-7.640711299999999,5.0632205,-3.1582386000000002,1000.9451,0,0
32.44,-7.626353,5.139485,-3.087221,1000.9351,0,0
32.48,-7.678908,5.091819,-3.1677036,1000.93756,0,0
32.52,-7.6549869999999975,5.058452,-3.1534984,1000.93005,0,0
32.56,-7.5880504,5.1108839999999995,-3.1771688,1000.92255,0,0
32.6,-7.678847999999999,5.1204165999999995,-3.1014166000000003,1000.9476300000001,0,0
32.64,-7.7314043,5.1156497000000005,-3.1061492000000004,1000.9149,0,0
32.68,-7.732056599999999,5.191930999999999,-3.0825367000000004,1000.9223,0,0
32.72,-7.6890364,5.1251984,-3.1677556,1000.9476300000001,0,0
32.76,-7.669915,5.0632334000000006,-3.0115203999999998,1000.9576400000001,0,0
32.8,-7.6746925999999975,5.1776304,-2.9925822999999996,1000.9225,0,0
32.84,-7.564756,5.082299,-3.1014736000000003,1000.9526400000001,0,0
32.88,-7.717708,5.0537,-2.9120972000000003,1000.9321,0,0
32.92,-7.684247,5.1633309999999994,-2.9594412,1000.94745,0,0
32.96,-7.7511625,5.172864,-2.8458153999999998,1000.9576400000001,0,0
33.0,-7.8515368,5.029866999999999,-2.7984709999999997,1000.9502,0,0
33.04,-7.851535,5.2681949999999995,-2.8126740000000003,1000.9751,0,0
33.08,-7.746377499999999,5.0727660000000006,-2.7984707,1000.92755,0,0
33.12,-7.8276330000000005,4.991735,-2.9594405,1000.9349,0,0
33.16,-7.7368155,5.2252955000000005,-2.760595,1000.89716,0,0
33.2,-7.6794558,5.33016,-2.7511262999999997,1000.9451,0,0
33.24,-7.808508,5.206229,-2.8410797000000003,1000.9602699999999,0,0
33.28,-7.779828,5.1728635,-2.8600173,1000.9422599999999,0,0
33.32,-7.6651110000000005,5.206229,-2.9026264999999998,1000.9324,0,0
33.36,-7.9136586,5.1871634,-2.9168296000000002,1000.9574,0,0
33.4,-7.6029696,5.430258,-2.7984695,1000.9422599999999,0,0
33.44,-7.7463630000000006,5.425491,-2.9073606,1000.9448,0,0
33.48,-7.602967299999999,5.4683905,-2.926298,1000.9526,0,0
33.52,-7.865854700000001,5.063233,-3.0825334,1000.9473,0,0
33.56,-7.5503855,5.206229,-2.8884225,1000.9371,0,0
33.6,-7.7989335,5.0012674000000015,-2.9357662,1000.955,0,0
33.64,-7.889748599999999,4.9202356,-3.002048,1000.9624,0,0
33.68,-7.6174054,5.0489354,-3.006792,1000.9423,0,0
33.72,-7.894636599999999,4.8439736,-3.0020580000000003,1000.9423,0,0
33.76,-7.7560244,4.9107056,-2.8079476000000003,1000.94214,0,0
33.8,-7.8564024,5.0394025000000005,-2.9973240000000003,1000.9547,0,0
33.84,-7.846845,5.0870676,-3.2861226,1000.9649699999999,0,0
33.88,-7.5696187,5.1585665,-3.2529821,1000.9648,0,0
33.92,-7.8133917,4.896406,-3.2435138,1000.9245599999999,0,0
33.96,-7.7369175000000014,4.958371,-3.0351999,1000.9449,0,0
34.0,-7.636545,5.1490335,-3.125154,1000.9497,0,0
34.04,-7.6795645000000015,4.905939,-3.2624521,1000.9218,0,0
34.08,-7.8277410000000005,4.86304,-3.1109512,1000.9094,0,0
34.12,-7.6174326,4.996504,-3.16303,1000.93207,0,0
34.16,-7.808627,4.9631386,-3.16303,1000.9346300000001,0,0
34.2,-7.6700152999999975,5.0203370000000005,-3.125155,1000.94464,0,0
34.24,-7.6031,5.101368,-3.181968,1000.9647,0,0
34.28,-7.6126633,4.9297724,-3.1630309,1000.9395,0,0
34.32,-7.770398599999999,4.8773403,-3.1630309,1000.93445,0,0
34.36,-7.7226029999999986,4.858274,-3.0209992000000003,1000.9547,0,0
34.4,-7.9233575,4.8964067,-3.0352025,1000.93207,0,0
34.44,-7.679589999999999,5.0251036,-3.2908604,1000.9721699999999,0,0
34.48,-7.5648775,5.115668299999999,-3.3524082,1000.95984,0,0
34.52,-7.7895303,4.9345393,-3.2151107999999997,1000.9621,0,0
34.56,-7.7321754,4.939306299999998,-2.9925938,1000.9547,0,0
34.6,-7.7034984,5.106136,-3.1298916,1000.9722,0,0
34.64,-7.813436500000001,4.929773,-3.3240025,1000.9724,0,0
34.68,-7.7792210000000015,4.9535870000000015,-3.1014163,1000.95984,0,0
34.72,-7.712269,4.848722,-3.0493345,1000.9521,0,0
34.76,-7.769599,4.796289,-3.2339737,1000.95984,0,0
34.8,-7.769578,4.9345193,-3.1440182,1000.9521,0,0
34.84,-7.7074110000000005,5.044149,-3.1771564,1000.9671,0,0
34.88,-7.7408449999999975,4.9917164000000005,-3.1440134,1000.95465,0,0
34.92,-7.917667999999999,5.134712,-3.3854654,1000.9446,0,0
34.96,-7.874631,5.3158407,-3.1487432,1000.9621599999999,0,0
35.0,-7.678622200000001,4.6294556,-2.9925043999999996,1000.9343,0,0
35.04,-7.688157,4.734319,-3.0019712000000003,1000.9418300000001,0,0
35.08,-7.8124002999999975,4.629454,-3.129797,1000.93445,0,0
35.12,-7.8553996,4.915447,-2.997232,1000.9194,0,0
35.16,-7.898384599999999,4.958345400000002,-3.0066977,1000.92426,0,0
35.2,-7.769303999999999,5.067975499999998,-2.9498827000000003,1000.9393,0,0
35.24,-7.6832356,5.0250764000000006,-2.8646602999999997,1000.9419,0,0
35.28,-7.845725,5.11564,-2.9735494,1000.9494,0,0
35.32,-7.826583,4.953576,-2.8977969,1000.9646,0,0
35.36,-7.8313317,5.001241,-2.7273555,1000.9645,0,0
35.4,-8.008147,5.096571400000001,-2.8883218999999998,1000.929,0,0
35.44,-7.9316535,5.0489054000000015,-2.8315072,1000.9442,0,0
35.48,-7.974639999999999,5.072737,-2.7841606,1000.9367,0,0
35.52,-7.845559599999999,4.948807,-2.8504397999999997,1000.9544,0,0
35.56,-7.8072925,4.9869385,-3.035079,1000.9467,0,0
35.6,-7.778592999999999,4.848707,-3.044546,1000.9568,0,0
35.64,-7.7164245,4.8963722999999995,-2.8504324,1000.967,0,0
35.68,-7.679583,4.8773403,-2.973655,1000.9595,0,0
35.72,-7.889923599999999,4.991739,-2.8979072999999995,1000.9441,0,0
35.76,-7.832599,5.2729664000000005,-2.9121134,1000.9543,0,0
35.8,-7.8230714999999975,5.087071,-2.8695066000000002,1000.95435,0,0
35.84,-7.894784,4.9250083,-2.8316326000000003,1000.939,0,0
35.88,-7.789672,4.977442,-2.8505743,1000.9237,0,0
35.92,-7.808818,4.944076,-2.841108,1000.93646,0,0
35.96,-7.9522343,4.9583764000000015,-2.817438,1000.9593,0,0
36.0,-7.780194,4.9917435999999995,-2.7890346,1000.924,0,0
36.04,-7.847139,5.0870748,-2.751162,1000.9167,0,0
36.08,-7.995342,4.829682,-2.8411182999999998,1000.94385,0,0
36.12,-8.004933,5.0584774,-2.7511678,1000.9313,0,0
36.16,-7.9380479999999976,5.029878599999999,-2.8221865000000004,1000.93396,0,0
36.2,-7.866371000000001,5.0394125,-2.8127193,1000.9315,0,0
36.24,-7.8520565000000015,4.8106184,-2.8079875,1000.9518,0,0
36.28,-7.8425354999999985,4.9917489999999995,-2.7606467999999995,1000.9342,0,0
36.32,-7.832998299999999,4.96315,-2.6943672000000003,1000.9237,0,0
36.36,-7.8043394,4.99175,-2.8553386,1000.9493,0,0
36.4,-7.9525447,4.8630533,-2.8269355,1000.9543,0,0
36.44,-7.7183740000000025,5.215779,-2.746454,1000.92645,0,0
36.48,-7.9143690000000015,4.9869857,-2.8174722,1000.9541,0,0
36.52,-7.900057,5.1538153,-2.8790221000000003,1000.9188,0,0
36.56,-7.7805839999999975,5.0108194,-2.8174765,1000.9393,0,0
36.6,-7.6945825,5.020353,-2.6612446,1000.95685,0,0
36.64,-7.962282000000001,4.9536223,-2.8458892999999996,1000.9518,0,0
36.68,-7.836513,5.0870489999999995,-2.7747366,1000.94885,0,0
36.72,-7.817359,5.1156473,-2.8457494,1000.9465,0,0
36.76,-7.8651257,5.00125,-2.7084484,1000.93396,0,0
36.8,-7.802962299999999,5.134712,-2.6847744,1000.9388,0,0
36.84,-7.888961,5.149011,-2.8362717999999996,1000.9565,0,0
36.88,-8.2187395,4.991714,-2.7510498,1000.9161,0,0
36.92,-7.941481,5.101344,-2.6989686,1000.95905,0,0
36.96,-7.587744,5.25864,-2.8362634,1000.9819,0,0
37.0,-7.7263284,5.0298443,-2.7557762,1000.9766,0,0
37.04,-7.7358503,4.8916129999999995,-2.7415689999999997,1000.9692,0,0
37.08,-7.7979584000000015,5.058441999999999,-2.8551922000000003,1000.96405,0,0
37.12,-7.8074894,5.0155425000000005,-2.7889082000000003,1000.9312,0,0
37.16,-7.6831856,5.125172,-2.7699678,1000.949,0,0
37.2,-7.7930894,5.2109694000000015,-2.7889025000000003,1000.939,0,0
37.24,-7.845636,5.1394706,-2.7652276000000002,1000.9463,0,0
37.28,-7.812147,5.177601999999999,-2.7652247,1000.9111,0,0
37.32,-7.759537700000001,5.077504,-2.5995178,1000.92615,0,0
37.36,-7.917239,5.1299353,-2.708406,1000.9664300000001,0,0
37.4,-7.802502599999999,5.0679693,-2.7746859,1000.9463,0,0
37.44,-7.869378,5.158533,-2.5474308,1000.9362,0,0
37.48,-7.8550067,5.063201,-2.6847252999999998,1000.9486699999999,0,0
37.52,-7.8932100000000025,5.225263,-2.6326437,1000.9462,0,0
37.56,-7.7928042,5.187130000000002,-2.6468441,1000.92865,0,0
37.6,-7.907489999999999,5.172829599999999,-2.5284812000000003,1000.91595,0,0
37.64,-7.9839350000000024,5.044131299999999,-2.5426817,1000.9186,0,0
37.68,-7.8795447,4.9917183,-2.5285485,1000.93353,0,0
37.72,-7.936902000000001,5.029851,-2.6327055,1000.9134,0,0
37.76,-7.9655809999999985,5.0203176,-2.5900955000000003,1000.92346,0,0
37.8,-7.8269663000000005,5.1108823,-2.5995646,1000.9613,0,0
37.84,-7.9799204,4.958352,-2.5332828,1000.9259599999999,0,0
37.88,-8.018158,5.048916999999999,-2.571158,1000.9638,0,0
37.92,-7.970360799999999,5.0870489999999995,-2.5853612,1000.9588,0,0
37.96,-7.970360799999999,4.963119,-2.59483,1000.98145,0,0
38.0,-8.108974,4.867788,-2.5853612,1000.91846,0,0
38.04,-7.932121799999999,4.982184999999999,-2.6942525,1000.93353,0,0
38.08,-7.7552695000000025,5.015551,-2.5143452,1000.9486699999999,0,0
38.12,-8.042058,4.8725543,-2.6137676,1000.9286,0,0
38.16,-7.846086,5.0584497000000015,-2.7321277000000004,1000.95874,0,0
38.2,-7.970360799999999,4.9964848,-2.6374395,1000.9739400000001,0,0
38.24,-7.922562599999999,4.963119,-2.6753150000000003,1000.93585,0,0
38.28,-7.951241499999999,4.948819,-2.7179246,1000.9286,0,0
38.32,-7.9608006,5.048916999999999,-2.7084556,1000.92834,0,0
38.36,-8.027719,4.9726524,-2.8552222,1000.93585,0,0
38.4,-7.908223,4.9154534000000005,-2.6563773,1000.9233,0,0
38.44,-7.970360799999999,4.9440527,-2.7368622000000005,1000.95874,0,0
38.48,-7.8795447,5.015551,-2.6469085,1000.9384,0,0
38.52,-7.908223,4.89162,-2.8173470000000003,1000.9736300000001,0,0
38.56,-8.018158,4.929753,-2.722659,1000.93585,0,0
38.6,-7.922562599999999,4.9917183,-2.8031437,1000.9433,0,0
38.64,-7.9130024999999975,5.0250845,-2.722659,1000.9334,0,0
38.68,-7.898283,4.929744,-2.7557652000000004,1000.9433,0,0
38.72,-7.860024,5.029841,-2.8267794,1000.9611,0,0
38.76,-7.888691400000001,4.910677,-2.8173093999999996,1000.9405,0,0
38.8,-7.917352,4.944042,-2.727354,1000.9484,0,0
38.84,-7.754823700000001,4.982174,-2.7084148,1000.9585599999999,0,0
38.88,-7.7500334,5.158537,-2.8267743999999997,1000.946,0,0
38.92,-7.9220877000000005,4.972641,-2.8315067000000003,1000.9254,0,0
38.96,-7.7977962,5.0584383,-2.5947852000000005,1000.9334,0,0
39.0,-7.8838240000000015,5.2300334,-2.5474403,1000.92334,0,0
39.04,-7.706954,5.182368,-2.812565,1000.9913,0,0
39.08,-8.1658,4.762910400000001,-2.949862,1000.9657599999999,0,0
39.12,-7.754721000000001,5.3015313,-2.7841560000000003,1000.956,0,0
39.16,-7.711685000000001,5.1347013,-2.893046,1000.9382300000001,0,0
39.2,-7.7738085,4.991704,-2.5569017000000005,1000.9229,0,0
39.24,-7.9363100000000015,5.168067,-2.6184477999999998,1000.9334,0,0
39.28,-7.8072395000000006,5.2681637000000014,-2.6610560000000003,1000.9131,0,0
39.32,-7.606470599999999,5.3730273,-3.177105,1000.92566,0,0
39.36,-7.6064544000000005,5.3730269999999996,-3.2007751,1000.9506,0,0
39.4,-7.420027,5.2443295,-3.5037758,1000.9229,0,0
39.44,-7.2097006,5.1108655999999995,-3.2528509999999997,1000.8955,0,0
39.48,-7.3769839999999975,5.1632977,-3.3286006,1000.9685699999999,0,0
39.52,-7.161874000000001,5.8639812000000004,-3.1013474,1000.9607,0,0
39.56,-7.0806046,5.844914,-3.0303302000000003,1000.9659,0,0
39.6,-7.5251083,5.5636873,-2.9829845,1000.94073,0,0
39.64,-7.329125,5.6208854000000015,-3.1392187999999996,1000.97327,0,0
39.68,-7.4679470000000014,5.611358,-2.8930488,1000.9583,0,0
39.72,-7.4344839999999985,5.4635940000000005,-2.8504386000000004,1000.9254,0,0
39.76,-7.549191499999999,5.582758,-2.907251,1000.9329,0,0
39.8,-7.678239,5.353962999999999,-2.6799986000000002,1000.92786,0,0
39.84,-7.6113149999999985,5.630423,-2.7415453999999997,1000.9431,0,0
39.88,-7.5204935,5.468360400000001,-2.9167178,1000.9657,0,0
39.92,-7.745137,5.3110642,-2.7936227000000002,1000.9379,0,0
39.96,-7.4487830000000015,5.6542554,-2.9498575000000002,1000.9231,0,0
40.0,-7.4153204,5.6304225999999975,-3.00667,1000.9179,0,0
40.04,-7.1476429999999995,5.6685550000000005,-3.0587478,1000.9329,0,0
40.08,-7.8980679999999985,5.4397597,-2.9687936,1000.92035,0,0
40.12,-7.2623453,5.697154,-2.5521653,1000.96326,0,0
40.16,-7.3770547,5.5303245,-2.6326494,1000.9632,0,0
40.2,-7.812011,4.958337,-2.6705243999999997,1000.9657599999999,0,0
40.24,-8.003198,5.072734400000001,-2.7699463,1000.9530599999999,0,0
40.28,-7.5921288,5.1299334000000005,-2.7794144,1000.9329,0,0
40.32,-7.9792852,5.0584345,-2.6941946,1000.92786,0,0
40.36,-8.046199,5.063201,-2.7557416,1000.938,0,0
40.4,-7.515633999999999,5.449292,-2.7746787,1000.943,0,0
40.44,-7.8788905,4.9440365,-2.7415366000000003,1000.91534,0,0
40.48,-8.089196000000001,5.1918974,-2.6657857999999997,1000.9028,0,0
40.52,-7.3292003,5.5350895,-2.9735215,1000.9356,0,0
40.56,-7.768936,5.0775,-2.8504264,1000.9507,0,0
40.6,-7.9171057000000005,5.0679665,-3.1486932999999997,1000.9331,0,0
40.64,-7.549053,5.0393669999999995,-2.7699406000000004,1000.88745,0,0
40.68,-7.816908,5.115637,-3.0066776,1000.9305400000001,0,0
40.72,-7.4536448,5.0155387000000005,-2.694207,1000.93286,0,0
40.76,-7.8599289999999975,4.8534760000000015,-2.8173017999999996,1000.9279,0,0
40.8,-7.807351,5.0918035999999995,-3.0776939999999997,1000.938,0,0
40.84,-7.6496205,5.382564,-2.8599117,1000.9403699999999,0,0
40.88,-7.8503729999999985,5.206200599999999,-2.888318,1000.93787,0,0
40.92,-7.7213197000000005,5.2919993,-2.9545999,1000.9403699999999,0,0
40.96,-7.778678,5.0584383,-3.020882,1000.9353,0,0
41.0,-7.778678999999999,5.106104,-2.8125677000000002,1000.9353,0,0
41.04,-7.6305070000000015,5.253867,-2.8267715,1000.9554,0,0
41.08,-7.444096000000001,5.296766000000001,-2.822037,1000.9303,0,0
41.12,-7.6113906,5.2443337,-2.8125682,1000.9454,0,0
41.16,-7.4727770000000024,5.2681665,-2.6989427000000004,1000.9403699999999,0,0
41.2,-7.7165484,5.320598599999999,-2.8220375,1000.9376,0,0
41.24,-7.8695035,5.3539650000000005,-2.769959,1000.9681,0,0
41.28,-7.759569,5.4683623,-2.7178807000000003,1000.9555,0,0
41.32,-7.7308910000000015,5.4159303,-2.7604902,1000.92505,0,0
41.36,-7.7356729999999985,5.2872334,-2.7084122,1000.9477,0,0
41.4,-7.8025913000000005,5.196669,-2.7462873,1000.9552,0,0
41.44,-7.649639,5.234801,-2.7368188,1000.9049,0,0
41.48,-7.7595754,4.9869404,-2.7604907,1000.9098,0,0
41.52,-7.902971000000001,5.129937,-2.7652254000000003,1000.92755,0,0
41.56,-7.740458500000001,5.139469999999998,-2.807835,1000.93256,0,0
41.6,-7.769139,5.072737999999998,-2.7036786,1000.9225,0,0
41.64,-7.7356815,5.220502,-2.7746947,1000.93256,0,0
41.68,-7.7974997,5.2014275,-2.7557278,1000.9526400000001,0,0
41.72,-7.811826700000001,5.0393643,-2.7273202000000003,1000.9326,0,0
41.76,-7.807040700000001,5.101329,-2.779398,1000.92755,0,0
41.8,-7.821366999999999,5.3444233,-2.7604592,1000.9248,0,0
41.84,-7.773555,5.077496,-2.7793952999999996,1000.9451,0,0
41.88,-7.830902,5.0774956,-2.7983322,1000.9476300000001,0,0
41.92,-7.6779375,5.2395580000000015,-2.8078,1000.93005,0,0
41.96,-7.7448454,5.191892,-2.8172681,1000.92,0,0
42.0,-7.9312444000000015,5.044129,-2.8740797000000002,1000.91724,0,0
42.04,-7.7161417000000005,5.311056,-2.9877043,1000.9248,0,0
42.08,-7.582299000000001,5.496951599999999,-2.9403596000000003,1000.8996,0,0
42.12,-7.677881,5.287223,-2.7557166,1000.9198,0,0
42.16,-7.9216394,5.0441275,-2.798325,1000.9374,0,0
42.2,-7.5296865,5.2729225,-2.7746522000000002,1000.9072,0,0
42.24,-7.7399845,5.168058,-2.7793853,1000.9299,0,0
42.28,-7.701739,5.3158207000000015,-2.8267287999999997,1000.9273,0,0
42.32,-7.55355,5.382552,-2.8125240000000002,1000.9042,0,0
42.36,-7.682595299999999,5.4635834999999995,-2.9450867,1000.9374,0,0
42.4,-7.4340350000000015,5.4588165,-2.7651784,1000.8945,0,0
42.44,-7.773387,5.382551,-2.8456619,1000.94244,0,0
42.48,-7.4961467000000015,5.501715,-2.7130976,1000.91974,0,0
42.52,-7.5391536,5.3777843,-2.812519,1000.96,0,0
42.56,-7.7351145999999975,5.1632886,-2.755705,1000.9223,0,0
42.6,-7.644286599999999,5.3587174000000015,-2.893002,1000.9474,0,0
42.64,-7.5247845999999985,5.4349823,-2.807782,1000.9299,0,0
42.68,-7.6831770000000015,5.196671,-2.8315141,1000.92224,0,0
42.72,-7.544578,5.196671,-2.8267813,1000.9449,0,0
42.76,-7.7023259999999985,5.454065,-2.916736,1000.9273,0,0
42.8,-7.525489,5.625662,-2.8220495999999997,1000.91425,0,0
42.84,-7.6880169999999985,5.415934,-2.7463002,1000.8941,0,0
42.88,-7.73105,5.2062054,-2.8409897999999996,1000.8893,0,0
42.92,-7.649808,5.2538714,-2.7889128,1000.9549,0,0
42.96,-7.625922,5.396868,-2.8693988,1000.92975,0,0
43.0,-7.7263103000000015,5.373036,-2.8220560000000003,1000.9172,0,0
43.04,-7.616395,5.377803,-2.7179008,1000.9042,0,0
43.08,-7.6116314,5.334904,-2.7983873,1000.92224,0,0
43.12,-7.745479,5.1490088,-2.8220606,1000.9348,0,0
43.16,-7.659457700000001,5.325372,-2.8599372000000005,1000.9247,0,0
43.2,-7.664249000000001,5.4159370000000004,-2.7841876,1000.9096699999999,0,0
43.24,-7.759863,5.215742,-2.864674,1000.88904,0,0
43.28,-7.654721,5.4397699999999976,-2.5900798,1000.9119,0,0
43.32,-7.6642975999999985,5.296774,-2.8220673,1000.9423,0,0
43.36,-7.72167,5.253875700000001,-2.7983966000000002,1000.9197,0,0
43.4,-7.7933816999999985,5.2348094000000005,-2.7699914,1000.9169300000001,0,0
43.44,-7.6213235999999975,5.3206077,-2.7463207,1000.8992,0,0
43.48,-7.879449,5.1347127,-2.7368536,1000.922,0,0
43.52,-7.7265070000000025,5.210978,-2.7841988,1000.9071,0,0
43.56,-7.6452656,5.206211,-2.7179184,1000.9092,0,0
43.6,-7.7838984,5.139480000000002,-2.6279664,1000.9068599999999,0,0
43.64,-7.760012599999999,5.206212,-2.8410158,1000.9293,0,0
43.68,-7.715856599999999,5.1442194,-2.807771,1000.92224,0,0
43.72,-7.734942999999999,5.2586164,-2.6610014,1000.922,0,0
43.76,-7.816173599999999,5.139451,-2.7462182,1000.9343,0,0
43.8,-7.7587852,5.210948999999999,-2.6751993,1000.9248,0,0
43.84,-7.8400089999999985,5.0917845,-2.8172286,1000.9269400000001,0,0
43.88,-7.6965866,5.2204804000000005,-2.6609905,1000.9169,0,0
43.92,-7.7586994,5.22048,-2.6136444,1000.8941699999999,0,0
43.96,-7.921178999999999,5.196646,-2.8030174,1000.92175,0,0
44.0,-7.7825320000000024,5.2681437,-2.7130606,1000.91425,0,0
44.04,-7.691687,5.2681427,-2.6988547,1000.9269400000001,0,0
44.08,-7.830278999999999,5.0870132,-2.6231022,1000.9068599999999,0,0
44.12,-7.8541393,5.091779,-2.6941147,1000.922,0,0
44.16,-7.8923497000000005,5.1251440000000015,-2.6751745,1000.9599,0,0
44.2,-7.8349705,5.2586080000000015,-2.5899534,1000.91675,0,0
44.24,-7.7823606,5.1251430000000004,-2.5994194,1000.9295,0,0
44.28,-7.911382700000001,5.048877,-2.6609635,1000.922,0,0
44.32,-7.825310000000001,5.1918726,-2.8171953999999997,1000.937,0,0
44.36,-7.7727020000000016,5.15374,-2.7177702999999998,1000.92444,0,0
44.4,-7.8778353,4.977377,-2.6136112000000002,1000.9293,0,0
44.44,-7.7630835000000005,5.177571299999999,-2.7367024,1000.93207,0,0
44.48,-7.906451,5.0536404,-2.7177625,1000.9067,0,0
44.52,-7.7678046,5.1489706,-2.7509002999999996,1000.9169300000001,0,0
44.56,-7.801233,5.0965376,-2.7414286,1000.9243,0,0
44.6,-7.8776813,5.067938,-2.7887702,1000.9218,0,0
44.64,-7.777278,5.0822363,-2.8077054,1000.90674,0,0
44.68,-7.783175,5.134696,-2.7936044,1000.95215,0,0
44.72,-7.8740106,4.9392676,-2.7746687000000003,1000.9118699999999,0,0
44.76,-7.969621000000001,5.0822650000000005,-2.8551547999999998,1000.88666,0,0
44.8,-7.615930599999999,5.091798000000002,-2.727327,1000.90436,0,0
44.84,-7.7736793,4.9440349999999995,-2.661047,1000.91437,0,0
44.88,-7.85495,5.0203004,-2.7462673,1000.9269400000001,0,0
44.92,-7.8310666,5.087033,-2.8456914,1000.932,0,0
44.96,-7.9410149999999975,5.0727334000000015,-2.769942,1000.90674,0,0
45.0,-7.7832979999999985,5.1060996,-2.7131307000000002,1000.91174,0,0
45.04,-7.816772,5.015535400000001,-2.8030858,1000.91437,0,0
45.08,-7.7642039999999986,5.015536,-2.7083986,1000.9243,0,0
45.12,-7.960192,5.020303,-2.7983537,1000.92444,0,0
45.16,-7.7737979999999975,5.053669,-2.7888867999999998,1000.9419,0,0
45.2,-7.840727,5.149,-2.6941996,1000.8939999999999,0,0
45.24,-7.7738276,5.210966,-2.8314988999999997,1000.9545,0,0
45.28,-7.6878076,5.1251682999999995,-2.6231868,1000.962,0,0
45.32,-7.778637,4.915440599999998,-2.8267674,1000.92944,0,0
45.36,-7.8981442,5.034604,-2.7557526,1000.9269400000001,0,0
45.4,-7.7165275,5.0918035999999995,-2.698941,1000.9218,0,0
45.44,-7.965095,5.048905,-2.6184576,1000.89404,0,0
45.48,-7.831277,5.292000000000002,-2.803101,1000.91437,0,0
45.52,-7.692672,5.4016304,-2.746289,1000.9116,0,0
45.56,-7.941240299999999,5.0870385,-2.7841659,1000.90674,0,0
45.6,-7.855216499999999,5.0441400000000005,-2.6563382,1000.91174,0,0
45.64,-7.773973,5.153771,-2.6516051,1000.90674,0,0
45.68,-7.8638167,5.010751,-2.7130632,1000.89905,0,0
45.72,-7.902031,4.9821506,-2.7746084,1000.93445,0,0
45.76,-7.868548,5.0202823,-2.6467772000000003,1000.9092400000001,0,0
45.8,-7.8780837,5.129913,-2.765135,1000.93427,0,0
45.84,-7.844600999999999,5.096546,-2.7083197,1000.9217,0,0
45.88,-7.844577,5.110844999999999,-2.746193,1000.9191,0,0
45.92,-7.954490700000001,5.0107474000000005,-2.7745976000000003,1000.9292,0,0
45.96,-7.839757400000001,5.1489769999999995,-2.6088917,1000.92676,0,0
46.0,-7.744136,5.067945,-2.7272494,1000.9243,0,0
46.04,-7.9496392999999985,4.982146,-2.6893716,1000.9091,0,0
46.08,-7.9018229999999985,4.9821453,-2.7982612000000002,1000.93427,0,0
46.12,-7.8396550000000005,5.1013082999999995,-2.7840552000000005,1000.9192,0,0
46.16,-7.8491945,4.924946,-2.7887880000000003,1000.9167,0,0
46.2,-7.8443933,4.996443,-2.6940977999999998,1000.9241300000001,0,0
46.24,-7.882602,5.0393419999999995,-2.8597994,1000.9468400000001,0,0
46.28,-7.844340299999999,5.172805,-2.930813,1000.9368,0,0
46.32,-7.9542522,4.910643599999998,-2.850326,1000.9241300000001,0,0
46.36,-7.872970599999999,4.853443599999999,-2.7840421,1000.9141,0,0
46.4,-7.739114,5.1632695,-2.6467423,1000.9292,0,0
46.44,-7.8633647,4.9249415,-2.8266475,1000.9569,0,0
46.48,-7.9541580000000005,5.053637999999999,-2.9639432,1000.9495,0,0
46.52,-7.734263,4.958306299999999,-2.6798766,1000.9091,0,0
46.56,-7.772477,5.163266999999999,-2.7272184,1000.9041,0,0
46.6,-7.939746,4.958305,-2.9023893,1000.9191,0,0
46.64,-7.915824400000001,5.0965347,-2.8503087000000003,1000.9164,0,0
46.68,-7.7112274,5.072724299999999,-2.7699096,1000.9367,0,0
46.72,-7.845075,5.029826,-2.6515505,1000.9016,0,0
46.76,-7.821192999999999,5.091792,-2.8788037,1000.9292,0,0
46.8,-7.7829647,5.2014227,-2.8551322999999997,1000.92145,0,0
46.84,-7.9263762999999985,4.982161,-2.8930092,1000.90405,0,0
46.88,-7.8881479999999975,5.025061,-2.8977447,1000.8915400000001,0,0
46.92,-7.739990700000001,5.1537576,-2.7083697,1000.9116,0,0
46.96,-7.7400055,5.106093,-2.8504033,1000.90906,0,0
47.0,-7.773474,4.953563,-2.8693419,1000.9217,0,0
47.04,-7.849964599999999,5.0536613,-2.73678,1000.9089,0,0
47.08,-7.75438,5.177592,-2.8220002999999996,1000.9317,0,0
47.12,-7.7878585000000005,5.110861,-2.7462516,1000.929,0,0
47.16,-7.830887,5.025062999999999,-2.7225804,1000.93427,0,0
47.2,-7.826124,5.1537604,-2.7746606,1000.9267,0,0
47.24,-7.740100999999999,5.144228,-2.8646152000000003,1000.9116,0,0
47.28,-7.8070330000000006,4.977399,-2.7651942000000003,1000.9217,0,0
47.32,-7.787926700000001,4.986932299999999,-2.736789,1000.9265,0,0
47.36,-7.787940499999999,5.2014275,-2.8693535,1000.934,0,0
47.4,-7.8883300000000025,5.058431,-2.9924492999999996,1000.9417,0,0
47.44,-7.9265795,4.9583335,-2.9829814,1000.9491,0,0
47.48,-7.8405559999999985,5.1108637,-2.8551537999999996,1000.92395,0,0
47.52,-7.7879925000000005,5.0012336,-2.9877182999999996,1000.939,0,0
47.56,-7.807125,4.886836499999999,-3.0303292,1000.919,0,0
47.6,-7.874059700000001,4.929735,-3.0587372999999998,1000.9491,0,0
47.64,-7.7832546,5.0393667,-2.8882997,1000.9138,0,0
47.68,-7.7339168,4.9153986,-3.0254564,1000.92926,0,0
47.72,-7.8246727,4.862965,-2.978107,1000.9088,0,0
47.76,-7.834186999999999,5.001194,-3.1485415,1000.9415,0,0
47.8,-7.8150176999999985,5.0631580000000005,-3.0633175,1000.972,0,0
47.84,-7.7958584,4.9392260000000014,-3.1106580000000004,1000.95166,0,0
47.88,-7.757572,5.0536227,-3.091716,1000.93933,0,0
47.92,-7.6093564,5.0154895999999995,-3.030165,1000.9217,0,0
47.96,-7.6570934999999976,4.9010906,-3.0680343999999997,1000.9064300000001,0,0
48.0,-7.6283759999999985,5.0011873,-3.0490932,1000.8787,0,0
48.04,-7.738266499999999,5.1298832999999995,-3.0159483,1000.87103,0,0
48.08,-8.034556,5.153714,-3.4183673999999997,1000.8508,0,0
48.12,-7.852902999999999,5.1251144,-3.1579732999999997,1000.88354,0,0
48.16,-7.551715,5.0488480000000004,-2.9212474999999998,1000.8938,0,0
48.2,-7.757186999999999,5.244275599999999,-3.1153526,1000.89124,0,0
48.24,-7.503814699999999,5.1775427,-3.001723,1000.89636,0,0
48.28,-7.7284203,5.0011790000000005,-3.1721575,1000.9541,0,0
48.32,-7.6901402,5.0345435,-2.9591055,1000.9717,0,0
48.36,-7.584933,5.072675,-3.0111792,1000.9794,0,0
48.4,-7.7139397,5.1966043,-2.9732995,1000.9566,0,0
48.44,-7.6374179999999985,5.129872,-2.888076,1000.92395,0,0
48.48,-7.799883,5.206135,-3.0632446,1000.95435,0,0
48.52,-7.713798,5.1441690000000015,-2.8928017999999995,1000.9490400000001,0,0
48.56,-7.73764,5.072669,-2.854921,1000.9188,0,0
48.6,-7.8809943,4.977337,-2.978012,1000.9490400000001,0,0
48.64,-7.8283625,5.0107017,-2.7034118,1000.924,0,0
48.68,-7.8487773,4.929702,-2.9970633999999996,1000.9265,0,0
48.72,-7.925258,5.0155,-2.9875947999999997,1000.9188,0,0
48.76,-7.6719339999999985,5.206162,-2.8929074,1000.9163,0,0
48.8,-7.7245164000000015,5.191862599999999,-3.0017993,1000.93646,0,0
48.84,-7.762759700000001,5.0298,-2.9781277000000004,1000.9619,0,0
48.88,-7.7340860000000005,5.125131,-3.0018002999999998,1000.9391,0,0
48.92,-7.791449000000001,4.972601999999998,-3.0160037999999996,1000.93146,0,0
48.96,-7.743656,5.091766000000002,-2.9828634,1000.9490400000001,0,0
49.0,-7.691084,5.0298004,-2.9544575,1000.9440300000001,0,0
49.04,-7.7675657000000005,5.0631666,-2.9544580000000003,1000.954,0,0
49.08,-7.753230999999999,5.096533,-3.0870216,1000.9743699999999,0,0
49.12,-7.6146210000000005,5.1632643,-2.8929113999999996,1000.9741,0,0
49.16,-7.7675815,4.929703,-3.1201637000000004,1000.9893,0,0
49.2,-7.762805,5.1489654,-3.0254755,1000.9666,0,0
49.24,-7.7580304,4.991668700000001,-3.1154299,1000.94147,0,0
49.28,-7.920548399999999,5.0488669999999995,-3.1201646,1000.94653,0,0
49.32,-7.6242056,5.1680317,-2.9970708,1000.9214,0,0
49.36,-7.6959085000000025,5.0679345,-2.911852,1000.93146,0,0
49.4,-7.858426,4.9583035,-2.9213212000000004,1000.93396,0,0
49.44,-7.815413499999999,5.029802,-2.9639313,1000.9591,0,0
49.48,-7.667244,5.0727005,-3.001807,1000.9641,0,0
49.52,-7.7341647,4.9726040000000005,-2.9497287,1000.9716,0,0
49.56,-7.743730499999999,4.8629727,-2.9970734,1000.9213,0,0
49.6,-7.8010945000000005,4.891572,-2.9544642000000003,1000.9364,0,0
49.64,-7.834556599999999,4.924938,-3.1154344,1000.954,0,0
49.68,-7.810888,5.0441074,-2.9923610000000003,1000.9113,0,0
49.72,-7.820459,5.0631747,-2.9592210999999997,1000.9062,0,0
49.76,-7.777457000000001,5.0727077000000005,-3.0349734,1000.949,0,0
49.8,-7.834828999999999,5.0441084,-3.0397086,1000.9087,0,0
49.84,-7.8730807,5.0631757,-3.134398,1000.9113,0,0
49.88,-7.5098286,5.3777685,-2.8787415000000003,1000.8883,0,0
49.92,-7.581539999999999,5.1918726,-2.997103,1000.9337,0,0
49.96,-7.748844,4.948779,-3.058651,1000.9589,0,0
50.0,-7.691503999999999,4.986912,-3.1391377,1000.9288,0,0
50.04,-7.643715400000001,5.039345,-3.063388,1000.93365,0,0
50.08,-7.7680063,5.1013093000000005,-3.1107335,1000.9264,0,0
50.12,-7.653306,5.10131,-3.1012661,1000.94135,0,0
50.16,-7.5003657000000015,5.087011,-2.874016,1000.9437,0,0
50.2,-7.638991000000001,5.14421,-3.0965338,1000.9591,0,0
50.24,-7.686803,5.3777714,-2.9781752,1000.9263,0,0
50.28,-7.86367,5.1871095,-3.1107397,1000.9111,0,0
50.32,-7.4860786999999975,5.2347755,-2.9639745,1000.9362,0,0
50.36,-7.8015630000000025,4.905883,-2.9687104,1000.9540400000001,0,0
50.4,-7.729875999999999,5.0584135,-3.0065866000000003,1000.95636,0,0
50.44,-7.6534147,5.349173,-3.0586665,1000.9716,0,0
50.48,-7.639087,5.306275,-3.0444642999999996,1000.944,0,0
50.52,-7.65822,5.315809,-3.0160592,1000.9463,0,0
50.56,-7.600875999999999,5.2490773,-3.1202172999999997,1000.9563,0,0
50.6,-7.682146,5.0727142999999995,-2.8408884999999997,1000.92865,0,0
50.64,-7.658262,5.182346,-2.9545157000000004,1000.9387,0,0
50.68,-7.7008800000000015,5.187103,-2.9828856,1000.9664,0,0
50.72,-7.64352,5.2204685,-2.921338,1000.9588,0,0
50.76,-7.782131,5.1537365999999984,-2.935541,1000.92615,0,0
50.8,-7.7773495,5.196635700000002,-2.869259,1000.92865,0,0
50.84,-7.758228,5.0250397000000016,-2.8550557999999997,1000.9412,0,0
50.88,-7.806023,5.1394367,-2.9166026,1000.9259,0,0
50.92,-7.648287299999999,5.0870047,-2.8645240000000003,1000.92346,0,0
50.96,-7.8538156,5.029806,-2.8219142,1000.92114,0,0
51.0,-7.662622,5.13467,-2.7319603,1000.9261,0,0
51.04,-7.696078,5.2776666,-2.8739922000000004,1000.97644,0,0
51.08,-7.734313,5.1299033,-2.9260705000000002,1000.9284,0,0
51.12,-7.777329400000001,5.1299033,-2.8834605,1000.92584,0,0
51.16,-7.6434917,5.191868299999999,-2.8266475,1000.8957,0,0
51.2,-7.820342,5.177569,-3.0018203,1000.93365,0,0
51.24,-7.724744,5.215701,-2.8929286,1000.89325,0,0
51.28,-7.772539599999999,5.249067299999999,-2.9450068,1000.92584,0,0
51.32,-7.753417999999999,5.1442027,-2.9355376,1000.9513,0,0
51.36,-7.6578197,5.1537356,-2.8787248,1000.9412,0,0
51.4,-7.7629724,5.067938,-2.9165995,1000.9183300000001,0,0
51.44,-7.6673737000000015,5.1871014,-2.9071307,1000.95605,0,0
51.48,-7.7295089999999975,5.0298050000000005,-2.9828810000000003,1000.89825,0,0
51.52,-7.7056070000000005,5.129903,-2.8597862999999997,1000.9133,0,0
51.56,-7.758183,5.1775684,-2.9213332999999997,1000.9284,0,0
51.6,-7.786859,5.1823354,-2.945005,1000.9057,0,0
51.64,-7.7677380000000005,5.115603,-2.911864,1000.9335,0,0
51.68,-7.7583990000000025,5.1251416,-2.9497595000000003,1000.92334,0,0
51.72,-7.7392850000000015,5.067943,-2.7887902,1000.9108,0,0
51.76,-7.839665400000001,4.996444,-3.0586514,1000.9335,0,0
51.8,-7.6532592999999975,5.0441103,-2.8692759999999997,1000.9183300000001,0,0
51.84,-7.8540187,5.0250444000000005,-3.0160433999999996,1000.9234,0,0
51.88,-7.7632093,5.1680410000000006,-2.9971063,1000.9689,0,0
51.92,-7.858811,5.05841,-3.0633882999999997,1000.92084,0,0
51.96,-7.7345440000000005,5.182341,-2.9876384999999996,1000.9611,0,0
52.0,-7.729769,5.129909,-3.0775926,1000.9007,0,0
52.04,-7.6532984,5.0822434,-2.9781709,1000.91583,0,0
52.08,-7.734561999999999,5.020278500000001,-3.0207815,1000.9585,0,0
52.12,-7.7871440000000005,5.0393453,-3.049188,1000.9485,0,0
52.16,-7.8158307,5.015512,-3.077595,1000.94604,0,0
52.2,-7.5768460000000015,5.1251430000000004,-3.0444548,1000.93115,0,0
52.24,-7.6772285,5.077478,-2.9734395,1000.9183300000001,0,0
52.28,-7.782391499999999,4.9869137000000014,-3.0823313999999997,1000.92065,0,0
52.32,-7.7823970000000005,5.1203775,-3.1438792,1000.9437,0,0
52.36,-7.629449,5.044112,-2.9213626,1000.92334,0,0
52.4,-7.8206472000000025,5.048879,-3.0018482000000004,1000.9335,0,0
52.44,-7.6820393,5.2204757000000015,-3.0397239,1000.9661,0,0
52.48,-7.705944500000001,5.182343,-3.0633965,1000.9309,0,0
52.52,-7.72985,5.177576999999999,-2.9545057,1000.9335,0,0
52.56,-7.619920299999999,5.177576999999999,-2.9355686000000003,1000.9334,0,0
52.6,-7.7107449999999975,5.163277,-3.0776014,1000.92084,0,0
52.64,-7.753769,5.1108456,-3.039726700000001,1000.8981,0,0
52.68,-7.7337046,5.2109203,-2.9449522,1000.9384,0,0
52.72,-7.7145443,5.139419999999999,-3.068043,1000.9385,0,0
52.76,-7.7957773,5.0869875,-3.0017593,1000.9183300000001,0,0
52.8,-7.6141130000000015,5.258583,-2.9070682999999997,1000.9309,0,0
52.84,-7.6284304,5.334847,-2.9780822,1000.9259,0,0
52.88,-7.8148035999999985,5.134651,-3.0443602000000003,1000.9106400000001,0,0
52.92,-7.575783,5.3014800000000015,-2.9875445,1000.92084,0,0
52.96,-7.6139899999999985,5.2824125,-3.072761,1000.9132699999999,0,0
53.0,-7.6808752999999985,5.2156806,-2.9354603,1000.9309,0,0
53.04,-7.7095145999999986,5.115582,-3.0348792,1000.9736300000001,0,0
53.08,-7.7047089999999985,5.306243,-2.9023135,1000.96106,0,0
53.12,-7.5851820000000005,5.2204440000000005,-3.011202,1000.92084,0,0
53.16,-7.733322,5.2204437000000015,-2.9496517000000004,1000.9535,0,0
53.2,-7.6998320000000025,5.2347426,-3.0396025,1000.94855,0,0
53.24,-7.556412,5.325307,-2.9827874,1000.92334,0,0
53.28,-7.7236756999999985,4.9821134,-2.9827845,1000.91077,0,0
53.32,-7.666283999999999,5.1489425,-3.1484857,1000.9409,0,0
53.36,-7.6041174,5.2442727,-2.9922473,1000.91583,0,0
53.4,-7.53717,5.3682027,-3.0301201,1000.9231599999999,0,0
53.44,-7.7235483999999985,5.244271299999999,-3.0395858,1000.9106,0,0
53.48,-7.5466666,5.3396015,-3.0443172,1000.9056,0,0
53.52,-7.5705338000000015,5.2347364,-3.1058619999999997,1000.9484,0,0
53.56,-7.6756577,5.220436,-3.0064363,1000.93335,0,0
53.6,-7.599150999999999,5.225201599999999,-3.058512,1000.9636,0,0
53.64,-7.517863,5.277633,-2.8880708,1000.94604,0,0
53.68,-7.710260000000001,5.239530599999998,-3.0112755,1000.9208,0,0
53.72,-7.600343,5.2871966,-2.9591987,1000.9408599999999,0,0
53.76,-7.509544,5.363462,-3.0396852,1000.9208,0,0
53.8,-7.624277,5.263365,-3.0633588,1000.9106,0,0
53.84,-7.6625289999999975,5.191866,-2.8550463,1000.93335,0,0
53.88,-7.7390275,5.172801,-2.9639394,1000.93835,0,0
53.92,-7.657792,5.1299024000000015,-2.9071287999999997,1000.9233,0,0
53.96,-7.696046000000001,5.072704,-3.0302248,1000.90814,0,0
54.0,-7.719959700000001,5.1585019999999995,-2.8929281000000002,1000.8957,0,0
54.04,-7.7295380000000025,5.2586007000000015,-2.9686804,1000.93835,0,0
54.08,-7.6865387,5.3062663,-2.8929317,1000.9282,0,0
54.12,-7.78693,5.125138,-2.916605,1000.9307,0,0
54.16,-7.6674485,5.1918697,-2.878731,1000.9636,0,0
54.2,-7.758285499999999,5.144205,-3.0254993,1000.9307,0,0
54.24,-7.748739200000001,5.0870066,-3.0397038,1000.9359,0,0
54.28,-7.6961837,5.072707,-3.0917845,1000.9334,0,0
54.32,-7.653185400000001,5.172806,-2.9024099999999997,1000.9031,0,0
54.36,-7.849171000000001,5.029808999999998,-3.1722727,1000.93335,0,0
54.4,-7.8587494000000016,5.1632733,-3.058648,1000.92584,0,0
54.44,-7.801414,5.0298099999999994,-3.0491817,1000.9384,0,0
54.48,-7.6914916,5.020277,-3.1059957000000002,1000.9032,0,0
54.52,-7.9113820000000015,4.9726124,-3.1628103,1000.9282,0,0
54.56,-7.7345440000000005,5.1013093000000005,-3.1722806,1000.9408599999999,0,0
54.6,-7.7058835000000006,4.939247,-3.1864852999999997,1000.9282,0,0
54.64,-7.6198645,5.020279,-3.2148932999999995,1000.92334,0,0
54.68,-7.696579499999999,5.0870166,-3.2054465,1000.9484,0,0
54.72,-7.5532107,5.253846599999998,-3.1533703999999996,1000.9205300000001,0,0
54.76,-7.6918564,4.9106555,-3.0823572,1000.9433,0,0
54.8,-7.605844999999999,5.115618,-3.1060317000000004,1000.9332,0,0
54.84,-7.715808999999999,5.05842,-3.0208150000000002,1000.9433,0,0
54.88,-7.730173599999999,5.08702,-3.1344426,1000.9483,0,0
54.92,-7.8114532999999975,5.0536547,-3.143914,1000.92566,0,0
54.96,-7.6346289999999986,5.220485,-3.0539625,1000.95605,0,0
55.0,-7.7302547000000015,5.0441227,-3.1013092999999996,1000.9356,0,0
55.04,-7.797187299999999,5.029824,-3.0208258999999997,1000.90796,0,0
55.08,-7.744646,5.067957,-3.1107829,1000.9306,0,0
55.12,-7.649077,5.0584245,-3.1155197999999995,1000.9106400000001,0,0
55.16,-7.6682169999999985,4.9297276,-2.9166765,1000.9106400000001,0,0
55.2,-7.792511,4.9297285,-2.9119442,1000.9534,0,0
55.24,-7.7495255000000025,5.001228,-3.1060576,1000.956,0,0
55.28,-7.8547077000000005,5.115626,-3.0066373,1000.91296,0,0
55.32,-7.6731,5.24909,-3.0161088,1000.91315,0,0
55.36,-7.7018113,5.0488954,-3.0445178,1000.9381,0,0
55.4,-7.730511,4.9726315,-3.0303167999999996,1000.90796,0,0
55.44,-7.7735642999999985,4.9059,-2.9024909,1000.92804,0,0
55.48,-7.8452797000000025,4.834402,-3.0113838,1000.9356,0,0
55.52,-7.950461,4.791504,-3.0492616000000003,1000.93335,0,0
55.56,-7.7784142,4.9821663,-3.1155457,1000.9357,0,0
55.6,-7.902719,5.0060005,-3.0019226000000003,1000.91815,0,0
55.64,-7.9457607,4.958335,-2.9640496,1000.8779,0,0
55.68,-7.8680059999999985,4.9916697,-3.0160112,1000.88275,0,0
55.72,-7.810625,4.9583035,-3.1627755,1000.92303,0,0
55.76,-7.7723627,4.9583025,-3.1864452,1000.92804,0,0
55.8,-7.762778999999999,4.9154029999999995,-3.12963,1000.9028,0,0
55.84,-7.9013589999999985,4.944001,-2.9828607999999996,1000.93335,0,0
55.88,-7.92524,4.9869010000000005,-3.158032,1000.9534,0,0
55.92,-7.791380999999999,5.1346625999999995,-3.1296232,1000.9077,0,0
55.96,-7.6814213,5.148962,-3.1390898,1000.956,0,0
56.0,-7.614478599999999,4.977365,-3.2527132,1000.9382,0,0
56.04,-7.772191499999999,4.781936,-3.1485543,1000.91034,0,0
56.08,-7.7291417000000004,4.7104370000000015,-3.1816923999999998,1000.91296,0,0
56.12,-7.7960350000000025,4.9106317000000015,-3.030189,1000.9408599999999,0,0
56.16,-7.686076,4.9630632000000015,-3.1627502,1000.9509,0,0
56.2,-7.8724627000000025,5.0107284000000005,-3.1485448,1000.9282,0,0
56.24,-7.757719,5.067926,-3.0491197,1000.95575,0,0
56.28,-7.657319,4.9582944000000015,-3.0917272999999996,1000.9609,0,0
56.32,-7.795910000000001,4.8105307,-3.1911476000000003,1000.95825,0,0
56.36,-7.867591,4.81053,-3.1106613,1000.9582,0,0
56.4,-7.8914537,4.9821253,-3.2763619999999998,1000.8904,0,0
56.44,-7.6954594,5.0631566,-2.9970303,1000.89026,0,0
56.48,-7.700215299999999,5.1870866,-3.3473737,1000.893,0,0
56.52,-7.561576,5.287184,-3.1627297000000003,1000.86755,0,0
56.56,-7.112251,5.1966186,-2.9402103,1000.8977699999999,0,0
56.6,-7.408579,5.2156844000000016,-2.9875526000000003,1000.91815,0,0
56.64,-7.862628,5.1060524,-3.3852398,1000.8977699999999,0,0
56.68,-7.633395699999999,5.0726914,-3.6503847,1000.90295,0,0
56.72,-7.5664625,5.110823,-3.3237092000000006,1000.91034,0,0
56.76,-7.977508,5.1108227,-3.1011906000000002,1000.9509,0,0
56.8,-8.12567,5.2347535999999995,-2.7366405,1000.9431,0,0
56.84,-7.561635000000001,5.4206486,-2.656154,1000.92804,0,0
56.88,-7.427780999999999,4.896326999999999,-2.7319026,1000.9582,0,0
56.92,-8.0348015,4.6436987,-2.8171206,1000.9406,0,0
56.96,-8.307238,4.6055660000000005,-2.8407915,1000.9254,0,0
57.0,-7.762321000000001,4.996423,-3.3189645,1000.9433,0,0
57.04,-7.848345,5.0917544,-3.3805106,1000.93585,0,0
57.08,-7.3321039999999975,5.4063463,-3.082241,1000.95575,0,0
57.12,-7.446801,5.2871823,-3.0680362999999997,1000.93567,0,0
57.16,-7.9438825,5.0965195,-3.1343162,1000.9331,0,0
57.2,-7.609281,5.120352,-3.1153772,1000.9381,0,0
57.24,-7.513667999999999,5.0679193,-3.0206876,1000.9356,0,0
57.28,-7.6570490000000015,5.172783,-2.921264,1000.9282,0,0
57.32,-7.8434463,5.13465,-2.8218400000000003,1000.9459,0,0
57.36,-7.5948772,5.2967124000000005,-3.0112143,1000.92303,0,0
57.4,-7.5040493,5.334844599999999,-3.1059015,1000.9455,0,0
57.44,-7.647422,5.287179,-2.9496644,1000.92786,0,0
57.48,-7.585267999999999,5.3729762999999995,-2.9733346000000003,1000.9379,0,0
57.52,-7.695186599999999,5.272878599999999,-3.0585522999999997,1000.9455,0,0
57.56,-7.5422225,5.2109127,-2.8265657,1000.9355,0,0
57.6,-7.747738000000001,5.2013793,-2.930721,1000.9155,0,0
57.64,-7.833753,5.0536156,-3.0206728,1000.9305400000001,0,0
57.68,-7.5618005,5.120359400000001,-3.0349214,1000.91296,0,0
57.72,-7.547464999999999,5.24429,-3.0585935,1000.95557,0,0
57.76,-7.5809274,5.249057,-3.0917351,1000.9431,0,0
57.8,-7.7338853,5.1537256,-3.1816888,1000.9406,0,0
57.84,-7.93942,4.948764,-3.0301883,1000.9355,0,0
57.88,-7.79125,4.753335,-2.9449693999999997,1000.93304,0,0
57.92,-7.901190299999999,4.8057675,-2.760328,1000.9506,0,0
57.96,-7.619185400000001,5.0774612,-3.1059400000000004,1000.9534,0,0
58.0,-8.058931,5.153726,-2.9260330000000003,1000.96075,0,0
58.04,-7.43278,5.5493502999999995,-3.0870029999999997,1000.9305400000001,0,0
58.08,-7.3610880000000005,5.6971135,-2.8928928,1000.9457,0,0
58.12,-7.375431,5.6494484000000025,-2.892893,1000.96326,0,0
58.16,-7.652663,5.30149,-3.0680666000000003,1000.91534,0,0
58.2,-7.6574464,5.053629,-3.2243020000000002,1000.9431,0,0
58.24,-7.848642,5.0107303,-3.101208,1000.9507,0,0
58.28,-7.5666366,5.110827400000002,-3.0728017999999997,1000.96075,0,0
58.32,-7.447146000000001,5.291957,-3.1958966,1000.9354,0,0
58.36,-7.437589,5.2156915999999995,-3.4136796,1000.9459,0,0
58.4,-7.528409,5.115595,-3.494165,1000.9432,0,0
58.44,-7.595332000000001,5.005964,-3.4042114999999997,1000.9028,0,0
58.48,-7.662253,4.9487653,-3.2858517,1000.9178,0,0
58.52,-7.762631,4.977365,-3.1106791,1000.9509,0,0
58.56,-7.4089303,5.1870933,-3.2053675999999998,1000.918,0,0
58.6,-7.542768,5.0869956,-3.1769617,1000.9635,0,0
58.64,-7.671827,5.201393,-3.0917425,1000.9685699999999,0,0
58.68,-7.633399499999999,5.210922,-3.0822566000000005,1000.9155,0,0
58.72,-7.5855975,5.225221,-3.328445,1000.93335,0,0
58.76,-7.6333933000000025,5.191855,-3.24796,1000.9231599999999,0,0
58.8,-7.657287599999999,5.0965242,-3.2290223,1000.92303,0,0
58.84,-7.5664687000000015,5.0774574,-3.0633175,1000.9509,0,0
58.88,-7.7958946,5.0440917,-2.9923012000000004,1000.9635,0,0
58.92,-7.748092,5.253819999999998,-2.973363,1000.9535,0,0
58.96,-7.5807970000000005,5.26812,-3.1106606,1000.9282,0,0
59.0,-7.585572,5.4015830000000005,-3.2763642999999996,1000.9331,0,0
59.04,-7.4851923,5.153722,-3.2574265,1000.9459,0,0
59.08,-7.7528586,4.939227,-3.1532693,1000.9032,0,0
59.12,-7.9488273000000005,4.9773593,-2.9165487,1000.961,0,0
59.16,-7.5186410000000015,5.0345580000000005,-2.9922988,1000.9408599999999,0,0
59.2,-7.724167299999999,5.1966209999999995,-3.0680490000000002,1000.9509,0,0
59.24,-7.4851740000000015,5.2824183,-3.1816742000000002,1000.9432400000001,0,0
59.28,-7.5998850000000004,5.325318,-3.1911426,1000.92334,0,0
59.32,-7.724157000000001,5.182321,-3.068048,1000.9233,0,0
59.36,-7.657235000000001,5.0726900000000015,-3.110657,1000.9459,0,0
59.4,-7.709809,5.0393243,-2.9212806000000002,1000.9406,0,0
59.44,-7.604651,5.144188400000001,-3.1059222,1000.9231599999999,0,0
59.48,-7.7337003,5.1203556,-3.1153904999999997,1000.946,0,0
59.52,-7.618982000000001,5.263351999999999,-3.2716252999999997,1000.9435,0,0
59.56,-7.537721,5.2299857,-3.0538425,1000.9434,0,0
59.6,-7.661993499999999,5.1489544,-3.0301702,1000.946,0,0
59.64,-7.6333103000000015,5.187087,-3.1437957,1000.93835,0,0
59.68,-7.576364999999999,5.139431,-3.1390991,1000.91565,0,0
59.72,-7.7723475,5.1346644999999995,-2.9260516,1000.9183,0,0
59.76,-7.5811677,5.1489650000000005,-3.0160065,1000.9359,0,0
59.8,-7.557284399999999,5.2824287000000005,-3.0018046000000003,1000.9332,0,0
59.84,-7.4951553,5.39206,-3.172244,1000.9334,0,0
59.88,-7.6146664999999985,5.306262,-3.153308,1000.9459,0,0
59.92,-7.523862400000001,5.263364,-3.1012306,1000.9335,0,0
59.96,-7.7533054,5.225231,-3.105966,1000.9335,0,0
60.0,-7.45697,5.3062629999999995,-3.0065446,1000.941,0,0
60.04,-7.581258,5.1632667,-3.2101252000000002,1000.9334,0,0
60.08,-7.662524,5.2347655,-2.9118588,1000.9535,0,0
60.12,-7.6386375,5.2967305,-3.0633607000000005,1000.941,0,0
60.16,-7.423561,5.4015956,-3.3663642,1000.9259,0,0
60.2,-7.5430660000000005,5.3825293,-3.2006607000000002,1000.9585,0,0
60.24,-7.5382979999999975,5.263366,-3.0112855,1000.9309,0,0
60.28,-7.748625,5.2586,-2.8219109,1000.941,0,0
60.32,-7.117703999999999,5.415896400000001,-2.7840369,1000.9563,0,0
60.36,-7.6578345,5.5541267,-3.2858849,1000.9334,0,0
60.4,-7.7486625,5.2824335,-3.2811517999999995,1000.946,0,0
60.44,-6.993466400000001,5.048872,-3.3190281,1000.936,0,0
60.48,-8.049814999999999,4.6770816,-3.4279203000000003,1000.92847,0,0
60.52,-8.140645,4.801012,-3.442125,1000.95355,0,0
60.56,-7.6244354,5.158504,-3.200671,1000.9409,0,0
60.6,-7.3233237,5.454031,-2.8266547,1000.946,0,0
60.64,-7.270757700000001,5.3205675999999995,-2.968688,1000.893,0,0
60.68,-7.7104797000000005,5.144205,-3.390048,1000.9789999999999,0,0
60.72,-7.4380425999999975,5.339633999999998,-3.309564,1000.9334,0,0
60.76,-7.160825,5.4969306,-3.3048307999999995,1000.9435,0,0
60.8,-7.184736,5.501697,-3.4421299,1000.9384,0,0
60.84,-7.0891494999999995,5.4158998,-3.4468648,1000.9085,0,0
60.88,-7.834811,5.1108400000000005,-3.3947875,1000.94604,0,0
60.92,-7.6340675000000005,5.29197,-3.1722713,1000.92615,0,0
60.96,-7.490689,5.3205695,-3.3900553999999996,1000.9385,0,0
61.0,-7.5671754,5.468333,-3.2196176,1000.93365,0,0
61.04,-7.323417,5.4635663,-3.0397112,1000.91846,0,0
61.08,-7.3090899999999985,5.311037000000002,-3.361652,1000.9511,0,0
61.12,-7.796639999999999,5.1394410000000015,-3.3805904000000004,1000.9082599999999,0,0
61.16,-7.251753999999999,5.253839,-3.2574970000000003,1000.9437,0,0
61.2,-7.5146539999999975,5.2300059999999995,-3.333248600000001,1000.9284,0,0
61.24,-7.6102595,5.287205,-3.3616557,1000.9135,0,0
61.28,-7.2326679999999985,5.511234,-3.2148907,1000.91583,0,0
61.32,-7.323492999999999,5.415903,-3.2669697,1000.9234,0,0
61.36,-7.5529375,5.358704,-3.0018444,1000.93365,0,0
61.4,-7.476472,5.301506,-3.3190506,1000.93616,0,0
61.44,-7.81107,5.320572,-3.2338324000000003,1000.9284,0,0
61.48,-7.3474402,5.4635690000000015,-3.3758654999999997,1000.941,0,0
61.52,-7.2422957,5.377772,-3.1817558,1000.90576,0,0
61.56,-7.7967644,5.2586083,-3.0255215,1000.9082599999999,0,0
61.6,-7.3426933000000005,5.4397373,-3.1249452,1000.9739400000001,0,0
61.64,-7.309246499999999,5.5160027000000005,-3.3048531999999997,1000.8882,0,0
61.68,-7.4521065,5.3348603,-3.4326334000000003,1000.9058,0,0
61.72,-7.6958656,5.153731,-3.1438339,1000.92346,0,0
61.76,-7.614600999999999,5.187096599999999,-3.1012235,1000.941,0,0
61.8,-7.5237756,5.1441975,-3.3710837,1000.93365,0,0
61.84,-7.4233894,5.330093,-3.3852860000000002,1000.9211,0,0
61.88,-7.3803595999999985,5.4301905999999995,-3.3095343,1000.93115,0,0
61.92,-7.495064299999999,5.3110266,-3.1248918,1000.9335,0,0
61.96,-7.5380720000000005,5.3539248,-3.21011,1000.93616,0,0
62.0,-7.60498,5.2919599999999996,-3.101218,1000.91583,0,0
62.04,-7.4902573000000015,5.420656,-3.030201,1000.9161,0,0
62.08,-7.327733,5.420656,-3.205373,1000.9462,0,0
62.12,-7.557154,5.353924,-3.2290442,1000.93365,0,0
62.16,-7.4519887,5.339624400000001,-3.1343553,1000.9135,0,0
62.2,-7.676628,5.144195,-3.2574487000000003,1000.92865,0,0
62.24,-7.523664,5.387289,-3.049134,1000.944,0,0
62.28,-7.351580599999999,5.515986,-3.1201491000000003,1000.95886,0,0
62.32,-7.413710000000001,5.4349545999999975,-3.153289,1000.91583,0,0
62.36,-7.523635400000001,5.368222,-3.266914,1000.9437,0,0
62.4,-7.504507,5.3729887000000005,-3.1154122,1000.93365,0,0
62.44,-7.537953,5.372987999999999,-3.2100992,1000.9513,0,0
62.48,-7.356310400000001,5.3872870000000015,-3.124879,1000.9060000000001,0,0
62.52,-7.4853554,5.3205557,-3.0727994,1000.9389,0,0
62.56,-7.4662256,5.3062553,-3.1438148,1000.9262,0,0
62.6,-7.6287293000000025,5.330088,-3.120142,1000.9388,0,0
62.64,-7.619159700000001,5.3062553,-3.1864226,1000.9641,0,0
62.68,-7.2800717000000015,5.5493565,-3.2385262999999997,1000.9513,0,0
62.72,-7.1940365,5.535057,-3.1438384,1000.9412,0,0
62.76,-7.4617070000000005,5.415893,-3.101229,1000.9538,0,0
62.8,-7.3900112999999985,5.2919626,-3.2101203999999997,1000.9462,0,0
62.84,-7.758057000000001,5.158499,-3.2337925,1000.94147,0,0
62.88,-7.4664907000000005,5.182332,-3.1154325000000003,1000.9613,0,0
62.92,-7.4808309999999985,5.3682275,-3.0917609,1000.9488,0,0
62.96,-7.428255,5.363461,-3.1580424,1000.9213,0,0
63.0,-7.6863656,5.244296599999998,-3.2574651,1000.9387,0,0
63.04,-7.585990400000001,5.311029,-3.2574651,1000.9388,0,0
63.08,-7.4808364,5.339628,-3.2006523999999996,1000.9261,0,0
63.12,-7.4903975,5.325328400000001,-3.4231696000000005,1000.9136,0,0
63.16,-7.552536,5.3491610000000005,-3.0775577999999997,1000.9563,0,0
63.2,-7.4904,5.234764599999999,-2.9023849999999998,1000.9741,0,0
63.24,-7.734171000000001,5.1013002,-3.1627774,1000.93115,0,0
63.28,-7.652916,5.1727989999999995,-3.176981,1000.9388,0,0
63.32,-7.528641,5.296729,-3.2053873999999998,1000.93115,0,0
63.36,-7.3470106,5.3396287000000004,-3.082293,1000.9613,0,0
63.4,-7.6194606,5.301496,-3.2243252,1000.9111300000001,0,0
63.44,-7.5382050000000005,5.3062625,-3.0633557000000002,1000.94147,0,0
63.48,-7.7341785000000005,5.220464700000001,-3.3900297,1000.9110000000001,0,0
63.52,-7.533428,5.2299976,-2.9970741000000003,1000.9389,0,0
63.56,-7.351796,5.2776629999999995,-2.9497302000000003,1000.9236,0,0
63.6,-7.5525494,5.3825274000000025,-2.99234,1000.9085699999999,0,0
63.64,-7.3948174,5.5159910000000005,-2.9970744,1000.92865,0,0
63.68,-7.470784700000001,5.363449,-3.3568425000000004,1000.94135,0,0
63.72,-7.661956,5.2299847999999995,-3.1390580000000003,1000.9387,0,0
63.76,-7.5089836,5.253817,-3.1295874,1000.9186,0,0
63.8,-7.4133735,5.406347,-3.05857,1000.9236,0,0
63.84,-7.843536999999999,5.311015,-3.0585682,1000.9186,0,0
63.88,-7.169561999999999,5.5922413,-2.9875502999999997,1000.8807400000001,0,0
63.92,-7.690546,5.363446,-2.9970179,1000.9412,0,0
63.96,-7.752664999999999,5.16325,-2.9875472000000003,1000.93146,0,0
64.0,-7.8004465,5.044086,-2.8644512000000004,1000.92615,0,0
64.04,-7.7239475,5.120351,-3.0017471000000002,1000.9437,0,0
64.08,-7.398898599999999,5.4015765,-2.9638698,1000.9010000000001,0,0
64.12,-7.480136,5.496907,-2.963868,1000.9161,0,0
64.16,-7.6856537,5.463541,-2.8975852000000004,1000.90576,0,0
64.2,-7.628272999999999,5.468307,-2.8313012000000004,1000.94147,0,0
64.24,-7.3749247,5.311010400000002,-2.8739092,1000.9389,0,0
64.28,-7.9006886,4.9725847000000005,-2.9401894,1000.94147,0,0
64.32,-7.8815465,5.039316,-2.76028,1000.9563,0,0
64.36,-7.8050504,5.020249,-3.0159361000000002,1000.9188,0,0
64.4,-7.4847850000000005,5.196611,-3.0443408,1000.9135,0,0
64.44,-7.6090455000000015,5.0631474999999995,-2.9969954,1000.9214,0,0
64.48,-7.6711607000000015,5.244276,-3.0585406,1000.9641,0,0
64.52,-7.6090100000000005,5.2871747000000004,-3.1153524,1000.9237,0,0
64.56,-7.4512553,5.449237,-2.8076142999999996,1000.9314,0,0
64.6,-7.5994066999999985,5.196609,-2.8454874,1000.9263,0,0
64.64,-7.728444599999999,5.163242299999999,-3.0632683999999997,1000.9188,0,0
64.68,-7.609889,5.096533999999999,-3.0633545,1000.9188,0,0
64.72,-7.891912,5.077468,-2.9828707999999997,1000.9288,0,0
64.76,-7.519108,5.263364299999999,-3.0160136000000004,1000.9490400000001,0,0
64.8,-7.586047,5.368229,-2.9449994999999998,1000.9264,0,0
64.84,-7.6147394,5.392062,-2.902391,1000.9288,0,0
64.88,-7.676897999999999,5.1823344,-3.044425,1000.9239,0,0
64.92,-7.691255,5.144202,-3.0538957000000004,1000.9515,0,0
64.96,-7.796428999999999,5.120369999999999,-3.0112875,1000.92114,0,0
65.0,-7.5048847000000025,5.306266,-2.859789,1000.93646,0,0
65.04,-7.595719,5.387297599999999,-2.9355407000000002,1000.9085,0,0
65.08,-7.691333,5.334866000000001,-3.0396992999999997,1000.89856,0,0
65.12,-7.5861896999999985,5.372999,-2.869262,1000.95154,0,0
65.16,-7.686589,5.287202,-2.8976707000000004,1000.9214,0,0
65.2,-7.8586744999999985,5.287202400000001,-2.8313900000000003,1000.9212,0,0
65.24,-7.548012299999999,5.258603599999999,-2.9166117000000003,1000.93115,0,0
65.28,-7.7535567,5.253837,-2.845597,1000.8935,0,0
65.32,-7.4094320000000025,5.373001,-3.2338197,1000.93146,0,0
65.36,-7.672347500000001,5.1918726,-2.8266637,1000.9188,0,0
65.4,-7.557646000000001,5.2776713,-2.9355562,1000.9061,0,0
65.44,-7.5911225999999985,5.220473,-2.9450266,1000.9188,0,0
65.48,-7.581587299999999,5.315805,-3.0349824,1000.9264,0,0
65.52,-7.6102789999999985,5.2681394,-2.9544985,1000.95905,0,0
65.56,-7.787153999999999,5.106077,-2.9545007,1000.93396,0,0
65.6,-7.5864167,5.1823425,-2.9024236,1000.94147,0,0
65.64,-7.701151400000001,5.15851,-3.0491919999999997,1000.9085699999999,0,0
65.68,-7.543952,5.2204885,-2.8977401,1000.9741,0,0
65.72,-7.7925463000000015,5.1442246,-3.1297297000000004,1000.9466,0,0
65.76,-7.7973504,5.2014236,-2.9356212999999998,1000.92114,0,0
65.8,-7.6061997,5.2157245,-2.9592973999999996,1000.95154,0,0
65.84,-7.6349134,5.3110566,-3.1723487,1000.9162,0,0
65.88,-7.510677999999999,5.239559,-3.0776641,1000.9566,0,0
65.92,-7.6684504,5.096563,-3.2481065,1000.93396,0,0
65.96,-7.6828365000000005,5.0107665,-2.9593119999999997,1000.9387,0,0
66.0,-7.725894,5.120398000000002,-2.9119716,1000.9236,0,0
66.04,-7.5681895999999975,5.1775975,-2.9261772999999995,1000.9692,0,0
66.08,-7.639919,5.287229,-3.120291,1000.9038,0,0
66.12,-7.735564,5.2061987,-3.0966234,1000.90375,0,0
66.16,-7.592207000000001,5.3825626,-3.0776892000000005,1000.94635,0,0
66.2,-7.673503,5.206200599999999,-2.8977854,1000.9062,0,0
66.24,-7.644863000000001,5.2777004000000005,-3.0682278,1000.9263,0,0
66.28,-7.6114492,5.201436,-2.9356682000000003,1000.9338,0,0
66.32,-7.5397935,5.210970400000001,-3.2244709,1000.9188,0,0
66.36,-7.7692536999999975,5.006009,-3.1013792000000002,1000.9214,0,0
66.4,-7.6928234,5.182373,-3.1960714,1000.9059,0,0
66.44,-7.549456599999999,5.2395724999999995,-2.9924942999999997,1000.9289,0,0
66.48,-7.6211977,5.301539,-3.0540457,1000.92645,0,0
66.52,-7.6977115000000005,5.0822783,-2.9688299,1000.93896,0,0
66.56,-7.7933474,5.2205095,-2.9830368,1000.9440300000001,0,0
66.6,-7.635653,5.172844400000002,-3.0303842999999997,1000.93646,0,0
66.64,-7.640472,5.2491107,-3.0824664,1000.9389,0,0
66.68,-7.7448063,5.11086,-3.1013286,1000.95154,0,0
66.72,-7.5822983,5.2014246,-2.8456714,1000.9062,0,0
66.76,-7.907332000000001,5.1203933,-2.8551407,1000.93146,0,0
66.8,-7.8069587,5.1299267,-2.8977508999999997,1000.9087,0,0
66.84,-7.601432300000001,5.2061910000000005,-2.9971735,1000.9088,0,0
66.88,-7.6922545,5.1013274000000015,-3.2386289,1000.9490400000001,0,0
66.92,-7.630122,5.1871257,-3.0161126,1000.95905,0,0
66.96,-7.6396875,5.1299269999999995,-2.8788152,1000.94635,0,0
67.0,-7.8786817,5.1728263,-2.8220026000000002,1000.9262,0,0
67.04,-7.6874949999999975,5.1775928,-3.0255822999999995,1000.92114,0,0
67.08,-7.716178399999999,5.2681575,-2.9829733,1000.9087,0,0
67.12,-7.630146499999999,5.196659599999999,-2.9829738,1000.9087,0,0
67.16,-7.711406699999999,5.1489935,-3.238632,1000.9163,0,0
67.2,-7.6253759999999975,5.101328400000001,-3.091866,1000.9389,0,0
67.24,-7.6684009999999985,5.19666,-2.9877095000000002,1000.9263,0,0
67.28,-7.7018647,5.1346945999999996,-2.8788188,1000.94653,0,0
67.32,-7.477219,5.311057599999999,-3.1865554,1000.9087,0,0
67.36,-7.7687917,5.206193,-2.964039,1000.9088,0,0
67.4,-7.864392,5.1442285000000005,-3.0966023999999996,1000.9162,0,0
67.44,-7.5059122999999985,5.2729254,-2.9687742999999998,1000.9061,0,0
67.48,-7.5919523,5.244326,-2.9261649,1000.9314,0,0
67.52,-7.749691499999999,5.0822635,-3.0161192000000003,1000.9135,0,0
67.56,-7.778376,5.029831400000001,-3.0255885,1000.9213,0,0
67.6,-7.9217752999999975,4.9488,-3.0113854,1000.9113,0,0
67.64,-7.6541114000000015,5.277692299999999,-3.0539959999999997,1000.92645,0,0
67.68,-7.4044550000000005,5.349164,-3.0207539,1000.9062,0,0
67.72,-7.6816344,5.2156987,-3.0207493,1000.9389,0,0
67.76,-7.6481466000000005,5.1299,-2.7508855,1000.9566,0,0
67.8,-7.9014320000000025,5.0298014,-2.9449919999999996,1000.9490400000001,0,0
67.84,-7.700640700000001,5.153731,-3.044411,1000.90125,0,0
67.88,-7.7770853,5.0822315,-2.8313596000000003,1000.94147,0,0
67.92,-7.6623410000000005,5.201395,-2.9733891,1000.9163,0,0
67.96,-7.6431723,5.2681255,-2.845556,1000.9566,0,0
68.0,-7.743508999999999,5.272891,-2.8834274,1000.8934300000001,0,0
68.04,-7.8629727,5.168026,-2.9544403999999997,1000.9288,0,0
68.08,-7.829464999999999,5.144191999999999,-2.8644822,1000.97186,0,0
68.12,-7.7003660000000025,5.096525700000001,-2.9402287,1000.944,0,0
68.16,-7.757696000000001,5.134657,-2.6750996,1000.9541,0,0
68.2,-7.834135499999999,5.058391,-2.8408005000000003,1000.9239,0,0
68.24,-7.8771033,5.148955,-2.7792485,1000.9237,0,0
68.28,-7.8149285000000015,5.268118,-2.954418,1000.90125,0,0
68.32,-7.7814380000000005,5.1680193,-2.731898,1000.9466,0,0
68.36,-7.6523466,5.291949,-2.641941,1000.9389,0,0
68.4,-7.843509,5.115586,-2.7082197999999997,1000.9087,0,0
68.44,-7.9103694,5.13465,-2.9828103,1000.93646,0,0
68.48,-7.934236999999999,4.9725866,-2.779228,1000.9138,0,0
68.52,-8.091942999999999,5.0154853,-2.6371932,1000.9237699999999,0,0
68.56,-7.9723988,4.9725847000000005,-2.7650177000000005,1000.93146,0,0
68.6,-7.9675827,5.0250163,-2.712936,1000.9415,0,0
68.64,-7.957983500000001,4.9868827000000016,-2.5803692000000003,1000.9466,0,0
68.68,-7.9353166,5.0679445,-2.7698581,1000.9163,0,0
68.72,-7.8540706999999985,5.1108437,-2.7840621,1000.9264,0,0
68.76,-7.8493023,5.001213,-2.7367191,1000.90125,0,0
68.8,-7.8158555,5.0250463,-2.7840643,1000.93146,0,0
68.84,-7.8206444,5.0774784,-2.8834875,1000.9239,0,0
68.88,-7.8158784,4.996447,-2.7272537,1000.93427,0,0
68.92,-7.6820545,5.0012145,-2.7272546,1000.9265,0,0
68.96,-7.8254576,4.9154162,-2.760396,1000.9366,0,0
69.0,-7.5625800000000005,4.986915,-2.803007,1000.9391,0,0
69.04,-7.892398,4.901117299999999,-2.8077424,1000.90375,0,0
69.08,-7.7872543000000025,4.963083,-3.1438862999999997,1000.9315,0,0
69.12,-7.8780813,4.9869156,-2.7509315,1000.9315,0,0
69.16,-7.839853999999999,5.1346793,-2.8550894,1000.9366,0,0
69.2,-7.801626,5.067948,-2.6657145,1000.9113,0,0
69.24,-7.8685584,5.0441150000000015,-2.6893876,1000.9214,0,0
69.28,-8.083657,4.862986599999998,-2.698857,1000.9188,0,0
69.32,-7.9402766000000025,4.958317299999999,-2.774609,1000.9088,0,0
69.36,-7.9498425,4.9440184,-2.6609838,1000.9114,0,0
69.4,-7.5865917000000005,5.244312,-2.7840797999999998,1000.9391,0,0
69.44,-7.6296215,5.3205767,-2.7130647,1000.92145,0,0
69.48,-7.6248527,5.258612599999998,-3.068146,1000.91394,0,0
69.52,-7.9498916,5.0298176,-2.7367387,1000.9417,0,0
69.56,-7.97858,4.9726195,-2.81249,1000.93427,0,0
69.6,-7.8352,4.934487,-2.8314288,1000.9114,0,0
69.64,-7.887786,4.939254,-2.6988664,1000.9338,0,0
69.68,-7.696639,5.120384,-2.7840898,1000.954,0,0
69.72,-7.5819364,5.263381,-3.0492177000000003,1000.9064300000001,0,0
69.76,-7.5723895999999975,5.201416,-2.8409052000000004,1000.9267,0,0
69.8,-7.8257318,5.0393534,-2.907188,1000.924,0,0
69.84,-7.8974357,5.039354,-2.807766,1000.9466,0,0
69.88,-7.9548077999999975,4.963089,-2.7367513,1000.9466,0,0
69.92,-7.907024400000001,5.0059886,-2.8077688,1000.9138,0,0
69.96,-7.950054,5.0107555,-2.8551137000000004,1000.9089,0,0
70.0,-7.8066745,5.153752,-2.713083,1000.9089,0,0
70.04,-7.701525699999999,5.2919827,-2.6799426,1000.92145,0,0
70.08,-7.696764,5.210952,-2.642069,1000.92645,0,0
70.12,-8.002678999999999,5.110854,-2.5805228,1000.8988,0,0
70.16,-7.9070954,5.0822554,-2.5095077,1000.9114,0,0
70.2,-8.093523,4.867760700000002,-2.8219798,1000.91394,0,0
70.24,-7.921461999999999,4.9678583,-2.6373389,1000.9163,0,0
70.28,-8.002734,5.0345907,-2.5994653999999997,1000.9164,0,0
70.32,-7.763752999999999,5.134688400000001,-2.5379188,1000.9267,0,0
70.36,-7.9119425,5.015525,-2.6894212000000004,1000.9367699999999,0,0
70.4,-7.974089599999999,4.9678597,-2.608937,1000.9566699999999,0,0
70.44,-8.017121000000001,4.991693,-2.6988924,1000.92645,0,0
70.48,-7.8546210000000025,5.0488915,-2.6704872,1000.9039,0,0
70.52,-7.878534299999999,5.0870247000000015,-2.6231441,1000.90375,0,0
70.56,-8.079297,4.896363,-2.6562857999999996,1000.93646,0,0
70.6,-7.964593400000001,4.9440284000000005,-2.7083654,1000.934,0,0
70.64,-7.787752999999999,5.153757,-2.5663345,1000.919,0,0
70.68,-7.9161854000000025,5.0107455000000005,-2.7130442,1000.9189,0,0
70.72,-7.8540363,5.07271,-2.7793245,1000.92145,0,0
70.76,-7.8874807,5.0917764000000005,-2.6988385,1000.9367699999999,0,0
70.8,-7.9304875999999975,4.9011135,-2.6941029999999997,1000.9315,0,0
70.84,-7.9734893,5.0965424000000015,-2.5757415,1000.9315,0,0
70.88,-7.715369,5.1537404,-2.7177727000000003,1000.9466,0,0
70.92,-7.763153,5.039343,-2.6656928,1000.9191,0,0
70.96,-7.777481599999999,4.958311,-2.8503335,1000.9544,0,0
71.0,-8.002122,5.096541,-2.6372842999999997,1000.95435,0,0
71.04,-8.026009,5.1537394999999995,-2.7887842999999997,1000.93933,0,0
71.08,-7.5288944,5.334868,-2.765111,1000.92145,0,0
71.12,-7.7344149999999985,5.2633696,-2.3437479,1000.9242,0,0
71.16,-8.00207,5.101306,-2.1117605999999998,1000.95435,0,0
71.2,-7.6101155,5.230003,-3.0539064,1000.93646,0,0
71.24,-7.6292224000000015,5.1632705,-3.309563,1000.9063,0,0
71.28,-7.71525,5.0917726,-3.1627958,1000.93146,0,0
71.32,-7.872965299999999,4.9773746,-2.8645263,1000.9139,0,0
71.36,-7.806037,5.110837999999998,-2.7698374,1000.929,0,0
71.4,-7.6865277,5.1346703,-2.642007,1000.92926,0,0
71.44,-7.8777103,5.1203704000000005,-2.6183343,1000.9642,0,0
71.48,-7.662604300000001,5.249067299999999,-2.6988177,1000.93146,0,0
71.52,-7.504858500000001,5.439728700000001,-2.855052,1000.9694,0,0
71.56,-7.681703999999999,5.3634644,-2.7935042,1000.93427,0,0
71.6,-7.820300599999999,5.2681317000000005,-2.5899231,1000.9167,0,0
71.64,-7.6147585000000015,5.420662,-3.011284,1000.9013,0,0
71.68,-7.9693710000000015,5.196656,-3.0255704,1000.9163,0,0
71.72,-7.87858,5.272921599999999,-2.5900075,1000.9189,0,0
71.76,-7.7256484,5.368253,-2.6752286,1000.9317,0,0
71.8,-7.6635385,5.3825536,-2.7367785,1000.9468400000001,0,0
71.84,-7.7734995,5.3587213,-2.5568736,1000.9617,0,0
71.88,-7.3911395,5.3539553,-2.6468293999999997,1000.934,0,0
71.92,-7.9360547000000015,5.082262,-2.717847,1000.93427,0,0
71.96,-7.8357024000000015,5.2681584,-2.4811292000000003,1000.9468,0,0
72.0,-7.630201299999999,5.182361,-2.5710855,1000.9089,0,0
72.04,-8.151216,5.196661499999999,-2.6136967999999996,1000.9315,0,0
72.08,-7.778419,5.067964599999999,-2.6468399,1000.9367699999999,0,0
72.12,-8.04611,5.1060977,-2.2444177000000005,1000.939,0,0
72.16,-7.9600954,4.924969,-2.358045,1000.9493,0,0
72.2,-7.869302999999999,4.8534713,-2.33911,1000.9141,0,0
72.24,-8.108319999999999,4.9535694,-2.230221,1000.93427,0,0
72.28,-7.482189999999999,5.454058,-1.9556278000000002,1000.95435,1,2
72.32,-7.0424724,5.4635925,-1.8420043999999998,1000.9267,1,2
72.36,-7.506136,5.2776976,-1.8467407,1000.95435,1,2
72.4,-7.3962245,5.5303254,-1.8372741999999997,1000.9217,1,2
72.44,-7.6161179999999975,5.2586319999999995,-2.1781535,1000.9167,1,2
72.48,-7.8312335000000015,5.263399,-2.6468616000000003,1000.9218,1,2
72.52,-8.591249000000001,5.172836,-2.4385505000000003,1000.9116,1,2
72.56,-8.0798235,5.268167,-2.6989438999999997,1000.9191,1,2
72.6,-7.979477,5.263401,-3.2718092999999997,1000.90405,1,2
72.64,-8.74905,5.087039,-2.8977937999999996,1000.9367,1,2
72.68,-8.66164,5.0774726999999995,-2.6325414,1000.9089,1,2
72.72,-7.662638,5.4015975,-2.585195,1000.9191,1,2
72.76,-7.6195803,4.9297075,-3.243274,1000.9041,1,2
72.8,-7.1272287,5.058403500000002,-3.2764118,1000.9443,1,2
72.84,-7.031603,4.6246467,-3.1249082,1000.952,1,2
72.88,-7.456981699999999,4.576980000000002,-3.2622037,1000.93933,1,2
72.92,-7.992272,4.8200736,-3.8492653,1000.93933,1,2
72.96,-8.092626,5.39206,-4.1049213,1000.9367699999999,1,2
73.0,-7.5572550000000005,6.183307,-3.8113851999999997,1000.93427,1,2
73.04,-7.8631406,6.321537,-3.4799747,1000.9745,1,2
73.08,-9.239681,6.564630499999999,-4.2848206,1001.00464,1,2
73.12,-8.1259575,6.2500362,-2.7792761,1000.9595,1,2
73.16,-7.2751307,6.2452693,-1.4205002,1000.92676,1,2
73.2,-5.587816,6.979317999999999,-1.0370095,1000.9619,1,2
73.24,-6.443376,6.469296,-1.5246507,1000.9317,1,2
73.28,-7.8629440000000015,5.473085,-1.7234927,1000.93445,1,2
73.32,-7.380150299999999,5.501683,-1.609864,1000.9292,1,2
73.36,-7.160251,5.7924430000000005,-1.7613622,1000.9368,1,2
73.4,-6.9307895,5.58748,-1.9696732,1000.942,1,2
73.44,-7.360942,5.42065,-1.6619341,1000.94434,1,2
73.48,-6.6582747000000015,5.6542106,-1.3683978,1000.9797,1,2
73.52,-6.710825,6.435925,-1.1790191,1000.95435,1,2
73.56,-6.734694,6.869681,-1.7518794999999998,1000.967,1,2
73.6,-7.7240796000000005,6.8315477,-1.0985284,1000.95435,1,2
73.64,-8.049085,6.960244,-1.046448,1000.9491,1,2
73.68,-9.025456,6.4502544,-2.5899822999999995,1000.9794,1,2
73.72,-7.9309024999999975,6.7600812999999995,-2.9592679,1000.9743699999999,1,2
73.76,-5.727436,6.4550220000000005,-2.665737,1000.977,1,2
73.8,-6.205431,6.3167925,-2.9355988999999996,1000.92676,1,2
73.84,-7.7732353000000005,5.26815,-3.0208209999999998,1000.92676,1,2
73.88,-7.467351,5.506479,-2.4053504,1000.9493,1,2
73.92,-6.1338034000000015,5.9116370000000025,-2.978215,1000.977,1,2
73.96,-6.3297915,5.7448072,-2.807778,1000.977,1,2
74.0,-7.343142999999999,4.4959702,-2.5663261000000004,1000.94434,1,2
74.04,-7.328824000000001,4.724766000000002,-2.9356117000000004,1000.9167,1,2
74.08,-7.0038146999999995,4.986926599999999,-2.7983154999999997,1000.9116,1,2
74.12,-7.596537599999999,4.8486967000000005,-3.1391952,1000.9493,1,2
74.16,-7.926363999999999,5.3777857000000004,-2.9119456,1000.9621599999999,1,2
74.2,-7.6252445999999985,5.6828449999999995,-2.5758035,1000.93695,1,2
74.24,-9.398586,6.3692307,-3.4279997000000004,1000.98224,1,2
74.28,-10.239851,5.96884,-2.5994808999999997,1000.962,1,2
74.32,-8.404428999999999,6.469329,-1.5105697,1000.93933,1,2
74.36,-8.433129,6.226235400000001,0.42106545,1000.8865,1,2
74.4,-8.576545,6.645693,-0.87142897,1001.0097,1,2
74.44,-7.845252,7.074683,-1.2738549,1001.0501,1,2
74.48,-7.563268700000001,6.431198,-0.28910103,1000.9521,1,2
74.52,-7.0948644,6.612328,-0.023975857000000003,1000.9116,1,2
74.56,-5.952516999999999,7.189081699999999,0.35003975,1000.93933,1,2
74.6,-4.738468,7.394045399999999,0.31689695,1000.9217,1,2
74.64,-6.2536874000000005,7.279648,0.22694126,1000.93445,1,2
74.68,-5.8226265999999995,7.203361,0.004504683,1000.9116,1,2
74.72,-5.922992,6.864936,-0.62517023,1000.95435,1,2
74.76,-7.562448,6.8744683,-1.377939,1000.9116,1,2
74.8,-7.165710400000001,7.4559875,-1.4536883,1000.91437,1,2
74.84,-8.188575,7.2081265,-2.1354412999999997,1000.89905,1,2
74.88,-8.288936999999999,6.7600703,-1.8561101000000002,1000.8865,1,2
74.92,-5.808206,7.0317630000000015,-1.3211211999999999,1000.8915,1,2
74.96,-5.8368709999999995,6.6838045,-1.7850916000000001,1000.93695,1,2
75.0,-7.385514,6.2214475,-2.694096,1000.9595,1,2
75.04,-7.0987104999999975,6.445475599999999,-2.3200767000000004,1000.9395,1,2
75.08,-7.5288796,6.2834125,-1.7377436999999998,1000.90674,1,2
75.12,-7.2994356,6.545573,-1.4726157,1000.9116,1,2
75.16,-6.859681599999999,7.1461587,-1.2027537,1000.93445,1,2
75.2,-7.0508574999999984,6.9650292,-1.7661463,1000.9494,1,2
75.24,-7.02695,7.0508265,-1.8750368000000002,1000.9799,1,2
75.28,-7.261146000000001,6.3739758,-1.856098,1000.9142,1,2
75.32,-6.6971110000000005,6.593236999999999,-1.7377361,1000.9269400000001,1,2
75.36,-6.529813,6.7934318,-1.8182205000000002,1000.9621,1,2
75.4,-5.650307,6.593236,-2.0407355,1000.9571,1,2
75.44,-5.85583,6.2309775,-1.8466241,1000.91174,1,2
75.48,-6.238196,6.5360365,-2.471564,1000.9017,1,2
75.52,-5.9513927,7.1032566999999975,-2.25378,1000.8993,1,2
75.56,-7.385321,6.8172630000000005,-2.6751409,1000.90656,1,2
75.6,-7.8154892999999985,7.0603570000000015,-1.8371499,1000.9016,1,2
75.64,-6.9694524000000015,6.7695966,-1.2642858000000001,1000.8992,1,2
75.68,-7.099519,6.278666,-0.8193444,1000.92426,1,2
75.72,-8.175001,6.698124000000001,-0.45479769999999997,1000.90405,1,2
75.76,-7.8930197,7.2224455,-0.5210818,1000.942,1,2
75.8,-7.496312,7.527506,-0.6299746,1000.9395,1,2
75.84,-6.353974,7.761067999999999,-1.2833256000000002,1000.95715,1,2
75.88,-5.9429307,7.68957,-1.6810174999999998,1000.9017,1,2
75.92,-6.306229,6.741026,-1.3401433,1000.89166,1,2
75.96,-6.4018416,6.5646644,-1.5958027,1000.91174,1,2
76.0,-6.1581087,7.027021,-0.5684403,1000.8941699999999,0,0
76.04,-7.1045313,6.369237,-1.1365709,1000.93445,0,0
76.08,-7.472606,6.6933627000000016,-2.3154404,1000.9571,0,0
76.12,-6.9564075,7.1318865,-2.3391142000000005,1000.92944,0,0
76.16,-6.8034835000000005,6.7171970000000005,-2.0976622000000003,1000.9243,0,0
76.2,-6.6171,6.2643747,-2.0313833,1000.91174,0,0
76.24,-6.8274307,5.983148,-2.0739946,1000.88666,0,0
76.28,-7.0760107,6.145212,-2.3912023999999996,1000.93695,0,0
76.32,-7.1429563,6.302509,-2.3580642000000003,1000.9219400000001,0,0
76.36,-6.7558169999999995,6.3263419999999995,-2.6516,1000.9042,0,0
76.4,-7.166902,6.1213812999999995,-2.4101470000000003,1000.87396,0,0
76.44,-7.869563,5.754357,-2.1781642000000003,1000.90674,0,0
76.48,-7.5828050000000005,5.935487,-2.42909,1000.88666,0,0
76.52,-7.3964089999999985,5.8973546,-2.5521863,1000.9145,0,0
76.56,-7.487260000000001,6.0832515,-2.7794406000000005,1000.8918,0,0
76.6,-7.425145599999999,5.8210917,-2.5474572,1000.9219400000001,0,0
76.64,-7.2483233999999985,5.7400603,-2.3438804,1000.91925,0,0
76.68,-7.524549,5.7209697,-2.3674607000000005,1000.9596,0,0
76.72,-7.2138475999999985,5.806768,-2.1591456,1000.9521,0,0
76.76,-6.9987473,5.8639660000000005,-2.5663033,1000.9269400000001,0,0
76.8,-7.4002333,5.897330999999999,-2.5805054,1000.90674,0,0
76.84,-7.0608535,6.0021949999999995,-2.6751918999999997,1000.91425,0,0
76.88,-7.2902694000000015,5.8591986,-2.7509412999999996,1000.9295,0,0
76.92,-7.6726410000000005,5.8448980000000015,-2.5710325000000003,1000.93445,0,0
76.96,-6.845720299999999,6.0498595,-2.3721862000000002,1000.92444,0,0
77.0,-7.213752,5.992661,-2.9119072,1000.9269400000001,0,0
77.04,-7.20418,5.987894,-2.8314211,1000.9421,0,0
77.08,-7.1802654000000015,6.0117264000000015,-2.646778,1000.91675,0,0
77.12,-7.6056547000000005,5.9116282,-2.3295717000000002,1000.92944,0,0
77.16,-7.008166,6.011726,-2.0644436,1000.9421,0,0
77.2,-7.2328024000000015,5.9211607000000015,-1.8466596999999998,1000.9194,0,0
77.24,-7.127633599999999,5.740031,-2.3769119,1000.9243,0,0
77.28,-7.4622100000000025,5.7781634,-2.6704442999999998,1000.93207,0,0
77.32,-7.438292999999999,5.8591948,-2.4621286000000002,1000.93445,0,0
77.36,-6.759547,6.2500515,-2.2727513,1000.93933,0,0
77.4,-7.294872,6.0498557,-2.6704402000000003,1000.93207,0,0
77.44,-7.610325,6.083222,-2.1259822999999995,1000.9445,0,0
77.48,-7.1849084,6.1451864,-1.9792143,1000.942,0,0
77.52,-7.31395,6.1785526,-2.0786357,1000.93713,0,0
77.56,-7.008029,6.040322,-2.2064633,1000.9421,0,0
77.6,-7.476438499999999,6.0546207,-2.1969933999999998,1000.9545,0,0
77.64,-7.189636699999999,6.126119,-2.3768997000000005,1000.93933,0,0
77.68,-7.7973940000000015,6.030806,-2.6515612999999996,1000.91425,0,0
77.72,-7.075658,6.226235400000001,-2.3769669999999996,1000.947,0,0
77.76,-6.879698299999999,6.3168,-2.3959055,1000.91174,0,0
77.8,-7.023110400000001,6.1833363,-2.8788166,1000.9269400000001,0,0
77.84,-7.3624907,5.8163123,-3.0823975,1000.9243,0,0
77.88,-7.410303599999999,5.692382299999999,-2.8504127999999995,1000.8943,0,0
77.92,-7.3529606,5.8353795999999996,-2.424318,1000.9571,0,0
77.96,-7.1331053,5.897344599999999,-2.4953353,1000.92426,0,0
78.0,-6.927588,6.23577,-2.3580389999999998,1000.93195,0,0
78.04,-7.032756,6.126139599999999,-2.3438368,1000.9345,0,0
78.08,-7.391257,5.9402447,-2.5805585,1000.93445,0,0
78.12,-7.195302000000001,5.911646,-2.5426849999999996,1000.9367699999999,0,0
78.16,-7.099717599999999,5.7591166,-2.6279051,1000.91174,0,0
