Timestamp,Ax,Ay,Az,P,Value,Type
0.0,2.7793403,4.382187,8.950189,1004.3776,0,0
0.04,3.1125813,4.968741400000001,8.125403,1004.4206,0,0
0.08,3.657436,5.392966,8.409463,1004.41815,0,0
0.12,3.5474622000000005,5.3405347,7.926551,1004.45605,0,0
0.16,3.5808802,5.3310027,8.750334,1004.408,0,0
0.2,3.924986,5.4883,9.152755,1004.4689,0,0
0.24,6.4200025,7.0707974,11.884502000000001,1004.4966,0,0
0.28,6.725872,8.081309,12.907129,1004.5144,0,0
0.32,6.3912425000000015,8.195707,13.650428,1004.45874,0,0
0.36,8.785886999999999,8.6437645,13.958160000000001,1004.4209,0,0
0.4,6.5297785,6.765742299999999,11.657235,1004.3701,0,0
0.44,4.34059,4.6255593,8.584603999999999,1004.31464,0,0
0.48,2.9018261,3.3957889999999997,5.819708,1004.2386,0,0
0.52,0.22988023,1.5415988999999999,5.635063,1004.2742,0,0
0.56,-3.2068392999999995,1.0077455,3.447764,1004.302,0,0
0.6,-5.826213,0.23079781,1.5113888,1004.335,0,0
0.64,-8.450365,-0.6700805000000001,0.5550354000000001,1004.3073,0,0
0.68,-9.186498,-0.14099161,-2.0536256,1004.312,0,0
0.72,-10.892321,-0.88458836,-3.4265510000000003,1004.3148,0,0
0.76,-10.34266,1.536823,-3.2750513999999997,1004.35004,0,0
0.8,-8.655405,3.0096896,-2.8110814,1004.37036,0,0
0.84,-7.7424808,4.577886599999999,-1.537528,1004.39307,0,0
0.88,-8.669777,3.9439354,-0.70900863,1004.4082599999999,0,0
0.92,-9.238591,3.572144,-1.7789854999999999,1004.3779,0,0
0.96,-9.15735,3.2718515,-1.0214822000000001,1004.4083,0,0
1.0,-9.458494,3.0049245,-0.92206126,1004.3829300000001,0,0
1.04,-8.880153,3.3433511,-1.4097064,1004.3628,0,0
1.08,-8.712876,2.9858594,-2.323448,1004.36053,0,0
1.12,-9.334269,2.9048283,-2.6027796000000003,1004.41864,0,0
1.16,-8.837185,2.7618318,-1.7269162,1004.3706,0,0
1.2,-8.703364,3.109791,-1.9825753000000002,1004.37054,0,0
1.24,-9.420352000000001,3.1479242000000003,-1.4949331,1004.3656,0,0
1.28,-8.91849,3.476817,-1.6511701,1004.37054,0,0
1.32,-8.971083,3.5340157,-2.3755352000000003,1004.37054,0,0
1.36,-9.539895,3.0287611,-1.6322353,1004.4033,0,0
1.4,-9.061933,2.9238975,-1.935239,1004.3984,0,0
1.44,-8.626986500000001,3.081194,-2.0062566000000004,1004.41595,0,0
1.48,-9.033286,2.8857656000000005,-2.0583365000000002,1004.4009,0,0
1.52,-9.267513000000001,2.962031,-2.3092610000000002,1004.39575,0,0
1.56,-8.913822,3.0525959,-2.0678080000000003,1004.37823,0,0
1.6,-8.923399,3.4148544999999997,-2.54125,1004.3425,0,0
1.64,-9.052471,3.7246811,-2.4939077000000003,1004.3606,0,0
1.68,-9.291476,3.1955936,-2.039406,1004.3885,0,0
1.72,-8.866983,2.928689,-2.58868,1004.4034,0,0
1.76,-8.65672,2.919157,-2.4797935,1004.3884,0,0
1.8,-8.747592,3.2051517999999994,-2.2336097,1004.3530000000001,0,0
1.84,-8.862356,3.0097241,-2.2572857999999996,1004.373,0,0
1.88,-9.110958,2.9334605,-2.3709164,1004.3707,0,0
1.92,-8.919819,3.138424,-2.1910138,1004.41614,0,0
1.96,-8.6761,3.1098258,-2.5981772000000003,1004.4010599999999,0,0
2.0,-8.872119999999997,3.2051582,-2.6976042000000002,1004.3984,0,0
2.04,-8.752678,3.2146924,-2.5508428,1004.36816,0,0
2.08,-8.547198,3.391056,-2.546113,1004.3606,0,0
2.12,-8.848374,3.4959216,-2.7923063999999997,1004.36835,0,0
2.16,-8.819744,3.4673235,-2.6360757,1004.3759,0,0
2.2,-8.80546,3.4244260000000004,-2.3898916,1004.3759,0,0
2.24,-9.058839,3.3100297,-2.2289262,1004.37085,0,0
2.28,-8.996757,3.4577940000000003,-2.3567605,1004.3833,0,0
2.32,-8.748255,3.1479697,-2.2715452000000003,1004.3656,0,0
2.36,-8.509316,3.5245290000000002,-2.621896,1004.3555,0,0
2.4,-8.8343935,3.6341608,-2.626635,1004.37585,0,0
2.44,-8.581114,3.6675282,-2.711859,1004.34283,0,0
2.48,-8.485571,3.7485607000000014,-2.4420028,1004.3634,0,0
2.52,-8.112796000000001,3.9725900000000003,-3.0148702000000003,1004.3684,0,0
2.56,-8.165425,4.2728844000000015,-2.7450137000000003,1004.3859,0,0
2.6,-8.155917,4.50168,-3.2989437999999995,1004.39856,0,0
2.64,-8.026912,4.3825173,-3.2374009999999998,1004.3807400000001,0,0
2.68,-8.347214,4.091759,-3.0243580000000003,1004.4113,0,0
2.72,-8.251286,4.067918,-2.9675147999999996,1004.3834,0,0
2.76,-8.222644,4.153716999999999,-2.8018137999999997,1004.3936,0,0
2.8,-8.452109,4.0965185,-2.7639419999999997,1004.3858,0,0
2.84,-8.581201,4.06792,-2.9296493999999997,1004.419,0,0
2.88,-8.50954,4.0107230000000005,-2.8775742,1004.4316,0,0
2.92,-8.413979,4.0250235,-2.929656,1004.4645,0,0
2.96,-8.337542,3.9868919999999997,-2.7260802,1004.3938,0,0
3.0,-8.471411,4.005959,-2.631395,1004.3810000000001,0,0
3.04,2.7793403,4.382187,8.950189,1004.3776,0,0
3.08,3.1125813,4.968741400000001,8.125403,1004.4206,0,0
3.12,3.657436,5.392966,8.409463,1004.41815,0,0
3.16,3.5474622000000005,5.3405347,7.926551,1004.45605,0,0
3.2,3.5808802,5.3310027,8.750334,1004.408,0,0
3.24,3.924986,5.4883,9.152755,1004.4689,0,0
3.28,6.4200025,7.0707974,11.884502000000001,1004.4966,0,0
3.32,6.725872,8.081309,12.907129,1004.5144,0,0
3.36,6.3912425000000015,8.195707,13.650428,1004.45874,0,0
3.4,8.785886999999999,8.6437645,13.958160000000001,1004.4209,0,0
3.44,6.5297785,6.765742299999999,11.657235,1004.3701,0,0
3.48,4.34059,4.6255593,8.584603999999999,1004.31464,0,0
3.52,2.9018261,3.3957889999999997,5.819708,1004.2386,0,0
3.56,0.22988023,1.5415988999999999,5.635063,1004.2742,0,0
3.6,-3.2068392999999995,1.0077455,3.447764,1004.302,0,0
3.64,-5.826213,0.23079781,1.5113888,1004.335,0,0
3.68,-8.450365,-0.6700805000000001,0.5550354000000001,1004.3073,0,0
3.72,-9.186498,-0.14099161,-2.0536256,1004.312,0,0
3.76,-10.892321,-0.88458836,-3.4265510000000003,1004.3148,0,0
3.8,-10.34266,1.536823,-3.2750513999999997,1004.35004,0,0
3.84,-8.655405,3.0096896,-2.8110814,1004.37036,0,0
3.88,-7.7424808,4.577886599999999,-1.537528,1004.39307,0,0
3.92,-8.669777,3.9439354,-0.70900863,1004.4082599999999,0,0
3.96,-9.238591,3.572144,-1.7789854999999999,1004.3779,0,0
4.0,-9.15735,3.2718515,-1.0214822000000001,1004.4083,0,0
4.04,-9.458494,3.0049245,-0.92206126,1004.3829300000001,0,0
4.08,-8.880153,3.3433511,-1.4097064,1004.3628,0,0
4.12,-8.712876,2.9858594,-2.323448,1004.36053,0,0
4.16,-9.334269,2.9048283,-2.6027796000000003,1004.41864,0,0
4.2,-8.837185,2.7618318,-1.7269162,1004.3706,0,0
4.24,-8.703364,3.109791,-1.9825753000000002,1004.37054,0,0
4.28,-9.420352000000001,3.1479242000000003,-1.4949331,1004.3656,0,0
4.32,-8.91849,3.476817,-1.6511701,1004.37054,0,0
4.36,-8.971083,3.5340157,-2.3755352000000003,1004.37054,0,0
4.4,-9.539895,3.0287611,-1.6322353,1004.4033,0,0
4.44,-9.061933,2.9238975,-1.935239,1004.3984,0,0
4.48,-8.626986500000001,3.081194,-2.0062566000000004,1004.41595,0,0
4.52,-9.033286,2.8857656000000005,-2.0583365000000002,1004.4009,0,0
4.56,-9.267513000000001,2.962031,-2.3092610000000002,1004.39575,0,0
4.6,-8.913822,3.0525959,-2.0678080000000003,1004.37823,0,0
4.64,-8.923399,3.4148544999999997,-2.54125,1004.3425,0,0
4.68,-9.052471,3.7246811,-2.4939077000000003,1004.3606,0,0
4.72,-9.291476,3.1955936,-2.039406,1004.3885,0,0
4.76,-8.866983,2.928689,-2.58868,1004.4034,0,0
4.8,-8.65672,2.919157,-2.4797935,1004.3884,0,0
4.84,-8.747592,3.2051517999999994,-2.2336097,1004.3530000000001,0,0
4.88,-8.862356,3.0097241,-2.2572857999999996,1004.373,0,0
4.92,-9.110958,2.9334605,-2.3709164,1004.3707,0,0
4.96,-8.919819,3.138424,-2.1910138,1004.41614,0,0
5.0,-8.6761,3.1098258,-2.5981772000000003,1004.4010599999999,0,0
5.04,-8.872119999999997,3.2051582,-2.6976042000000002,1004.3984,0,0
5.08,-8.752678,3.2146924,-2.5508428,1004.36816,0,0
5.12,-8.547198,3.391056,-2.546113,1004.3606,0,0
5.16,-8.848374,3.4959216,-2.7923063999999997,1004.36835,0,0
5.2,-8.819744,3.4673235,-2.6360757,1004.3759,0,0
5.24,-8.80546,3.4244260000000004,-2.3898916,1004.3759,0,0
5.28,-9.058839,3.3100297,-2.2289262,1004.37085,0,0
5.32,-8.996757,3.4577940000000003,-2.3567605,1004.3833,0,0
5.36,-8.748255,3.1479697,-2.2715452000000003,1004.3656,0,0
5.4,-8.509316,3.5245290000000002,-2.621896,1004.3555,0,0
5.44,-8.8343935,3.6341608,-2.626635,1004.37585,0,0
5.48,-8.581114,3.6675282,-2.711859,1004.34283,0,0
5.52,-8.485571,3.7485607000000014,-2.4420028,1004.3634,0,0
5.56,-8.112796000000001,3.9725900000000003,-3.0148702000000003,1004.3684,0,0
5.6,-8.165425,4.2728844000000015,-2.7450137000000003,1004.3859,0,0
5.64,-8.155917,4.50168,-3.2989437999999995,1004.39856,0,0
5.68,-8.026912,4.3825173,-3.2374009999999998,1004.3807400000001,0,0
5.72,-8.347214,4.091759,-3.0243580000000003,1004.4113,0,0
5.76,-8.251286,4.067918,-2.9675147999999996,1004.3834,0,0
5.8,-8.222644,4.153716999999999,-2.8018137999999997,1004.3936,0,0
5.84,-8.452109,4.0965185,-2.7639419999999997,1004.3858,0,0
5.88,-8.581201,4.06792,-2.9296493999999997,1004.419,0,0
5.92,-8.50954,4.0107230000000005,-2.8775742,1004.4316,0,0
5.96,-8.413979,4.0250235,-2.929656,1004.4645,0,0
6.0,-8.337542,3.9868919999999997,-2.7260802,1004.3938,0,0
6.04,-8.471411,4.005959,-2.631395,1004.3810000000001,0,0
6.08,-8.308933,4.0965242,-2.797103,1004.3836699999999,0,0
6.12,-8.323308,3.9964275000000002,-2.7544963,1004.4013699999999,0,0
6.16,-8.490637,4.129892,-2.9864855,1004.3963,0,0
6.2,-8.380737,4.12036,-2.9391446,1004.4036,0,0
6.24,-8.266057,4.1632595000000014,-2.9107416,1004.3835,0,0
6.28,-8.337794,4.1060620000000005,-2.8349946,1004.3581,0,0
6.32,-8.514683999999999,4.1203623,-2.8634042999999996,1004.3710000000001,0,0
6.36,-8.275727999999999,4.0965304,-2.8160634,1004.38855,0,0
6.4,-8.285324000000001,4.1394305000000005,-2.7829257999999997,1004.39124,0,0
6.44,-8.271019,4.0202675,-2.7829292000000003,1004.3861699999999,0,0
6.48,-8.256719,4.029801399999998,-2.8160737,1004.3964,0,0
6.52,-8.4240465,4.1918654,-2.7308574,1004.3709,0,0
6.56,-8.261569999999999,4.3205633,-2.8870962000000002,1004.38354,0,0
6.6,-8.43368,4.182334,-2.8160833999999997,1004.3838,0,0
6.64,-8.534089999999999,4.010739,-2.6598512999999997,1004.39136,0,0
6.68,-8.390733,4.0536385,-2.6314482999999997,1004.37366,0,0
6.72,-8.443344999999999,4.005974,-2.7498113999999996,1004.37854,0,0
6.76,-8.505902,4.0870156,-2.7451155,1004.37366,0,0
6.8,-8.372119,4.048885,-2.7829955,1004.3835,0,0
6.84,-8.3960705,3.9678546999999997,-2.7877347,1004.3559,0,0
6.88,-8.319646,4.029821,-2.7403953,1004.3810000000001,0,0
6.92,-8.491767,3.9201915,-2.7167277000000003,1004.3759,0,0
6.96,-8.487042,3.9964578,-2.7119985,1004.3762,0,0
7.0,-8.420174000000001,3.9773924,-2.8161597,1004.3936,0,0
7.04,-8.534938,4.005993,-2.7877579,1004.35596,0,0
7.08,-8.276883999999999,3.9535622999999998,-2.7404189999999997,1004.3889999999999,0,0
7.12,-8.449005999999999,3.9773962,-2.783033,1004.3813,0,0
7.16,-8.434718,4.01553,-2.7546313,1004.3788,0,0
7.2,-8.358294,4.134695,-2.835121,1004.3939999999999,0,0
7.24,-8.425263000000001,4.106097,-2.7972507,1004.3861699999999,0,0
7.28,-8.492231,3.9678687999999993,-2.7593799999999997,1004.3760000000001,0,0
7.32,-8.477938,3.9297370000000003,-2.7309778,1004.3811599999999,0,0
7.36,-8.253339,4.0965676,-2.8162017,1004.4064300000001,0,0
7.4,-8.425464,4.0679693,-2.8540816,1004.3988,0,0
7.44,-8.492433,4.177601999999999,-2.8446178,1004.4013699999999,0,0
7.48,-8.129218,4.2681675000000014,-2.7309964,1004.3862,0,0
7.52,-8.373041,4.1108723,-2.934581,1004.3837,0,0
7.56,-8.473471,3.9583440000000003,-2.8067567,1004.37604,0,0
7.6,-8.478297999999999,4.0060105,-2.7404797000000003,1004.37604,0,0
7.64,-8.401875,3.9249806000000014,-2.910923,1004.40656,0,0
7.68,-8.440161,3.8630164,-3.0482252,1004.4013,0,0
7.72,-8.368519000000001,4.029847,-2.9061977999999997,1004.41156,0,0
7.76,-8.272972,4.001249,-3.0577035,1004.3863,0,0
7.8,-8.368624,3.8820864999999998,-2.8399259999999997,1004.41156,0,0
7.84,-8.497726,3.7486246,-2.76418,1004.3710000000001,0,0
7.88,-8.430862,3.9488208,-2.9346232000000003,1004.37604,0,0
7.92,-8.258841,4.015554,-3.0056439999999998,1004.39386,0,0
7.96,-8.340146,3.9249904000000004,-2.9393667999999997,1004.3735,0,0
8.0,-8.416675999999999,3.9535909,-3.0435282999999997,1004.3861699999999,0,0
8.04,-8.330687,4.0632234,-3.185565,1004.3837,0,0
8.08,-8.311624,4.048925,-2.972522,1004.3838,0,0
8.12,-8.36425,3.9917269999999996,-2.9677919999999998,1004.3837,0,0
8.16,-8.292603999999999,3.9678961999999998,-2.839968,1004.38104,0,0
8.2,-8.330895,3.9249980000000004,-2.9109886,1004.4042,0,0
8.24,-8.292709,4.0536959999999995,-2.9346653999999996,1004.3889999999999,0,0
8.28,-8.321439999999999,4.220527,-2.9252013999999997,1004.37866,0,0
8.32,-8.407525,4.158563,-2.835252,1004.37866,0,0
8.36,-8.235503999999999,4.144264700000001,-2.9488828,1004.3433,0,0
8.4,-8.527123,3.8916388,-2.9820282000000002,1004.37885,0,0
8.44,-8.278626,4.001271,-2.9110169999999997,1004.37354,0,0
8.48,-8.436408,3.9393065000000003,-2.9962406,1004.3838,0,0
8.52,-8.393442,4.0060396,-3.0530584,1004.3761599999999,0,0
8.56,-8.321794500000001,3.9393089999999997,-3.0246565,1004.3762,0,0
8.6,-8.312286,4.001275499999998,-3.1240835,1004.3659,0,0
8.64,-8.608686,3.7581824999999998,-2.863696,1004.3713,0,0
8.68,-8.436666,4.0251107,-2.8684351,1004.3837,0,0
8.72,-8.267322,4.287221,-3.1570463,1004.41174,0,0
8.76,-8.329467999999999,4.110859,-3.1475785,1004.3812,0,0
8.8,-8.463312,4.058426399999999,-3.1097040000000002,1004.3686,0,0
8.84,-8.324707,3.953563,-3.0481575,1004.3812,0,0
8.88,-8.257797,4.063194,-2.9297981,1004.3533,0,0
8.92,-8.329504,3.8868315000000004,-2.915596,1004.3939999999999,0,0
8.96,-8.229136,3.8391664,-2.7925022,1004.37103,0,0
9.0,-8.300842,3.9011316,-2.7025490000000003,1004.3509,0,0
9.04,-8.439466,3.9630970000000003,-2.7451596,1004.3887300000001,0,0
9.08,-8.310421,3.9106653,-2.801973,1004.39636,0,0
9.12,-8.353447000000001,3.8772998,-2.650473,1004.3861699999999,0,0
9.16,-8.525528,3.9869303999999994,-2.6457396,1004.36096,0,0
9.2,-8.391703,3.9916973,-2.7451625,1004.34564,0,0
9.24,-8.492087,4.3587217,-2.7120227999999997,1004.3887300000001,0,0
9.28,-8.233988,4.191893,-2.5037096,1004.34564,0,0
9.32,-8.38217,3.8201017,-2.6504772,1004.3559,0,0
9.36,-9.065691000000001,3.5865407,-2.6599467,1004.4042,0,0
9.4,-8.855388,3.4006453000000003,-2.5652597000000004,1004.4064,0,0
9.44,-8.4586735,3.7247714999999997,-2.6457450000000002,1004.4013699999999,0,0
9.48,-8.334407,3.8677685,-2.4326974999999997,1004.3735,0,0
9.52,-8.621203999999999,3.929734,-2.6315436,1004.35834,0,0
9.56,-8.740708999999999,3.8582358,-2.7593734,1004.3510000000001,0,0
9.6,-8.516067,4.058431,-2.6457484,1004.34827,0,0
9.64,-8.391801,4.096564,-2.6268115,1004.4064,0,0
9.68,-8.587781,3.9488008000000003,-2.659953,1004.40155,0,0
9.72,-8.491753,3.886825,-2.7403986000000002,1004.3836699999999,0,0
9.76,-8.60168,3.896358,-2.6551788,1004.4293,0,0
9.8,-8.639909,3.8915913,-2.9345076,1004.4444,0,0
9.84,-8.228837,3.8296258,-2.5510201,1004.4165,0,0
9.88,-8.506058,3.9011237999999997,-2.5510192000000003,1004.4039,0,0
9.92,-8.396113,4.020288,-2.5652217999999998,1004.3887300000001,0,0
9.96,-8.29573,4.010754,-2.7877376,1004.4114400000001,0,0
10.0,-8.644645,3.7819593,-2.9250347999999997,1004.3939999999999,0,0
10.04,-8.768912,3.667562,-2.749861,1004.3709,0,0
10.08,-8.448655,3.8296247,-2.6030936000000002,1004.35565,0,0
10.12,-8.486886,3.944022,-2.6362338,1004.3735,0,0
10.16,-8.329143,3.929722,-2.7640617,1004.4066,0,0
10.2,-8.587242999999999,3.839157,-2.7451231,1004.414,0,0
10.24,-8.44384,3.953554,-2.6457,1004.40894,0,0
10.28,-8.606346,3.8391566,-2.7309183999999997,1004.3989,0,0
10.32,-8.587216,3.8057904000000002,-2.6930425,1004.4088,0,0
10.36,-8.5919895,3.7771912000000003,-2.7403858,1004.4088,0,0
10.4,-8.491603,3.8868213,-2.9486988,1004.3939999999999,0,0
10.44,-8.687567999999999,3.6008277,-2.8729475,1004.37103,0,0
10.48,-8.687558000000001,3.6961589999999998,-3.0149786,1004.3684,0,0
10.52,-8.381642,3.7914898,-3.0149779999999997,1004.3761599999999,0,0
10.56,-8.419872,3.5007297999999993,-3.0197115,1004.38104,0,0
10.6,-8.52502,3.4721303,-3.2422277999999998,1004.4039300000001,0,0
10.64,-8.238222,3.4101646,-3.1806799999999997,1004.3835,0,0
10.68,-8.395946499999999,3.4435300000000004,-3.2516952,1004.3760000000001,0,0
10.72,-8.196035,3.6628122000000003,-3.3085847000000004,1004.41394,0,0
10.76,-8.143481,3.4959834,-3.3322589999999996,1004.4141,0,0
10.8,-8.74098,3.1670916,-3.3559332000000004,1004.3964,1,1
10.84,-8.411201,3.3863537000000004,-3.0434647,1004.3863,1,1
10.88,-8.492482,3.062229,-2.8967006,1004.39886,1,1
10.92,-8.545084,3.3100902999999997,-2.9393122000000003,1004.4139,1,1
10.96,-8.282219,3.0717630000000002,-2.906174,1004.4343,1,1
11.0,-8.559474,3.1194290000000002,-2.5321583999999997,1004.3761599999999,1,1
11.04,-9.462879,2.7762377000000003,-2.598442,1004.3785,1,1
11.08,-10.146419,2.9954998,-2.1865509999999997,1004.37604,1,1
11.12,-10.132103,3.4435565,-2.1865532,1004.3760000000001,1,1
11.16,-9.496414,3.2290623,-2.4327447,1004.4114,1,1
11.2,-8.6265135,3.6532864999999997,-1.8835561,1004.4091,1,1
11.24,-7.154361200000001,3.8677824,-1.6326351000000001,1004.3887300000001,1,1
11.28,-7.775759700000001,4.163309,-0.8088508000000001,1004.39355,1,1
11.32,-8.081691000000001,5.497946,-0.41116303,1004.3961,1,1
11.36,-9.185852,5.888804,-1.2444208,1004.4112,1,1
11.4,-9.338828999999999,6.436959,-1.291767,1004.4417,1,1
11.44,-9.324516000000001,7.285406599999999,-1.5805681999999999,1004.4011,1,1
11.48,-10.8492985,6.0937676,-2.5085137000000004,1004.3887300000001,1,1
11.52,-8.636275999999999,5.893573,-3.7015860000000003,1004.38354,1,1
11.56,-6.499728,4.816332,-3.7631354,1004.3204300000001,1,1
11.6,-6.174725,4.315844,-2.4138322,1004.3256,1,1
11.64,-6.8917217000000015,4.358743,-2.4327722,1004.3838,1,1
11.68,-8.067578,3.967887,-3.10506,1004.4114400000001,1,1
11.72,-7.564,3.8772807,-3.1995928,1004.43427,1,1
11.76,-6.3451059999999995,3.934478,-2.3947396,1004.3887300000001,1,1
11.8,-6.909078,3.4864209,-2.2432346,1004.3709,1,1
11.84,-7.869772,4.048873,-3.3084714,1004.4317,1,1
11.88,-7.640297,4.5112276,-3.4599686000000003,1004.42395,1,1
11.92,-9.102875,4.0917697,-2.7640069,1004.3987400000001,1,1
11.96,-10.130486999999999,4.61609,-3.6351335,1004.4013699999999,1,1
12.0,-11.095964,5.4788356,-3.8529120000000003,1004.4393,1,1
12.04,-11.440071000000001,5.95549,-2.9202306,1004.4164400000001,1,1
12.08,-8.538682000000001,5.9030569999999996,-1.4004825,1004.43396,1,1
12.12,-6.5932584,5.521732,0.10979661,1004.4845,1,1
12.16,-8.313943,4.4111223,-0.6761105,1004.4971300000001,1,1
12.2,-8.213526,3.710438,-0.81813884,1004.4566699999999,1,1
12.24,-7.8024210000000025,3.8343672999999994,-0.7802598000000001,1004.36816,1,1
12.28,-7.807157000000001,3.8010006,-1.1448048000000002,1004.3682,1,1
12.32,-8.036541,3.9439962,-1.5519593999999999,1004.3757300000001,1,1
12.36,-7.391222,4.287186599999999,-1.6040338,1004.3861699999999,1,1
12.4,-6.994460000000001,4.4444823,-0.71869653,1004.4113,1,1
12.44,-7.3433385,4.2204533,-1.8596838,1004.4873,1,1
12.48,-8.825033,4.5493440000000005,-1.9685711,1004.55035,1,1
12.52,-8.820211,5.497888,-2.7071345,1004.5202,1,1
12.56,-10.0199,5.497887,-3.4977763,1004.487,1,1
12.6,-10.08677,5.626582599999999,-4.6624355,1004.3558,1,1
12.64,-8.719702,5.3405886,-3.393611,1004.1632699999999,1,1
12.68,-8.380295,4.268112,-3.0148547000000003,1004.2113,1,1
12.72,-8.104842,3.6532697999999995,-2.593655,1004.2746,1,1
12.76,-7.2636285,3.7867347999999996,-3.0955049999999997,1004.3506,1,1
12.8,-5.9635496,3.9106655,-3.0244915,1004.3759,1,1
12.84,-6.8956385,3.138484,-2.872993,1004.4744,1,1
12.88,-7.168117999999999,3.6818724,-3.786736,1004.5934,1,1
12.92,-6.9817333,3.8105697999999997,-3.5594869,1004.5277,1,1
12.96,-8.057217999999999,3.7104730000000004,-3.5642242,1004.4164,1,1
13.0,-9.672818,4.2967606,-4.2980595,1004.4998,1,1
13.04,-9.12795,5.1356745,-3.9619195,1004.4645,1,1
13.08,-10.915628,4.3968587,-3.8909059999999998,1004.4594,1,1
13.12,-9.252283,5.0784774000000015,-2.2480700000000002,1004.4493,1,1
13.16,-8.100379,5.4359699999999975,-1.5473807,1004.4262,1,1
13.2,-9.276239,4.88305,-1.5710553999999999,1004.48193,1,1
13.24,-9.711232,4.563691,-1.6752151000000002,1004.4214,1,1
13.28,-7.923615,4.863985,-1.8409218999999997,1004.3579,1,1
13.32,-7.101514999999999,4.6923895,-1.7130953000000002,1004.3124,1,1
13.36,-7.015509,4.315832599999999,-1.5758003999999999,1004.3958,1,1
13.4,-6.413283,4.3062997,-1.5142559,1004.4035,1,1
13.44,-6.241239,4.91642,-1.3296166999999999,1004.3352699999999,1,1
13.48,-7.154207,5.08325,-1.4621823999999999,1004.4337,1,1
13.52,-8.339628999999999,4.935487999999999,-1.9971729999999999,1004.45416,1,1
13.56,-8.855875,5.660005,-2.4895537,1004.4162,1,1
13.6,-9.037539,5.688605,-3.2517958,1004.29224,1,1
13.64,-8.851156,5.77917,-2.5179652999999997,1004.2315,1,1
13.68,-9.295703,5.1547523,-3.422239,1004.3327,1,1
13.72,-8.275814,5.488367,-3.2847774,1004.41364,1,1
13.76,-8.122816,5.035543,-3.6256504,1004.4618,1,1
13.8,-8.911437,4.482621,-3.47888,1004.4717400000001,1,1
13.84,-7.6112885,5.097506,-3.3463125,1004.33014,1,1
13.88,-6.660063,5.016474,-2.943884,1004.3326400000001,1,1
13.92,-6.8081949999999996,4.4301863,-3.3983830000000004,1004.4261,1,1
13.96,-6.5022464000000015,4.9783397,-3.4031135999999997,1004.46155,1,1
14.0,-6.4352927000000015,5.674256,-3.2563438,1004.4387,1,1
14.04,-8.122511,5.3691949999999995,-3.5830127999999997,1004.4388,1,1
14.08,-7.998188499999999,5.9793134000000006,-3.5688055,1004.454,1,1
14.12,-8.131998,6.0555769999999995,-3.5640687999999994,1004.444,1,1
14.16,-7.0995026,5.3405924,-2.4656816000000004,1004.43115,0,0
14.2,-7.591775,4.9497337,-2.2431602,1004.4083,0,0
14.24,-7.4578960000000025,5.1689940000000005,-2.3804537999999997,1004.4792,0,0
14.28,-7.883255,4.8448668,-2.1674016,1004.4337,0,0
14.32,-7.3287554,5.5503163,-2.5603535,1004.42615,0,0
14.36,-7.5820440000000024,5.8220089999999995,-3.1947598,1004.4008,0,0
14.4,-7.9309225,5.7266765,-3.6871336,1004.3985,0,0
14.44,-7.20913,5.7743410000000015,-3.5403629999999997,1004.3933,0,0
14.48,-7.2616663,5.316751,-3.3320456,1004.3982,0,0
14.52,-7.1755857,5.321516,-3.1994784,1004.3604,0,0
14.56,-7.452767,4.8448595999999995,-2.8727999,1004.3248,0,0
14.6,-7.3380075,5.0784197,-3.15686,1004.3526,0,0
14.64,-7.5482883,5.1642165,-3.1757948,1004.3754,0,0
14.68,-7.6486115,5.235714,-2.8917257999999997,1004.3756,0,0
14.72,-7.668659700000001,5.450232,-2.7923883999999997,1004.3908,0,0
14.76,-7.697333,5.3882666,-2.7166376,1004.3678,0,0
14.8,-7.6782103,5.421633,-2.8728724,1004.393,0,0
14.84,-7.6447460000000005,5.335833999999998,-2.7403087999999998,1004.39044,0,0
14.88,-7.8168134999999985,5.431165,-2.7450422999999997,1004.36273,0,0
14.92,-7.8502674,5.3406005,-2.7734485,1004.35504,0,0
14.96,-7.745108,5.431165,-2.6503537,1004.383,0,0
15.0,-7.8215785,5.402565,-2.8207915,1004.39307,0,0
15.04,-7.7881145000000025,5.4406977,-2.5888052000000004,1004.3525400000001,0,0
15.08,-7.6972947,5.435931,-2.7545092,1004.3552,0,0
15.12,-7.7785449999999985,5.4359307,-2.513054,1004.3172599999999,0,0
15.16,-7.7928796,5.2548018,-2.527257,1004.30975,0,0
15.2,-8.055763,5.102271599999999,-2.5177875,1004.3424699999999,0,0
15.24,-8.089217,4.9402084,-2.5083184,1004.3221,0,0
15.28,-7.9314800000000005,4.9402084,-2.536724,1004.3349,0,0
15.32,-8.701022,4.349155400000001,-2.8160536,1004.3503,0,0
15.36,-8.108321,4.6589813,-2.1058924,1004.31964,0,0
15.4,-7.9362435,4.8591766,-2.1674392000000005,1004.3324,0,0
15.44,-8.003158,4.7590785,-2.120095,1004.3781,0,0
15.48,-8.2755995,4.7781453,-2.3662834,1004.3576,0,0
15.52,-7.993586,4.97834,-2.4704397,1004.3526,0,0
15.56,-7.960124,4.8877760000000015,-2.3946888,1004.3601,0,0
15.6,-8.089172,4.997406,-2.6976902000000003,1004.3474,0,0
15.64,-8.103507,4.5159839999999996,-2.5935327999999997,1004.41583,0,0
15.68,-8.170419,4.339621,-2.4515002,1004.4815,0,0
15.72,-8.222835,4.2204533,-2.494095,1004.4561,0,0
15.76,-8.37578,4.4206486,-2.5793138,1004.3979,0,0
15.8,-8.342307,4.406348,-2.6645317000000004,1004.3448,0,0
15.84,-8.265819,4.554111,-2.6077178,1004.3475300000001,0,0
15.88,-8.437883,4.3920484,-2.7828897999999995,1004.37286,0,0
15.92,-8.1702,4.325316,-2.5887778,1004.3777,0,0
15.96,-8.041138,4.1918526,-2.4088700000000003,1004.3096,0,0
16.0,-8.390048,3.8581932,-2.3331182,1004.3399,0,0
16.04,-8.361361,4.253817,-2.4893527,1004.34973,0,0
16.08,-8.447386999999999,4.3825135,-2.5603678,1004.3447,0,0
16.12,-8.657684,4.4254120000000015,-2.5840387000000002,1004.365,0,0
16.16,-8.413903,4.434945,-2.707132,1004.3623699999999,0,0
16.2,-8.19402,4.2633486,-2.4988172000000004,1004.3575,0,0
16.24,-8.389981,3.9821224,-2.4656754000000003,1004.33215,0,0
16.28,-8.595502999999999,3.9058568,-2.5603623,1004.3473,0,0
16.32,-8.361282000000001,4.139418,-2.6029713,1004.3701,0,0
16.36,-8.609817999999999,4.091752,-2.569829,1004.37006,0,0
16.4,-8.337359,4.082218,-2.522484,1004.3725,0,0
16.44,-8.442503,4.2585807,-2.5177486,1004.3598,0,0
16.48,-8.361238499999999,4.2728806,-2.612436,1004.3877,0,0
16.52,-8.705372,3.9916532,-2.6124349,1004.34973,0,0
16.56,-8.442473,3.9201546,-2.5982307999999996,1004.37506,0,0
16.6,-8.370764,4.0488515,-2.5272136,1004.37756,0,0
16.64,-8.528486000000001,3.9344537000000006,-2.5887597,1004.3598599999999,0,0
16.68,-8.542814,4.0917497,-2.5982277000000003,1004.3674,0,0
16.72,-8.346831,4.129882,-2.5745544,1004.35736,0,0
16.76,-8.408730499999999,4.063144,-2.5792672999999997,1004.36755,0,0
16.8,-8.346574,4.125108999999999,-2.5603278,1004.3902,0,0
16.84,-8.442149,4.263338,-2.655014,1004.40515,0,0
16.88,-8.375212,4.1012754000000005,-2.6550124,1004.32935,0,0
16.92,-8.451669,4.120341000000002,-2.5981972,1004.3774,0,0
16.96,-8.332152,4.0345426,-2.4751012,1004.342,0,0
17.0,-8.566343,4.263336,-2.5887249,1004.3749,0,0
17.04,-8.298655,4.2824029999999995,-2.6171296,1004.3799,0,0
17.08,-8.542405,4.1870704,-2.6313307,1004.3623699999999,0,0
17.12,-8.298614500000001,4.1632370000000005,-2.4845626,1004.34955,0,0
17.16,-8.308154,4.2681010000000015,-2.5177014,1004.36224,0,0
17.2,-8.461088,4.101271,-2.579247,1004.3545,0,0
17.24,-8.408491,4.310999400000001,-2.508229,1004.3848,0,0
17.28,-8.42281,4.1727686,-2.612384,1004.36475,0,0
17.32,-8.374988,4.229967,-2.508225,1004.3545,0,0
17.36,-8.3462925,4.168001,-2.631318,1004.35956,0,0
17.4,-8.360613,4.353896,-2.5650346,1004.35693,0,0
17.44,-8.269777000000001,4.2490315,-2.6881275000000002,1004.3368,0,0
17.48,-8.336669,4.191832499999999,-2.6123745,1004.35205,0,0
17.52,-8.293637,4.244264,-2.5934357999999995,1004.3343,0,0
17.56,-8.393991,4.349128,-2.6407776000000003,1004.33417,0,0
17.6,-8.317492999999999,4.4539919999999995,-2.6975887000000003,1004.36975,0,0
17.64,-8.298355,4.3205276,-2.6218364,1004.35187,0,0
17.68,-8.484748,4.244262,-2.5744905,1004.3366,0,0
17.72,-8.255297,4.420624299999999,-2.5934265,1004.3848,0,0
17.76,-8.354337,4.315727,-2.6122417,1004.37463,0,0
17.8,-8.344711,4.201328,-2.6217046,1004.3721300000001,0,0
17.84,-8.335107,4.206094,-2.5696217999999997,1004.3391,0,0
17.88,-8.306349,4.3824544,-2.631162,1004.3266,0,0
17.92,-8.416212,4.1774907,-2.564874,1004.3392,0,0
17.96,-8.334889,4.3490853,-2.5980086,1004.33417,0,0
18.0,-8.358704,4.239452,-2.5222504,1004.33655,0,0
18.04,-8.439903,4.3872137,-2.5743237,1004.3315,0,0
18.08,-8.329901,4.3872127999999995,-2.593255,1004.3366,0,0
18.12,-8.368068,4.2346807,-2.484357,1004.3266,0,0
18.16,-8.310639,4.310944,-2.6121795,1004.3291,0,0
18.2,-8.425284,4.1917787,-2.526954,1004.35187,0,0
18.24,-8.377419,4.2680416,-2.5932293,1004.36176,0,0
18.28,-8.420366,4.234674,-2.5790195,1004.35425,0,0
18.32,-8.310355,4.3633690000000005,-2.5174654,1004.3567,0,0
18.36,-8.319854,4.4015,-2.6026792999999997,1004.3366,0,0
18.4,-8.3723545,4.387199,-2.6878915,1004.35913,0,0
18.44,-8.348386,4.3585973,-2.5979314,1004.3517,0,0
18.48,-8.224044000000001,4.377662,-2.4653617999999997,1004.33136,0,0
18.52,-8.228752,4.339527599999999,-2.7352164,1004.32385,0,0
18.56,-8.515474000000001,4.387192199999999,-2.730476,1004.3137,0,0
18.6,-7.8653369999999985,4.5826187,-2.6736555,1004.3265,0,0
18.64,-8.08037,4.5826173,-2.5505555,1004.3187,0,0
18.68,-8.477017,4.3681197,-3.05713,1004.3288,0,0
18.72,-8.206,4.5588174000000015,-2.6737742,1004.27325,0,0
18.76,-8.21077,4.372922,-2.626429,1004.2632,0,0
18.8,-8.421072,4.644614700000001,-2.564881,1004.25037,0,0
18.84,-8.019559,4.677981,-2.5317395,1004.2983,0,0
18.88,-8.162942999999999,4.6684470000000005,-2.5412072999999995,1004.3339,0,0
18.92,-8.483179,4.544517,-2.583816,1004.32104,0,0
18.96,-8.186821,4.5016169999999995,-2.3044853,1004.316,0,0
19.0,-8.225050999999999,4.3967529999999995,-2.5412044999999996,1004.31616,0,0
19.04,-8.229819,4.458718,-2.3944368,1004.3363,0,0
19.08,-7.7996273,4.6112475,-2.4323113,1004.3489400000001,0,0
19.12,-7.8999944000000015,4.744711,-2.2902782000000004,1004.3692,0,0
19.16,-7.7709284,4.7304106,-3.0193756,1004.3541,0,0
19.2,-8.320597,4.4301176,-3.0998597,1004.3564,0,0
19.24,-8.655172,4.4777830000000005,-2.5838087000000005,1004.37177,0,0
19.28,-8.502208999999999,4.606479599999999,-2.3423529999999997,1004.3891,0,0
19.32,-8.578675,4.754243,-1.9067869,1004.4119999999999,0,0
19.36,-7.899934299999999,5.207065,-1.812098,1004.3716,0,0
19.4,-8.000299,5.4263262999999995,-1.8878473000000002,1004.35645,0,0
19.44,-8.215380999999999,4.9496709999999995,-1.7884240000000002,1004.3894,0,0
19.48,-8.100655999999999,4.782841,-2.2145194999999998,1004.3767,0,0
19.52,-8.698121,4.639844,-1.9541262,1004.3741,0,0
19.56,-8.277486999999999,4.878172,-2.1624392999999995,1004.3539,0,0
19.6,-7.7564793000000005,4.79714,-2.5364562999999998,1004.3486300000001,0,0
19.64,-7.7564697,4.9306035,-2.6027372000000004,1004.3512,0,0
19.68,-8.334814999999999,4.6064773,-2.380219,1004.3765,0,0
19.72,-8.171636,4.7828230000000005,-2.356486,1004.4018,0,0
19.76,-8.276759,4.7160910000000005,-2.2854674,1004.3941699999999,0,0
19.8,-8.195462,4.935352,-2.1671033,1004.4092400000001,0,0
19.84,-8.061592999999998,5.0974135,-1.9445830000000002,1004.4195,0,0
19.88,-8.061558999999999,5.1164794,-2.0061273999999996,1004.4346,0,0
19.92,-7.8942266000000005,4.930582,-2.0629365,1004.3968,0,0
19.96,-8.357833,4.7685184000000005,-2.16709,1004.4042,0,0
20.0,-8.090127,4.7923503,-2.2238995999999998,1004.4118699999999,0,0
20.04,-8.137889,4.987778,-2.1718178,1004.3939999999999,0,0
20.08,-8.2477865,5.1355405,-2.1292047999999997,1004.41425,0,0
20.12,-8.008761,5.283303299999999,-2.1386703999999996,1004.38135,0,0
20.16,-8.003946000000001,5.2451696,-2.4227314,1004.41925,0,0
20.2,-7.936994,5.3405004,-2.4132592999999996,1004.3763,0,0
20.24,-8.022991000000001,5.211802,-2.2475517000000003,1004.43695,0,0
20.28,-7.8413243,5.226101,-2.3895807000000002,1004.40436,0,0
20.32,-7.8173910000000015,5.311898,-2.3943117000000003,1004.39404,0,0
20.36,-7.707416,5.2975974,-2.3422297999999997,1004.4018599999999,0,0
20.4,-7.826877599999999,5.1689,-2.1954602999999997,1004.42926,0,0
20.44,-8.185325,5.1355330000000015,-2.2570042999999997,1004.41156,0,0
20.48,-7.979757000000001,5.164130999999999,-2.3990327999999996,1004.4013699999999,0,0
20.52,-7.8936863,5.2403949999999995,-2.4558427000000003,1004.414,0,0
20.56,-7.745473,5.330959,-2.3800886,1004.4317599999999,0,0
20.6,-7.6355033,5.39769,-2.5079142999999995,1004.4293,0,0
20.64,-7.7262826,5.145062,-2.5031765,1004.4215,0,0
20.68,-8.127748500000001,4.8876667000000005,-2.569455,1004.4469,0,0
20.72,-7.9938803,5.0401955,-2.4652946,1004.43427,0,0
20.76,-7.8653092000000004,5.259469,-2.4842765,1004.41394,0,0
20.8,-7.741017999999999,5.1403045999999994,-2.342243,1004.4317599999999,0,0
20.84,-8.257219000000001,5.1069384000000015,-2.1718028,1004.4342,0,0
20.88,-7.8126817,5.2594676,-2.1291919,1004.41394,0,0
20.92,-8.042095,5.3547983,-1.9776893,1004.4521,0,0
20.96,-7.750511,5.2833,-2.4795349,1004.38855,0,0
21.0,-7.86999,5.1117034000000015,-2.6925814,1004.41394,0,0
21.04,-8.032487,5.025905000000002,-2.3280306,1004.4091,0,0
21.08,-8.166305,4.997305,-2.2002002999999997,1004.4066,0,0
21.12,-7.865161,5.388162,-2.1907299,1004.3960599999999,0,0
21.16,-7.9033833,5.559758,-2.1055092999999996,1004.42645,0,0
21.2,-7.5401034,5.912483,-2.0960388,1004.434,0,0
21.24,-7.659581699999999,5.731353299999999,-2.043959,1004.4367,0,0
21.28,-7.721702599999999,5.6741543,-2.3185532,1004.4212,0,0
21.32,-7.869859700000001,5.574056,-2.0344872,1004.457,0,0
21.36,-7.444441,5.6407875999999995,-1.9492666,1004.4187,0,0
21.4,-7.869826299999999,5.3738594000000015,-1.9634682,1004.4291400000001,0,0
21.44,-7.9319487,5.283295,-1.8403721999999998,1004.4111300000001,0,0
21.48,-8.003631,5.2260957,-1.7362138999999999,1004.4314,0,0
21.52,-7.9319158,5.3976917,-1.7409467,1004.43396,0,0
21.56,-8.013156,5.602653,-1.6083816999999998,1004.4493,0,0
21.6,-7.788489999999999,5.955378,-1.6367868,1004.39355,0,0
21.64,-7.994006,5.779014599999999,-1.8498335,1004.4114,0,0
21.68,-7.7024217,5.9220114,-1.7456752,1004.3961,0,0
21.72,-7.8024693,5.636009,-1.882943,1004.43396,0,0
21.76,-7.687722,5.626476,-1.8119241000000001,1004.4189,0,0
21.8,-7.893228999999999,5.7027397,-1.8450625,1004.4289,0,0
21.84,-7.635088400000001,5.898168,-1.5041825,1004.4162,0,0
21.88,-7.7306547000000005,5.693206,-1.4521015,1004.4466,0,0
21.92,-7.453399,6.0411634,-1.4615676000000002,1004.4543,0,0
21.96,-7.4772687000000015,6.0125637,-1.2201104,1004.45416,0,0
22.0,-7.6540922999999985,6.136493,-0.9218402,1004.4262,0,0
22.04,-7.5584693,5.9791965,-0.8224153000000001,1004.4565,0,0
22.08,-7.9264850000000004,5.836199,-1.1301489,1004.4667,0,0
22.12,-8.141546,5.898162999999999,-1.1680213,1004.4084,0,0
22.16,-7.730454400000001,6.0030265,-1.1632844,1004.4059,0,0
22.2,-7.8403606,5.9744267,-1.5467684,1004.4212,0,0
22.24,-7.615680999999999,6.2079873,-2.0060031000000005,1004.4488,0,0
22.28,-6.932142,6.312851,-2.2379860000000003,1004.4794,0,0
22.32,-6.425455,6.31285,-2.4415633999999997,1004.43646,0,0
22.36,-6.783911,6.060222,-2.7161560000000002,1004.41864,0,0
22.4,-6.673946400000001,5.921991,-3.0475616000000003,1004.4313,1,2
22.44,-6.205497,6.1793847,-2.8534484,1004.38824,1,2
22.48,-6.9941354,5.7265606,-3.0475564,1004.4060000000001,1,2
22.52,-7.5485625,6.0316195,-2.7729583,1004.4135,1,2
22.56,-6.9510584,6.5178080000000005,-2.7871587000000004,1004.44635,1,2
22.6,-7.2043610000000005,6.1603155,-2.6119833,1004.42365,1,2
22.64,-7.433764,6.041150599999999,-2.308979,1004.4363,1,2
22.68,-6.6641865000000005,6.4272413,-2.8202917999999997,1004.4717,1,2
22.72,-7.1036152999999995,6.107874,-2.6450902999999997,1004.4538,1,2
22.76,-7.576780999999999,5.969643,-2.8439322,1004.4211,1,2
22.8,-7.103536599999999,6.422465,-2.829725,1004.4765,1,2
22.84,-7.0987167,6.2556343,-2.8675961,1004.44635,1,2
22.88,-7.2468495,5.6407475,-3.0048907000000002,1004.4034,1,2
22.92,-7.112977000000001,5.49775,-3.2179352999999997,1004.41583,1,2
22.96,-6.582381,5.635978700000001,-3.0427587000000003,1004.42365,1,2
23.0,-7.1033363,5.4262495,-3.2131933999999998,1004.43353,1,2
23.04,-6.849966,5.6884093,-3.3788939,1004.4032,1,2
23.08,-7.5573387,5.5501785,-3.7245017999999996,1004.4717,1,2
23.12,-7.5095034,6.188896,-3.2037139999999997,1004.45905,1,2
23.16,-8.197755,6.684617,-2.8580985,1004.446,1,2
23.2,-9.44524,7.1755710000000015,-2.5787647000000002,1004.4562400000001,1,2
23.24,-6.8354289999999995,7.628392999999999,-0.39620078,1004.42847,1,2
23.28,-4.12046,7.8476534,0.3329013,1004.40814,1,2
23.32,-7.275092599999999,6.899108,0.32817040000000003,1004.4136,1,2
23.36,-7.9968023,6.3604864999999995,-0.35358015,1004.4234,1,2
23.4,-7.5952606,6.1888894999999975,-0.23048219,1004.42084,1,2
23.44,-6.8591275,6.3509507,-0.741794,1004.3957,1,2
23.48,-6.5627394,6.012524,-0.9216975000000001,1004.3829,1,2
23.52,-6.6965330000000005,6.4796457,-1.2057582,1004.42084,1,2
23.56,-6.3762484000000015,5.9934564,-0.6897045999999999,1004.4512300000001,1,2
23.6,-5.969922,6.3414135,-0.54766846,1004.4867,1,2
23.64,-7.083578,7.0325637,-1.0826527,1004.47406,1,2
23.68,-6.419144599999999,7.0325627000000015,0.025201677999999998,1004.4435,1,2
23.72,-7.2029943,7.0134954,0.8442572,1004.4638699999999,1,2
23.76,-7.05478,7.8667083,-0.04107278,1004.5193,1,2
23.8,-8.254472999999999,7.6426789999999984,0.3613551,1004.4638,1,2
23.84,-9.282089,7.871473,0.8537369,1004.41315,1,2
23.88,-8.235275,8.538789999999999,0.5128632000000001,1004.4739,1,2
23.92,-5.1665980000000005,7.142187599999999,0.3661006,1004.4487,1,2
23.96,-6.3232694,5.7026863,-0.35825956,1004.393,1,2
24.0,-7.647235,5.1259317000000015,-1.0305413,1004.3247,1,2
24.04,-7.8861865999999985,6.0840096,-1.2104451999999999,1004.31464,1,2
24.08,-6.954087299999999,6.2508373,-0.5381563,1004.3045,1,2
24.12,-6.9683833,5.9171777,-0.28249443,1004.3753,1,2
24.16,-6.9779077,5.4786534000000024,-2.0436897000000003,1004.46375,1,2
24.2,-7.761752,5.1831260000000015,-1.4897604,1004.4586,1,2
24.24,-6.8344297,5.473885,-1.9395251,1004.4536,1,2
24.28,-7.261669,5.6169267,-1.560941,1004.43085,1,2
24.32,-7.113503,6.3366766,-1.4899256,1004.3951400000001,1,2
24.36,-7.5484740000000015,6.6560369999999995,-1.6745682000000002,1004.4128400000001,1,2
24.4,-7.472005,6.9563303,-1.3905046,1004.4005,1,2
24.44,-9.460411,6.737068700000001,-1.1111753999999998,1004.4233,1,2
24.48,-9.575134,7.1898913,-0.8886591999999999,1004.4208,1,2
24.52,-7.926111,7.0564279999999995,0.6831624,1004.3977699999999,1,2
24.56,-6.6546910000000015,7.218491,1.0571796999999998,1004.3801,1,2
24.6,-8.036062,6.756135499999999,1.0145692,1004.4281599999999,1,2
24.64,-7.6680259999999985,6.6036057,1.1045222,1004.4281599999999,1,2
24.68,-6.974962,6.3414449999999984,1.0950527,1004.4231599999999,1,2
24.72,-6.635605,6.412944,1.3033656,1004.3625,1,2
24.76,-6.2341084,6.3652782,1.0429727,1004.36755,1,2
24.8,-5.894750599999999,7.332889999999999,0.44170257,1004.4282,1,2
24.84,-4.9818163,7.413921,0.7494380999999999,1004.4254,1,2
24.88,-6.3488483,6.708472,0.6689525,1004.3774400000001,1,2
24.92,-6.99413,7.4091559999999985,0.54112285,1004.4156,1,2
24.96,-7.027597,7.4520545,0.37541795,1004.3522300000001,1,2
25.0,-8.1174,7.3614902,-0.003335184,1004.4231599999999,1,2
25.04,-7.32874,7.8572125,0.21444672,1004.3269,1,2
25.08,-7.271391,7.494953999999999,-0.26846334,1004.3422,1,2
25.12,-6.7121619999999975,8.195638,-0.83185834,1004.3851,1,2
25.16,-6.7504077,7.823847,-1.7882086,1004.4457,1,2
25.2,-6.0143275,7.1088634000000015,-2.7445592999999997,1004.4686,1,2
25.24,-6.4397379999999975,6.598841999999999,-1.9539143,1004.4155,1,2
25.28,-6.195099,6.7894830000000015,-2.2852433,1004.4812,1,2
25.32,-7.2800856,6.0649657,-2.3231156000000004,1004.43304,1,2
25.36,-7.1892447,6.174596,-2.2047532000000003,1004.3902,1,2
25.4,-6.754256,6.370024,-1.8875457999999998,1004.3472,1,2
25.44,-7.724528999999999,6.117396,-2.200014,1004.3295,1,2
25.48,-8.494052,6.05543,-2.3467784,1004.3524,1,2
25.52,-7.8774314,5.912433,-1.6886936000000001,1004.3218400000001,1,2
25.56,-6.8879850000000005,6.1793594,-1.7360353,1004.3469,1,2
25.6,-6.1279697,5.8599997,-1.9632843,1004.44574,1,2
25.64,-5.9271936,5.478674,-2.2946901,1004.4127,1,2
25.68,-6.6728163,5.145015,-2.5976898999999998,1004.4305400000001,1,2
25.72,-6.4911585,5.435773999999999,-2.919627,1004.4253,1,2
25.76,-6.567607400000001,5.478672,-2.318355,1004.352,1,2
25.8,-7.867688,5.3738074000000005,-2.611886,1004.3798,1,2
25.84,-8.479478,5.464371,-2.5834772999999998,1004.43787,1,2
25.88,-8.986108999999997,4.9829483,-2.1715812999999997,1004.42035,1,2
25.92,-9.449726,4.7589197,-1.5040281999999998,1004.347,1,2
25.96,-8.665809,4.6778874,-0.29201776,1004.347,1,2
26.0,-8.641886999999999,5.0306120000000005,-0.22573400000000002,1004.38495,1,2
26.04,-8.675319,5.4453015,0.18142726,1004.37225,1,2
26.08,-9.597795,4.9066800000000015,0.006256726,1004.2861300000001,1,2
26.12,-9.411355,5.0687428,0.02519679,1004.24835,1,2
26.16,-8.837750999999997,4.606386,0.044136845,1004.2560000000001,1,2
26.2,-7.814847500000001,4.9448104000000015,-0.5523956999999999,1004.2964,1,2
26.24,-7.8148227,4.8685455,-0.35828283,1004.2809,1,2
26.28,-7.17443,5.264172,-0.14524388,1004.27356,1,2
26.32,-7.991755,5.4786663,-0.10263226,1004.2736,1,2
26.36,-7.504194,6.212716,0.029933043,1004.3241,1,2
26.4,-8.345419,5.8123245,-0.6139441,1004.3545,1,2
26.44,-8.316718,6.1841154000000005,-0.48611322,1004.3798,1,2
26.48,-8.660844,5.7789574,-1.5513525,1004.36957,1,2
26.52,-8.469628,6.0268180000000005,-1.641304,1004.3491,1,2
26.56,-7.7430773,5.631193,-1.7217869,1004.3266,1,2
26.6,-6.3760330000000005,5.6597919999999995,-1.7028476000000001,1004.3368,1,2
26.64,-7.8338504,5.454829,-2.5076942000000004,1004.4202,1,2
26.68,-8.995322,4.673114,-3.2225873,1004.42,1,2
26.72,-8.942722999999997,5.078271,-3.170507,1004.3972,1,2
26.76,-8.048879,5.93625,-3.1373644,1004.39984,1,2
26.8,-6.992521000000001,5.7503543,-2.9527209,1004.39484,1,2
26.84,-7.2171516,5.083036,-2.9858596,1004.362,1,2
26.88,-6.829965,5.1783660000000005,-2.6544492,1004.36694,1,2
26.92,-6.576614999999999,5.5406237,-2.71126,1004.4073,1,2
26.96,-7.5994697,5.39286,-2.749133,1004.4150400000001,0,0
27.0,-8.81352,5.0877995,-2.8958979,1004.4049,0,0
27.04,-7.9292345,5.750351,-2.9621777999999996,1004.38214,0,0
27.08,-7.4703535999999975,5.9457793,-2.4934697,1004.3439300000001,0,0
27.12,-7.3651776,6.0029774000000025,-2.0815747,1004.3567,0,0
27.16,-7.6089259999999985,5.7598825,-2.3135586,1004.3819,0,0
27.2,-7.651924,5.4786550000000025,-2.0200238,1004.3996599999999,0,0
27.24,-7.7618365,5.0067650000000015,-1.8685205000000005,1004.3796,0,0
27.28,-8.009689999999999,5.07348,-1.9726138,1004.36694,0,0
27.32,-7.7658752999999985,5.001981,-1.8069055,1004.38214,0,0
27.36,-8.191230000000001,4.9924464,-1.9252611000000002,1004.3695,0,0
27.4,-7.6797429999999975,5.35947,-1.892116,1004.4022,0,0
27.44,-8.272392,5.6168633,-1.7358764,1004.4326,0,0
27.48,-7.388081,5.812291,-1.9110451000000002,1004.4147300000001,0,0
27.52,-8.320097,4.978142299999999,-1.7263992,1004.4197,0,0
27.56,-8.018922,5.192636,-1.6317066,1004.4096,0,0
27.6,-8.037995,5.411896,-0.9688858,1004.4045,0,0
27.64,-7.870653999999999,5.674056,-1.6743077000000002,1004.4526,0,0
27.68,-7.932740700000001,5.321329,-1.579615,1004.4373,0,0
27.72,-8.46803,4.8208400000000005,-1.5180633,1004.4095,0,0
27.76,-8.482324,5.0067344,-1.693232,1004.41455,0,0
27.8,-8.238507,5.497689,-1.2245216,1004.4069999999999,0,0
27.84,-7.9707919999999985,5.569186,-1.5464569,1004.41974,0,0
27.88,-8.114139,5.0877624,-1.8920641,1004.4652,0,0
27.92,-8.443896,4.7541027,-1.5701201999999999,1004.43225,0,0
27.96,-8.061466000000001,5.1354256,-1.4659591,1004.3691,0,0
28.0,-7.679034700000001,5.33562,-1.4990956,1004.4295,0,0
28.04,-8.453317,5.354685,-1.5701075,1004.4526,0,0
28.08,-7.9561663000000005,5.4547815,-1.7878854,1004.44995,0,0
28.12,-7.874865,5.364216000000001,-1.5937706,1004.3767,0,0
28.16,-7.979969500000001,5.388047,-1.6695163,1004.3891,0,0
28.2,-7.946465499999999,5.349913,-1.8730917,1004.4372599999999,0,0
28.24,-7.979872999999999,5.4166446,-1.6032261,1004.3866,0,0
28.28,-7.9279213,5.6120887,-1.8447381,1004.4042400000001,0,0
28.32,-7.751049000000001,5.3642273000000005,-1.6364223999999998,1004.3995,0,0
28.36,-7.951778,5.5453553,-1.4896537,1004.4346,0,0
28.4,-8.023453,5.3975919999999995,-1.4849173,1004.4119,0,0
28.44,-8.028213000000001,5.45479,-1.584338,1004.38684,0,0
28.48,-8.310199,5.521521599999999,-1.3002716,1004.4348,0,0
28.52,-7.5358515,5.783681400000001,-1.6648189999999998,1004.4396,0,0
28.56,-8.343617,5.335624,-1.6837548,1004.4219400000001,0,0
28.6,-8.161963,5.335624,-1.8494568,1004.422,0,0
28.64,-7.7747765,5.435721,-1.7973763999999999,1004.44214,0,0
28.68,-7.7986546,5.3594555999999995,-1.768968,1004.3763,0,0
28.72,-7.7795143,5.2164583,-1.8210446,1004.4142,0,0
28.76,-8.075842,5.173559,-1.6932139,1004.4421,0,0
28.8,-8.028022,5.507217400000001,-1.7216182,1004.42944,0,0
28.84,-7.855928,5.6454473,-1.5937874,1004.41437,0,0
28.88,-7.9562836,5.559648999999999,-1.9109907,1004.45465,0,0
28.92,-7.8272065999999985,5.392819,-1.7878941000000002,1004.4446,0,0
28.96,-8.075735,4.987660400000001,-1.7405481,1004.42944,0,0
29.0,-8.066154,5.426183,-1.9962039,1004.4142,0,0
29.04,-7.640731,5.3451514000000016,-2.029343,1004.41437,0,0
29.08,-7.932277,5.225987,-2.0624816000000004,1004.4444,0,0
29.12,-7.8940177,5.216453,-2.0482767,1004.4039300000001,0,0
29.16,-7.8127394,5.4595475,-1.9725240000000002,1004.4092,0,0
29.2,-7.798381,5.531045,-1.9157096000000002,1004.42426,0,0
29.24,-7.913073,5.5167446,-2.1098182,1004.43195,0,0
29.28,-7.875006,5.4881496,-2.2329282999999998,1004.4343,0,0
29.32,-7.5499649999999985,5.6406794,-1.8967842000000001,1004.40906,0,0
29.36,-8.056610000000001,5.1878557,-2.086159,1004.4241300000001,0,0
29.4,-7.846286,5.383284,-1.9393913,1004.4241300000001,0,0
29.44,-7.750675699999999,5.5739465,-1.8825773000000001,1004.414,0,0
29.48,-7.6933045,5.545346299999999,-2.0482801999999998,1004.47473,0,0
29.52,-7.8892617,5.5739455,-1.9867316000000002,1004.4267,0,0
29.56,-7.807991499999999,5.4929137,-1.925183,1004.4163,0,0
29.6,-7.7267213,5.454781,-1.8210249,1004.40906,0,0
29.64,-7.9178996,5.502446,-1.9251804,1004.4317599999999,0,0
29.68,-7.4733634,5.593011,-1.8494287,1004.4494,0,0
29.72,-7.698001400000001,5.7026410000000025,-1.9109749,1004.4418300000001,0,0
29.76,-7.7457850000000015,5.669275,-1.7831446,1004.414,0,0
29.8,-7.7409925,5.602542400000001,-1.7405336999999999,1004.4191,0,0
29.84,-7.8843727,5.4404793,-1.8068142,1004.40906,0,0
29.88,-7.9225974,5.5358105,-1.7831408,1004.4367,0,0
29.92,-7.540199799999999,5.912368,-1.8068117,1004.4086,0,0
29.96,-7.740937,5.688339,-1.8020759999999998,1004.4265,0,0
30.0,-7.8365183000000025,5.5834746,-1.7263241000000005,1004.4113,0,0
30.04,-7.9560020000000025,5.731237999999999,-1.8446832999999998,1004.4163,0,0
30.08,-7.6978784,5.9504985999999995,-1.5842896,1004.4089,0,0
30.12,-7.826919,5.721704,-1.6411014,1004.4443,0,0
30.16,-7.654832400000001,5.7407694000000005,-1.7499913,1004.4189,0,0
30.2,-7.7504144,5.6597376,-1.7073803,1004.424,0,0
30.24,-7.812538000000001,5.6549716,-1.6837071,1004.4264,0,0
30.28,-7.7077208,5.6311464,-1.6032531,1004.4467,0,0
30.32,-7.9562697,5.6454463,-1.5985187,1004.429,0,0
30.36,-7.765078,5.7789097,-1.555909,1004.45685,0,0
30.4,-7.717281,5.864708,-1.4990963,1004.43896,0,0
30.44,-7.8606744000000015,5.521516,-1.5132995,1004.4162,0,0
30.48,-7.8511143,5.688345,-1.4091425,1004.4262,0,0
30.52,-7.6503630000000005,5.7836766,-1.4517521999999998,1004.4237,0,0
30.56,-7.836775,5.7741430000000005,-1.4186113999999999,1004.4086,0,0
30.6,-7.8558946,5.7169447,-1.4990963,1004.4189,0,0
30.64,-7.8511143,5.8456415999999995,-1.4801586000000002,1004.449,0,0
30.68,-7.6647024,5.8313417,-1.5748467,1004.44653,0,0
30.72,-7.8319955000000006,5.616847,-1.5748467,1004.42896,0,0
30.76,-7.8176565,5.564415,-1.5417058000000001,1004.4164400000001,0,0
30.8,-7.717281,5.650213,-1.532237,1004.4467,0,0
30.84,-7.9562697,5.4595504,-1.5748467,1004.4186,0,0
30.88,-7.803317,5.6454463,-1.5653778,1004.3987400000001,0,0
30.92,-7.8128759999999975,5.7026449999999995,-1.532237,1004.42365,0,0
30.96,-7.836775,5.6978784000000005,-1.6600659,1004.4236,0,0
31.0,-7.7411794999999985,5.588248,-1.4706898000000002,1004.44385,0,0
31.04,-7.803317,5.616847,-1.5511747999999999,1004.42865,0,0
31.08,-7.760298700000001,5.492916,-1.6837380000000002,1004.4259,0,0
31.12,-7.8702335,5.464316999999999,-1.5038306000000001,1004.4133,0,0
31.16,-7.745959299999999,5.6263804,-1.5843155,1004.42615,0,0
31.2,-7.984948599999999,5.6263804,-1.4470178,1004.4337,0,0
31.24,-8.171361,5.6788125,-1.484893,1004.4362,0,0
31.28,-7.7889776,5.8885407,-1.4564866,1004.4664300000001,0,0
31.32,-7.898912400000001,5.7121778,-1.5227683,1004.4259599999999,0,0
31.36,-7.722059700000001,5.5977807,-1.5843155,1004.44116,0,0
31.4,-8.008848,5.454784,-1.6079875,1004.4588,0,0
31.44,-7.6599226,5.4595504,-1.4564866,1004.42847,0,0
31.48,-8.085325,5.4261847,-1.5748467,1004.4261,0,0
31.52,-7.8893533,5.5739480000000015,-1.5937843,1004.4309699999999,0,0
31.56,-7.698161,5.759844,-1.6221908,1004.4234,0,0
31.6,-7.745959299999999,5.5930142,-1.555909,1004.43365,0,0
31.64,-7.717281,5.6073135999999995,-1.5748467,1004.42065,0,0
31.68,-7.8224363,5.650213,-1.5369714,1004.4106,0,0
31.72,-8.004067,5.6978784000000005,-1.5890498,1004.4461699999999,0,0
31.76,-7.8463350000000025,5.7646102999999975,-1.6127219,1004.4257,0,0
31.8,-7.6408039999999975,5.893307,-1.5653778,1004.4131,0,0
31.84,-7.7794175,5.7932096,-1.5180339,1004.41565,0,0
31.88,-7.798537,5.6597457,-1.6079875,1004.41315,0,0
31.92,-7.578666,5.7455440000000015,-1.5464402,1004.4359,0,0
31.96,-7.7555190000000005,5.588248,-1.6363938999999998,1004.436,0,0
32.0,-7.621684599999999,5.7741430000000005,-1.3475953,1004.4206,0,0
32.04,-7.6503630000000005,5.688345,-1.5890498,1004.43335,0,0
32.08,-7.836775,5.6788125,-1.5606436000000001,1004.40576,0,0
32.12,-7.884573,5.8790073,-1.555909,1004.42065,0,0
32.16,-7.912012599999999,5.926643,-1.5747333000000001,1004.41046,0,0
32.2,-7.6395392000000015,5.8837433,-1.5368556,1004.4458,0,0
32.24,-7.6729699999999985,5.7741117,-1.6126037,1004.4205300000001,0,0
32.28,-7.854575599999999,5.5691489999999995,-1.6220701000000002,1004.4155,0,0
32.32,-7.6968174,5.7264447,-1.6883494,1004.42084,0,0
32.36,-7.8115067,5.183057,-1.8019726000000005,1004.41046,0,0
32.4,-8.017011,5.3403525,-1.6883446,1004.42303,0,0
32.44,-7.591583999999999,5.5024147,-1.6078575000000002,1004.43835,0,0
32.48,-8.322867,5.4213824,-1.4800261000000001,1004.39276,0,0
32.52,-7.9261193,5.750274,-1.4800239,1004.4432400000001,0,0
32.56,-7.9021925999999985,5.4023147000000025,-1.5747093,1004.4509,0,0
32.6,-7.8878264000000025,5.583443,-1.2575017,1004.4281599999999,0,0
32.64,-7.7300679999999975,5.735973,-1.7688153000000002,1004.4434,0,0
32.68,-7.605767,5.840836,-1.5415615,1004.4408599999999,0,0
32.72,-7.8160515,5.9599996,-1.6315128,1004.42804,0,0
32.76,-7.3476043,6.22216,-1.6220416000000002,1004.4455,0,0
32.8,-7.381038,6.0648623,-1.5273511,1004.4431,0,0
32.84,-7.6725816999999985,5.8599005,-1.7119905,1004.4481,0,0
32.88,-7.5339413,5.945698,-1.5888937,1004.4405,0,0
32.92,-7.3953,6.260289,-1.5699537000000001,1004.4407,0,0
32.96,-7.610365400000001,6.1554246,-1.7498586,1004.4408599999999,0,0
33.0,-7.4143667,6.2269225,-1.6930433999999996,1004.41534,0,0
33.04,-7.4908185,6.226922,-1.6078217,1004.4355,0,0
33.08,-7.438214,5.907562,-1.7072418000000005,1004.4428,0,0
33.12,-7.705857300000001,5.859896,-1.6220202,1004.42523,0,0
33.16,-7.721100999999999,5.7455206,-1.4327267,1004.46326,0,0
33.2,-7.5777173,6.031514,-1.3285708,1004.4127,0,0
33.24,-7.7115617,5.9504824,-1.4232597,1004.4353,0,0
33.28,-7.821507,5.588225,-1.5132143,1004.43286,0,0
33.32,-7.888435,5.4881277000000015,-1.3238391999999999,1004.4,0,0
33.36,-7.7689495,5.5310264,-1.427997,1004.4303,0,0
33.4,-8.079646,5.702623,-1.1391991000000001,1004.4151,0,0
33.44,-7.960161,5.6883235,-1.6647189999999998,1004.4303,0,0
33.48,-8.304316499999999,5.407097,-1.3238428999999998,1004.39996,0,0
33.52,-8.3186655,5.383264,-1.6694553,1004.4202,0,0
33.56,-7.964972,5.2545676,-1.3238447,1004.4202,0,0
33.6,-8.127495,5.3260665000000005,-1.5084875,1004.38226,0,0
33.64,-8.304357000000001,5.3022337,-1.342784,1004.38464,0,0
33.68,-8.141853999999999,4.8112783,-1.5132235,1004.4376,0,0
33.72,-8.285257000000001,4.4490204,-1.731007,1004.45026,0,0
33.76,-8.423882,4.696881299999999,-1.4753501,1004.4277,0,0
33.8,-8.199242,4.78268,-1.5179608,1004.43256,0,0
33.84,-8.509936999999999,4.4919199999999995,-1.6457905,1004.44775,0,0
33.88,-8.428691,4.67305,-1.513228,1004.43256,0,0
33.92,-8.443042,4.2440596,-1.5653075,1004.4098,0,0
33.96,-8.576883,4.306025,-1.4800888,1004.4022,0,0
34.0,-8.5051985,4.558653,-1.5889813,1004.4023,0,0
34.04,-8.572125,4.3346252,-1.7262800999999999,1004.3996599999999,0,0
34.08,-8.715530000000001,4.1058307,-1.5463736000000001,1004.4149,0,0
34.12,-8.500448,4.1487300000000005,-1.7215473999999995,1004.4072,0,0
34.16,-8.48599,4.244058,-1.669458,1004.4225,0,0
34.2,-8.758443,4.115361,-1.7025994,1004.3793300000001,0,0
34.24,-8.591156,4.182093,-1.6836623,1004.41,0,0
34.28,-8.753674,4.000964,-1.8493667,1004.41974,0,0
34.32,-8.572046,4.2821913,-1.636319,1004.3845,0,0
34.36,-8.729785000000001,4.053396,-1.6931324,1004.3996,0,0
34.4,-8.820606,4.120128,-1.6315856000000002,1004.4399,0,0
34.44,-8.495585,4.0772295,-1.6741958,1004.4173,0,0
34.48,-8.619864,4.07723,-1.7215401999999995,1004.4172,0,0
34.52,-8.86842,3.958066000000001,-1.7215407,1004.43,0,0
34.56,-8.739369,4.21546,-1.5842433999999999,1004.3946,0,0
34.6,-8.60554,4.401356,-2.1002939,1004.4122,0,0
34.64,-8.595985,4.4919205,-1.6552603,1004.435,0,0
34.68,-8.514733,4.4394884,-1.8304335999999999,1004.4147300000001,0,0
34.72,-8.662912,4.020032,-1.9819353,1004.3818,0,0
34.76,-8.543422999999999,4.034332,-1.6552618000000001,1004.3691,0,0
34.8,-8.581666,4.4061227,-1.7215438000000003,1004.41223,0,0
34.84,-8.662927,4.1963944,-1.7830915,1004.46277,0,0
34.88,-8.696391,4.129663,-1.7594202,1004.42725,0,0
34.92,-8.500423,4.3203254,-1.6836699,1004.41974,0,0
34.96,-8.744199,3.9961998,-1.7357488999999997,1004.4069,0,0
35.0,-8.591249000000001,4.196395,-1.6647332,1004.4247,0,0
35.04,-8.505219,4.1201300000000005,-1.6126553,1004.4071,0,0
35.08,-8.715535000000001,4.1868620000000005,-1.7452189999999999,1004.4296,0,0
35.12,-8.873273,3.9819007000000006,-1.8493762999999999,1004.43475,0,0
35.16,-8.710764999999999,4.124897499999999,-1.6268598,1004.4069999999999,0,0
35.2,-8.629515,4.0057335,-1.6978763,1004.41455,0,0
35.24,-8.792032,4.015267,-1.7404865000000005,1004.4195599999999,0,0
35.28,-8.820716000000003,4.0295663,-1.7830966000000001,1004.41455,0,0
35.32,-8.787263000000001,3.8532043,-1.8351754,1004.45746,0,0
35.36,-8.787268,3.8532045,-1.7878319,1004.42706,0,0
35.4,-8.796832,4.029567,-1.6315969,1004.48535,0,0
35.44,-8.868534,4.0724664,-1.7641608,1004.4042,0,0
35.48,-8.897219,4.182097,-1.7641612000000002,1004.4371,0,0
35.52,-8.524399,3.9533021,-1.6126608,1004.4245,0,0
35.56,-8.682136,3.9533023999999997,-1.6552707999999998,1004.46265,0,0
35.6,-8.701261,4.153498,-1.6268649,1004.4474,0,0
35.64,-8.682145,4.124899,-1.5889898999999998,1004.4042,0,0
35.68,-8.820766,4.0677,-1.6600065,1004.4295,0,0
35.72,-8.586561,4.091533,-1.5653190000000001,1004.43225,0,0
35.76,-8.622736999999999,4.1391480000000005,-1.6077398999999999,1004.4069999999999,0,0
35.8,-8.8855715,4.115314,-1.5272499,1004.3941,0,0
35.84,-8.679993,4.2344766,-1.5982617000000001,1004.3992,0,0
35.88,-8.622598,4.162977,-1.6029928,1004.3816,0,0
35.92,-8.68468,4.0676446,-1.6219252,1004.4018,0,0
35.96,-8.727652,4.048578,-1.5367017,1004.39667,0,0
36.0,-8.866232,4.0676427,-1.6692618000000001,1004.3712,0,0
36.04,-8.718011,4.329802,-1.6550544999999999,1004.4118699999999,0,0
36.08,-8.617579,4.1248393,-1.6645181,1004.4219400000001,0,0
36.12,-8.612753999999999,4.0676394,-1.6171699,1004.40936,0,0
36.16,-8.674855,3.9389415,-1.6124322,1004.41943,0,0
36.2,-8.588761,4.096236,-1.5177389,1004.4094,0,0
36.24,-8.722563000000001,3.9198732000000014,-1.6455648,1004.3939999999999,0,0
36.28,-8.813324,4.091468,-1.5224652,1004.422,0,0
36.32,-8.985358999999997,4.1486654000000005,-1.5319306000000001,1004.422,0,0
36.36,-8.674628,4.1867967,-1.5319265,1004.41425,0,0
36.4,-8.817977,3.9532342000000003,-1.6171416,1004.4472,0,0
36.44,-8.746233,4.053331,-1.5745277,1004.41925,0,0
36.48,-8.770085,4.005664,-1.546117,1004.4195,0,0
36.52,-8.793941499999999,4.01043,-1.6360667,1004.4167,0,0
36.56,-8.765215,4.081926999999999,-1.6976096999999999,1004.41925,0,0
36.6,-8.72215,4.1581907,-1.7165431,1004.4621599999999,0,0
36.64,-8.487893,4.14389,-1.5745066,1004.43207,0,0
36.68,-8.803314,3.9770591,-1.721269,1004.4599,0,0
36.72,-8.698117,4.1391215,-1.7354685,1004.44464,0,0
36.76,-8.574992,4.239247,-1.4988534,1004.3713,0,0
36.8,-8.890460000000003,4.0676510000000015,-1.6550889,1004.42676,0,0
36.84,-8.551097,4.12485,-1.5035881000000002,1004.4142,0,0
36.88,-8.680152,4.320278599999999,-1.6550890999999999,1004.42175,0,0
36.92,-8.723171,4.2154145,-1.6456205000000002,1004.4293,0,0
36.96,-8.794869,4.224947,-1.4657131,1004.3964,0,0
37.0,-8.436385000000001,4.2964459999999995,-1.5888078,1004.4243,0,0
37.04,-8.531983,4.2821465,-1.4704478,1004.4293,0,0
37.08,-8.675378,4.1200833,-1.7024337999999999,1004.45465,0,0
37.12,-8.646701,4.258312999999999,-1.6361523,1004.4245,0,0
37.16,-8.675381,4.124850299999999,-1.4941201000000002,1004.43195,0,0
37.2,-8.876134,4.3250456,-1.5509332,1004.42175,0,0
37.24,-8.823558,4.320279,-1.6314182,1004.44476,0,0
37.28,-8.560669,4.439443,-1.4562454,1004.4066,0,0
37.32,-8.665826,4.153449500000002,-1.5604023999999999,1004.43445,0,0
37.36,-8.6467085,4.215415,-1.659825,1004.4495,0,0
37.4,-8.522435,4.2583137,-1.5698714,1004.42175,0,0
37.44,-8.675389,4.2011147000000015,-1.4988555000000001,1004.3964,0,0
37.48,-8.71363,4.334579,-1.5746061000000002,1004.4066,0,0
37.52,-8.584577000000001,4.525241,-1.6361533000000001,1004.4394,0,0
37.56,-8.608476,4.401310400000002,-1.7071697,1004.4471,0,0
37.6,-8.5798,4.4203763,-1.593544,1004.4243,1,3
37.64,-8.469864999999999,4.510941000000001,-1.4373088,1004.41925,1,3
37.68,-8.455525999999999,4.4346765999999995,-1.5272626,1004.4066,1,3
37.72,-8.814013000000003,4.3345795,-1.5935443999999999,1004.4523300000001,1,3
37.76,-8.445936999999999,4.4585085,-1.5888071000000001,1004.3889999999999,1,3
37.8,-8.637129,4.4823413,-1.5225254,1004.39905,1,3
37.84,-8.632349000000001,4.40131,-1.5840727,1004.4167,1,3
37.88,-8.469836,4.5347733,-1.5225254,1004.4321,1,3
37.92,-8.455497,4.477575,-1.5083222,1004.3662,1,3
37.96,-8.675367,4.258312999999999,-1.5556662,1004.39655,1,3
38.0,-8.656248,4.291679,-1.5651351,1004.41925,1,3
38.04,-8.641910000000001,4.444209,-1.5367286,1004.4092,1,3
38.08,-8.62757,4.444209,-1.5982758999999995,1004.3915,1,3
38.12,-8.7231655,4.224947,-1.6077447,1004.3763,1,3
38.16,-8.527192999999999,4.305979,-1.5888071000000001,1004.4245,1,3
38.2,-8.761403999999999,4.167749,-1.6172135,1004.3992,1,3
38.24,-8.560652000000001,4.3393445,-1.5461973999999998,1004.3815,1,3
38.28,-8.565433,4.3393445,-1.5367286,1004.3815,1,3
38.32,-8.708826,4.1582155,-1.5509319,1004.4068599999999,1,3
38.36,-8.680147,4.1343827000000015,-1.5556662,1004.3992,1,3
38.4,-8.694486999999999,4.205881,-1.5509319,1004.4295,1,3
38.44,-8.770964,4.272613,-1.6645576000000002,1004.4144,1,3
38.48,-8.60845,4.3107452,-1.5509319,1004.3992,1,3
38.52,-8.704047000000001,4.320278599999999,-1.5793383,1004.3715,1,3
38.56,-8.426817999999999,4.3679440000000005,-1.5130566,1004.4068599999999,1,3
38.6,-8.694486999999999,4.2106476,-1.5982758999999995,1004.38385,1,3
38.64,-8.708826,4.3345785,-1.5651351,1004.4144,1,3
38.68,-8.560652000000001,4.291679,-1.5651351,1004.4018,1,3
38.72,-8.7231655,4.348878,-1.5746038999999998,1004.4144,1,3
38.76,-8.612083,4.1772540000000005,-1.56503,1004.4295,1,3
38.8,-8.5881405,4.1963186,-1.5366197,1004.39667,1,3
38.84,-8.674134,4.344081,-1.5129437,1004.4119999999999,1,3
38.88,-8.717105,4.334547,-1.5650177,1004.4042,1,3
38.92,-8.650141,4.3345456,-1.4797943999999998,1004.4295699999999,1,3
38.96,-8.664434,4.2153807,-1.4182428999999999,1004.41455,1,3
39.0,-8.669175,4.167714,-1.4939897,1004.42725,1,3
39.04,-8.731266999999999,4.124814,-1.4135004999999998,1004.41455,1,3
39.08,-8.707319,4.210610400000001,-1.493981,1004.41437,1,3
39.12,-8.793313000000001,4.2106094,-1.4845084,1004.3868,1,3
39.16,-8.712010000000001,4.201075,-1.4560977,1004.4042,1,3
39.2,-8.668946,4.277339,-1.636001,1004.4119,1,3
39.24,-8.721480999999999,4.1438746,-1.5365744,1004.39166,1,3
39.28,-8.644958500000001,4.215371599999999,-1.475023,1004.40936,1,3
39.32,-8.654475999999999,4.1915379999999995,-1.4939568,1004.4449,1,3
39.36,-8.663986999999999,4.2153697,-1.4986868,1004.4269400000001,1,3
39.4,-8.726078999999999,4.14387,-1.5223545,1004.42706,1,3
39.44,-8.77861,4.158169,-1.541288,1004.41455,1,3
39.48,-8.654293,4.263032,-1.5838938,1004.4144,1,3
39.52,-8.601669000000001,4.3059297,-1.5980927,1004.4119,1,3
39.56,-8.711559,4.205831,-1.6738391,1004.3866,1,3
39.6,-8.592022,4.19153,-1.6170223,1004.39166,1,3
39.64,-8.730588000000001,4.1009645,-1.7211747,1004.4172,1,3
39.68,-8.701869,4.1009636,-1.6548895000000001,1004.3868,1,3
39.72,-8.558425999999999,4.315457299999999,-1.7259011000000002,1004.3995,1,3
39.76,-8.6491995,4.196292,-1.8111166,1004.42474,1,3
39.8,-8.615696,4.072361,-1.7827058,1004.40936,1,3
39.84,-8.639548,4.0771265,-1.7590297,1004.4195599999999,1,3
39.88,-8.725539,4.096191,-1.8063695,1004.41455,1,3
39.92,-8.835433,4.167688399999999,-1.7874279999999998,1004.4045,1,3
39.96,-8.980438000000003,4.1152964,-1.8065131999999997,1004.4096,1,3
40.0,-8.822714999999997,4.4108224,-1.7781074000000001,1004.4323,1,3
40.04,-8.875302,4.1677290000000005,-1.8017803,1004.41455,1,3
40.08,-8.918329,4.40129,-1.7686404999999998,1004.41455,1,3
40.12,-9.009153999999999,4.3345585,-1.7970476000000002,1004.3968,1,3
40.16,-8.908789,4.5204544,-1.8254550999999999,1004.42725,1,3
40.2,-9.004395,4.2106285,-1.8112526999999998,1004.4019999999999,1,3
40.24,-8.899248,4.29166,-1.8017848,1004.4019,1,3
40.28,-9.009192,4.158197,-1.8491296000000002,1004.42725,1,3
40.32,-9.004423,4.0152,-1.7781143,1004.38684,1,3
40.36,-9.037889999999999,4.1200647,-2.0763826,1004.4071,1,3
40.4,-8.803689,4.3869925,-1.9532889999999998,1004.4071,1,3
40.44,-9.104826,4.0104346,-1.8538674,1004.4172,1,3
40.48,-9.190871000000001,4.2725954,-1.8680714,1004.4122,1,3
40.52,-9.042707,4.301195,-1.8917445,1004.4045,1,3
40.56,-9.286487,4.220164,-2.0858557,1004.4172,1,3
40.6,-9.0427265,4.2344637,-2.0479814999999997,1004.4298,1,3
40.64,-9.066633,4.1295996,-2.0763887999999997,1004.4021,1,3
40.68,-9.276956,3.9484708,-2.0148425,1004.4147300000001,1,3
40.72,-9.238727,4.3488617,-2.0669217,1004.4096699999999,1,3
40.76,-9.018865,4.496625,-2.0621881,1004.4046599999999,1,3
40.8,-9.200507,4.382228,-2.142674,1004.3794,1,3
40.84,-9.114479,4.305962999999998,-2.0195804,1004.3667,1,3
40.88,-9.238764,4.3107305,-2.052722,1004.3794,1,3
40.92,-9.109719,4.2296987,-1.8491433999999998,1004.4248,1,3
40.96,-9.243865,4.019978,-1.9864696,1004.3944,1,3
41.0,-9.37772,4.1677423,-1.9107211,1004.3845,1,3
41.04,-9.387303,4.077178,-1.9864738000000002,1004.3692599999999,1,3
41.08,-9.430341,4.0104465,-1.9959444,1004.3667,1,3
41.12,-9.20571,4.31074,-1.8349763,1004.3414300000001,1,3
41.16,-9.373026,4.4966364,-2.0054173,1004.3869,1,3
41.2,-9.086258,4.482337,-1.7781673999999998,1004.3592,1,3
41.24,-9.200996,4.2773757,-1.6692781000000003,1004.3769,1,3
41.28,-9.296614,4.3059754,-1.7734371,1004.387,1,3
41.32,-9.320534,4.5252376,-1.7545015,1004.38464,1,3
41.36,-9.138922,4.7349668,-1.7355657,1004.3717,1,3
41.4,-9.263216,4.582438,-1.7024268,1004.3692599999999,1,3
41.44,-9.263237,4.4394417,-1.4325675,1004.39215,1,3
41.48,-9.119864999999999,4.8112330000000005,-1.7734467,1004.3793300000001,1,3
41.52,-9.225043,4.4918747,-1.8728711999999998,1004.3947,1,3
41.56,-9.124688,4.172516000000001,-1.8681386999999998,1004.3745,1,3
41.6,-9.048233,4.3393455,-1.7497807,1004.3038,1,3
41.64,-8.9574375,4.510942,-1.7497824,1004.3064,1,3
41.68,-8.971799,4.377479,-1.532002,1004.3064,1,3
41.72,-8.837984,4.248782599999998,-1.5651443999999999,1004.33154,1,3
41.76,-8.933602,4.272616,-1.7355851999999998,1004.36194,1,3
41.8,-9.0578985,4.3298154,-1.8066031000000002,1004.3212,1,3
41.84,-8.967103,4.477579,-1.7876675,1004.3063,1,3
41.88,-8.881088,4.3441157,-1.6314341,1004.30896,1,3
41.92,-8.971925,4.120088,-1.8681560000000001,1004.33405,1,3
41.96,-8.996452,3.9675741,-1.7309159,1004.3038,1,3
42.0,-8.896123,4.1201050000000015,-1.6788416000000002,1004.28864,1,3
42.04,-9.1017,4.2821690000000014,-1.8492843,1004.33154,1,3
42.08,-8.891434,4.3727345,-1.9013669999999998,1004.324,1,3
42.12,-8.858021,4.453767299999999,-1.8303549,1004.2886,1,3
42.16,-8.977561,4.000945,-1.8208905,1004.3038,1,3
42.2,-8.810315,4.015246,-1.6551904999999998,1004.2810699999999,1,3
42.24,-8.915513,4.1248784,-1.8351018,1004.3190300000001,1,3
42.28,-8.667008000000001,4.1439449999999995,-1.8161683000000002,1004.3012,1,3
42.32,-8.757871000000002,4.062915,-2.019752,1004.2836,1,3
42.36,-8.566722,4.034317,-1.9203332999999998,1004.24316,1,3
42.4,-8.471169999999999,3.853189,-1.8161805,1004.24585,1,3
42.44,-8.648066499999999,3.8293571,-1.9440134999999998,1004.2713,1,3
42.48,-8.643335,4.1058183,-2.0055654,1004.2660000000001,1,3
42.52,-8.652941,4.1153526,-2.0339758000000003,1004.2585,1,3
42.56,-8.772475,4.0676879999999995,-1.9771665,1004.24084,1,3
42.6,-8.734283,4.043856,-1.8777484,1004.2230000000001,1,3
42.64,-8.767787,4.1248894,-1.9866438999999998,1004.2356599999999,1,3
42.68,-8.801294,3.9866599999999996,-2.0103202000000002,1004.2356,1,3
42.72,-8.777438,4.1296577,-2.0434650000000003,1004.2434,1,3
42.76,-8.715346,4.153492,-1.9724531000000003,1004.2230000000001,1,3
42.8,-8.605453500000001,4.2106915,-1.9582537,1004.1954,1,3
42.84,-8.667639999999999,4.0581627000000005,-1.9677271,1004.2106,1,3
42.88,-8.505169,4.2345266,-2.0056064,1004.2205,1,3
42.92,-8.677284,4.0343323,-2.015079,1004.2157,1,3
42.96,-8.49875,4.0724235,-1.9865186000000001,1004.2130000000001,1,3
43.0,-8.5847645,3.9103599,-1.9391724999999997,1004.2106,1,3
43.04,-8.541724,4.0056906,-2.0338585,1004.18286,1,3
43.08,-8.57516,3.9246583,-1.9581058999999998,1004.1651,1,3
43.12,-8.627714,4.11532,-2.005448,1004.17523,1,3
43.16,-8.780646,4.0819535,-1.9154924,1004.1424,1,3
43.2,-8.919238,4.2154169999999995,-2.005444,1004.1575300000001,1,3
43.24,-8.675446,4.2440157,-2.0622547,1004.1626,1,3
43.28,-8.388637,4.1439176,-2.0811903000000003,1004.1474,1,3
43.32,-8.598924,4.0676517,-2.0385785,1004.1728,1,3
43.36,-8.41249,4.1391497,-1.9202163,1004.1196,1,3
43.4,-8.747053,3.9961523999999997,-2.0149024,1004.1475,1,3
43.44,-8.660994,4.2678456,-2.1143227,1004.13226,1,3
43.48,-8.785246,4.210646,-2.119055,1004.1451400000001,1,3
43.52,-8.541453,4.2249455000000005,-2.0054276,1004.1120599999999,1,3
43.56,-8.503193,4.058115,-1.9817533,1004.14764,1,3
43.6,-8.441032,4.1963453,-2.0101576,1004.1019,1,3
43.64,-8.393213000000001,4.139146,-2.0906408,1004.14734,1,3
43.68,-8.43621,4.096246,-1.9580753,1004.11725,1,3
43.72,-8.35015,4.1534443,-2.0716991,1004.12714,1,3
43.76,-8.455283,4.0867124,-2.048025,1004.0844,1,3
43.8,-8.651232,4.0581116999999995,-2.0480226999999998,1004.0896,1,3
43.84,-8.445679,4.234474,-1.9580668,1004.1123,1,3
43.88,-8.593829,4.1391425,-1.8728456000000002,1004.087,1,3
43.92,-8.541228,4.1010094,-1.9012498,1004.04895,1,3
43.96,-8.622944,4.148686,-1.9912455000000002,1004.0794,1,3
44.0,-8.450867,4.1105537000000005,-1.849213,1004.0517,1,3
44.04,-8.431745,4.11532,-1.7308525000000001,1004.0519400000001,1,3
44.08,-8.44608,4.2535495999999995,-1.7450553,1004.05444,1,3
44.12,-8.350480000000001,4.2297173,-1.8018681,1004.07715,1,3
44.16,-8.278779,4.1439195,-1.7403203999999999,1004.0668300000001,1,3
44.2,-8.168839,4.1725187,-1.7071793000000002,1004.03406,1,3
44.24,-8.240533000000001,4.0485883000000005,-1.6977099999999998,1004.0288,1,3
44.28,-8.250089,4.205883999999998,-1.8302729,1004.05927,1,3
44.32,-8.078012,4.22495,-1.7261157999999999,1004.04645,1,3
44.36,-8.111467,4.0867205,-1.674037,1004.0342400000001,1,3
44.4,-8.221397999999999,4.043821,-1.7071775000000002,1004.0065,1,3
44.44,-8.250074,4.172518,-1.7592556000000001,1004.0113,1,3
44.48,-8.106676,4.19635,-1.626692,1004.0292,1,3
44.52,-8.336103,3.948489700000001,-1.7119107,1003.9963,1,3
44.56,-8.230944000000001,4.234483,-1.6030191999999999,1003.9685699999999,0,0
44.6,-8.22138,4.186817,-1.7119102,1003.9634,0,0
44.64,-8.173579,4.143918,-1.7071755000000002,1003.99615,0,0
44.68,-8.082759,3.9866216,-1.7119095000000002,1003.98364,0,0
44.72,-7.991939,4.167751,-1.6550963,1003.9684,0,0
44.76,-8.054072,4.0199876,-1.7355808999999998,1003.94073,0,0
44.8,-8.082747,3.9818552000000014,-1.7071741000000002,1003.9887,0,0
44.84,-7.996707400000001,4.115318299999998,-1.7497833999999999,1003.966,0,0
44.88,-8.011044,4.0247536,-1.6503606,1003.97614,0,0
44.92,-8.130535,3.8722236000000003,-1.8018612,1003.9583,0,0
44.96,-8.093221,4.086741399999998,-1.6788512,1003.9507,0,0
45.0,-7.988098,4.139175,-1.7119951,1003.9435,0,0
45.04,-8.040707000000001,3.981879,-1.7640764,1003.9356,0,0
45.08,-8.031179,3.9246809999999996,-1.6551881000000002,1003.9685,0,0
45.12,-7.9547339999999975,4.2583410000000015,-1.6409878,1003.946,0,0
45.16,-7.8830724000000005,4.048613,-1.664663,1003.9435,0,0
45.2,-8.308505,3.8913176,-1.7972289000000001,1003.92584,0,0
45.24,-8.141243,3.9961830000000003,-1.6883407,1003.941,0,0
45.28,-7.983544999999999,4.020016,-1.6741407,1003.9078,0,0
45.32,-8.408977499999999,3.7578561,-1.8067069,1003.93085,0,0
45.36,-8.122223,4.0104847,-1.749897,1003.9281,0,0
45.4,-8.184391,4.1058164,-1.8256505,1003.913,0,0
45.44,-8.232224,4.0676847,-1.7309653999999999,1003.90533,0,0
45.48,-8.265717,3.9151561000000004,-1.8445941000000003,1003.9306,0,0
45.52,-8.088897,3.953289,-1.6978306,1003.92834,0,0
45.56,-8.256222,3.9437568,-1.8824756,1003.9281599999999,0,0
45.6,-8.261032,3.9866567,-1.7593839,1003.9408599999999,0,0
45.64,-8.1320095,4.0629225,-1.8824811999999997,1003.92065,0,0
45.68,-8.409272999999999,3.8960936,-1.8730153999999999,1003.8954,0,0
45.72,-8.222892,3.8484287000000004,-1.6741734000000001,1003.8802,0,0
45.76,-8.3233,3.9818935,-1.8067396,1003.9233,0,0
45.8,-8.304212,3.9580612,-1.745195,1003.9181,0,0
45.84,-8.514558000000001,3.9723617999999994,-1.9629811000000001,1003.9359,0,0
45.88,-8.50025,3.9675962999999994,-1.7925453999999998,1003.9233,0,0
45.92,-8.404685,3.9580636,-1.8114859,1003.93335,0,0
45.96,-8.375494999999999,3.87702,-1.7072822,1003.8751,0,0
46.0,-8.447205,3.8627199999999995,-1.7640958999999998,1003.91565,0,0
46.04,-8.404198,4.0438495,-1.948739,1003.9335,0,0
46.08,-8.495026,3.9532852,-1.8161764999999999,1003.8977699999999,0,0
46.12,-8.671888000000001,3.9866513999999995,-1.9203343000000002,1003.9284,0,0
46.16,-8.452028,4.1391816,-1.8587883,1003.9385,0,0
46.2,-8.542856,3.9914184,-1.9298054,1003.9311,0,0
46.24,-8.490291000000001,4.005718,-1.8919311999999997,1003.92584,0,0
46.28,-8.633695,4.0724506,-1.9156042000000002,1003.89307,0,0
46.32,-8.499872,4.110583,-1.8919331999999998,1003.92584,0,0
46.36,-8.605039999999999,4.1248837,-2.086045,1003.92584,0,0
46.4,-8.729325,4.1439495000000015,-2.076577,1003.9158,0,0
46.44,-8.495125999999999,4.2869470000000005,-1.9866244999999998,1003.941,0,0
46.48,-8.514256,4.1296506,-2.0008287,1003.903,0,0
46.52,-8.590745,4.0819849999999995,-1.9960953000000001,1003.9106400000001,0,0
46.56,-8.571636,4.0104876,-2.0292369999999997,1003.9586,0,0
46.6,-8.590766,4.04862,-2.0481756,1003.92334,0,0
46.64,-8.643355999999999,4.034321,-2.0623798,1003.92065,0,0
46.68,-8.629027,4.1963835,-2.1002562,1003.92584,0,0
46.72,-8.59558,4.09152,-1.958225,1003.92847,0,0
46.76,-8.566913000000001,4.115353,-1.9582261000000003,1003.92346,0,0
46.8,-8.456988,4.25835,-1.9061486,1003.9106,0,0
46.84,-8.753347,4.2631164,-2.0765884,1003.9487,0,0
46.88,-8.538267,4.315549,-2.0529175,1003.9311,0,0
46.92,-8.457022,4.258351,-2.0055742,1003.9184,0,0
46.96,-8.498994999999999,4.143928,-2.043354,1003.93353,0,0
47.0,-8.460725,4.253557,-2.0575542,1003.91315,0,0
47.04,-8.441577,4.286923000000002,-2.0244107,1003.9234,0,0
47.08,-8.489345,4.1868243,-1.9486575000000002,1003.9134,0,0
47.12,-8.65661,4.2344894,-2.0291398000000003,1003.94116,0,0
47.16,-8.5562,4.3584190000000005,-2.0149336,1003.93353,0,0
47.2,-8.517934,4.4442163,-1.9770557,1003.92346,0,0
47.24,-8.465327,4.3488846,-2.104882,1003.9437,0,0
47.28,-8.532214,4.182054,-2.0670040000000003,1003.89575,0,0
47.32,-8.450925,4.291684,-1.9202343999999998,1003.90076,0,0
47.36,-8.670767999999999,4.2058854000000006,-1.9912478999999998,1003.93604,0,0
47.4,-8.293133000000001,4.596742,-1.9533699,1003.9311,0,0
47.44,-8.455615,4.3584137,-2.0906648999999997,1003.9259,0,0
47.48,-8.613319,4.286914299999999,-1.9628332,1003.9538,0,0
47.52,-8.436437,4.315513,-1.9296898,1003.93604,0,0
47.56,-8.579802,4.320279599999999,-1.8870772,1003.9311,0,0
47.6,-8.541533,4.4346757000000006,-1.8113241999999998,1003.9033,0,0
47.64,-8.59408,4.420375,-2.043307,1003.93115,0,0
47.68,-8.809142,4.2201796,-2.0385702,1003.9261,0,0
47.72,-8.531885,4.472805999999999,-1.9912233,1003.9058,0,0
47.76,-8.421919,4.5300044999999995,-1.924939,1003.91595,0,0
47.8,-8.460127,4.286908599999999,-1.9770147,1003.9286,0,0
47.84,-8.546133,4.3250410000000015,-2.0101526,1003.9134,0,0
47.88,-8.13026,4.5633674000000015,-1.8681176,1003.93365,0,0
47.92,-8.283185000000001,4.5204678,-2.052757,1003.9134,0,0
47.96,-8.309039,4.673046,-2.0245295,1003.92365,0,0
48.0,-8.2899685,4.763612,-2.0482058999999997,1003.92865,0,0
48.04,-8.309133000000001,4.7779120000000015,-2.0056005,1003.9413,0,0
48.08,-8.237480999999999,4.7302480000000005,-1.9393227,1003.94385,0,0
48.12,-8.304452000000001,4.7397823,-2.0766256000000003,1003.9261,0,0
48.16,-8.462228,4.6873510000000005,-2.0576918,1003.9387,0,0
48.2,-8.385802,4.825582499999999,-1.8825237000000001,1003.9085,0,0
48.24,-8.3237095,4.792218,-1.9914188000000002,1003.9438,0,0
48.28,-8.170803999999999,4.692121,-2.0577052,1003.9212,0,0
48.32,-8.25211,4.606324,-2.0482407,1003.9110000000001,0,0
48.36,-8.381211,4.653991,-1.9156817,1003.91614,0,0
48.4,-8.194849000000001,4.8494209999999995,-2.0151086,1003.9060000000001,0,0
48.44,-8.218793,4.916154,-2.1192696,1003.9363,0,0
48.48,-8.218841000000001,4.6682944000000015,-2.0103827,1003.9313,0,0
48.52,-8.194989999999999,4.6539955000000015,-2.0198560000000003,1003.8910000000001,0,0
48.56,-8.242832,4.625397,-1.9583129000000001,1003.8909,0,0
48.6,-8.615706,4.5825,-1.8920356,1003.8833,0,0
48.64,-8.362424,4.9066267,-2.2755267999999997,1003.9540400000001,0,0
48.68,-8.295555,4.887562,-2.1382334,1003.9264,0,0
48.72,-8.458114,4.654001,-1.9630646,1003.8985,0,0
48.76,-8.142698,4.792233,-1.9157254000000001,1003.9161,0,0
48.8,-8.008909,4.6730704,-2.029355,1003.9087,0,0
48.84,-8.104553999999998,4.5110083,-2.0530317,1003.9263,0,0
48.88,-8.257551,4.5443754,-2.0814418999999997,1003.9337,0,0
48.92,-8.386655000000001,4.7302723,-2.029368,1003.9010599999999,0,0
48.96,-8.610871000000001,4.8255925,-2.0245938000000003,1003.8707,0,0
49.0,-8.543984,5.0019565,-1.8541581999999999,1003.8480000000001,0,0
49.04,-8.333701,5.1783195,-1.835223,1003.8836699999999,0,0
49.08,-8.11864,5.1258883,-1.650584,1003.8455,0,0
49.12,-8.720925,4.4109050000000005,-1.5038203,1003.8632,0,0
49.16,-8.486742,4.4681044000000005,-1.8304965,1003.8808,0,0
49.2,-8.309914,4.387074,-2.2660642,1003.86816,0,0
49.24,-8.587174000000001,4.6206365,-1.7831577,1003.87335,0,0
49.28,-8.305193,4.7826996,-1.7452849,1003.9011,0,0
49.32,-8.343463,4.7827,-1.9109919999999998,1003.91864,0,0
49.36,-8.400847,4.4728746,-1.9678074,1003.92365,0,0
49.4,-8.386538999999999,4.4061437,-1.9062629,1003.9365,0,0
49.44,-8.286192,4.625406,-1.972547,1003.95416,0,0
49.48,-8.51565,4.6158733,-1.9346746,1003.9490400000001,0,0
49.52,-8.463102000000001,4.6730733,-1.9488806,1003.9540400000001,0,0
49.56,-8.291057,4.634941599999999,-1.9914924999999999,1003.93146,0,0
49.6,-8.042536,4.649242,-2.034105,1003.9619,0,0
49.64,-8.047343,4.487179,-1.9962322,1003.9644,0,0
49.68,-8.520575,4.2822185,-2.0388448,1003.9188,0,0
49.72,-8.520601,4.22502,-1.8684086,1003.9010599999999,0,0
49.76,-8.166925,4.735042,-2.0530531,1003.9644,0,0
49.8,-8.157395,4.730277,-2.195088,1003.9417,0,0
49.84,-8.276917,4.692145,-2.1146054,1003.9036,0,0
49.88,-8.4203415,4.553915,-2.2471714,1003.8583,0,0
49.92,-8.40603,4.458585,-1.6553735,1003.8508,0,0
49.96,-8.576914,4.6063184999999995,-1.7357496,1003.8634,0,0
50.0,-8.404823,4.825579599999998,-2.109766,1003.9013,0,0
50.04,-8.538638,4.5777183,-2.2707338,1003.9341,0,0
50.08,-8.447802000000001,4.7922134000000005,-2.5263897999999996,1003.92645,0,0
50.12,-7.7929516,4.9495096,-1.9440564999999999,1003.9391,0,0
50.16,-7.8120527000000015,4.792212999999999,-2.3701513,1003.95935,0,0
50.2,-8.691516,4.458553,-2.4411657000000004,1003.9568,0,0
50.24,-8.15616,4.606315599999999,-2.1902404,1003.9313,0,0
50.28,-8.199160000000001,4.7159457,-2.3985524,1003.9540400000001,0,0
50.32,-8.22304,4.830343,-2.4458947,1003.96185,0,0
50.36,-8.007931,4.8112764000000015,-2.2470480999999998,1003.9518,0,0
50.4,-8.256461999999999,4.744544,-2.1949682,1003.9365,0,0
50.44,-8.160848,4.625380000000002,-2.2754512000000005,1003.9518,0,0
50.48,-8.237305000000001,4.6492124000000015,-2.2044332000000004,1003.9468,0,0
50.52,-8.313761999999999,4.701644,-2.2139002999999997,1003.9391,0,0
50.56,-8.380661,4.811274,-2.1618204,1003.9596,0,0
50.6,-8.18467,4.796974,-2.0245206000000002,1003.9367,0,0
50.64,-8.308927,4.744541000000001,-2.2612392999999997,1003.9419,0,0
50.68,-8.299348,4.754074,-2.1239397999999996,1003.9469,0,0
50.72,-8.27543,4.715941,-2.1192037999999997,1003.9365,0,0
50.76,-8.2276125,4.725474,-2.048186,1003.9239,0,0
50.8,-8.347091,4.6873407,-2.0292466,1003.967,0,0
50.84,-8.308834,4.7969713,-2.1523395,1003.9189,0,0
50.88,-8.108063000000001,4.8160370000000015,-2.0292432000000002,1003.924,0,0
50.92,-8.179742,4.739772,-2.1002576,1003.929,0,0
50.96,-8.347432000000001,4.725482,-2.157107,1003.9469,0,0
51.0,-8.223155,4.8255787,-2.005606,1003.914,0,0
51.04,-8.313969,4.854178,-2.081356,1003.9368,0,0
51.08,-8.199251,4.7445474,-1.9724644,1003.9317,0,0
51.12,-8.285285,4.78268,-1.9629953999999998,1003.94934,0,0
51.16,-8.251823,4.8255787,-2.0766207999999997,1003.9418300000001,0,0
51.2,-8.447794,4.696882,-1.9345887,1003.9495,0,0
51.24,-8.299617,4.8827777,-1.9393226000000003,1003.919,0,0
51.28,-8.256594999999999,4.820812,-1.9156505000000001,1003.9596,0,0
51.32,-8.199236,4.7683805999999995,-1.9014468999999998,1003.952,0,0
51.36,-8.333067,4.6587486,-1.9582596,1003.9392,0,0
51.4,-8.294827,4.7636137000000005,-1.8730401,1003.9519,0,0
51.44,-8.199228,4.916143,-1.9866656999999999,1003.9367699999999,0,0
51.48,-8.299602,4.868478,-1.9771965,1003.93933,0,0
51.52,-8.428654,4.706414700000002,-1.9393209999999999,1003.957,0,0
51.56,-8.313936,4.7588468,-1.8304293999999999,1003.9545,0,0
51.6,-8.199218,4.706414,-1.9535236,1003.9393,0,0
51.64,-8.495564,4.658748,-2.0340085,1003.919,0,0
51.68,-8.213552,4.8398775999999994,-1.82096,1003.9468400000001,0,0
51.72,-8.132295,4.925676,-1.9677265,1003.9317,0,0
51.76,-8.203988,4.8160453,-1.9819293999999998,1003.9367699999999,0,0
51.8,-8.218325,4.8303447,-2.0245385,1003.9621,0,0
51.84,-8.218323,4.854177,-1.9819288000000002,1003.952,0,0
51.88,-8.113164999999999,4.9685745,-2.09082,1003.9721,0,0
51.92,-8.232657000000001,4.7779120000000015,-2.0434756000000003,1003.9494,0,0
51.96,-8.29601,4.7064433,-2.2092912,1003.9392,0,0
52.0,-8.243477,4.787476,-1.9631063000000002,1003.9039300000001,0,0
52.04,-8.310441,4.8685093,-2.204565,1003.9645,0,0
52.08,-8.186209,4.806545,-1.9820521,1003.9596,0,0
52.12,-8.191034,4.963842400000001,-2.0862130000000003,1003.9924,0,0
52.16,-8.234095,4.7922473,-2.0009975,1003.9546,0,0
52.2,-8.281939,4.758882,-2.1477682999999996,1003.94434,0,0
52.24,-8.176829,4.7541175,-2.0436158,1003.95215,0,0
52.28,-8.215113,4.7398185999999995,-2.0767605,1003.9166,0,0
52.32,-7.990508,4.873283,-1.9394671,1003.9164400000001,0,0
52.36,-8.219984,4.8256187000000015,-2.0104876,1003.92926,0,0
52.4,-8.258265,4.7445884000000005,-2.0578355999999998,1003.92664,0,0
52.44,-8.34913,4.8256207,-2.0625741,1003.9317599999999,0,0
52.48,-8.19144,4.8113220000000005,-1.9915619999999998,1003.9166,0,0
52.52,-8.258399,4.806557,-1.9347531999999998,1003.9546,0,0
52.56,-8.248885000000001,4.7874913,-1.9963046000000002,1003.9395,0,0
52.6,-8.358867,4.7255282,-1.9442303,1003.9518400000001,0,0
52.64,-8.258536,4.6730967,-2.0294538,1003.9571,0,0
52.68,-8.31594,4.797028,-1.9773793999999998,1003.9468400000001,0,0
52.72,-8.182148,4.901893,-1.9158362,1003.9166,0,0
52.76,-8.277789,4.839929,-1.9537153999999999,1003.9318,0,0
52.8,-8.301735,4.744599299999999,-1.9253133999999998,1003.9471,0,0
52.84,-8.368694,4.706468,-1.9726613000000002,1003.92926,0,0
52.88,-8.340061,4.749368,-1.9821343,1003.9367699999999,0,0
52.92,-8.206273,4.8161010000000015,-1.9679353,1003.93695,0,0
52.96,-8.261944999999999,4.711195,-2.048266,1003.9495,0,0
53.0,-8.357516,4.6778293,-2.0861389999999997,1003.92664,0,0
53.04,-8.300139,4.739794,-1.9725113,1003.92926,0,0
53.08,-8.233198,4.7969919999999995,-2.043525,1003.9468400000001,0,0
53.12,-8.39091,4.644461,-1.9914447,1003.9392,0,0
53.16,-8.314409,4.68736,-2.0861306,1003.9368,0,0
53.2,-8.333505,4.653993,-1.9440964,1003.9317,0,0
53.24,-8.295247,4.696892,-2.0151105,1003.94934,0,0
53.28,-8.381258,4.6873584,-2.1003277000000002,1003.9418,0,0
53.32,-8.256960000000001,4.801755,-1.9914343,1003.9368,0,0
53.36,-8.190021,4.7779217,-1.8683376,1003.93427,0,0
53.4,-8.328615,4.6253915,-1.9724926999999999,1003.92163,0,0
53.44,-8.347710000000001,4.6825895,-1.9582872,1003.9267,0,0
53.48,-8.185174,4.7731533,-2.048239,1003.9419,0,0
53.52,-8.275967999999999,4.77792,-1.9724863000000001,1003.94434,0,0
53.56,-8.266386,4.796985,-1.9014682,1003.9317,0,0
53.6,-8.2568035,4.8589497,-1.9251383999999998,1003.919,0,0
53.64,-8.247223,4.8065169999999995,-1.9440738999999998,1003.91156,0,0
53.68,-8.323677,4.854182,-1.9203998,1003.9317599999999,0,0
53.72,-8.424028,4.830349,-2.0482266,1003.9519,0,0
53.76,-7.979486,5.0210104000000015,-1.8399109,1003.9544,0,0
53.8,-8.361848,4.8351144999999995,-2.0576913,1003.9469,0,0
53.84,-8.170633,4.930445,-1.8730474999999998,1003.90894,0,0
53.88,-8.118033,4.882778599999999,-1.9677337,1003.94934,0,0
53.92,-8.180147,4.9256773,-1.8777778000000005,1003.9468,0,0
53.96,-8.156836,4.973357,-1.906238,1003.92163,0,0
54.0,-8.185514999999999,4.997189499999998,-2.0719423,1003.90894,0,0
54.04,-8.099480999999999,5.0305557,-1.773675,1003.9064,0,0
54.08,-8.300234,4.878026,-1.8304877,1003.9242,0,0
54.12,-8.209419,4.9685907,-1.9204415000000001,1003.9392,0,0
54.16,-8.132943,4.982890599999998,-1.9062383999999999,1003.92676,0,0
54.2,-8.2142,4.9638243,-1.9299107,1003.9367699999999,0,0
54.24,-8.152064,4.944758,-1.8257539,1003.9292,0,0
54.28,-8.252441000000001,4.9018593,-2.0245990000000003,1003.9318,0,0
54.32,-8.137727,5.073455,-1.8825669999999999,1003.9368,0,0
54.36,-8.166408,5.092521700000002,-1.8778328000000002,1003.9518400000001,0,0
54.4,-8.204647999999999,4.987657,-1.9062392,1003.9443,0,0
54.44,-8.156851,4.959058,-1.8541609000000001,1003.9317,0,0
54.48,-8.214209,4.9018593,-1.8920363000000002,1003.9291400000001,0,0
54.52,-8.295467,4.801761,-1.8494266,1003.9391,0,0
54.56,-8.185533,4.868494,-1.7642074,1003.94434,0,0
54.6,-8.223773,4.839894,-1.8967711,1003.94934,0,0
54.64,-8.33371,4.7969947,-1.9725215,1003.9192,0,0
54.68,-8.257234,4.8970933,-1.8636305,1003.9164400000001,0,0
54.72,-8.204658,4.8303614,-1.78788,1003.9114,0,0
54.76,-8.266796000000001,4.806528599999999,-1.8020834,1003.934,0,0
54.8,-8.242898,4.8160620000000005,-1.9157093,1003.9468,0,0
54.84,-8.328936,4.8494269999999995,-1.7784115000000005,1003.952,0,0
54.88,-8.166424000000001,4.8494269999999995,-1.7547396,1003.9341,0,0
54.92,-8.376736,4.8732605000000015,-1.944116,1003.94916,0,0
54.96,-8.314665,4.8065305,-1.8541682000000002,1003.9468,0,0
55.0,-8.372026,4.7350316,-1.778418,1003.9543,0,0
55.04,-8.4724045,4.6873665,-1.7405431,1003.9417,0,0
55.08,-8.706619,4.735032,-1.7310747,1003.9164,0,0
55.12,-8.873917,4.4585714,-1.6789967000000001,1003.9367,0,0
55.16,-8.697068,4.5825024,-1.503824,1003.92645,0,0
55.2,-8.534557000000001,4.2726765,-1.323917,1003.9316,0,0
55.24,-8.510663000000001,3.934251,-1.3286517,1003.9719,0,0
55.28,-8.821354,3.557693,-1.106135,1003.94916,0,0
55.32,-8.673183,3.83892,-0.87414956,1003.9085699999999,0,0
55.36,-8.697086,3.7721883999999997,-0.6563673000000001,1003.94135,1,4
55.4,-8.362503,4.1201468,-0.5190699000000001,1003.94916,1,4
55.44,-8.352948,4.2583776,-0.27288118,1003.92645,1,4
55.48,-8.305154,4.7540994,-0.19713105,1003.9467,1,4
55.52,-8.171323,5.221222,-0.31075707,1003.9566,1,4
55.56,-8.004033999999999,4.820831,-0.7841979,1003.9642,1,4
55.6,-8.864402,5.044859,-1.7310792000000002,1003.9843,1,4
55.64,-8.362525999999999,5.2402883000000005,-2.450709,1003.9339,1,4
55.68,-8.515483999999999,5.4023514000000015,-2.1240354,1003.8659,1,4
55.72,-9.390191,5.364219,-2.815259,1003.9061,1,4
55.76,-9.299379,5.9171394999999976,-2.8957439999999997,1003.97955,1,4
55.8,-8.611091,5.9362054,-3.00937,1003.95685,1,4
55.84,-8.01362,5.4833837,-2.1335056,1003.8783599999999,1,4
55.88,-7.559541999999999,4.9971943,-1.8305040000000001,1003.87354,1,4
55.92,-6.9811893,4.5825043,-1.5559089,1003.8936,1,4
55.96,-7.283061,4.4538255,-2.1525119999999998,1003.8710000000001,1,4
56.0,-7.502965,4.3155956,-2.1051712000000005,1003.83276,1,4
56.04,-7.4695354000000025,4.5014925,-1.9347352,1003.85834,1,4
56.08,-7.072844,5.1116123,-3.8758440000000003,1003.8606599999999,1,4
56.12,-7.6177773,6.017258999999999,-2.6685743,1003.9061,1,4
56.16,-7.756422,5.4262065999999995,-4.4439793,1004.00964,1,4
56.2,-8.937066,4.425231,-4.2782774,1003.9593,1,4
56.24,-10.136828,5.1545143,-2.8958342,1003.91864,1,4
56.28,-8.377895,5.9648304,-4.0036879999999995,1003.9339,1,4
56.32,-8.024221,4.8351574,-1.608082,1003.9616,1,4
56.36,-8.033813,3.7436163000000002,-1.1393791000000002,1003.9009,1,4
56.4,-8.277614999999999,4.101108999999999,-0.51917493,1003.8933,1,4
56.44,-7.9669604000000005,4.6301974999999995,-0.45763066,1003.9263,1,4
56.48,-8.669626,4.5968323,-0.6612132,1003.91614,1,4
56.52,-9.176313,4.258407599999999,-0.44343328,1003.9061,1,4
56.56,-8.134352999999999,5.035357,-0.93581456,1003.8985,1,4
56.6,-7.947971000000001,4.820863,-1.7169941999999998,1003.9214,1,4
56.64,-8.081839,4.2679434,-1.4992146000000002,1003.89856,1,4
56.68,-7.044652,4.8589972999999995,-0.85060406,1003.8631,1,4
56.72,-7.001666999999999,5.4309845,-1.3524538000000002,1003.9009,1,4
56.76,-7.943320799999999,5.702678700000001,-1.470817,1003.9288,1,4
56.8,-8.335298,5.71698,-1.6081178,1003.9212,1,4
56.84,-9.143115,5.5406175000000015,-2.1762490000000003,1003.8985,1,4
56.88,-10.32854,5.607350299999999,-2.0626264,1003.88574,1,4
56.92,-10.87347,5.4357553,-2.9811041,1003.89325,1,4
56.96,-6.5123606,5.1783137,-3.7857763999999996,1003.89594,1,4
57.0,-7.21495,4.606325599999999,-2.0340426,1003.9111,1,4
57.04,-7.473015299999999,4.4776278,-2.37965,1003.9515,1,4
57.08,-7.449071400000001,4.02957,-1.8493928,1003.98425,1,4
57.12,-7.362997,4.1582665,-1.9866871,1003.9766,1,4
57.16,-7.802691,3.872272,-2.062433,1003.9262,1,4
57.2,-8.69169,4.5348225,-2.7205112000000002,1003.8679,1,4
57.24,-7.745245,5.073442,-2.3417547,1003.8984,1,4
57.28,-6.927853999999999,4.8303465999999995,-3.1892092,1003.9892,1,4
57.32,-9.585385,3.6291738,-2.1997151,1003.9541,1,4
57.36,-9.437167,4.0915284,-2.1855078,1003.9437,1,4
57.4,-9.25549,5.068671,-2.128691,1003.9036,1,4
57.44,-9.465757,4.906607,-2.0718741,1003.87335,1,4
57.48,-10.10621,4.143957,-1.2291459999999998,1003.8707,1,4
57.52,-9.585164,4.134423,-0.37694898,1003.8907,1,4
57.56,-8.155963999999999,5.0734334,0.2574648,1003.8960599999999,1,4
57.6,-7.826110000000001,5.4309244,-0.39587873,1003.93604,1,4
57.64,-7.3194065,5.054365,-0.6752045999999999,1003.89575,1,4
57.68,-7.883382000000001,4.534809,-0.9687338,1003.8957,1,4
57.72,-8.002831,4.396578,-0.90718246,1003.89856,1,4
57.76,-7.1424265,5.3546553,-0.52842623,1003.85785,1,4
57.8,-6.5257845,5.6215806,-0.6325789,1003.8452,1,4
57.84,-7.1996949999999975,6.2698317,-0.37218282,1003.8503,1,4
57.88,-6.7168902999999975,6.817984599999999,-0.99238575,1003.84265,1,4
57.92,-7.859222,7.256507000000001,-0.3153621,1003.89307,1,4
57.96,-8.758325,7.5234466,-1.5652907,1003.91846,1,4
58.0,-10.144445,7.037257,-2.763093,1003.9286,1,4
58.04,-9.943669,5.178299,-2.5737147,1003.8981,1,4
58.08,-8.347194,4.6921096,-1.8872240000000002,1003.92847,1,4
58.12,-7.1570005000000005,4.8017397000000015,-1.513204,1003.9309,1,4
58.16,-7.811812,4.434715,-1.9203607,1003.941,1,4
58.2,-6.7793517,4.8208055,-2.2375637999999998,1003.96136,1,4
58.24,-6.4112824999999996,4.4871454,-1.2101959,1003.94116,1,4
58.28,-7.5249539999999975,4.549110400000001,-1.0539583000000001,1003.9486699999999,1,4
58.32,-8.232345,4.782671499999998,-2.1760104,1003.92584,1,4
58.36,-8.208423,4.858935400000001,-2.019773,1003.9309,1,4
58.4,-8.7628565,4.8303356,-2.3227727000000002,1003.9106,1,4
58.44,-9.546721,4.949498999999999,-2.5452876,1003.9384,1,4
58.48,-9.188214,5.035296400000001,-2.4363945,1003.9385,1,4
58.52,-9.541899,5.3880205000000005,-1.7877789000000002,1003.9562400000001,1,4
58.56,-9.054335,5.3975534000000005,-1.5131814,1003.98395,1,4
58.6,-8.839222,4.7588344000000005,-0.96398836,1003.99146,1,4
58.64,-8.432917,5.2926884,0.31430286,1004.0118,1,4
58.68,-7.8258576,5.4261513,-0.36271474,1003.94604,1,4
58.72,-8.036147,5.0448265,-0.5899641999999999,1003.9056,1,4
58.76,-8.069585,4.9113625999999995,0.9155784,1003.8273300000001,1,4
58.8,-7.2569922999999985,4.6730336999999995,-0.7651329000000001,1003.8728,1,4
58.84,-7.5963387,4.22021,-1.3048532,1003.8955,1,4
58.88,-7.2091503,5.0114584,-0.43372053,1003.8778,1,4
58.92,-6.4109077,5.826539,-0.08810752,1003.92065,1,4
58.96,-7.874109700000001,5.5596260000000015,-0.43850680000000003,1003.9511,1,4
59.0,-8.404669,5.6454244000000005,-0.7131024,1003.9538,1,4
59.04,-9.002146,6.041048,-1.0776516999999999,1003.94855,1,4
59.08,-9.967668,6.265077,-1.4990138000000002,1003.9764,1,4
59.12,-10.856711,5.09727,-1.5226859,1003.9508,1,4
59.16,-8.375995,5.0305386,-1.6552494,1003.89026,1,4
59.2,-7.5921087,4.6158480000000015,-1.5321548999999999,1003.91315,1,4
59.24,-9.222022,3.886565,-1.4706078000000002,1003.9205300000001,1,4
59.28,-9.862518,4.039095,-0.6515559,1003.9609,1,4
59.32,-6.545336,4.5777154000000015,-2.8199134,1003.9661,1,4
59.36,-7.4104815,4.039095,-1.5842339,1003.9433,1,4
59.4,-7.9219217,4.196391,-1.7262661,1003.91046,1,4
59.44,-8.447701,4.1201262000000005,-1.8209543000000001,1003.91046,1,4
59.48,-7.042439999999999,4.5586495000000005,-1.9109082,1003.9128400000001,1,4
59.52,-8.246952,4.3107885999999995,-2.0434716,1003.9153,1,4
59.56,-7.486963999999999,4.568183,-2.5689905,1003.9407,1,4
59.6,-9.092979,4.186857700000001,-1.9440494,1003.8702,1,4
59.64,-11.697973,4.25359,-1.1534038999999998,1003.9003,1,4
59.68,-10.111080000000001,4.596782,-0.9640278,1003.9106,1,4
59.72,-6.6218247,5.488128700000001,-0.98296547,1003.8371,0,0
59.76,-7.1810637,5.926652,-0.1260384,1003.8804,0,0
59.8,-9.016509,5.3784980000000004,-0.8030584,1003.8753,0,0
59.84,-10.020268,4.477618700000002,-0.46218136,1003.8776,0,0
59.88,-9.580527,4.7397795,0.27165127,1003.9208,0,0
59.92,-7.6208100000000005,5.4833620000000005,-0.1875861,1003.9233,0,0
59.96,-7.271886,5.259334,-1.1818111999999998,1003.89044,0,0
60.0,-8.261306,4.978107,-0.9072159,1003.913,0,0
60.04,-7.864583500000001,4.611082,-0.2538681,1003.918,0,0
60.08,-9.795625999999999,4.1439595,-0.6989023,1003.87506,0,0
60.12,-9.312866,4.401354,-0.7983249,1003.9128400000001,0,0
60.16,-8.055484,4.8780019999999995,-0.57578087,1003.9229,0,0
60.2,-7.7878065,5.2164273,-0.29645026,1003.918,0,0
60.24,-7.9503116999999985,5.0734305,-1.1723143,1003.9002,0,0
60.28,-8.681612,4.7064056,-0.99714065,1003.9205300000001,0,0
60.32,-8.629027,4.7540708,-0.26330715,1003.9177,0,0
60.36,-8.07934,4.6682725,-0.49529213,1003.9154699999999,0,0
60.4,-8.738945,4.496676,-0.40533775,1003.9432,0,0
60.44,-8.385232,4.644439,-0.8977151,1003.9227,0,0
60.48,-8.571635,4.4490104000000015,-0.41480500000000003,1003.9482,0,0
60.52,-8.901434,4.6492057,-0.22542801,1003.9404,0,0
60.56,-8.710235,4.8446345,-0.6941335999999999,1003.8974599999999,0,0
60.6,-9.102167999999999,4.7493024,-1.0776194,1003.9003,0,0
60.64,-8.346950999999999,4.6349053,-0.41953630000000003,1003.91046,0,0
60.68,-8.41864,4.377511,0.063373685,1003.92285,0,0
60.72,-8.557246000000001,4.277413,0.26221943,1003.9607,0,0
60.76,-8.74365,4.253579599999999,-0.62784785,1003.9328,0,0
60.8,-8.428175,4.5824723,-1.4042895,1003.905,0,0
60.84,-8.557221,4.568173000000002,-1.1154901000000002,1003.8849,0,0
60.88,-8.705387,4.5014400000000006,-0.76040894,1003.92035,0,0
60.92,-8.561983,4.3250779999999995,-0.99712837,1003.9052,0,0
60.96,-8.767507,4.372743,-0.89297074,1003.9404,0,0
61.0,-8.648004,4.653969999999998,-0.45267034,1003.9023,0,0
61.04,-8.490262,4.587238,-0.57102966,1003.9507,0,0
61.08,-8.6193075,4.506206,-1.2669864,1003.9153,0,0
61.12,-8.308613000000001,4.5348053,-1.5699875,1003.8947,0,0
61.16,-8.696017,4.6158423,-0.9592714,1003.92786,0,0
61.2,-8.791615,4.3250823,-1.0302875,1003.9075,0,0
61.24,-8.299296,4.563410299999998,-1.4516497,1003.9377,0,0
61.28,-8.762938499999999,4.5824766,-0.92139643,1003.91785,0,0
61.32,-8.514389999999999,4.510978,-0.9924126,1003.9454300000001,0,0
61.36,-8.504831,4.706407,-1.0018816,1004.00085,0,0
61.4,-8.385338,4.758839,-1.0634290000000002,1003.9126,0,0
61.44,-8.500053999999999,4.7064075,-1.2717428999999998,1003.9100300000001,0,0
61.48,-8.710366,4.4776125,-0.9734755999999999,1003.9402,0,0
61.52,-8.935018,4.5014449999999995,-0.87878746,1003.9278,0,0
61.56,-8.237169,4.6825747,-0.92139727,1003.9278,0,0
61.6,-8.390124,4.6921077,-0.77936524,1003.87225,0,0
61.64,-8.519179,4.5967769999999994,-1.0871016000000002,1003.9151,0,0
61.68,-8.619556,4.491912999999999,-1.2622749,1003.9126,0,0
61.72,-8.418806,4.45378,-1.2480717,1003.93787,0,0
61.76,-8.672137,4.4633136,-1.3048846,1003.95294,0,0
61.8,-8.610002,4.496679,-1.2338687,1003.9682,0,0
61.84,-8.801194,4.496679,-1.2764784,1003.9099,0,0
61.88,-8.504847999999999,4.6825747,-0.98767984,1003.9251,0,0
61.92,-8.189383,4.830337999999999,-0.6468028,1003.9378,0,0
61.96,-8.52397,4.644442,-0.8740543,1003.93005,0,0
62.0,-8.375796000000001,4.6873417,-0.99241453,1003.9100300000001,0,0
62.04,-8.676926,4.3346160000000005,-0.8929921999999999,1003.9225,0,0
62.08,-8.786862,4.348916,-1.0492277,1003.9251,0,0
62.12,-8.571772,4.410881,-1.1533847,1003.9326,0,0
62.16,-8.509379,4.649203,-1.1344237,1003.9452,0,0
62.2,-8.533267,4.711168,-0.90243685,1003.9403,0,0
62.24,-8.552379,4.620603,-1.006593,1003.9427,0,0
62.28,-8.571487,4.5920033,-0.9829200000000001,1003.94525,0,0
62.32,-8.624057,4.4919057,-1.0207945999999999,1003.9325,0,0
62.36,-8.681407,4.3393755,-0.9592465,1003.9427,0,0
62.4,-8.85825,4.4442395999999995,-0.90243286,1003.925,0,0
62.44,-8.581016,4.5538697,-1.0444643,1003.9401,0,0
62.48,-8.432831,4.7064,-1.0776043,1003.925,0,0
62.52,-8.4615,4.472837999999999,-0.95924324,1003.935,0,0
62.56,-8.796078999999999,4.291709,-0.87402326,1003.93744,0,0
62.6,-8.647895,4.3441405,-0.7461935000000001,1003.9099,0,0
62.64,-8.834299,4.4728374,-1.0065849,1003.9350599999999,0,0
62.68,-8.389769,4.6444335,-1.0823346,1003.9325,0,0
62.72,-8.59051,4.5538682999999995,-1.2196316999999999,1003.92,0,0
62.76,-8.643083,4.515736,-1.1391461,1003.9299,0,0
62.8,-8.600055000000001,4.5205025999999995,-1.1580828,1003.93005,0,0
62.84,-8.580926,4.315540299999999,-1.0397218000000001,1003.9275,0,0
62.88,-8.824686,4.382272,-0.9497671999999998,1003.9576400000001,0,0
62.92,-8.504431,4.3918047,-1.1107363000000001,1003.9399,0,0
62.96,-8.5809,4.5967665,-1.0491881,1003.9298,0,0
63.0,-8.552211999999999,4.520501599999999,-1.1391411,1003.95776,0,0
63.04,-8.652578,4.572933,-1.1675466,1003.96014,0,0
63.08,-8.5569725,4.4490023,-0.9497631999999999,1003.9376,0,0
63.12,-8.929791999999997,4.4633026,-0.7461833000000001,1003.9147,0,0
63.16,-8.088181500000001,4.8160186,-1.0160109,1003.91724,0,0
63.2,-8.413184,4.663488,-1.2527289,1003.9021,0,0
63.24,-8.872026,4.3298287,-1.0775542,1003.9374,0,0
63.28,-8.790744,4.344126999999999,-1.0775518,1003.9425699999999,0,0
63.32,-8.642547,4.534789,-1.3332076000000002,1003.9349,0,0
63.36,-8.451338,4.6253533,-1.1627676000000002,1003.9880400000001,0,0
63.4,-8.652061,4.72545,-0.78401256,1003.98035,0,0
63.44,-8.494306,4.8589134000000005,-0.99705875,1003.9602,0,0
63.48,-8.441711,4.787414599999999,-1.0964798999999998,1003.96515,0,0
63.52,-8.355647,4.577685400000001,-0.7792720000000001,1003.97284,0,0
63.56,-8.456005000000001,4.5347857000000005,-0.83134896,1003.9880400000001,0,0
63.6,-8.585038,4.3822556,-1.2716465000000001,1003.9299,0,0
63.64,-8.771421,4.3822545999999996,-1.4941608,1003.9223599999999,0,0
63.68,-8.757066,4.520485,-1.4326122,1003.94745,0,0
63.72,-8.365095,4.644414,-1.0017788,1003.93744,0,0
63.76,-8.197777,4.763578,-0.95916694,1003.9476,0,0
63.8,-8.575358,4.5872145,-0.6608974,1003.9728,0,0
63.84,-8.895583,4.4346843,-0.83133394,1003.98285,0,0
63.88,-8.565754,4.668245,-1.1106617,1003.9575,0,0
63.92,-8.317188,4.7540426,-1.1153946000000001,1003.9223599999999,0,0
63.96,-8.398422,4.8064747,-0.9354851999999999,1003.9374,0,0
64.0,-8.723419999999999,4.620578,-0.9922953000000001,1003.9576400000001,0,0
64.04,-8.666043,4.563378299999999,-0.845527,1003.98535,0,0
64.08,-8.570421000000001,4.6062769999999995,-1.1864018,1003.9552,0,0
64.12,-8.240594,4.7921724,-1.1579936000000002,1003.9703,0,0
64.16,-8.288530999999999,4.7588096,-1.1390687,1003.98285,0,0
64.2,-8.393676,4.8207746,-1.2763653999999998,1003.98785,0,0
64.24,-8.809498,4.725443,-1.0349088,1003.9474,0,0
64.28,-8.632628,4.6634774000000006,-0.8502656,1003.9373,0,0
64.32,-8.379287,4.630111,-0.66562265,1003.9499,0,0
64.36,-8.517885,4.577678700000001,-0.7176994999999999,1003.94495,0,0
64.4,-8.417494,4.5729117,-0.92127746,1003.91455,0,0
64.44,-8.46049,4.9304027999999995,-0.9922915999999999,1003.9373,0,0
64.48,-8.427019,4.8875036,-1.0112280999999999,1003.93475,0,0
64.52,-8.50348,4.8112383,-1.0727738000000002,1003.93225,0,0
64.56,-8.59906,4.6682415,-0.91180277,1003.96,0,0
64.6,-8.8475895,4.410846,-0.8739256,1003.96,0,0
64.64,-8.76632,4.367947,-0.9544094000000001,1003.95245,0,0
64.68,-8.570333,4.472811,-0.8833919,1003.955,0,0
64.72,-8.632453,4.415612,-0.845515,1003.9752,0,0
64.76,-8.685014,4.3870125,-1.0443583,1003.97015,0,0
64.8,-8.426891,4.720671,-1.300015,1003.9373,0,0
64.84,-8.154425999999999,4.76357,-1.5651401000000005,1003.9727,0,0
64.88,-8.474656,4.611039599999999,-1.3473561,1003.9778,0,0
64.92,-8.909603,4.4299097000000005,-1.3378858999999999,1003.9778,0,0
64.96,-8.847448,4.291679,-0.87391275,1003.97504,0,0
65.0,-8.488947,4.258312999999999,-0.50462765,1003.97015,0,0
65.04,-8.661002,4.49664,-0.42887554,1003.9448,0,0
65.08,-8.402877,4.6634699999999984,-0.69400084,1003.94495,0,0
65.12,-8.646632,4.634869999999999,-0.85970354,1003.96,0,0
65.16,-8.589578999999999,4.754041,-1.020701,1003.9675,0,0
65.2,-8.4653,4.7492743,-1.1816705,1003.94995,0,0
65.24,-8.752084,4.5967445,-0.817121,1003.975,0,0
65.28,-8.637364999999999,4.4918804,-0.90234005,1003.97015,0,0
65.32,-8.575224,4.496647,-1.0017622,1003.9951,0,0
65.36,-8.656477,4.549079,-0.9449489999999999,1004.01025,0,0
65.4,-8.479619999999999,4.49188,-1.0869808,1003.98505,0,0
65.44,-8.508295,4.530012,-1.2763566000000002,1003.9778,0,0
65.48,-8.422255,4.6682425,-0.9212758,1003.9724,0,0
65.52,-8.474829,4.7302074,-0.798181,1003.932,0,0
65.56,-8.666018,4.687309,-1.0869794,1003.94965,0,0
65.6,-8.455702,4.7588067,-1.1674639,1003.9474,0,0
65.64,-8.541735000000001,4.6730084000000005,-0.99229056,1003.9472,0,0
65.68,-8.307521000000001,4.7492733,-0.8076484,1003.95984,0,0
65.72,-8.589526,4.6205764,-0.8171169,1003.9979,0,0
65.76,-8.489146,4.7159075999999995,-0.86446065,1003.9624,0,0
65.8,-8.861967,4.58721,-0.83605385,1003.9394,0,0
65.84,-8.474799,4.8446045,-1.2716188,1003.9269400000001,0,0
65.88,-8.484355,4.839837,-1.2290086999999998,1003.9424,0,0
65.92,-8.121086,4.9685345000000005,-1.2432116000000002,1003.942,0,0
65.96,-8.159322,4.911336,-1.1106479,1003.9775,0,0
66.0,-8.589499,4.725439499999999,-0.8171145000000001,1003.9876,0,0
66.04,-8.431763,4.7397394,-0.7981765000000001,1003.9549,0,0
66.08,-8.489116000000001,4.7826379999999995,-0.94494283,1003.9722,0,0
66.12,-8.31226,4.806471299999999,-0.99228644,1003.95465,0,0
66.16,-8.474673,4.7969356,-1.0254181999999998,1003.937,0,0
66.2,-8.273914,4.8160014,-1.1343087,1003.95715,0,0
66.24,-8.771005,4.6634717000000006,-0.8975877,1003.9825,0,0
66.28,-8.551128,4.8541336,-1.0206817,1003.9521,0,0
66.32,-7.9775424,5.030496,-1.3378860000000001,1003.9295699999999,0,0
66.36,-8.350361,4.9732975999999995,-1.2479316999999999,1003.9725300000001,0,0
66.4,-8.479407,4.897032299999999,-1.1769148999999999,1003.9445,0,0
66.44,-8.3790245,4.939931,-1.2526648,1003.942,0,0
66.48,-8.431595,5.0304956,-1.2242577,1003.98004,0,0
66.52,-8.106561,5.0686274000000004,-1.3946955,1003.9419,0,0
66.56,-8.617989999999999,4.8112330000000005,-1.1058959,1003.9496,0,0
66.6,-8.378995,4.8541317,-1.0680201999999999,1003.9799,0,0
66.64,-8.364647999999999,4.8255324,-1.1106292,1003.97473,0,0
66.68,-8.331182,4.8779645,-0.9638620999999999,1003.9799,0,0
66.72,-8.512806,4.725435299999999,-1.3426136,1003.9521,0,0
66.76,-8.656194000000001,4.6444025,-0.96386063,1004.0076,0,0
66.8,-8.450655000000001,4.811232,-1.0490792,1003.9823,0,0
66.84,-8.36939,4.806465599999999,-1.3757523999999999,1003.9521,0,0
66.88,-8.641831,4.796932,-1.086953,1003.9924,0,0
66.92,-8.249879,4.801698,-1.3236725,1003.9798,0,0
66.96,-8.230754,4.763566,-1.3426095,1003.9698,0,0
67.0,-8.3598,4.8398304,-1.2999992,1003.93445,0,0
67.04,-8.254636999999999,4.8779626,-1.3852178999999998,1003.9773,0,0
67.08,-8.694372,4.625335,-1.3994205,1003.96466,0,0
67.12,-8.77562,4.582436,-1.2999971000000001,1003.9672,0,0
67.16,-8.369073,4.7969246,-1.1058624,1003.9647,0,0
67.2,-8.067929,4.868423,-1.0490481000000005,1003.9748,0,0
67.24,-8.474194,4.754025,-1.3331106000000001,1003.9367,0,0
67.28,-8.37858,4.7063584,-1.4088595,1003.9798,0,0
67.32,-8.670133,4.525229,-1.3662483,1003.9547,0,0
67.36,-8.588856,4.715891,-1.3946531,1003.9722,0,0
67.4,-8.364184,4.8016879999999995,-1.1768684,1003.9291400000001,0,0
67.44,-8.5075655,4.7111230000000015,-1.2668209,1003.94934,0,0
67.48,-8.464528999999999,4.658691,-0.94961417,1003.9648,0,0
67.52,-8.345016000000001,4.696823,-1.1579264,1003.95435,0,0
67.56,-8.368898,4.730189,-1.370973,1003.9468,0,0
67.6,-8.450136,4.839819,-1.342565,1003.98474,0,0
67.64,-8.373643,4.792153,-1.3425633999999995,1003.9443,0,0
67.68,-8.488339999999999,4.725421,-1.299952,1003.9365,0,0
67.72,-8.512222999999999,4.6777544,-1.1815906,1003.9822,0,0
67.76,-8.66516,4.7444863,-0.9496030999999999,1003.98474,0,0
67.8,-8.301876,4.796918,-1.1531808000000001,1003.9317,0,0
67.84,-8.51217,4.6729875,-1.2383984,1003.934,0,0
67.88,-8.483473,4.844582599999999,-1.3236161,1003.94434,0,0
67.92,-8.37352,5.0257115,-1.4845843,1003.934,0,0
67.96,-8.426083,4.8827143,-1.5461301,1003.9242,0,0
68.0,-7.962424,4.8874803,-1.8822713,1003.92163,0,0
68.04,-8.373467999999999,4.777849,-1.0158734,1003.9544,0,0
68.08,-8.626781,4.754016,-0.72233886,1003.9719,0,0
68.12,-8.3112955,4.768315,-0.9969326999999999,1003.94916,0,0
68.16,-8.560407000000001,4.7492623,-1.1390162,1003.9669,0,0
68.2,-8.4552555,4.6443987,-1.2337048000000002,1003.95435,0,0
68.24,-8.522179,4.649165,-1.1579547,1003.97186,0,0
68.28,-8.426586,4.7015970000000005,-1.0585326000000002,1003.9643,0,0
68.32,-8.593885,4.782629,-1.2857844999999999,1003.9566699999999,0,0
68.36,-8.388359,4.839827,-1.063268,1003.9593,0,0
68.4,-8.656033,4.734963400000002,-1.0632684,1003.9288,0,0
68.44,-8.57478,4.668232,-1.0680033000000002,1003.9719,0,0
68.48,-8.689503,4.6205664,-1.0822071000000002,1003.9643599999999,0,0
68.52,-8.455296,4.6110334,-1.2005676,1003.91364,0,0
68.56,-8.254548,4.6158004,-1.2100369,1003.9416,0,0
68.6,-8.35971,4.7254314000000015,-1.0443331,1003.9543,0,0
68.64,-8.498329,4.711131,-1.0538023,1003.9643599999999,0,0
68.68,-8.550912,4.696832,-1.0159276,1003.9667400000001,0,0
68.72,-8.383624000000001,4.7969300000000015,-1.1153505,1003.94653,0,0
68.76,-8.675197,4.7111316,-1.0159285,1003.9237,0,0
68.8,-8.455331,4.8541284000000005,-0.9307095999999999,1003.94135,0,0
68.84,-8.402759,4.849362,-1.1911024,1003.9518,0,0
68.88,-8.679991000000001,4.758797599999999,-1.0253987,1003.9893,0,0
68.92,-8.593961,4.6444,-1.1200871000000001,1003.9617,0,0
68.96,-8.345415,4.8112297,-0.9733212,1003.9742,0,0
69.0,-8.36932,4.7254324,-0.82655495,1003.9490400000001,0,0
69.04,-8.307186999999999,4.8016973,-1.0159316999999999,1003.9541,0,0
69.08,-8.584421,4.773098,-0.83602476,1003.9389,0,0
69.12,-8.441031,4.777865,-1.0869488,1003.9263,0,0
69.16,-8.545291,4.849341000000001,-0.99217844,1003.94147,0,0
69.2,-8.444885000000001,4.6920443,-1.1105357,1003.94147,0,0
69.24,-8.483094,4.363151,-1.3283159,1003.9617,0,0
69.28,-9.128337,4.453715,-0.98743594,1003.9566699999999,0,0
69.32,-8.970573,4.6110106,-0.14944348,1003.9638699999999,0,0
69.36,-7.8329496,4.8350377,-0.58500594,1003.9541,0,0
69.4,-8.363480000000001,4.85887,-0.85486436,1003.9463,0,0
69.44,-8.640678,4.6205416,-1.153129,1003.9437,0,0
69.48,-8.411217,4.663439299999999,-1.0773758999999998,1003.9109,0,0
69.52,-8.941747,4.9065330000000005,-0.34354046,1003.97156,0,0
69.56,-8.224745,5.345055599999999,-0.22044317,1003.9689300000001,0,0
69.6,-7.6702576,5.5118847,-0.30565968,1003.9085,0,0
69.64,-8.1243105,5.264023,-0.16362494,1003.9513,0,0
69.68,-8.693078,4.7921333,-0.24884160000000002,1003.94885,0,0
69.72,-8.721724499999999,4.858864,-0.35299554,1003.9463,0,0
69.76,-8.5783,4.882696,-0.5897129,1003.9437,0,0
69.8,-8.281924,4.954193599999999,-0.45241266,1003.9286,0,0
69.84,-8.372709,4.911294,-0.28670567,1003.94385,0,0
69.88,-8.477837,4.7968955,-0.26776546,1003.9614,0,0
69.92,-8.563844,4.773062,-0.28196588,1003.95636,0,0
69.96,-8.410859,4.9160580000000005,-0.561293,1003.9362,0,0
70.0,-8.296114,5.001856,-0.55655575,1003.954,0,0
70.04,-8.076213000000001,5.297381,-0.53761554,1003.9387,0,0
70.08,-8.367751,5.364112400000002,-0.49500313,1003.96405,0,0
70.12,-8.238666,5.240181400000001,-0.12571678,1003.946,0,0
70.16,-8.2628565,5.2163553,-0.14468107,1003.9664300000001,0,0
70.2,-8.1290045,5.244954,0.002087118,1003.9384,0,0
70.24,-8.019051,5.2878532,-0.19202185,1003.93365,0,0
70.28,-7.9521169999999985,5.573846,-0.07366021,1003.9611,0,0
70.32,-7.526695299999999,5.9313374,-0.36245720000000003,1003.9183,0,0
70.36,-7.8325863,5.893204,0.058906375999999996,1003.954,0,0
70.4,-7.9950833,5.9122705,0.14412719,1003.9334,0,0
70.44,-8.028522500000001,5.7549730000000014,-0.064184904,1003.93854,0,0
70.48,-7.8659940000000015,5.635809,-0.17780916,1003.9562400000001,0,0
70.52,-7.961571000000001,5.554777,-0.021572134,1003.97156,0,0
70.56,-8.100168,5.535711,-0.15886824,1003.9536,0,0
70.6,-7.904178599999999,5.5357103,0.17727615,1003.95105,0,0
70.64,-7.9519587,5.5500093,0.19621526,1003.9689,0,0
70.68,-8.353444999999999,5.383179,0.06365358,1003.95105,0,0
70.72,-8.138336,5.273548,0.030514367,1003.9613,0,0
70.76,-8.152658,5.2115827,0.4140027,1003.9511,0,0
70.8,-7.732019,5.6691712999999995,-2.0194798,1003.9839999999999,0,0
70.84,-8.24822,5.3831777999999995,0.5228971,1004.0165400000001,0,0
70.88,-8.023552,5.4832754,0.7596189999999999,1003.9184,0,0
