Timestamp,Ax,Ay,Az,P,Value,Type
0.0,5.9404874,7.0798993,8.330574,1001.32275,0,0
0.04,5.0084496,6.4316473,8.392123,1001.33545,0,0
0.08,5.142309,7.2038283,9.528383,1001.33545,0,0
0.12,5.061076,7.942644,7.8476715,1001.31793,0,0
0.16,4.702616,7.785348,9.092821,1001.33044,0,0
0.2,5.2857775999999985,8.748191,8.609916,1001.31793,0,0
0.24,5.672961,9.496541,9.992363,1001.32294,0,0
0.28,6.4138603,8.7958555,10.219618,1001.318,0,0
0.32,5.7877316,8.157136999999999,9.088096,1001.2929,0,0
0.36,4.645384,7.413552799999999,5.726672,1001.24,0,0
0.4,1.8062057,6.2362127,5.1348734,1001.23737,0,0
0.44,1.9113867,4.7156806,3.3405366,1001.22217,0,0
0.48,-2.7680159,1.3361914,4.5525465,1001.2602,0,0
0.52,-5.540278400000001,0.90720075,0.51883584,1001.2124,0,0
0.56,-8.647125,-0.3416378,0.83130884,1001.20984,0,0
0.6,-9.478787,0.030153021,-1.6163762,1001.26044,0,0
0.64,-9.679513,0.3924107,-0.7594466,1001.22754,0,0
0.68,-11.634428,0.22558063,-1.9572486,1001.27826,0,0
0.72,-9.378333,0.9262638,-4.187151,1001.2227,0,0
0.76,-9.167997,1.9081738,-4.1066637,1001.2226,0,0
0.8,-9.76545,2.0368702,-4.5327587,1001.2328,0,0
0.84,-8.211988,2.5468912,-2.6011188,1001.25543,0,0
0.88,-8.482123,1.9415992,-2.9469557,1001.2659,0,0
0.92,-9.146593,1.2361505,-3.6429203,1001.2884,0,0
0.96,-8.984152,1.5173794,-2.9706416,1001.2962,0,0
1.0,-9.4287405,1.7223428,-4.201592400000001,1001.2556,0,0
1.04,-8.310334,2.618457,-2.8049498,1001.22534,0,0
1.08,-8.233934,2.5660267000000005,-2.8712385,1001.2281,0,0
1.12,-8.721542,2.6327605,-4.0122366000000005,1001.23303,0,0
1.16,-9.166141,2.356302,-3.4819899,1001.27606,0,0
1.2,-8.420558999999999,2.8710918,-3.0748372,1001.261,0,0
1.24,-8.630938,2.7662292,-3.6050968,1001.2029,0,0
1.28,-9.032514,2.3658404,-2.6676915,1001.20557,0,0
1.32,-9.156866,2.4135077000000003,-3.1884828,1001.2356,0,0
1.36,-9.00398,2.3229449,-3.5104287000000003,1001.266,0,0
1.4,-8.540411,2.5279086,-4.0548916,1001.276,0,0
1.44,-8.631296,2.3467813,-3.0559385,1001.23083,0,0
1.48,-8.774764999999999,2.4230475,-3.2169154,1001.213,0,0
1.52,-9.147655,2.3277183,-3.0843577,1001.2132,0,0
1.56,-9.076034,2.6375463,-3.6051493,1001.2156,0,0
1.6,-9.076106,3.0045729,-3.1790597000000003,1001.2057,0,0
1.64,-9.147872,3.0141077000000003,-3.368442,1001.2157,0,0
1.68,-8.402289,2.728116,-4.1259527,1001.26105,0,0
1.72,-8.961603,1.8177056,-3.0417812,1001.2711,0,0
1.76,-8.789598,2.5422237,-3.4678838,1001.3066,0,0
1.8,-8.670175,3.0903797,-2.9613092,1001.24347,0,0
1.84,-8.85666,3.0903814,-3.3211308,1001.2437,0,0
1.88,-8.827498,2.6232471,-3.4536498,1001.2488,0,0
1.92,-8.34479,2.8854086,-3.1695900000000004,1001.2488,0,0
1.96,-8.708105999999999,2.832978,-3.3731742,1001.2688,0,0
2.0,-8.6842575,3.0665405,-3.2832253,1001.28394,0,0
2.04,-8.732106,3.0903745,-3.041775,1001.23346,0,0
2.08,-8.564859,3.4383342000000003,-3.1932805,1001.20825,0,0
2.12,-8.928172,3.0474777000000004,-3.1601439,1001.20074,0,0
2.16,-8.78005,3.3859046000000004,-3.0749295,1001.2286,0,0
2.2,-8.627147,3.3048747000000005,-3.098606,1001.22614,0,0
2.24,-8.622415,3.2572098,-3.046532,1001.21106,0,0
2.28,-8.440837,3.2381450000000003,-3.0796776,1001.2262,0,0
2.32,-8.703773,3.1428149,-3.3590117,1001.2387,0,0
2.36,-8.808978999999997,3.2667467999999995,-3.21225,1001.22864,0,0
2.4,-8.570036,3.2715147,-2.8903148,1001.2085,0,0
2.44,-8.665687,3.1475856,-2.9187262,1001.21857,0,0
2.48,-9.005103,3.2667506,-3.2785454,1001.20593,0,0
2.52,-8.684904,3.1618876,-3.1081114,1001.2566,0,0
2.56,-8.531998,3.1380558,-3.0560372000000005,1001.2389,0,0
2.6,-8.565507,3.2000225,-3.174402,1001.2111,0,0
2.64,-8.632479,2.9759955,-2.95189,1001.229,0,0
2.68,-8.804602000000003,3.0236623,-3.2170215,1001.2286,0,0
2.72,-8.379247,3.4240544,-3.1270719,1001.2339,0,0
2.76,-8.613508,3.1666613,-3.2170303,1001.239,0,0
2.8,-8.709155,3.347792,-3.3448637000000003,1001.21625,0,0
2.84,-8.51323,3.0808659,-2.9992566000000003,1001.229,0,0
2.88,-8.76196,2.9807725,-2.9661324,1001.20374,0,0
2.92,-8.795475,2.9426413,-3.075029,1001.2188,0,0
2.96,-8.589995,3.2381694,-3.2123313,1001.2138,0,0
3.0,-8.743008999999999,3.085641,-3.425385,1001.23395,0,0
3.04,-8.786078999999999,3.2286391,-3.0987155,1001.20624,0,0
3.08,-8.437208,3.2286406000000003,-3.2502217,1001.2239,0,0
3.12,-8.585439,3.2810738,-2.9424906,1001.22406,0,0
3.16,-8.661971000000001,3.2667756000000003,-2.866745,1001.20386,0,0
3.2,-8.757616,3.5527701,-2.7625926,1001.2163,0,0
3.24,-8.743333,3.5432384,-2.857286,1001.21655,0,0
3.28,-8.714709,3.5813723,-2.9803858,1001.2568,0,0
3.32,-8.643064500000001,3.5861400000000003,-2.989859,1001.2266,0,0
3.36,-8.585767,3.385946,-2.677394,1001.22394,0,0
3.4,-8.800914,3.3621147,-2.6347895,1001.21643,0,0
3.44,-8.53808,3.3859487,-2.772092,1001.21893,0,0
3.48,-8.934859,3.2810857,-2.5827212000000004,1001.2292,0,0
3.52,-8.743719,3.4002512,-3.065635,1001.2217,0,0
3.56,-8.380510000000001,3.8101761,-2.781576,1001.24945,0,0
3.6,-8.729488,3.528951,-3.2266147000000003,1001.23926,0,0
3.64,-9.169286,3.142861,-2.653757,1001.21936,0,0
3.68,-8.581427,2.9664998,-2.4028387,1001.2242,0,0
3.72,-8.935186999999997,2.9665012,-2.7105799,1001.2065,0,0
3.76,-8.992600999999997,3.1905308,-2.8999615000000003,1001.24457,0,0
3.8,-8.524235000000001,3.3287625,-3.1698275,1001.23193,0,0
3.84,-8.629442999999998,3.1619341,-2.9189088,1001.22943,0,0
3.88,-8.996638,3.2381785,-2.8667524,1001.21893,0,0
3.92,-8.834144,3.309677,-3.1366153,1001.2192,0,0
3.96,-8.442219,3.4479077000000005,-3.1697578,1001.2315,0,0
4.0,-8.69079,3.0236845000000003,-3.0135245,1001.22144,0,0
4.04,-8.762506,2.8473222,-2.5164137,1001.23694,0,0
4.08,-8.4375,3.1523826,-2.8667614,1001.2596,0,0
4.12,-8.623933000000001,3.5194080000000003,-3.2171094,1001.25714,0,0
4.16,-8.767347000000001,3.8578339,-3.4064875,1001.24945,0,0
4.2,-8.19379,4.0389633,-3.3260045,1001.20404,0,0
4.24,-8.040855,3.9722323,-3.217115,1001.17896,0,0
4.28,-8.279865,3.8054032,-2.7484105,1001.1864,0,0
4.32,-8.485418,3.6719403,-3.236056,1001.19403,0,0
4.36,-8.150852,3.743438700000001,-2.9993380000000003,1001.19403,0,0
4.4,-8.466339,3.8387709,-3.3070760000000003,1001.2468,0,0
4.44,-8.021836,4.2200956,-3.5485322,1001.23926,0,0
4.48,-8.0170765,4.358326,-3.4017675000000005,1001.22424,0,0
4.52,-7.7398696,4.6729193,-3.4775202000000003,1001.2016,0,0
4.56,-7.8737226,4.7158190000000015,-3.2218637,1001.1965,0,0
4.6,-8.237007,4.3392610000000005,-3.2834132000000005,1001.19403,0,0
4.64,-8.308724,4.1962647,-3.4065092000000003,1001.2065,0,0
4.68,-8.203589,4.425060299999998,-3.1887283,1001.2116,0,0
4.72,-8.194049,4.5537577,-3.1461208,1001.20154,0,0
4.76,-8.069795,4.467960400000001,-3.4396558,1001.1991,0,0
4.8,-7.692211,4.6014247,-3.2644846000000003,1001.22437,0,0
4.84,-8.065056,4.5728254,-3.5106757000000006,1001.2319,0,0
4.88,-7.7354949999999985,4.601431,-3.056195,1001.22943,0,0
4.92,-8.280422,4.463202,-3.4349498999999994,1001.20667,0,0
4.96,-7.869388000000002,4.6109653,-3.4396873,1001.24207,0,0
5.0,-7.7785993000000015,4.534701,-3.3876112000000003,1001.21686,0,0
5.04,-8.089315,4.877894,-3.6764126,1001.22437,0,0
5.08,-7.482310000000001,4.6586328,-3.3876166,1001.227,0,0
5.12,-7.869503,4.4584384,-2.9236474,1001.232,0,0
5.16,-7.8073929999999985,4.672934,-3.401825,1001.2219,0,0
5.2,-8.294960000000001,4.391708,-3.2739985000000003,1001.2448,0,0
5.24,-7.5493417,4.6014370000000016,-3.3592207000000003,1001.25476,0,0
5.28,-8.204203,4.286845,-3.2834728,1001.2295,0,0
5.32,-7.960461599999999,4.467975,-3.1745842,1001.2674,0,0
5.36,-7.946151299999999,4.3631115,-2.8005688,1001.2295,0,0
5.4,-8.405041,4.2344155,-3.1130419,1001.25714,0,0
5.44,-7.7263384,4.739671,-3.2503426,1001.25995,0,0
5.48,-8.022714,4.5776086,-3.297689,1001.24207,0,0
5.52,-7.9845023,4.4441457,-3.1698627,1001.23706,0,0
5.56,-8.142267,4.0914216,-3.2124752999999995,1001.2574,0,0
5.6,-8.104057000000001,4.2487183,-3.1509304,1001.22424,0,0
5.64,-8.390873,4.291618,-3.1840740000000003,1001.23706,0,0
5.68,-8.190147,4.324985,-3.203014,1001.2269,0,0
5.72,-7.998987700000002,4.410783,-3.1272666,1001.23444,0,0
5.76,-8.175867,4.0818915,-3.0420494,1001.2347,0,0
5.8,-8.271493,4.1676902999999985,-3.1272717,1001.2143,0,0
5.84,-8.223723,4.1438584,-3.1320086,1001.2295,0,0
5.88,-8.156705,4.2296543,-3.0846553,1001.2445,0,0
5.92,-8.433958,4.029458999999999,-3.0657198,1001.232,0,0
5.96,-8.424422,4.115257700000001,-3.113066,1001.24225,0,0
6.0,-8.319289999999999,3.8816972,-3.1509433,1001.21924,0,0
6.04,5.9404874,7.0798993,8.330574,1001.32275,0,0
6.08,5.0084496,6.4316473,8.392123,1001.33545,0,0
6.12,5.142309,7.2038283,9.528383,1001.33545,0,0
6.16,5.061076,7.942644,7.8476715,1001.31793,0,0
6.2,4.702616,7.785348,9.092821,1001.33044,0,0
6.24,5.2857775999999985,8.748191,8.609916,1001.31793,0,0
6.28,5.672961,9.496541,9.992363,1001.32294,0,0
6.32,6.4138603,8.7958555,10.219618,1001.318,0,0
6.36,5.7877316,8.157136999999999,9.088096,1001.2929,0,0
6.4,4.645384,7.413552799999999,5.726672,1001.24,0,0
6.44,1.8062057,6.2362127,5.1348734,1001.23737,0,0
6.48,1.9113867,4.7156806,3.3405366,1001.22217,0,0
6.52,-2.7680159,1.3361914,4.5525465,1001.2602,0,0
6.56,-5.540278400000001,0.90720075,0.51883584,1001.2124,0,0
6.6,-8.647125,-0.3416378,0.83130884,1001.20984,0,0
6.64,-9.478787,0.030153021,-1.6163762,1001.26044,0,0
6.68,-9.679513,0.3924107,-0.7594466,1001.22754,0,0
6.72,-11.634428,0.22558063,-1.9572486,1001.27826,0,0
6.76,-9.378333,0.9262638,-4.187151,1001.2227,0,0
6.8,-9.167997,1.9081738,-4.1066637,1001.2226,0,0
6.84,-9.76545,2.0368702,-4.5327587,1001.2328,0,0
6.88,-8.211988,2.5468912,-2.6011188,1001.25543,0,0
6.92,-8.482123,1.9415992,-2.9469557,1001.2659,0,0
6.96,-9.146593,1.2361505,-3.6429203,1001.2884,0,0
7.0,-8.984152,1.5173794,-2.9706416,1001.2962,0,0
7.04,-9.4287405,1.7223428,-4.201592400000001,1001.2556,0,0
7.08,-8.310334,2.618457,-2.8049498,1001.22534,0,0
7.12,-8.233934,2.5660267000000005,-2.8712385,1001.2281,0,0
7.16,-8.721542,2.6327605,-4.0122366000000005,1001.23303,0,0
7.2,-9.166141,2.356302,-3.4819899,1001.27606,0,0
7.24,-8.420558999999999,2.8710918,-3.0748372,1001.261,0,0
7.28,-8.630938,2.7662292,-3.6050968,1001.2029,0,0
7.32,-9.032514,2.3658404,-2.6676915,1001.20557,0,0
7.36,-9.156866,2.4135077000000003,-3.1884828,1001.2356,0,0
7.4,-9.00398,2.3229449,-3.5104287000000003,1001.266,0,0
7.44,-8.540411,2.5279086,-4.0548916,1001.276,0,0
7.48,-8.631296,2.3467813,-3.0559385,1001.23083,0,0
7.52,-8.774764999999999,2.4230475,-3.2169154,1001.213,0,0
7.56,-9.147655,2.3277183,-3.0843577,1001.2132,0,0
7.6,-9.076034,2.6375463,-3.6051493,1001.2156,0,0
7.64,-9.076106,3.0045729,-3.1790597000000003,1001.2057,0,0
7.68,-9.147872,3.0141077000000003,-3.368442,1001.2157,0,0
7.72,-8.402289,2.728116,-4.1259527,1001.26105,0,0
7.76,-8.961603,1.8177056,-3.0417812,1001.2711,0,0
7.8,-8.789598,2.5422237,-3.4678838,1001.3066,0,0
7.84,-8.670175,3.0903797,-2.9613092,1001.24347,0,0
7.88,-8.85666,3.0903814,-3.3211308,1001.2437,0,0
7.92,-8.827498,2.6232471,-3.4536498,1001.2488,0,0
7.96,-8.34479,2.8854086,-3.1695900000000004,1001.2488,0,0
8.0,-8.708105999999999,2.832978,-3.3731742,1001.2688,0,0
8.04,-8.6842575,3.0665405,-3.2832253,1001.28394,0,0
8.08,-8.732106,3.0903745,-3.041775,1001.23346,0,0
8.12,-8.564859,3.4383342000000003,-3.1932805,1001.20825,0,0
8.16,-8.928172,3.0474777000000004,-3.1601439,1001.20074,0,0
8.2,-8.78005,3.3859046000000004,-3.0749295,1001.2286,0,0
8.24,-8.627147,3.3048747000000005,-3.098606,1001.22614,0,0
8.28,-8.622415,3.2572098,-3.046532,1001.21106,0,0
8.32,-8.440837,3.2381450000000003,-3.0796776,1001.2262,0,0
8.36,-8.703773,3.1428149,-3.3590117,1001.2387,0,0
8.4,-8.808978999999997,3.2667467999999995,-3.21225,1001.22864,0,0
8.44,-8.570036,3.2715147,-2.8903148,1001.2085,0,0
8.48,-8.665687,3.1475856,-2.9187262,1001.21857,0,0
8.52,-9.005103,3.2667506,-3.2785454,1001.20593,0,0
8.56,-8.684904,3.1618876,-3.1081114,1001.2566,0,0
8.6,-8.531998,3.1380558,-3.0560372000000005,1001.2389,0,0
8.64,-8.565507,3.2000225,-3.174402,1001.2111,0,0
8.68,-8.632479,2.9759955,-2.95189,1001.229,0,0
8.72,-8.804602000000003,3.0236623,-3.2170215,1001.2286,0,0
8.76,-8.379247,3.4240544,-3.1270719,1001.2339,0,0
8.8,-8.613508,3.1666613,-3.2170303,1001.239,0,0
8.84,-8.709155,3.347792,-3.3448637000000003,1001.21625,0,0
8.88,-8.51323,3.0808659,-2.9992566000000003,1001.229,0,0
8.92,-8.76196,2.9807725,-2.9661324,1001.20374,0,0
8.96,-8.795475,2.9426413,-3.075029,1001.2188,0,0
9.0,-8.589995,3.2381694,-3.2123313,1001.2138,0,0
9.04,-8.743008999999999,3.085641,-3.425385,1001.23395,0,0
9.08,-8.786078999999999,3.2286391,-3.0987155,1001.20624,0,0
9.12,-8.437208,3.2286406000000003,-3.2502217,1001.2239,0,0
9.16,-8.585439,3.2810738,-2.9424906,1001.22406,0,0
9.2,-8.661971000000001,3.2667756000000003,-2.866745,1001.20386,0,0
9.24,-8.757616,3.5527701,-2.7625926,1001.2163,0,0
9.28,-8.743333,3.5432384,-2.857286,1001.21655,0,0
9.32,-8.714709,3.5813723,-2.9803858,1001.2568,0,0
9.36,-8.643064500000001,3.5861400000000003,-2.989859,1001.2266,0,0
9.4,-8.585767,3.385946,-2.677394,1001.22394,0,0
9.44,-8.800914,3.3621147,-2.6347895,1001.21643,0,0
9.48,-8.53808,3.3859487,-2.772092,1001.21893,0,0
9.52,-8.934859,3.2810857,-2.5827212000000004,1001.2292,0,0
9.56,-8.743719,3.4002512,-3.065635,1001.2217,0,0
9.6,-8.380510000000001,3.8101761,-2.781576,1001.24945,0,0
9.64,-8.729488,3.528951,-3.2266147000000003,1001.23926,0,0
9.68,-9.169286,3.142861,-2.653757,1001.21936,0,0
9.72,-8.581427,2.9664998,-2.4028387,1001.2242,0,0
9.76,-8.935186999999997,2.9665012,-2.7105799,1001.2065,0,0
9.8,-8.992600999999997,3.1905308,-2.8999615000000003,1001.24457,0,0
9.84,-8.524235000000001,3.3287625,-3.1698275,1001.23193,0,0
9.88,-8.629442999999998,3.1619341,-2.9189088,1001.22943,0,0
9.92,-8.996638,3.2381785,-2.8667524,1001.21893,0,0
9.96,-8.834144,3.309677,-3.1366153,1001.2192,0,0
10.0,-8.442219,3.4479077000000005,-3.1697578,1001.2315,0,0
10.04,-8.69079,3.0236845000000003,-3.0135245,1001.22144,0,0
10.08,-8.762506,2.8473222,-2.5164137,1001.23694,0,0
10.12,-8.4375,3.1523826,-2.8667614,1001.2596,0,0
10.16,-8.623933000000001,3.5194080000000003,-3.2171094,1001.25714,0,0
10.2,-8.767347000000001,3.8578339,-3.4064875,1001.24945,0,0
10.24,-8.19379,4.0389633,-3.3260045,1001.20404,0,0
10.28,-8.040855,3.9722323,-3.217115,1001.17896,0,0
10.32,-8.279865,3.8054032,-2.7484105,1001.1864,0,0
10.36,-8.485418,3.6719403,-3.236056,1001.19403,0,0
10.4,-8.150852,3.743438700000001,-2.9993380000000003,1001.19403,0,0
10.44,-8.466339,3.8387709,-3.3070760000000003,1001.2468,0,0
10.48,-8.021836,4.2200956,-3.5485322,1001.23926,0,0
10.52,-8.0170765,4.358326,-3.4017675000000005,1001.22424,0,0
10.56,-7.7398696,4.6729193,-3.4775202000000003,1001.2016,0,0
10.6,-7.8737226,4.7158190000000015,-3.2218637,1001.1965,0,0
10.64,-8.237007,4.3392610000000005,-3.2834132000000005,1001.19403,0,0
10.68,-8.308724,4.1962647,-3.4065092000000003,1001.2065,0,0
10.72,-8.203589,4.425060299999998,-3.1887283,1001.2116,0,0
10.76,-8.194049,4.5537577,-3.1461208,1001.20154,0,0
10.8,-8.069795,4.467960400000001,-3.4396558,1001.1991,0,0
10.84,-7.692211,4.6014247,-3.2644846000000003,1001.22437,0,0
10.88,-8.065056,4.5728254,-3.5106757000000006,1001.2319,0,0
10.92,-7.7354949999999985,4.601431,-3.056195,1001.22943,0,0
10.96,-8.280422,4.463202,-3.4349498999999994,1001.20667,0,0
11.0,-7.869388000000002,4.6109653,-3.4396873,1001.24207,0,0
11.04,-7.7785993000000015,4.534701,-3.3876112000000003,1001.21686,0,0
11.08,-8.089315,4.877894,-3.6764126,1001.22437,0,0
11.12,-7.482310000000001,4.6586328,-3.3876166,1001.227,0,0
11.16,-7.869503,4.4584384,-2.9236474,1001.232,0,0
11.2,-7.8073929999999985,4.672934,-3.401825,1001.2219,0,0
11.24,-8.294960000000001,4.391708,-3.2739985000000003,1001.2448,0,0
11.28,-7.5493417,4.6014370000000016,-3.3592207000000003,1001.25476,0,0
11.32,-8.204203,4.286845,-3.2834728,1001.2295,0,0
11.36,-7.960461599999999,4.467975,-3.1745842,1001.2674,0,0
11.4,-7.946151299999999,4.3631115,-2.8005688,1001.2295,0,0
11.44,-8.405041,4.2344155,-3.1130419,1001.25714,0,0
11.48,-7.7263384,4.739671,-3.2503426,1001.25995,0,0
11.52,-8.022714,4.5776086,-3.297689,1001.24207,0,0
11.56,-7.9845023,4.4441457,-3.1698627,1001.23706,0,0
11.6,-8.142267,4.0914216,-3.2124752999999995,1001.2574,0,0
11.64,-8.104057000000001,4.2487183,-3.1509304,1001.22424,0,0
11.68,-8.390873,4.291618,-3.1840740000000003,1001.23706,0,0
11.72,-8.190147,4.324985,-3.203014,1001.2269,0,0
11.76,-7.998987700000002,4.410783,-3.1272666,1001.23444,0,0
11.8,-8.175867,4.0818915,-3.0420494,1001.2347,0,0
11.84,-8.271493,4.1676902999999985,-3.1272717,1001.2143,0,0
11.88,-8.223723,4.1438584,-3.1320086,1001.2295,0,0
11.92,-8.156705,4.2296543,-3.0846553,1001.2445,0,0
11.96,-8.433958,4.029458999999999,-3.0657198,1001.232,0,0
12.0,-8.424422,4.115257700000001,-3.113066,1001.24225,0,0
12.04,-8.319289999999999,3.8816972,-3.1509433,1001.21924,0,0
12.08,-8.290636,3.9198303,-3.0988672000000004,1001.2295,0,0
12.12,-8.367135000000001,3.8721654,-3.0562596,1001.23956,0,0
12.16,-8.266783,3.9102983,-3.056262,1001.2343,0,0
12.2,-8.333725,3.8435671,-2.9568415,1001.24725,0,0
12.24,-8.391106,3.9007661,-3.004188,1001.2471,0,0
12.28,-8.539303,3.8006694,-3.075206,1001.23956,0,0
12.32,-8.372034,3.876935,-3.013661,1001.227,0,0
12.36,-8.477214,3.8245034,-3.0326006000000003,1001.227,0,0
12.4,-8.395980999999999,3.8817024,-3.0562751,1001.23956,0,0
12.44,-8.233489,3.6815078,-3.217247,1001.2624,0,0
12.48,-8.353009,3.7530067,-3.146233,1001.25214,0,0
12.52,-8.3434725,3.7101083,-3.2125168,1001.2523,0,0
12.56,-8.467772,3.7482412,-3.0704868,1001.2269,0,0
12.6,-8.563393,3.676743,-3.1367705000000004,1001.2599,0,0
12.64,-8.439141000000001,3.814974,-3.0988975,1001.2141,0,0
12.68,-8.534761,3.6719782,-3.184119,1001.23456,0,0
12.72,-8.386612,3.805442,-3.1367772,1001.23444,0,0
12.76,-8.291038,3.7673101,-3.2267330000000003,1001.2245,0,0
12.8,-8.477468,3.6815128,-3.1888595,1001.25714,0,0
12.84,-8.582653,3.5337503,-3.3024879,1001.2574,0,0
12.88,-8.300668,3.7196467000000006,-3.2504117000000003,1001.21185,0,0
12.92,-8.319811999999999,3.6862812000000007,-3.1651943,1001.24207,0,0
12.96,-8.381973,3.686282,-3.2693536,1001.237,0,0
13.0,-8.448913000000001,3.753014,-3.2835588,1001.22424,0,0
13.04,-8.391581,3.7768476,-3.3545773000000003,1001.26465,0,0
13.08,-8.286448,3.7148826,-3.4255955,1001.21924,0,0
13.12,-8.444204,3.5909529000000004,-3.2504244,1001.21436,0,0
13.16,-8.253036999999999,3.7291834,-3.3072395,1001.2622,0,0
13.2,-8.305636999999999,3.7387176,-3.3309138,1001.22424,0,0
13.24,-8.410817999999999,3.5385227,-3.3924634,1001.23456,0,0
13.28,-8.286567,3.7053523,-3.3119805,1001.232,0,0
13.32,-8.410865,3.6195552,-3.2977796,1001.20154,0,0
13.36,-8.520824000000001,3.562357,-3.4066730000000005,1001.22437,0,0
13.4,-8.468269,3.5194585,-3.2646432,1001.2343,0,0
13.44,-8.344019,3.7244213,-3.1273477,1001.2471,0,0
13.48,-8.262785000000001,3.676756,-3.435086,1001.23456,0,0
13.52,-8.43488,3.6481574,-3.4540255,1001.24976,0,0
13.56,-8.3954525,3.7863586,-3.3686974000000003,1001.21906,0,0
13.6,-8.252051,3.7386928,-3.335556,1001.23944,0,0
13.64,-8.395442,3.6099954,-3.387634,1001.2269,0,0
13.68,-8.352418,3.7625253,-3.3355550000000003,1001.24207,0,0
13.72,-8.323734,3.7196264,-3.2882104,1001.23956,0,0
13.76,-8.342848,3.705326,-3.368695,1001.2294,0,0
13.8,-8.476677,3.6576605,-3.3592254999999995,1001.19653,0,0
13.84,-8.151646000000001,3.767291,-3.250334,1001.2066,0,0
13.88,-8.424089,3.6242945,-3.198255,1001.21924,0,0
13.92,-8.347607,3.9770193,-3.3876305,1001.2316,0,0
13.96,-8.261564,3.6147606,-3.363958,1001.23956,0,0
14.0,-8.49099,3.7053254,-3.430239,1001.2343,0,0
14.04,-8.156399,3.7243917,-3.4397075,1001.24963,0,0
14.08,-8.213751,3.6814926,-3.2550652,1001.2041,0,0
14.12,-8.419277000000001,3.7434573,-3.2361271,1001.2142,0,0
14.16,-8.404932,3.6910253,-3.0940948,1001.2521,0,0
14.2,-8.56744,3.9007535,-3.2834704,1001.2117,0,0
14.24,-8.228069,3.9674854,-3.1982505,1001.2495,0,0
14.28,-8.490953,3.9007533,-3.127234,1001.247,0,0
14.32,-8.1324625,4.010383999999998,-3.15564,1001.2546,0,0
14.36,-8.500503,3.6433592,-3.1319673,1001.25433,0,0
14.4,-8.557853999999999,3.7958884,-3.1840453,1001.242,0,0
14.44,-8.361877,3.5718602999999995,-3.1651073,1001.23694,0,0
14.48,-8.576962,3.5766273,-3.259795,1001.24194,0,0
14.52,-8.572178,3.6671915,-3.4397017999999995,1001.247,0,0
14.56,-8.275481,3.7863467000000006,-3.2171528,1001.23694,0,0
14.6,-8.447535,3.7386806,-3.3260424,1001.24457,0,0
14.64,-8.323241000000001,3.7386801,-3.2550244,1001.2443,0,0
14.68,-8.284985,3.7863455,-3.2408197,1001.24194,0,0
14.72,-8.40446,3.6052158,-3.392319,1001.2495,0,0
14.76,-8.404444,3.4288526,-3.458599,1001.2117,0,0
14.8,-8.284927,3.462218,-3.434925,1001.24445,0,0
14.84,-8.566916,3.6004477,-3.4159858,1001.22675,0,0
14.88,-8.356586,3.8149424,-3.4775312000000005,1001.2142,0,0
14.92,-8.4282675,3.8626075,-3.3402321,1001.247,0,0
14.96,-8.16058,3.047526,-3.1461198,1001.2393,0,0
15.0,-8.781934,3.2191215,-3.3118220000000003,1001.22424,0,0
15.04,-8.476008,3.8244739,-3.3686333,1001.2164,0,0
15.08,-8.332595,3.7815742,-3.3686314,1001.229,0,0
15.12,-8.762758999999999,3.3954828,-3.3780985,1001.24445,0,0
15.16,-8.452052,3.5527787,-3.1555798,1001.23914,0,0
15.2,-8.351661,3.4383807,-3.013546,1001.23413,0,0
15.24,-8.542831,3.0904214,-2.9472625,1001.21387,0,0
15.28,-8.60495,3.2572505,-3.2739346,1001.2365,0,0
15.32,-8.733985,3.6195085,-3.354418,1001.2521,0,0
15.36,-8.652712,4.0389647,-3.2171187000000003,1001.24207,0,0
15.4,-8.318108,3.5003438,-3.075085,1001.22186,0,0
15.44,-8.810407000000003,3.0522869,-2.9235818,1001.23425,0,0
15.48,-8.595303,3.3144467000000004,-2.9472528,1001.23425,0,0
15.52,-8.748232000000002,3.2191153,-3.008798,1001.2242,0,0
15.56,-8.825455999999997,3.443162,-3.1272266,1001.25464,0,0
15.6,-8.414405,3.648124,-3.1461651,1001.2443,0,0
15.64,-8.705983999999999,3.2810996,-3.0846188,1001.2493,0,0
15.68,-8.357069000000001,3.3716645,-2.994666,1001.2217,0,0
15.72,-8.701227000000001,3.5146613,-3.0846207000000003,1001.23926,0,0
15.76,-8.777714999999999,3.4526966,-3.212451,1001.262,0,0
15.8,-8.428802000000001,3.762523,-3.1745768,1001.23425,0,0
15.84,-8.371453,3.4240978,-3.165109,1001.2114,0,0
15.88,-8.237631,3.0094075,-3.0420153,1001.21643,0,0
15.92,-8.462292999999999,3.1190386,-3.0988290000000003,1001.21893,0,0
15.96,-8.672614999999999,3.6195273,-3.444442,1001.2417,0,0
16.0,-8.620049,3.6290607,-3.4160364000000003,1001.2241,0,0
16.04,-8.648736999999999,3.3383007000000005,-3.3639586,1001.20886,0,0
16.08,-8.280705000000001,3.2715693,-3.174584,1001.24445,0,0
16.12,-8.538827000000001,3.333535,-3.089366,1001.20886,0,0
16.16,-8.610534,3.5575633,-3.482322,1001.23413,0,0
16.2,-8.328535,3.6242952000000006,-3.515464,1001.23663,0,0
16.24,-8.524517999999999,3.4288669,-3.4349800000000004,1001.23676,0,0
16.28,-8.223405,3.3049366,-3.1556516,1001.2316,0,0
16.32,-8.687057000000001,3.371669,-3.420779,1001.2241,0,0
16.36,-8.495874,3.3001704,-3.3450296,1001.2266,0,0
16.4,-8.495887,3.6576629,-3.160389,1001.20886,0,0
16.44,-8.739666999999999,3.4670007000000007,-3.3071562999999995,1001.2239,0,0
16.48,-8.46723,3.4765341,-3.3071575,1001.2013,0,0
16.52,-8.452902,3.3764367,-3.2929554,1001.23676,0,0
16.56,-8.256431,3.4479230000000003,-3.2597685000000003,1001.2264,0,0
16.6,-8.466732,3.5194209,-3.2645023,1001.2367,0,0
16.64,-8.323331,3.9627104,-3.397065,1001.22894,0,0
16.68,-8.122569,4.110473000000002,-3.3591886,1001.2567,0,0
16.72,-8.146460000000001,4.2058043,-3.3165784,1001.2441,0,0
16.76,-8.246827,4.23917,-3.4112654000000004,1001.22894,0,0
16.8,-8.141663000000001,4.1581383,-3.1603415,1001.24164,0,0
16.84,-8.060398,4.120005600000002,-3.283435,1001.21136,0,0
16.88,-8.23724,4.124772,-3.2881684,1001.23395,0,0
16.92,-8.079498,4.229636,-3.255027,1001.23395,0,0
16.96,-8.098609,4.2153363,-3.1698067,1001.23615,0,0
17.0,-8.046025,4.396465,-3.3023698,1001.2214,0,0
17.04,-8.261106,4.1438375,-3.3497128,1001.20856,0,0
17.08,-7.959969,4.339266,-3.3923216,1001.22894,0,0
17.12,-7.9456224,4.1772027000000005,-3.278695,1001.2011,0,0
17.16,-8.284978,4.282067,-3.3923202000000003,1001.2011,0,0
17.2,-8.29931,4.253467,-3.3449752,1001.2113,0,0
17.24,-7.9121375,4.320199,-3.117723,1001.2038,0,0
17.28,-8.227592999999999,4.038972,-3.0182996,1001.2113,0,0
17.32,-8.246704,4.1772017,-3.311832,1001.22644,0,0
17.36,-8.098522,4.2439337,-3.2360806,1001.2136,0,0
17.4,-8.265806,4.053271,-3.1366572,1001.2038,0,0
17.44,-8.208439,4.186734,-3.0182965,1001.24396,0,0
17.48,-8.361384,3.9341068,-2.9141388,1001.23145,0,0
17.52,-8.332697,4.320197599999998,-3.0609043,1001.216,0,0
17.56,-8.29477,4.1629086000000015,-3.259778,1001.21857,0,0
17.6,-8.165718,4.077111,-3.127215,1001.2262,0,0
17.64,-8.299555999999999,3.9531803,-3.1508873,1001.21606,0,0
17.68,-8.027111999999999,4.0866440000000015,-3.1745596000000003,1001.2211,0,0
17.72,-8.170509,3.9770133,-3.2171695,1001.22363,0,0
17.76,-8.094036000000001,4.205808,-3.3260612000000003,1001.2413,0,0
17.8,-8.060582,4.3106723,-3.2739832000000004,1001.2237,1,1
17.84,-7.9936690000000015,4.2153416,-3.1792955000000003,1001.2464,1,1
17.88,-7.988892999999999,4.1009445,-3.1461549,1001.22363,1,1
17.92,-8.017575,4.205808599999999,-2.9709826,1001.2387,1,1
17.96,-8.247009,4.129544,-3.0325298,1001.20844,1,1
18.0,-8.342608,4.4203033,-2.8384197,1001.21106,1,1
18.04,-8.323493,4.067578299999999,-2.6395748,1001.2236,1,1
18.08,-8.074947,3.676721,-2.4454648,1001.1856,1,1
18.12,-8.557711,3.9007494,-2.2087448,1001.1932,1,1
18.16,-9.590153,3.9817812,-2.241886,1001.2058,1,1
18.2,-9.164753,4.0199137,-2.014635,1001.2134,1,1
18.24,-9.59016,4.253474,-2.1329954,1001.23865,1,1
18.28,-9.131303,4.329739,-2.1424646000000003,1001.23865,1,1
18.32,-8.567288000000001,4.4679704000000005,-1.9057446,1001.2183,1,1
18.36,-8.127550999999999,3.9913144,-1.4701798,1001.2159,1,1
18.4,-7.821647599999999,4.2582417,-0.7221441,1001.19574,1,1
18.44,-8.098881,4.9255595,-0.5848468000000001,1001.23346,1,1
18.48,-8.371332,5.445114599999999,-0.5043622,1001.21075,1,1
18.52,-8.968812,5.273519,-1.0393503000000002,1001.24115,1,1
18.56,-8.643056,5.916986,-1.7447098,1001.2438,1,1
18.6,-8.628691,6.7415996,-2.1755383,1001.2334,1,1
18.64,-8.939352,6.1934447,-2.8336182,1001.2309,1,1
18.68,-8.012044,5.478460299999999,-3.581652,1001.20557,1,1
18.72,-8.14586,4.749177,-4.1781845,1001.2082,1,1
18.76,-6.9508785999999985,4.649079,-3.1886916000000003,1001.2082,1,1
18.8,-6.601928,4.8826394,-2.7010458,1001.2286,1,1
18.84,-6.7405167,4.7444086,-3.2312967999999995,1001.24603,1,1
18.88,-6.640117,4.277285,-2.9614334,1001.23596,1,1
18.92,-7.0559350000000025,3.7005315,-2.549538,1001.2131,1,1
18.96,-7.380942299999999,3.9293258,-2.6915683999999995,1001.20825,1,1
19.0,-7.0702232999999985,5.0399327000000005,-3.0608487,1001.2261,1,1
19.04,-7.1323433000000005,5.2925596,-2.9235497,1001.2132,1,1
19.08,-8.652292999999998,5.69295,-3.5106134,1001.2234,1,1
19.12,-8.881696,6.2601695,-3.927238200000001,1001.25885,1,1
19.16,-9.010735,6.2554026,-3.9225028,1001.2434,1,1
19.2,-9.71333,5.8550105000000014,-2.8477895,1001.1906,1,1
19.24,-8.298483000000001,5.788278,-2.0050633,1001.25104,1,1
19.28,-7.1226270000000005,5.826410299999999,-1.4085257,1001.2358,1,1
19.32,-7.681838000000001,5.6071477,-0.38115764,1001.218,1,1
19.36,-7.58622,5.335453500000002,-1.1386603000000002,1001.246,1,1
19.4,-7.3328667,5.111425,-1.04397,1001.23834,1,1
19.44,-7.5001326,4.8778625,-1.4558608999999998,1001.2104,1,1
19.48,-6.921754400000001,5.3402185,-1.3706394,1001.22314,1,1
19.52,-7.1033583,5.535647,-1.4937314,1001.1979,1,1
19.56,-6.8741603000000016,6.298301,-1.1576098999999995,1001.23315,1,1
19.6,-6.620814,6.331667,-1.4037973999999998,1001.2281,1,1
19.64,-7.8970075,6.02184,-1.7257357,1001.2534,1,1
19.68,-8.078628,6.260168,-2.1376276,1001.1853,1,1
19.72,-8.652188,7.1038479999999975,-2.1991737,1001.21295,1,1
19.76,-7.9543203999999985,7.0990806,-3.789932,1001.25336,1,1
19.8,-8.456186,5.5404162,-4.126073,1001.2231,1,1
19.84,-8.064227,5.106659400000002,-3.8940861,1001.1927,1,1
19.88,-6.4438596,5.426018,-3.1365802000000005,1001.2004,1,1
19.92,-6.97918,4.224846,-3.0324216,1001.21796,1,1
19.96,-6.3147726,4.5108385,-3.0797646,1001.2482,1,1
20.0,-6.4581504,4.8206644,-2.776761,1001.2532,1,1
20.04,-6.7736034,4.7729983,-2.7862287,1001.25336,1,1
20.08,-7.0986214000000025,4.7729983,-2.9614007,1001.24835,1,1
20.12,-7.0986023000000005,5.483215,-2.961399,1001.22296,1,1
20.16,-7.060351,4.8921614,-3.2407277000000003,1001.2356,1,1
20.2,-8.522953999999999,5.359284,-3.624213,1001.248,1,1
20.24,-8.016277,5.4641476,-3.5721328000000003,1001.2934,1,1
20.28,-8.886185000000003,6.150532,-3.6573505,1001.2429,1,1
20.32,-9.407176,6.0456667,-3.5579276,1001.2177,1,1
20.36,-8.742764999999999,5.673875,-2.3411837,1001.18744,1,1
20.4,-8.350810000000001,5.5451775,-1.4984589,1001.23035,1,1
20.44,-9.278071,5.097121,-1.2570021999999998,1001.23535,1,1
20.48,-7.8154383,5.3688145,-1.010812,1001.21,1,1
20.52,-6.773426,5.5022774000000005,-0.864044,1001.2255,1,1
20.56,-7.14585,5.159075700000002,-1.3989952,1001.2606,1,1
20.6,-6.457528,5.5785317,-1.2427571000000002,1001.2783,1,1
20.64,-5.673616,5.983689,-1.2995676,1001.2583,1,1
20.68,-6.390552,6.074252,-1.7493328999999995,1001.24536,1,1
20.72,-7.145734299999999,5.9598546,-2.1138794,1001.24536,1,1
20.76,-8.254614,6.169582,-2.795631,1001.2456,1,1
20.8,-8.369301,6.5795054,-2.9139884,1001.2328,1,1
20.84,-9.435169,6.5032396,-3.7188346,1001.2303,1,1
20.88,-8.904575999999997,5.993217,-4.182803,1001.22003,1,1
20.92,-6.667601,6.1886454,-4.10705,1001.273,1,1
20.96,-6.9925976,5.2305665,-4.1070470000000014,1001.2376,1,1
21.0,-7.824253,4.143791,-3.8655896,1001.23535,1,1
21.04,-6.3950667,4.5489473,-3.633602,1001.2655,1,1
21.08,-5.9457293,4.1485558,-3.0323290000000003,1001.2527,1,1
21.12,-6.9112267,3.281042,-2.8524196,1001.273,1,1
21.16,-7.121498,4.405948,-2.9991825,1001.24506,1,1
21.2,-7.150158,4.5727773,-3.188557,1001.2477,1,1
21.24,-7.508609,5.2686934,-3.0039122000000003,1001.278,1,1
21.28,-9.157606,5.221028,-3.8655703,1001.29047,1,1
21.32,-8.775192,5.244859,-3.4726124,1001.27045,1,1
21.36,-9.463458,5.0780296,-3.382656,1001.2553,1,1
21.4,-10.424169,5.1399937000000016,-3.2879653,1001.2275,1,1
21.44,-9.0905695,5.630948,-2.057017,1001.2425,1,1
21.48,-7.2598796,5.1924243,-1.2805723,1001.27026,1,1
21.52,-8.841971000000003,4.21528,-0.9586306,1001.2122,1,1
21.56,-9.061642,4.358271599999999,-1.1811293,1001.2579,1,1
21.6,-7.9240146,4.6633306,-1.1243132,1001.278,1,1
21.64,-7.18789,4.6585627,-1.0390909,1001.235,1,1
21.68,-7.3312453999999985,4.367801999999998,-1.0627593000000002,1001.25006,1,1
21.72,-7.1447935,4.1199403,-0.9112548,1001.25006,1,1
21.76,-7.364636999999999,3.8911455,-0.91598666,1001.2299,1,1
21.8,-7.684848,4.3249005999999985,-0.7739511,1001.2526,1,1
21.84,-8.454353,4.858754,-1.3326072,1001.2626,1,1
21.88,-8.898841000000003,5.3544755,-1.5456522,1001.28296,1,1
21.92,-9.295542,5.7691655,-1.6308694,1001.2499,1,1
21.96,-9.094742,6.3602165999999976,-2.3268225,1001.25757,1,1
22.0,-9.673062,6.3220835,-2.629821,1001.2601,1,1
22.04,-9.285866,5.9216914,-3.1648057,1001.2424,1,1
22.08,-7.38824,5.206707,-2.9044094,1001.2398,1,1
22.12,-7.565065400000001,4.60612,-2.8523283,1001.2626,1,1
22.16,-8.105144000000001,4.796782,-2.9044032000000004,1001.2424,1,1
22.2,-7.6988235,4.830147,-2.7718368,1001.2878,1,1
22.24,-7.0343966,4.6680827,-2.5777228,1001.2979,1,1
22.28,-7.1347356,4.162827,-2.5445788,1001.27765,1,1
22.32,-7.4645076,3.8482335,-2.6108572,1001.2499,1,1
22.36,-7.7034535,3.8339326,-2.7197447,1001.2372,1,1
22.4,-7.373613400000001,3.9769287,-2.6013813,1001.2195,1,1
22.44,-7.51697,4.5250816,-2.6771283,1001.2421,1,1
22.48,-8.339058999999999,4.5727468,-3.2026439,1001.2674,1,1
22.52,-8.20519,4.653777,-3.4109545,1001.275,1,1
22.56,-8.817606,4.3677983,-3.5719793,1001.25214,1,1
22.6,-9.65884,5.3783083,-3.6193223,1001.2599,1,1
22.64,-9.39116,5.5070047,-3.8371038,1001.285,1,1
22.68,-9.759194,4.5918255,-3.3494594,1001.2825,1,1
22.72,-9.018314,4.4202294,-2.3078892000000004,1001.24457,1,1
22.76,-6.9821076,4.94455,-1.5503837,1001.26495,1,1
22.8,-8.712384,4.2772317000000015,-1.602461,1001.2597,1,1
22.84,-8.191372,4.6680894,-1.7728983,1001.25476,1,1
22.88,-8.8892145,4.5393919999999985,-2.1279778,1001.2597,1,1
22.92,-8.205689,5.273442,-2.0096164,1001.26746,1,1
22.96,-7.25928,5.530835,-2.1705854,1001.2649,1,1
23.0,-7.5364947,5.1066117,-2.2273972,1001.2749,1,1
23.04,-7.5651655,4.8921160000000015,-2.1800523,1001.24457,0,0
23.08,-7.942756699999999,4.796785400000001,-2.1847854,1001.26733,0,0
23.12,-8.7409725,4.8444505,-2.4025671,1001.26984,0,0
23.16,-8.315557499999999,5.1066103,-2.6014109,1001.22424,0,0
23.2,-8.129133,4.84445,-2.8760054,1001.2495,0,0
23.24,-8.09089,4.439292,-2.6913629,1001.2418,0,0
23.28,-7.990498,4.196197,-2.9896288,1001.2418,0,0
23.32,-8.2008,3.8816047,-2.7481735,1001.2646,0,0
23.36,-8.047834,3.981702,-2.5493276,1001.23694,0,0
23.4,-8.195998,4.215262999999998,-2.9801574,1001.2545,0,0
23.44,-8.434975,4.2438617,-2.9801562,1001.27466,0,0
23.48,-8.5305605,4.1485305,-3.0274992000000003,1001.2646,0,0
23.52,-8.3632555,4.1628300000000005,-2.8902004,1001.2824,0,0
23.56,-8.429363,4.0865455000000015,-2.8664544,1001.2571,0,0
23.6,-8.324169,4.2152414,-3.0132174,1001.25726,0,0
23.64,-8.218967,4.048411,-2.9848068,1001.2569,0,0
23.68,-8.304962,3.8672805,-2.9611306,1001.25934,0,0
23.72,-8.319263000000001,3.9435449,-2.885377,1001.2317,0,0
23.76,-8.486502999999999,4.0293410000000005,-3.0510762,1001.2644,0,0
23.8,-8.539062,3.8625112,-3.060543,1001.2824,0,0
23.84,-8.366934,3.981674,-3.1694293,1001.2795,0,0
23.88,-8.362112,3.8005438,-2.9421742,1001.21655,0,0
23.92,-8.390744,3.857741,-3.0273893,1001.2594,0,0
23.96,-8.534101,3.795775,-2.9421663,1001.2541,0,0
24.0,-8.39065,3.8625052,-3.0936623,1001.25183,0,0
24.04,-8.366721,3.8243725,-3.226223,1001.239,0,0
24.08,-8.280644,3.6909075,-3.0321085,1001.23676,0,0
24.12,-8.294936,3.9197013,-3.2214801,1001.2592,0,0
24.16,-8.194522000000001,3.986432,-3.0983825,1001.2468,0,0
24.2,-8.371332,3.9196992,-3.1693945,1001.2214,0,0
24.24,-8.290032,3.9482975,-3.0794368,1001.2214,0,0
24.28,-8.242205,3.9959624,-3.1078405,1001.244,0,0
24.32,-8.309059,3.991194,-3.1078348,1001.2644,0,0
24.36,-8.495436999999999,3.9292283,-3.1078317,1001.2592,0,0
24.4,-8.313764,4.0817566,-3.01314,1001.2567,0,0
24.44,-8.289819,4.005491,-3.0888863,1001.2314,0,0
24.48,-8.313667,4.1151204,-3.0083966,1001.2567,0,0
24.52,-8.275396,4.057921,-2.989456,1001.244,0,0
24.56,-8.324422,4.019819,-2.9990373,1001.239,0,0
24.6,-8.314871,4.0293519999999985,-2.9090842999999995,1001.2364,0,0
24.64,-8.386575,4.0150523,-2.9138196,1001.21893,0,0
24.68,-8.405702999999999,4.043652,-2.946961,1001.22144,0,0
24.72,-8.4248295,4.0055194,-2.857008,1001.25397,0,0
24.76,-8.357918,3.9864538,-2.8333366,1001.2592,0,0
24.8,-8.491762,4.077018700000001,-2.8238685,1001.2543,0,0
24.84,-8.424851,3.953088,-2.8096662,1001.2414,0,0
24.88,-8.415298,4.0102873,-2.7481194,1001.244,0,0
24.92,-8.420086,3.995988,-2.8238704,1001.24646,0,0
24.96,-8.338836,4.077019,-2.743386,1001.2288,0,0
25.0,-8.510917,3.9101899,-2.776528,1001.2289,0,0
25.04,-8.5348215,3.9387894,-2.8096693,1001.23145,0,0
25.08,-8.35798,4.0388875,-2.7812638,1001.2289,0,0
25.12,-8.458363,4.0579534,-2.7575924,1001.2364,0,0
25.16,-8.377111,3.9292572,-2.710249,1001.2187,0,0
25.2,-8.467938,4.015055,-2.8380785,1001.2718,0,0
25.24,-8.491842,4.029355000000002,-2.8759544,1001.249,0,0
25.28,-8.5539875,4.015055,-2.8002045,1001.2438,0,0
25.32,-8.405821000000001,4.0627213,-2.8428150000000003,1001.25385,0,0
25.36,-8.36759,4.0388885000000005,-2.719721,1001.2135,0,0
25.4,-8.405836,3.9673908,-2.7860034,1001.2289,0,0
25.44,-8.338925999999999,3.9816906,-2.7575977000000003,1001.25385,0,0
25.48,-8.477549,3.9340248,-2.8522863,1001.2437,0,0
25.52,-8.472773,4.005523,-2.7339267999999994,1001.21625,0,0
25.56,-8.496366,4.024582,-2.771774,1001.2488,0,0
25.6,-8.47724,3.9149513,-2.7244294,1001.2514,0,0
25.64,-8.429437,3.9006512,-2.7386324,1001.22614,0,0
25.68,-8.462892,4.053181,-2.8049135,1001.2714,0,0
25.72,-8.462888000000001,4.0674806000000014,-2.7528346000000004,1001.2616,0,0
25.76,-8.467661,3.934017,-2.6865525000000003,1001.23114,0,0
25.8,-8.458096000000001,3.962616,-2.6818175,1001.24365,0,0
25.84,-8.49633,4.0341144,-2.785974,1001.2183,0,0
25.88,-8.453306,3.8529851,-2.7386296000000003,1001.2537,0,0
25.92,-8.458079,3.9530823,-2.7670352000000005,1001.22864,0,0
25.96,-8.501095,3.9530823,-2.696019,1001.23615,0,0
26.0,-8.44373,4.034114,-2.842785,1001.2412,0,0
26.04,-8.467626,3.9816818,-2.8522532000000003,1001.2463,0,0
26.08,-8.376804,3.962615,-2.7717679,1001.2714,0,0
26.12,-8.415038000000001,3.9244826,-2.767033,1001.2259,0,0
26.16,-8.472389999999999,3.934016,-2.819111,1001.2487,0,0
26.2,-8.362451,3.9673817,-2.8806581,1001.24365,0,0
26.24,-8.515399,3.9149494,-2.8711884,1001.2612,0,0
26.28,-8.372,4.0150466,-2.847516,1001.2816,0,0
26.32,-8.477151,3.9673812000000006,-2.899594,1001.2612,0,0
26.36,-8.3385315,4.1151443,-2.9280002,1001.2537,0,0
26.4,-8.376764,3.9816806,-2.8475149,1001.23346,0,0
26.44,-8.391099,3.9578478,-2.8380456,1001.2337,0,0
26.48,-8.348075999999999,4.0007462999999985,-2.8901236,1001.264,0,0
26.52,-8.328952000000001,4.0865445,-2.937467,1001.2612,0,0
26.56,-8.428355999999999,3.9768896,-2.946847,1001.25116,0,0
26.6,-8.227572,4.076987,-2.866359,1001.2337,0,0
26.64,-8.34225,3.976888,-2.9373717,1001.24866,0,0
26.68,-8.428237,4.010253,-2.899492,1001.25354,0,0
26.72,-8.42342,4.019785,-2.9941769,1001.27893,0,0
26.76,-8.270425999999999,3.9959514,-2.9562976,1001.2434,0,0
26.8,-8.389886,3.9149191,-3.0036387,1001.2386,0,0
26.84,-8.284678999999999,4.0340815,-2.95629,1001.2537,0,0
26.88,-8.389783,3.862484,-3.0746455000000004,1001.2485,0,0
26.92,-8.337159,3.9006155,-2.9278746,1001.21826,0,0
26.96,-8.275003,3.9101481,-3.0557017,1001.24066,0,0
27.0,-8.303632,4.04361,-2.9846811,1001.2384,0,0
27.04,-8.3991785,3.9101455,-2.9894109,1001.2409,0,0
27.08,-8.384799000000001,3.8767788,-2.92786,1001.2333,0,0
27.12,-8.360857000000001,3.9578094,-2.9752,1001.25854,0,0
27.16,-8.427736,3.9578085,-3.0036032,1001.2106,0,0
27.2,-8.298638,3.9006085,-2.9609895,1001.2434,0,0
27.24,-8.317701,3.9864054,-2.9609845,1001.256,0,0
27.28,-8.2842,4.0340695,-2.9846525,1001.2459,0,0
27.32,-8.432341000000001,4.0054693,-3.0177903,1001.2256,0,0
27.36,-8.403625,3.9482698,-3.0745997000000003,1001.22046,0,0
27.4,-8.279304,4.0245337,-3.0319858,1001.251,0,0
27.44,-8.3939705,3.8958354,-2.9751685,1001.24335,0,0
27.48,-8.360463000000001,3.9816325,-2.9656954,1001.2231,0,0
27.52,-8.365213,3.9006,-2.9846303,1001.25073,0,0
27.56,-8.289775,3.9768906,-2.9847252,1001.2381,0,0
27.6,-8.418828999999999,3.9387581,-3.0131316000000004,1001.25574,0,0
27.64,-8.328013,4.024556,-2.9515842999999995,1001.2558,0,0
27.68,-8.414049,3.9864237,-2.9515842999999995,1001.2382,0,0
27.72,-8.418828999999999,3.8815596,-2.9657876,1001.2558,0,0
27.76,-8.371031,3.9578245,-3.0226007000000004,1001.2609,0,0
27.8,-8.342353,3.8958592,-3.0320692000000005,1001.23303,0,0
27.84,-8.433167999999998,3.9292252,-2.9894595,1001.25073,0,0
27.88,-8.304114,3.9244585,-2.9799907,1001.2608,0,0
27.92,-8.356691,3.9244585,-2.9989285,1001.2685,0,0
27.96,-8.428389,3.9101589,-2.9752564,1001.24066,0,0
28.0,-8.428389,3.8958592,-2.9799907,1001.21545,0,0
28.04,-8.390151,3.9149256,-2.875834,1001.2581,0,0
28.08,-8.380591,3.919692,-2.9563186000000004,1001.23303,0,0
28.12,-8.42361,3.9149256,-2.9799907,1001.23553,0,0
28.16,-8.371031,3.86726,-2.994194,1001.2557,0,0
28.2,-8.418828999999999,3.814828,-3.0226007000000004,1001.26074,0,0
28.24,-8.414049,3.8910928,-2.9705222,1001.2457,0,0
28.28,-8.347133,3.9911902,-3.008397,1001.281,0,0
28.32,-8.437949,3.9482913,-2.94685,1001.2431,0,0
28.36,-8.394931,3.8529603,-2.9563186000000004,1001.23303,0,0
28.4,-8.394931,3.86726,-3.008397,1001.26324,0,0
28.44,-8.390151,3.790995,-3.008397,1001.2226,0,0
28.48,-8.452289,3.8720262,-2.8379586,1001.2507,0,0
28.52,-8.366251,4.100821,-2.899506,1001.24817,0,0
28.56,-8.461911,4.0197910000000014,-3.0226064,1001.2507,0,0
28.6,-8.581408999999999,4.029324,-3.0320754,1001.24817,0,0
28.64,-8.351981,3.9101603,-2.8758402000000003,1001.2633,0,0
28.68,-8.3663225,3.895861,-2.8663716,1001.26294,0,0
28.72,-8.452361,3.8338954,-2.856903,1001.2402,0,0
28.76,-8.265951,4.1341887,-2.8900442,1001.268,0,0
28.8,-8.256395,3.9816594,-2.9279196,1001.2733,0,0
28.84,-8.213379,3.9149275,-2.998936,1001.2378,0,0
28.88,-8.2325,3.9149275,-3.0131395,1001.25287,0,0
28.92,-8.270742,3.9053943,-3.017874,1001.27075,0,0
28.96,-8.509734,3.843429,-3.041546,1001.2631,0,0
29.0,-8.485838000000001,4.1627884,-3.0841563,1001.2581,0,0
29.04,-8.289869,4.2724195,-2.9989371,1001.253,0,0
29.08,-8.208614,4.010259,-2.9894682999999995,1001.23773,0,0
29.12,-8.237296,3.8100634,-2.7811549,1001.2429,0,0
29.16,-8.619683,3.7147324,-3.069954,1001.253,0,0
29.2,-8.543208,3.8195965,-3.1646419,1001.2553,0,0
29.24,-8.600569,3.805297,-3.1788456000000003,1001.2555,0,0
29.28,-8.447617999999999,3.8386633,-2.994204,1001.2452,0,0
29.32,-8.323344,3.7766979,-3.1362364,1001.26794,0,0
29.36,-8.567117,3.5574365,-3.197784,1001.2755,0,0
29.4,-8.428506,3.7576318,-3.079424,1001.25775,0,0
29.44,-8.720075999999999,3.5860357000000005,-3.0794241,1001.2553,0,0
29.48,-8.294675999999999,3.9244614,-2.9752674,1001.2503,0,0
29.52,-8.371155,4.0150256,-3.3303480000000003,1001.26294,0,0
29.56,-8.389667,3.8481815,-3.0272906,1001.2375,0,0
29.6,-8.341847,3.9530454,-3.0272887,1001.2452,0,0
29.64,-8.198437,4.234271499999998,-3.1456473,1001.2351,0,0
29.68,-8.27489,3.805281200000002,-3.34449,1001.2426,0,0
29.72,-8.188827999999999,4.0293083,-3.5291297,1001.2503,0,0
29.76,-8.04542,3.9387436,-3.3965650000000003,1001.2579,0,0
29.8,-8.145769,3.6527495,-3.2971401,1001.24506,0,0
29.84,-8.518572,3.7719133,-3.3918262,1001.2376,0,0
29.88,-8.198303999999998,3.876777,-3.3965585,1001.235,0,0
29.92,-8.37036,3.7433126,-3.311338,1001.2501,0,0
29.96,-8.39424,3.800511100000002,-3.2687263,1001.2451,0,0
30.0,-8.198241000000001,3.8148103,-3.5196471,1001.27295,0,0
30.04,-8.547144,3.3667533,-3.3302690000000004,1001.2604,0,0
30.08,-8.403735000000001,3.5717146,-3.4391592000000006,1001.2247,0,0
30.12,-8.24598,4.0483699999999985,-3.3113282,1001.235,0,0
30.16,-7.9782867,4.0817347,-3.7658288,1001.27795,0,0
30.2,-8.312851,4.0054693,-3.2024324,1001.2121,0,0
30.24,-8.183774,3.9530368,-3.6048548,1001.24506,0,0
30.28,-8.265014,3.6527433,-3.3681330000000003,1001.202,0,0
30.32,-8.202856,3.9292035,-3.4675536,1001.2298,0,0
30.36,-7.863465,3.852938,-3.6237867,1001.25745,0,0
30.4,-8.097652,3.762373,-3.557503,1001.2223,0,0
30.44,-8.207572,4.072199,-3.803691,1001.23755,0,0
30.48,-7.949438000000002,4.115097,-3.9362519,1001.2275,0,0
30.52,-8.126272,3.919668,-4.1492977,1001.25256,0,0
30.56,-7.858706,3.8052728,-3.955197,1001.2325,0,0
30.6,-8.078566,3.6622756,-4.0309467,1001.22473,0,0
30.64,-7.968611,3.824338200000001,-3.9267879,1001.23724,0,0
30.68,-8.135887,3.9149027,-3.893645,1001.2423,0,0
30.72,-8.193228,3.881536,-3.8794403,1001.23,0,0
30.76,-8.178877,3.9387343,-3.7232041,1001.25745,0,0
30.8,-8.011563,3.7337723,-3.8794374,1001.2499,0,0
30.84,-7.973308599999997,3.5717087,-3.9125772,1001.22473,0,0
30.88,-8.460834,3.7337713,-4.0451393,1001.202,0,0
30.92,-7.5861106,3.7719033,-4.0546064,1001.24506,0,0
30.96,-8.613752,3.3286133,-4.0782766000000015,1001.2272,0,0
31.0,-7.9684644,3.9530315,-4.154026,1001.23224,0,0
31.04,-7.825053,3.8243344,-4.139821,1001.27515,0,0
31.08,-7.958872299999999,3.8291004,-4.357602,1001.2272,0,0
31.12,-7.997095,3.7480686,-4.116146,1001.23224,0,0
31.16,-7.700729400000001,3.8290994,-4.1966295,1001.22723,0,0
31.2,-8.207373,3.6527364,-4.2108316,1001.2197,0,0
31.24,-7.8010774,3.8719978,-4.1587515,1001.21716,0,0
31.28,-8.240798,3.8052657,-4.243969,1001.2501,0,0
31.32,-7.619407700000001,4.1579905,-4.1540136,1001.2348,0,0
31.36,-7.953978,3.7004004,-4.177683999999998,1001.22217,0,0
31.4,-7.714975,3.6289022000000006,-4.3149805,1001.2501,0,0
31.44,-8.140358,3.5383370000000003,-4.2581663,1001.22217,0,0
31.48,-7.686261,3.6813335,-4.225024,1001.23224,0,0
31.52,-8.059069000000001,3.7432978,-4.2534285,1001.1993,0,0
31.56,-7.786636,3.8815286,-4.4617443,1001.2044,0,0
31.6,-7.734044,3.8147964,-4.32918,1001.23724,0,0
31.64,-8.054275,3.738531,-4.4901485,1001.21967,0,0
31.68,-7.753135,3.748064,-4.54696,1001.22473,0,0
31.72,-7.7101,3.6288998,-4.575364,1001.23755,0,0
31.76,-7.992096000000001,3.6908643,-4.6132393,1001.2373,0,0
31.8,-7.791326,3.919659,-4.5990334000000015,1001.2197,0,0
31.84,-7.7674155,4.1150875,-4.523282,1001.22473,0,0
31.88,-7.896453,3.7194629,-4.6369066,1001.2345,0,0
31.92,-7.7482624000000015,3.867226,-4.499607,1001.2474,0,0
31.96,-7.772146,3.7337618,-4.3102293,1001.2171,0,0
32.0,-7.6669755,3.876758,-4.225009,1001.2474,0,0
32.04,-7.891616,3.795726,-4.3907120000000015,1001.2449,0,0
32.08,-7.872477000000001,4.1293845000000005,-4.376507,1001.22473,0,0
32.12,-8.101892999999999,3.6860948,-4.2818174,1001.2476,0,0
32.16,-7.862891,3.919655600000001,-3.9362051,1001.24506,0,0
32.2,-7.762498399999999,4.038819,-4.2818146,1001.2398,0,0
32.24,-8.020591,3.9196548,-4.229735400000001,1001.23224,0,0
32.28,-7.7911463,4.138916,-4.310219,1001.2272,0,0
32.32,-7.623842,4.1627480000000014,-3.846246,1001.22217,0,0
32.36,-7.848474,3.8958209,-4.2155275,1001.2424,0,0
32.4,-8.120909,3.9911516,-3.993009,1001.24506,0,0
32.44,-7.6954894,4.1722803,-4.291275,1001.2423,0,0
32.48,-7.8723326,3.905353,-4.1161013,1001.2501,0,0
32.52,-7.7145796,4.1055480000000015,-4.1113653,1001.2449,0,0
32.56,-7.7283883,4.0292697,-3.917206,1001.2423,0,0
32.6,-7.9482265,3.9911366,-4.2533455,1001.2423,0,0
32.64,-7.7474413,4.053101,-4.1775923,1001.2473,0,0
32.68,-7.9194875,3.9911351,-4.1349800000000005,1001.2398,0,0
32.72,-7.8238444,4.2151623,-3.9834747,1001.22723,0,0
32.76,-7.895518300000001,4.110297,-4.1965218,1001.23975,0,0
32.8,-7.862017,4.286658999999998,-4.220189,1001.23474,0,0
32.84,-7.799842,4.2056265,-4.172842,1001.2524,0,0
32.88,-7.694650699999999,4.1198273,-4.139697,1001.2298,0,0
32.92,-7.924048,3.9243980000000014,-4.1633663,1001.23987,0,0
32.96,-7.728051,3.9863627,-3.9834569,1001.1994,0,0
33.0,-7.9383163,4.401052,-4.1633596,1001.2196,0,0
33.04,-7.5750246,4.3915176,-4.172827,1001.207,0,0
33.08,-7.8091908,4.320019,-4.0828686,1001.2423,0,0
33.12,-7.560607400000001,4.172254,-3.9597714,1001.2651,0,0
33.16,-7.876039,4.148421,-4.0165806,1001.23724,0,0
33.2,-7.703933,4.029256299999999,-4.106531,1001.2423,0,0
33.24,-7.909437700000002,4.1388865,-4.092326,1001.27026,0,0
33.28,-7.847264999999997,3.9863558,-4.0875873999999985,1001.25494,0,0
33.32,-7.8424425000000015,4.0626197,-3.8035202,1001.2122,0,0
33.36,-7.9332232,4.0530852999999984,-3.89347,1001.2247,0,0
33.4,-7.957084,4.3438444,-4.097046,1001.2753,0,0
33.44,-8.01919,4.0483174,-4.1585913,1001.26526,0,0
33.48,-7.8470807,4.010184,-3.8271787000000006,1001.27026,0,0
33.52,-7.703651,3.9339182,-3.7750971,1001.23724,0,0
33.56,-7.8781485999999985,4.0245422999999985,-3.8510695,1001.2449,0,0
33.6,-7.992941,4.138942,-3.8842177,1001.2553,0,0
33.64,-7.820931,4.439236,-3.6853783,1001.23724,0,0
33.68,-8.112553,4.129411,-3.633305000000001,1001.2351,0,0
33.72,-7.945328999999999,4.339141400000001,-3.581233,1001.2602,0,0
33.76,-7.902369500000002,4.0722156,-3.60491,1001.2402,0,0
33.8,-8.036265,4.0817504,-3.7043386,1001.2327,0,0
33.84,-7.959851299999999,4.1723165999999985,-3.81797,1001.2551,0,0
33.88,-7.849955599999999,4.2056830000000005,-3.5149715,1001.2501,0,0
33.92,-7.797458,4.4916787000000005,-3.7090895,1001.2198,0,0
33.96,-7.8070765,4.35345,-3.0226061,1001.2148,0,0
34.0,-7.993539299999999,4.3057857,-3.3492846,1001.21747,0,0
34.04,-7.912341,4.253355,-3.372962,1001.24005,0,0
34.08,-7.9028550000000015,4.5155177,-3.013154,1001.1846,0,0
34.12,-8.247066499999999,4.677582,-2.4118907000000003,1001.2049,0,0
34.16,-8.323605,5.1065736,-2.8995402,1001.2325,0,0
34.2,-8.199374,4.8587136,-2.961091,1001.2427,0,0
34.24,-8.122975,4.639454,-2.5539396,1001.2351,0,0
34.28,-8.209069,4.587023,-2.47346,1001.2427,0,0
34.32,-8.008383,4.9874160000000005,-1.7775084,1001.2301,0,0
34.36,-7.7598767,5.206678,-2.743331,1001.2301,0,0
34.4,-8.347855000000001,5.1876135,-2.6628517999999994,1001.2605,0,0
34.44,-8.108941999999999,4.8730226,-2.9847984,1001.2148,0,0
34.48,-7.678818,4.9302225,-2.672333,1001.2351,0,0
34.52,-7.7027793,4.96359,-3.1031697,1001.2631,0,0
34.56,-7.930053699999997,4.9635370000000005,-2.7810326,1001.248,0,0
34.6,-7.65758,5.025502,-2.6579359,1001.2453,0,0
34.64,-8.1020775,5.1208324,-3.0461547,1001.2453,0,0
34.68,-7.5810533,5.0588665,-2.686338,1001.2378,0,0
34.72,-7.843924,4.9254026,-2.880447,1001.2402,0,0
34.76,-7.9538293000000015,5.120831,-2.5537697999999995,1001.2581,0,0
34.8,-7.8151899999999985,5.3496246,-2.487486,1001.253,0,0
34.84,-7.757808,5.4544883,-2.6768599,1001.2326,0,0
34.88,-8.149727,5.101763,-2.7336705,1001.28577,0,0
34.92,-7.776875,4.9873650000000005,-2.766809,1001.273,0,0
34.96,-8.140129,4.830068,-2.7952144,1001.2605,0,0
35.0,-7.614314599999997,5.096994400000002,-2.8046799,1001.28815,0,0
35.04,-7.6477475,4.853899,-2.9940536,1001.2402,0,0
35.08,-7.9823084,5.0016620000000005,-2.7667997000000004,1001.2732,0,0
35.12,-7.881917,4.896797,-3.4674902000000003,1001.2605,0,0
35.16,-7.8006268,5.0111940000000015,-2.4874654,1001.2607,0,0
35.2,-7.6428660000000015,5.220921499999998,-3.5621730000000005,1001.2429,0,0
35.24,-7.360836999999999,5.273353,-3.4864206,1001.2805,0,0
35.28,-7.5520124000000015,5.044558,-3.0650568,1001.2708,0,0
35.32,-7.5520124000000015,5.044558,-3.0650568,1001.24554,0,0
35.36,-7.5520124000000015,5.044558,-3.0650568,1001.2429,0,0
35.4,-7.5520124000000015,5.044558,-3.0650568,1001.2557,0,0
35.44,-7.5520124000000015,5.044558,-3.0650568,1001.22784,0,0
35.48,-7.3702526,5.297182599999998,-2.7999187,1001.2402,0,0
35.52,-7.700024000000001,4.7823935,-2.515851,1001.2175,0,0
35.56,-8.102306,4.982608,-2.3076086,1001.22003,0,0
35.6,-8.044951,4.911109400000001,-2.97516,1001.26544,0,0
35.64,-7.9780436,4.9349427000000015,-2.6342838,1001.2506,0,0
35.68,-8.336533,4.687082,-3.0509117000000003,1001.2733,0,0
35.72,-7.8872385,4.853911,-2.6721601,1001.2381,0,0
35.76,-7.5048594,4.920644,-2.6390195,1001.27094,0,0
35.8,-8.049764999999999,4.796713,-2.8236623,1001.2607,0,0
35.84,-7.9254975,4.687083,-2.6863651,1001.2683,0,0
35.88,-8.01632,5.106539700000001,-2.7763193,1001.2558,0,0
35.92,-7.892050999999999,5.068407499999998,-2.8094609,1001.27094,0,0
35.96,-8.0211115,5.0398083,-2.8568053,1001.2784,0,0
36.0,-7.853825,4.9301777,-2.847337,1001.25287,0,0
36.04,-8.030683,4.84438,-2.866275,1001.25073,0,0
36.08,-7.877737,4.820546599999999,-2.785791,1001.25824,0,0
36.12,-7.9589977,4.839613,-2.6769,1001.2304,0,0
36.16,-7.844290299999999,4.9492445,-2.7337136,1001.2304,0,0
36.2,-8.054607,4.930178,-2.8331368,1001.2683,0,0
36.24,-7.715248,5.0112104,-2.6579642000000003,1001.2557,0,0
36.28,-7.959024,5.001677,-2.752653,1001.2303,0,0
36.32,-7.9781485,4.9206457000000015,-2.8473415,1001.2608,0,0
36.36,-7.930358,4.8491472999999985,-2.5727468,1001.25323,0,0
36.4,-7.978162299999997,4.939712,-2.591685,1001.23553,0,0
36.44,-7.9160295,5.0207434,-2.6579669,1001.2381,0,0
36.48,-8.131128,5.154207,-2.3407624,1001.2456,0,0
36.52,-8.24585,4.925413,-2.175059,1001.2532,0,0
36.56,-8.126136,4.982606400000001,-2.6248074,1001.2735,0,0
36.6,-7.9684005,4.715679,-2.6484792,1001.2986,0,0
36.64,-8.441597999999999,4.586982,-2.752636,1001.2685,0,0
36.68,-7.872799,4.6346474,-2.5727284,1001.266,0,0
36.72,-8.102227000000001,4.586982,-2.4070240000000003,1001.2255,0,0
36.76,-8.193042,4.663246599999999,-2.657947,1001.26074,0,0
36.8,-8.083103,4.8825083,-2.530118,1001.2505,0,0
36.84,-8.078321,4.863442,-2.6910875,1001.2609,0,0
36.88,-8.1595745,4.7681108,-2.6721497000000003,1001.2811,0,0
36.92,-7.973160000000001,4.3248205,-2.6958213,1001.2255,0,0
36.96,-8.15957,4.50595,-2.1892400000000003,1001.24066,0,0
37.0,-8.06875,4.7252116,-2.7052898,1001.22296,0,0
37.04,-7.963592999999999,4.858675,-2.7147584,1001.266,0,0
37.08,-8.169122999999999,4.606047,-2.7194927000000004,1001.27356,0,0
37.12,-8.231256,4.5393157,-2.6863515,1001.2833,0,0
37.16,-7.906228,4.5488486,-2.5916631000000003,1001.2608,0,0
37.2,-8.221692,4.7633443,-2.5064435,1001.22784,0,0
37.24,-8.388983,4.6394129999999985,-2.5064433,1001.22784,0,0
37.28,-8.207348,4.8777404,-2.4543648,1001.2685,0,0
37.32,-8.216904,4.586981,-2.8378513,1001.29114,0,0
37.36,-8.2886,4.358186,-2.7526317,1001.2811,0,0
37.4,-8.092626,4.300987200000002,-2.605865,1001.248,0,0
37.44,-8.083063000000001,4.6775455,-2.4875047,1001.2634,0,0
37.48,-8.126078999999999,4.6441792999999985,-2.5916615000000003,1001.24066,0,0
37.52,-8.135637,4.7585764,-2.7005525,1001.2382,0,0
37.56,-8.135637,4.7585764,-2.7005525,1001.25073,0,0
37.6,-8.135637,4.7585764,-2.7005525,1001.2911,0,0
37.64,-8.135637,4.7585764,-2.7005525,1001.24036,0,0
37.68,-8.135637,4.7585764,-2.7005525,1001.24335,0,0
37.72,-8.256269,4.448778,-2.729063,1001.24066,0,0
37.76,-8.112910000000001,4.5727096,-2.70066,1001.24567,0,0
37.8,-8.1655245,4.3915815,-2.8332264,1001.2608,0,0
37.84,-8.007828,4.6918755,-2.6769946,1001.2381,0,0
37.88,-8.160807,4.4869137000000014,-2.9563267000000004,1001.25085,0,0
37.92,-8.160807,4.4869137000000014,-2.9563267000000004,1001.25073,0,0
37.96,-8.160807,4.4869137000000014,-2.9563267000000004,1001.2584,0,0
38.0,-8.160807,4.4869137000000014,-2.9563267000000004,1001.2457,0,0
38.04,-8.160807,4.4869137000000014,-2.9563267000000004,1001.25073,1,2
38.08,-8.055842,4.7395463,-2.719624,1001.2432,1,2
38.12,-8.28053,4.4011216,-2.8521905,1001.24817,1,2
38.16,-8.318793,4.372523,-2.6296759,1001.23566,1,2
38.2,-7.5206056,4.467855,-2.075754,1001.2608,1,2
38.24,-7.539768,4.7061834000000005,-2.2888062,1001.2608,1,2
38.28,-8.247214999999999,4.8634815,-1.73015,1001.24835,1,2
38.32,-8.328509,5.178075,-1.6449342,1001.25323,1,2
38.36,-7.993950999999999,5.5546336,-1.2377777,1001.2558,1,2
38.4,-7.559021,5.640433,-1.3372033,1001.28864,1,2
38.44,-8.080062,5.302008,-1.2567221000000002,1001.2784,1,2
38.48,-7.5782256,5.692867,-0.6743944000000001,1001.2634,1,2
38.52,-8.405168,6.2553215,-0.61285055,1001.25336,1,2
38.56,-7.9399247000000015,6.9226,-0.64111024,1001.25574,1,2
38.6,-7.935125999999999,6.7462363,-0.8778287,1001.2861,1,2
38.64,-7.447556,6.9178320000000015,-1.3417976,1001.28357,1,2
38.68,-8.685492,6.584172200000001,-1.7252815,1001.27826,1,2
38.72,-9.316398,6.6366034,-2.7195039,1001.24036,1,2
38.76,-8.886194999999997,6.7271676,-3.7989461,1001.24066,1,2
38.8,-5.9657,6.4507065,-3.5385506,1001.2457,1,2
38.84,-5.9561124,5.7690883,-3.6474397000000014,1001.2734,1,2
38.88,-6.367148,5.1828012,-3.1645277000000003,1001.2281,1,2
38.92,-5.999077,5.5593586,-3.207135,1001.2079,1,2
38.96,-6.2762769999999986,5.397295,-3.7941988,1001.24335,1,2
39.0,-6.022921599999999,5.4783254,-4.016712999999998,1001.27356,1,2
39.04,-7.0744505,5.058868,-4.210821,1001.2534,1,2
39.08,-7.1843600000000025,5.3591604,-3.8983483,1001.2735,1,2
39.12,-6.672899,5.5688879999999985,-3.5432657999999995,1001.2608,1,2
39.16,-6.8353834,5.2399955,-3.2544644,1001.2382,1,2
39.2,-7.781751,5.4449562999999985,-2.9419906000000005,1001.25323,1,2
39.24,-7.4614754,6.1980714999999975,-2.975129,1001.2659,1,2
39.28,-8.56081,5.974043,-3.443833,1001.23303,1,2
39.32,-9.989939,6.560328500000002,-3.3160012,1001.2333,1,2
39.36,-9.268158,6.684259,-2.023506,1001.2407,1,2
39.4,-6.462395,7.16568,-1.0008728999999998,1001.228,1,2
39.44,-4.961507,7.608969,-0.44221038,1001.24066,1,2
39.48,-6.615294500000001,7.3944740000000015,-0.91564864,1001.2861,1,2
39.52,-7.016769,6.2266665,-0.48954946,1001.25073,1,2
39.56,-8.877549,5.0922613,-0.12986623,1001.2177,1,2
39.6,-8.0411215,5.9168763,-0.565435,1001.2253,1,2
39.64,-6.9083384999999975,5.9979086,-1.398693,1001.24054,1,2
39.68,-7.1760262999999975,5.4640546,-1.1240991000000002,1001.2635,1,2
39.72,-6.9657493000000015,4.4869113,-0.79742837,1001.22296,1,2
39.76,-7.295592,5.2161956,-0.72168124,1001.23285,1,2
39.8,-7.4868130000000015,6.05511,-0.71221507,1001.2505,1,2
39.84,-7.2860913,5.9550133,-0.29559022,1001.25085,1,2
39.88,-8.203844,6.226708,-0.39501557,1001.2532,1,2
39.92,-7.5442595,6.855894,-1.0246940999999998,1001.3037,1,2
39.96,-8.452455,6.832062,-1.8484833,1001.2682,1,2
40.0,-7.80721,6.9226274000000005,-2.8048358,1001.26575,1,2
40.04,-9.351116,5.8167863,-3.0415587000000004,1001.2558,1,2
40.08,-8.634176,5.831087,-3.140984,1001.2558,1,2
40.12,-7.697364,5.945485,-3.1835961,1001.26074,1,2
40.16,-6.4928837,5.325834,-2.3172033,1001.26575,1,2
40.2,-6.05317,4.691882,-2.0189383000000003,1001.25073,1,2
40.24,-6.7128158,4.0197987999999985,-2.2177858,1001.23303,1,2
40.28,-6.7797637,4.3915906,-2.1325696,1001.29095,1,2
40.32,-8.323669,4.610853,-3.2309544,1001.2936,1,2
40.36,-7.5780497,5.3592033,-2.4545145,1001.2809,1,2
40.4,-7.616313000000001,5.292472,-1.8769194,1001.28357,1,2
40.44,-7.6259065,5.492668,-1.4318885,1001.26575,1,2
40.48,-9.470941,5.2734074999999985,-1.7301588,1001.26074,1,2
40.52,-8.873496000000003,5.8358620000000005,-1.3750812,1001.2532,1,2
40.56,-8.170156,5.840611,-1.0578111,1001.2582,1,2
40.6,-8.409147,6.1409044,-0.6459180999999999,1001.2856,1,2
40.64,-7.9263887,5.9359417,-0.75480944,1001.26575,1,2
40.68,-9.0257435,5.3877883,-0.5891054,1001.2758,1,2
40.72,-8.853672,5.9359417,-0.039914604,1001.2504,1,2
40.76,-8.165382000000001,6.031274,0.50454175,1001.2327,1,2
40.8,-7.749540299999999,5.940709,0.64657384,1001.2252,1,2
40.84,-7.319359299999999,5.311524,1.2052334999999998,1001.228,1,2
40.88,-7.233324,5.831078,1.5082352,1001.22546,1,2
40.92,-7.348041,5.831078,1.4561567,1001.2327,1,2
40.96,-7.544014,6.198103,1.8207058,1001.2353,1,2
41.0,-8.036335000000001,6.712891,0.42405623,1001.2227,1,2
41.04,-7.376723299999999,6.9845853,-0.25769818,1001.26294,1,2
41.08,-7.6730722999999985,6.660459,0.016897216,1001.2831,1,2
41.12,-8.743749000000001,6.4650300000000005,-0.21035431,1001.2682,1,2
41.16,-8.036339,7.1847806,-0.54176277,1001.24036,1,2
41.2,-7.6539574,6.684292,-1.5312535,1001.21765,1,2
41.24,-7.266794,5.7929454000000025,-1.6259416000000002,1001.2304,1,2
41.28,-8.074582000000001,5.5021863,-1.7158955000000002,1001.2124,1,2
41.32,-8.437849,5.850145,-1.5880666,1001.2632,1,2
41.36,-8.012447,5.9359426,-0.33344957,1001.2153,1,2
41.4,-7.2094417,6.50793,-0.27190238,1001.24036,1,2
41.44,-7.534469,5.707148,-0.6885300999999999,1001.2682,1,2
41.48,-7.921635,5.249559,0.05477131,1001.2682,1,2
41.52,-8.232323,5.6404166,-0.14407381,1001.2478,1,2
41.56,-8.188414,6.388744,-0.15819544,1001.2503,1,2
41.6,-7.251533999999999,7.327755000000002,-0.39964658,1001.26556,1,2
41.64,-6.5918839999999985,7.4612174,-0.91569334,1001.2881,1,2
41.68,-6.7926020000000005,6.5698705,-1.0577223,1001.2631,1,2
41.72,-7.437843300000001,6.102747,-1.2376268,1001.2428,1,2
41.76,-7.055425,6.1265793,-1.417531,1001.2351,1,2
41.8,-6.759049,5.845351,-1.5500919,1001.2124,1,2
41.84,-6.7733583,5.5402913,-1.5737611,1001.27045,1,2
41.88,-7.557212,5.373461,-1.9809169,1001.2805,1,2
41.92,-8.699544,5.902548,-2.0093195,1001.2602,1,2
41.96,-8.341022500000001,5.287661,-1.0387632,1001.22754,1,2
42.0,-8.044642999999999,5.0779314000000015,-0.603195,1001.2452,1,2
42.04,-8.340956,5.206628,-0.35700279999999995,1001.2552,1,2
42.08,-8.751987,5.511687,-0.44221917,1001.2604,1,2
42.12,-8.331332000000002,6.0407734,-0.21496479,1001.26526,1,2
42.16,-8.5511675,5.5545835,-0.45641613,1001.26526,1,2
42.2,-8.020572999999999,5.6689805999999985,-0.3759279,1001.25287,1,2
42.24,-7.9201755999999985,5.678513,-0.5984429,1001.26526,1,2
42.28,-7.595103699999999,5.8262753,-0.8588309999999999,1001.235,1,2
42.32,-7.7050076,5.3734517,-0.6457799,1001.2527,1,2
42.36,-8.206854,4.772864299999998,-0.37118155,1001.2426,1,2
42.4,-8.484057,4.973058999999999,-0.00663002,1001.2375,1,2
42.44,-8.407536,5.502146,-0.20547087,1001.22974,1,2
42.48,-8.584355,5.2733502,-0.5605483,1001.26263,1,2
42.52,-8.522184,5.0302553,-0.60315484,1001.2602,1,2
42.56,-8.393835000000001,4.9349413,-0.46118727,1001.2477,1,2
42.6,-8.4416275,4.944474,-0.36176425,1001.2478,1,2
42.64,-8.776208,4.8586764,-0.69790655,1001.2402,1,2
42.68,-8.303003,5.2543,-1.0766585,1001.2121,1,2
42.72,-8.49419,5.478328,-1.6021769,1001.24005,1,2
42.76,-8.446387,5.1685023,-1.5264258,1001.2247,1,2
42.8,-7.9970813,5.2018676,-2.6058698,1001.2249,1,2
42.84,-8.12135,5.206633999999998,-3.0224972,1001.2298,1,2
42.88,-7.915814,4.8682089999999985,-3.0745752,1001.21967,1,2
42.92,-7.8393326,5.035038,-3.4580615,1001.23987,1,2
42.96,-8.221712,4.6441803,-3.623765,1001.2199,1,2
43.0,-7.7246074999999985,4.7871766,-3.38231,1001.2373,1,2
43.04,-7.9396935,4.634647,-3.5669513,1001.21716,1,2
43.08,-7.542965,4.672779599999998,-3.334965,1001.2601,1,2
43.12,-7.194033599999999,4.5488486,-3.3018236000000005,1001.24994,1,2
43.16,-7.562074000000001,4.4916496,-3.1834629,1001.23724,1,2
43.2,-7.514271300000001,4.844375,-3.0461648,1001.2398,0,0
43.24,-8.236016000000001,4.6251135,-3.1550555,1001.24005,0,0
43.28,-8.2360115,4.801475,-2.7194903,1001.2272,0,0
43.32,-8.130851,4.701378,-2.4875038,1001.22217,0,0
43.36,-8.083049,4.9301724,-2.5159097000000004,1001.21716,0,0
43.4,-8.030464,4.7442765,-2.733692,1001.22955,0,0
43.44,-8.269451,4.7871757000000015,-2.5395807999999995,1001.227,0,0
43.48,-8.279005,4.7204432,-2.5869243,1001.20685,0,0
43.52,-8.2312,5.044569,-2.6011274,1001.2046,0,0
43.56,-7.920124499999999,4.801465,-2.6484356,1001.2043,0,0
43.6,-8.063498,4.653702,-2.8946228,1001.2043,0,0
43.64,-7.293930499999999,4.911095,-2.648432,1001.1817,0,0
43.68,-8.326347,4.7394986,-3.0981984,1001.2219,0,0
43.72,-7.489861,5.163721,-2.856742,1001.1918,0,0
43.76,-8.163794000000001,4.839595,-2.795193,1001.227,0,0
43.8,-7.986922,4.868194,-2.9324887000000004,1001.24976,0,0
43.84,-8.029921,4.763330000000002,-2.6673603,1001.2169,0,0
43.88,-7.862605999999999,4.896792400000002,-2.7289057,1001.2345,0,0
43.92,-8.187616,4.8872585,-2.2886045,1001.22424,0,0
43.96,-7.967726,5.049321,-2.2743995,1001.22455,0,0
44.0,-7.9199038,4.9396896,-2.6105402,1001.23206,0,0
44.04,-8.149316,4.8681912,-2.6058037,1001.2347,0,0
44.08,-8.134953999999999,4.720427,-2.4921763,1001.20685,0,0
44.12,-8.230534,4.830057599999999,-2.601066,1001.1968,0,0
44.16,-7.475302,4.987354,-2.577392,1001.20935,0,0
44.2,-7.9915032,5.0588512,-2.8235795,1001.2145,0,0
44.24,-8.10142,4.8348227,-2.6531394,1001.22705,0,0
44.28,-8.192217999999999,4.9921190000000015,-2.6057932,1001.222,0,0
44.32,-7.934089699999999,4.739491,-2.1607578,1001.22955,0,0
44.36,-8.340351,4.7156577,-2.1986308,1001.22705,0,0
44.4,-7.8958073,4.887253,-2.5679123,1001.2548,0,0
44.44,-8.163459,4.9349184,-2.747818,1001.2397,0,0
44.48,-8.072617999999999,5.0064160000000015,-2.5537055,1001.23456,0,0
44.52,-8.063039,4.696589,-2.6247196,1001.2498,0,0
44.56,-8.034341,4.7442546,-2.6767964,1001.25226,0,0
44.6,-7.828792999999999,4.9158497,-2.4306056000000003,1001.22955,0,0
44.64,-8.187253,4.577424,-2.6578548,1001.2445,0,0
44.68,-7.9912634,4.9730477,-2.2980385,1001.2445,0,0
44.72,-8.249350999999999,4.7728515,-2.5347567000000004,1001.242,0,0
44.76,-8.402289,4.791918,-2.624709,1001.2596,0,0
44.8,-7.943403,4.9539800000000005,-2.4258618,1001.1813,0,0
44.84,-8.225391,4.7680836,-2.7004552000000004,1001.19147,0,0
44.88,-8.0533,4.796683,-2.5016086,1001.2041,0,0
44.92,-8.124976,4.7394834,-2.5300133,1001.20667,0,0
44.96,-8.593377,4.5345206,-2.5300117,1001.2091,0,0
45.0,-8.163176,4.5774198,-3.0034502,1001.2041,0,0
45.04,-7.7329729999999985,4.8300467000000005,-3.131277,1001.23944,0,0
45.08,-7.613463,5.3543677,-2.3643022,1001.1991,0,0
45.12,-7.1545773,5.82149,-2.5773482000000003,1001.2191,0,0
45.16,-6.7291539999999985,6.0884155999999985,-2.397439,1001.2294,0,0
45.2,-7.240577,5.912053599999999,-2.5110633,1001.2267,0,0
45.24,-7.680300999999999,5.4306307,-2.657828,1001.2015,0,0
45.28,-8.053099000000001,4.9873400000000006,-2.5063245,1001.20135,0,0
45.32,-8.684146,5.092207,-2.3832405,1001.2342,0,0
45.36,-8.521616,5.0493073,-2.0376277,1001.21155,0,0
45.4,-8.354306,5.1923037,-1.7535616000000005,1001.24677,0,0
45.44,-8.225233,5.1589375,-1.625731,1001.2367,0,0
45.48,-8.163081,4.9301424,-1.5783856,1001.21387,0,0
45.52,-7.713763,4.915842,-1.8151042,1001.2291,0,0
45.56,-8.081788000000001,4.872943,-1.8103683,1001.21387,0,0
45.6,-8.062653,5.006406,-2.070759,1001.20636,0,0
45.64,-8.033957000000001,5.0493045,-2.0518196,1001.2114,0,0
45.68,-7.900105,5.144635,-1.9855367,1001.21893,0,0
45.72,-7.8236117,5.2351995,-2.3595529,1001.1988,0,0
45.76,-7.914411,5.2637987,-2.2932699,1001.22394,0,0
45.8,-7.8426967,5.411561,-2.3926907,1001.22894,0,0
45.84,-7.6323724,5.3352957000000005,-2.8755987000000003,1001.20636,0,0
45.88,-7.9621587,5.1970654000000005,-2.875597,1001.2316,0,0
45.92,-7.7327094,5.3066955,-2.0044649,1001.23663,0,0
45.96,-7.555840499999999,5.0445347,-2.4210908,1001.2164,0,0
46.0,-8.181982000000001,4.820506,-2.2695887000000003,1001.1988,0,0
46.04,-8.162841,4.9921017,-1.9097719,1001.22394,0,0
46.08,-7.637049,5.168464,-2.1843662,1001.2492,0,0
46.12,-8.009852,5.301927,-2.5725856,1001.21893,0,0
46.16,-7.8807836,5.235195,-2.6246626,1001.2164,0,0
46.2,-7.9381227,5.359125,-2.1370173,1001.2313,0,0
46.24,-7.880748700000002,5.4067903,-2.1559532000000003,1001.21643,0,0
46.28,-8.024125,5.3257585,-2.2032957000000004,1001.2114,0,0
46.32,-8.302383,5.220919,-1.9429978,1001.2414,0,0
46.36,-7.910462400000001,5.3829823,-2.0566256000000003,1001.1934,0,0
46.4,-7.8483505,5.2638197,-1.7062819,1001.2035,0,0
46.44,-7.580698,5.4592485,-1.7962371,1001.21375,0,0
46.48,-7.618961,5.5355144,-2.5253377,1001.2263,0,0
46.52,-8.154328999999999,5.59748,-2.2081356,1001.2161,0,0
46.56,-7.70027,5.4878497,-2.1844654,1001.2262,0,0
46.6,-7.3322463,5.497383599999999,-2.354906,1001.2086,0,0
46.64,-8.183079,5.2256904,-2.1750011,1001.2111,0,0
46.68,-7.9441104,5.344855,-2.4827392,1001.2161,0,0
46.72,-7.853314,5.168493,-2.9798536,1001.23627,0,0
46.76,-7.6191309999999985,5.0588627,-2.279164,1001.2212,0,0
46.8,-7.6669545,5.2399926,-1.957227,1001.2263,0,0
46.84,-7.877289,5.1684947,-2.6011083,1001.2287,0,0
46.88,-8.345732,5.1208296,-2.3359838,1001.23895,0,0
46.92,-7.996832,5.1398964000000005,-2.1418755000000003,1001.254,0,0
46.96,-7.9060397,5.1875625,-2.3265193,1001.2289,0,0
47.0,-7.9681997,5.116065,-2.4117405,1001.2289,0,0
47.04,-7.968224,5.1684975999999985,-2.4685557,1001.2289,0,0
47.08,-7.9156685,5.201864,-2.5490427,1001.2237,0,0
47.12,-7.8344364,5.220931,-2.3738718,1001.22363,0,0
47.16,-7.762763,5.182799299999999,-2.5206406,1001.254,0,0
47.2,-7.514237400000002,5.3829947,-2.7147534,1001.22107,0,0
47.24,-8.0018015,5.1542010000000005,-2.2744560000000003,1001.2413,0,0
47.28,-7.997046000000001,5.149435,-2.4070218,1001.25146,0,0
47.32,-7.800231,5.096982,-2.1796932,1001.25635,0,0
47.36,-7.934056299999999,5.149414,-2.1512856,1001.2387,0,0
47.4,-8.130017,5.297177,-2.0234556,1001.2412,0,0
47.44,-7.738064,5.4354067000000015,-2.2128313,1001.2438,0,0
47.48,-7.7715130000000014,5.4592395,-2.3927374,1001.24896,0,0
47.52,-7.9053369999999985,5.306709,-2.4400806,1001.22107,0,0
47.56,-7.824069500000001,5.154179,-2.340657,1001.2591,0,0
47.6,-7.8957570000000015,5.235211,-2.0518577,1001.2287,0,0
47.64,-8.239894999999999,5.120813,-1.853012,1001.2339,0,0
47.68,-8.048691,5.1351123,-1.9855744,1001.2263,0,0
47.72,-7.9483047,5.211377,-2.6105146,1001.2364,0,0
47.76,-8.015212,5.2542753,-2.496888,1001.20105,0,0
47.8,-7.699735,5.5355024,-2.3690584,1001.2186,0,0
47.84,-7.355579400000001,5.578401,-2.5631678,1001.20605,0,0
47.88,-7.685376,5.5259686,-2.1560082,1001.2339,0,0
47.92,-7.7666225,5.354373000000002,-1.9382246,1001.2513,0,0
47.96,-8.077301,5.2590413,-1.9903022,1001.2185,0,0
48.0,-8.254143,5.1112769999999985,-1.9429573,1001.2136,0,0
48.04,-7.9673443,5.1398764,-2.0423787,1001.2487,0,0
48.08,-8.182426,4.96828,-2.359583,1001.2263,0,0
48.12,-8.005562,5.3400717,-2.567896,1001.2237,0,0
48.16,-7.800021000000001,5.149409,-2.5300198,1001.2286,0,0
48.2,-7.766553,5.158942,-2.2080793,1001.2237,0,0
48.24,-8.230183,5.1589417,-1.8908732,1001.23865,0,0
48.28,-8.31143,5.1065097,-1.1475708,1001.23615,0,0
48.32,-7.8807573,5.354358,-1.7203887999999998,1001.2287,0,0
48.36,-7.861609,5.3877234000000005,-2.103873,1001.2438,0,0
48.4,-7.909378,5.492586599999999,-2.3737311,1001.2389,0,0
48.44,-7.584325,5.549785,-2.1843526,1001.23615,0,0
48.48,-7.837623599999999,5.378188,-2.1322715,1001.24896,0,0
48.52,-7.880614,5.3734207000000005,-2.1985505,1001.20605,0,0
48.56,-7.8184485,5.354354,-1.9428902,1001.26404,0,0
48.6,-7.7180433000000015,5.440151,-2.3169055,1001.206,0,0
48.64,-7.9522247,5.5211825,-2.354778,1001.2364,0,0
48.68,-7.493334,5.3591185,-2.6056988,1001.2337,0,0
48.72,-7.665378,5.306685400000001,-2.5394146,1001.2261,0,0
48.76,-7.7466073,5.225653,-2.3121605,1001.2313,0,0
48.8,-7.7800364,5.092189,-2.2127354,1001.196,0,0
48.84,-8.042896,5.301917,-2.4636560000000003,1001.2337,0,0
48.88,-7.8994746,5.3781815,-2.3547626,1001.23615,0,0
48.92,-7.8468703999999985,5.807171,-2.2600717999999995,1001.2212,0,0
48.96,-7.865959599999999,6.055031,-2.0517554,1001.2339,0,0
49.0,-7.206318,6.002598,-1.8907828,1001.2362,0,0
49.04,-7.201509,5.649872,-2.136969,1001.2237,0,0
49.08,-8.186121,5.1589160000000005,-2.0186067,1001.2488,0,0
49.12,-8.12396,5.2542467,-1.8813069,1001.2238,0,0
49.16,-7.8944936,5.2876115,-1.8671,1001.2288,0,0
49.2,-7.774971000000002,5.1970468,-2.023333,1001.2591,0,0
49.24,-8.358077,5.225645,-1.8765639,1001.2362,0,0
49.28,-8.300692,5.2018113,-1.9523118,1001.2412,0,0
49.32,-8.056891,5.268542299999999,-1.7203231,1001.2238,0,0
49.36,-7.483288000000001,5.3352737,-1.8102744,1001.206,0,0
49.4,-8.205009,5.0206800000000005,-1.7108491999999995,1001.2463,0,0
49.44,-8.276676,4.9348817,-1.8102691,1001.216,0,0
49.48,-8.190611,5.0778775000000005,-1.9475641,1001.21375,0,0
49.52,-7.98983,5.492567,-1.9664991000000005,1001.2388,0,0
49.56,-7.698237,5.4115353,-2.2410922,1001.2488,0,0
49.6,-7.827260499999999,4.9253454,-2.7003267,1001.23615,0,0
49.64,-8.281314,4.591686,-2.0659137,1001.23895,0,0
49.68,-8.233487,4.5106535,-1.9664887,1001.24896,0,0
49.72,-8.295595,4.8729115,-1.8812668,1001.2666,0,0
49.76,-8.520218,4.9205766,-1.8481233,1001.25653,0,0
49.8,-7.769759,5.320966,-1.9096678,1001.2313,0,0
49.84,-7.850989999999999,5.2780666,-2.6245606,1001.24396,0,0
49.88,-8.438873,5.0921699999999985,-2.1037734,1001.2261,0,0
49.92,-7.965647,4.8586082,-2.2031932,1001.2289,0,0
49.96,-8.225394,4.8109827,-1.9855605,1001.2287,0,0
50.0,-8.306661,4.4153585,-1.9240141,1001.2186,0,0
50.04,-8.225416000000001,4.8443494000000005,-1.9997658,1001.21625,0,0
50.08,-8.039015,4.7680845000000005,-2.364316,1001.2212,0,0
50.12,-8.082044999999999,4.934914599999999,-2.0944557,1001.25653,0,0
50.16,-8.039038,4.7204194,-2.0944567,1001.2364,0,0
50.2,-8.287599,5.2399745000000015,-1.9476916,1001.2339,0,0
50.24,-7.857428,5.3639054,-2.2033503,1001.2591,0,0
50.28,-8.665225,4.6679879999999985,-2.1039288,1001.2439,0,0
50.32,-8.459703999999999,4.5059257000000015,-2.165477,1001.2262,0,0
50.36,-8.082112,4.9778147000000015,-1.9571644,1001.23914,0,0
50.4,-7.6662807,5.2352095,-1.9713684,1001.2414,0,0
50.44,-8.139491,5.459238,-1.8908848000000005,1001.2237,0,0
50.48,-8.082146,5.20661,-2.1844187,1001.24396,0,0
50.52,-8.125175,4.9873495000000005,-2.4258747000000005,1001.2518,0,0
50.56,-7.9053164,4.80622,-2.2412338,1001.21375,0,0
50.6,-8.077401,5.087447,-2.1418126,1001.20605,0,0
50.64,-7.819303,5.3162427,-2.1654854,1001.23914,0,0
50.68,-7.9483685,5.0397824999999985,-2.2554402,1001.2188,0,0
50.72,-8.058314999999999,4.887253,-2.2412379,1001.2238,0,0
50.76,-7.938832,4.9921174000000015,-2.2791142000000004,1001.22394,0,0
50.8,-8.005759,5.03025,-2.1749582000000003,1001.22394,0,0
50.84,-8.24954,5.4115753,-2.4116795,1001.22894,0,0
50.88,-8.039241,5.2447457,-2.1323507,1001.23663,0,0
50.92,-7.843281,5.096983,-2.3690722,1001.21893,0,0
50.96,-8.115203,4.787143,-2.4542432,1001.23145,0,0
51.0,-7.938339999999997,4.9444394,-2.3216786,1001.234,0,0
51.04,-7.804496,5.1446347,-2.2838027000000003,1001.23914,0,0
51.08,-7.828385000000001,5.3781962,-2.4068966,1001.2316,0,0
51.12,-7.880953,5.325764,-2.316942,1001.2189,0,0
51.16,-8.096033,5.235199,-2.2080495,1001.2189,0,0
51.2,-7.909611999999999,5.206599,-1.9855317,1001.2291,0,0
51.24,-8.000419,5.1160345000000005,-2.1701725,1001.2316,0,0
51.28,-7.957389999999997,5.1112676,-2.2317188,1001.2265,0,0
51.32,-7.9287004,5.2685637000000005,-2.5394542,1001.2265,0,0
51.36,-8.129442,5.1779985,-1.7156668999999998,1001.23175,0,0
51.4,-7.5988746,5.606989,-2.1370277,1001.1837,0,0
51.44,-8.076844,5.3591275000000005,-2.0518079,1001.22394,0,0
51.48,-7.976458999999997,5.707086,-2.0849478,1001.2646,0,0
51.52,-7.9286504,5.3209944,-2.307464,1001.2496,0,0
51.56,-8.086374000000001,4.9444360000000005,-2.212775,1001.21405,0,0
51.6,-8.081584,4.6441426,-2.028132,1001.2521,0,0
51.64,-8.334903,4.9825683,-1.5878313999999998,1001.23926,0,0
51.68,-7.7183,5.001633999999999,-2.4826329,1001.2343,0,0
51.72,-8.535636,5.158931,-1.7961433999999998,1001.1862,0,0
51.76,-7.4075929999999985,5.778582599999999,-2.6625388,1001.2317,0,0
51.8,-7.842544599999999,5.5545545,-2.3642702,1001.262,0,0
51.84,-8.024166000000001,4.896769,-2.3690038,1001.21906,0,0
51.88,-8.210569,4.8729362,-1.9239688,1001.247,0,0
51.92,-7.7994957,4.9396677,-1.8387486,1001.21674,0,0
51.96,-8.230361,5.00165,-1.9050927,1001.2571,0,0
52.0,-8.158682,5.054082,-2.0329232,1001.20667,0,0
52.04,-7.8527937,5.2161455000000005,-2.2791142000000004,1001.2217,0,0
52.08,-8.1491585,5.1780133,-2.2885842,1001.2319,0,0
52.12,-8.220873,5.0540833,-1.8293487,1001.22186,0,0
52.16,-7.9675617,5.0779166,-2.0234609,1001.1965,0,0
52.2,-8.254366000000001,4.939687,-2.3264647000000003,1001.2597,0,0
52.24,-7.9914937,5.011186,-2.0045266,1001.2294,0,0
52.28,-7.977172,5.0636187,-1.9193088,1001.27997,0,0
52.32,-8.001089,5.0016537,-1.9571856,1001.2623,0,0
52.36,-8.106263,5.1160517,-2.023469,1001.25226,0,0
52.4,-8.096719,4.9063234000000016,-2.1749713,1001.2798,0,0
52.44,-8.52214,4.8443584,-1.6352508999999995,1001.23456,0,0
52.48,-8.330964999999999,4.563132,-1.8625041,1001.2194,0,0
52.52,-8.264064999999999,5.006422,-1.8719745,1001.24725,0,0
52.56,-7.9008174,4.9110913,-1.791491,1001.24475,0,0
52.6,-8.101587,4.9301580000000005,-1.8719776,1001.2649,0,0
52.64,-8.417069999999999,4.844361,-2.018746,1001.24475,0,0
52.68,-8.560478999999999,4.863427,-1.3180552,1001.22705,0,0
52.72,-8.044281,4.872961,-2.0802963,1001.27747,0,0
52.76,-8.28329,4.6012673,-2.0755634,1001.2724,0,0
52.8,-8.517517999999999,4.744264,-2.2554724,1001.2142,0,0
52.84,-8.202067,4.7823973,-1.7915023999999995,1001.2119,0,0
52.88,-8.312021000000001,4.567903,-1.9430048,1001.2219,0,0
52.92,-8.331159,4.625102,-1.9335378,1001.217,0,0
52.96,-8.407021,4.696585,-1.9382159,1001.22705,0,0
53.0,-8.440471,4.7537837,-2.0092313,1001.23706,0,0
53.04,-8.058081,4.8967805,-2.2790916,1001.227,0,0
53.08,-8.459577000000001,4.496389,-1.8814012,1001.23206,0,0
53.12,-8.244477,4.658452,-2.0044951,1001.2524,0,0
53.16,-8.387864,4.601253,-1.8671964,1001.2421,0,0
53.2,-8.254023,4.7633160000000005,-2.0092278,1001.25494,0,0
53.24,-8.263575999999999,4.6822844,-1.9429456000000005,1001.2169,0,0
53.28,-8.292247,4.6441517,-2.1891341,1001.2449,0,0
53.32,-8.459531,4.677517400000001,-1.9571472,1001.2423,0,0
53.36,-8.2157545,4.6250854000000015,-2.0660381,1001.26245,0,0
53.4,-8.435617,4.6155515,-2.1843975,1001.25995,0,0
53.44,-8.172721000000001,4.625085,-2.1796622,1001.23724,0,0
53.48,-8.392585,4.667983,-2.217537,1001.2423,0,0
53.52,-8.129686999999999,4.682283,-2.1985986,1001.2474,0,0
53.56,-8.387789,4.539286,-2.1701915,1001.27026,0,0
53.6,-8.349542999999999,4.524986,-2.0565653000000004,1001.24506,0,0
53.64,-8.273059,4.64415,-2.0707676,1001.2425,0,0
53.68,-8.234813,4.7013483,-2.236471,1001.27783,0,0
53.72,-8.35908,4.7013483,-2.2459393,1001.26245,0,0
53.76,-8.3351755,4.5488186,-1.95714,1001.2474,0,0
53.8,-8.277807000000001,4.5345182,-1.8671854,1001.2375,0,0
53.84,-8.425975,4.6155496,-1.9618729,1001.2425,0,0
53.88,-8.483326,4.868176999999998,-2.1181076,1001.2524,0,0
53.92,-8.397281,4.7013474,-2.0565596,1001.27795,0,0
53.96,-8.312114999999999,4.6489367,-2.170265,1001.2299,0,0
54.0,-8.407745,4.3629440000000015,-2.0708456,1001.2476,0,0
54.04,-8.446010000000001,4.5869727,-2.0850513,1001.2755,0,0
54.08,-8.092332,4.701371,-2.066116,1001.27045,0,0
54.12,-8.259644999999999,4.75857,-2.3075726000000003,1001.2755,0,0
54.16,-8.202314999999999,4.644173,-1.9809012,1001.26276,0,0
54.2,-8.417442,4.839603,-2.1655462000000005,1001.2554,0,0
54.24,-8.364889,4.734739299999998,-2.0945325,1001.2654,0,0
54.28,-8.360137,4.5679110000000005,-2.2318327,1001.2402,0,0
54.32,-8.173752,4.4106144999999986,-2.1040063,1001.2602,0,0
54.36,-8.278936999999999,4.620344599999999,-2.1797597,1001.26276,0,0
54.4,-8.221602,4.83484,-2.1892304,1001.2501,0,0
54.44,-8.183392999999999,4.9397044,-2.3549373,1001.2478,0,0
54.48,-8.2837925,4.5965137,-2.165563,1001.27545,0,0
54.52,-8.317278,4.672779,-2.2460504,1001.25256,0,0
54.56,-8.183473,4.5965147,-2.4117572,1001.27045,0,0
54.6,-8.307780000000001,4.677547,-2.3123376,1001.23254,0,0
54.64,-8.240884,4.8205442000000005,-2.2223861,1001.2375,0,0
54.68,-8.073625,4.8777432,-2.2839365000000003,1001.2577,0,0
54.72,-8.183588,4.7442803,-2.283939,1001.2476,0,0
54.76,-8.288768,4.6537166,-2.2129252,1001.2552,0,0
54.8,-8.24578,4.8348464999999985,-2.212928,1001.28815,0,0
54.84,-8.20279,4.8539133,-2.2223992000000004,1001.26276,0,0
54.88,-8.360545,4.5250216,-2.2934172000000004,1001.2453,0,0
54.92,-8.140707,4.758584,-2.265014,1001.27545,0,0
54.96,-8.264346000000002,4.782401,-2.444863,1001.26276,0,0
55.0,-8.259568,4.9444637,-2.1844711,1001.2552,0,0
55.04,-8.049258,5.039795400000001,-2.2176118,1001.22754,0,0
55.08,-8.297808999999999,4.901565,-2.3643787,1001.2501,0,0
55.12,-8.288250999999999,4.7776346,-2.2223465,1001.2552,0,0
55.16,-8.431646,4.586972,-2.2791598,1001.273,0,0
55.2,-8.489005,4.6870699999999985,-2.1655338,1001.2629,0,0
55.24,-8.584602,4.872966,-2.3265038,1001.26526,0,0
55.28,-8.278696,5.0779276,-2.2933630000000003,1001.2327,0,0
55.32,-8.512908,4.8634324,-2.3501763,1001.2602,0,0
55.36,-8.350394999999999,4.9587636,-2.1797378,1001.2604,0,0
55.4,-8.398195,4.892032,-2.5111463,1001.2629,0,0
55.44,-8.431655000000001,4.8491335,-2.5726933,1001.278,0,0
55.48,-8.598949000000001,4.710903,-2.4401302000000005,1001.2477,0,0
55.52,-8.489015,5.015963,-2.2318165,1001.2477,0,0
55.56,-8.393421,5.192325,-2.4259272000000003,1001.2476,0,0
55.6,-8.579833,5.1589594000000005,-2.5016778,1001.24506,0,0
55.64,-8.680211,4.973064,-2.4022553,1001.2553,0,0
55.68,-8.637193,4.8872657,-2.440131,1001.2502,0,0
55.72,-8.412544,4.8396,-2.2933642999999995,1001.2553,0,0
55.76,-8.852286999999997,4.8777328,-2.5490224,1001.25775,0,0
55.8,-8.680216,4.9778304,-2.298099,1001.2503,0,0
55.84,-8.8953085,4.949231,-2.4874754,1001.2225,0,0
55.88,-8.613301,5.1255937000000005,-2.3975217,1001.2604,1,3
55.92,-8.833174,5.035029,-2.5632262000000003,1001.26276,1,3
55.96,-8.613714,5.0874715,-2.321809,1001.2274,1,3
56.0,-8.933978,4.930176,-2.596406,1001.2427,1,3
56.04,-8.594629,5.0159736,-2.4401724,1001.2301,1,3
56.08,-8.718923,4.9349427000000015,-2.4685802000000003,1001.1999,1,3
56.12,-8.6759205,4.973076,-2.3928316,1001.2174,1,3
56.16,-8.948388000000003,4.8682120000000015,-2.4922557,1001.20734,1,3
56.2,-8.642497,5.12084,-2.4354444,1001.2502,1,3
56.24,-8.77635,4.915878299999998,-2.506462,1001.20715,1,3
56.28,-8.719009,4.8682137,-2.359697,1001.2122,1,3
56.32,-8.671228,4.8872800000000005,-2.3833706,1001.2097,1,3
56.36,-8.81942,4.9778449999999985,-2.5112014,1001.20984,1,3
56.4,-8.809877,4.9301796,-2.5301404,1001.2172,1,3
56.44,-8.695181,4.9111137000000005,-2.4117818,1001.2225,1,3
56.48,-8.809913,4.911114,-2.4543931,1001.1745,1,3
56.52,-8.881627,4.9349475,-2.4259884,1001.167,1,3
56.56,-8.824287,4.8872824,-2.577491,1001.21747,1,3
56.6,-8.747824000000001,4.9111156,-2.5112107000000004,1001.1795,1,3
56.64,-8.776524,4.934949,-2.4922748,1001.20215,1,3
56.68,-8.690505,4.892050299999998,-2.3549788,1001.1997,1,3
56.72,-8.867374,4.7681203000000005,-2.5301533,1001.187,1,3
56.76,-8.489788,4.8300858,-2.3455129,1001.16943,1,3
56.8,-8.838731,4.644191,-2.430734,1001.17194,1,3
56.84,-8.504163,4.8157873,-2.4828138,1001.19965,1,3
56.88,-8.78619,4.6584907,-2.591707,1001.1594,1,3
56.92,-8.604572000000001,4.7633557,-2.506489,1001.15436,1,3
56.96,-8.43651,4.7919364,-2.4874809,1001.1641,1,3
57.0,-8.503411999999999,4.763337,-2.468542,1001.13916,1,3
57.04,-8.498619,4.6346393,-2.7005267,1001.15155,1,3
57.08,-8.45081,4.749036,-2.5111496,1001.1288,1,3
57.12,-8.426894,4.7824019999999985,-2.5253513,1001.11896,1,3
57.16,-8.350404,4.7585690000000005,-2.5442874,1001.12396,1,3
57.2,-8.4268675,4.606038,-2.4874735,1001.11646,1,3
57.24,-8.441193,4.5822053,-2.563223,1001.1088,1,3
57.28,-8.422063,4.5726724,-2.5442843,1001.09357,1,3
57.32,-8.355132000000001,4.725201599999999,-2.6152990000000003,1001.1011,1,3
57.36,-8.221283999999999,4.6155705000000005,-2.6579072,1001.10114,1,3
57.4,-8.216488,4.558371,-2.530077,1001.0811,1,3
57.44,-8.235593,4.4582734,-2.6342325,1001.0935,1,3
57.48,-8.259477,4.567904,-2.634231,1001.0859,1,3
57.52,-8.302484,4.639402,-2.5300732000000004,1001.0758,1,3
57.56,-8.05392,4.7204328,-2.5821502,1001.0935,1,3
57.6,-8.245096,4.6298676,-2.5963523,1001.08344,1,3
57.64,-7.953516,4.4964037,-2.5348036,1001.0708,1,3
57.68,-8.235514,4.448738,-2.6294909,1001.0683,1,3
57.72,-8.307197,4.458271,-2.5774112,1001.05566,1,3
57.76,-8.159006,4.858661,-2.6294880000000003,1001.0355,1,3
57.8,-8.029939,4.868194,-2.5253298,1001.0356,1,3
57.84,-8.077725,4.782396,-2.5868762000000003,1001.0811,1,3
57.88,-7.9964523,4.5488339999999985,-2.520593,1001.0356,1,3
57.92,-8.249767,4.7013636,-2.6247485,1001.0431,1,3
57.96,-8.192993,4.7204440000000005,-2.5774581000000003,1001.03046,1,3
58.0,-8.154766,4.7824097000000005,-2.5348492,1001.00775,1,3
58.04,-8.063958999999999,4.915873,-2.5585222,1001.06067,1,3
58.08,-8.145227,4.739511,-2.496976,1001.038,1,3
58.12,-8.116558,4.7538114,-2.4591017,1001.0381,1,3
58.16,-8.355557000000001,4.596515,-2.5585248,1001.02277,1,3
58.2,-8.173935,4.8300767,-2.4543688,1001.0204,1,3
58.24,-8.07357,4.7204456,-2.629543,1001.0429,1,3
58.28,-8.164396,4.5774493,-2.5301213,1000.995,1,3
58.32,-8.212204,4.4678187000000005,-2.5727317000000003,1000.9825,1,3
58.36,-8.040141,4.801478,-2.496982,1000.98975,1,3
58.4,-8.197885000000001,4.6680145,-2.5348585,1000.9799,1,3
58.44,-8.350849,4.777646,-2.6958292,1000.9799,1,3
58.48,-8.025831,4.648949,-2.563267,1000.9545,1,3
58.52,-8.107099,4.5965176,-2.520658,1000.9647,1,3
58.56,-8.044971,4.591750599999999,-2.5537999,1000.94714,1,3
58.6,-8.317428999999999,4.596518,-2.5064566000000004,1000.9647,1,3
58.64,-8.035430999999999,4.8014793,-2.5159261,1000.93427,1,3
58.68,-8.250532000000002,4.691849,-2.5632713,1000.9724,1,3
58.72,-8.29834,4.5869849999999985,-2.5538034,1000.9647,1,3
58.76,-8.217094,4.7395153,-2.6011486,1000.92944,1,3
58.8,-8.111948,4.710916,-2.5585396,1000.93695,1,3
58.84,-8.126297000000001,4.6203523,-2.506462,1000.93695,1,3
58.88,-8.274483,4.448756,-2.4733224,1000.90924,1,3
58.92,-8.331847999999999,4.515488,-2.4212446,1000.9091,1,3
58.96,-8.307014,4.6727614,-2.5347848,1000.9194,1,3
59.0,-8.34045,4.758559,-2.539517,1000.91437,1,3
59.04,-8.125326,4.5488296,-2.397482,1000.9267,1,3
59.08,-8.192217999999999,4.544062599999998,-2.4590268,1000.89136,1,3
59.12,-8.2065325,4.4534974,-2.3643365000000003,1000.8992,1,3
59.16,-8.292541,4.6155596,-2.5442414,1000.894,1,3
59.2,-8.177796,4.7061234,-2.454285,1000.88403,1,3
59.24,-8.254245,4.6107917,-2.463751,1000.8968,1,3
59.28,-8.149061999999999,4.606024,-2.4637485,1000.8891,1,3
59.32,-8.134692,4.577424,-2.558434,1000.8763,1,3
59.36,-8.282842,4.515459,-2.6105103,1000.8787,1,3
59.4,-8.235016,4.606022,-2.6341798,1000.8688,1,3
59.44,-8.230207,4.463025599999999,-2.6057706,1000.8687,1,3
59.48,-8.058116,4.5726557,-2.6341755,1000.8687,1,3
59.52,-8.421346,4.405825,-2.5915625,1000.8485,1,3
59.56,-8.005475,4.663218,-2.605763,1000.8079,1,3
59.6,-8.2635565,4.620319,-2.795137,1000.8208,1,3
59.64,-8.124914,4.5488195,-2.6436331,1000.83093,1,3
59.68,-8.177464500000001,4.52022,-2.7430532000000003,1000.83093,1,3
59.72,-8.100961999999999,4.558351,-2.5394714,1000.8335,1,3
59.76,-8.287348,4.458253,-2.7477827,1000.8282,1,3
59.8,-8.110467,4.6298485000000005,-2.5773416,1000.813,1,3
59.84,-8.282511999999999,4.5154505,-2.6341522,1000.8208,1,3
59.88,-8.253805,4.6584463,-2.496851700000001,1000.8004,1,3
59.92,-8.043467,4.5917134000000015,-2.6578188,1000.78784,1,3
59.96,-8.220796,4.5631260000000005,-2.4921584,1000.80804,1,3
60.0,-8.2064495,4.5583596,-2.5205643,1000.7752,1,3
60.04,-8.297257,4.6060243,-2.5915794,1000.7852,1,3
60.08,-8.163416999999999,4.7061224,-2.534766,1000.7777,1,3
60.12,-8.168188,4.706122,-2.6531258,1000.7803,1,3
60.16,-8.196860000000001,4.6679893,-2.5016239,1000.7725,1,3
60.2,-8.239871,4.5917244,-2.4968886,1000.76514,1,3
60.24,-8.177726,4.620324,-2.506357,1000.75494,1,3
60.28,-8.201616,4.558358,-2.5679033,1000.73987,1,3
60.32,-8.18249,4.591724,-2.4921522,1000.7777,1,3
60.36,-8.206382000000001,4.577424,-2.54423,1000.75494,1,3
60.4,-8.297191,4.6679883,-2.449541,1000.7499,1,3
60.44,-8.168128,4.7490196,-2.5442286,1000.75006,1,3
60.48,-8.062964,4.5631237,-2.5300248,1000.73474,1,3
60.52,-8.086857,4.420127,-2.5110867000000003,1000.72723,1,3
60.56,-8.30672,4.4773254,-2.4732106,1000.73737,1,3
60.6,-8.321052,4.56789,-2.5489604,1000.712,1,3
60.64,-8.263686,4.739486,-2.7004607000000003,1000.72723,1,3
60.68,-8.196763,4.5726559999999985,-2.6010375,1000.71716,1,3
60.72,-8.120277999999999,4.644154,-2.440067,1000.6765,1,3
60.76,-8.062911999999999,4.5345235,-2.3879879,1000.7096,1,3
60.8,-8.321014,4.5249896,-2.6389105,1000.6842,1,3
60.84,-8.526539,4.3676934,-2.6010346,1000.66925,1,3
60.88,-8.105908,4.6250873,-2.39272,1000.65393,1,3
60.92,-8.153699000000001,4.539289,-2.596299,1000.6843,1,3
60.96,-8.172842999999999,4.6584535,-2.6625829,1000.69183,1,3
61.0,-8.029442,4.6155542999999986,-2.6294413,1000.65155,1,3
61.04,-8.249305999999999,4.51069,-2.6010344,1000.679,1,3
61.08,-8.416594,4.3772264000000005,-2.5016112,1000.6466,1,3
61.12,-8.211056,4.596488,-2.6199708,1000.6793,1,3
61.16,-8.273188000000001,4.5726547,-2.6815176,1000.6567,1,3
61.2,-8.081988,4.749017,-2.530016,1000.6564,1,3
61.24,-8.182359,4.5249887000000015,-2.5489533,1000.63367,1,3
61.28,-8.277947,4.567888,-2.5016084,1000.6438,1,3
61.32,-8.168006,4.6632185,-2.619968,1000.62616,1,3
61.36,-8.311394,4.7299504,-2.496873,1000.62366,1,3
61.4,-8.120196,4.6536856,-2.5915604,1000.62366,1,3
61.44,-8.191887,4.6155524,-2.5252783,1000.6287,1,3
61.48,-8.139302,4.610786,-2.4684646,1000.62604,1,3
61.52,-8.196653999999999,4.5249877,-2.605762,1000.61865,1,3
61.56,-8.277904,4.606019,-2.5678859,1000.60596,1,3
61.6,-8.144064,4.720416,-2.5442135,1000.5983,1,3
61.64,-8.363928,4.5488205000000015,-2.5394785,1000.6237,1,3
61.68,-8.210969,4.6918163,-2.5016026,1000.5883,1,3
61.72,-8.038889,4.749015,-2.4873989,1000.5934,1,3
61.76,-8.1105795,4.872946,-2.43532,1000.5858,1,3
61.8,-8.253967999999999,4.38199,-2.6341646,1000.6009,1,3
61.84,-8.531189,4.267593,-2.5489445,1000.58075,1,3
61.88,-8.282634,4.567886,-2.6294289,1000.59326,1,3
61.92,-7.9145827,4.820513,-2.5489433,1000.57324,1,3
61.96,-8.172308000000001,4.5821757000000005,-2.6151898,1000.563,1,3
62.0,-8.129268,4.5869412,-2.4968276,1000.5705,1,3
62.04,-8.267861,4.439178,-2.4968255,1000.57324,1,3
62.08,-8.344319,4.634606400000001,-2.5867777000000003,1000.5479,1,3
62.12,-8.277378,4.7251699999999985,-2.5489004,1000.5227,1,3
62.16,-8.167422,4.8014345,-2.5252264,1000.53784,1,3
62.2,-8.000109,4.572639499999998,-2.5678341,1000.5352,1,3
62.24,-8.210398,4.6060047,-2.5062847,1000.54034,1,3
62.28,-8.219935000000001,4.5440392,-2.624643,1000.53784,1,3
62.32,-8.100419,4.7728333,-2.4305305,1000.53265,1,3
62.36,-8.167316,4.6727347,-2.6199048,1000.5328,1,3
62.4,-8.086039,4.715634,-2.4731362,1000.5352,1,3
62.44,-8.172052,4.6870337,-2.5204782000000003,1000.51263,1,3
62.48,-8.071655999999999,4.7537645999999985,-2.4968042,1000.52527,1,3
62.52,-8.367982000000001,4.715632,-2.5204742,1000.5051,1,3
62.56,-8.085954,4.796663,-2.5820198,1000.5479,1,3
62.6,-8.047694,4.6536655,-2.5204709,1000.50006,1,3
62.64,-7.980755,4.6298323,-2.5062654,1000.49506,1,3
62.68,-8.057213,4.405803700000001,-2.4636538,1000.48224,1,3
62.72,-7.9902725,4.5202003,-2.4825897,1000.48224,1,3
62.76,-8.052389,4.5059004,-2.6435575,1000.49756,1,3
62.8,-7.9902289999999985,4.6536627,-2.6435554,1000.51263,1,3
62.84,-7.9663105,4.4153347,-2.5962095,1000.4773,1,3
62.88,-7.904151,4.553564,-2.5062537,1000.457,1,3
62.92,-7.961487299999999,4.505898,-2.5535958,1000.4672,1,3
62.96,-7.9421883,4.429629,-2.51097,1000.4622,1,3
63.0,-7.913483599999997,4.2770980000000005,-2.44942,1000.43195,1,3
63.04,-7.913455499999999,4.3152300000000015,-2.5961843,1000.4823,1,3
63.08,-7.784373299999999,4.343828,-2.5867127999999995,1000.41675,1,3
63.12,-7.9803175999999985,4.2675633,-2.5583038,1000.4394,1,3
63.16,-7.7317414000000015,4.4534583,-2.5109575,1000.4495,1,3
63.2,-7.870327499999997,4.238962,-2.6813934,1000.4471,1,3
63.24,-7.7699237,4.281861,-2.4778116000000003,1000.4243,1,3
63.28,-7.817694,4.1293306,-2.5914345,1000.442,1,3
63.32,-7.6742735,4.3104587,-2.5156817000000005,1000.41174,1,3
63.36,-7.779403,4.2294269999999985,-2.5866954,1000.4017,1,3
63.4,-7.5451646,4.186527,-2.3547072,1000.3915,1,3
63.44,-7.6168323,4.129328,-2.477799,1000.41925,1,3
63.48,-7.8079987000000015,4.029229,-2.4067805,1000.4092,1,3
63.52,-7.717153999999999,4.134093,-2.468325,1000.3891,1,3
63.56,-7.693229,4.358120400000002,-2.506198,1000.3739,1,3
63.6,-7.717100599999997,4.1865234,-2.548805,1000.384,1,3
63.64,-7.798331,4.2008224,-2.4541144,1000.3966,1,3
63.68,-7.7313857000000015,4.381951,-2.5677376,1000.3841,1,3
63.72,-7.583182000000001,4.3581176,-2.5251253,1000.374,1,3
63.76,-7.554477,4.09119,-2.3120747,1000.3513,1,3
63.8,-7.669164,4.148388,-2.4209635,1000.3235,1,3
63.84,-7.7408333,4.1865196000000005,-2.586665,1000.3765,1,3
63.88,-7.783824000000001,4.2532505999999985,-2.4020207,1000.3539,1,3
63.92,-7.645181699999997,4.386714,-2.435159,1000.3461,1,3
63.96,-7.7007949999999985,4.501185400000002,-2.5111876,1000.3285,1,3
64.0,-7.519252000000002,4.2723927,-2.4591174,1000.3386,1,3
64.04,-7.720099,4.3009944,-2.3881097,1000.33875,1,3
64.08,-7.686729400000001,4.267631,-2.4259932,1000.3539,1,3
64.12,-7.7393966,4.4630623,-2.586971,1000.3943,1,3
64.16,-7.715598,4.377266400000001,-2.4354794,1000.3336,1,3
64.2,-7.6965685,4.491666,-2.2508457,1000.34125,1,3
64.24,-7.873516,4.353438,-2.373949,1000.3563,1,3
64.28,-8.060018,4.3200746,-2.43077,1000.33606,1,3
64.32,-7.9215045,4.544105,-2.5775456,1000.3134,1,3
64.36,-7.768646,4.6060724,-2.4355226,1000.3461,1,3
64.4,-7.983826,4.5536427,-2.6012347,1000.3563,1,3
64.44,-7.7640505000000015,4.529813,-2.3881953,1000.3436,1,3
64.48,-7.9123197,4.544114,-2.5586424,1000.3311,1,3
64.52,-7.984106,4.582249,-2.5018377,1000.33606,1,3
64.56,-7.955522500000002,4.744314,-2.5302532,1000.3286,1,3
64.6,-7.9173784,4.6251526,-2.5586681,1000.331,1,3
64.64,-7.917467599999997,4.677587,-2.5208008,1000.32855,1,3
64.68,-8.084856,4.4440284000000005,-2.3077614,1000.3539,1,3
64.72,-8.199667,4.553661,-2.6060376,1000.33887,1,3
64.76,-7.9464254,4.749092,-2.6723275,1000.326,1,3
64.8,-8.037343,4.720495,-2.677071,1000.3209,1,3
64.84,-8.023092,4.5870337,-2.4735,1000.354,1,3
64.88,-7.9945035,4.653768,-2.5019143,1000.33887,1,3
64.92,-8.137999,4.649004,-2.468783,1000.33887,1,3
64.96,-8.12975,4.6250860000000005,-2.5347470000000003,1000.3313,1,3
65.0,-8.124926,4.553586,-2.5300088,1000.3436,1,3
65.04,-8.167902,4.6060176,-2.5773487,1000.3057,1,3
65.08,-8.110489999999999,4.5392839999999985,-2.520531,1000.3212,1,3
65.12,-8.139124,4.706112999999998,-2.473183,1000.3285,1,3
65.16,-8.186871,4.6250800000000005,-2.5157876,1000.3134,1,3
65.2,-8.134250999999999,4.558347,-2.5015805,1000.3436,1,3
65.24,-8.095961,4.6203113,-2.5157793,1000.32874,1,3
65.28,-8.076797500000001,4.6584425000000005,-2.43529,1000.3137,0,0
65.32,-8.005081,4.648909,-2.4542263,1000.32874,0,0
65.36,-8.005081,4.648909,-2.4542263,1000.32874,0,0
65.4,-8.005081,4.648909,-2.4542263,1000.31116,0,0
65.44,-8.005081,4.648909,-2.4542263,1000.3238,0,0
65.48,-8.095864,4.567876999999998,-2.4920982999999994,1000.31616,0,0
65.52,-8.009592999999999,4.7871323,-2.4968112,1000.33386,0,0
65.56,-8.100367,4.6489015,-2.5441513,1000.359,0,0
65.6,-8.277168,4.6870327000000005,-2.6246316000000003,1000.3464,0,0
65.64,-8.305796,4.6250663,-2.496798,1000.34644,0,0
65.68,-8.033301,4.782361,-2.510997,1000.33887,0,0
65.72,-8.12407,4.6679629999999985,-2.4589143,1000.3438,0,0
65.76,-8.138361,4.663195,-2.5393949,1000.354,0,0
65.8,-8.200453999999999,4.510664,-2.6482818,1000.3438,0,0
65.84,-8.1382675,4.567862,-2.421026,1000.3615,0,0
65.88,-8.20514,4.701324,-2.5157099,1000.3414,0,0
65.92,-7.985219,4.696556,-2.6861439,1000.32117,0,0
65.96,-8.23039,4.629859,-2.5821154,1000.359,0,0
66.0,-8.287759,4.606026,-2.5016315,1000.3414,0,0
66.04,-8.21607,4.6965910000000015,-2.534773,1000.31616,0,0
66.08,-8.125264999999999,4.6489263,-2.5111022000000003,1000.33386,0,0
66.12,-8.192193,4.5011625,-2.4968998,1000.31616,0,0
66.16,-8.082267,4.62986,-2.4826972,1000.3288,0,0
66.2,-8.201773,4.606027,-2.5868552000000005,1000.3212,0,0
66.24,-8.330836999999999,4.6346273,-2.5253088,1000.3137,0,0
66.28,-8.197013,4.5821953,-2.5063722,1000.32623,0,0
66.32,-8.087087,4.687060400000001,-2.4306226000000004,1000.3817,0,0
66.36,-8.326087,4.501164,-2.553718,1000.3187,0,0
66.4,-8.278297,4.620329,-2.4684994,1000.3515,0,0
66.44,-8.139694,4.634628299999998,-2.567923,1000.3414,0,0
66.48,-8.144484,4.706127,-2.4874392000000003,1000.3137,0,0
66.52,-8.182734,4.6679945,-2.5537217,1000.3288,0,0
66.56,-8.24488,4.677528400000001,-2.6389418,1000.32874,0,0
66.6,-8.091937,4.725194,-2.7620373,1000.31866,0,0
66.64,-8.025029,4.7251945,-2.6105373,1000.31866,0,0
66.68,-8.0823965,4.639396,-2.6152728,1000.33386,0,0
66.72,-8.044167999999999,4.667996,-2.6815553,1000.34393,0,0
66.76,-8.182794,4.6060305,-2.6957593,1000.30853,0,0
66.8,-8.106326,4.6584635,-2.7573075,1000.3516,0,0
66.84,-8.01074,4.81576,-2.70523,1000.3516,0,0
66.88,-8.044209500000001,4.8157606,-2.799919,1000.3363,0,0
66.92,-7.9342823,4.777628,-2.7099662,1000.33386,0,0
66.96,-8.125422,4.6918287,-2.7241645,1000.31616,0,0
67.0,-8.034613,4.710895,-2.6673524,1000.34656,0,0
67.04,-8.048960000000001,4.8062267,-2.8093853,1000.36414,0,0
67.08,-7.9916095999999985,4.6965957000000005,-2.6910257,1000.31866,0,0
67.12,-8.197149000000001,4.4868674,-2.6768231,1000.3162,0,0
67.16,-8.072882,4.6727633,-2.6247454,1000.3567,0,0
67.2,-8.135026,4.806227,-2.7194343,1000.3313,0,0
67.24,-7.8243465,5.0636215,-2.719435,1000.33636,0,0
67.28,-8.010767,4.911092,-2.615279,1000.3188,0,0
67.32,-8.206747,4.644164599999999,-2.7004988,1000.30597,0,0
67.36,-8.436183999999999,4.310506,-2.766781,1000.34906,0,0
67.4,-7.953431599999999,4.882493,-2.444842,1000.31366,0,0
67.44,-8.111172,4.796695,-2.5821407,1000.3313,0,0
67.48,-8.034703,4.7108974,-2.648423,1000.3212,0,0
67.52,-8.144646,4.768096400000001,-2.629486,1000.30365,0,0
67.56,-7.9391217,4.6918316,-2.714706,1000.32874,0,0
67.6,-8.096863,4.6918316,-2.657894,1000.34393,0,0
67.64,-8.187687,4.644166,-2.6200192,1000.32904,0,0
67.68,-7.9391446,4.8157625,-2.700505,1000.34155,0,0
67.72,-8.173362,4.563135,-2.6058176,1000.3163,0,0
67.76,-8.206828,4.720432,-2.6815689,1000.3212,0,0
67.8,-8.0060835,4.830063,-2.7431166,1000.30865,0,0
67.84,-8.106467,4.7061324,-2.6721013,1000.34406,0,0
67.88,-8.245089,4.458272,-2.7147114,1000.3316,0,0
67.92,-8.120822,4.4773383,-2.605821,1000.34644,0,0
67.96,-8.1968975,4.601258799999999,-2.544237,1000.324,0,0
68.0,-8.029595,4.8729525,-2.6436586,1000.3515,0,0
68.04,-8.201659,4.7347217000000015,-2.7430801,1000.32385,0,0
68.08,-8.168192,4.8538857,-2.5300314,1000.324,0,0
68.12,-8.177743,4.5821915,-2.6436563,1000.3213,0,0
68.16,-8.115598,4.687056,-2.5489674,1000.3541,0,0
68.2,-7.9578547,4.825286,-2.648389,1000.34406,0,0
68.24,-8.010423,4.958749,-2.6294506,1000.3442,0,0
68.28,-8.12513,4.8777175,-2.7099345,1000.324,0,0
68.32,-8.062983500000001,4.9635153,-2.5915737,1000.319,0,0
68.36,-7.967378999999997,4.934916,-2.6341827,1000.3391,0,0
68.4,-7.96259,4.939682,-2.4163992000000003,1000.35425,0,0
68.44,-8.0056,4.8252845,-2.5631652000000003,1000.33405,0,0
68.48,-8.091629,4.8920155,-2.6199767999999994,1000.33655,0,0
68.52,-7.9434447,4.9825800000000005,-2.619976,1000.32904,0,0
68.56,-7.9434357,4.944447,-2.6578505,1000.34924,0,0
68.6,-8.010345,4.84435,-2.6294433999999995,1000.324,0,0
68.64,-8.2302065,4.5678897,-2.6105049,1000.3391,0,0
68.68,-7.9864297,4.825283,-2.5915666,1000.3215,0,0
68.72,-7.98642,4.8300495,-2.6673164000000003,1000.32904,0,0
68.76,-8.043768,4.920614,-2.615237,1000.33167,0,0
68.8,-7.924265400000001,4.892014,-2.5631578,1000.32916,0,0
68.84,-8.144127000000001,4.810982,-2.5773602,1000.3368,0,0
68.88,-8.077200999999999,5.0302440000000015,-2.7004538,1000.33405,0,0
68.92,-8.096312,5.1065087,-2.6815155,1000.35443,0,0
68.96,-8.048535000000001,4.9110809999999985,-2.4400630000000003,1000.34436,0,0
69.0,-8.086767,4.796683,-2.5915632,1000.352,0,0
69.04,-8.129778,4.6727524,-2.553687,1000.34686,0,0
69.08,-8.000715,4.863414,-2.5678897000000003,1000.34937,0,0
69.12,-7.96725,5.0493097,-2.5773580000000003,1000.3368,0,0
69.16,-8.015039999999999,4.9253793,-2.563154,1000.3318,0,0
69.2,-8.034151,4.892012599999998,-2.5442157,1000.3517,0,0
69.24,-7.909869,4.8634133,-2.5536838,1000.372,0,0
69.28,-8.038917,4.9206123,-2.5110736,1000.3216,0,0
69.32,-7.9528728000000015,4.915845,-2.5915575,1000.3595,0,0
69.36,-8.04846,4.958743599999999,-2.534744,1000.34436,0,0
69.4,-8.014996,4.834813,-2.5584157000000003,1000.36194,0,0
69.44,-8.077126,4.953977,-2.572618,1000.3115,0,0
69.48,-8.034099000000001,4.996876,-2.5158043,1000.34424,0,0
69.52,-7.952835,5.0826735,-2.5584135,1000.3368,0,0
69.56,-7.9337087,4.915844,-2.515803,1000.34424,0,0
69.6,-8.081875,4.7919135000000015,-2.5489433,1000.3291,0,0
69.64,-8.148785,4.858645,-2.458989,1000.33185,0,0
69.68,-7.8667690000000015,5.2495027,-2.586817,1000.3369,0,0
69.72,-7.881102,5.2733355,-2.5300038,1000.33167,0,0
69.76,-7.976689,5.049307,-2.5584092000000003,1000.3266,0,0
69.8,-8.091398,4.8872433,-2.5442057,1000.3294,0,0
69.84,-7.9814544,4.9110765,-2.638893,1000.3294,0,0
69.88,-8.029244,4.8491106,-2.5063287999999995,1000.3143,0,0
69.92,-7.871503999999999,5.025473000000002,-2.6057506,1000.3244,0,0
69.96,-7.9295464,4.868194,-2.5679380000000003,1000.32184,0,0
70.0,-7.986925,4.944458999999998,-2.5395336,1000.34717,0,0
70.04,-8.101659,5.0207243,-2.7289114,1000.3216,0,0
70.08,-7.8626895,5.1351223,-2.6768348,1000.36456,0,0
70.12,-7.915286999999997,4.977826599999998,-2.5916173,1000.322,0,0
70.16,-8.082600999999999,4.8157644,-2.6200256,1000.3144,0,0
70.2,-7.929666,4.906329,-2.4779954,1000.3447,0,0
70.24,-8.0444,4.872964,-2.676842,1000.3296,0,0
70.28,-7.924927,5.0397940000000006,-2.6579063,1000.36487,0,0
70.32,-7.915387,4.944463,-2.5206106,1000.3319,0,0
70.36,-8.039681,5.0445614,-2.5916283,1000.347,0,0
70.4,-7.9775643,4.968296499999999,-2.7573345,1000.3497,0,0
70.44,-7.972803999999999,5.0064297,-2.6342418,1000.3548,0,0
70.48,-7.9728246,4.9349318,-2.4922113,1000.3319,0,0
70.52,-8.044541,4.9396987,-2.3927906,1000.3244,0,0
70.56,-7.882049,4.834835,-2.4401364,1000.3397,0,0
70.6,-8.230993,4.796703,-2.6011083,1000.37256,0,0
70.64,-8.049380000000001,4.954,-2.496953,1000.3498,0,0
70.68,-7.920347,5.1684957,-2.4448764,1000.3396,0,0
70.72,-7.906027000000001,4.992133,-2.4827533,1000.34973,0,0
70.76,-8.140257,4.9921336,-2.5395682,1000.34216,0,0
70.8,-7.953866,4.996900599999999,-2.6200547000000003,1000.3498,0,0
70.84,-7.949105,5.0731660000000005,-2.7289479,1000.3345,0,0
70.88,-7.915665,4.9492364,-2.601121,1000.3548,0,0
70.92,-8.06864,4.8348393,-2.4259498,1000.3623,0,0
70.96,-8.107183000000001,4.8396134,-2.5159314,1000.35223,0,0
71.0,-8.121552000000001,4.9444785000000016,-2.6579661,1000.3473,0,0
71.04,-7.959069,5.0159774000000015,-2.6342971,1000.34216,0,0
71.08,-7.830048,4.996912,-2.6153626,1000.3625,0,0
71.12,-7.8635383,5.0779443,-2.4212546,1000.3422,0,0
71.16,-8.035641,4.877749400000001,-2.7621346,1000.3398,0,0
71.2,-8.155163,4.944482,-2.6485114,1000.36273,0,0
71.24,-7.940108299999999,4.944483,-2.3455126,1000.3372,0,0
71.28,-7.7967460000000015,5.1113133,-2.615376700000001,1000.35986,0,0
71.32,-7.811113400000001,5.0636487,-2.5964415,1000.3549,0,0
71.36,-8.035797,4.949252,-2.681664,1000.35504,0,0
71.4,-8.002369,4.949253,-2.639057,1000.3474,0,0
71.44,-7.921141599999999,5.0016856,-2.4496837000000005,1000.3322,0,0
71.48,-7.873378999999999,5.13515,-2.4354837000000003,1000.35986,0,0
71.52,-7.978564299999999,5.2066493,-2.6106594,1000.3299,0,0
71.56,-7.863878999999999,5.1160855000000005,-2.6011932,1000.36273,0,0
71.6,-8.035985,4.9397235,-2.5680556,1000.31976,0,0
71.64,-7.9643183,4.963557,-2.4212918,1000.36,0,0
71.68,-7.9595699999999985,4.9301915,-2.5065138,1000.35754,0,0
71.72,-7.96438,5.1303883,-2.4923134,1000.36255,0,0
71.76,-7.921395299999999,5.11609,-2.6106765,1000.3803,0,0
71.8,-8.126956,5.011225700000002,-2.6248827,1000.3552,0,0
71.84,-7.964473,4.9635606,-2.2934768,1000.33234,0,0
71.88,-7.897588000000002,4.954028,-2.4544494,1000.3347,0,0
71.92,-8.002775,5.030294400000002,-2.4781246,1000.3448,0,0
71.96,-7.944976299999999,4.973085,-2.5964444,1000.355,0,0
72.0,-7.988008,4.9826183,-2.449679,1000.36536,0,0
72.04,-8.078837,4.9730854,-2.577509,1000.37036,0,0
72.08,-7.9258957,5.07795,-2.5112286,1000.3678,0,0
72.12,-7.772953500000002,5.1017823,-2.549105,1000.3553,0,0
72.16,-8.031075,4.992152,-2.605919,1000.3603,0,0
72.2,-7.9498315,4.896822,-2.5207007000000003,1000.3679,0,0
72.24,-7.978523,5.0445848,-2.61539,1000.3628,0,0
72.28,-7.892497,5.0207524,-2.639063,1000.378,0,0
72.32,-8.050244000000001,5.1160846,-2.6864083,1000.36035,0,0
72.36,-7.844725,5.077952,-2.5585804,1000.3652,0,0
72.4,-7.873416400000001,5.1208515,-2.6201289,1000.3626,0,0
72.44,-8.069401,4.8729906,-2.5112388,1000.3679,0,0
72.48,-7.926019,5.077953,-2.6106622,1000.3704,0,0
72.52,-7.8591137,5.044587,-2.6201322,1000.3626,0,0
72.56,-8.040759,4.94449,-2.5491173,1000.3702,0,0
72.6,-7.945175999999999,5.0159883,-2.5491185,1000.3652,0,0
72.64,-8.016886,5.044588,-2.6201355,1000.3803,0,0
72.68,-7.978660599999999,4.9540243,-2.6248713,1000.3553,0,0
72.72,-7.945213000000002,4.9158916,-2.5869973,1000.3881,0,0
72.76,-7.9261065,4.9444914,-2.4875758,1000.3579,0,0
72.8,-8.050393,4.9397254,-2.629609,1000.3679,0,0
72.84,-7.97393,4.9873910000000015,-2.6722200000000003,1000.3679,0,0
72.88,-8.0313,4.887294,-2.591736,1000.3629,0,0
72.92,-7.954835000000001,4.90636,-2.5065181,1000.37036,0,0
72.96,-7.920572,4.8968077,-2.5443196,1000.3503,0,0
73.0,-8.083065,4.9015737,-2.5490522,1000.3579,0,0
73.04,-7.968329400000001,5.0207367,-2.5963943,1000.3831,0,0
73.08,-8.049565,5.0827017,-2.5395794,1000.3856,0,0
73.12,-7.887032,5.073168,-2.5537810000000003,1000.3503,0,0
73.16,-7.9634886,4.9206379999999985,-2.5111697,1000.36035,0,0
73.2,-8.020825,4.8300724000000015,-2.6105902000000003,1000.3628,0,0
73.24,-7.977789,4.9349365,-2.478025,1000.34015,0,0
73.28,-7.9395304000000015,5.0493326,-2.5774457,1000.36536,0,0
73.32,-7.93473,5.0016669999999985,-2.567975,1000.39325,0,0
73.36,-7.9538293000000015,5.0016669999999985,-2.6295204,1000.3452,0,0
73.4,-7.9681497000000014,4.9778337,-2.6058464,1000.3452,0,0
73.44,-8.035048,4.901568,-2.5821729,1000.35284,0,0
73.48,-7.9728894,4.9158673,-2.6058428,1000.353,0,0
73.52,-7.963310000000001,4.9349327,-2.6200442,1000.35284,0,0
73.56,-7.9585094,4.863434,-2.5537608,1000.3581,0,0
73.6,-8.101882000000002,4.8539,-2.5537589,1000.3402,0,0
73.64,-8.034945500000001,4.9110985000000005,-2.65318,1000.383,0,0
73.68,-7.977569,4.9730635,-2.6389747000000003,1000.3729,0,0
73.72,-7.8723936,5.0683940000000005,-2.572691,1000.3907,0,0
73.76,-8.063566,4.9921284,-2.5442832,1000.36816,0,0
73.8,-8.044426,4.992128,-2.648438,1000.3754,0,0
73.84,-7.982270699999999,4.8443646,-2.6342332,1000.39075,0,0
73.88,-7.877094,4.930162,-2.4211829,1000.3706,0,0
73.92,-8.116063,4.8491300000000015,-2.653167,1000.3782,0,0
73.96,-7.9886603,5.087498,-2.5870364,1000.36816,0,0
74.0,-8.07474,4.9540358,-2.6485877,1000.3757,0,0
74.04,-7.9600716,4.9683366,-2.544435,1000.3832,0,0
74.08,-8.036595,4.963571,-2.5870490000000004,1000.37054,0,0
74.12,-8.036642,4.9778724,-2.6249285,1000.36804,0,0
74.16,-7.9506474,4.9063745,-2.6107292,1000.3704,0,0
74.2,-7.9841533,4.9254417,-2.5397172,1000.3604,0,0
74.24,-8.060678999999999,4.844412,-2.6580818,1000.3579,0,0
74.28,-7.917332000000001,5.11134,-2.5776014,1000.36304,0,0
74.32,-7.9699545,5.03031,-2.6628249,1000.35046,0,0
74.36,-7.9413195,4.958812,-2.6154847,1000.3755,0,0
74.4,-8.056082,4.796751,-2.6817706,1000.3706,0,0
74.44,-8.00833,4.958814599999998,-2.6296964,1000.34546,0,0
74.48,-8.070514999999999,5.0350804,-2.8096085,1000.35535,0,0
74.52,-7.9845229999999985,5.0493817000000005,-2.6391737,1000.37335,0,0
74.56,-7.9033155,5.0398498,-2.648647,1000.36816,0,0
74.6,-7.9320383,4.9635862999999985,-2.6675887,1000.35535,0,0
74.64,-8.037237,4.858723,-2.6107798,1000.34283,0,0
74.68,-7.879554700000001,5.035086,-2.6865351000000004,1000.3581,0,0
74.72,-7.941739,4.977889,-2.6107888,1000.35046,0,0
74.76,-7.965675999999997,4.9588237,-2.6486676,1000.3606,0,0
74.8,-8.008747,4.8730273,-2.5445154,1000.3579,0,0
74.84,-7.960992999999997,5.0303245,-2.5918634,1000.36804,0,0
74.88,-7.908465400000001,5.0684580000000015,-2.6202743,1000.34784,0,0
74.92,-7.961089599999997,4.882564,-2.5539970000000003,1000.3807,0,0
74.96,-8.060156,4.872998,-2.5917523,1000.36804,0,0
75.0,-7.9932303,4.915897,-2.5680795,1000.3807,0,0
75.04,-8.07448,5.073193,-2.6390948,1000.37085,0,0
75.08,-7.7590059999999985,5.0827265,-2.4875934,1000.3505,0,0
75.12,-7.854593799999999,5.011228,-2.4970613,1000.3832,0,0
75.16,-8.155713,4.7443004,-2.6296241,1000.38824,0,0
75.2,-8.07445,4.915896400000001,-2.5680761000000003,1000.36316,0,0
75.24,-7.950166999999999,4.9873943,-2.3739647999999995,1000.35834,0,0
75.28,-7.859344,4.992161,-2.5301995,1000.3731,0,0
75.32,-8.1031065,5.006460700000001,-2.6012151,1000.3684,0,0
75.36,-7.8545485,4.9444947,-2.5917456000000003,1000.3706,0,0
75.4,-8.050513,4.9063620000000014,-2.4970567000000004,1000.38104,0,0
75.44,-8.002708,4.8872957,-2.4923217,1000.371,0,0
75.48,-7.931003,5.182822,-2.587009,1000.37836,0,0
75.52,-7.9405556,5.044591400000002,-2.5159922000000003,1000.3606,0,0
75.56,-7.9979057,4.9492607,-2.5633357000000005,1000.37067,0,0
75.6,-8.098272999999999,4.858696,-2.4118338,1000.37573,0,0
75.64,-8.01701,4.9444933,-2.501787,1000.37573,0,0
75.68,-7.950085,5.0064588,-2.4781144,1000.37836,0,0
75.72,-8.026553999999999,5.0398245,-2.6106768,1000.3808,0,0
75.76,-7.973969,5.0255246,-2.549129,1000.3834,0,0
75.8,-7.997861,5.030291,-2.5396595,1000.36566,0,0
75.84,-7.988294000000002,4.901593,-2.4449706,1000.34546,0,0
75.88,-7.959607000000001,5.0302906,-2.4970484,1000.34045,0,0
75.92,-8.045636,5.0159907,-2.5822673,1000.36584,0,0
75.96,-7.9500012,4.973091,-2.497044,1000.38855,0,0
76.0,-8.036028,4.9397244,-2.5349185000000003,1000.36316,0,0
76.04,-8.102936999999999,5.0445886,-2.5301836,1000.3606,0,0
76.08,-7.9882145000000016,5.135153,-2.648543,1000.35815,0,0
76.12,-7.820912,5.0541215,-2.3834152000000004,1000.3732,0,0
76.16,-8.045553,4.915891,-2.5443845,1000.3558,0,0
76.2,-7.983409,4.9063573,-2.5538522999999995,1000.381,0,0
76.24,-8.064653999999999,4.920657,-2.5301795,1000.3608,0,0
76.28,-8.035967,4.963556,-2.4544282,1000.34827,0,0
76.32,-7.9260235,5.011221400000001,-2.601194,1000.3833,0,0
76.36,-8.078969,4.9015900000000014,-2.5585835,1000.39624,0,0
76.4,-7.983364,4.9063563,-2.539645,1000.376,0,0
76.44,-8.021593,4.8825235000000005,-2.620129,1000.376,0,0
76.48,-8.1363,4.8300915,-2.5727842,1000.38354,0,0
76.52,-8.026356,4.8110247,-2.639065,1000.3735,0,0
76.56,-7.9785485,4.8872895,-2.7337525,1000.3684,0,0
76.6,-8.088475,4.6966269999999986,-2.8473773,1000.3581,0,0
76.64,-7.959411599999997,4.682327,-2.899455,1000.3785,0,0
76.68,-8.126696,4.4535327,-3.0698926,1000.39105,0,0
76.72,-7.997633500000001,4.4106326,-3.2450650000000003,1000.3632,1,4
76.76,-7.911588,4.3200684,-3.2261267000000005,1000.38354,1,4
76.8,-8.002396000000001,4.362967,-3.2924073,1000.4036,1,4
76.84,-8.2509365,3.9244437000000008,-3.3066096,1000.35834,1,4
76.88,-8.552054,3.862478,-2.9278567000000004,1000.381,1,4
76.92,-8.432551,3.748081,-2.9089181,1000.3329,1,4
76.96,-8.48531,3.7862177,-2.923138,1000.35315,1,4
77.0,-8.313235,3.6289213,-2.5775263,1000.3407,1,4
77.04,-7.969089,4.2009077,-2.3502748,1000.3784,1,4
77.08,-7.921289,4.024545,-2.6627455,1000.38605,1,4
77.12,-8.686055999999999,3.5335898,-2.0283349,1000.37616,1,4
77.16,-9.350448,4.005479,-1.8294898,1000.3785,1,4
77.2,-10.033958,4.291472,-2.2271798,1000.37366,1,4
77.24,-8.466182,4.8157935,-1.7490047999999998,1000.38605,1,4
77.28,-7.26167,5.063655000000002,-1.8673648,1000.37103,1,4
77.32,-7.252109,4.925424,-1.2755641000000002,1000.3759,1,4
77.36,-7.706189599999999,5.535544,-1.2045479,1000.36584,1,4
77.4,-7.91172,5.602275,-1.1193285,1000.381,1,4
77.44,-9.359999,8.180983,-1.4933463,1000.39105,1,4
77.48,-7.663167,7.1752386,-1.7679417000000002,1000.4137,1,4
77.52,-7.8543577,3.8386493,-0.002008643,1000.38855,1,4
77.56,-8.929812,4.753828,-1.4317987,1000.3936,1,4
77.6,-9.503387,7.1847725,-1.8815672,1000.35596,1,4
77.64,-8.380133,8.567072999999999,-1.7253317,1000.3862,1,4
77.68,-8.208058,7.4802985,-1.9336454,1000.3584,1,4
77.72,-6.9748683000000025,6.889245,-1.6543153999999998,1000.3459,1,4
77.76,-5.330614,6.159962,-2.2792566,1000.3407,1,4
77.8,-5.440548400000001,5.0922537000000005,-2.0662084,1000.3356,1,4
77.84,-7.075239999999999,4.6251307,-2.5775240000000004,1000.36346,1,4
77.88,-7.687053999999999,4.687096,-2.2792563,1000.3381,1,4
77.92,-7.5532184,5.1256185,-2.7290246,1000.3886,1,4
77.96,-7.6159544000000015,4.7586083,-2.9231899,1000.3787,1,4
78.0,-7.40088,4.9063725,-2.8143003,1000.36346,1,4
78.04,-7.209714,4.7347769999999985,-2.9326627,1000.37103,1,4
78.08,-7.424827599999999,4.9397397000000005,-2.7669606,1000.3734,1,4
78.12,-7.2001979999999985,5.6880894,-2.9137292,1000.39386,1,4
78.16,-8.275679,5.378264,-3.027357,1000.381,1,4
78.2,-8.701103,5.2162013,-3.7848637,1000.4113,1,4
78.24,-10.120728,5.092272,-3.9316323,1000.37354,1,4
78.28,-10.918977,5.6404266,-4.0405254,1000.3862,1,4
78.32,-8.151492999999999,5.4259315,-2.2935324,1000.37115,1,4
78.36,-6.779711200000001,5.23527,-1.6023115,1000.3357,1,4
78.4,-7.1286607,5.2495704000000005,-1.313515,1000.37616,1,4
78.44,-7.2911944,4.830114,-1.805895,1000.3963,1,4
78.48,-7.941271,4.0674653,-1.6023176,1000.3381,1,4
78.52,-7.9843116,4.200929,-1.6970078000000002,1000.3434,1,4
78.56,-6.564734,5.254339,-2.2604040000000003,1000.37115,1,4
78.6,-7.0761943,5.411636,-2.3692975,1000.376,1,4
78.64,-7.372565299999999,5.526033999999999,-2.085235,1000.3812,1,4
78.68,-6.6986356,6.236251,-2.1799254,1000.3611,1,4
78.72,-6.569603999999999,6.164754,-2.1231148,1000.36847,1,4
78.76,-6.636541,6.6128106,-2.5208066,1000.351,1,4
78.8,-9.509227,5.549869,-3.8890517,1000.36865,1,4
78.84,-10.307476,6.059891,-4.6276207000000005,1000.38367,1,4
78.88,-8.629787,5.425939,-4.6560297,1000.3583,1,4
78.92,-7.4444175,4.6680574,-3.7375567,1000.3232,1,4
78.96,-7.214602,4.053162,-3.2309403,1000.3661,1,4
79.0,-7.5683136,3.8815668,-3.5292082,1000.3609,1,4
79.04,-6.2921114000000005,4.501219,-3.0699716,1000.3812,1,4
79.08,-6.425952400000001,4.0102634,-3.2025354,1000.3584,1,4
79.12,-6.980416,4.1151285,-3.3729744,1000.36346,1,4
79.16,-7.391485,3.7671697,-3.4866009,1000.3483,1,4
79.2,-7.410611599999997,4.7443137,-3.1835995,1000.3611,1,4
79.24,-7.377158,5.3020010000000015,-4.2772474,1000.35596,1,4
79.28,-8.796764999999997,4.8825445,-4.674938,1000.38135,1,4
79.32,-8.404828,5.316301,-3.9695122000000014,1000.3408,1,4
79.36,-8.940173,6.050351,-3.221477,1000.3282,1,4
79.4,-8.868481,5.707159,-3.0889142000000005,1000.34576,1,4
79.44,-8.729873,4.825346,-2.7101624,1000.4089,1,4
79.48,-7.941213,4.873012,-1.7064693,1000.3612,1,4
79.52,-8.036814,4.8015137,-1.5739063999999998,1000.3508,1,4
79.56,-8.232793,4.7395487,-1.8011583999999998,1000.3687,1,4
79.6,-7.300737400000001,4.658517,-1.8769095,1000.3433,1,4
79.64,-7.692688,4.5441203,-2.15624,1000.34076,1,4
79.68,-7.448924000000001,4.4249563,-2.4403048,1000.37366,1,4
79.72,-6.9279323,5.0875077000000015,-2.132569,1000.3559,1,4
79.76,-6.607692,4.896846,-1.9763343,1000.3382,1,4
79.8,-8.041638,4.839647,-2.4639785,1000.35846,1,4
79.84,-7.8886910000000015,6.074185400000001,-2.8143249,1000.37115,1,4
79.88,-7.5206523,6.384012,-2.8427322,1000.3129,1,4
79.92,-9.380002,6.422145,-3.6759877,1000.35583,1,4
79.96,-8.921178999999997,5.7929597,-4.509247,1000.351,1,4
80.0,-7.707116,5.5879984,-4.1825733,1000.32806,1,4
80.04,-8.084728,4.5441227,-3.7233365,1000.3358,1,4
80.08,-7.793166999999999,4.258129,-3.846432,1000.36615,1,4
80.12,-6.2731977,4.877782,-3.278304,1000.3282,1,4
80.16,-6.340122,4.577489,-3.0652564,1000.394,1,4
80.2,-6.8133297000000015,3.8196065,-2.994241,1000.35864,1,4
80.24,-6.928053,4.0055027,-3.1646802000000003,1000.3536,1,4
80.28,-7.735848,4.281962999999998,-3.552902200000001,1000.36615,1,4
80.32,-7.645038599999999,4.687121,-3.7091382,1000.351,1,4
80.36,-8.706161999999999,4.806285,-4.1257668,1000.3913,1,4
80.4,-9.303644,5.020779599999999,-3.747015,1000.3486,1,4
80.44,-10.159238,5.568934,-3.7328124,1000.37366,1,4
80.48,-10.383896,5.826328299999999,-3.1788876,1000.3384,1,4
80.52,-7.864947,5.969325,-2.1041784,1000.3536,1,4
80.56,-7.458671000000002,5.5832343,-0.9300468,1000.3538,1,4
80.6,-7.8697414,5.2019095,-0.80695295,1000.35596,1,4
80.64,-7.951006,4.7109547,-1.2756598,1000.3437,1,4
80.68,-7.3153,5.1876106,-1.5360527,1000.35596,1,4
80.72,-7.191032400000001,4.8396516,-1.8437898,1000.3689,1,4
80.76,-7.2005987000000005,4.5917910000000015,-2.2130742000000003,1000.3561,1,4
80.8,-7.530412700000001,4.7204885,-2.0142298,1000.36127,1,4
80.84,-6.746533,5.025549,-1.5218524,1000.33606,1,4
80.88,-6.9759707,5.678567,-2.0189657,1000.3208,1,4
80.92,-7.3344635999999985,6.3220519999999985,-2.1515293,1000.3383,1,4
80.96,-7.153247,6.403094,-2.6250079,1000.35596,1,4
81.0,-8.864441000000003,6.0360694000000015,-2.9564185000000003,1000.35345,1,4
81.04,-9.863443,5.88354,-4.324663,1000.38403,1,4
81.08,-9.11304,5.3544535999999985,-4.367275,1000.33105,1,4
81.12,-8.080624,5.4640846,-3.893837,1000.3485,1,4
81.16,-7.645687,4.720502,-3.3825238,1000.33105,1,4
81.2,-7.234648,4.510774,-3.4488075,1000.36127,1,4
81.24,-5.9775834,4.6680712999999985,-2.861744,1000.3663,1,4
81.28,-5.9919457000000005,4.03412,-2.1137097,1000.3638,1,4
81.32,-7.0865445000000005,3.8672912,-2.5871525,1000.36615,1,4
81.36,-7.0483303,5.1351957000000015,-3.3493938,1000.3815,1,4
81.4,-6.5655947,5.4164233,-3.055863,1000.3587,1,4
81.44,-8.152512,5.5212884,-3.3304602999999995,1000.3335,1,4
81.48,-8.563597999999999,5.835881,-3.6003237,1000.37646,1,4
81.52,-8.186017,5.9264464000000014,-3.4488246,1000.3739,1,4
81.56,-9.251937,5.9931790000000005,-3.4677646,1000.3663,1,4
81.6,-9.175485,5.6452203,-2.56823,1000.3335,1,4
81.64,-7.383081,5.3973603,-2.0001035,1000.3662,1,4
81.68,-8.453783,4.8539734,-1.5124621,1000.3662,1,4
81.72,-8.262611,5.2591314,-1.6071521,1000.3714,1,4
81.76,-7.846794,5.201933,-1.8675467,1000.34607,1,4
81.8,-7.7082043,5.1447353,-1.4698589,1000.3057,1,4
81.84,-7.4883570000000015,5.039871700000001,-1.2284064,1000.32324,1,4
81.88,-6.976941,5.1399693,-1.6781771,1000.35364,1,4
81.92,-7.220735,4.834910400000001,-1.6403041,1000.3208,1,4
81.96,-7.0578675,5.092296,-1.6639436,1000.3539,1,4
82.0,-6.364804,5.7977467,-1.635538,1000.3716,1,4
82.04,-7.206058,6.0837407,-1.6639453000000002,1000.36115,1,4
82.08,-8.099891,6.3935666,-2.7765312,1000.3438,1,4
82.12,-8.291091,6.84639,-2.2557476000000003,1000.3438,1,4
82.16,-8.6830435,6.593762400000001,-2.6581726000000003,1000.3817,1,4
82.2,-9.012859,6.155239599999999,-3.297318,1000.34106,1,4
82.24,-7.774899,6.2219715,-2.866488,1000.336,1,4
82.28,-6.106756,6.0599089999999975,-2.8854263,1000.3539,1,4
82.32,-7.6267429999999985,5.3544589999999985,-2.4545965,1000.3464,1,4
82.36,-8.898178999999997,5.0446324,-2.2462835,1000.3738,1,4
82.4,-8.205116,5.101831400000001,-1.985892,1000.3539,1,4
82.44,-6.011195,5.2209954000000005,-2.587162,1000.3564,1,4
82.48,-6.0972404,5.168564,-2.8854303,1000.3638,1,4
82.52,-6.8667974,5.0636997,-2.9233062000000003,1000.33356,1,4
82.56,-7.5359783,4.7681737,-2.4593358,1000.37146,1,4
82.6,-7.0914655,5.225763,-2.7528694,1000.4044,1,4
82.64,-7.569453999999999,5.3258614999999985,-2.8949025,1000.33344,1,4
82.68,-7.6746197,5.5498895999999975,-2.5492918,1000.36395,1,4
82.72,-7.8705993,5.802517400000001,-2.6913245,1000.3817,1,4
82.76,-9.127697,5.845416,-2.5019493,1000.3513,1,4
82.8,-9.830336,6.2029085,-2.0616503,1000.3841,1,4
82.84,-9.065577,6.245807599999999,-2.000104,1000.3487,1,4
82.88,-8.037927999999999,6.5604,-1.5550706,1000.3665,1,4
82.92,-6.886004,6.6271324000000025,-0.8070354999999999,1000.38403,1,4
82.96,-6.670921000000001,6.3220730000000005,-0.74548906,1000.3615,1,4
83.0,-7.779845,5.8263516,-0.73602116,1000.3538,1,4
83.04,-8.10488,5.7071877,-0.9017261,1000.3311,1,4
83.08,-7.3353405,5.950282,-1.512465,1000.3689,1,4
83.12,-7.096359,6.093279,-0.84018046,1000.369,1,4
83.16,-6.398516000000001,6.565169,-1.2047304,1000.3766,1,4
83.2,-7.2015324000000005,6.3745065,-1.4745921999999998,1000.3438,1,4
83.24,-7.2684584,6.236276599999999,-0.9916837,1000.32104,1,4
83.28,-7.91374,6.074214,-1.3514992,1000.3589,1,4
83.32,-7.8707304,6.064681,-2.2557712000000003,1000.37897,1,4
83.36,-7.5170345,6.1028137000000005,-2.6818686,1000.34125,0,0
83.4,-7.5457215,5.4974612999999986,-1.4367211000000002,1000.38916,0,0
83.44,-7.335419,5.354465,-1.9433032,1000.3438,0,0
83.48,-7.5266199999999985,5.4021300000000005,-1.5598172,1000.3538,0,0
83.52,-7.7505255,5.3735127,-1.5502801000000002,1000.35895,0,0
83.56,-7.5736628,5.5546417,-1.9195626,1000.3663,0,0
83.6,-7.8413210000000015,5.5212755,-2.0237188,1000.36646,0,0
83.64,-7.855649499999997,5.59754,-2.4166732000000004,1000.3461,0,0
83.68,-7.8174009999999985,5.5975394,-2.146811,1000.3437,0,0
83.72,-7.5975199999999985,5.7929683,-1.6354947,1000.3439,0,0
83.76,-7.478014,5.850167,-1.5266023000000002,1000.35394,0,0
83.8,-7.788691,5.7405357000000015,-1.6118207,1000.3588,0,0
83.84,-8.285779,5.38781,-1.5739444,1000.33624,0,0
83.88,-8.24275,5.3401446,-1.7207099,1000.3462,0,0
83.92,-8.190161999999999,5.3687434000000005,-1.8580067,1000.32874,0,0
83.96,-8.161472999999999,5.2638793,-1.5786761,1000.3791,0,0
84.0,-7.7599597,5.4259415,-1.180985,1000.3868,0,0
84.04,-7.8173059999999985,5.545105,-1.285141,1000.369,0,0
84.08,-8.046726,5.6309032,-1.4461098,1000.3464,0,0
84.12,-7.8029466,5.630903,-1.2946079,1000.3564,0,0
84.16,-8.104063,5.6213694000000025,-1.6070776000000002,1000.3436,0,0
84.2,-8.041916,5.554638,-1.7443744,1000.33624,0,0
84.24,-7.7503366,5.5069714,-1.5455283000000002,1000.3338,0,0
84.28,-7.826803,5.435473,-1.6496843,1000.3564,0,0
84.32,-7.8028936,5.502205,-1.5171201,1000.3414,0,0
84.36,-7.3201227,5.678567,-1.8059179,1000.364,0,0
84.4,-8.314311,5.3592076,-1.692291,1000.3741,0,0
84.44,-7.9892759999999985,5.4068727,-1.7159623,1000.3768,0,0
84.48,-8.013163,5.4402385,-1.4461001,1000.3414,0,0
84.52,-7.8838240000000015,5.316301,-1.6023094999999998,1000.35645,0,0
84.56,-7.9220414,5.4354644,-1.6591203,1000.33636,0,0
84.6,-7.9937179999999985,5.416398,-1.6922596,1000.3288,0,0
84.64,-7.812063,5.6356587,-1.7490702,1000.3691,0,0
84.68,-7.6734266,5.6547246,-1.7206618000000002,1000.359,0,0
84.72,-7.8406982,5.68809,-1.6354405,1000.3514,0,0
