Timestamp,Ax,Ay,Az,P,Value,Type
0.0,3.3139480000000003,5.343994,8.338586,1004.41394,0,0
0.04,3.0893126,5.0865993,9.735237,1004.48425,0,0
0.08,2.8981411,5.444091,8.935124,1004.49445,0,0
0.12,3.275758,5.963646,9.602676,1004.4921,0,0
0.16,3.3092372,6.8788240000000025,9.716305,1004.49994,0,0
0.2,4.442061,7.794002499999999,13.1771555,1004.54535,0,0
0.24,8.155987,9.419398,15.336045,1004.5376,0,0
0.28,4.7002034,7.426976,11.165035,1004.3997,0,0
0.32,3.8350768,7.798767999999999,6.799917,1004.32733,0,0
0.36,4.8130083,7.1028976,10.075948,1004.43756,0,0
0.4,5.9744415,6.9170035999999975,8.049617999999999,1004.4405,0,0
0.44,6.696147,5.5966682,7.1074677,1004.3985,0,0
0.48,-1.3339942,0.23429397,3.367281,1004.3586,0,0
0.52,-5.5976424000000025,-1.9011219,1.4451069,1004.3229,0,0
0.56,-9.889966,-3.4216519999999995,-1.6701369,1004.33075,0,0
0.6,-13.020796,-3.5122154,-0.3492435,1004.3663,0,0
0.64,-10.917739,-1.6770896,-0.82268906,1004.3713,0,0
0.68,-10.172145,-0.3424521,0.05317065,1004.40186,0,0
0.72,-8.374999,1.9693294,-0.48655692,1004.40674,0,0
0.76,-8.32726,3.0990047,-1.968431,1004.3818,0,0
0.8,-8.136127,3.7377248,-2.2951105,1004.4047,0,0
0.84,-10.14848,2.3697243,-1.5328764,1004.392,0,0
0.88,-10.535705,2.5699213,0.043674894000000006,1004.40247,0,0
0.92,-9.097044,3.9951234,0.5313131,1004.42535,0,0
0.96,-8.131578999999999,4.6529093,0.36560383,1004.4329,0,0
1.0,-8.246357000000001,4.433649,0.18095629,1004.4106,0,0
1.04,-9.058984,3.0894818,-0.10784789,1004.41565,0,0
1.08,-9.498781,2.9274204,-0.24515072,1004.41077,0,0
1.12,-9.259851,2.9369547000000003,-0.99319214,1004.4208,0,0
1.16,-9.355504,3.1085525,-0.41086543,1004.4136,0,0
1.2,-9.823986,3.0036893,0.3418991,1004.4112,0,0
1.24,-9.274365,3.2229528,0.17618981,1004.45636,0,0
1.28,-9.08323,3.5804458,-0.7991026999999999,1004.4341,0,0
1.32,-9.145427,3.3754852,-0.1599635,1004.4089,0,0
1.36,-9.173581,3.3373399,0.19043048,1004.40125,0,0
1.4,-9.082802,2.9941487,-0.22620049,1004.4421,0,0
1.44,-9.441321,2.8559194,-0.81800425,1004.41425,0,0
1.48,-9.857203,2.8368542000000003,-0.46766186,1004.43726,0,0
1.52,-9.2693205,3.394542,-0.42978978,1004.4019,0,0
1.56,-9.030368,3.5947382000000005,-0.486606,1004.3999,0,0
1.6,-8.762735000000001,3.6328716,-0.27356118,1004.425,0,0
1.64,-9.393706,3.532775,-0.7801458,1004.3999,0,0
1.68,-9.078274,3.3468802,-0.7990866,1004.405,0,0
1.72,-9.073528,3.4612784,-0.17888273,1004.4075,0,0
1.76,-9.03055,3.118087,-0.42980978,1004.4153,0,0
1.8,-9.193097,3.0036905,-0.6807364,1004.3979,0,0
1.84,-9.479919,2.8416288,-0.70914596,1004.3778,0,0
1.88,-9.264866,2.8368628,-0.4818979000000001,1004.3879,0,0
1.92,-9.413079,3.2277215,-0.8369819,1004.39056,0,0
1.96,-9.159783,3.418385,-1.0263612,1004.4105,0,0
2.0,-9.374911,3.3802533,-0.63340896,1004.40076,0,0
2.04,-8.748794,3.575683,-0.9837583,1004.3985,0,0
2.08,-8.9639225,3.3325894,-0.6334156999999999,1004.38574,0,0
2.12,-9.451496,3.0513635,-0.32094815,1004.39606,0,0
2.16,-9.126507,3.0322978,-0.58134377,1004.3886,0,0
2.2,-9.289057,3.1752956,-0.31148607,1004.4191,0,0
2.24,-9.007085,3.3421261,-0.46299034,1004.40656,0,0
2.28,-9.241327,3.2801616,-0.6050255,1004.38403,0,0
2.32,-9.341525,3.2563243,-0.49611774,1004.3996,0,0
2.36,-8.9352665,3.4469874,-0.49138573,1004.3996,0,0
2.4,-9.174284,3.275392,-0.4393097,1004.3921,0,0
2.44,-9.26513,3.2086608,-0.51032853,1004.43756,0,0
2.48,-9.298615,3.160996,-0.1978603,1004.3894,0,0
2.52,-9.303424,3.199129,-1.0973998,1004.402,0,0
2.56,-9.112258,3.346893,-0.96010447,1004.4124,0,0
2.6,-9.442091,3.4040918,-0.600292,1004.39746,0,0
2.64,-8.782506,3.5280237000000003,-1.026391,1004.4075,0,0
2.68,-9.313092,3.442226,-0.66657895,1004.3949,0,0
2.72,-9.270101,3.418394,-0.34464183,1004.41003,0,0
2.76,-8.9498825,3.4326943999999995,-0.29730037,1004.405,0,0
2.8,-9.088522,3.303998200000001,-0.41566285,1004.41504,0,0
2.84,-9.212827,3.3182983,-0.3493839,1004.438,0,0
2.88,-9.012101,3.3802642999999994,-0.7139355,1004.3979,0,0
2.92,-9.365833,3.1085715,-0.6334529999999999,1004.40283,0,0
2.96,-9.490136,3.084739,-0.69973725,1004.38275,0,0
3.0,-9.122119,3.018008,-0.889116,1004.4284,0,0
3.04,-9.1795025,3.0323083,-0.8417743000000001,1004.4384,0,0
3.08,-9.408963,3.1896055,-0.5340406999999999,1004.42334,0,0
3.12,-9.0027075,3.2992368,-1.0642966,1004.42615,0,0
3.16,-9.270401,3.5089657,-0.6666088000000001,1004.40857,0,0
3.2,-8.997981,3.3421376000000005,-0.8512533999999999,1004.3884,0,0
3.24,-9.127063,3.337371,-0.54825383,1004.3985,0,0
3.28,-9.19401,3.1133437,-0.40148997,1004.41595,0,0
3.32,-9.262236,3.027578,-0.59098595,1004.4113,0,0
3.36,-9.458278,3.1276772,-0.97447914,1004.419,0,0
3.4,-9.434458,3.4375055,-0.2690602,1004.4112,0,0
3.44,-8.712788,3.6329362,-0.2927395,1004.4066,0,0
3.48,-9.152604,3.332645,-0.44898176,1004.4141,0,0
3.52,-9.219602,3.3993788,-0.4584579000000001,1004.4167,0,0
3.56,-9.24358,3.1991854,-0.32116744,1004.42194,0,0
3.6,-9.200642,3.3088179,-0.5720982,1004.4317,0,0
3.64,-9.028648,3.418451,-0.89877945,1004.43695,0,0
3.68,-9.296398,3.2802230000000003,-0.59578484,1004.42944,0,0
3.72,-9.353831,3.3088238,-0.6904798000000001,1004.40936,0,0
3.76,-9.12448,3.3374252,-0.46797007,1004.4272,0,0
3.8,-9.062418,3.518556,-0.6100091,1004.4423,0,0
3.84,-9.11986,3.2992964,-0.9035499,1004.4095,0,0
3.88,-9.339801,3.346964,-0.55321044,1004.43256,0,0
3.92,-9.263404,3.199203,-0.63843703,1004.42505,0,0
3.96,-9.363865,3.1706057,-0.7852114,1004.43,0,0
4.0,-9.187093,3.304071,-0.4869511,1004.40247,0,0
4.04,-8.766544,3.5090344,-0.42067632,1004.4202,0,0
4.08,-8.7666235,3.6853993,-0.2597139,1004.4429,0,0
4.12,-9.144308,3.5471706,-0.80891216,1004.4078,0,0
4.16,-9.254319,3.5376399,-0.761575,1004.40515,0,0
4.2,-9.311757,3.394645,-0.6290189,1004.41254,0,0
4.24,-9.072846,3.4327796000000004,-0.79473037,1004.42285,0,0
4.28,-9.034688,3.4137151,-0.8562849,1004.42285,0,0
4.32,-9.35501,3.4756822999999994,-0.34971052,1004.4002,0,0
4.36,-9.013716,3.594799,-0.3590029000000001,1004.4025,0,0
4.4,-8.989818,3.647231,-0.6099265,1004.41254,0,0
4.44,-9.391322,3.3993702000000003,-0.7945683000000001,1004.4105,0,0
4.48,-8.985041,3.5614328,-0.8655845,1004.4203,0,0
4.52,-9.286169,3.3469381,-0.33533138,1004.4206,0,0
4.56,-9.094978,3.4899347,-0.79456866,1004.40796,0,0
4.6,-9.085421,3.518534,-0.6809432,1004.405,0,0
4.64,-8.822533,3.694897,-0.6998809,1004.4381,0,0
4.68,-9.032845,3.5900326,-0.5105048,1004.41327,0,0
4.72,-8.946811,3.5661998,-0.71881866,1004.4105,0,0
4.76,-9.090205,3.294506,-1.0028832,1004.40045,0,0
4.8,-9.7068,3.1801088,-0.8561165999999999,1004.4083,0,0
4.84,-9.023291,3.4518025000000003,-1.021821,1004.40295,0,0
4.88,-9.152347,3.4279697,-0.64780307,1004.40295,0,0
4.92,-9.166687,3.5471337,-0.6856785,1004.418,0,0
4.96,-8.951597,3.5995657,-0.936602,1004.40826,0,0
5.0,-8.975497,3.6615312000000007,-0.81350756,1004.4409,0,0
5.04,-9.353103,3.4232035000000005,-0.7046163000000001,1004.41833,0,0
5.08,-9.037637,3.3183392999999994,-0.6620068,1004.41327,0,0
5.12,-9.25273,3.2182415,-0.5247092,1004.436,0,0
5.16,-9.243171,3.2182415,-0.6336006999999999,1004.43585,0,0
5.2,-8.975503,3.5471337,-0.60045993,1004.4183,0,0
5.24,-8.946827,3.3564718,-0.9366028,1004.4334,0,0
5.28,-9.506064,3.2802067000000004,-0.45842808,1004.4184,0,0
5.32,-9.453487,3.1896422,-0.8040397,1004.41327,0,0
5.36,-9.158308,3.3183682,-0.8088810000000001,1004.41583,0,0
5.4,-8.986279,3.3708012000000003,-0.48221108,1004.3979,0,0
5.44,-8.804692,3.4041681000000006,-1.050344,1004.4007,0,0
5.48,-9.493032,3.2707057,-0.7000024,1004.39307,0,0
5.52,-8.90516,3.4661355000000005,-0.8183664,1004.41364,0,0
5.56,-9.115519,3.399405,-0.7000105999999999,1004.4158,0,0
5.6,-9.287638,3.3660405,-0.5579828,1004.4385,0,0
5.64,-8.991335000000003,3.3565083,-0.7189566,1004.41064,0,0
5.68,-9.182573,3.3803425,-0.49170944,1004.4234,0,0
5.72,-8.938847,3.513807,-0.68582404,1004.4058,0,0
5.76,-8.852858,3.437543,-0.8467982,1004.40826,0,0
5.8,-9.077553,3.3231468,-0.8041925,1004.41864,0,0
5.84,-9.254453,3.1896843999999995,-0.9178224,1004.4209,0,0
5.88,-9.130224,3.389881,-0.9746397,1004.39325,0,0
5.92,-8.996437,3.5281123999999995,-0.7568613000000001,1004.4057,0,0
5.96,-9.273712,3.4804475,-0.50120777,1004.39557,0,0
6.0,-9.383692,3.8188746,-0.52488387,1004.4057,0,0
6.04,3.3139480000000003,5.343994,8.338586,1004.41394,0,0
6.08,3.0893126,5.0865993,9.735237,1004.48425,0,0
6.12,2.8981411,5.444091,8.935124,1004.49445,0,0
6.16,3.275758,5.963646,9.602676,1004.4921,0,0
6.2,3.3092372,6.8788240000000025,9.716305,1004.49994,0,0
6.24,4.442061,7.794002499999999,13.1771555,1004.54535,0,0
6.28,8.155987,9.419398,15.336045,1004.5376,0,0
6.32,4.7002034,7.426976,11.165035,1004.3997,0,0
6.36,3.8350768,7.798767999999999,6.799917,1004.32733,0,0
6.4,4.8130083,7.1028976,10.075948,1004.43756,0,0
6.44,5.9744415,6.9170035999999975,8.049617999999999,1004.4405,0,0
6.48,6.696147,5.5966682,7.1074677,1004.3985,0,0
6.52,-1.3339942,0.23429397,3.367281,1004.3586,0,0
6.56,-5.5976424000000025,-1.9011219,1.4451069,1004.3229,0,0
6.6,-9.889966,-3.4216519999999995,-1.6701369,1004.33075,0,0
6.64,-13.020796,-3.5122154,-0.3492435,1004.3663,0,0
6.68,-10.917739,-1.6770896,-0.82268906,1004.3713,0,0
6.72,-10.172145,-0.3424521,0.05317065,1004.40186,0,0
6.76,-8.374999,1.9693294,-0.48655692,1004.40674,0,0
6.8,-8.32726,3.0990047,-1.968431,1004.3818,0,0
6.84,-8.136127,3.7377248,-2.2951105,1004.4047,0,0
6.88,-10.14848,2.3697243,-1.5328764,1004.392,0,0
6.92,-10.535705,2.5699213,0.043674894000000006,1004.40247,0,0
6.96,-9.097044,3.9951234,0.5313131,1004.42535,0,0
7.0,-8.131578999999999,4.6529093,0.36560383,1004.4329,0,0
7.04,-8.246357000000001,4.433649,0.18095629,1004.4106,0,0
7.08,-9.058984,3.0894818,-0.10784789,1004.41565,0,0
7.12,-9.498781,2.9274204,-0.24515072,1004.41077,0,0
7.16,-9.259851,2.9369547000000003,-0.99319214,1004.4208,0,0
7.2,-9.355504,3.1085525,-0.41086543,1004.4136,0,0
7.24,-9.823986,3.0036893,0.3418991,1004.4112,0,0
7.28,-9.274365,3.2229528,0.17618981,1004.45636,0,0
7.32,-9.08323,3.5804458,-0.7991026999999999,1004.4341,0,0
7.36,-9.145427,3.3754852,-0.1599635,1004.4089,0,0
7.4,-9.173581,3.3373399,0.19043048,1004.40125,0,0
7.44,-9.082802,2.9941487,-0.22620049,1004.4421,0,0
7.48,-9.441321,2.8559194,-0.81800425,1004.41425,0,0
7.52,-9.857203,2.8368542000000003,-0.46766186,1004.43726,0,0
7.56,-9.2693205,3.394542,-0.42978978,1004.4019,0,0
7.6,-9.030368,3.5947382000000005,-0.486606,1004.3999,0,0
7.64,-8.762735000000001,3.6328716,-0.27356118,1004.425,0,0
7.68,-9.393706,3.532775,-0.7801458,1004.3999,0,0
7.72,-9.078274,3.3468802,-0.7990866,1004.405,0,0
7.76,-9.073528,3.4612784,-0.17888273,1004.4075,0,0
7.8,-9.03055,3.118087,-0.42980978,1004.4153,0,0
7.84,-9.193097,3.0036905,-0.6807364,1004.3979,0,0
7.88,-9.479919,2.8416288,-0.70914596,1004.3778,0,0
7.92,-9.264866,2.8368628,-0.4818979000000001,1004.3879,0,0
7.96,-9.413079,3.2277215,-0.8369819,1004.39056,0,0
8.0,-9.159783,3.418385,-1.0263612,1004.4105,0,0
8.04,-9.374911,3.3802533,-0.63340896,1004.40076,0,0
8.08,-8.748794,3.575683,-0.9837583,1004.3985,0,0
8.12,-8.9639225,3.3325894,-0.6334156999999999,1004.38574,0,0
8.16,-9.451496,3.0513635,-0.32094815,1004.39606,0,0
8.2,-9.126507,3.0322978,-0.58134377,1004.3886,0,0
8.24,-9.289057,3.1752956,-0.31148607,1004.4191,0,0
8.28,-9.007085,3.3421261,-0.46299034,1004.40656,0,0
8.32,-9.241327,3.2801616,-0.6050255,1004.38403,0,0
8.36,-9.341525,3.2563243,-0.49611774,1004.3996,0,0
8.4,-8.9352665,3.4469874,-0.49138573,1004.3996,0,0
8.44,-9.174284,3.275392,-0.4393097,1004.3921,0,0
8.48,-9.26513,3.2086608,-0.51032853,1004.43756,0,0
8.52,-9.298615,3.160996,-0.1978603,1004.3894,0,0
8.56,-9.303424,3.199129,-1.0973998,1004.402,0,0
8.6,-9.112258,3.346893,-0.96010447,1004.4124,0,0
8.64,-9.442091,3.4040918,-0.600292,1004.39746,0,0
8.68,-8.782506,3.5280237000000003,-1.026391,1004.4075,0,0
8.72,-9.313092,3.442226,-0.66657895,1004.3949,0,0
8.76,-9.270101,3.418394,-0.34464183,1004.41003,0,0
8.8,-8.9498825,3.4326943999999995,-0.29730037,1004.405,0,0
8.84,-9.088522,3.303998200000001,-0.41566285,1004.41504,0,0
8.88,-9.212827,3.3182983,-0.3493839,1004.438,0,0
8.92,-9.012101,3.3802642999999994,-0.7139355,1004.3979,0,0
8.96,-9.365833,3.1085715,-0.6334529999999999,1004.40283,0,0
9.0,-9.490136,3.084739,-0.69973725,1004.38275,0,0
9.04,-9.122119,3.018008,-0.889116,1004.4284,0,0
9.08,-9.1795025,3.0323083,-0.8417743000000001,1004.4384,0,0
9.12,-9.408963,3.1896055,-0.5340406999999999,1004.42334,0,0
9.16,-9.0027075,3.2992368,-1.0642966,1004.42615,0,0
9.2,-9.270401,3.5089657,-0.6666088000000001,1004.40857,0,0
9.24,-8.997981,3.3421376000000005,-0.8512533999999999,1004.3884,0,0
9.28,-9.127063,3.337371,-0.54825383,1004.3985,0,0
9.32,-9.19401,3.1133437,-0.40148997,1004.41595,0,0
9.36,-9.262236,3.027578,-0.59098595,1004.4113,0,0
9.4,-9.458278,3.1276772,-0.97447914,1004.419,0,0
9.44,-9.434458,3.4375055,-0.2690602,1004.4112,0,0
9.48,-8.712788,3.6329362,-0.2927395,1004.4066,0,0
9.52,-9.152604,3.332645,-0.44898176,1004.4141,0,0
9.56,-9.219602,3.3993788,-0.4584579000000001,1004.4167,0,0
9.6,-9.24358,3.1991854,-0.32116744,1004.42194,0,0
9.64,-9.200642,3.3088179,-0.5720982,1004.4317,0,0
9.68,-9.028648,3.418451,-0.89877945,1004.43695,0,0
9.72,-9.296398,3.2802230000000003,-0.59578484,1004.42944,0,0
9.76,-9.353831,3.3088238,-0.6904798000000001,1004.40936,0,0
9.8,-9.12448,3.3374252,-0.46797007,1004.4272,0,0
9.84,-9.062418,3.518556,-0.6100091,1004.4423,0,0
9.88,-9.11986,3.2992964,-0.9035499,1004.4095,0,0
9.92,-9.339801,3.346964,-0.55321044,1004.43256,0,0
9.96,-9.263404,3.199203,-0.63843703,1004.42505,0,0
10.0,-9.363865,3.1706057,-0.7852114,1004.43,0,0
10.04,-9.187093,3.304071,-0.4869511,1004.40247,0,0
10.08,-8.766544,3.5090344,-0.42067632,1004.4202,0,0
10.12,-8.7666235,3.6853993,-0.2597139,1004.4429,0,0
10.16,-9.144308,3.5471706,-0.80891216,1004.4078,0,0
10.2,-9.254319,3.5376399,-0.761575,1004.40515,0,0
10.24,-9.311757,3.394645,-0.6290189,1004.41254,0,0
10.28,-9.072846,3.4327796000000004,-0.79473037,1004.42285,0,0
10.32,-9.034688,3.4137151,-0.8562849,1004.42285,0,0
10.36,-9.35501,3.4756822999999994,-0.34971052,1004.4002,0,0
10.4,-9.013716,3.594799,-0.3590029000000001,1004.4025,0,0
10.44,-8.989818,3.647231,-0.6099265,1004.41254,0,0
10.48,-9.391322,3.3993702000000003,-0.7945683000000001,1004.4105,0,0
10.52,-8.985041,3.5614328,-0.8655845,1004.4203,0,0
10.56,-9.286169,3.3469381,-0.33533138,1004.4206,0,0
10.6,-9.094978,3.4899347,-0.79456866,1004.40796,0,0
10.64,-9.085421,3.518534,-0.6809432,1004.405,0,0
10.68,-8.822533,3.694897,-0.6998809,1004.4381,0,0
10.72,-9.032845,3.5900326,-0.5105048,1004.41327,0,0
10.76,-8.946811,3.5661998,-0.71881866,1004.4105,0,0
10.8,-9.090205,3.294506,-1.0028832,1004.40045,0,0
10.84,-9.7068,3.1801088,-0.8561165999999999,1004.4083,0,0
10.88,-9.023291,3.4518025000000003,-1.021821,1004.40295,0,0
10.92,-9.152347,3.4279697,-0.64780307,1004.40295,0,0
10.96,-9.166687,3.5471337,-0.6856785,1004.418,0,0
11.0,-8.951597,3.5995657,-0.936602,1004.40826,0,0
11.04,-8.975497,3.6615312000000007,-0.81350756,1004.4409,0,0
11.08,-9.353103,3.4232035000000005,-0.7046163000000001,1004.41833,0,0
11.12,-9.037637,3.3183392999999994,-0.6620068,1004.41327,0,0
11.16,-9.25273,3.2182415,-0.5247092,1004.436,0,0
11.2,-9.243171,3.2182415,-0.6336006999999999,1004.43585,0,0
11.24,-8.975503,3.5471337,-0.60045993,1004.4183,0,0
11.28,-8.946827,3.3564718,-0.9366028,1004.4334,0,0
11.32,-9.506064,3.2802067000000004,-0.45842808,1004.4184,0,0
11.36,-9.453487,3.1896422,-0.8040397,1004.41327,0,0
11.4,-9.158308,3.3183682,-0.8088810000000001,1004.41583,0,0
11.44,-8.986279,3.3708012000000003,-0.48221108,1004.3979,0,0
11.48,-8.804692,3.4041681000000006,-1.050344,1004.4007,0,0
11.52,-9.493032,3.2707057,-0.7000024,1004.39307,0,0
11.56,-8.90516,3.4661355000000005,-0.8183664,1004.41364,0,0
11.6,-9.115519,3.399405,-0.7000105999999999,1004.4158,0,0
11.64,-9.287638,3.3660405,-0.5579828,1004.4385,0,0
11.68,-8.991335000000003,3.3565083,-0.7189566,1004.41064,0,0
11.72,-9.182573,3.3803425,-0.49170944,1004.4234,0,0
11.76,-8.938847,3.513807,-0.68582404,1004.4058,0,0
11.8,-8.852858,3.437543,-0.8467982,1004.40826,0,0
11.84,-9.077553,3.3231468,-0.8041925,1004.41864,0,0
11.88,-9.254453,3.1896843999999995,-0.9178224,1004.4209,0,0
11.92,-9.130224,3.389881,-0.9746397,1004.39325,0,0
11.96,-8.996437,3.5281123999999995,-0.7568613000000001,1004.4057,0,0
12.0,-9.273712,3.4804475,-0.50120777,1004.39557,0,0
12.04,-9.383692,3.8188746,-0.52488387,1004.4057,0,0
12.08,-8.690669999999999,4.0238376,-0.90364075,1004.4312,0,0
12.12,-8.829331,3.8331766,-0.89417624,1004.4008,0,0
12.16,-8.934531,3.6663485,-1.0125403,1004.4134,0,0
12.2,-9.436457,3.4756868,-0.87524694,1004.43097,0,0
12.24,-9.465183,3.3517575,-0.58645254,1004.4412,0,0
12.28,-8.920328999999997,3.6568184,-0.7947703,1004.4134,0,0
12.32,-9.011189,3.5853207,-0.76636803,1004.40857,0,0
12.36,-9.121172,3.632988,-0.94627964,1004.41077,0,0
12.4,-8.963489,3.7187872,-0.8326585,1004.42865,0,0
12.44,-8.820136999999997,3.8093524,-0.6574896,1004.43604,0,0
12.48,-9.044836,3.6329913,-0.88474524,1004.40857,0,0
12.52,-8.997086,3.6043932,-0.8232023,1004.4312,0,0
12.56,-8.933644000000003,3.6377268,-0.8751614,1004.4284,0,0
12.6,-9.196534,3.5852947,-0.81834877,1004.4259,0,0
12.64,-9.435526,3.451831,-0.91303694,1004.4034,0,0
12.68,-8.842832000000003,3.6996922,-0.92724025,1004.39325,0,0
12.72,-8.842833,3.7473578,-0.7852081999999999,1004.4159,0,0
12.76,-9.019686,3.7282915,-0.9509125,1004.42847,0,0
12.8,-8.804596,3.713992,-0.8798965,1004.4058,0,0
12.84,-9.21566,3.466131,-0.7994117,1004.41077,0,0
12.88,-9.000569,3.6615598,-0.85149026,1004.42365,0,0
12.92,-8.804599000000003,3.7807238,-1.0456009,1004.41364,0,0
12.96,-9.186985,3.7282917,-0.8988345,1004.39325,0,0
13.0,-8.81894,3.8855882,-0.903569,1004.4184,0,0
13.04,-8.814162,3.8760555,-1.0692732,1004.39575,0,0
13.08,-9.12007,3.7378252,-1.064539,1004.4337,0,0
13.12,-9.000575999999997,3.8665223,-0.7710060000000001,1004.41583,0,0
13.16,-8.895421,3.7950237,-0.7757404999999999,1004.42615,0,0
13.2,-9.110514,3.8283896,-0.96511674,1004.4133,0,0
13.24,-8.838066,3.704459,-1.0171952,1004.42865,0,0
13.28,-8.933663000000003,3.6996927,-0.8136159000000001,1004.39075,0,0
13.32,-8.952785,3.6996927,-0.8656944999999999,1004.4209,0,0
13.36,-9.115298,3.5995948,-1.0645397,1004.42334,0,0
13.4,-9.163097,3.5185635000000004,-0.90830445,1004.40814,0,0
13.44,-9.014924,3.6043615,-0.9319765,1004.43097,0,0
13.48,-9.120081,3.5757625,-0.82308525,1004.4183,0,0
13.52,-9.091403,3.6710935,-0.5390210999999999,1004.42114,0,0
13.56,-8.881129,3.728293,-0.8893705,1004.4008,0,0
13.6,-9.110562,3.5757637000000004,-0.7094633,1004.42615,0,0
13.64,-9.067547,3.6949275,-0.9556526,1004.4184,0,0
13.68,-8.890697,3.613896,-1.1355603,1004.42084,0,0
13.72,-9.167928,3.4232337,-0.89884025,1004.39307,0,0
13.76,-9.124912,3.5566974,-0.58163524,1004.4159,0,0
13.8,-9.215731,3.494732,-0.50115067,1004.4008,0,0
13.84,-9.029321,3.6186626,-0.9414506,1004.39825,0,0
13.88,-9.019764,3.6567953,-0.979326,1004.4233,0,0
13.92,-8.962408,3.7092276,-0.57690185,1004.40826,0,0
13.96,-9.005429,3.6758614,-0.8088879,1004.4007,0,0
14.0,-9.096248,3.718761,-1.0692803,1004.39307,0,0
14.04,-9.139269,3.5900638,-1.002999,1004.3982,0,0
14.08,-9.1201515,3.718761,-0.7852166,1004.43335,0,0
14.12,-9.086696,3.5423982000000005,-0.87517047,1004.43085,0,0
14.16,-9.134496,3.4470673,-1.0740157,1004.4435,0,0
14.2,-9.1631775,3.2993035,-0.96985906,1004.41327,0,0
14.24,-8.995887,3.4613671000000004,-0.74260783,1004.41565,0,0
14.28,-9.340035,3.5233326000000003,-0.22182353,1004.42584,0,0
14.32,-8.900295,3.5376322,-0.5484977,1004.418,0,0
14.36,-8.847721,3.628197,-1.0740169,1004.40295,0,0
14.4,-9.43086,3.3183706,-0.652655,1004.4381,0,0
14.44,-9.077156,3.4947329,-0.8041562,1004.4356,0,0
14.48,-9.210992999999998,3.3231370000000005,-0.9177821,1004.4183,0,0
14.52,-9.230114,3.3088377,-0.7426094,1004.408,0,0
14.56,-8.962005,3.2945269999999995,-0.7094282,1004.4409,0,0
14.6,-9.21054,3.2420948,-0.69522375,1004.4105,0,0
14.64,-9.506874,3.2277946,-0.3780173,1004.4203,0,0
14.68,-9.019319,3.5233207,-0.5673921,1004.4025,0,0
14.72,-8.952386,3.871279,-0.6573443,1004.4155,0,0
14.76,-8.794637,3.7664144,-0.82778156,1004.4356,0,0
14.8,-9.119649,3.618651,-0.50110626,1004.418,0,0
14.84,-9.325167,3.652016,-0.6384026999999999,1004.4281,0,0
14.88,-9.133958,3.6806154,-0.8325118,1004.4151,0,0
14.92,-9.004886,3.6949146,-0.99348,1004.4302,0,0
14.96,-9.000094,3.5805168,-0.690477,1004.4028,0,0
15.0,-8.928379,3.4661190000000004,-0.8230386000000001,1004.4151,0,0
15.04,-8.976166000000003,3.2945225,-1.0266169,1004.3952,0,0
15.08,-9.205578,3.2420902000000003,-1.0076777,1004.41534,0,0
15.12,-8.880536,3.4565847,-0.7283464,1004.4428,0,0
15.16,-8.91398,3.580515,-0.8135643,1004.4203,0,0
15.2,-9.162518,3.437518,-0.9603298,1004.4253,0,0
15.24,-9.157722,3.4565835,-0.685733,1004.4028,0,0
15.28,-9.296323,3.4422836,-0.31171370000000004,1004.4127,0,0
15.32,-9.229386,3.4518166,-0.6573235,1004.41,0,0
15.36,-9.124216,3.5137812999999993,-0.6241814,1004.4099,0,0
15.4,-8.741816,3.7711751,-0.5294918000000001,1004.42786,0,0
15.44,-8.971232,3.6567774,-0.7330699,1004.4177,0,0
15.48,-9.085932,3.4232156,-0.9177102,1004.4125,0,0
15.52,-9.348811,3.3135843,-0.75200504,1004.4225,0,0
15.56,-9.109898,3.2992866000000003,-0.8656377000000001,1004.4529,0,0
15.6,-9.205483,3.3183527,-0.78041756,1004.3974,0,0
15.64,-9.176792,3.380318,-0.78988516,1004.4351,0,0
15.68,-8.956913,3.5900462,-0.52002347,1004.412,0,0
15.72,-8.880422,3.4422822,-0.6999295999999999,1004.415,0,0
15.76,-9.348831,3.2659194,-1.1496968,1004.4125,0,0
15.8,-9.238884,3.427982,-0.68572426,1004.4017,0,0
15.84,-8.880391,3.4994802000000003,-0.75200516,1004.40936,0,0
15.88,-9.162386,3.466114,-0.93191135,1004.4175,0,0
15.92,-9.01898,3.4613473,-1.0360671,1004.41956,0,0
15.96,-9.033307,3.3040504,-1.0171283000000002,1004.42755,0,0
16.0,-9.530397,3.3326497,-0.8419545,1004.43195,0,0
16.04,-9.563845,3.6996741,-0.3259034,1004.4247,0,0
16.08,-8.732146,4.181096,-0.6667794,1004.4218,0,0
16.12,-8.474027,4.0952980000000005,-0.965046,1004.4169,0,0
16.16,-8.885078,3.895102,-0.45846358,1004.46234,0,0
16.2,-8.765573,3.628175,-0.486869,1004.42426,0,0
16.24,-9.157505,3.3946133,-0.75672907,1004.4167,0,0
16.28,-9.568557,3.2754493,-1.0739331,1004.41174,0,0
16.32,-9.449051,3.3326473,-0.69517976,1004.4242,0,0
16.36,-8.856342999999997,3.4661107,-0.9413678,1004.4392,0,0
16.4,-9.205257,3.4851768,-1.0076482,1004.40686,0,0
16.44,-8.885,3.7092044,-1.0549915,1004.3865,0,0
16.48,-9.133537,3.6424727,-0.42531452,1004.3893,0,0
16.52,-8.994913,3.733037,-0.54840803,1004.44934,0,0
16.56,-8.785387,3.71399,-0.83254415,1004.41943,0,0
16.6,-9.081755,3.6710916,-0.889359,1004.4141,0,0
16.64,-9.067436,3.518562,-0.8562199,1004.41156,0,0
16.68,-9.215631,3.4661303,-0.8656905999999999,1004.4165,0,0
16.72,-9.172631,3.5328627,-0.7710043000000001,1004.41144,0,0
16.76,-8.991019,3.6138945,-0.9698512,1004.4167,0,0
16.8,-9.0101595,3.5566964,-0.9603843,1004.41156,0,0
16.84,-8.9098,3.5995958,-0.7899473000000001,1004.4339,0,0
16.88,-9.029316,3.604363,-0.8041523,1004.4163,0,0
16.92,-9.282668,3.5995967,-0.8183576,1004.40894,0,0
16.96,-8.943321000000003,3.8045592,-0.6952649000000001,1004.4161,0,0
17.0,-8.986359,3.7425945,-0.77575153,1004.4137,0,0
17.04,-9.230148,3.8569922,-0.52956426,1004.4085,0,0
17.08,-8.718729,3.7235293,-0.8893809000000001,1004.4286,0,0
17.12,-9.378363,3.485202,-0.6289904000000001,1004.4085,0,0
17.16,-9.091593,3.4852026,-0.85624355,1004.3985,0,0
17.2,-9.101174,3.5567012000000005,-0.64319736,1004.4111,0,0
17.24,-9.077293,3.4041717000000005,-0.5863862,1004.4007,0,0
17.28,-8.905242,3.5710017999999994,-0.8089050999999999,1004.42615,0,0
17.32,-9.043876,3.470905,-0.70475006,1004.3982,0,0
17.36,-9.082134,3.5042713,-0.9462065,1004.39307,0,0
17.4,-9.2590065,3.4899720000000003,-0.6668784000000001,1004.4033,0,0
17.44,-9.15387,3.4852061,-0.57219213,1004.4032,0,0
17.48,-9.149112,3.413708,-0.8041796999999999,1004.408,0,0
17.52,-9.201709,3.3374434,-1.0124955,1004.41565,0,0
17.56,-9.229132,3.3088133,-0.6478313,1004.4183,0,0
17.6,-9.219545,3.4375098,-0.48212475,1004.3827,0,0
17.64,-9.157377,3.5519066,-0.7425142,1004.3952,0,0
17.68,-8.846658999999997,3.6377037,-1.1165293,1004.3902,0,0
17.72,-8.937445,3.594804,-0.92715037,1004.4105,0,0
17.76,-8.970875999999997,3.5566707,-0.68095875,1004.42804,0,0
17.8,-9.075998,3.3898401,-1.0028954,1004.3826,0,0
17.84,-9.34364,3.1896446,-0.7472349,1004.38983,0,0
17.88,-9.114179,3.2659085,-0.827717,1004.4025,0,0
17.92,-9.157168,3.2373087000000003,-0.8797928,1004.42004,0,0
17.96,-9.10934,3.3278725,-0.97447807,1004.41284,0,0
18.0,-9.214465,3.2563734,-1.0123506,1004.40753,0,0
18.04,-9.013682,3.3231041,-0.97920686,1004.4126,0,0
18.08,-9.056675,3.2230065,-0.8750475000000001,1004.4125,0,0
18.12,-9.219155,3.2706707,-1.0123425,1004.40753,0,0
18.16,-9.31472,3.2563703,-1.1354342,1004.4024,0,0
18.2,-9.1091585,3.189638,-1.02654,1004.4049,0,0
18.24,-9.36724,3.0800064,-0.9129117,1004.4073,1,1
18.28,-9.309852,3.0466397,-0.983925,1004.392,1,1
18.32,-8.870078,3.4708626,-1.1969702,1004.42004,1,1
18.36,-8.88439,3.361231,-1.4668288,1004.4023,1,1
18.4,-9.128128,3.1038360000000003,-1.9355319,1004.39233,1,1
18.44,-9.065963,2.8321416,-1.7840284,1004.3971,1,1
18.48,-9.1902075,2.4889488,-1.8645104,1004.4071,1,1
18.52,-8.879491,2.5366137,-2.068087,1004.4124,1,1
18.56,-8.158695,3.1372232,-2.1297219,1004.3996,1,1
18.6,-8.474169999999999,3.43275,-1.6941574,1004.43225,1,1
18.64,-9.363224,4.0285697,-1.8030497,1004.40967,1,1
18.68,-9.975048,3.5471475,-1.6610183999999997,1004.39667,1,1
18.72,-10.333541,3.5137822999999995,-1.1355002,1004.39655,1,1
18.76,-8.407289500000001,3.8808072,-0.084463075,1004.4142,1,1
18.8,-8.536353,3.8522084,-0.5484356,1004.4017,1,1
18.84,-10.008541,3.637713,-0.30698177,1004.41425,1,1
18.88,-10.706401,3.8045428,-0.06079350400000001,1004.4014,1,1
18.92,-10.046797,4.395596,0.31795806,1004.41675,1,1
18.96,-8.569846,4.457561,-0.037123047,1004.38617,1,1
19.0,-7.3940234,4.2001677000000015,-0.9603329,1004.4067,1,1
19.04,-7.532646700000001,3.8665092,-0.24543847,1004.38904,1,1
19.08,-6.920840299999999,3.923708,-0.32592413,1004.3915,1,1
19.12,-7.508764699999999,3.7664115,-0.0892047,1004.40125,1,1
19.16,-8.80888,4.114371,0.28481242,1004.4087,1,1
19.2,-9.090897,5.0390825,0.6730329,1004.4264,1,1
19.24,-8.832796,6.159224,0.3179517,1004.4191,1,1
19.28,-9.396821,6.5596147,0.56887436,1004.40405,1,1
19.32,-9.181739,6.77411,0.34162214,1004.3834,1,1
19.36,-8.985776,5.687335,-0.31172657,1004.3988,1,1
19.4,-9.129179,4.3336334,-1.8693465,1004.3883,1,1
19.44,-9.392077,3.7759466,-2.5321639,1004.3759,1,1
19.48,-8.268832000000002,4.3336344,-1.6563,1004.40576,1,1
19.52,-8.053749,4.5052304,-0.6052628000000001,1004.42346,1,1
19.56,-8.263276,4.305015,-0.5578469,1004.4311,1,1
19.6,-7.469806,4.1381855000000005,-1.7035706999999998,1004.40826,1,1
19.64,-7.2307929999999985,3.752094,-1.9686952,1004.40826,1,1
19.68,-7.8425865,3.7759264,-1.0786253,1004.4286,1,1
19.72,-7.0491147,4.405110400000001,-1.3295466,1004.3881,1,1
19.76,-7.316762400000001,4.953264,-1.0454803,1004.4208,1,1
19.8,-8.693322,5.4728184,-0.57203764,1004.41565,1,1
19.84,-9.238197,5.773111,-0.70933336,1004.39294,1,1
19.88,-9.625339,6.6644564,-1.1685685,1004.43066,1,1
19.92,-11.102276,6.4642610000000005,0.33697423,1004.45325,1,1
19.96,-10.380505,6.1925664000000005,0.8719639000000001,1004.43317,1,1
20.0,-7.737251,5.9923706,-0.76613814,1004.3651,1,1
20.04,-7.268805499999999,5.458515599999999,0.062384896,1004.37756,1,1
20.08,-7.942736599999999,5.5300129999999985,1.0755495000000002,1004.45044,1,1
20.12,-7.6559258,5.4537477,0.47901654,1004.4127,1,1
20.16,-7.0154104,5.849372,0.07185971,1004.4052,1,1
20.2,-6.542187,5.763573,0.5405679,1004.415,1,1
20.24,-6.910209,5.506178,1.255465,1004.4125,1,1
20.28,-6.8002524000000015,5.291682700000001,0.5973848,1004.4125,1,1
20.32,-7.2208524,5.591975,-0.01335134,1004.39215,1,1
20.36,-7.2973050000000015,6.1925607000000005,-0.18378769,1004.42505,1,1
20.4,-7.330742,6.6739826,0.7299544,1004.3974,1,1
20.44,-7.378517599999999,7.5653276,0.5547835,1004.4049,1,1
20.48,-7.5553484,7.932353,0.30859640000000005,1004.4073,1,1
20.52,-8.697699,7.4318633,-0.1837796,1004.41473,1,1
20.56,-10.977644,6.149659,-0.34001294,1004.4024,1,1
20.6,-10.112475,4.981852,-1.6230345,1004.4074,1,1
20.64,-7.163314,4.5385620000000015,-1.3579056,1004.3921,1,1
20.68,-7.641273,4.0809717,0.2896691,1004.4245,1,1
20.72,-8.009294500000001,3.699647,-0.6288034,1004.432,1,1
20.76,-7.4309173,3.8331099,-2.3426557,1004.3843,1,1
20.8,-6.957694,4.1477017,-1.3010848,1004.39685,1,1
20.84,-7.6268435,4.0905027,0.38436544,1004.437,1,1
20.88,-7.2014179999999985,4.729221,0.1523817,1004.43695,1,1
20.92,-8.061760000000001,5.3631725,-0.8134348000000001,1004.4268,1,1
20.96,-9.309266,5.5157013,0.15238588,1004.4194,1,1
21.0,-8.606614,5.9589906,0.4364520000000001,1004.42426,1,1
21.04,-10.418136,5.758795,-0.46308267,1004.40906,1,1
21.08,-11.632182,4.9484797,0.22340806,1004.4016,1,1
21.12,-8.530068,5.339337,-0.60511076,1004.41394,1,1
21.16,-8.15722,5.630096400000001,0.6258366,1004.45154,1,1
21.2,-8.152419,5.5490646,0.20447661,1004.4417,1,1
21.24,-8.463084,4.8769794,-0.2642275,1004.38104,1,1
21.28,-7.918164699999997,4.772114,0.1571366,1004.4036,1,1
21.32,-7.3111067,4.853145,0.7489393,1004.4137,1,1
21.36,-7.0003967000000005,5.019974,0.6447845,1004.42377,1,1
21.4,-6.9435600000000015,5.224949,1.0045515,1004.4312,1,1
21.44,-6.6806602,5.5729074,0.261251,1004.39606,1,1
21.48,-7.421518300000002,6.092461599999999,0.51217544,1004.40607,1,1
21.52,-8.320109,5.5490737,0.33226907,1004.4085,1,1
21.56,-9.156566,5.491874,0.23758194,1004.4058,1,1
21.6,-9.333407,5.2773795,-0.65248513,1004.3755,1,1
21.64,-10.70042,4.872222,-1.3815826,1004.4282,1,1
21.68,-10.815125,5.09625,-1.0549076000000002,1004.4309,1,1
21.72,-9.0609255,5.062884,-0.9933594,1004.4158,1,1
21.76,-8.243569,4.443231,-0.8039821999999999,1004.41315,1,1
21.8,-9.734856,3.8140454,0.19971263,1004.4229,1,1
21.84,-8.157511999999999,3.7187145,-0.7850427,1004.4028,1,1
21.88,-6.384194,3.7473133,-1.6325002,1004.41284,1,1
21.92,-7.254107,3.5566506,-0.18377125,1004.4329,1,1
21.96,-7.564783599999997,3.618615600000002,-1.2016673,1004.4102,1,1
22.0,-7.741625999999999,3.485152,-2.7734888,1004.40533,1,1
22.04,-10.055039,2.9941962,-1.8834195,1004.4077,1,1
22.08,-9.925975,3.6138482000000014,-0.29739302,1004.4174,1,1
22.12,-8.267371,4.5147276,-0.9933495,1004.42535,1,1
22.16,-8.754901,4.9770827,-1.1590527,1004.42004,1,1
22.2,-9.572235,5.282142,-1.0643636,1004.3945,1,1
22.24,-9.744298,5.172511,-0.4062803,1004.43536,1,1
22.28,-9.667811,4.63389,-0.013323862,1004.44507,1,1
22.32,-9.729937,3.8998399,-0.26898068,1004.41223,1,1
22.36,-9.022515,3.718711,-0.051197015,1004.42706,1,1
22.4,-8.089428999999999,4.0952435,0.29450834,1004.4399,1,1
22.44,-8.548241,4.0285106,0.58804595,1004.4145,1,1
22.48,-9.236481,4.1905723,0.47915936,1004.432,1,1
22.52,-8.877943,4.5814285,0.28505352,1004.3918,1,1
22.56,-8.337777,5.0723825,0.34187084,1004.4245,1,1
22.6,-7.324406599999999,5.55857,0.21404667,1004.3767,1,1
22.64,-7.424730999999999,5.796897,0.30873954,1004.40686,1,1
22.68,-8.218119,5.205842,0.33241692,1004.4194,1,1
22.72,-8.915928,4.872182,0.2472015,1004.4217,1,1
22.76,-9.551591,4.62432,0.2945503,1004.40405,1,1
22.8,-8.777207,4.810214,-0.5813095,1004.4091,1,1
22.84,-8.480801,4.347857,-0.5955074,1004.4091,1,1
22.88,-8.724527,4.242992,-0.8274894,1004.39856,0,0
22.92,-8.385117,4.0189624,-1.3956137,1004.38104,0,0
22.96,-8.585813499999999,3.7282012,-1.4950311,1004.376,0,0
23.0,-8.819975,3.7329667,-1.0547271,1004.40375,0,0
23.04,-8.270242999999999,4.0284915,-1.2772391,1004.39374,0,0
23.08,-9.202255,3.9903579,-1.0168424,1004.4289,0,0
23.12,-8.929744,4.467012,-0.5860058000000001,1004.4086,0,0
23.16,-8.188832000000001,4.6862726,-1.0452392,1004.4113,0,0
23.2,-8.834052999999997,4.324013,-0.93160874,1004.39343,0,0
23.24,-9.235512,3.9236212,-0.76590043,1004.39343,0,0
23.28,-8.919992,3.8235226,-0.7990364999999999,1004.4186,0,0
23.32,-8.800446,4.123814,-0.46762338,1004.4135,0,0
23.36,-8.566184,4.2429767,-0.8274334000000001,1004.4006,0,0
23.4,-8.964232,4.0380473,-0.8985707,1004.43115,0,0
23.44,-9.241465,4.0809464,-0.96011835,1004.4106,0,0
23.48,-8.859083,4.06188,-0.870165,1004.41815,0,0
23.52,-8.9499035,4.0714135,-0.53875697,1004.3902,0,0
23.56,-8.596200999999999,4.181044,-0.6665863000000001,1004.40814,0,0
23.6,-8.457591,4.509937,-1.2347151,1004.438,0,0
23.64,-8.782621,4.3002086,-0.9317136,1004.42804,0,0
23.68,-8.921239,3.9951491,-0.25942847,1004.42535,0,0
23.72,-9.284508,3.5518594,-0.26416326,1004.4203,0,0
23.76,-9.246274,3.7043889,-0.6571191,1004.3901,0,0
23.8,-8.897352,3.9856162,-0.07005331,1004.39746,0,0
23.84,-8.467175,4.25731,-0.30203956,1004.36957,0,0
23.88,-8.730065,4.1715117,-0.40146226,1004.39215,0,0
23.92,-8.926042,4.1333795,-0.4204003,1004.41504,0,0
23.96,-8.878248,4.3192754,-0.4298695,1004.4198,0,0
24.0,-9.045546,4.204878,-0.64291805,1004.4324,0,0
24.04,-8.687063,4.443206,-0.89857626,1004.38214,0,0
24.08,-8.629709,4.3383417,-0.7234036,1004.41223,0,0
24.12,-8.806566,4.228711,-0.93645215,1004.4019,0,0
24.16,-8.452865,4.262077,-0.9127805,1004.4045,0,0
24.2,-8.663179,4.2859097,-0.76127976,1004.4095,0,0
24.24,-9.002549,4.4241405,-0.62398255,1004.38153,0,0
24.28,-8.658407,4.3431087,-1.0169384,1004.38666,0,0
24.32,-8.615392,4.328809,-0.74707764,1004.3918,0,0
24.36,-8.777909,4.3907743,-0.20262143,1004.39417,0,0
24.4,-8.671655,4.238217400000001,-0.55760115,1004.4215,0,0
24.44,-8.728974000000001,4.3621473,-0.8558650999999999,1004.4117,0,0
24.48,-8.575979,4.32878,-0.77064216,1004.4218,0,0
24.52,-8.599836,4.385978,-0.9505456,1004.40643,0,0
24.56,-8.991742,4.2191477,-0.6996187,1004.4039,0,0
24.6,-9.034721,4.414575599999999,-0.5291766,1004.41144,0,0
24.64,-8.571036999999999,4.3335433,-0.87004983,1004.434,0,0
24.68,-8.55188,4.2096114,-0.6712013000000001,1004.4064,0,0
24.72,-8.642658,4.095212999999998,-0.6096505999999999,1004.4341,0,0
24.76,-8.905507,4.161944,-0.8368984,1004.3985,0,0
24.8,-8.676036,4.3192396,-0.9505203,1004.4162,0,0
24.84,-8.87197,4.2858725,-0.8132191,1004.4313,0,0
24.88,-8.977084,4.385969599999999,-0.680652,1004.42084,0,0
24.92,-8.413025,4.5146656,-0.79427373,1004.4158,0,0
24.96,-8.738012,4.343068,-0.6806446,1004.41583,0,0
25.0,-8.766651,4.2763352,-0.7327193000000001,1004.3932,0,0
25.04,-8.661456,4.233435,-0.8368726000000001,1004.4179,0,0
25.08,-8.761792999999999,4.204835,-0.8037281,1004.3881,0,0
25.12,-8.919485,4.176235,-0.83686537,1004.3981,0,0
25.16,-8.795171,4.247732,-0.8273928,1004.4204,0,0
25.2,-8.852489,4.3335295,-0.7516388,1004.40546,0,0
25.24,-8.584781,4.638588,-1.030965,1004.40533,0,0
25.28,-8.197578,4.767284,-0.92680454,1004.3901,0,0
25.32,-8.622937,4.4622235,-0.73742443,1004.4102,0,0
25.36,-8.78541,4.3192260000000005,-0.73742074,1004.4077,0,0
25.4,-8.885749,4.1762285000000015,-0.5669787,1004.3823,0,0
25.44,-8.90005,4.2048264,-0.6569289,1004.37225,0,0
25.48,-8.675355999999999,4.3287554,-0.9078485,1004.3921,0,0
25.52,-8.708774,4.4288526,-0.5006859,1004.38983,0,0
25.56,-8.541789,4.405027,-0.87946653,1004.4124,0,0
25.6,-8.857229,4.285863,-0.8037135,1004.3819,0,0
25.64,-8.943234,4.1666985,-0.88419557,1004.37445,0,0
25.68,-8.814150999999997,4.2906275,-0.87472415,1004.4175,0,0
25.72,-8.680292,4.2620277,-0.70901775,1004.3844,0,0
25.76,-8.608566,4.4622226,-0.70901513,1004.387,0,0
25.8,-8.412566,4.528954,-0.9457327,1004.4095,0,0
25.84,-8.622847,4.376423,-0.99307406,1004.38934,0,0
25.88,-9.129479,4.1237955,-0.87471145,1004.39935,0,0
25.92,-8.852222,4.4288535000000016,-0.8084272,1004.4296,0,0
25.96,-8.312078,4.5051184,-0.9646601,1004.4018,0,0
26.0,-8.742231,4.3668876,-0.95045435,1004.40686,0,0
26.04,-8.6705065,4.3525867,-0.7184658,1004.4141,0,0
26.08,-8.909467999999997,4.114259,-0.5385558000000001,1004.40643,0,0
26.12,-8.837744,4.0522923,-0.8510241,1004.4064,0,0
26.16,-8.718221,4.13809,-1.0735386999999998,1004.39105,0,0
26.2,-8.823348,4.2620196,-0.87469083,1004.4086,0,0
26.24,-8.546091,4.605211,-1.1871593,1004.39874,0,0
26.28,-8.522164,4.567078,-0.98357713,1004.38873,0,0
26.32,-8.732447,4.385948,-0.7705263000000001,1004.39606,0,0
26.36,-8.455189,4.3573475,-0.85574293,1004.4212,0,0
26.4,-8.856667,4.309682,-0.978835,1004.4063,0,0
26.44,-9.057389,4.290615,-0.8083939,1004.4136,0,0
26.48,-8.627181,4.47651,-0.9598924,1004.4111,0,0
26.52,-8.531554,4.4574428,-0.988296,1004.3834,0,0
26.56,-8.727708,4.452681,-0.7894677,1004.4038,0,0
26.6,-8.388319000000001,4.486046,-0.76579356,1004.3935,0,0
26.64,-9.08137,4.0475225,-0.80366683,1004.39825,0,0
26.68,-8.89016,4.128554,-1.0829951999999998,1004.38574,0,0
26.72,-8.756302999999999,4.2095838,-1.1256027,1004.40814,0,0
26.76,-8.756287,4.347814,-1.182414,1004.41565,0,0
26.8,-8.751485,4.3525800000000014,-0.97409827,1004.403,0,0
26.84,-8.61763,4.4050117,-0.993034,1004.39795,0,0
26.88,-8.646289999999999,4.46221,-0.69476473,1004.40814,0,0
26.92,-8.541113000000001,4.514642,-0.76577896,1004.393,0,0
26.96,-8.517194,4.371645,-0.86993396,1004.3854,0,0
27.0,-8.741824000000001,4.2810793,-1.1019179,1004.3724,0,0
27.04,-8.856522,4.185748,-1.0735098,1004.3824,0,0
27.08,-8.794364999999999,4.2810783,-1.1397896,1004.3774,0,0
27.12,-8.526672999999999,4.4193077,-1.1397877,1004.40546,0,0
27.16,-8.823002,4.3954744,-0.940941,1004.39746,0,0
27.2,-8.521855,4.385941000000001,-1.149253,1004.39465,0,0
27.24,-8.665230000000001,4.3954735000000005,-1.0119535,1004.39496,0,0
27.28,-8.756026,4.266776,-1.0450926,1004.4151,0,0
27.32,-8.736885000000001,4.238176,-1.1871227,1004.3846,0,0
27.36,-8.755985,4.447904,-0.96933836,1004.3972,0,0
27.4,-8.512196000000001,4.5241685,-1.0687588,1004.3897,0,0
27.44,-8.794186,4.30014,-0.8130993000000001,1004.435,0,0
27.48,-8.693789,4.2810736,-0.84623843,1004.412,0,0
27.52,-8.856281,4.1905084000000015,-0.85570514,1004.3895,0,0
27.56,-8.837489,4.0951853,-0.8510008,1004.4045,0,0
27.6,-8.651071,4.271548,-0.9362195,1004.4122,0,0
27.64,-8.832697999999997,4.2620144,-0.75631166,1004.4019,0,0
27.68,-8.584142,4.4193106,-0.9504217,1004.4017,0,0
27.72,-8.588914,4.4622097,-0.9788274,1004.37646,0,0
27.76,-8.818339,4.3907110000000005,-0.8557323,1004.38403,0,0
27.8,-8.8231125,4.247714,-1.1208584,1004.4142,0,0
27.84,-8.789648,4.219115,-0.841528,1004.39154,0,0
27.88,-8.784862,4.2000484,-0.74683934,1004.3991,0,0
27.92,-8.813533999999997,4.2906127,-0.76577646,1004.4166,0,0
27.96,-8.818308,4.25248,-0.89360476,1004.4011,0,0
28.0,-8.579312,4.4050097,-1.1492621,1004.4011,0,0
28.04,-8.550626,4.5575395,-1.1966056,1004.40356,0,0
28.08,-8.517161999999999,4.476508,-0.94568145,1004.36365,0,0
28.12,-8.684448,4.4145427,-0.8604616,1004.4166,0,0
28.16,-8.732241,4.3382773,-0.88413304,1004.4061,0,0
28.2,-8.670097,4.4574413,-0.9740862,1004.3984,0,0
28.24,-8.564935,4.4193087,-0.8320533999999999,1004.40137,0,0
28.28,-8.713102000000001,4.4288416,-0.8983346999999999,1004.41113,0,0
28.32,-8.593601,4.466974,-0.93147486,1004.3807,0,0
28.36,-8.655732,4.433607,-0.9740839,1004.3704,0,0
28.4,-8.741762,4.3144436,-0.8604575999999999,1004.3857,0,0
28.44,-8.612701,4.4097743,-0.8083786000000001,1004.4237,0,0
28.48,-9.224509,4.2858443,-0.6616115,1004.408,0,0
28.52,-8.794323,4.5098720000000005,-0.61426693,1004.43097,0,0
28.56,-8.124765,4.795856,-0.82254547,1004.43097,0,0
28.6,-8.425871,4.486029,-0.9835133,1004.38544,0,0
28.64,-8.793897,4.200035,-1.0450587,1004.39325,0,0
28.68,-9.247956,4.1619024,-0.77993006,1004.40295,0,0
28.72,-8.746057,4.38593,-1.0213828,1004.39545,0,0
28.76,-8.588298,4.3525634,-0.69944113,1004.3904,0,0
28.8,-8.559599,4.447894,-0.76098657,1004.3999,0,0
28.84,-8.626494000000001,4.390695,-0.5952804,1004.3874,0,0
28.88,-8.621694,4.5241574999999985,-0.74204504,1004.3974,0,0
28.92,-8.765069,4.4145265,-1.0781858999999998,1004.38983,0,0
28.96,-8.831964,4.362094,-0.78465086,1004.4098,0,0
29.0,-8.631189,4.395459,-0.9834938,1004.3872,0,0
29.04,-8.726764,4.3144274000000005,-1.0213671,1004.4277,0,0
29.08,-8.6263685,4.343026,-0.8840674999999999,1004.4126,0,0
29.12,-8.870116000000003,4.2381616,-0.8982688,1004.39215,0,0
29.16,-8.702803999999999,4.314426,-1.0071582,1004.39746,0,0
29.2,-8.702782000000001,4.414523,-0.86985844,1004.42004,0,0
29.24,-8.745778999999999,4.39069,-0.75149643,1004.41223,0,0
29.28,-8.521106,4.5384525999999985,-1.2864821000000002,1004.39465,0,0
29.32,-8.740953999999999,4.409754799999999,-0.9550718,1004.38434,0,0
29.36,-8.630999000000001,4.3001237,-0.87458503,1004.4069,0,0
29.4,-8.769591,4.2333913,-0.86037993,1004.417,0,0
29.44,-8.726553,4.376387599999998,-1.0260823,1004.38684,0,0
29.48,-8.893825999999997,4.204791,-1.0828931,1004.3868,0,0
29.52,-8.77431,4.2524557000000005,-1.0260783000000002,1004.4145,0,0
29.56,-8.802619,4.1904817,-0.95976293,1004.4421,0,0
29.6,-8.740447999999999,4.214314,-1.0023696,1004.3941,0,0
29.64,-8.640035000000001,4.3477764,-1.0828508999999995,1004.4091,0,0
29.68,-8.429689999999999,4.524138,-0.79404914,1004.4067,0,0
29.72,-8.726005,4.538437,-0.7088269,1004.39136,0,0
29.76,-8.324464,4.7481647,-0.92187166,1004.4265,0,0
29.8,-8.314871,4.8053620000000015,-0.8745245,1004.40643,0,0
29.84,-8.826276,4.547967400000001,-0.8413806,1004.41394,0,0
29.88,-8.443856,4.652831,-1.0875665,1004.3964,0,0
29.92,-8.568094,4.462168,-0.713545,1004.4215,0,0
29.96,-8.902645,4.304869999999998,-0.6046505,1004.4341,0,0
30.0,-8.505888,4.5098314,-0.9218525,1004.43396,0,0
30.04,-8.907355,4.571796,-0.5288937,1004.41644,0,0
30.08,-8.658772,4.791057,-1.1443633999999998,1004.4064,0,0
30.12,-8.443648,4.9006867,-1.2153764,1004.3583,0,0
30.16,-8.515309,4.757689,-0.98338723,1004.4136,0,0
30.2,-8.453134,4.567026,-1.1396191,1004.4413,0,0
30.24,-8.825925,4.3143973,-0.74666053,1004.41315,0,0
30.28,-8.911928999999997,4.2953305,-0.74665743,1004.3902,0,0
30.32,-8.610766,4.347762,-0.8129358,1004.4233,0,0
30.36,-8.481676,4.4478583,-0.82713586,1004.44824,0,0
30.4,-8.510319,4.5717883000000015,-0.7750541,1004.42816,0,0
30.44,-8.701476,4.462157,-0.94548947,1004.4206,0,0
30.48,-8.763580000000001,4.4335559999999985,-0.988096,1004.3777,0,0
30.52,-8.591472,4.5956187,-1.0496398999999998,1004.4027,0,0
30.56,-8.840836,4.571806,-1.0686521999999998,1004.41034,0,0
30.6,-8.793036,4.6719035999999985,-0.92188555,1004.3876,0,0
30.64,-8.358073,4.624238,-1.0118392,1004.4152,0,0
30.68,-8.439327,4.433575,-0.94082296,1004.41254,0,0
30.72,-8.726115,4.0903835,-0.6236176999999999,1004.4152,0,0
30.76,-9.132397,3.9616864,-0.5573359,1004.395,0,0
30.8,-8.821709,4.2190804,-0.6188831,1004.42505,0,0
30.84,-8.711772,4.3239446,-0.8319310999999999,1004.41504,0,0
30.88,-8.630513,4.543206,-0.7987901999999999,1004.4024,0,0
30.92,-8.329385,4.772001,-0.7041019000000001,1004.41473,0,0
30.96,-8.625731,4.490774,-0.6851643,1004.4225,0,0
31.0,-8.754785,4.223846400000001,-0.8508683000000001,1004.4098,0,0
31.04,-8.807363,4.157115,-0.77511775,1004.4072,0,0
31.08,-8.8121395,4.085617,-0.8698056999999999,1004.4198,0,0
31.12,-8.831258,4.266746,-1.0355097,1004.3894,0,0
31.16,-8.515789999999999,4.3239446,-1.0781193,1004.4122,0,0
31.2,-8.687861,4.486007,-0.7798516,1004.4197,0,0
31.24,-8.558805,4.4192753,-0.8271956,1004.41693,0,0
31.28,-8.730878,4.462175,-0.8603363000000002,1004.4223,0,0
31.32,-8.797792,4.4526415,-0.75617933,1004.42194,0,0
31.36,-8.539683,4.6576033,-1.0591811000000002,1004.3995,0,0
31.4,-8.592259,4.5384392999999985,-0.7798510999999999,1004.41425,0,0
31.44,-8.726092999999999,4.428808,-0.7751166,1004.42676,0,0
31.48,-8.869486,4.643303,-0.83192927,1004.42194,0,0
31.52,-8.807347,4.700501999999998,-0.7845852,1004.41675,0,0
31.56,-8.14723,4.6623573,-0.67564774,1004.4469,0,0
31.6,-8.395757000000001,4.323931,-0.8697562,1004.4318,0,0
31.64,-9.002772,4.1189684999999985,-0.4910020000000001,1004.43933,0,0
31.68,-9.01709,3.9330728,-0.5714849,1004.4165,0,0
31.72,-8.825875,4.104668,-0.75612473,1004.43896,0,0
31.76,-9.055285,4.238131,-0.56201226,1004.4264,0,0
31.8,-8.233139,4.5670233,-1.1443422,1004.4187,0,0
31.84,-8.758894,4.538423000000001,-0.80819726,1004.37335,0,0
31.88,-8.495984,4.490757,-0.7655858,1004.38116,0,0
31.92,-8.658478,4.3715925,-0.7561150999999999,1004.4112,0,0
31.96,-8.983482,4.1666303,-0.5856745,1004.4135,0,0
32.0,-8.734911,4.352525,-0.7419079000000001,1004.4109,0,0
32.04,-8.763569,4.295326,-0.91707885,1004.4438,0,0
32.08,-8.677512,4.395423,-1.0117652,1004.42346,0,0
32.12,-8.529318,4.333458,-1.1585298000000002,1004.3984,0,0
32.16,-8.859102,4.323924,-0.95968294,1004.4284,0,0
32.2,-8.777824,4.338223,-0.97861844,1004.42596,0,0
32.24,-8.677427,4.357288400000002,-0.86025643,1004.4286,0,0
32.28,-8.744324,4.204758,-0.78450423,1004.44617,0,0
32.32,-8.624805,4.195225,-0.9075966,1004.40546,0,0
32.36,-8.973713,4.018862,-0.79396904,1004.4458,0,0
32.4,-9.112306,4.0665264,-0.8034359000000001,1004.4184,0,0
32.44,-8.739459,4.314387,-0.9691382,1004.4053,0,0
32.48,-8.533907000000001,4.419251,-1.0922308,1004.40796,0,0
32.52,-8.505206,4.261954,-0.9928062,1004.43823,0,0
32.56,-8.787382000000001,4.133261,-0.7561014,1004.4384,0,0
32.6,-8.988119000000003,4.061763,-0.8223815999999999,1004.42786,0,0
32.64,-8.796913,4.2953234,-0.85078686,1004.41754,0,0
32.68,-8.78256,4.281023,-0.7276912,1004.3851,0,0
32.72,-8.715626,4.328688,-0.88865924,1004.4254,0,0
32.76,-8.763411,4.3763537,-0.7418915,1004.4351,0,0
32.8,-8.572205,4.3191547,-0.89339113,1004.4222,0,0
32.84,-8.86854,4.152325,-0.9407341,1004.4327,0,0
32.88,-8.873304,4.1380253,-0.9691392,1004.4124,0,0
32.92,-8.777696,4.1999893,-0.76555854,1004.43994,0,0
32.96,-8.6964245,4.247655,-0.7750260999999999,1004.4149,0,0
33.0,-8.658173,4.328686,-0.85077524,1004.3945,0,0
33.04,-8.524322999999999,4.3763514,-0.7229451,1004.4071,0,0
33.08,-8.834999,4.3477516,-0.84130406,1004.3919,0,0
33.12,-8.69637,4.3477516,-0.8697091999999998,1004.43,0,0
33.16,-8.873209,4.3334517,-0.78922296,1004.4222,0,0
33.2,-8.705905,4.3286843,-0.9359886,1004.4197,0,0
33.24,-8.67721,4.3954153,-1.0022688,1004.4198,0,0
33.28,-8.715435000000001,4.295318,-0.879173,1004.4349,0,0
33.32,-8.748878999999999,4.1570873,-0.7182019000000001,1004.43207,0,0
33.36,-8.691506,4.1570870000000015,-0.746607,1004.41187,0,0
33.4,-8.9065895,4.1427875,-0.8176223000000001,1004.42737,0,0
33.44,-8.681922,4.4669127,-0.68979174,1004.41187,0,0
33.48,-8.46682,4.700474,-0.680322,1004.41956,0,0
33.52,-8.677112,4.533643700000002,-1.1064167,1004.42224,0,0
33.56,-8.395721,4.7719865,-1.068598,1004.44214,0,0
33.6,-8.720761999999999,4.600391,-1.1490842,1004.40906,0,0
33.64,-8.806811,4.4430947,-1.1869606,1004.40936,0,0
33.68,-8.414878,4.433562,-1.2958528,1004.44965,0,0
33.72,-8.500926,4.4907613,-0.91236705,1004.4316,0,0
33.76,-8.42446,4.54796,-1.2201043,1004.42163,0,0
33.8,-8.515286999999999,4.571793,-1.1159486,1004.43207,0,0
33.84,-7.9273834,4.690957,-1.272185,1004.42676,0,0
33.88,-8.348017,4.352532,-1.3337332,1004.4418,0,0
33.92,-9.127135,4.1904693,-1.0070603,1004.4243,0,0
33.96,-8.730425,4.59086,-1.2059064,1004.4165,0,0
34.0,-8.682638,4.500296,-1.1254226,1004.429,0,0
34.04,-8.453217500000001,4.662359,-1.0496731,1004.4343,0,0
34.08,-8.596623,4.238136,-0.60464,1004.4391,0,0
34.12,-8.305066,4.5527287,-0.8034859999999999,1004.4264,0,0
34.16,-9.20368,4.514597,-0.09806077,1004.45416,0,0
34.2,-8.596656,4.528897,-0.83189446,1004.4164,0,0
34.24,-8.591887,4.314401599999999,-1.3148048,1004.4113,0,0
34.28,-9.036419,4.219071400000002,-1.5799325,1004.40375,0,0
34.32,-8.9790745,4.4145,-1.1775091,1004.4264,0,0
34.36,-8.481985,4.8530235,-1.0828221000000002,1004.4186,0,0
34.4,-8.070934,4.9912540000000005,-1.2437929,1004.449,0,0
34.44,-8.644522,4.8816237000000005,-1.03548,1004.44653,0,0
34.48,-8.061397,5.072286,-1.0260123,1004.42865,0,0
34.52,-8.467691,4.8101254,-1.0638885,1004.4111,0,0
34.56,-8.475331,4.8625107000000005,-1.1489321,1004.42096,0,0
34.6,-8.21716,5.0102730000000015,-0.6470795,1004.45404,0,0
34.64,-8.131053,5.2962637,-0.5571194,1004.43646,0,0
34.68,-8.441678999999999,4.9149379999999985,-0.8222405,1004.43365,0,0
34.72,-8.398595,5.010268,-0.64706147,1004.42615,0,0
34.76,-8.5945015,5.000733,-0.22569339,1004.44354,0,0
34.8,-8.116454,5.37729,-0.60443974,1004.4536,0,0
34.84,-7.734008999999999,5.2056913,-1.6886128,1004.4135,0,0
34.88,-8.656445,5.3057876,-0.7464602,1004.42865,0,0
34.92,-7.6574,5.5631804,-0.97843987,1004.4233,0,0
34.96,-8.197452,5.138954599999999,-1.0778564,1004.4387,0,0
35.0,-8.928699499999997,4.8958592,-0.9026778,1004.4211,0,0
35.04,-8.297699,4.94829,-1.5986292,1004.42816,0,0
35.08,-8.890329,4.7290263,-0.6328047,1004.45593,0,0
35.12,-8.402727,4.7909904,-1.2956156,1004.4433,0,0
35.16,-8.034616,5.181846599999999,-0.58071446,1004.4357,0,0
35.2,-7.9389585999999985,5.4058730000000015,0.19099915,1004.45306,0,0
35.24,-7.9341087,5.2819405,-0.50968635,1004.4254,0,0
35.28,-8.34989,5.301006,-0.841089,1004.43835,0,0
35.32,-8.302026,5.4344673,-0.68958205,1004.438,0,0
35.36,-8.053414,5.582228700000001,-0.9357653,1004.4405,0,0
35.4,-7.833477,5.601294,-1.3145118,1004.4254,0,0
35.44,-7.909892,4.8052769999999985,-0.9925666,1004.4052,0,0
35.48,-8.4595,4.995938,-1.0067633,1004.41815,0,0
35.52,-8.722322,5.377261,0.24312553,1004.4178,0,0
35.56,-7.562192,5.7538519999999975,-0.86958414,1004.4128,0,0
35.6,-8.1023,5.7538514,0.14831367,1004.43304,0,0
35.64,-8.044933,5.39636,-0.82223845,1004.42285,0,0
35.68,-8.608941999999999,5.119899299999998,-1.328819,1004.4227,0,0
35.72,-8.575475,4.7004423,-1.91115,1004.4277,0,0
35.76,-8.164403,4.738574,-1.2720046,1004.4203,0,0
35.8,-8.699733,4.4144483,-0.6944064,1004.42535,0,0
35.84,-8.53721,4.695675,-0.8032968,1004.3996,0,0
35.88,-8.33645,4.967368,-0.5144974,1004.4123,0,0
35.92,-8.302982,5.129431200000001,-0.36299565,1004.4403,0,0
35.96,-8.384231,5.2724275999999985,-0.46241736,1004.39734,0,0
36.0,-8.207369,5.3057933,-0.78909045,1004.4072,0,0
36.04,-8.245598,5.329625599999999,-0.80802727,1004.4046,0,0
36.08,-8.283828999999999,5.262894,-0.74647933,1004.4301,0,0
36.12,-8.01137,5.4392557,-0.5855085999999999,1004.39734,0,0
36.16,-7.958784599999999,5.3391585,-1.0494795,1004.4099,0,0
36.2,-8.312481,5.1103635,-0.82696176,1004.3893,0,0
36.24,-8.465425,5.038865,-0.8411641,1004.42944,0,0
36.28,-8.073473,5.424956,-0.92638254,1004.4223,0,0
36.32,-8.15472,5.339157599999999,-1.3430094,1004.4198,0,0
36.36,-8.283767,5.339157599999999,-1.0636787,1004.4071,0,0
36.4,-8.3793545,5.124662,-0.9831931,1004.4395,0,0
36.44,-8.6231165,5.010265,-0.49554864,1004.4348,0,0
36.48,-8.235944,4.8482018,-1.0920829,1004.3943,0,0
36.52,-8.34109,4.419211,-1.3335366000000002,1004.4169,0,0
36.56,-8.671077,4.271452,-0.81750304,1004.42694,0,0
36.6,-8.32215,4.50978,-0.88851905,1004.3964,0,0
36.64,-8.312589,4.724275,-0.8837844000000001,1004.419,0,0
36.68,-8.489441000000001,4.6956754,-0.98320687,1004.414,0,0
36.72,-8.460761,4.8482056,-0.77015847,1004.40906,0,0
36.76,-8.508557000000001,4.7290416,-0.99740976,1004.4292,0,0
36.8,-8.752325,4.681376,-0.95480007,1004.4166,0,0
36.84,-8.221766,4.7814736,-0.84117424,1004.41156,0,0
36.88,-8.436856,4.9626025999999985,-0.9737375,1004.42914,0,0
36.92,-8.231323,5.153265,-1.1015662,1004.4267,0,0
36.96,-7.9875526,5.177098,-0.9453308,1004.4138,0,0
37.0,-8.408174,4.8863373,-0.8648458000000001,1004.42145,0,0
37.04,-8.451189999999999,5.010268,-0.70861036,1004.41144,0,0
37.08,-8.025786,5.172331,-1.0589561,1004.40906,0,0
37.12,-8.599362,4.9101706,-0.83643913,1004.4088,0,0
37.16,-8.546782499999999,4.7433405,-0.6754691999999999,1004.39105,0,0
37.2,-8.613699,4.976902,-0.9027205,1004.4315,0,0
37.24,-8.403386,4.934003,-0.7370161999999999,1004.41394,0,0
37.28,-8.250432,4.934003,-0.8932515,1004.4212,0,0
37.32,-8.541998,4.7195077,-1.06369,1004.4212,0,0
37.36,-8.417722,4.8148394,-1.0021427,1004.4315,0,0
37.4,-8.479858,4.8434386,-0.751219,1004.42896,0,0
37.44,-8.398601,4.9816685,-0.9216575,1004.4287,0,0
37.48,-8.3986,4.9149365,-0.6186554,1004.42145,0,0
37.52,-8.264764,5.0198007,-0.87904763,1004.4262,0,0
37.56,-8.432433,4.9816775,-0.6092211,1004.3958,0,0
37.6,-8.1361,5.0293436,-0.5666127,1004.4286,0,0
37.64,-8.327306,5.0722427,-0.6660365,1004.4286,0,0
37.68,-8.461155,4.967378599999999,-0.45772398,1004.41864,0,0
37.72,-8.274756,4.8291492,-0.443522,1004.4211,0,0
37.76,-8.332127999999999,4.9387803,-0.50033605,1004.43115,0,0
37.8,-8.131389,4.948314,-0.4482589,1004.3905,0,0
37.84,-8.026246,4.938781,-0.71338665,1004.4159,0,0
37.88,-7.906764999999999,4.605122,-0.60449666,1004.4184,0,0
37.92,-8.370421,4.7814856,-0.8459527,1004.4106,1,2
37.96,-7.696483,5.057946,-1.0211269,1004.4156,1,2
38.0,-7.686936,5.1675773000000005,-0.7607358,1004.41046,1,2
38.04,-7.6391516,5.386839,-0.94537884,1004.4156,1,2
38.08,-7.204203999999999,5.520303,-1.1110842,1004.4081,1,2
38.12,-7.6057196,5.911161,-1.6602764,1004.446,1,2
38.16,-8.43264,5.8444295,-1.5892617,1004.4231,1,2
38.2,-8.026369,6.3687515,-1.8165143,1004.4105,1,2
38.24,-7.710917999999999,6.187622,-2.0106263,1004.4708,1,2
38.28,-7.8113084000000015,6.259121,-2.076909,1004.4608,1,2
38.32,-7.0608907000000025,6.3401527,-2.1053169,1004.47577,1,2
38.36,-7.2664366,6.0303273,-2.209475,1004.44293,1,2
38.4,-7.7157526,6.011261,-1.8970056,1004.4303,1,2
38.44,-7.433757300000001,6.08276,-2.6071675,1004.4555,1,2
38.48,-7.428991000000001,6.645214,-2.6923878,1004.42554,1,2
38.52,-7.7827106,6.5546494000000015,-2.1952765,1004.40045,1,2
38.56,-9.378642,6.235277,-2.1431506,1004.3678,1,2
38.6,-8.905435,7.083724,-2.2899165,1004.3423,1,2
38.64,-9.55548,8.146666999999999,0.7116968000000001,1004.4377,1,2
38.68,-7.930340299999999,7.917871499999999,0.34241396,1004.4176,1,2
38.72,-6.0996675000000025,7.4269156,-0.73229516,1004.4226,1,2
38.76,-5.0337634000000016,7.8034729999999985,0.5507291999999999,1004.4376,1,2
38.8,-5.143692,7.3601837,1.2466873,1004.4427,1,2
38.84,-6.1617823,6.36874,0.4086984,1004.4149,1,2
38.88,-6.2621503,6.5403357,0.10096285,1004.41754,1,2
38.92,-6.166547,6.2638755,-0.102615915,1004.4377,1,2
38.96,-6.63496,5.5488915,0.2808716,1004.41,1,2
39.0,-6.8882823,5.420194,-0.64233655,1004.3999,1,2
39.04,-6.52979,5.4249606,0.1341064,1004.3899,1,2
39.08,-7.437945,7.3983145000000015,1.2514267,1004.44006,1,2
39.12,-7.930258,6.6833315,0.7353772,1004.4248,1,2
39.16,-8.350872,6.7023973,1.1946151000000005,1004.4218,1,2
39.2,-8.776267,6.6880975000000005,0.36609498,1004.46747,1,2
39.24,-7.887217,6.9359584000000005,1.095194,1004.4349,1,2
39.28,-8.408207,7.26485,-0.22096984,1004.44995,1,2
39.32,-8.957877,7.3268156000000015,0.4465819,1004.47504,1,2
39.36,-8.121404,7.1361527,0.2714096,1004.4449,1,2
39.4,-7.241913,5.0817666,-0.8885189,1004.42456,1,2
39.44,-6.8977594,4.552678599999999,-0.22096710000000008,1004.42206,1,2
39.48,-7.4569899999999985,4.323884,-0.50029635,1004.42725,1,2
39.52,-8.140493,4.7052083,-0.7985631,1004.46246,1,2
39.56,-6.824719,5.3343606,-1.3144916000000002,1004.47473,1,2
39.6,-6.6621447,5.129398,-1.0919691,1004.45233,1,2
39.64,-7.393394,4.5860085,-0.60905415,1004.40466,1,2
39.68,-7.551069999999997,5.405855,-1.1913806999999998,1004.40674,1,2
39.72,-7.751761,5.1246266,-1.6932220000000002,1004.4094,1,2
39.76,-7.966787299999999,5.453517400000001,-1.3239325000000002,1004.41943,1,2
39.8,-8.6072235,5.548847,-0.097716525,1004.41693,1,2
39.84,-8.444653500000001,6.1446652,-1.0966707,1004.442,1,2
39.88,-9.419669,6.2781277,0.101139635,1004.4267,1,2
39.92,-9.749422,6.5021544,0.27631748,1004.43195,1,2
39.96,-8.802957000000003,6.8215116999999985,0.93914,1004.4345,1,2
40.0,-7.684422,6.711879700000001,1.4078517,1004.4444,1,2
40.04,-8.659444,5.6680026,1.351044,1004.4521,1,2
40.08,-8.291342,5.3629417,0.83973354,1004.4267,1,2
40.12,-6.986391499999999,6.049324,1.4646808,1004.41943,1,2
40.16,-6.293259,6.0207233,1.6919380000000002,1004.4041,1,2
40.2,-5.624029599999999,6.2352165999999976,1.5783174,1004.39905,1,2
40.24,-6.2835817,5.973055,1.1711642,1004.4341,1,2
40.28,-6.4125752,5.9444537,1.6872200000000002,1004.42163,1,2
40.32,-6.9143940000000015,5.8681874,1.6398814,1004.4041,1,2
40.36,-6.5319524000000015,7.121791,1.6256834,1004.40125,1,2
40.4,-7.081569,7.464981,0.5699168000000001,1004.4141,1,2
40.44,-8.391173,8.022667,-0.08342554,1004.42163,1,2
40.48,-8.367218,7.636574,0.049143024,1004.38904,1,2
40.52,-8.175968,7.684238400000001,-0.097618304,1004.3812,1,2
40.56,-8.985329,7.1885552,-1.0967216,1004.4518,1,2
40.6,-7.1881274999999984,6.564136500000001,-2.26612,1004.40106,1,2
40.64,-7.283728,5.496428,-1.172473,1004.3606,1,2
40.68,-7.5896406,6.139913,-1.0588478,1004.3757,1,2
40.72,-8.043727,5.682324,-0.58540773,1004.41364,1,2
40.76,-6.5858917,5.834853599999999,-0.11670214,1004.4134,1,2
40.8,-6.7866483,5.8300870000000025,0.13422087,1004.39886,1,2
40.84,-7.384129,5.8729863,0.2525805,1004.4064,1,2
40.88,-8.182362,6.5546039999999985,0.16736074,1004.4059,1,2
40.92,-8.368778,6.5641375,0.5413783000000001,1004.43115,1,2
40.96,-6.5285597,6.46404,-0.1687829,1004.42084,1,2
41.0,-6.7866735,5.901586,-0.5191293,1004.45624,1,2
41.04,-7.441511599999999,5.3295994,-0.29187834,1004.4286,1,2
41.08,-7.2025266000000014,6.31151,-0.6611623000000001,1004.43115,1,2
41.12,-8.148932,5.811022,-0.7842574000000001,1004.41315,1,2
41.16,-8.450064999999999,5.553628,0.6739389,1004.40857,1,2
41.2,-8.555226,6.7691,0.8775177,1004.41064,1,2
41.24,-8.172847,6.1589813,1.6871005,1004.4155,1,2
41.28,-7.0878362999999975,5.6060605,3.017468,1004.4286,1,2
41.32,-8.698635000000001,6.0636497,2.065852,1004.43604,1,2
41.36,-9.4108305,6.2161803,2.5676985,1004.4332,1,2
41.4,-8.674746,5.93972,1.4314408,1004.43854,1,2
41.44,-8.292367,5.9826190000000015,1.1473761999999998,1004.41595,1,2
41.48,-6.7580547000000015,6.054117,0.99114037,1004.3883,1,2
41.52,-5.9885116,5.9921527,0.10580616,1004.39545,1,2
41.56,-6.4476285,6.3067513,0.83961546,1004.4105,1,2
41.6,-6.156077,6.330585,-0.0031100623,1004.4231,1,2
41.64,-6.41898,6.4735812999999975,0.3851098,1004.38043,1,2
41.68,-7.422753299999999,6.745275500000001,0.05370017,1004.4131,1,2
41.72,-8.10628,6.9121055999999985,-1.6696246,1004.4482,1,2
41.76,-9.258229,5.4535394,-1.4897186000000002,1004.38794,1,2
41.8,-9.320381,5.772899,-1.2009213,1004.37036,1,2
41.84,-8.259279,5.8729973,-1.1346409,1004.3726,1,2
41.88,-6.763216000000001,5.996928,-1.3429561,1004.4005,1,2
41.92,-8.24019,5.0722165,-1.3618952,1004.4231,1,2
41.96,-8.904598,5.019785,-2.0909948,1004.46075,1,2
42.0,-7.781359700000001,5.5107408,-2.06259,1004.4504,1,2
42.04,-7.269934700000001,5.768135,-1.873215,1004.45544,1,2
42.08,-7.011841,5.6251388,-2.3087814,1004.43036,1,2
42.12,-7.6810284,5.4154105,-1.948968,1004.4101,1,2
42.16,-7.819658,5.1770825,-1.7974685,1004.3925,1,2
42.2,-8.178157,5.467843,-2.299317,1004.43744,1,2
42.24,-8.417161,5.086519,-1.2672179,1004.4027,0,0
42.28,-8.302466,5.577475,-1.8968955,1004.42487,0,0
42.32,-8.168643,5.477377400000001,-1.8542869,1004.44037,0,0
42.36,-7.4947050000000015,5.5536423,-1.6885841,1004.44745,0,0
42.4,-7.657233,4.8958583,-1.4802715,1004.4327,0,0
42.44,-8.316865,4.800527,-1.2104123,1004.39996,0,0
42.48,-8.020529,4.9482913,-1.3524455,1004.42505,0,0
42.52,-8.015763,5.1246540000000005,-1.1204610000000002,1004.4398,0,0
42.56,-8.784573,4.824342700000001,-1.4044576000000002,1004.45746,0,0
42.6,-8.383054,5.2866983,-1.7027236,1004.3924,0,0
42.64,-7.527455000000002,5.1532345,-0.89787364,1004.4149,0,0
42.68,-8.0341,4.91014,-1.1677333,1004.42224,0,0
42.72,-8.062762,4.4048843,-1.532281,1004.4044,0,0
42.76,-8.870534,4.552646599999999,-0.4954451,1004.4373,0,0
42.8,-8.124867,5.172299400000001,-1.5512156,1004.4549,0,0
42.84,-8.488121000000001,4.9625707000000014,-1.1061807,1004.41724,0,0
42.88,-8.564582000000001,4.7957405999999985,-0.5759258,1004.45264,0,0
42.92,-8.215639,5.0483675,-1.3807731,1004.4398,0,0
42.96,-8.707942999999998,4.9101370000000015,-0.7795022,1004.4423,0,0
43.0,-8.397243,5.2199636,-0.8789235999999999,1004.45685,0,0
43.04,-8.368549,5.4392242,-0.8457814,1004.4524,0,0
43.08,-8.043505,5.1484637000000015,-1.257673,1004.4597,0,0
43.12,-8.49279,4.905369,-0.61379254,1004.4395,0,0
43.16,-8.511894999999999,4.7719054000000005,-0.8363082000000001,1004.42957,0,0
43.2,-8.683955000000001,5.0006995000000005,-0.68007153,1004.4096,0,0
43.24,-8.25376,5.096030000000002,-1.2434647,1004.4497,0,0
43.28,-8.640905,4.7147055,-0.80789757,1004.4671,0,0
43.32,-7.995617399999999,4.8577023,-1.3097432,1004.437,0,0
43.36,-8.401885,4.938733,-0.9262549,1004.4596,0,0
43.4,-7.8904320000000014,5.148461,-1.0020041,1004.4472,0,0
43.44,-8.029031,5.0626626,-1.238723,1004.43695,0,0
43.48,-8.731647,4.776669,-1.219784,1004.4546,0,0
43.52,-8.487866,5.2199589999999985,-1.2103142,1004.42645,0,0
43.56,-8.024238,5.3295894,-1.2150499,1004.442,0,0
43.6,-7.962088,5.482119,-0.6611232,1004.42944,0,0
43.64,-8.71728,5.3248224,-0.4622768,1004.4621,0,0
43.68,-8.5212965,5.4010862999999985,-1.1961085,1004.4518,0,0
43.72,-7.885569999999999,5.2533226,-0.67058825,1004.4367,0,0
43.76,-8.267939,5.0054617,-0.89783835,1004.4114,0,0
43.8,-8.291829,4.9196634,-0.8457591,1004.42645,0,0
43.84,-7.971564999999999,5.105559,-0.6137716999999999,1004.4038,0,0
43.88,-8.224879,5.577448,-0.77947444,1004.44653,0,0
43.92,-8.086250999999999,5.791942,-1.035131,1004.45154,0,0
43.96,-7.8663672999999985,5.853907,-1.2197716,1004.45654,0,0
44.0,-8.153145,5.558381,-0.72739255,1004.4387,0,0
44.04,-8.798402000000003,5.939705,-1.1203465,1004.44904,0,0
44.08,-7.933243300000001,5.2151875,-0.0124946525,1004.44403,0,0
44.12,-7.8949914,4.8481627,-0.38177696,1004.43616,0,0
44.16,-8.047932000000001,4.6575,-0.45279184,1004.41846,0,0
44.2,-8.621494,4.829096,-0.21133581,1004.42114,0,0
44.24,-8.40161,5.110322,-0.8978234,1004.41595,0,0
44.28,-8.473293,4.6670322,-0.5427418,1004.4513,0,0
44.32,-8.635793,4.73853,-0.9072896,1004.4412,0,0
44.36,-8.296412,4.833861,-0.727381,1004.4259,0,0
44.4,-8.224706,4.910125700000001,-0.75578654,1004.4059,0,0
44.44,-8.583173,4.714696400000001,-0.8362699,1004.4534,0,0
44.48,-8.511463000000001,4.8290935,-0.9830351,1004.4434,0,0
44.52,-8.348935,4.7051620000000005,-1.0019715,1004.4534,0,0
44.56,-8.67854,4.6098266,-0.87885845,1004.4636,0,0
44.6,-8.472986,4.7289895999999985,-0.9167315,1004.4105,0,0
44.64,-8.229194,5.0626483,-1.1676531,1004.41565,0,0
44.68,-8.420367,4.838619,-1.011416,1004.4236,0,0
44.72,-8.922226,4.824319,-1.0398203,1004.4256,0,0
44.76,-8.396425,4.514493,-0.9214583,1004.4356,0,0
44.8,-8.305587,4.2952304,-1.0634886,1004.4458,0,0
44.84,-8.4680805,4.838617,-0.9545953,1004.4558,0,0
44.88,-8.367682,4.881516,-1.1108285,1004.4505,0,0
44.92,-8.463256,4.7957172,-1.0634825,1004.4126,0,0
44.96,-8.401098,4.65272,-1.0587463,1004.42804,0,0
45.0,-8.544472,4.829082499999998,-1.1771045,1004.4227,0,0
45.04,-8.444075,4.652719,-1.172368,1004.4483,0,0
45.08,-8.568327,4.7385163,-1.0634748,1004.4631,0,0
45.12,-8.23372,4.700383,-1.0350664,1004.4706,0,0
45.16,-8.577845,4.724216,-0.8930324000000001,1004.42053,0,0
45.2,-8.864614,4.466821,-1.1297507,1004.44775,0,0
45.24,-8.209757000000002,4.8862777,-0.8220124,1004.42523,0,0
45.28,-8.553882000000002,4.767113,-1.2197005,1004.4455,0,0
45.32,-8.902786,4.6479487,-1.3427931,1004.4327,0,0
45.36,-8.262273,4.833844,-1.4138073,1004.4678,0,0
45.4,-8.185775,4.6050487,-1.3238517,1004.43005,0,0
45.44,-8.75455,4.0568943,-0.9308940999999998,1004.4099,0,0
45.48,-8.486858999999999,4.495417,-1.0776587,1004.4226,0,0
45.52,-8.501178999999999,4.5621480000000005,-0.9782343,1004.46014,0,0
45.56,-8.855018,4.709914,-1.063466,1004.47034,0,0
45.6,-8.133255,4.9434757000000005,-0.9072294,1004.4424,0,0
45.64,-8.12368,4.891043,-0.77466464,1004.42523,0,0
45.68,-8.72592,4.609816,-0.93563294,1004.4625,0,0
45.72,-8.926656,4.485885,-0.74625546,1004.4377,0,0
45.76,-8.314826,4.910108599999999,-0.8125357,1004.47003,0,0
45.8,-8.716314,4.8910418,-0.98770726,1004.47253,0,0
45.84,-8.572905,4.6050477,-0.73678243,1004.42236,0,0
45.88,-8.458176,4.6431804,-1.0871271,1004.44995,0,0
45.92,-8.396024,4.6479464,-0.8409367,1004.42737,0,0
45.96,-8.682797,4.5764475,-0.9450921999999998,1004.4575,0,0
46.0,-8.644542999999999,4.762343,-1.0871229,1004.44995,0,0
46.04,-8.305163,4.9768376,-1.0776528,1004.47015,0,0
46.08,-8.850044,4.724210299999998,-1.2149493,1004.4625,0,0
46.12,-8.81179,4.581213,-1.0208373,1004.4851,0,0
46.16,-8.830895,4.161755,-0.8456629000000001,1004.4343,0,0
46.2,-8.658806,4.419149,-0.7509732,1004.447,0,0
46.24,-8.372003999999999,4.7385077,-1.1060524,1004.4575,0,0
46.28,-8.228596000000001,4.562145,-1.4753346,1004.4747,0,0
46.32,-8.553608,4.3190503,-1.0113616,1004.4243,0,0
46.36,-8.668308,4.400081,-1.0208290999999998,1004.4141,0,0
46.4,-8.620494,4.27615,-0.73676324,1004.4572,0,0
46.44,-8.998083,4.53831,-0.9829509,1004.45715,0,0
46.48,-8.543986,4.810004,-1.1817945,1004.4493,0,0
46.52,-8.271523,4.914868,-1.2717469,1004.4569,0,0
46.56,-8.567604,4.5812025,-1.2007063999999998,1004.467,0,0
46.6,-8.500661000000001,4.52877,-0.8929676,1004.4366,0,0
46.64,-8.275988,4.5764346,-1.2338427,1004.44916,0,0
46.68,-8.548411,4.4048376,-1.101277,1004.45685,0,0
46.72,-8.553165,4.1331434,-1.2717134,1004.46466,0,0
46.76,-9.121936,3.956781,-1.0776005,1004.40894,0,0
46.8,-8.763427,4.4525023,-1.087067,1004.44684,0,0
46.84,-8.438376,4.7575607,-1.0255175,1004.45917,0,0
46.88,-8.180239,4.8528910000000005,-1.1296719,1004.424,0,0
46.92,-8.672535,4.5192313,-1.3237803,1004.45404,0,0
46.96,-8.404841000000001,4.7003603,-1.2716994,1004.44403,0,0
47.0,-8.653366,4.4429655,-1.1107274,1004.44635,0,0
47.04,-8.414352000000001,4.709892,-1.186476,1004.4338,0,0
47.08,-8.677217,4.619326999999998,-0.9781597,1004.4264,0,0
47.12,-8.471658999999999,4.7861557,-1.2338152,1004.43854,0,0
47.16,-8.55767,4.7098900000000015,-1.2196096,1004.43896,0,0
47.2,-8.44771,4.6336246,-1.2243419,1004.43646,0,0
47.24,-8.462024000000001,4.438195,-1.2669492,1004.4415,0,0
47.28,-8.763127,4.3428636,-1.1817276,1004.42346,0,0
47.32,-8.328138000000001,4.90055,-1.1959285,1004.43353,0,0
47.36,-8.337672999999999,4.8862495,-1.300083,1004.45404,0,0
47.4,-8.590978999999999,4.709886,-1.2195958999999998,1004.4636,0,0
47.44,-8.70089,4.438192400000001,-1.058624,1004.43854,0,0
47.48,-8.337601,4.743251,-1.2574668,1004.4465,0,0
47.52,-8.562228,4.6908183,-0.9876035,1004.46136,0,0
47.56,-8.573116,4.6288857000000005,-1.1392261,1004.44354,0,0
47.6,-8.597046,4.2046633,-1.0871506000000002,1004.44086,0,0
47.64,-8.807386,4.447758,-1.3901552,1004.4533,0,0
47.68,-8.511066,4.6193550000000005,-1.0492803999999998,1004.4009,0,0
47.72,-8.334242999999999,4.5097246,-1.1202992,1004.4307,0,0
47.76,-8.448986999999999,4.519259,-1.3333501,1004.4254,0,0
47.8,-8.611527,4.5049595999999985,-1.2007892,1004.4433,0,0
47.84,-8.377347,4.709922,-1.29548,1004.4357,0,0
47.88,-8.420394,4.6098256,-1.1723882,1004.4331,0,0
47.92,-8.659411,4.576460400000001,-1.2150004,1004.45306,0,0
47.96,-8.649881,4.566928,-1.2339406000000002,1004.4483,0,0
48.0,-8.453938,4.748058,-1.1676615,1004.4505,0,0
48.04,-8.439627999999999,4.771891,-1.2623523,1004.438,0,0
48.08,-8.626066999999999,4.514497799999999,-1.2055421,1004.4458,0,0
48.12,-8.52094,4.7480597,-1.399655,1004.4302,0,0
48.16,-8.525748,4.543098400000001,-1.0303743,1004.4331,0,0
48.2,-8.195971499999999,4.748061,-1.2576283,1004.4306,0,0
48.24,-8.664422,4.533567,-1.3286473,1004.4404,0,0
48.28,-8.602310000000001,4.5574,-1.2671024,1004.4377,0,0
48.32,-8.525864,4.7289968,-1.0398536,1004.43536,0,0
48.36,-8.540234,4.738531,-1.4470152,1004.4327,0,0
48.4,-8.478123,4.8624616,-1.3712673,1004.47327,0,0
48.44,-8.621547,4.466839,-1.139284,1004.4455,0,0
48.48,-8.535539,4.5717034000000005,-1.3949444,1004.4706,0,0
48.52,-8.191422,4.5002055,-1.3239312,1004.4153,0,0
48.56,-8.734677,4.3428693,-1.2148894,1004.4454,0,0
48.6,-8.404833,4.5001645,-1.3427149,1004.42786,0,0
48.64,-8.194486,4.757558,-1.3332428,1004.44507,0,0
48.68,-8.419101,4.6812916,-1.3711149,1004.43506,0,0
48.72,-8.600692,4.4334297,-1.4373927,1004.44794,0,0
48.76,-8.729709,4.4572616,-1.082309,1004.425,0,0
48.8,-8.390305,4.7003555,-1.2953535,1004.4502,0,0
48.84,-8.418948,4.6002564,-1.1343806,1004.46277,0,0
48.88,-8.418907,4.767085,-1.3474251,1004.4426,0,0
48.92,-8.394976,4.743252,-1.2101243,1004.425,0,0
48.96,-8.447515,4.6431527,-1.4184345,1004.4627,0,0
49.0,-8.576532,4.5001554000000015,-1.2906022,1004.42004,0,0
49.04,-8.327944,4.757549,-1.3379427,1004.4351,0,0
49.08,-8.390048,4.733715,-1.1390947,1004.4577,0,0
49.12,-8.461701,4.8004456,-1.446827,1004.46014,0,0
49.16,-8.504682,4.8004446,-1.5509806000000002,1004.4247,0,0
49.2,-8.490307000000001,4.7241792999999985,-1.1438184999999998,1004.41974,0,0
49.24,-8.251281,5.038771,-0.8928917,1004.3995,0,0
49.28,-8.174764999999999,4.933906,-1.7119402,1004.44464,0,0
49.32,-8.667047,4.514448000000002,-1.366325,1004.44965,0,0
49.36,-8.571417,4.557346,-1.015976,1004.41974,0,0
49.4,-8.136417,4.952969,-1.162739,1004.4298,0,0
49.44,-8.50442,4.8814697,-1.2337513999999998,1004.4498,0,0
49.48,-8.423129,4.643141,-1.1201226,1004.4473,0,0
49.52,-8.475667999999999,4.557342,-1.3331672,1004.4469,0,0
49.56,-8.663148,4.5859675000000015,-1.2149048,1004.4594,0,0
49.6,-8.471961,4.8481283,-1.1770301,1004.44684,0,0
49.64,-8.601022,4.8814945,-1.1770306,1004.45184,0,0
49.68,-8.041791,5.0006585,-1.2764537,1004.45184,0,0
49.72,-8.653613,4.3905395999999985,-1.0776093,1004.4619,0,0
49.76,-8.644058,4.562135700000002,-1.020797,1004.44934,0,0
49.8,-8.3955145,4.524003,-1.3048618,1004.429,0,0
49.84,-8.644071,4.409606,-1.0870798000000002,1004.4569,0,0
49.88,-8.816151,4.728965799999999,-0.9734546,1004.4644,0,0
49.92,-8.060948,4.991126,-1.1817691,1004.4594,0,0
49.96,-8.4051,4.8195305,-1.0350031,1004.4591,0,0
50.0,-8.811389,4.462039,-1.2101766,1004.45667,0,0
50.04,-8.280837,4.929161,-1.0018632,1004.4544,0,0
50.08,-8.328641000000001,4.8957963,-1.0255358,1004.43427,0,0
50.12,-8.610656,4.809998,-1.1770375,1004.4167,0,0
50.16,-8.247397,4.790931700000002,-1.2480541,1004.4365,0,0
50.2,-8.462496,4.9577613,-1.1438978000000002,1004.45905,0,0
50.24,-8.252189999999999,4.7813993,-0.9781940999999998,1004.4493,0,0
50.28,-8.5581045,4.8481307000000005,-1.0444765,1004.45667,0,0
50.32,-8.366918,4.8004656,-1.2764628999999998,1004.49457,0,0
50.36,-8.352585000000001,4.8242984,-1.0634153,1004.4416,0,0
50.4,-8.682398,4.562138,-0.7793514,1004.47437,0,0
50.44,-8.438634,4.8719645,-1.1296979,1004.4667,0,0
50.48,-8.352603,5.0340276,-1.2859339,1004.4465,0,0
50.52,-8.419527,4.814766400000001,-1.1581056,1004.4742,0,0
50.56,-8.552926,4.7289577000000005,-1.1296593,1004.45917,0,0
50.6,-8.366503999999999,4.829055,-1.2338152,1004.45874,0,0
50.64,-8.371272,4.800455,-1.0870476999999998,1004.45654,0,0
50.68,-8.466857000000001,4.7527895,-1.2338132,1004.4663,0,0
50.72,-8.548102,4.5335274000000005,-1.0775768,1004.4667,0,0
50.76,-8.356898,4.700357,-1.1012478,1004.4692,0,0
50.8,-8.892225999999997,4.433429,-1.1817316,1004.4409,0,0
50.84,-8.591086,4.714655400000002,-1.1343865,1004.4484,0,0
50.88,-8.352085,4.771854,-1.0681038,1004.43616,0,0
50.92,-8.787035000000001,4.466794,-1.3853079,1004.44366,0,0
50.96,-8.237347,4.8004527,-1.034961,1004.45624,0,0
51.0,-8.289914999999999,4.805219,-1.1817266000000002,1004.4458,0,0
51.04,-8.514553,4.8576510000000015,-0.8361139000000001,1004.45593,0,0
51.08,-8.504982,4.6193233,-1.2764125,1004.4635,0,0
51.12,-8.777419,4.676522,-0.8692527,1004.456,0,0
51.16,-8.246851,4.848117,-1.1959256,1004.461,0,0
51.2,-8.423693,4.881483,-0.98761076,1004.43365,0,0
51.24,-8.395002,4.8481164,-0.9592033,1004.4534,0,0
51.28,-8.495367,4.8099837,-0.6609348,1004.4459,0,0
51.32,-8.366302000000001,4.8576492999999985,-1.5036578,1004.4458,0,0
51.36,-8.127299,5.0006456,-1.3710935,1004.4459,0,0
51.4,-8.285022,4.972046,-0.76982296,1004.4334,0,0
51.44,-8.53834,4.9053135,-1.1533087,1004.42584,0,0
51.48,-8.428393,4.9100800000000016,-1.1959175,1004.4158,0,0
51.52,-8.409263000000001,4.852881,-1.0728219,1004.4484,0,0
51.56,-8.21306,4.9386735,-1.2716457,1004.461,0,0
51.6,-8.4998255,4.876708,-1.0917362,1004.4585,0,0
51.64,-8.404211,5.0435370000000015,-1.1106722,1004.4555,0,0
51.68,-8.179541,5.115035,-0.9402318,1004.4428,0,0
51.72,-8.007448,5.2198987,-1.0017773,1004.4431,0,0
51.76,-8.581004,4.848107,-1.3095118,1004.4404,0,0
51.8,-8.609662,4.833806,-1.4420732,1004.43317,0,0
51.84,-8.384993,4.762308,-1.4894155,1004.4329,0,0
51.88,-8.275039,4.9053035000000005,-1.0964582,1004.4404,0,0
51.92,-8.332375,4.8528705,-1.3095044,1004.43787,0,0
51.96,-8.23198,4.995867,-1.3095026,1004.46045,0,0
52.0,-8.456612,4.7575393,-1.1958752,1004.4354,0,0
52.04,-8.380115,4.809971,-1.2716238000000002,1004.42,0,0
52.08,-8.432671000000001,4.7146387,-1.3142315,1004.4554,0,0
52.12,-8.566483999999999,4.771836799999999,-1.0585717,1004.4301,0,0
52.16,-8.418292999999998,4.8910007,-1.3615721,1004.4352,0,0
52.2,-8.279658,4.8338013,-1.4609927,1004.4198,0,0
52.24,-8.188822,4.814735,-0.96861285,1004.43744,0,0
52.28,-8.604645,4.8623996,-1.555677,1004.4352,0,0
52.32,-8.184002,5.057828,-1.0680313999999995,1004.42,0,0
52.36,-8.107505,5.0196953,-1.0017481,1004.43744,0,0
52.4,-8.470751,4.952963,-1.0254183,1004.4173,0,0
52.44,-8.279537,4.8242655,-1.0822294,1004.4501,0,0
52.48,-8.375114,4.9577284000000015,-1.1248372,1004.44507,0,0
52.52,-8.355974,4.8242645,-1.2384608999999998,1004.45264,0,0
52.56,-8.50922,4.8338046,-1.0964556,1004.4298,0,0
52.6,-8.470978,4.800438400000001,-1.0775175,1004.455,0,0
52.64,-8.413611,4.8767033,-1.044376,1004.44507,0,0
52.68,-8.604796,4.7194066,-0.95915604,1004.4096,0,0
52.72,-8.384917999999999,4.7909055,-0.7792479999999999,1004.4247,0,0
52.76,-8.40881,4.824270200000001,-1.2905628999999998,1004.43475,0,0
52.8,-8.442259,4.948201,-1.2290149,1004.4321,0,0
52.84,-8.418353,4.7480054,-1.1485293,1004.4095,0,0
52.88,-8.638217,4.5430436,-1.0680437,1004.3869,0,0
52.92,-8.36098,4.7384724999999985,-1.0349022,1004.42694,0,0
52.96,-8.595182000000001,4.7623050000000005,-1.2006056,1004.4172,0,0
53.0,-8.418324,4.724172,-1.2384803999999998,1004.41693,0,0
53.04,-8.456553,4.700339,-1.2526827,1004.43726,0,0
53.08,-8.3083725,4.8433356,-1.2337445,1004.41437,0,0
53.12,-7.8495064,4.9720325,-1.4041826000000002,1004.40155,0,0
53.16,-8.94407,4.509676,-0.85499066,1004.41943,0,0
53.2,-8.609477,4.829035299999998,-0.9733501,1004.4296,0,0
53.24,-8.418277999999999,4.9339,-0.9638806,1004.42444,0,0
53.28,-8.451728999999998,4.9863315,-1.1106465,1004.4444,0,0
53.32,-8.499519,4.7813690000000015,-1.172193,1004.4392,0,0
53.36,-8.346559,4.805202,-1.0585667,1004.4396,0,0
53.4,-8.575982000000002,4.7003374,-0.99228436,1004.42456,0,0
53.44,-8.40868,4.9052989999999985,-1.1059093,1004.417,0,0
53.48,-8.341758,4.748002,-0.9354702,1004.42444,0,0
53.52,-8.561622,4.6145387000000015,-1.1201113,1004.40656,0,0
53.56,-8.604599,4.54304,-1.0112164,1004.3862,0,0
53.6,-8.370379,4.6431365,-0.94493383,1004.4142,0,0
53.64,-8.226975999999999,4.662203,-0.81236964,1004.4013,0,0
53.68,-8.394263,4.5430392999999984,-0.9117917,1004.3992,0,0
53.72,-9.006067,4.1903133000000015,-1.0490882,1004.3837,0,0
53.76,-8.561537,4.3190103,-1.0017436,1004.39124,0,0
53.8,-8.623667999999999,4.438174,-1.082228,1004.4116,0,0
53.84,-8.819628999999997,4.3190103,-1.0301484,1004.4166,0,0
53.88,-8.642767999999998,4.5001383000000015,-1.058554,1004.4166,0,0
53.92,-8.461125,4.419107,-1.2573981,1004.39624,0,0
53.96,-8.767024000000001,4.3285418,-0.9496611,1004.4191,0,0
54.0,-8.618843,4.390507,-1.1863806,1004.4191,0,0
54.04,-8.714428,4.576402,-1.1485044,1004.42377,0,0
54.08,-8.537567999999998,4.5144377,-1.0632844,1004.40375,0,0
54.12,-8.652274,4.347607599999999,-1.1437684,1004.4142,0,0
54.16,-8.609247,4.323775,-0.9780635,1004.4063,0,0
54.2,-8.723953999999999,4.3047075,-1.0964227,1004.42676,0,0
54.24,-8.60923,4.543036,-0.94965553,1004.4017,0,0
54.28,-8.623560000000001,4.4953699999999985,-1.2289846000000002,1004.4163,0,0
54.32,-8.67613,4.3476067,-1.1532334,1004.4163,0,0
54.36,-8.647442,4.257042,-0.98279387,1004.41675,0,0
54.4,-8.819506,4.2951739999999985,-1.0111996,1004.39624,0,0
54.44,-8.551828,4.4381704000000015,-1.0301363,1004.39343,0,0
54.48,-8.762131,4.5382676,-1.1437613000000002,1004.42377,0,0
54.52,-8.527911999999999,4.380971400000001,-1.0585412,1004.4137,0,0
54.56,-8.599222,4.4143276,-1.1437252,1004.4013,0,0
54.6,-8.613536999999999,4.419093599999999,-1.2573485,1004.4088,0,0
54.64,-8.747347999999999,4.2856296999999985,-0.9922197,1004.40125,0,0
54.68,-8.704305999999999,4.2045975,-1.186328,1004.4136,0,0
54.72,-8.627804,4.409559,-1.0064185,1004.4188,0,0
54.76,-8.637342,4.509656,-1.1295109,1004.42377,0,0
54.8,-8.771152,4.4572234,-1.0916334,1004.39343,0,0
54.84,-8.680311999999999,4.347592,-1.1863194,1004.39874,0,0
54.88,-8.747205000000001,4.3952565,-1.1531764,1004.4213,0,0
54.92,-8.226184,4.461988400000001,-1.0537517,1004.4113,0,0
54.96,-8.880993,4.2951584,-0.89277977,1004.3985,0,0
55.0,-8.771033000000001,4.3523564000000015,-1.2620611000000002,1004.4211,0,0
55.04,-8.53202,4.5620837,-1.1579021,1004.42096,0,0
55.08,-8.814003999999997,4.2713237,-1.1294935,1004.4038,0,0
55.12,-8.670587,4.2665567000000015,-1.0158658,1004.4113,0,0
55.16,-8.74226,4.21889,-1.1342236,1004.4034,0,0
55.2,-8.689657,4.2903876,-1.0963459999999998,1004.4289,0,0
55.24,-8.522341,4.3094535,-0.84542066,1004.3859,0,0
55.28,-8.785209,4.3666515,-1.0537323,1004.40857,0,0
55.32,-8.484055999999999,4.57638,-1.262044,1004.4264,0,0
55.36,-8.789939,4.490581,-1.0442591,1004.411,0,0
55.4,-8.608284,4.252252,-1.0916011,1004.4213,0,0
55.44,-8.632159,4.309450599999999,-1.0111141,1004.4314,0,0
55.48,-8.684711,4.2856174000000005,-1.1105341,1004.4088,0,0
55.52,-8.789844,4.380948,-1.2478296999999998,1004.4288,0,0
55.56,-8.723631,4.438164,-1.1200651,1004.42377,0,0
55.6,-8.943506,4.285634,-1.0017056,1004.406,0,0
55.64,-8.747539,4.5334949999999985,-0.98750275,1004.40857,0,0
55.68,-8.819242,4.5144296,-1.1579418,1004.3984,0,0
55.72,-8.981760000000003,4.4047985,-1.0869262,1004.4189,0,0
55.76,-8.88139,4.47153,-1.0348482,1004.40857,0,0
55.8,-8.97221,4.395265599999999,-1.1011302,1004.3963,0,0
55.84,-8.86706,4.5811614999999986,-1.0490522,1004.41595,0,0
55.88,-8.9961195,4.5048966,-1.1910849,1004.4013,0,0
55.92,-8.948326,4.585928,-1.0821941000000002,1004.3963,0,0
55.96,-9.039148,4.3857327,-1.0348505,1004.40375,0,0
56.0,-9.024814,4.4953637,-1.105867,1004.4213,0,0
56.04,-9.063056,4.4905977,-1.0821955,1004.42377,0,0
56.08,-8.943566,4.5668625999999986,-1.2431656999999998,1004.37866,0,0
56.12,-9.067845,4.6288276,-1.1200716,1004.39124,0,0
56.16,-9.192126,4.3905,-1.049056,1004.4087,0,0
56.2,-9.134774,4.4762983,-1.0348532,1004.37866,0,0
56.24,-9.000943,4.5334970000000006,-1.2005578,1004.39124,0,0
56.28,-9.22082,4.6002293,-1.162683,1004.3862,0,0
56.32,-8.981835,4.5620965999999985,-1.2952468,1004.4038,0,0
56.36,-9.507618,4.2665706,-1.1721528,1004.37366,0,0
56.4,-9.115679,4.476299,-1.1484812,1004.41925,0,0
56.44,-9.058327,4.604996,-1.2100289,1004.40906,0,0
56.48,-9.254304,4.671728,-1.3757335,1004.4116,0,0
56.52,-9.168272,4.690794,-1.1721545,1004.3916,0,0
56.56,-9.354531,4.471528500000002,-1.0963901000000005,1004.39655,0,0
56.6,-9.282833,4.576393,-1.1484685,1004.36865,0,0
56.64,-9.187236,4.4762955,-1.1721404,1004.407,0,0
56.68,-9.3019495,4.4953613,-1.3473133,1004.4095,0,0
56.72,-9.306728,4.3666644,-1.2100154,1004.3716,0,0
56.76,-9.292388,4.55256,-1.252625,1004.3993,1,3
56.8,-9.497917,4.4810620000000005,-0.92121655,1004.40717,1,3
56.84,-9.086854,4.6478915,-1.0490453000000002,1004.3869,1,3
56.88,-9.115532,4.433396299999999,-1.1532022,1004.3896,1,3
56.92,-9.617409,4.3428309999999986,-1.0348419,1004.3614,1,3
56.96,-9.153767,4.881453,-1.1247954,1004.3643,1,3
57.0,-9.04861,4.9195848,-1.1863426,1004.3769,1,3
57.04,-9.244581,4.6621904,-1.2052802,1004.3589,1,3
57.08,-9.330616,4.4619956,-1.030107,1004.3742,1,3
57.12,-9.182441,4.571626,-1.0443101,1004.38965,1,3
57.16,-8.94823,4.681257,-1.2242173,1004.35944,1,3
57.2,-9.091621,4.619292,-1.0869195,1004.3645,1,3
57.24,-9.072502,4.528727,-1.224217,1004.3492,1,3
57.28,-9.144198,4.490595,-1.176873,1004.337,1,3
57.32,-8.833509,4.552559400000002,-1.1389976000000002,1004.3494,1,3
57.36,-9.139415,4.543027,-0.9780277,1004.3422,1,3
57.4,-9.125074,4.5477934,-1.5224841,1004.32434,1,3
57.44,-9.091614,4.52396,-1.2857637,1004.32935,1,3
57.48,-8.8908615,4.5477934,-0.9590898,1004.3145,1,3
57.52,-8.67577,4.666957,-1.1342627,1004.32465,1,3
57.56,-9.116111,4.5287414,-1.2574121,1004.35,1,3
57.6,-9.049216,4.457244,-1.314227,1004.32733,1,3
57.64,-8.99666,4.6145406,-1.3426354,1004.307,1,3
57.68,-8.829389,4.5907083,-1.1721988,1004.30206,1,3
57.72,-8.843751,4.5621095,-1.1201224,1004.30505,1,3
57.76,-9.025407,4.3714485,-1.3095008,1004.2925,1,3
57.8,-9.020647,4.395281,-1.2716274,1004.2998,1,3
57.84,-8.638286,4.319017400000001,-1.2100823,1004.28467,1,3
57.88,-8.767365,4.1998534,-1.2100844,1004.2877,1,3
57.92,-8.729147,4.004425,-1.2526959999999998,1004.2849,1,3
57.96,-8.796087,4.195088,-1.2479638000000002,1004.3003,1,3
58.0,-8.757872,4.161722,-1.1911527,1004.25726,1,3
58.04,-8.729214,4.247521400000001,-1.2527021,1004.2852,1,3
58.08,-8.748357,4.018728,-1.1769538,1004.24976,1,3
58.12,-8.719699,4.0997596,-1.1958934,1004.2651,1,3
58.16,-8.748402,4.1903243,-1.2385052,1004.24225,1,3
58.2,-8.882257000000003,4.0711613,-1.1485535,1004.2276,1,3
58.24,-9.001776,4.228458,-1.1106803,1004.2531,1,3
58.28,-8.643311500000001,4.4763193,-1.0538694,1004.258,1,3
58.32,-8.824969,4.4095879999999985,-1.3237327,1004.2781,1,3
58.36,-8.877566999999997,4.280892,-1.0159982,1004.2227,1,3
58.4,-8.681617999999999,4.4143558,-1.0964853,1004.22546,1,3
58.44,-8.695981,4.214161,-1.0728155,1004.21765,1,3
58.48,-8.77726,4.1807957,-1.1106927,1004.23553,1,3
58.52,-8.772501,4.137897,-1.1296322,1004.2007,1,3
58.56,-8.628344,4.319008,-1.020671,1004.15967,1,3
58.6,-8.465819999999999,4.395272,-0.9117788,1004.1703,1,3
58.64,-8.723921,4.147411,-1.1911079,1004.2032,1,3
58.68,-8.891207000000003,4.056846,-1.0869503,1004.2008,1,3
58.72,-8.542271000000001,4.156944,-1.0538086000000002,1004.1555,1,3
58.76,-8.86251,4.1474104,-0.98752606,1004.1756,1,3
58.8,-8.575713,4.233208,-1.3284025,1004.17584,1,3
58.84,-8.867271,4.2379746,-1.1200877,1004.15546,1,3
58.88,-8.829024,4.2761064000000015,-1.1532279,1004.163,1,3
58.92,-8.719081,4.3237724,-1.1958368,1004.14575,1,3
58.96,-9.001080499999997,4.2665734,-1.0680071000000002,1004.1634,1,3
59.0,-8.527871000000001,4.342838,-1.3141952,1004.1305,1,3
59.04,-9.115778,4.061611,-0.91177,1004.1484,1,3
59.08,-8.546973,4.266573,-1.2195055,1004.1433,1,3
59.12,-8.699917999999998,3.9758124,-0.94017494,1004.1108,1,3
59.16,-8.637773,3.9901117999999993,-1.1200815,1004.12585,1,3
59.2,-8.68556,3.9853451,-1.0395957,1004.10077,1,3
59.24,-8.771588000000001,4.314237,-1.0680014,1004.1108,1,3
59.28,-8.747681,4.261805000000002,-1.1721575,1004.09827,1,3
59.32,-8.460883,4.395268,-0.98751485,1004.11334,1,3
59.36,-8.766782000000001,4.1426406,-0.8880916,1004.06854,1,3
59.4,-8.848031,4.1998386,-1.0869358,1004.0731,1,3
59.44,-8.785884,4.1521735,-1.0585285,1004.07855,1,3
59.48,-8.843233,4.223671,-1.0064493,1004.0706,1,3
59.52,-8.652033,4.409567,-1.0443238,1004.07886,1,3
59.56,-8.7773075,4.4000587,-1.1722443,1004.0509,1,3
59.6,-9.040225,4.3952923,-1.0728245,1004.04596,1,3
59.64,-8.567057,4.547823,-1.1059681,1004.05853,1,3
59.68,-8.791739999999999,4.209398,-0.6467339,1004.0387,1,3
59.72,-8.896924,4.114068,-1.1864587,1004.0158,1,3
59.76,-8.5814905,4.0235043,-0.8692565999999999,1004.0512,1,3
59.8,-8.877871,4.2570667,-1.0065572,1004.0464,1,3
59.84,-8.562433,4.2666,-1.2338114,1004.0538,1,3
59.88,-8.67718,4.2523007,-1.0065628,1004.0214,1,3
59.92,-8.758469,4.0616400000000015,-0.91187763,1004.0211,1,3
59.96,-8.677241,4.1045394,-0.9402868,1004.0238,1,3
60.0,-8.882804,4.004442,-1.1628067,1004.01355,1,3
60.04,-8.55781,4.2904363,-1.0444494,1004.0038,1,3
60.08,-8.835069,4.1617403,-0.9923738,1003.9962,1,3
60.12,-9.016733,4.1998734,-0.9260952,1003.999,1,3
60.16,-8.543564,4.581199,-1.053927,1004.01166,1,3
60.2,-8.710889,4.514468,-1.1959618,1003.98895,1,3
60.24,-8.835194,4.485869,-1.1817613,1003.98395,1,3
60.28,-8.859126,4.261842,-1.1107484,1003.97644,1,3
60.32,-8.701419999999999,4.3714733,-1.006594,1003.9714,1,3
60.36,-8.749251,4.209411,-0.9734563,1003.97156,1,3
60.4,-8.711041999999999,4.3095098,-1.1438977,1003.9717,1,3
60.44,-8.539,4.32381,-1.115494,1003.9563,1,3
60.48,-8.825822,4.066417,-0.99713683,1003.939,1,3
60.52,-8.682459,4.2618465,-0.98293656,1003.9591,1,3
60.56,-8.423561999999999,4.2999597000000005,-1.1533031,1003.94684,1,3
60.6,-8.815505,4.2046285,-0.9544579,1003.94934,1,3
60.64,-8.758146,4.1950955,-1.0680834,1003.9268,1,3
60.68,-8.657769,4.404824,-1.0870211,1003.9622,1,3
60.72,-8.987574,4.1903286,-1.3000691,1003.9622,1,3
60.76,-8.8346195,4.347625,-1.1533023999999998,1003.9318,1,3
60.8,-8.476132000000002,4.390524,-1.1438335,1003.9247,1,3
60.84,-8.791597,4.2808933,-1.2337870000000002,1003.91425,1,3
60.88,-8.73424,4.2093945,-1.2527246,1003.94464,1,3
60.92,-8.887191,4.1712623,-1.0586138,1003.93207,1,3
60.96,-8.825052000000003,4.2618269999999985,-1.2432556,1003.91956,1,3
61.0,-8.648199,4.161729,-1.1864426,1003.9172,1,3
61.04,-8.614739,4.11883,-1.1343641000000002,1003.9145,1,3
61.08,-8.715113,4.0330324,-1.2811304,1003.9045,1,3
61.12,-8.78203,4.0330324,-1.3426776000000002,1003.9148,1,3
61.16,-8.72945,4.1903286,-1.1911765,1003.90967,1,3
61.2,-8.6195135,4.2093945,-1.2290517,1003.89746,1,3
61.24,-8.523916,4.2951927,-1.2763957,1003.8848,1,3
61.28,-8.987556,4.0139656000000015,-1.2858642,1003.87714,1,3
61.32,-8.758124,4.094997,-1.3474114,1003.8852,1,3
61.36,-8.399637,4.252293,-0.968659,1003.85986,1,3
61.4,-8.868057,4.2713594000000015,-1.3000671999999998,1003.86005,1,3
61.44,-8.973212,4.333325,-1.252723,1003.87994,1,3
61.48,-8.705542,4.404823,-1.1438316000000002,1003.8727,1,3
61.52,-8.815476,4.290426,-1.1248938999999998,1003.8272,1,3
61.56,-8.816261,4.199880599999998,-1.01134,1003.84033,1,3
61.6,-8.644217,4.233247,-1.0870931,1003.82776,1,3
61.64,-8.692043,4.280914,-1.1628462,1003.84015,1,3
61.68,-8.620378500000001,4.2761474,-1.0018795,1003.8153,1,3
61.72,-8.888076,4.3476467,-1.1249765,1003.8354,1,3
61.76,-8.548741,4.4048457,-1.143917,1003.84283,1,3
61.8,-8.553550999999999,4.1569858,-1.1770605,1003.7799,1,3
61.84,-8.840365,3.9615576,-1.0729061000000002,1003.83026,1,3
61.88,-8.505819,4.2094197,-1.2433482,1003.7977,1,3
61.92,-8.907346,4.037824,-1.262288,1003.8127,1,3
61.96,-8.826119,4.0997900000000005,-1.0871178999999995,1003.7777,1,3
62.0,-8.754451,4.238021,-1.1581366000000002,1003.7729,1,3
62.04,-8.701905,4.276154,-0.98296654,1003.7601,1,3
62.08,-8.960045,4.3285870000000015,-1.2196896000000002,1003.7347,1,3
62.12,-8.615928,4.5192504,-1.3617244,1003.75757,1,3
62.16,-8.725902,4.2618566,-1.2196956,1003.7579,1,3
62.2,-8.840637,4.0521293,-1.1486815,1003.7601,1,3
62.24,-8.778538000000001,4.056896,-1.1297473,1003.7275,1,3
62.28,-8.654294,4.166528,-1.210235,1003.7328,1,3
62.32,-8.601747,4.161762,-1.2291753,1003.7299,1,3
62.36,-8.539638,4.1569962999999985,-1.1060835,1003.725,1,3
62.4,-8.749979,4.0235333,-1.1818367,1003.7099,1,3
62.44,-8.702211,4.109332,-1.0540106000000002,1003.7277,1,3
62.48,-8.6687765,4.1903644,-1.1771072,1003.7001,1,3
62.52,-8.668813,4.309529,-1.2670642,1003.7252,1,3
62.56,-8.682201,4.304739,-1.124945,1003.68,1,3
62.6,-8.782567,4.1665087,-1.1060066000000002,1003.6824,1,3
62.64,-8.882933,4.2094073,-1.0965368999999998,1003.7054,1,3
62.68,-8.997641999999997,4.2713730000000005,-1.0539267,1003.715,1,3
62.72,-8.815999,4.180808,-1.2385674,1003.72046,1,3
62.76,-8.859007,4.1951075,-1.0397215,1003.68756,1,3
62.8,-8.706045,4.247539,-1.0965334999999998,1003.6824,1,3
62.84,-8.725157000000001,4.1665077,-1.0586576,1003.69244,1,3
62.88,-8.830303,4.1665072,-1.0539223999999998,1003.6929,1,3
62.92,-8.629542,4.1474410000000015,-1.1722816,1003.6502,1,3
62.96,-8.662994,4.1474404,-1.053921,1003.66254,1,3
63.0,-8.701221,4.071176,-0.95923185,1003.6477,1,3
63.04,-8.643856,4.2523046,-1.143873,1003.62463,1,3
63.08,-8.710764,4.295203,-1.0633872,1003.6578,1,3
63.12,-8.553021000000001,4.3285684999999985,-1.1722777,1003.64996,1,3
63.16,-8.720305999999999,4.1379066,-1.1012608,1003.6327,1,3
63.2,-8.906711,4.1855717000000014,-1.0823225,1003.6198,1,3
63.24,-8.796764999999997,4.342868,-1.1344001,1003.65546,1,3
63.28,-8.844555,4.314268599999999,-1.0917897,1003.5972,1,3
63.32,-8.763289,4.3619337,-1.1438673,1003.6203,1,3
63.36,-8.753721,4.2141705,-1.0113032,1003.56256,1,3
63.4,-8.983143,4.1808047,-1.0586463,1003.60004,1,3
63.44,-8.791942,4.2189364000000005,-1.0444424,1003.6203,1,3
63.48,-8.605521000000001,4.457264,-1.0965201,1003.58514,1,3
63.52,-8.619852,4.2237024000000005,-1.1391288,1003.58026,1,3
63.56,-8.888461,4.009231,-1.1486838,1003.57745,1,3
63.6,-8.682960000000001,4.0330644,-0.99245113,1003.58264,1,3
63.64,-8.5969515,4.1903615,-1.0824075,1003.57007,1,3
63.68,-8.692577,4.1951284000000015,-1.1202853000000002,1003.56006,1,3
63.72,-8.797758,4.261861,-1.0350684,1003.5777,1,3
63.76,-8.558799,4.309527,-1.1629001,1003.5501,1,3
63.8,-8.687880499999999,4.1522317000000015,-1.0871521,1003.5225,1,3
63.84,-9.060738,4.1141,-1.016139,1003.5451,1,3
63.88,-8.759637,4.223731,-1.1250328,1003.52765,1,3
63.92,-9.022554,4.157,-1.0066752,1003.525,1,3
63.96,-8.702337,4.295231299999998,-1.1061006000000002,1003.50507,1,3
64.0,-8.673685,4.376263,-1.1203061,1003.5027,1,3
64.04,-8.793209,4.2523327,-1.0871681,1003.52783,1,3
64.08,-8.802797,4.233268,-1.0682329,1003.51025,1,3
64.12,-8.530375999999999,4.3476663,-1.224471,1003.51025,1,3
64.16,-8.869774000000003,4.1331716,-0.9356751,1003.49286,1,3
64.2,-8.645151,4.085507,-1.091913,1003.475,1,3
64.24,-8.735994999999999,4.10934,-1.1345253,1003.49786,1,3
64.28,-8.587852,4.247571,-1.1724031,1003.4925,1,3
64.32,-8.535299,4.2809377,-1.1818743,1003.468,1,3
64.36,-8.783878999999999,4.2094398,-1.1582052,1003.4753,1,3
64.4,-8.76479,4.2618730000000005,-1.1061294,1003.4881,1,3
64.44,-8.697902000000001,4.214208599999999,-1.1108663,1003.4677,1,3
64.48,-8.788745,4.2904735,-1.1960882,1003.4351,1,3
64.52,-8.783994999999999,4.3715057,-1.1913564,1003.4728,1,3
64.56,-8.878765,4.3667192,-1.0255767,1003.468,1,3
64.6,-8.692347999999999,4.357186,-1.1486708,1003.4655,1,3
64.64,-8.76404,4.299987000000002,-1.1344671999999998,1003.45044,1,3
64.68,-8.749696,4.2523212,-1.2907021,1003.4605,1,3
64.72,-8.749691,4.2189555,-1.0161061,1003.43787,1,3
64.76,-8.735346,4.209421599999999,-0.90721446,1003.42535,1,3
64.8,-8.625405,4.2809205000000015,-1.153403,1003.4605,1,3
64.84,-8.740116,4.242788,-1.2244185,1003.42786,1,3
64.88,-8.677974,4.14269,-1.0776515,1003.41077,1,3
64.92,-8.716207,4.238020400000001,-1.0019007,1003.43567,1,3
64.96,-8.716202000000001,4.12839,-1.1486667,1003.4158,1,3
65.0,-8.649281,4.1093235,-1.1581351999999998,1003.4057,1,3
65.04,-8.850026,4.1188563999999985,-1.1249938999999998,1003.4133,1,3
65.08,-8.749645,4.3333515999999985,-1.1344622,1003.4131,1,3
65.12,-8.625364999999999,4.4620485,-1.0871177,1003.398,1,3
65.16,-8.797433999999997,4.271386,-1.1107892,1003.4083,1,3
65.2,-8.893025,4.271386,-1.1865393,1003.4083,1,3
65.24,-8.706607,4.0092254,-1.1486635,1003.37317,1,3
65.28,-9.112885,4.0902567,-1.1344598999999995,1003.38574,1,3
65.32,-8.63012,4.2284865,-1.3048978999999998,1003.3785,1,3
65.36,-8.701813000000001,4.36195,-1.1060525,1003.37085,1,3
65.4,-8.639669999999999,4.2046533,-1.2622875,1003.39606,1,3
65.44,-8.806958,3.9996915,-1.063442,1003.381,1,3
65.48,-8.64922,4.037824,-1.2859585,1003.3484,1,3
65.52,-8.854747,4.0521235,-1.1486603000000002,1003.3534,1,3
65.56,-8.51145,4.171308,-1.1913477,1003.36646,1,3
65.6,-8.898641,4.1093435,-1.1866158000000002,1003.3559,1,3
65.64,-8.454149000000001,4.2618737,-1.2718378,1003.3383,1,3
65.68,-8.822222,4.033080600000001,-1.2481685,1003.3258,1,3
65.72,-8.889168,4.0140142,-1.3475933999999998,1003.316,1,3
65.76,-8.774482,4.2285104,-1.3097209,1003.3361,1,3
65.8,-8.750611,4.2428107000000015,-1.3523332,1003.3283,1,3
65.84,-8.760199,4.45254,-1.2623819,1003.3084,1,3
65.88,-8.678973,4.433474,-1.1818999,1003.3159,1,3
65.92,-8.980129,4.0330844,-1.2197778,1003.2934,1,3
65.96,-8.808084,4.0664506000000005,-1.2339835,1003.31085,1,3
66.0,-8.712516,4.1951485,-1.2245171,1003.3159,1,3
66.04,-8.655189,4.1808496,-1.10616,1003.30615,1,3
66.08,-8.5930805,4.20945,-1.2008507,1003.2785,1,3
66.12,-8.726941,4.0712204,-1.0446177,1003.27075,1,3
66.16,-8.755647999999999,4.137953,-1.1487771999999998,1003.27856,1,3
66.2,-8.645743,4.247584,-1.0588263999999998,1003.26855,1,3
66.24,-8.655332000000001,4.214219,-1.2055955,1003.26355,1,3
66.28,-8.770073,4.137955000000002,-1.0304252,1003.2588,1,3
66.32,-8.688846,4.2523527,-1.2056007,1003.25635,1,3
66.36,-8.942207000000002,4.1045904,-1.106181,1003.27386,1,3
66.4,-8.808399,4.347685299999998,-1.2860909,1003.2513,1,3
66.44,-8.884905,4.381052,-1.1251239,1003.2463,1,3
66.48,-8.679403,4.457317400000001,-1.1772049999999998,1003.2312,1,3
66.52,-8.717669500000001,4.395353,-1.0967227,1003.2212,1,3
66.56,-8.898193,4.171298,-1.0445427,1003.24927,1,3
66.6,-8.7069845,4.218963,-1.1202917,1003.2212,1,3
66.64,-8.472758,4.4382243,-1.3096663999999998,1003.2216,1,3
66.68,-8.802548,4.1522303,-1.1628983,1003.2291,1,3
66.72,-8.60656,4.280926999999998,-1.0776775,1003.2316,1,3
66.76,-8.668683,4.176062600000002,-1.1250203,1003.20624,1,3
66.8,-8.510932,4.4000900000000005,-1.0966121000000002,1003.199,1,3
66.84,-8.601732,4.1379294,-1.1202828,1003.2013,1,3
66.88,-8.840705999999997,4.1045628,-1.0161245,1003.1761,1,3
66.92,-8.745095,4.1903605000000015,-1.2102336,1003.1888,1,3
66.96,-8.582563,4.381022,-1.0303247,1003.18933,1,3
67.0,-9.003169999999997,4.214192400000001,-1.1108079,1003.1662,1,3
67.04,-8.792843,4.309523,-1.186557,1003.1818,1,3
67.08,-8.644652,4.3714879999999985,-1.238634,1003.1765,1,3
67.12,-8.687654499999999,4.2094245,-1.058725,1003.17194,1,3
67.16,-8.783236,4.3190550000000005,-1.2433653999999998,1003.16675,1,3
67.2,-8.673285,4.3095217,-1.0539879,1003.1493,1,3
67.24,-8.840561,4.2475557,-0.9971734,1003.14655,1,3
67.28,-8.67325,4.228489,-1.1723448,1003.1291,1,3
67.32,-8.678015,4.1474576,-0.9640296,1003.15936,1,3
67.36,-8.563283,4.0092273,-1.0350442,1003.1494,1,3
67.4,-8.807036,4.1379237,-1.1155275,1003.1218,1,3
67.44,-8.644507,4.199888,-1.068182,1003.09674,1,3
67.48,-8.663609,4.2570863,-1.1249934,1003.1319,1,3
67.52,-8.697053,4.080724,-1.0539758999999995,1003.12933,1,3
67.56,-8.745844,4.1522465,-1.0398635,1003.1118,1,3
67.6,-8.860585,4.147480000000002,-1.0824755,1003.0995,1,3
67.64,-8.846269,4.252345,-1.1250873,1003.0845,1,3
67.68,-8.822391,4.252345,-1.1298238,1003.04895,1,3
67.72,-8.669462,4.376277,-1.1392947,1003.0816,1,3
67.76,-8.712504,4.1284165,-0.9972648,1003.097,1,3
67.8,-9.0949135,4.1093507,-1.1535026000000002,1003.0694,1,3
67.84,-8.464003,4.2761803,-1.229255,1003.0694,1,3
67.88,-8.812952000000003,4.099819,-0.96886504,1003.0644,1,3
67.92,-8.621781,3.9949555,-1.1582431,1003.0617,1,3
67.96,-8.779539,3.9043915,-0.94519705,1003.05945,1,3
68.0,-8.669628999999999,3.971124,-1.0635595,1003.04974,1,3
68.04,-8.440221000000001,4.2237515,-1.0446241,1003.0346,1,3
68.08,-8.636217,4.0807557,-1.0493606000000002,1003.0645,1,3
68.12,-8.588443,4.090289,-1.0919725,1003.03705,1,3
68.16,-8.598025,4.066457,-0.945208,1003.0422,1,3
68.2,-8.555033,3.9854264,-1.0730394,1003.05225,1,3
68.24,-8.736688000000001,3.8519635,-0.94521236,1003.02936,1,3
68.28,-8.578978,4.056926,-1.0872467,1003.0372,1,3
68.32,-8.502524000000001,4.1999226,-1.1251242,1003.0143,1,3
68.36,-8.497767999999999,4.142725,-1.063579,1003.02234,1,3
68.4,-8.368738,4.1188927,-1.0635812,1003.0172,1,3
68.44,-8.579072,3.8805656,-1.0020361,1002.997,1,3
68.48,-8.27797,4.033096,-0.9973039,1003.002,1,3
68.52,-8.306671000000001,3.8900998,-1.0777909,1003.0071,1,3
68.56,-8.526439,3.9568293,-1.0067654,1002.9998,1,3
68.6,-8.120175,4.071227,-1.0683146,1002.97974,1,3
68.64,-8.311385000000001,3.9520633,-1.1203945,1002.99963,1,3
68.68,-8.383102000000001,3.7852347,-1.0209739,1002.9897,1,3
68.72,-8.163250999999999,3.975897,-1.0541166000000002,1002.9671,1,3
68.76,-8.287544,3.809068,-1.0730559,1003.00244,1,3
68.8,-8.459636,3.6994379,-1.163011,1002.9822,1,3
68.84,-8.316259,3.7280376,-1.0067774,1002.98486,1,3
68.88,-8.383194999999999,3.8758016,-0.9594351,1002.97217,1,3
68.92,-7.628007000000001,4.290492,-1.1109378,1002.96765,1,3
68.96,-8.301977,3.9425344,-1.196159,1002.95734,1,3
69.0,-8.502746,3.7995381,-1.2103636,1002.97003,1,3
69.04,-8.368931,3.7471066,-0.9168323,1002.95764,1,3
69.08,-8.459764999999999,3.9425356,-1.2056327,1002.97253,1,3
69.12,-8.024822,4.114132,-1.1109463,1002.97253,1,3
69.16,-8.163454,3.980669,-1.1298856000000002,1002.9752,1,3
69.2,-8.302088000000001,3.8186061,-1.0872777,1002.965,1,3
69.24,-8.302107000000001,3.8138404,-1.2529836,1002.93005,1,3
69.28,-8.1300535,3.8710394,-1.1062188999999998,1002.9652,1,3
69.32,-8.2113285,3.8948727,-1.0115325000000002,1002.9426,1,3
69.36,-8.13009,3.890106700000002,-1.267192,1002.9554,1,3
69.4,-8.326080000000001,3.8472075,-1.0920209,1002.93506,1,3
69.44,-8.273522,3.8758078,-1.1393664,1002.94293,1,3
69.48,-8.211403,3.9806726,-1.0115392,1002.9379,1,3
69.52,-8.1970825,3.8996413,-1.0825571000000005,1002.94293,1,3
69.56,-8.297634,3.837680600000001,-1.2814181999999998,1002.9353,1,3
69.6,-8.359797,3.9091797,-1.110982,1002.9529,1,3
69.64,-8.292902999999999,4.052177,-1.1015152,1002.9406,1,3
69.68,-8.221231,3.9568462,-1.0305016,1002.9433,1,3
69.72,-8.297734,3.880582,-1.0494415,1002.92053,1,3
69.76,-8.374234,3.9473145,-1.0920533,1002.92804,1,3
69.8,-8.551115,3.8424509,-1.106259,1002.9407,1,3
69.84,-8.27391,4.123678,-0.96896344,1002.9231,1,3
69.88,-8.312173,4.0998464,-0.8364024,1002.9183,1,3
69.92,-8.4460335,4.0188155,-1.1110002,1002.95074,1,3
69.96,-8.637251,4.037882,-0.9831736,1002.9256,1,3
70.0,-8.345704,4.190412,-1.2009583,1002.9231,1,3
70.04,-8.278815,4.252378,-1.0683973999999998,1002.93567,1,3
70.08,-8.680342999999999,4.052183,-1.0115867,1002.951,1,3
70.12,-8.541753,4.233313,-0.98791695,1002.9462,1,3
70.16,-8.5178795,4.0140524,-1.1488891,1002.9234,1,3
70.2,-8.723436,4.0569515,-0.96898407,1002.9284,1,3
70.24,-8.412774,4.1379839999999986,-1.129956,1002.92084,1,3
70.28,-8.87166,4.2142496,-1.2672563,1002.92584,0,0
70.32,-8.49408,4.2428493,-1.0116005,1002.9184,0,0
70.36,-8.771335,4.0807867,-1.096822,1002.9359,0,0
70.4,-8.627965,4.1856523,-1.2483255,1002.9234,0,0
70.44,-8.747483,4.0903215,-1.092092,1002.9384,0,0
70.48,-8.6041155,4.1999526,-1.0873601000000002,1002.9159,0,0
70.52,-8.737976,4.2476187,-1.0068774,1002.93616,0,0
70.56,-8.712904,4.1427260000000015,-1.215084,1002.92615,0,0
70.6,-8.53125,4.2428230000000005,-1.1488003999999998,1002.95917,0,0
70.64,-8.746319,4.2428230000000005,-1.1061887,1002.93616,0,0
70.68,-8.645921000000001,4.2809544000000015,-1.1961405,1002.92365,0,0
70.72,-8.684136,4.2237550000000015,-1.0446373,1002.9165,0,0
70.76,-8.636313000000001,4.2523537000000005,-1.0446352,1002.95416,0,0
70.8,-8.574155000000001,4.476382,-1.2292749,1002.95416,0,0
70.84,-8.755765,4.300019,-1.2292728000000002,1002.91394,0,0
70.88,-8.7700815,4.295252,-1.0919731,1002.92645,0,0
70.92,-8.660123,4.257118,-1.1014396999999998,1002.9418,0,0
70.96,-8.5406065,4.30955,-1.0682969,1002.9391,0,0
71.0,-8.822593,4.0855217,-1.1440456,1002.9317,0,0
71.04,-8.813011,4.2189846,-0.87891674,1002.92114,0,0
71.08,-8.559659,4.4573116,-1.1014316000000002,1002.9387,0,0
71.12,-8.846424,4.3476806,-0.93572533,1002.92645,0,0
71.16,-8.898978999999997,4.319080400000002,-1.0114739,1002.93396,0,0
71.2,-8.698205,4.3190800000000005,-1.0588157,1002.937,0,0
71.24,-8.636047,4.2857129999999986,-0.8031560000000001,1002.912,0,0
71.28,-8.769859,4.1951480000000005,-0.74634117,1002.9342,0,0
71.32,-8.836753,4.3858104,-0.9641215,1002.937,0,0
71.36,-8.602519000000001,4.376276,-1.0540731,1002.92413,0,0
71.4,-8.765009,4.376275499999998,-1.0493367,1002.94934,0,0
71.44,-8.588135000000001,4.3143096,-1.0351315,1002.9169,0,0
71.48,-8.67415,4.1808457,-0.8836285,1002.92676,0,0
71.52,-8.8701,4.147479,-0.9925179,1002.92163,0,0
71.56,-8.66593,4.290508999999999,-1.0163145,1002.9214,0,0
71.6,-8.637282,4.4001412,-1.1394118,1002.937,0,0
71.64,-8.761588,4.509773,-1.120477,1002.9644,0,0
71.68,-8.52263,4.447808,-1.1820273,1002.92957,0,0
71.72,-8.723417,4.409676,-0.9926543,1002.9119,0,0
71.76,-8.761689,4.199949,-1.153627,1002.91943,0,0
71.8,-8.551411,4.452577,-0.9169098,1002.91925,0,0
71.84,-8.6470375,4.5336094000000005,-1.0447415999999998,1002.93933,0,0
71.88,-8.431985000000001,4.576509,-1.2909342,1002.9395,0,0
71.92,-8.522828,4.4764123,-1.1441702,1002.92944,0,0
71.96,-8.661475999999999,4.31435,-1.1347045,1002.9446,0,0
72.0,-8.604151,4.3429503,-1.1631136999999998,1002.95715,0,0
72.04,-8.326951,4.476415,-1.0921005,1002.93677,0,0
72.08,-8.867103,4.381084,-1.2672765,1002.9368,0,0
72.12,-8.518208,4.557448,-1.3524985,1002.9371,0,0
72.16,-8.704655,4.2714553,-1.3856425,1002.94183,0,0
72.2,-8.8241825,4.3477206,-1.2294101999999998,1002.9421,0,0
72.24,-8.427491999999999,4.538384,-1.2388821,1002.90686,0,0
72.28,-8.72387,4.4096875,-1.2341504,1002.93176,0,0
72.32,-8.590069,4.4621205,-1.4329985,1002.9293,0,0
72.36,-8.743053999999999,4.157062000000002,-1.3998604,1002.92926,0,0
72.4,-8.614032,4.38109,-0.96429825,1002.9144,0,0
72.44,-8.590166,4.4859550000000015,-1.3951321,1002.9192,0,0
72.48,-8.6141,4.438291,-1.3146504,1002.93427,0,0
72.52,-8.690605,4.285762,-1.3193876,1002.94934,0,0
72.56,-8.6129055,4.4001293,-1.4139634,1002.9544,0,0
72.6,-8.536412,4.490693599999998,-1.2577268,1002.9471,0,0
72.64,-8.665444,4.319097,-1.4234288,1002.9619,0,0
72.68,-8.641532000000002,4.2714305,-1.2908642,1002.9396,0,0
72.72,-8.689312,4.233298,-1.248253,1002.95966,0,0
72.76,-8.746654,4.395360500000002,-1.3855491000000002,1002.9091,0,0
72.8,-8.287774,4.571723,-1.4092196,1002.932,0,0
72.84,-8.923467,4.357227,-1.2482476999999998,1002.89935,0,0
72.88,-8.612765,4.419192,-1.3097938,1002.92944,0,0
72.92,-8.555389,4.481157,-1.3145266000000002,1002.9371,0,0
72.96,-8.655749,4.319093700000002,-1.1535554,1002.92194,0,0
73.0,-8.622273,4.257128,-1.3429298,1002.95184,0,0
73.04,-8.765649,4.2571273000000005,-1.2482401,1002.93933,0,0
73.08,-8.756072999999999,4.128430000000002,-1.2103634,1002.94183,0,0
73.12,-8.646118,4.304792,-1.0541264,1002.94464,0,0
73.16,-8.6843405,4.261893,-1.2624385,1002.94183,0,0
73.2,-8.779919,4.37629,-1.3713282,1002.92163,0,0
73.24,-8.646066000000001,4.2714252,-1.1298721,1002.92426,0,0
73.28,-8.741645,4.352456,-1.1346048999999998,1002.89404,0,0
73.32,-8.488299000000001,4.419187,-1.0399153,1002.9316,0,0
73.36,-8.717706,4.309556,-1.3381807,1002.90393,0,0
73.4,-8.70335,4.2714233,-1.1630061,1002.92426,0,0
73.44,-8.722452,4.4144190000000005,-1.2529583,1002.9041,0,0
73.48,-8.531242,4.3858194,-1.0825181,1002.92163,0,0
73.52,-8.684178,4.404885299999999,-1.1961421,1002.94434,0,0
73.56,-8.52244,4.400138,-1.1204627,1002.92444,0,0
73.6,-8.794902,4.3048067,-1.1678079,1002.91675,0,0
73.64,-8.694537,4.3238735,-1.1299336000000002,1002.92944,0,0
73.68,-8.646757000000001,4.50977,-1.1725448,1002.92944,0,0
73.72,-8.627651,4.3763065,-1.0873269,1002.9496,0,0
73.76,-8.536845,4.462105,-1.148875,1002.9396,0,0
73.8,-8.904906,4.185645,-1.1583453,1002.9368,0,0
73.84,-8.512977000000001,4.5860357,-1.0589241000000005,1002.8963,0,0
73.88,-8.446074000000001,4.452573,-1.0825975,1002.9396,0,0
73.92,-8.866707,4.2333110000000005,-1.0920671999999998,1002.9642,0,0
73.96,-8.608614999999999,4.385842,-1.2767106,1002.9496,0,0
74.0,-8.589509,4.4573402,-1.0589292,1002.92444,0,0
74.04,-8.59908,4.400142,-1.148884,1002.9293,0,0
74.08,-8.72337,4.4430413,-1.2625110000000002,1002.92694,0,0
74.12,-8.575211,4.457341,-1.0778705,1002.937,0,0
74.16,-8.6995,4.2857456,-1.0352622,1002.9467,0,0
74.2,-8.599136,4.376311,-1.0210602,1002.9267,0,0
74.24,-8.723426,4.495475,-1.1820313,1002.952,0,0
74.28,-8.608725,4.4049106,-1.1157509,1002.9192,0,0
74.32,-8.752132000000001,4.4239774,-1.0021265,1002.929,0,0
74.36,-8.690008,4.2762136,-1.1015501,1002.9445,0,0
74.4,-8.6661215,4.3906116,-1.1062857,1002.92163,0,0
74.44,-8.517961999999999,4.5288424,-1.1583655000000002,1002.9314,0,0
74.48,-8.7091675,4.328647,-1.1252258,1002.92413,0,0
74.52,-8.694842,4.3810797,-1.1062896,1002.9293,0,0
74.56,-8.618855,4.290527,-1.1205375,1002.9342,0,0
74.6,-8.704922,4.438291,-1.0305867,1002.9443,0,0
74.64,-8.719292999999999,4.3143616,-1.2389034,1002.9292,0,0
74.68,-8.633291,4.5002580000000005,-1.0826712,1002.924,0,0
74.72,-8.657224000000001,4.3429623,-1.1726279,1002.9496,0,0
74.76,-8.743292,4.223799,-1.0779426,1002.9215,0,0
74.8,-8.614268,4.3477305999999984,-1.1773683,1002.93896,0,0
74.84,-8.7337885,4.2857660000000015,-1.0732136,1002.9437,0,0
74.88,-8.633450999999999,4.3429655999999985,-1.1915772,1002.9215,0,0
74.92,-8.666944,4.4573636,-1.1016264999999998,1002.89856,0,0
74.96,-8.686096000000001,4.4907309999999985,-1.2294585,1002.93646,0,0
75.0,-8.681349,4.3763337,-1.0400853,1002.9362,0,0
75.04,-8.662261,4.3668017,-1.2294643,1002.9437,0,0
75.08,-8.667076,4.3096037,-1.1158419,1002.9441,0,0
75.12,-8.633647999999999,4.2095065,-1.096907,1002.95166,0,0
75.16,-8.748395,4.1904416,-1.0400969,1002.9515,0,0
75.2,-8.691069,4.4192367,-1.215273,1002.95166,0,0
75.24,-8.547707,4.4621366999999985,-0.9359459,1002.95667,0,0
75.28,-8.82975,4.2333426,-1.1205909,1002.92114,0,0
75.32,-8.710285,4.3572739999999985,-1.0779841,1002.93365,0,0
75.36,-8.562145,4.2190447,-0.9832991,1002.9341,0,0
75.4,-8.710353,4.3239098,-1.0827248,1002.93616,0,0
75.44,-8.715166,4.419242,-1.1442751,1002.9466,0,0
75.48,-8.624381,4.605138,-1.1868876,1002.9491,0,0
75.52,-8.490578,4.4287763,-0.97384214,1002.9083,0,0
75.56,-8.952481,4.219005,-1.1725281,1002.9491,0,0
75.6,-8.603518,4.2952695,-1.0683677,1002.9487,0,0
75.64,-8.761211,4.3715334000000015,-1.2056619,1002.9337,0,0
75.68,-8.622558999999999,4.242835,-1.0636262,1002.9617,0,0
75.72,-8.622522,4.395364,-1.00681,1002.93365,0,0
75.76,-8.565126,4.38583,-1.1204323,1002.93616,0,0
75.8,-8.875778,4.2047005,-1.1204288999999998,1002.95874,0,0
75.84,-8.665429,4.381062,-1.163035,1002.9437,0,0
75.88,-8.569797,4.419193,-1.0872813,1002.9437,0,0
75.92,-8.655796,4.238063,-1.0541371000000002,1002.9287,0,0
75.96,-8.717893,4.261895,-1.2340407,1002.92584,0,0
76.0,-8.68918,4.2475944000000005,-1.1393496,1002.9334,0,0
76.04,-8.6843605,4.381057299999998,-1.035189,1002.92615,0,0
76.08,-8.703441,4.338157,-1.1204047,1002.9384,0,0
76.12,-8.689066,4.462087,-1.2529649,1002.9309,0,0
76.16,-8.583872999999999,4.5192847,-1.3192431,1002.92365,0,0
76.2,-8.899303,4.280956,-1.4470687,1002.93115,0,0
76.24,-8.727193,4.1713239999999985,-1.1535321000000005,1002.95123,0,0
76.28,-8.516842,4.2380548,-1.0967156,1002.9435,0,0
76.32,-8.779694000000001,4.238054,-1.2718853,1002.9184,0,0
76.36,-8.774877,4.2857184,-1.2908195,1002.956,0,0
76.4,-8.559747999999999,4.528812,-1.3144878999999998,1002.9535,0,0
76.44,-8.459338,4.4334803,-1.1109053999999998,1002.95667,0,0
76.48,-8.827345,4.1951513,-1.2908094,1002.92084,0,0
76.52,-8.73649,4.171317,-1.2529306,1002.946,0,0
76.56,-8.814321000000003,4.357246400000001,-1.281461,1002.9435,0,0
76.6,-8.451073,4.5479093,-1.2672594,1002.9058,0,0
76.64,-8.814357000000003,4.3143487,-1.2483234,1002.9382,0,0
76.68,-8.6662,4.2619166,-1.1157618,1002.9435,0,0
76.72,-8.589739999999999,4.323882,-1.1867794,1002.9334,0,0
76.76,-8.838308999999997,4.4096804,-1.1678435,1002.9385,0,0
76.8,-8.475061,4.6098766,-1.3004083999999998,1002.9585,0,0
76.84,-8.666267999999999,4.3763156,-1.3430192,1002.946,0,0
76.88,-8.58503,4.3572497000000014,-1.1441761,1002.9208,0,0
76.92,-8.776241,4.2237870000000015,-1.2956787,1002.9234,0,0
76.96,-8.604185000000001,4.4096828000000015,-1.3004147,1002.936,0,0
77.0,-8.513385000000001,4.457349,-1.3477602,1002.91583,0,0
77.04,-8.666357000000001,4.357251,-1.3240899,1002.946,0,0
77.08,-8.499080000000001,4.4621162000000005,-1.3619666,1002.9407,0,0
77.12,-8.771547,4.4716496,-1.2956866000000002,1002.941,0,0
77.16,-8.3031435,4.7147446,-1.4519236,1002.9335,0,0
77.2,-8.690324,4.481184,-1.3146273000000002,1002.9535,0,0
77.24,-8.75726,4.309588400000001,-1.148925,1002.93066,0,0
77.28,-8.575646,4.438286,-1.3619747,1002.92584,0,0
77.32,-8.814653,4.3334220000000006,-1.3667107,1002.92804,0,0
77.36,-8.542221000000001,4.3524885,-1.1536641,1002.91583,0,0
77.4,-8.50878,4.390621,-1.2530881,1002.9183,0,0
77.44,-8.69999,4.2952905,-1.37145,1002.9202,0,0
77.48,-8.771705,4.2809916,-1.3572482,1002.93585,0,0
77.52,-8.671348,4.3381906,-1.380922,1002.93585,0,0
77.56,-8.623249000000001,4.4192147,-1.3335506,1002.9405,0,0
77.6,-8.412942999999999,4.4954796,-1.2530661,1002.9456,0,0
77.64,-8.747535000000001,4.3572492999999985,-1.3714267,1002.9406,0,0
77.68,-8.47987,4.476414,-1.2720046,1002.95557,0,0
77.72,-8.651947999999999,4.3572497000000014,-1.3950996,1002.9303,0,0
77.76,-8.608934,4.2952847,-1.2956774,1002.93585,0,0
77.8,-8.6185,4.4335146,-1.3382876,1002.9555,0,0
77.84,-8.518127999999999,4.447815,-1.3619602,1002.92804,0,0
77.88,-8.580271,4.4573483,-1.2483349,1002.9431,0,0
77.92,-8.886184,4.23332,-1.3572265,1002.9405,0,0
77.96,-8.522923,4.5336137,-1.2104605,1002.9202,0,0
78.0,-8.460792,4.4859480000000005,-1.3240867,1002.9303,0,0
78.04,-8.82884,4.338185,-1.3666968000000002,1002.94037,0,0
78.08,-8.599414999999999,4.3429513,-1.3951036,1002.9404,0,0
78.12,-8.575521,4.371551,-1.2294,1002.9504,0,0
78.16,-8.685462,4.3667846,-1.2578068,1002.9225,0,0
78.2,-8.747603999999999,4.3858510000000015,-1.3288234,1002.9353,0,0
78.24,-8.47994,4.481182,-1.2720109,1002.9303,0,0
78.28,-8.675917,4.433516,-1.2767459,1002.9325,0,0
78.32,-8.642464,4.2523875,-1.2104646,1002.96045,0,0
78.36,-8.714166,4.2762203,-1.2720124,1002.9428,0,0
78.4,-8.632914,4.3810844000000015,-1.2152,1002.94037,0,0
78.44,-8.661597,4.3429527000000006,-1.2672788,1002.915,0,0
78.48,-8.642484,4.4192176,-1.2909514,1002.9353,0,0
78.52,-8.656827999999999,4.4764165999999985,-1.2956861000000002,1002.93506,0,0
78.56,-8.622585,4.3477006,-1.2388016000000002,1002.92236,0,0
78.6,-8.679916,4.3715324,-1.2293303,1002.9349,0,0
78.64,-8.823284,4.2333016,-1.1867185,1002.93506,0,0
78.68,-8.598607000000001,4.371531,-1.2672008,1002.9225,0,0
78.72,-8.756314,4.414429,-1.2671983,1002.94495,0,0
78.76,-8.579436,4.443028,-1.1961801,1002.9198,0,0
78.8,-8.526832,4.5383580000000014,-1.328741,1002.91473,0,0
78.84,-8.598502,4.4048944,-1.2056440000000002,1002.93756,0,0
78.88,-8.603253,4.2857294,-1.2056415,1002.91986,0,0
78.92,-8.665366,4.218997,-1.1488261999999998,1002.9173,0,0
78.96,-8.741817999999999,4.36676,-1.2151056999999998,1002.94495,0,0
79.0,-8.440664,4.5907874,-1.1819623,1002.9225,0,0
79.04,-8.717869,4.428724,-1.1630225,1002.9448,0,0
79.08,-8.655702999999999,4.323859,-1.2435048,1002.9448,0,0
79.12,-8.775172999999999,4.2523594000000005,-1.0446573,1002.9349,0,0
79.16,-8.626971000000001,4.37629,-1.1298742,1002.9324,0,0
79.2,-8.794238,4.409655,-1.1914191,1002.93726,0,0
79.24,-8.5838995,4.381055,-1.2198231000000002,1002.9144,0,0
79.28,-8.813307,4.199925,-1.0635856,1002.9346,0,0
79.32,-8.564729,4.366754,-1.0825206,1002.9652,0,0
79.36,-8.497785,4.4954505,-1.1961438999999998,1002.96,0,0
79.4,-8.865806,4.290488,-1.2434857,1002.937,0,0
79.44,-8.449935,4.31432,-1.2860928,1002.9474,0,0
79.48,-8.693681,4.214222,-1.1109174,1002.95233,0,0
79.52,-8.727113000000001,4.2857194000000005,-1.2056032,1002.9245,0,0
79.56,-8.65602,4.376299,-1.2672058000000002,1002.9295,0,0
79.6,-8.665579,4.3524660000000015,-1.2103928,1002.95746,0,0
79.64,-8.7038145,4.3953648,-1.2056584,1002.92944,0,0
79.68,-8.584318,4.3429327,-1.191455,1002.932,0,0
79.72,-8.751611,4.3143334000000015,-1.1062355,1002.9546,0,0
79.76,-8.47916,4.6289263,-1.205658,1002.9446,0,0
79.8,-8.565196,4.5097623,-1.3997685,1002.9117,0,0
79.84,-8.789846,4.381065,-1.2151266,1002.9394,0,0
79.88,-8.579533,4.3476996,-1.1251729,1002.92957,0,0
79.92,-8.593871,4.3238664,-1.1015006,1002.93176,0,0
79.96,-8.651228,4.385831400000002,-1.1488446,1002.93195,0,0
80.0,-8.660785,4.466863,-1.4045023,1002.947,0,0
80.04,-8.612986,4.476396,-1.2530012,1002.92426,0,0
80.08,-8.479151,4.500228400000001,-1.0541562,1002.93176,0,0
80.12,-8.6703415,4.342932,-1.1961882,1002.9446,0,0
80.16,-8.90933,4.4048977,-1.2009223999999998,1002.9644,0,0
80.2,-8.460028999999999,4.495462,-1.2719383,1002.9519,0,0
80.24,-8.651219000000001,4.414430599999998,-1.2672039,1002.9167,0,0
80.28,-8.598639,4.2142353,-1.200922,1002.93176,0,0
80.32,-8.871087,4.271433999999998,-1.2103908,1002.94434,0,0
80.36,-8.713353,4.3572316,-1.0257488,1002.93677,0,0
80.4,-8.689451,4.4525633,-1.238797,1002.919,0,0
80.44,-8.517377999999999,4.509762,-1.1725152,1002.9367,0,0
80.48,-8.804166,4.314333,-1.2908752,1002.9642,0,0
80.52,-8.589072,4.276200299999998,-1.2908751,1002.919,0,0
80.56,-8.745987,4.1856155,-1.2150496000000002,1002.9494,0,0
80.6,-8.540421,4.266647,-1.314469,1002.939,0,0
80.64,-8.483028,4.3762765,-1.2245121,1002.95166,0,0
80.68,-8.736324,4.247578599999999,-1.248181,1002.96185,0,0
80.72,-8.640699,4.376275,-1.2813191000000002,1002.9416,0,0
80.76,-8.736260000000001,4.4048734000000005,-1.1440183000000002,1002.9089,0,0
80.8,-8.640630999999999,4.4811373,-1.3428601,1002.9367,0,0
80.84,-8.602354,4.423938,-1.4233418,1002.9516,0,0
80.88,-8.549747,4.4001044999999985,-1.2860411,1002.9465,0,0
80.92,-8.693105000000001,4.428703,-1.2386938,1002.9237,0,0
80.96,-8.611815,4.4334683,-1.2386909,1002.95636,0,0
81.0,-8.406248,4.514499,-1.4138606000000002,1002.9262,0,0
81.04,-8.736022,4.2237377,-1.1913406000000002,1002.92145,0,0
81.08,-8.597374,4.319069,-1.2008061,1002.911,0,0
81.12,-8.573442,4.490664,-1.2434128999999998,1002.93146,0,0
81.16,-8.554289,4.61936,-1.2670819,1002.93365,0,0
81.2,-8.482559,4.504962,-1.2765478,1002.93896,0,0
81.24,-8.711953999999999,4.3857975,-1.1723875,1002.93396,0,0
81.28,-8.635442999999999,4.3667297,-1.2244627,1002.9211,0,0
81.32,-8.640189,4.347663,-1.2954757,1002.9189,0,0
81.36,-8.630599,4.409627,-1.2197225,1002.93646,0,0
81.4,-8.362893,4.571689599999999,-1.4375018,1002.93097,0,0
81.44,-8.487134,4.4000926,-1.2717944,1002.92615,0,0
81.48,-8.907725,4.2666283,-1.1155562,1002.93396,0,0
81.52,-8.491848,4.6193523,-1.3096637,1002.95374,0,0
81.56,-8.559676,4.4477787000000015,-1.357091,1002.97156,0,0
81.6,-8.769991000000001,4.180852,-1.3002785,1002.94104,0,0
81.64,-8.507105000000001,4.4096465,-1.3476229,1002.92596,0,0
81.68,-8.531009,4.1617856,-1.1913878999999998,1002.92596,0,0
81.72,-8.750883,4.309549,-1.1724504999999998,1002.93353,0,0
81.76,-8.640951,4.3524485,-1.347624,1002.95624,0,0
81.8,-8.765229,4.43348,-1.2624049,1002.93353,0,0
81.84,-8.516684,4.43348,-1.2671398,1002.95123,0,0
81.88,-8.774796499999999,4.29525,-1.2150617,1002.9412,0,0
81.92,-8.425875,4.3000164000000005,-1.2529371,1002.9487,0,0
81.96,-8.832162,4.3143163,-1.1961247,1002.9184,0,0
82.0,-8.626634,4.395347599999999,-1.3428916000000002,1002.9437,0,0
82.04,-8.765252,4.352449,-1.2387351,1002.92365,0,0
82.08,-8.621862,4.4763794,-1.2055945,1002.92365,0,0
82.12,-8.4593525,4.4096475,-1.2624077,1002.9309,0,0
82.16,-8.736585,4.300017,-1.2718769,1002.9206,0,0
82.2,-8.597974,4.257118,-1.2529396000000002,1002.9281,0,0
82.24,-8.707913000000001,4.238052,-1.2197992,1002.93317,0,0
82.28,-8.731816,4.4382477,-1.0446266,1002.9281,0,0
82.32,-8.593206,4.4573135000000015,-1.1866591,1002.92035,0,0
82.36,-8.674466,4.4954467000000005,-1.2718785,1002.9259,0,0
82.4,-8.597992999999999,4.4430137,-1.1629877,1002.8954,0,0
82.44,-8.574097,4.3858156,-1.1819255,1002.9407,0,0
82.48,-8.698376,4.4001155,-1.0872378,1002.9128,0,0
82.52,-8.521526,4.404882,-1.3618337,1002.9253,0,0
82.56,-8.650052,4.357203500000002,-1.2055498,1002.9128,0,0
82.6,-8.669153999999999,4.3000045,-1.0682504,1002.9281,0,0
82.64,-8.56398,4.614596400000001,-1.3144379,1002.9179,0,0
82.68,-8.606978999999999,4.4477663,-1.2812953,1002.93286,0,0
82.72,-8.630861999999999,4.4239335,-1.1629336,1002.93054,0,0
82.76,-8.688201,4.3524346,-1.210276,1002.943,0,0
82.8,-8.563908,4.471598,-1.2244775,1002.93286,0,0
82.84,-8.606911,4.333368,-0.9877559,1002.9407,0,0
82.88,-8.90324,4.238036,-0.92147267,1002.9077,0,0
82.92,-9.156552,4.147471,-0.45749938,1002.92303,0,0
82.96,-9.118297,4.1284046000000005,-0.49537298,1002.92554,0,0
83.0,-8.879289,3.7899787,0.21005495,1002.92554,1,4
83.04,-8.262677,3.8757765,0.1295716,1002.92786,1,4
83.08,-7.746442299999999,3.9139085,0.058557063,1002.9,1,4
83.12,-8.807539,3.5659492,0.14851248,1002.9529,1,4
83.16,-9.094311,3.5039835,0.28581175,1002.9352,1,4
83.2,-9.529256,4.071203,0.20532838,1002.9277,1,4
83.24,-8.75013,4.8147855,-0.21603191,1002.93304,1,4
83.28,-8.410743,4.133167299999998,-0.9309251,1002.9403,1,4
83.32,-8.592363,4.0044703,-0.334389,1002.92554,1,4
83.36,-8.200401,4.5764565,-0.5711076,1002.9303,1,4
83.4,-8.72138,5.00068,-1.2386569,1002.9452,1,4
83.44,-9.586509,4.8243165,-1.972488,1002.9527,1,4
83.48,-10.088369,4.280929,-1.7973136000000005,1002.97064,1,4
83.52,-8.649633,4.8624480000000005,-1.5795294,1002.9381,1,4
83.56,-8.191951,4.73378,-1.2387601,1002.9653,1,4
83.6,-8.311472,4.342923000000001,-1.6837966,1002.9276,1,4
83.64,-7.82874,4.357223,-1.6317208,1002.91003,1,4
83.68,-8.3258705,4.300025,-1.7027396,1002.9101,1,4
83.72,-8.067794000000001,4.6765842000000015,-2.0010102,1002.905,1,4
83.76,-7.5468216,4.6956506,-2.2377326,1002.9427,1,4
83.8,-8.364199000000001,4.276194599999998,-2.266142,1002.91754,1,4
83.84,-8.713157,4.619388,-2.057831,1002.91504,1,4
83.88,-8.999974,4.8434167,-1.7927072,1002.92004,1,4
83.92,-9.822129,4.924449,-1.9868205,1002.9302,1,4
83.96,-11.02667,5.205676,-2.1714652,1002.93475,1,4
84.0,-10.763812,4.7528543,-1.6033393,1002.9399,1,4
84.04,-9.430275,5.915895,-0.036253933,1002.9151,1,4
84.08,-5.3579206,6.4735830000000005,-0.40554094,1002.9301,1,4
84.12,-6.8492503,5.2056794,0.62182206,1002.9351,1,4
84.16,-8.005985,4.695658,0.011081751,1002.9427,1,4
84.2,-8.804238,4.3191013,-0.48129877,1002.9281,1,4
84.24,-8.522267,4.4477987,-0.24458201,1002.8997,1,4
84.28,-7.7001657,5.210449,-1.494467,1002.95776,1,4
84.32,-8.111261,5.0388536,-1.6412363999999997,1002.94775,1,4
84.36,-7.963124,5.2056837,-0.8553284999999999,1002.9226,1,4
84.4,-6.2233033,5.520278,-1.1630675,1002.9251,1,4
84.44,-7.5808,5.301017,-1.556026,1002.95776,1,4
84.48,-7.800699000000002,5.444014,-2.100485,1002.9349,1,4
84.52,-8.431657000000001,5.0674567,-1.3240451000000002,1002.9201,1,4
84.56,-10.491155,4.471622,-1.8258371,1002.92737,1,4
84.6,-9.821987,5.057909,-2.7206402,1002.9323,1,4
84.64,-7.2361183,5.7299940000000005,-3.5728333,1002.89246,1,4
84.68,-6.939775,5.6584954000000005,-2.9715643,1002.92554,1,4
84.72,-8.268564999999999,4.3238597,-2.678032,1002.905,1,4
84.76,-8.474103,4.1331973,-2.147779,1002.9301,1,4
84.8,-6.7294784,4.5240550000000015,-2.9526281,1002.9251,1,4
84.84,-6.581309299999999,4.328626,-2.299281,1002.9401,1,4
84.88,-7.5659550000000015,4.3381596,-3.3976634,1002.9251,1,4
84.92,-8.7752495,4.218996,-2.9384265,1002.8975,1,4
84.96,-8.507584,4.9816449999999985,-2.4507830000000004,1002.895,1,4
85.0,-8.636645,4.9911785,-2.47919,1002.9356,1,4
85.04,-9.434877,5.3439035000000015,-2.2424705,1002.93054,1,4
85.08,-10.089715,5.4535345999999985,-1.6885455000000005,1002.9403,1,4
85.12,-9.301054,5.277172,-0.9925884,1002.9326,1,4
85.16,-9.301059,4.4334917,-0.2918969,1002.9276,1,4
85.2,-8.63667,4.5383559999999985,0.015838899,1002.9376,1,4
85.24,-8.76095,4.719485,0.6691864000000001,1002.9427,1,4
85.28,-8.130021000000001,4.2428303,-0.088318884,1002.9201,1,4
85.32,-8.015311,4.047401399999999,0.32830825,1002.92505,1,4
85.36,-7.637711500000001,3.8662722,0.3330422,1002.9427,1,4
85.4,-7.470424,3.6279447,-0.7132616999999999,1002.91504,1,4
85.44,-8.445508,3.5564463,-0.5002139,1002.91754,1,4
85.48,-7.293580499999999,4.7909846,-0.09778997,1002.9226,1,4
85.52,-8.235208,5.391571,0.46560374,1002.9481,1,4
85.56,-9.128624,5.7538185,-0.3676143,1002.91754,1,4
85.6,-9.515776,5.934948,-0.22084677,1002.89795,1,4
85.64,-8.483328,6.1971083,0.09635946,1002.9454,1,4
85.68,-9.310222,4.8863053,-0.90259886,1002.9228,1,4
