Timestamp,Ax,Ay,Az,P,LPFRMSAcc,LPFPValue,Value,Type
0.0,-6.663784,6.679272,-0.82488304,1004.4828,0.01968502512800888,3.61613808,0,0
0.02,3.0545897,6.3887215,8.628942,1004.4802,0.06020899499964603,10.414468310399998,0,0
0.04,2.6674130000000003,5.692805,9.665776,1004.54596,0.1197647287992036,20.000346272064,0,0
0.06,2.285016,5.5974736,7.9519205,1004.5007,0.19271938545001507,32.014629312410875,0,0
0.08,2.6865075000000003,5.4544773,7.951919599999999,1004.5388,0.27729388762585017,46.131536821336695,0,0
0.1,2.710394,5.263816,9.698914,1004.5236,0.3746436835043466,62.05544772366672,0,0
0.12,1.9503934,5.7452383000000005,9.253878,1004.5108,0.4823125276119401,79.51865466516034,0,0
0.14,3.2982843,7.098940400000001,9.855146,1004.52124,0.6018710888332077,98.27915362586954,0,0
0.16,4.7322135,7.3468018,12.88043,1004.58435,0.7376979160376254,118.11862921449905,0,0
0.18,6.529407,7.875890299999999,15.13874,1004.61475,0.8930351908775188,138.84017587943987,0,0
0.2,8.078052,8.619473,12.530082,1004.5364,1.0628688744084265,160.26624091941557,0,0
0.22,10.821648,9.353523,9.249138,1004.3902,1.2445112304324843,182.23715824142815,0,0
0.24,4.928136,6.1265645,4.623624,1004.28174,1.4194885674024358,204.61002128148945,0,0
0.26,3.4607232000000003,5.3972816,3.3405987999999995,1004.33215,1.5840147872552537,227.25768272707413,0,0
0.28,0.79835975,3.4000947,2.5783584,1004.37756,1.7327107015266845,250.06678793857537,0,0
0.30000000000000004,-2.6765695,1.4934723,3.8045683,1004.40283,1.8680152107735488,272.936523054879,0,0
0.32,-4.402092,1.5268385,2.8955612,1004.4208,1.9922474269455528,295.7775644006473,0,0
0.34,-6.089375,1.5030059999999998,2.800872,1004.4536,2.109124058096973,318.5111422619258,0,0
0.36000000000000004,-6.639065,1.6841356,0.7698111999999999,1004.45844,2.2191291271267337,341.06794193200864,0,0
0.38,-8.923822999999997,1.2170135,0.2632288,1004.4485,2.3270682430140144,363.3873001295385,0,0
0.4,-10.8548765,0.37809956,-2.0092864,1004.4006,2.4370239549184483,385.41633291240953,0,0
0.42,-11.677016,0.26370257,-3.486422,1004.4412,2.550742378957813,407.10967580086975,0,0
0.44,-10.644589,1.0501846,-4.1066303,1004.4438,2.6658552968129667,428.42831642423005,0,0
0.46,-9.154711,1.498276,-2.8237364,1004.4817,2.7781263181330886,449.33925945990404,0,0
0.48,-9.656654,1.6555738000000002,-2.5822878,1004.4716,2.8883869789782377,469.8146451521698,0,0
0.5,-9.661498,1.5602442,-1.9810241,1004.4591,2.9961688650522147,489.83141598730805,0,0
0.52,-8.8298855,1.8033404,-1.9100146,1004.4766,3.099766205233616,509.37095735968194,0,0
0.54,-10.001005,1.4839828000000002,-1.7727233,1004.4617,3.201480514744472,528.4184227898166,0,0
0.56,-9.389259,1.8510095,-1.696979,1004.48444,3.30003106667908,546.9626009058403,0,0
0.5800000000000001,-8.98782,2.251402,-2.4213488,1004.46924,3.3951349617908124,564.9952605898977,0,0
0.6,-8.963989999999997,2.4134665,-1.4886774,1004.472,3.48648758011146,582.5110349486074,0,0
0.62,-9.451592,2.2132726000000003,-0.62228715,1004.5123,3.5748730026696256,599.5071777261481,0,0
0.64,-9.270034,2.518334,-1.3135169,1004.4644,3.660252338499677,615.9828154845691,0,0
0.66,-9.231855,2.566001,-1.4555546,1004.46674,3.7426605491505134,631.9392311361653,0,0
0.68,-9.179347,2.3991733,-1.6212649,1004.4895,3.8220085192302533,647.3795009738255,0,0
0.7000000000000001,-9.800793,2.1751466,-1.9337425,1004.4695,3.8996109322883363,662.3080473988764,0,0
0.72,-9.781739,2.0178518,-2.0331707,1004.4847,3.975326627303674,676.7307469694152,0,0
0.74,-9.686206,1.893923,-0.90638834,1004.4745,4.048517796501996,690.6545218208537,0,0
0.76,-8.69208,2.461145,-1.4934611,1004.46185,4.117646098444614,704.0872756610295,0,0
0.78,-8.983711999999997,2.4754462000000004,-1.5076703000000002,1004.4745,4.183524393472495,717.0378509618291,0,0
0.8,-9.46654,2.3229182,-1.5313485,1004.50244,4.24718180120785,729.5158518181531,0,0
0.8200000000000001,-9.21806,2.494516,-1.7159966,1004.4571,4.308306047381591,741.5312018682555,0,0
0.84,-9.54793,2.608915,-1.4792821000000005,1004.5052,4.367606519383217,753.0946715658004,0,0
0.86,-9.012665,3.0283735000000003,-1.7775563,1004.4647,4.424385121462336,764.2170854929143,0,0
0.88,-9.242159,2.9616435,-1.8864535,1004.45966,4.479176102003059,774.9097237071373,0,0
0.9,-9.094053,3.3000705000000004,-1.1952367,1004.4749,4.531724933668381,785.1841734678792,0,0
0.92,-8.869472,3.5622327000000005,-2.0379672,1004.4773,4.5821555447861115,795.0521325319864,0,0
0.94,-8.826518,3.5860672,-1.9953632,1004.48,4.63045180009129,804.5254014839163,0,0
0.96,-8.74912,3.9626029,-2.8237998,1004.4901,4.677264533845436,813.6158548444996,0,0
0.98,-8.572296000000001,3.6194112,-2.265143,1004.4773,4.7216951366028574,822.3352806364708,0,0
1.0,-9.035966,3.4954815000000004,-1.9053305,1004.4875,4.764478794167013,830.6955132559651,0,0
1.02,-9.064674,3.3191197,-1.9668806,1004.4748,4.805606420193893,838.7082202308287,0,0
1.04,-8.577164,3.6194136,-1.9716175,1004.4648,4.844425342127058,846.3849718009875,0,0
1.06,-8.687124,3.8005433,-1.9716198,1004.4853,4.881415523715841,853.7373106698959,0,0
1.08,-8.887908,4.005506,-2.2746246,1004.4748,4.917333675842132,860.7764922560523,0,0
1.1,-8.883156,4.2247677,-2.000032,1004.5079,4.9522319179565795,867.5137461734578,0,0
1.12,-8.864063999999997,4.353466,-2.0947223000000004,1004.49286,4.9862223558248635,873.9599085446529,0,0
1.14,-8.309637,4.453564,-2.5634313,1004.48004,5.018612744280398,880.1256100890802,0,0
1.16,-8.472177,4.2438364,-2.1562748,1004.4802,5.049364147708528,886.0213004974155,0,0
1.18,-8.257117,4.3725343,-1.9053543,1004.4776,5.078177939439844,891.6571752204297,0,0
1.2,-8.36708,4.072242299999999,-2.1278740000000003,1004.4826,5.105196582515046,897.0432056548918,0,0
1.22,-8.830749,3.9006464,-2.2557054,1004.4678,5.131297198254373,902.1890306864244,0,0
1.24,-8.653924,4.134208,-2.3361928,1004.45996,5.15640386091903,907.104057029816,0,0
1.26,-8.744772,4.258139599999999,-2.2178354,1004.4728,5.180759885788817,911.7975017815293,0,0
1.28,-8.238137,4.7967615,-2.6391997000000003,1004.498,5.2041891700314284,916.2783513577297,0,0
1.3,-8.147350999999999,4.6108660000000015,-2.667609,1004.4902,5.226388455609838,920.5551926983724,0,0
1.32,-8.434169,4.1246786,-2.3551412,1004.47253,5.247307439698665,924.6363121212503,0,0
1.34,-8.252564,4.0436473,-2.1184235,1004.47034,5.266503096478197,928.5297917436684,0,0
1.36,-8.716237,4.0102825,-2.2178485,1004.44525,5.2849726910862165,932.2433659877603,0,0
1.38,-8.754503,4.215245200000001,-2.696026,1004.4301,5.303224807928261,935.7845524322836,0,0
1.4,-8.505981,4.1818795,-2.454574,1004.4831,5.320611095195548,939.1608595459082,0,0
1.42,-8.348278,4.2676787,-2.4403737000000003,1004.4656,5.336956074900684,942.3792615771416,0,0
1.44,-8.367422,4.1675816,-2.5208607000000005,1004.4653,5.352308697798401,945.446551350262,0,0
1.46,-8.78304,3.9054158,-2.085275,1004.48553,5.3670492349443615,948.3693489169299,0,0
1.48,-8.907334,3.7528863,-2.2604496,1004.48285,5.381384332837019,951.1539414507367,0,0
1.5,-8.697042,3.6909213,-2.3409362,1004.49084,5.394908584247683,953.8064202483856,0,0
1.52,-8.730519000000001,3.6861553,-2.5445175,1004.4805,5.407831746522421,956.3325772010944,0,0
1.54,-8.491547,3.9769154,-2.2083764,1004.48065,5.419804754503627,958.7380225465836,0,0
1.56,-8.611061,3.8100863,-2.033205,1004.48315,5.430895308169283,961.0281565126904,0,0
1.58,-8.792712,3.6670907,-2.317271,1004.4758,5.44152206034028,963.2081304016966,0,0
1.6,-8.615879,3.786255,-2.6155405,1004.5109,5.45162439499917,965.2830453005763,0,0
1.62,-8.964824,3.276234,-2.4309,1004.4909,5.461396602909117,967.2575883821443,0,0
1.64,-8.55856,3.6003597000000003,-2.0994937,1004.48083,5.470156047069072,969.1362983188424,0,0
1.66,-8.553798,3.657559200000001,-2.2794027000000003,1004.47833,5.4781111322771885,970.9235577329608,0,0
1.68,-9.1082735,3.5193293,-2.530328,1004.4987,5.486384616833735,972.6236506634367,0,0
1.7,-9.003136999999997,3.5240965,-2.6297522,1004.5136,5.494769321212009,974.2406565944176,0,0
1.72,-8.697248,3.5431628,-2.2320638,1004.45557,5.5024600260419705,975.778216723292,0,0
1.74,-8.850221000000003,3.25717,-1.9811422,1004.4659,5.5094755890359774,977.2400805129615,0,0
1.76,-8.692508,3.4907317000000004,-2.2652085,1004.49603,5.5158710208289286,978.629904775667,0,0
1.78,-8.725983,3.5526977,-2.4971955,1004.48584,5.521923265687271,979.9510348610013,0,0
1.8,-8.816818,3.6527956,-2.4687908,1004.48584,5.527880936906043,981.2067107029027,0,0
1.82,-8.840736999999997,3.4144683,-2.2699475,1004.48114,5.533499884361629,982.4000138222763,0,0
1.84,-9.008048,3.4001691,-2.4119813,1004.48114,5.539174807784262,983.5339085127948,0,0
1.86,-8.735617,3.419236,-2.3741078,1004.4834,5.544360788813535,984.6112360306912,0,0
1.88,-8.87425,3.4812014,-2.2226088,1004.4585,5.549328048776664,985.6346127757934,0,0
1.9,-9.09414,3.4287697999999995,-2.4214554,1004.48114,5.554557718664321,986.606715965773,0,0
1.92,-8.764352,3.605133,-2.4735355,1004.4988,5.559539414578391,987.5300778469624,0,0
1.94,-8.783489999999999,3.5813007000000003,-2.5729597,1004.5115,5.564354642637664,988.4070935249318,0,0
1.96,-8.994109,3.1237187,-2.4782999,1004.5165,5.569026375963007,989.2400184412959,0,0
1.98,-8.779046000000001,3.2381167,-2.4783025000000003,1004.5241,5.573224965139128,990.031013591007,0,0
2.0,-8.726498,3.4764454,-2.582462,1004.5014,5.577119593922089,990.7820302963637,0,0
2.02,-8.487539,3.6671085,-2.5303867,1004.4989,5.580407109280193,991.4950093881502,0,0
2.04,-8.769578,3.2619514,-2.5777333,1004.4736,5.583394331730687,992.1717206398552,0,0
2.06,-8.984698,3.1952205,-2.5777361,1004.46857,5.5864650877004935,992.8139313595584,0,0
2.08,-8.607126,3.4955144,-2.535129,1004.499,5.5890817647460445,993.4234549985936,0,0
2.1,-8.755328,3.5860798,-2.5919447,1004.48364,5.591662636765095,994.0018467520504,0,0
2.12,-8.650203,3.557481,-2.5777442,1004.4686,5.593978085764022,994.5505940170973,0,0
2.14,-8.894002,3.4430845000000003,-2.6298254,1004.4737,5.596448186563864,995.0711902820312,0,0
2.16,-8.7363,3.4764514,-2.634563,1004.4914,5.598779124135276,995.5651018967114,0,0
2.18,-8.726769,3.3429885,-2.5919557,1004.48627,5.600839953722646,996.0336384046147,0,0
2.2,-8.631202,3.4144871,-2.5304112,1004.4711,5.6024942884942615,996.4780121247417,0,0
2.22,-8.803308,3.2953242999999994,-2.6203678,1004.4992,5.604069250652871,996.8995370201964,0,0
2.24,-8.841576,3.2571924,-2.535151,1004.48895,5.605566922302141,997.2993183045476,0,0
2.26,-8.698211,3.3858902000000004,-2.6393106,1004.4838,5.606871197687309,997.678429181504,0,0
2.28,-8.9276705,3.3334591,-2.5777662,1004.48145,5.608357879996478,998.0379024273293,0,0
2.3,-8.664813,3.4430902000000003,-2.6535196,1004.47363,5.609630173197185,998.378701606602,0,0
2.32,-8.726977999999999,3.6146872,-2.5777717,1004.48645,5.61091069267373,998.7018196556236,0,0
2.34,-8.779585,3.3715935,-2.5683053,1004.4712,5.612106004682738,999.0080965329788,0,0
2.36,-8.760497,3.4240265,-2.4830892,1004.46625,5.613178084123891,999.2983721342916,0,0
2.38,-8.612354,3.5384247,-2.681937,1004.4965,5.614057122766298,999.5735729159276,0,0
2.4,-8.750998,3.5384254,-2.6345956000000004,1004.4738,5.614992313745653,999.834381144084,0,0
2.42,-8.66977,3.5384262000000004,-2.6345982999999995,1004.46124,5.615823142816621,1000.0814879863644,0,0
2.44,-8.559866,3.4764616000000004,-2.7529612,1004.46375,5.6163773415166665,1000.3156077354524,0,0
2.46,-8.745795,3.4669166,-2.743448,1004.4536,5.6170164547957455,1000.5373727178987,0,0
2.48,-8.650210000000001,3.5050495,-2.6724331,1004.5143,5.617538486468309,1000.7476411946041,0,0
2.5,-8.712358,3.5574815,-2.648762,1004.48645,5.618096353330515,1000.9468941323204,0,0
2.52,-8.631111,3.50505,-2.6534975,1004.479,5.618496529597629,1001.1356696092099,0,0
2.54,-8.860552,3.4287848,-2.710311,1004.4764,5.619158451649087,1001.3144982499963,0,0
2.56,-8.769745,3.4764512,-2.7387183,1004.4839,5.619931436210513,1001.4839210832954,0,0
2.58,-8.8175535,3.6432807,-2.7576568,1004.48663,5.621024165809965,1001.6444328508984,0,0
2.6,-8.698069,3.633748,-2.6866417,1004.4738,5.6221270221508135,1001.7964467704892,0,0
2.62,-8.612041,3.68618,-2.715049,1004.4941,5.623133681151315,1001.9404778214661,0,0
2.64,-8.530795,3.6766472,-2.644034,1004.4765,5.623854321553417,1002.0768733379518,0,0
2.66,-8.765015,3.6957138,-2.6866446,1004.44617,5.624789594375198,1002.205921884302,0,0
2.68,-8.497355,3.662348,-2.6061604,1004.47394,5.6253470191044475,1002.3281140450734,0,0
2.7,-8.683779,3.6242156,-2.4783328,1004.4865,5.625813037478705,1002.4438532277687,0,0
2.72,-8.693349000000001,3.776746,-2.5872247,1004.49164,5.626392893907627,1002.5534924019786,0,0
2.74,-8.669459,3.7147808,-3.0038533,1004.4536,5.627224091064536,1002.6572099636631,0,0
2.76,-8.669469,3.419255,-2.4688663,1004.4712,5.627738693949505,1002.7553851652983,0,0
2.78,-8.788975,3.5193527,-2.615634,1004.4611,5.628348369966031,1002.8482733468685,0,0
2.8,-8.62647,3.6146839,-2.5493534,1004.5043,5.628774429254293,1002.9363110400548,0,0
2.82,-8.64082,3.6861827,-2.582495,1004.4967,5.6291372132793605,1003.0197185460104,0,0
2.84,-8.569136,3.6718833,-2.4120574,1004.4817,5.629207800389995,1003.0986805515066,0,0
2.86,-8.832032,3.5193536,-2.4736056,1004.4611,5.629423653079551,1003.173356089578,0,0
2.88,-8.64563,3.7529151,-2.4830751,1004.49677,5.629606461973772,1003.2441036850952,0,0
2.9,-8.717336999999999,3.748149,-2.3599813,1004.4842,5.62982468641642,1003.3110806072278,0,0
2.92,-8.6313095,3.7529156,-2.5209522,1004.489,5.630001975692256,1003.3745019254384,0,0
2.94,-8.717357000000002,3.814881,-2.4783435000000003,1004.48663,5.630328120442504,1003.4345446632774,0,0
2.96,-8.750985,3.7195542,-2.5967193,1004.48145,5.630834228352175,1003.4913672856444,0,0
2.98,-8.645846,3.8291852,-2.4262824,1004.4661,5.631300732212456,1003.5450847925392,0,0
3.0,-8.731899,3.6194572,-2.4878309,1004.4613,5.631755635702389,1003.5958479563786,0,0
3.02,-8.674558,3.6528234,-2.4310193,1004.489,5.6320883174603225,1003.643917635304,0,0
3.04,-8.708032000000001,3.7004895,-2.5115058,1004.4613,5.6324535105359645,1003.6893345801157,0,0
3.06,-8.703268,3.6957235,-2.497304,1004.4816,5.632826006610652,1003.7323171480624,0,0
3.08,-8.717625,3.6528244,-2.511509,1004.45886,5.6332042538913525,1003.7729120993672,0,0
3.1,-8.717639,3.7862887,-2.4878383,1004.4714,5.63367896288551,1003.8112963547827,0,0
3.12,-8.459547,3.8482542,-2.573059,1004.4687,5.6338604365623475,1003.8475793359904,0,0
3.14,-8.478683,3.91022,-2.591998,1004.4917,5.633879201607251,1003.8819578125759,0,0
3.16,-8.6412115,3.700492,-2.6630156000000005,1004.4538,5.633920692530673,1003.9143932663617,0,0
3.18,-8.712926,3.595628,-2.6109388,1004.4941,5.634003886331864,1003.9451401775681,0,0
3.2,-8.7464,3.5717955000000003,-2.4641733,1004.4764,5.634088403681824,1003.9742206836703,0,0
3.22,-8.837233,3.6575942,-2.54466,1004.48145,5.634450826801088,1004.0017422444014,0,0
3.24,-8.215876,4.077051,-2.620412,1004.5245,5.6343131533853565,1004.0279422233832,0,0
3.26,-8.177651,3.9531212,-2.3931618,1004.4941,5.633430952557991,1004.0527706928076,0,0
3.28,-8.655648,3.6623619,-2.6156807,1004.46643,5.632648062247168,1004.0761983018969,0,0
3.3,-8.918555,3.7147942000000014,-2.5730724,1004.49164,5.632459325804397,1004.0983945274013,0,0
3.32,-8.646121,3.77676,-2.6204176,1004.46643,5.632368275641147,1004.1193320399583,0,0
3.34,-8.550542,4.0055547,-2.5778098,1004.49927,5.63235489126879,1004.1392002027098,0,0
3.36,-8.684393,3.8101265,-2.6298897,1004.48914,5.6325214380767905,1004.1580154945874,0,0
3.38,-8.574473,3.8053606,-2.3742330000000003,1004.4892,5.632504252550018,1004.1758329507097,0,0
3.4,-8.612729,3.757695200000001,-2.4073758,1004.484,5.6323736412202505,1004.1926858563173,0,0
3.42,-8.75614,3.7529294,-2.511534,1004.4842,5.632458723995858,1004.2086265346287,0,0
3.44,-8.502825999999999,3.934059,-2.5778172,1004.4814,5.632453448701322,1004.2236937024603,0,0
3.46,-8.622968,3.8578098,-2.6962366,1004.5018,5.632590437116059,1004.2380082346277,0,0
3.48,-8.704263000000001,3.6433158,-2.6299584,1004.4437,5.632794016550777,1004.2513970456059,0,0
3.5,-8.546571,3.9531426,-2.2228034,1004.4968,5.632805642729294,1004.264110849622,0,0
3.52,-8.570511,3.9197779,-2.4405900000000003,1004.49176,5.632772120919335,1004.2761643037919,0,0
3.54,-8.556213,3.800615,-2.667845,1004.50183,5.632698405904014,1004.2876271324033,0,0
3.56,-8.900397,3.6671524,-2.426394,1004.46387,5.632989185745468,1004.2983901620872,0,0
3.58,-8.489377000000001,3.8149168,-2.5305545,1004.4942,5.633014199248115,1004.3086052905327,0,0
3.6,-8.541993,3.9579144,-2.4784796,1004.5121,5.632991627019807,1004.3183639589807,0,0
3.62,-8.608953999999999,4.096145,-2.5495,1004.52216,5.633204746831181,1004.3277203841697,0,0
3.64,-8.288747,4.1724114000000005,-2.57791,1004.4967,5.633131374518879,1004.3365960480832,0,0
3.66,-8.4991,3.938851,-2.5305698,1004.46387,5.632955093083531,1004.3448967709442,0,0
3.68,-8.451341000000001,4.0294165999999985,-2.6631365,1004.49927,5.632752741459885,1004.3527870332887,0,0
3.7,-8.159813,4.3583097,-2.8998606,1004.4817,5.632446024404294,1004.3602229557764,0,0
3.72,-8.092941,4.429809,-3.3496330000000003,1004.45605,5.632298797486485,1004.3671383142461,0,0
3.74,-8.01172,4.506075,-3.430121,1004.48676,5.6322844646026695,1004.3736793630583,0,0
3.76,-8.327231,4.1771836,-2.9519506,1004.45886,5.632307750018848,1004.3797656840816,0,0
3.78,-7.978347,4.291582,-2.9945638,1004.4765,5.631883531226044,1004.3854918008756,0,0
3.8,-8.112221,4.243918,-3.1271307,1004.48413,5.631342192588117,1004.3909064951912,0,0
3.82,-8.212638,4.243919,-3.051384,1004.4892,5.630824743664688,1004.3960447757056,0,0
3.84,-8.293937,4.5537457,-3.1839511000000003,1004.49176,5.63084617052767,1004.4009295351759,0,0
3.86,-8.351336,4.3535514000000015,-3.0371885,1004.4942,5.631161658379584,1004.4055814823172,0,0
3.88,-8.107607000000002,4.3344865,-3.046661,1004.47894,5.631298563316093,1004.4099560334752,0,0
3.9,-8.102866,4.201023,-3.008789,1004.50433,5.631121488634284,1004.4141611331577,0,0
3.92,-8.208062,4.2439237,-2.9330425,1004.4892,5.630842904329555,1004.4181468991576,0,0
3.94,-8.298921,4.1295275999999985,-2.9993281,1004.47894,5.630575625530372,1004.421887577158,0,0
3.96,-8.269025,4.329693,-3.1270459,1004.4764,5.630529448932233,1004.4253890849617,0,0
3.98,-8.187759,4.282027200000001,-3.1933265,1004.4538,5.630538021536879,1004.4285852965508,0,0
4.0,-8.139953,4.401190799999998,-3.0986376,1004.49677,5.630558592129601,1004.4316549340435,0,0
4.02,-8.273778,4.286793,-3.008683,1004.4941,5.630659143338324,1004.4345920679697,0,0
4.039999999999999,-8.03478,4.5489535000000005,-3.089167,1004.51685,5.630713932349802,1004.4374834480619,0,0
4.06,-8.04911,4.3964233,-3.0702288,1004.4865,5.630594157271317,1004.4402147310986,0,0
4.079999999999999,-8.225954,4.3058586,-3.0986342,1004.49176,5.6305625142911255,1004.4428136557576,0,0
4.1,-8.249844,4.172395,-3.0844305,1004.4892,5.630520997010338,1004.4452770564259,0,0
4.119999999999999,-8.096883,4.405956,-3.0560234,1004.4714,5.630399197433047,1004.4475477598533,0,0
4.14,-8.268946000000001,4.1628612999999985,-3.0844287999999995,1004.46643,5.630303762394379,1004.449622129466,0,0
4.159999999999998,-8.082525,4.4154887,-3.0418181,1004.46643,5.63010995760902,1004.4515155507898,0,0
4.18,-8.364525,4.072297,-3.0370831000000003,1004.4538,5.630010873908085,1004.4531968018887,0,0
4.199999999999998,-8.211561999999999,4.229593,-2.7861588,1004.4614,5.629708058710389,1004.4547118868727,0,0
4.22,-8.369287,3.957899,-2.7530172000000004,1004.4892,5.629248616858499,1004.456174773172,0,0
4.239999999999998,-8.474433,4.015097,-2.7530165,1004.4842,5.628890646089282,1004.4575682703226,0,0
4.26,-8.350149,4.1533275000000005,-3.013408,1004.5269,5.628680923926315,1004.4590491586316,0,0
4.2799999999999985,-8.264105,4.119961,-2.9139845,1004.4942,5.6283581347300515,1004.4604842145708,0,0
4.3,-8.340572,4.0055633,-2.9471247000000003,1004.51434,5.6279938753062,1004.4619461108257,0,0
4.3199999999999985,-8.412261,4.005563,-2.937655,1004.46643,5.6277164809856615,1004.4632539843576,0,0
4.34,-8.412252,4.0532284,-2.9423885,1004.43866,5.627560598740208,1004.4643210830667,0,0
4.3599999999999985,-8.498281,3.9864967,-2.781418,1004.47675,5.627512319622903,1004.4653087155873,0,0
4.38,-8.536508999999999,3.9578972,-2.8334956,1004.47894,5.627635197518804,1004.466230460306,0,0
4.4,-8.211474,3.9340641000000014,-3.0370743,1004.4815,5.627434153362354,1004.4670998842823,0,0
4.42,-8.416997,3.7338686,-2.918713,1004.4765,5.6270747016163565,1004.4679019477247,0,0
4.44,-8.393089,3.8149,-3.0465415,1004.4942,5.626680912036909,1004.4687053239703,0,0
4.46,-8.307329,4.015102,-3.0465667,1004.47675,5.626272697354107,1004.4694441480548,0,0
4.48,-8.168718,3.9674366,-2.9234724,1004.4817,5.625486326715193,1004.4701410940828,0,0
4.5,-8.269095,3.9865026,-2.8287847000000004,1004.46405,5.6245051019111525,1004.4707349876544,0,0
4.52,-8.249979,4.072301,-2.876129,1004.44116,5.623424976453293,1004.4711532820587,0,0
4.539999999999999,-8.388595,4.119966000000002,-2.8429883,1004.45135,5.622529867721338,1004.4714515951792,0,0
4.56,-8.460295,4.029401999999998,-2.838254,1004.48663,5.6218485498592425,1004.4717698269096,0,0
4.579999999999999,-8.40294,4.0675344,-2.9566143,1004.49445,5.621361503350849,1004.4721326650896,0,0
4.6,-8.398163,4.010336,-2.8808644,1004.50433,5.6209431213511705,1004.4725691793112,0,0
4.619999999999999,-8.364707000000001,4.0008025,-2.7956452,1004.46387,5.620466988709325,1004.472923566232,0,0
4.64,-8.235655,4.305862,-2.9897559,1004.4741,5.620103433031862,1004.4732409376767,0,0
4.659999999999998,-8.359931,4.062768,-2.7198951,1004.45886,5.6196789806591925,1004.4734695957097,0,0
4.68,-8.522447999999999,3.934071,-2.7246299,1004.49927,5.619388134297807,1004.4737645194027,0,0
4.699999999999998,-8.436413,4.038935,-2.8571935,1004.48413,5.6192288225468205,1004.4740624297084,0,0
4.72,-8.465095,4.053235,-2.8098497000000004,1004.4917,5.6192215760098865,1004.4743891585073,0,0
4.739999999999998,-8.474657,3.948371,-2.7861779,1004.4463,5.619262662469491,1004.4745767351036,0,0
4.76,-8.355164,3.972204,-2.738834,1004.45404,5.6191230946247925,1004.4746685455376,0,0
4.7799999999999985,-8.445983,4.0055695,-2.7909126,1004.4692,5.619047209243507,1004.474729982473,0,0
4.8,-8.450766,3.9579043,-2.6441462,1004.49927,5.618910725687684,1004.4748726122124,0,0
4.8199999999999985,-8.489007,4.0294023,-2.6820219,1004.49695,5.618872832499467,1004.475078118446,0,0
4.84,-8.46989,4.067535,-2.7530382,1004.4716,5.6189615572343765,1004.4752471825278,0,0
4.8599999999999985,-8.565489,3.9817374,-2.7435694,1004.50183,5.619255657995913,1004.4754922656932,0,0
4.88,-8.522472,4.0341697,-2.7246323,1004.45404,5.619685923622368,1004.4756315930217,0,0
4.9,-8.532035,4.043702,-2.6346788,1004.45654,5.620209316011682,1004.4756859729142,0,0
4.92,-8.402982000000002,4.072302,-2.7151635,1004.45636,5.6206510216919385,1004.4756644494847,0,0
4.94,-8.383866000000001,4.110434,-2.6725545,1004.4614,5.62099346149569,1004.4755940793643,0,0
4.96,-8.379151,4.134268799999999,-2.682029,1004.45636,5.621264947507139,1004.4754626576404,0,0
4.98,-8.379156,4.0818367,-2.7435768,1004.46936,5.621462413385007,1004.4753245638376,0,0
5.0,-8.508217,4.010339,-2.729374,1004.45905,5.621756036152152,1004.4751439557234,0,0
5.02,-8.4078455,4.1295023,-2.7483122000000004,1004.4388,5.622067226542604,1004.4748535321534,0,0
5.039999999999999,-8.274016,4.167635,-2.6820310000000003,1004.45654,5.622149054513823,1004.4745309851708,0,0
5.06,-8.336160000000001,4.172402,-2.8193293,1004.4465,5.622223859059651,1004.4741450711107,0,0
5.079999999999999,-8.355283,4.0770707,-2.7009697,1004.449,5.62217225416575,1004.473713555191,0,0
5.1,-8.340948,4.11997,-2.653626,1004.4618,5.621993977093023,1004.4732893789256,0,0
5.119999999999999,-8.374412,4.100904,-2.7341113,1004.4943,5.6217940490282965,1004.4729902150134,0,0
5.14,-8.556049,3.9579077000000007,-2.7672524,1004.4692,5.621799608752234,1004.4727122290063,0,0
5.159999999999998,-8.4413395,4.1724024,-2.7341123,1004.4766,5.621945617445107,1004.4724805965463,0,0
5.18,-8.32185,4.1247373,-2.7009716,1004.5145,5.621940038379783,1004.472427195957,0,0
5.199999999999998,-8.379211,4.091371499999998,-2.6915033,1004.45905,5.6218684088098225,1004.4723318532907,0,0
5.22,-8.269281,4.1152042999999985,-2.7009726,1004.482,5.62156839665824,1004.4722824138394,0,0
5.239999999999998,-8.455699000000001,4.096138,-2.7057076,1004.4918,5.621387656579971,1004.4723089924499,0,0
5.26,-8.345768,4.100905,-2.8145993,1004.4412,5.621184278108219,1004.4722204849376,0,0
5.2799999999999985,-8.493947,3.9865077000000007,-2.7104428,1004.44916,5.6210677429602285,1004.4720592619541,0,0
5.3,-8.336219,4.0532393,-2.7625217,1004.46155,5.620832365942519,1004.4718789719824,0,0
5.3199999999999985,-8.455718,4.0341735,-2.6630998,1004.44904,5.620633410558008,1004.4716374474644,0,0
5.34,-8.407926,4.015107,-2.7009754,1004.4767,5.620386501476983,1004.4714422615897,0,0
5.3599999999999985,-8.64214,3.90071,-2.7057104,1004.4893,5.620428923771981,1004.4713340832086,0,0
5.38,-8.570447999999999,3.9626753,-2.5968196,1004.4616,5.6205868075066725,1004.4712034540917,0,0
5.4,-8.584792,3.8721108,-2.6062887000000003,1004.45905,5.62080214025413,1004.4710442777694,0,0
5.42,-8.675614,3.848278,-2.909291,1004.4692,5.621389791951433,1004.4708969901708,0,0
5.44,-8.188080000000001,4.0627737,-2.7341187,1004.48676,5.621502144591359,1004.470823953684,0,0
5.46,-8.599021,3.748178,-2.592075,1004.4996,5.621591490156495,1004.4708630124112,0,0
5.48,-8.273994,3.8721082,-2.4926527000000003,1004.45386,5.6211140436215965,1004.4708363138576,0,0
5.5,-8.536883,3.8578086,-2.4737150000000003,1004.4719,5.620594756133891,1004.4708165522862,0,0
5.52,-8.4556265,3.948373,-2.379027,1004.4817,5.6199184457764995,1004.4708382713733,0,0
5.539999999999999,-8.799772,3.972206,-2.459512,1004.46936,5.619797091620907,1004.4708521405817,0,0
5.56,-8.680278,4.0103383,-2.2796044,1004.45135,5.619889625496991,1004.470794187708,0,0
5.579999999999999,-8.264434,4.3392305,-2.2890732000000003,1004.46686,5.6197156931197485,1004.4707288174733,1,1
5.6,-8.364811,4.153335,-2.298542,1004.5044,5.61932141106438,1004.4707922725908,1,1
5.619999999999999,-8.345691,4.2296004,-2.2796044,1004.4767,5.618759021107093,1004.4708696093512,1,1
5.64,-8.211857,4.0580034,-2.3127453,1004.4589,5.6176703282325855,1004.4708948535193,1,1
5.6599999999999975,-8.426949,4.072304,-2.4216366000000003,1004.454,5.616578363858634,1004.4708563377936,1,1
5.68,-8.221415499999999,4.2057667,-2.3600893,1004.47925,5.6152047464174055,1004.470852522482,1,1
5.6999999999999975,-8.288333999999999,4.1438017,-2.6204815,1004.47943,5.613791600694038,1004.470880030192,1,1
5.72,-8.575122,4.3392305,-2.6204815,1004.44916,5.613037579651063,1004.4708261438956,1,1
5.7399999999999975,-8.632480000000001,4.496527,-2.5636687,1004.45135,5.613084786421774,1004.4707084158464,1,1
5.76,-9.449826,4.4822273,-3.4300647000000004,1004.47424,5.615797094917777,1004.4706171050447,1,1
5.7799999999999985,-9.072222,4.148568,-3.4205961000000005,1004.51434,5.619896092194729,1004.4706938252423,1,1
5.8,-8.417388,4.0008050000000015,-2.9613588,1004.45667,5.623611574614017,1004.470711129438,1,1
5.8199999999999985,-8.474746000000001,3.8101428,-3.6289098,1004.43146,5.627382937028671,1004.4705851153592,1,1
5.84,-8.603800999999999,3.3763862,-3.7093947,1004.4313,5.631156471792111,1004.4703323429044,1,1
5.8599999999999985,-7.709978599999999,3.4478848,-3.4963465,1004.45654,5.633217615146068,1004.4700593407283,1,1
5.88,-6.787476,3.7958431,-3.2596262,1004.4263,5.6322854317645765,1004.469660582379,1,1
5.9,-6.768357000000001,3.819676,-3.46794,1004.4591,5.628874095508108,1004.469270221405,1,1
5.92,-7.0503649999999976,3.7577107000000014,-3.6336443,1004.47406,5.6238380322532056,1004.4689425416516,1,1
5.94,-7.475767999999999,4.3249307,-4.0218654,1004.49445,5.6189442625576245,1004.4687448306712,1,1
5.96,-8.732697,5.659562599999999,-5.0776234,1004.5373,5.618458397723758,1004.4688169318588,1,1
5.98,-8.947782499999997,5.974155400000001,-5.25753,1004.5548,5.622691716327438,1004.4691901795132,1,1
6.0,-9.282363,5.487966,-4.5473690000000015,1004.54254,5.630514672174938,1004.4697840404943,1,1
6.02,-9.722099,5.4832,-2.928202,1004.47144,5.64114149324763,1004.4703147375116,1,1
6.039999999999999,-8.0873995,5.0875754,-1.6641152,1004.49927,5.650380964291794,1004.4708879003412,1,1
6.06,-7.9009814,4.963645,-1.6357082,1004.49176,5.6578929698915985,1004.471469486576,1,1
6.079999999999999,-8.493669500000001,4.0865984,-1.2948306,1004.4842,5.663936979441996,1004.4720292060214,1,1
6.1,-8.340710000000001,3.7338734,-0.9870936,1004.4892,5.6679914598477055,1004.4725855889816,1,1
6.119999999999999,-7.4516606,3.8292043,-1.5457528,1004.4538,5.668876375519411,1004.4730095808452,1,1
6.14,-8.139946,3.7148062999999993,-1.5457523000000002,1004.4335,5.668122924400006,1004.4732419855644,1,1
6.1599999999999975,-8.025224,3.738639,-1.3895162,1004.4339,5.665678514421103,1004.4733057072264,1,1
6.18,-7.781448399999999,3.905468700000001,-1.4084533,1004.44885,5.661453623671253,1004.473273971141,1,1
6.1999999999999975,-7.241324400000001,4.668117,-1.3232336,1004.4588,5.655456381338233,1004.4731938228398,1,1
6.22,-8.288094500000001,4.777748,-1.7351261000000002,1004.4714,5.650005737043798,1004.4731165460388,1,1
6.2399999999999975,-9.745928,4.6776505,-1.915033,1004.4611,5.647668234191643,1004.4730050046913,1,1
6.26,-9.592969,5.28777,-2.0002518,1004.43335,5.648414719743964,1004.4727636887401,1,1
6.2799999999999985,-9.946668,5.3211346,-2.5163012000000005,1004.47394,5.652762431375897,1004.472554696686,1,1
6.3,-9.25359,4.911211,-3.27854,1004.4714,5.659069695232122,1004.4723658743993,1,1
6.3199999999999985,-9.119749,4.0246315,-3.2974768,1004.41583,5.666093075608694,1004.4719955018784,1,1
6.34,-9.287037,3.7100387,-3.2548666,1004.441,5.673760204178215,1004.4715566569124,1,1
6.3599999999999985,-8.202015,3.6766725,-3.112834,1004.4789,5.679879942920276,1004.4711953295354,1,1
6.38,-7.5662947,3.228616,-2.478423,1004.4839,5.6826970533289085,1004.4709217974788,1,1
6.4,-6.677245,3.1285179,-2.7198772,1004.5066,5.681064103117268,1004.4708085460827,1,1
6.42,-6.8875509999999975,2.7662594,-2.5447037,1004.5041,5.675477843462279,1004.4708283263832,1,1
6.44,-7.5232577,2.4230673,-2.6677976,1004.48645,5.667448481286327,1004.4709020422818,1,1
6.46,-8.225533500000001,3.157108,-2.9376261,1004.4738,5.659254485709449,1004.4709776102977,1,1
6.48,-8.526643,3.8387256,-3.4300025,1004.4561,5.652342715574986,1004.4709908227992,1,1
6.5,-8.244614,3.9197567,-3.084389,1004.499,5.645914995847003,1004.4711033304036,1,1
6.52,-9.425204,3.5479643,-3.1885443,1004.49396,5.641866168595379,1004.4712850261333,1,1
6.539999999999999,-10.543658,3.505065,-3.5862322,1004.5218,5.642244796611168,1004.4716274263859,1,1
6.56,-11.121994,4.229581400000002,-3.2027435,1004.5091,5.647879247108756,1004.4720648725144,1,1
6.579999999999999,-10.419344,4.186681299999999,-2.3789554,1004.4763,5.656382598212893,1004.4724666463724,1,1
6.6,-8.961485,4.1771483,-1.7066683,1004.49396,5.664387251795327,1004.4728990298262,1,1
6.619999999999999,-8.354429,3.8863876,-1.5693687,1004.46356,5.6704954108985115,1004.4732474633388,1,1
6.64,-7.8764305,3.714791,-1.4888821,1004.47363,5.673841690633933,1004.4735567163224,1,1
6.6599999999999975,-8.741553999999999,3.2429016,-2.0049305,1004.476,5.67619454012284,1004.47383876808,1,1
6.68,-8.120158,3.5431943,-2.2321799,1004.4435,5.676828869970173,1004.473978769448,1,1
6.6999999999999975,-8.187058,3.5336604,-2.2037718,1004.4331,5.676044242636548,1004.4739553110865,1,1
6.72,-7.5083027,3.9245176,-2.4594276,1004.49646,5.6732530804665275,1004.4740156001584,1,1
6.7399999999999975,-7.259734,4.4107056,-2.520973,1004.48364,5.668779877336182,1004.4741035194216,1,1
6.76,-6.824753,4.5632353,-1.9528426,1004.476,5.661959540109197,1004.474188032213,1,1
6.7799999999999985,-7.704217,4.0293803,-2.3694685,1004.48114,5.654279869303405,1004.4742877347992,1,1
6.8,-8.593241,4.1008787,-2.6487963,1004.4458,5.647680495062816,1004.4742732761592,1,1
6.8199999999999985,-8.727053999999999,4.548934,-2.757686,1004.42816,5.642760597737437,1004.4740944927107,1,1
6.84,-10.729772,4.472668,-4.4668044999999985,1004.4737,5.643983171991911,1004.473935099482,1,1
6.8599999999999985,-11.093018,4.710996,-4.5236160000000005,1004.4354,5.651500925767813,1004.4736555332668,1,1
6.88,-9.252773,3.9102142,-2.2937088,1004.4128,5.6592138915896655,1004.4731894286392,1,1
6.9,-8.879928,3.1666307,-3.5199175000000005,1004.4939,5.666572124390492,1004.4728521366476,1,1
6.92,-9.028082,2.4325807,-2.724536,1004.5342,5.6729161907153225,1004.4727749577517,1,1
6.94,-7.63714,2.8091383,-2.5872364,1004.4912,5.675846853957857,1004.4727730926312,1,1
6.96,-6.8729205,2.8949494,-2.1280494,1004.4708,5.6741226533888875,1004.4727643414772,1,1
6.98,-7.4703979999999985,2.8329843999999995,-2.0428302,1004.458,5.669312467639611,1004.4727034573283,1,1
7.0,-7.957941,2.7948518,-2.3695045,1004.46826,5.6628619941883755,1004.472633663648,1,1
7.02,-8.220832000000001,2.8091516,-2.454724,1004.47833,5.655539741847918,1004.4725925007627,1,1
7.039999999999999,-7.9101477,2.9950473,-2.8476799,1004.49347,5.6472594687712405,1004.4726312882348,1,1
7.06,-8.990385,2.8329847000000004,-2.8950240000000003,1004.468,5.64010802704344,1004.4726488882072,1,1
7.079999999999999,-9.91767,3.3382394,-2.7577267000000005,1004.47833,5.635977094374387,1004.4726848915456,1,1
7.1,-10.500808,3.7100315,-2.5494132,1004.49835,5.635783918132213,1004.4728090984855,1,1
7.119999999999999,-11.97299,3.4717038,-2.2274737,1004.49854,5.641645211290296,1004.4730114789833,1,1
7.14,-11.303822,4.000791,-1.924472,1004.50085,5.651755976709686,1004.4732905210667,1,1
7.1599999999999975,-8.058336,4.6871753,-2.4736633,1004.51605,5.660390216384237,1004.473691016776,1,1
7.18,-7.580359,4.2200527,-0.8592314,1004.5336,5.665762697207997,1004.474260567124,1,1
7.1999999999999975,-9.090779,4.1914535000000015,-1.4605011,1004.5362,5.6711398296953694,1004.47498680377,1,1
7.22,-9.793412,4.029391,-1.8629258,1004.48065,5.6778237229746225,1004.4756488939768,1,1
7.239999999999997,-8.918711,4.1342550000000005,-1.417892,1004.42,5.683932852279217,1004.4760335808653,1,1
7.26,-7.981872,4.491747,-1.4415642,1004.4302,5.688139560127892,1004.4762084893086,1,1
7.2799999999999985,-7.1549687,4.63951,-1.6782846000000002,1004.48566,5.689443422888767,1004.4763970638478,1,1
7.3,-7.1262927,4.8301725,-1.4889088,1004.5082,5.688272592422233,1004.4766781788808,1,1
7.3199999999999985,-6.8060484,4.8969045,-1.0722812,1004.4806,5.684329317160716,1004.4769406906796,1,1
7.34,-7.599498,5.2448625999999985,-1.0202030999999998,1004.4932,5.679690095118482,1004.4772311796187,1,1
7.3599999999999985,-7.9675449999999985,5.6261883,-1.4652374,1004.4781,5.675644267724311,1004.4774909833992,1,1
7.38,-9.430167,5.869282,-2.3505714,1004.4653,5.675234838500555,1004.4776766584787,1,1
7.399999999999999,-9.320234,5.959847,-3.387406,1004.4401,5.678489669690786,1004.4777054450087,1,1
7.42,-8.459871000000001,4.8015733,-3.1696239,1004.41705,5.682187574048225,1004.4775125211847,1,1
7.439999999999999,-7.6042905,4.51558,-3.4678915,1004.4652,5.684743667638532,1004.4772977286176,1,1
7.46,-7.0012174,4.281999,-3.3163157,1004.4751,5.684934823188852,1004.477100026082,1,1
7.479999999999999,-7.832869,3.9006734,-3.9980671,1004.46747,5.684633754497197,1004.4768906680276,1,1
7.5,-9.085149,3.7338436,-4.173237,1004.4678,5.686084953169104,1004.4766729528461,1,1
7.52,-9.214172,4.0436687,-4.220578,1004.4902,5.689576897990147,1004.4765292770813,1,1
7.539999999999999,-7.7610845999999984,4.334428,-4.5093746,1004.4953,5.692897495382326,1004.4764698997784,1,1
7.56,-7.12534,4.4011593,-4.585122,1004.49286,5.695182258355514,1004.476476438354,1,1
7.579999999999999,-7.177887400000001,3.643276,-3.6240351,1004.5207,5.695046551181887,1004.4766414206613,1,1
7.6,-7.7084174,3.7433730000000014,-3.6335015,1004.48285,5.693770341884719,1004.4768095499136,1,1
7.619999999999999,-8.54485,3.9006684,-3.6997802,1004.4904,5.693128102559407,1004.4770070345413,1,1
7.64,-8.893745,3.9388,-3.3257594,1004.4448,5.693431444264048,1004.477065586634,1,1
7.659999999999997,-8.82202,4.243859,-2.9612076000000003,1004.43713,5.694461129032098,1004.4769735551514,1,1
7.68,-8.124141,4.4392867,-3.2689416,1004.4978,5.6952774175421945,1004.4769672113347,1,1
7.699999999999997,-7.8898993000000015,3.9864635,-2.9091240000000003,1004.4798,5.6948382699971605,1004.4769718039772,1,1
7.72,-8.176657,3.8720655,-2.5398374,1004.48737,5.693479873217807,1004.4770132955424,0,0
7.739999999999997,-8.162287,3.8577652,-2.3409896,1004.4673,5.691168045497233,1004.4770149896248,0,0
7.76,-8.754954,3.9197295,-2.3693936,1004.4647,5.689173684436692,1004.4769721525536,0,0
7.7799999999999985,-8.563731,4.143757,-2.6581893,1004.48236,5.68746140523924,1004.4769536979685,0,0
7.8,-8.730992,3.8911288,-2.6818585,1004.48987,5.686108355329906,1004.476983890184,0,0
7.8199999999999985,-8.773983,3.7624314,-2.7718096,1004.4875,5.685104593805047,1004.4770484260208,0,0
7.84,-8.707034,3.6242,-2.5350864,1004.4646,5.684049455486425,1004.4770606355532,0,0
7.8599999999999985,-8.635307000000001,3.6956978,-2.582428,1004.4495,5.682901759017768,1004.4769722056076,0,0
7.88,-8.644835,3.662331,-2.6250346,1004.47705,5.681691446753278,1004.4768943489676,0,0
7.899999999999999,-8.410598,3.8911252,-2.5871568,1004.4593,5.6801657440986135,1004.4767622151843,0,0
7.92,-8.673457,3.8243928,-2.70078,1004.467,5.678855224405153,1004.4766103177983,0,0
7.939999999999999,-8.773800999999999,3.5669977999999993,-2.59662,1004.4393,5.677665242640963,1004.4763417841244,0,0
7.96,-8.334378,3.843466,-2.35046,1004.46936,5.675865746576212,1004.4760793733474,0,0
7.979999999999999,-8.525554,3.5288727,-2.4309435,1004.4593,5.673675023138827,1004.4757871014405,0,0
8.0,-8.850564,3.4478410000000004,-2.4972236,1004.46185,5.671727076826577,1004.4754786764183,0,0
8.02,-8.850549,3.4955058,-2.5919104,1004.46936,5.670086461773784,1004.4751841248337,0,0
8.04,-8.68802,3.8243983,-2.5161583,1004.4619,5.668635663506299,1004.474876036204,0,0
8.059999999999999,-8.439454,3.9244952,-2.5587666,1004.4694,5.6670092716847895,1004.4745840953606,0,0
8.08,-8.8505,3.7481327000000006,-2.5019522000000003,1004.4516,5.665813708591199,1004.4742433936881,0,0
8.1,-8.883942999999997,3.54317,-2.539826,1004.48444,5.664928661099327,1004.4739790574727,0,0
8.12,-8.54456,3.6480339,-2.4924805,1004.49695,5.663746141341933,1004.4738281853861,0,0
8.139999999999999,-8.683159,3.3668067,-2.388322,1004.4617,5.662294939396082,1004.4736512133427,0,0
8.16,-8.640122999999999,3.381106,-2.5303528,1004.4945,5.6606169114390985,1004.4735698964777,0,0
8.18,-8.644886999999999,3.4573703,-2.5350854,1004.4667,5.6588122329304325,1004.473473313268,0,0
8.2,-8.525375,3.586067,-2.6439753,1004.4794,5.656839403995375,1004.4734093084164,0,0
8.219999999999999,-8.831267,3.3715718,-2.6487083,1004.4639,5.655135941323854,1004.473318520219,0,0
8.24,-8.807352,3.4764354,-2.5256124,1004.4641,5.653640529186935,1004.4732051130952,0,0
8.26,-8.864694,3.5098007000000004,-2.5634863,1004.4565,5.652486388976115,1004.4730447681533,0,0
8.28,-8.821659,3.4430685,-2.5587502,1004.4487,5.651506016576043,1004.4728154461972,0,0
8.299999999999999,-8.769065,3.2571726,-2.66764,1004.4791,5.650512323489263,1004.4726354417104,0,0
8.32,-8.697352,3.4001691,-2.752858,1004.47406,5.649527666130003,1004.472481518156,0,0
8.34,-8.649538,3.428768,-2.6486995,1004.4636,5.648426385927558,1004.4723135378376,0,0
8.36,-8.984107,3.4001682,-2.5729475,1004.4636,5.647788455314663,1004.4721337416923,0,0
8.379999999999999,-8.568249,3.5622303,-2.5587428,1004.45636,5.646899106731138,1004.4719180883484,0,0
8.4,-8.735525,3.5145645,-2.5824132,1004.45105,5.646077972731737,1004.4716524119352,0,0
8.42,-8.663813000000001,3.505031,-2.7339130000000003,1004.4688,5.645265794196735,1004.471407391574,0,0
8.44,-8.764171000000001,3.4049327000000003,-2.9374907,1004.48627,5.644699156484783,1004.4712443969728,0,0
8.459999999999999,-8.821860000000003,3.4001749,-2.7907546,1004.44324,5.6443664521724335,1004.4709995591144,0,0
8.48,-8.6880245,3.4812062000000004,-2.681863,1004.4636,5.643988999325376,1004.4707565819696,0,0
8.5,-8.611545,3.5717704,-2.6913314,1004.4712,5.6435056393408045,1004.4705434836695,0,0
8.52,-8.606763,3.4716730000000005,-2.7670817000000003,1004.4762,5.642890357148424,1004.4703755534703,0,0
8.54,-8.769274000000001,3.44784,-2.667659,1004.46625,5.642386797151063,1004.470212318354,0,0
8.559999999999999,-8.731032,3.3096097,-2.6629245,1004.44574,5.64181020565472,1004.4699799834588,0,0
8.58,-8.530278,3.4383068,-2.7007995,1004.4356,5.640913311573257,1004.4696509244052,0,0
8.6,-8.802725,3.3858747000000005,-2.8759723,1004.44574,5.640307546496023,1004.4692740884976,0,0
8.62,-8.688006,3.5956032,-2.9091127,1004.43054,5.639924220000157,1004.4688016735707,0,0
8.639999999999999,-8.520710000000001,3.7957983,-2.7812836,1004.4153,5.639513029854831,1004.4681916417168,0,0
8.66,-8.539827,3.7195337,-2.53036,1004.4356,5.6389093198239815,1004.4675352876602,0,0
8.68,-8.716678,3.605136,-2.591907,1004.43304,5.638408156685354,1004.4668311501804,0,0
8.7,-8.692777,3.5431705,-2.7434075,1004.46826,5.6379940161552975,1004.4662141181627,0,0
8.719999999999999,-8.635416000000001,3.6480348,-2.7434072,1004.4607,5.637632755141508,1004.4656490578462,0,0
8.74,-8.578056,3.7195334,-2.8380952,1004.46826,5.637326742816336,1004.4651591699424,0,0
8.76,-8.535035,3.547937,-2.6913285,1004.4557,5.636771188207388,1004.4646922519787,0,0
8.78,-8.654527999999999,3.505038,-2.6439843,1004.46326,5.63615829256056,1004.464274527159,0,0
8.799999999999997,-8.592389,3.6051357,-2.6676562,1004.4632,5.635471835060028,1004.4639015572104,0,0
8.82,-8.630624000000001,3.5574698,-2.587171,1004.4405,5.6347114995679055,1004.463487755358,0,0
8.84,-8.64974,3.662334,-2.6013740000000003,1004.4481,5.63401280694366,1004.463066724122,0,0
8.86,-8.812252,3.5527034,-2.5066857,1004.4604,5.6335370834578535,1004.4626851007147,0,0
8.879999999999997,-8.75967,3.6146681,-2.7670774,1004.463,5.633354354442433,1004.4623490319098,0,0
8.9,-8.769229,3.5288703000000003,-2.6155767000000005,1004.4631,5.633298012845616,1004.4620547849986,0,0
8.92,-8.793125,3.4812047,-2.5256228,1004.46576,5.633313570475647,1004.461808127202,0,0
8.94,-8.687966000000001,3.4716718,-2.5398257,1004.4657,5.633197097098218,1004.4616041911148,0,0
8.959999999999997,-8.820561999999997,3.476408,-2.6344006,1004.4756,5.633266959226337,1004.4614743781004,0,0
8.98,-8.643659,3.4764066,-2.7148807,1004.4806,5.633218442637168,1004.4614285275596,0,0
9.0,-8.758326,3.524071,-2.6675322,1004.46277,5.633286428380924,1004.4613928433224,0,0
9.02,-8.605319999999999,3.714732,-2.7148714,1004.45776,5.633348582199954,1004.4613482344948,0,0
9.04,-8.495332000000001,3.652765,-2.5586312,1004.46265,5.633065838218642,1004.4613135044902,0,0
9.06,-8.734274000000001,3.5383668,-2.6154397,1004.4376,5.632864285735028,1004.4611974484419,0,0
9.08,-8.925413,3.5383656,-2.7527325,1004.46515,5.633167594449023,1004.4611091305037,0,0
9.1,-8.633797,3.5383644,-2.6485713,1004.47797,5.633315916457727,1004.4610917919032,0,0
9.12,-8.8344965,3.4144325,-2.6390975,1004.4499,5.633602812407581,1004.4610361810652,0,0
9.14,-8.719729,3.4239645,-2.605952,1004.4677,5.633785444777156,1004.4610110330768,0,0
9.16,-8.748356,3.4144297,-2.7006354,1004.45996,5.633975221565869,1004.4609850285952,0,0
9.18,-8.757864,3.3667636,-2.6343489,1004.49036,5.6341162712087325,1004.4610678009323,0,0
9.2,-8.886869,3.290497,-2.5065157000000005,1004.4547,5.634331924839425,1004.4611180144859,0,0
9.22,-8.858139999999997,3.471625,-2.6911523,1004.4474,5.634789503357204,1004.4611129983299,0,0
9.24,-8.748156,3.566955,-2.7337577,1004.4547,5.635350199683857,1004.4610854792604,0,0
9.26,-8.815021,3.476389,-2.672206,1004.4499,5.6360215083627425,1004.4610208956852,0,0
9.28,-8.671574,3.404889,-2.6579976000000003,1004.44714,5.6364608150591495,1004.4609138584137,0,0
9.3,-8.73366,3.3190901,-2.5822427,1004.4498,5.636704989938912,1004.4607792703903,0,0
9.32,-8.757508999999999,3.328622,-2.6295822,1004.45483,5.636853684589073,1004.4606389310396,0,0
9.34,-8.776572999999999,3.4048853,-2.7053275,1004.4572,5.6370507373748415,1004.4605025470372,0,0
9.36,-8.805203,3.5526477999999995,-2.7147918,1004.4673,5.637457048832995,1004.4604065089636,0,0
9.38,-8.5040245,3.5764792,-2.818944,1004.47,5.637571214571339,1004.4603561862897,0,0
9.4,-8.733406,3.342917,-2.6200943,1004.4723,5.637561716323732,1004.460354718904,0,0
9.42,-8.652097999999999,3.2142184,-2.5585425,1004.4519,5.637165389666784,1004.460322985334,0,0
9.44,-8.53255,3.3810465,-2.5585377,1004.42175,5.636324890642215,1004.4601560828044,0,0
9.46,-8.868917,3.6051185,-2.7906868,1004.43677,5.636018047814237,1004.4599244178313,0,0
9.48,-8.997994,3.6861503,-2.819095,1004.47473,5.636499956765372,1004.4597730187567,0,0
9.5,-8.749466,3.6480186,-2.733878,1004.462,5.637140186125925,1004.4596472596668,0,0
9.52,-8.725588,3.4907227,-2.842771,1004.51514,5.6378194974076665,1004.4597359128004,0,0
9.54,-8.477057,3.4335246,-2.5587087000000004,1004.4747,5.637863120896445,1004.459868117423,0,0
9.56,-8.653933,3.3334274,-2.6723363,1004.47174,5.637664788078821,1004.4600276722048,0,0
9.58,-8.54402,3.438292,-2.6486664,1004.43677,5.637112237890987,1004.46008492719,0,0
9.6,-8.467564999999999,3.6813872,-2.7196844,1004.4292,5.636336486376622,1004.4600243319572,0,0
9.62,-8.845189,3.5193243,-2.871187,1004.4617,5.6360267218916285,1004.4599768224142,0,0
9.64,-8.974264999999997,3.4001613,-2.942205,1004.4543,5.636326252138955,1004.4599144064217,0,0
9.66,-8.806993499999997,3.5002596,-2.7859719,1004.43896,5.636831359618683,1004.4597838197873,0,0
9.68,-8.563244000000001,3.6432567,-2.7670362,1004.4416,5.637164244496389,1004.4596029716856,0,0
9.7,-8.563265,3.5383933,-2.7481002999999995,1004.42664,5.6372517934895825,1004.4593245076054,0,0
9.72,-8.587183999999999,3.5765262000000004,-2.7623055,1004.46924,5.637203786326778,1004.4591141525166,0,0
9.74,-8.635003999999999,3.3763309,-2.686557,1004.45667,5.636930826338438,1004.4589194838112,0,0
9.76,-8.658925,3.4001644,-2.5966053,1004.4463,5.636470840046626,1004.4587020444012,0,0
9.78,-8.783221000000001,3.4954958,-2.6865609,1004.4643,5.636199315391347,1004.4585300675786,0,0
9.8,-8.783242,3.61466,-2.7433755,1004.4462,5.636217187426972,1004.4583337206152,0,0
9.82,-8.539492999999998,3.676626,-2.643955,1004.4488,5.63603294311185,1004.4581259070436,0,0
9.84,-8.577755999999999,3.5717623,-2.5824099,1004.45886,5.635624833220312,1004.4579449257068,0,0
9.86,-8.611232000000001,3.5908291,-2.6534276,1004.45386,5.635136840210508,1004.457770304865,0,0
9.88,-8.845466,3.4192338,-2.388303,1004.47406,5.634745338437077,1004.4576746527916,0,0
9.9,-8.783349000000001,3.5336316,-2.620291,1004.45404,5.634531931615366,1004.4575770498697,0,0
9.92,-8.687772,3.6623292,-2.696043,1004.45404,5.63444054986562,1004.457478074548,0,0
9.94,-8.649557000000001,3.8577585,-2.7386549,1004.4388,5.634567100728914,1004.4573233788857,0,0
9.96,-8.509033,3.795746,-2.762152,1004.4666,5.634593101153133,1004.4572200856343,0,0
9.98,-8.633256,3.7719123,-2.7668817000000003,1004.4234,5.634740298002896,1004.4570070634088,0,0
10.0,-8.810049000000003,3.3095546,-2.634313,1004.4388,5.634897902754595,1004.4567532915428,0,0
10.02,-8.527988,3.2523549,-2.6911209,1004.44366,5.634529319961863,1004.4564819228716,0,0
10.04,-8.723905,3.3524510000000003,-2.960977,1004.44867,5.634295973967732,1004.4562140185918,0,0
10.06,-8.527877,3.4096487,-3.17402,1004.48895,5.634003232299747,1004.4560951479033,0,0
10.08,-8.699897,3.4668458,-2.7621222000000003,1004.44604,5.633756337567407,1004.4559539152305,0,0
10.1,-8.207524000000001,3.7719045,-2.875743,1004.4384,5.632959395482674,1004.4557659279455,0,0
10.12,-7.9350204,3.8958333,-2.6958306,1004.3778,5.631185138171502,1004.4553191450404,0,0
10.14,-7.9827595,4.2437906,-2.1892438,1004.4332,5.628678958644656,1004.4548447387433,0,0
10.16,-9.263691,4.124625,-1.9383152,1004.4183,5.627659344814979,1004.4542939922792,0,0
10.18,-8.637483999999999,4.315286,-2.1229525,1004.4156,5.627046689961387,1004.4536680543316,0,0
10.2,-8.264603999999999,4.477348,-2.0329936,1004.456,5.626236182404979,1004.4531233705657,0,0
10.22,-8.537,4.391548,-2.0898018,1004.38495,5.6256867332749945,1004.4523966638558,0,0
10.24,-8.809393,4.3009825,-2.7431443,1004.4329,5.6261071223358465,1004.4516843578173,0,0
10.26,-8.340917,4.186584,-2.5727005000000003,1004.4354,5.626345680257383,1004.4509963405133,0,0
10.28,-8.541613,4.014986,-2.4117255,1004.4405,5.626548831806864,1004.4503506215976,0,0
10.3,-8.622812,4.0435843,-2.3785799,1004.4355,5.626875700839883,1004.4497266021264,0,0
10.32,-8.622757,3.981618,-2.733655,1004.44824,5.627449662309492,1004.4491698667537,0,0
10.34,-8.469750999999999,4.0960135000000015,-2.9230263,1004.43036,5.628174591168222,1004.448610219858,0,0
10.36,-8.555736,4.100779,-2.5348005,1004.45306,5.628965235751163,1004.4481317350694,0,0
10.38,-8.350143,4.1150769999999985,-2.345419,1004.438,5.629352771301731,1004.447672471664,0,0
10.4,-8.345312,3.8386161,-2.743104,1004.4608,5.629355002039031,1004.4473139256212,0,0
10.42,-8.75632,3.771883,-2.5631917,1004.448,5.6296113154268435,1004.4469995842053,0,0
10.44,-8.416902,4.100774,-2.425889,1004.4481,5.629673846363622,1004.446725793627,0,0
10.46,-8.484206,4.157982,-2.4685342,1004.43286,5.6297594022069255,1004.4464339554152,0,0
10.48,-8.288197,4.2819114,-2.5916252,1004.443,5.629691993865813,1004.4461637249317,0,0
10.5,-8.484133,4.00545,-2.7147164,1004.45306,5.6296658198683165,1004.4459497758667,0,0
10.52,-8.570128,3.9244177,-2.6105556,1004.44775,5.629704811004768,1004.4457672112796,0,0
10.54,-8.493613,4.0006814,-2.5253330000000003,1004.4402,5.629679865226335,1004.44558585525,0,0
10.56,-8.383642,4.0149803,-2.6010804,1004.4628,5.629453361360196,1004.4454875799833,0,0
10.58,-8.593917999999999,3.9720807,-2.5158577,1004.44525,5.6293478763821385,1004.4453998886696,0,0
10.6,-8.407468,4.2580733,-2.5868702,1004.44525,5.629301505495607,1004.4453218650257,0,0
10.62,-8.512586,4.1627407,-2.449569,1004.42737,5.629337745926021,1004.4451882966196,0,0
10.64,-8.70852,4.2056394,-2.4969096,1004.43005,5.629863834488747,1004.4450157777085,0,0
10.66,-8.431255,4.2437706,-2.643673,1004.46027,5.630434829058305,1004.4449182551988,0,0
10.68,-8.244804,4.1913376000000016,-2.5821223,1004.4401,5.630628589649771,1004.4448147385904,0,0
10.7,-8.354704,4.162737399999998,-2.6815414,1004.4348,5.630715244961612,1004.444687218256,0,0
10.72,-8.168252,4.224701400000002,-2.6199903,1004.42505,5.630395585512412,1004.4445038473033,0,0
10.74,-8.354628,4.2771325,-2.8235664000000003,1004.4147,5.630215405831202,1004.444234526879,0,0
10.76,-8.024782,4.5964913,-2.7241406,1004.4119,5.629825533740455,1004.4438801510553,0,0
10.78,-8.359332,4.6441555,-2.7430747,1004.4273,5.629891074569524,1004.4435073360336,0,0
10.8,-7.9721303,4.563123,-2.7856808,1004.4423,5.629632110714282,1004.4431735702707,0,0
10.82,-8.201525,4.2771287,-2.7572713,1004.4498,5.629197950425782,1004.4429025099896,0,0
10.84,-8.268402,4.4868565,-2.6247041,1004.417,5.628848811646942,1004.4425697520896,0,0
10.86,-8.00548,4.477323,-2.7004516,1004.41693,5.628150127495098,1004.4421834241014,0,0
10.88,-8.244431500000001,4.262827,-2.7998705000000004,1004.4472,5.627420886206059,1004.4418601243643,0,0
10.9,-8.330430999999999,4.07693,-2.998712,1004.44995,5.626777180582696,1004.4416035802687,0,0
10.92,-8.182217,4.334323,-2.8519418,1004.4144,5.6260893420204185,1004.4412789650172,0,0
10.94,-8.043566,4.381988,-2.899283,1004.4296,5.625196736742798,1004.4409500907068,0,0
10.96,-8.464654,4.20087,-2.6862774,1004.41693,5.624576417780743,1004.4405730250394,0,0
10.98,-8.149171,4.5535945999999985,-2.8283079,1004.4421,5.624053459038072,1004.4402453469256,0,0
11.0,-8.306886,4.381998,-2.9514008,1004.4318,5.623806489888043,1004.4399254072953,0,0
11.02,-8.302089,4.0960044999999985,-2.8046324,1004.42175,5.623447621592027,1004.4395772771717,0,0
11.04,-8.402448,4.029272,-2.5158322,1004.4394,5.622947900992854,1004.4392690311968,0,0
11.06,-8.364191,4.2485332,-2.6105187,1004.4394,5.622503349651897,1004.4389971365407,0,0
11.08,-8.411971000000001,4.343864,-2.5821106,1004.4446,5.6222657593424135,1004.4387770607314,0,0
11.1,-8.302019,4.6870565000000015,-2.9182515,1004.4368,5.622538685614916,1004.4385754843274,0,0
11.12,-8.397597,4.315264,-2.7099364,1004.42426,5.622954745300088,1004.4383458356732,0,0
11.14,-8.192051,4.096002,-2.6957316,1004.4343,5.622923751545774,1004.4381283531143,0,0
11.16,-8.46926,4.243765,-2.7336051,1004.44934,5.623146506297744,1004.4379765474536,0,0
11.18,-8.048618,4.520225,-3.0744808,1004.4494,5.623322599009902,1004.4378835364012,0,0
11.2,-8.12508,4.4868584,-2.98926,1004.42676,5.623501572273882,1004.4377613071043,0,0
11.22,-8.301914,4.339094599999999,-3.0697434,1004.457,5.623903803781389,1004.437722564592,0,0
11.24,-8.096366,4.243763,-2.866162,1004.43396,5.6239247258777585,1004.4376747864752,0,0
11.26,-8.129807000000001,4.1674976,-2.6862533,1004.4415,5.6234892007755946,1004.4376463405002,0,0
11.28,-8.35922,4.415358,-2.8756278,1004.4719,5.623397820770234,1004.4377445188107,0,0
11.3,-8.163232,4.448724,-2.7430630000000003,1004.4491,5.62321932962674,1004.4378721488984,0,0
11.32,-8.349625999999999,4.563121,-3.1360168,1004.48444,5.623641354806188,1004.4381525671077,0,0
11.34,-7.819051700000001,4.258061,-2.6483717,1004.4212,5.623075636201532,1004.438339315396,0,0
11.36,-8.703294,4.0101995000000015,-2.5584164,1004.41864,5.622947687810003,1004.4384334086476,0,0
11.38,-8.110582,4.5821857,-3.4153419,1004.44635,5.623214138050388,1004.4385450491742,0,0
11.4,-8.105785000000001,4.348624,-3.169151,1004.4593,5.623427814884223,1004.4387184125662,0,0
11.42,-8.220483,4.329557,-2.8093348,1004.44147,5.623546606644571,1004.4388815021741,0,0
11.44,-8.167888,4.405822,-3.0697258,1004.44635,5.623723573538115,1004.4390524947439,0,0
11.46,-8.301673,4.238991,-2.8661416,1004.4541,5.623903696832591,1004.4392577547977,0,0
11.48,-8.263415,4.1436595999999986,-2.7099044,1004.43365,5.623838920847817,1004.4394189346636,0,0
11.5,-8.344653,4.262823,-2.8140597,1004.43646,5.6238712261559165,1004.4395507010285,0,0
11.52,-8.272939,4.1388927,-2.6152132000000003,1004.4465,5.623634244714408,1004.4396921472644,0,0
11.54,-8.660085,3.900564,-2.7903845,1004.45404,5.623755238844852,1004.4398687814287,0,0
11.56,-8.382836,4.1770239999999985,-2.6625537999999995,1004.45374,5.623854550703718,1004.4400747917633,0,0
11.58,-8.296782,4.2008557,-2.7572400000000004,1004.4515,5.623857085474475,1004.4402979532443,0,0
11.6,-8.4497175,4.2151556,-2.8471925,1004.436,5.624112562511401,1004.4404796660973,0,0
11.62,-8.593092,3.9625273,-2.6625485,1004.4487,5.624523097674989,1004.4406698207762,0,0
11.64,-8.588294,3.8099968,-2.8140478,1004.4538,5.6250227769787084,1004.4408851100957,0,0
11.66,-8.124633,4.0149584,-2.7288268,1004.44617,5.624885727253592,1004.441094365342,0,0
11.68,-8.30625,4.0387907,-2.9844832,1004.4434,5.624689260700125,1004.4412875635624,0,0
11.7,-8.196292999999999,3.9577591,-2.9371371,1004.41077,5.624145155533985,1004.4413484102812,0,0
11.72,-8.397026,3.9577587,-2.8093069,1004.4384,5.623575972826124,1004.4413915601648,0,0
11.74,-8.339649,4.2008519999999985,-2.8992586,1004.41077,5.623150650795437,1004.4413194497853,0,0
11.76,-8.244036,4.2675839999999985,-2.7524903,1004.43335,5.622656385366075,1004.4412270430348,0,0
11.78,-8.35873,4.2914157,-2.8045669,1004.4611,5.622358690843102,1004.4412169350752,0,0
11.8,-8.258337,4.167485,-2.7950966,1004.43567,5.621940083992623,1004.4411880347158,0,0
11.82,-8.2678795,4.1865506,-2.9276583,1004.43567,5.621531487795412,1004.4411426334332,0,0
11.84,-8.239181,4.2580485,-2.8471718,1004.43066,5.621097381332642,1004.4410647793795,0,0
11.86,-8.234383,4.181783,-2.8329666,1004.4458,5.620556053210857,1004.441013034332,0,0
11.88,-8.3681965,4.0244865,-2.7477455,1004.4281,5.619970847379991,1004.4409208254843,0,0
11.9,-8.349059,4.153183,-2.7666814,1004.46857,5.619438596189274,1004.4409388867748,0,0
11.92,-8.392059,4.157949,-2.8282273,1004.4381,5.619072644659059,1004.4409446257387,0,0
11.94,-8.320343,4.1579485,-2.8282256,1004.4532,5.618727235571126,1004.4409938160344,0,0
11.96,-8.368186,4.072152,-2.7666821,1004.4684,5.618374263978469,1004.4411359428424,0,0
11.98,-8.310812,4.291413,-2.828228,1004.4431,5.6181461763622185,1004.4412685966953,0,0
12.0,-8.377714,4.086451,-2.7572105,1004.45825,5.617922912980013,1004.4414469426916,0,0
12.02,-8.043111,4.291412,-2.582036,1004.4431,5.6171944379317145,1004.4416104802203,0,0
12.04,-8.339444,4.1007495,-2.6483161,1004.41534,5.616413292662148,1004.441660408252,0,0
12.06,-8.272509,4.348610400000001,-2.6057048,1004.44543,5.615669824902931,1004.4417180951912,0,0
12.08,-8.277273,4.4630075,-2.6625164,1004.42786,5.615110257308231,1004.4417191782277,0,0
12.1,-8.688319,4.3581424,-2.5441546,1004.43036,5.615284841505605,1004.4416792421573,0,0
12.12,-8.372835,4.162713,-2.435262,1004.42523,5.615307115314241,1004.4415847373737,0,0
12.14,-8.654827000000001,3.8910193,-2.5110111,1004.45557,5.615513586572279,1004.4415515798922,0,0
12.16,-8.501857000000001,3.9672837,-2.42579,1004.44543,5.6156214565660045,1004.4415362442543,0,0
12.18,-8.55442,4.291409,-2.5394146,1004.4326,5.616080752177937,1004.441490523205,0,0
12.2,-8.492267,4.2675757,-2.7998052,1004.40765,5.6168622170772995,1004.4413282982024,0,0
12.22,-8.630865,4.367673,-2.113315,1004.4226,5.617911350576297,1004.4411175343164,0,0
12.24,-8.291481,4.2818747,-2.1701262000000003,1004.42505,5.618527292653211,1004.4408734602234,0,0
12.26,-8.085935000000001,4.386739,-2.0564992,1004.42004,5.6184370243484825,1004.440582795898,0,0
12.28,-8.5017605,4.1007447,-2.3784373,1004.4477,5.618362868920992,1004.4403515868347,0,0
12.3,-8.568664,4.3152394,-2.4920616,1004.44525,5.618673564748149,1004.440164924794,0,0
12.32,-8.257957000000001,4.2961730000000005,-2.5299351000000003,1004.468,5.618770374492374,1004.4401001964853,0,0
12.34,-8.453915,4.3343050000000005,-2.4825897,1004.4504,5.619037318759353,1004.4400800818444,0,0
12.36,-8.286605,4.5059004,-2.2032580000000004,1004.42004,5.619177349299533,1004.4399901642532,0,0
12.38,-8.133636,4.5202,-2.4115708,1004.45026,5.6190516544013205,1004.4399476844783,0,0
12.4,-8.367828999999999,4.329537,-2.411569,1004.42725,5.6189256243246986,1004.439864437685,0,0
12.42,-8.43473,4.353369,-2.4257708,1004.455,5.618948776549011,1004.4398453688427,0,0
12.44,-8.363016,4.386735,-2.2647998,1004.4424,5.6189259455668505,1004.439837716286,0,0
12.46,-8.372243,4.4439254,-2.3641915,1004.46295,5.618982013943981,1004.439914158708,0,0
12.48,-8.453471,4.4915905,-2.3878613,1004.44763,5.619309262149012,1004.4400094802608,0,0
12.5,-8.587278,4.219896,-2.4494057,1004.45245,5.619897161972153,1004.440138492256,0,0
12.52,-8.678065,4.305693,-2.4399345,1004.4602,5.620948927991077,1004.4403247086827,0,0
12.54,-8.281315,4.4820547,-2.4257286,1004.43756,5.621853483550604,1004.4404792965663,0,0
12.56,-8.214366,4.343824,-2.4351945,1004.42725,5.622379723901632,1004.4405682649524,0,0
12.58,-8.329054,4.334291,-2.3215663,1004.40424,5.622707157590966,1004.4405160956644,0,0
12.6,-8.333803999999999,4.4439206,-2.3215635,1004.41956,5.62296934146482,1004.4403945569372,0,0
12.62,-8.204721000000001,4.4200870000000005,-2.402046,1004.43463,5.622961756813006,1004.4402664129132,0,0
12.64,-8.682673,4.2151246,-2.5724819,1004.41956,5.623473476367039,1004.4400786417668,0,0
12.66,-8.457994,4.305688,-2.4588537,1004.4095,5.6240587992495215,1004.4398026440716,0,0
12.68,-8.137717,4.5297160000000005,-2.4730542,1004.41455,5.624357888856301,1004.4394678629892,0,0
12.7,-8.496172,4.1102576,-2.539333,1004.41693,5.624688959313526,1004.4390909141183,0,0
12.72,-8.491365,4.1436234,-2.1795158,1004.43726,5.624886524521647,1004.4387512508052,0,0
12.74,-8.390963000000001,4.291385,-2.491984,1004.4496,5.625073482591456,1004.4384901797986,0,0
12.76,-8.371813000000001,4.2389526,-2.26473,1004.41425,5.625052289398294,1004.43817223281,0,0
12.78,-8.457822,4.091189,-2.638745,1004.4446,5.625066806517227,1004.4379144348128,0,0
12.8,-8.405216000000001,4.072122,-2.53932,1004.4368,5.624946273617484,1004.437682632537,0,0
12.82,-8.529459,4.0768879999999985,-2.439895,1004.4419,5.624883001011857,1004.4374929945692,0,0
12.84,-8.462515,4.143619,-2.5582523,1004.4141,5.624870830166638,1004.4372412156804,0,0
12.86,-8.409908999999999,4.21035,-2.477765,1004.4293,5.624825423732541,1004.4369901554776,0,0
12.88,-8.505476,4.081652,-2.6292632,1004.43195,5.62489169806934,1004.4367501741226,0,0
12.9,-8.342934,4.2484813,-2.43515,1004.442,5.624807445252338,1004.4365570259706,0,0
12.92,-8.548436,4.0673513,-2.444616,1004.4469,5.624805392608278,1004.4364235949699,0,0
12.94,-8.428906,4.014918,-2.4446127,1004.42426,5.624613544319471,1004.436261906396,0,0
12.96,-8.525112,4.0292330000000005,-2.567763,1004.43933,5.624507593362477,1004.4361300835087,0,0
12.98,-8.443850999999999,4.1769967,-2.520419,1004.43677,5.624434571873066,1004.4360159085053,0,0
13.0,-8.6207,4.0625987,-2.4588714,1004.4242,5.624578537251028,1004.4358724862013,0,0
13.02,-8.424724000000001,4.1579294,-2.4494019,1004.44684,5.624636958528988,1004.4357852413034,0,0
13.04,-8.486858999999999,4.0053997,-2.368917,1004.4368,5.624557173792994,1004.4357118048426,0,0
13.06,-8.501194,4.100731,-2.477808,1004.48456,5.6245206657704445,1004.4358227698888,0,0
13.08,-8.611127,4.1579294,-2.4162602000000004,1004.41644,5.624739933307039,1004.4358510406315,0,0
13.1,-8.486848,4.029232,-2.3641815,1004.429,5.624820026525173,1004.4358513569141,0,0
13.12,-8.558541,4.038765,-2.378384,1004.41895,5.62492289581074,1004.435790791496,0,0
13.14,-8.5059595,4.019699,-2.3026335,1004.4165,5.624895274706029,1004.4356678290434,0,0
13.16,-8.534634,4.019699,-2.2505548,1004.4568,5.6247794193197,1004.4356352552358,0,0
13.18,-8.682805,3.9625003,-2.3310392,1004.4263,5.624848260379019,1004.4355728661003,0,0
13.2,-8.7019205,4.4200897,-2.2268822,1004.44147,5.625467055113709,1004.4355389687423,1,2
13.22,-8.563302,3.9815664,-2.0990527,1004.4364,5.625869468474665,1004.4355121167496,1,2
13.24,-8.807068,3.8147368,-2.1321932999999995,1004.4288,5.626406777589395,1004.4354642267082,1,2
13.26,-8.955238,3.628841200000001,-2.0611768,1004.4239,5.627161550399178,1004.4353802798516,1,2
13.28,-8.797502,3.552576,-1.9144101,1004.42896,5.627687976944082,1004.4352829914017,1,2
13.3,-8.305177,3.8767018,-1.8481278,1004.47925,5.627326822726997,1004.4353553085581,1,2
13.32,-8.352973,3.7194054,-1.6398138999999998,1004.46387,5.626057228581534,1004.4355218608866,1,2
13.34,-8.601517999999999,3.8481019,-1.5687975,1004.42096,5.62453663733001,1004.4356166038252,1,2
13.36,-8.013599000000001,4.2294264,-1.2137166,1004.4314,5.6219463149968325,1004.4356851389116,1,2
13.38,-7.7602654000000015,4.1340949999999985,-1.2752635,1004.4388,5.617885102617695,1004.4357569100143,1,2
13.4,-8.219123,3.3952792,-1.6066716,1004.4513,5.612854812534889,1004.4358762820843,1,2
13.42,-8.706658000000001,4.0482974,-1.2610598,1004.44366,5.608332125754527,1004.43600978063,1,2
13.44,-8.515462,4.810946,-1.2657937,1004.3933,5.604643822537918,1004.4359739847348,1,2
13.46,-9.0260105,4.9968195,-1.52137,1004.4311,5.602883153464083,1004.4359248091364,1,2
13.48,-9.097671,4.958686,-1.9758694,1004.4842,5.60308064734356,1004.4360551482648,1,2
13.5,-9.465676,4.992051,-2.0374131,1004.4666,5.605725997086052,1004.4362802773852,1,2
13.52,-9.303124,5.0254164,-1.9853312,1004.44867,5.610243854166428,1004.4365238044772,1,2
13.54,-8.442722,5.425806,-1.7438731,1004.45886,5.615210711505708,1004.4368193953196,1,2
13.56,-7.1043406,5.5211362999999976,-1.9285116,1004.4789,5.618510321967452,1004.4372320695649,1,2
13.58,-8.002901,4.9157825,-1.885898,1004.45374,5.621109960380747,1004.4376561370772,1,2
13.6,-7.558341499999999,5.0683117,-2.383007,1004.47644,5.6227234611010095,1004.438170465038,1,2
13.62,-7.5678635,4.7060523000000005,-2.3498628,1004.46857,5.623063196022478,1004.43873436355,1,2
13.64,-7.7685766,4.5201554,-2.6102514,1004.42834,5.622573242868148,1004.4391952045663,1,2
13.66,-7.548668400000001,4.9300785000000005,-2.51556,1004.4208,5.621354174124451,1004.439536180952,1,2
13.68,-7.180581599999999,5.297102,-2.4966185000000003,1004.4257,5.6192985200544285,1004.4397876574346,1,2
13.7,-7.9548726,5.397199,-2.3167076,1004.44617,5.617804948187772,1004.4400328384883,1,2
13.72,-8.695705,5.578327,-2.780676,1004.45355,5.6184982515532935,1004.4402981422484,1,2
13.74,-8.686106,5.7308564,-1.4361016000000002,1004.4585,5.620718346306541,1004.440598091339,1,2
13.76,-8.796003,6.2265773,-2.1462586,1004.4484,5.625284531272113,1004.4408912132263,1,2
13.78,-9.947893,5.983482,-2.3214276000000003,1004.48364,5.633674186510329,1004.4413041113588,1,2
13.8,-9.775784,5.7260866,-1.1046823,1004.5016,5.644465331072875,1004.4418860133476,1,2
13.82,-8.700292,5.854783,-0.21461092,1004.509,5.655481338029553,1004.4426417922967,1,2
13.84,-7.376244,6.3743367,-0.7495948,1004.5821,5.665177876280628,1004.443811648124,1,2
13.86,-7.1945724,5.45439,0.6944022,1004.52905,5.672171723218695,1004.4451521907996,1,2
13.88,-7.8876089999999985,4.9777336,0.19255847,1004.53656,5.677321524197656,1004.4466657624208,1,2
13.9,-8.131337,4.396212599999999,0.34406325,1004.48865,5.680659430329349,1004.4481542975607,1,2
13.92,-8.575819000000001,5.1445613,-0.04415433,1004.47864,5.6839444046115055,1004.4495793157392,1,2
13.94,-8.236419999999999,5.3685884,-0.53179485,1004.5211,5.686849276214717,1004.4510959362648,1,2
13.96,-7.295358699999999,5.206539,-0.42295486,1004.5312,5.687592753016058,1004.4527243967908,1,2
13.98,-8.093569,4.4581895,-0.59812635,1004.4783,5.6870199462176645,1004.4542553766832,1,2
14.0,-7.591675,4.911012,-0.14835651,1004.44293,5.684835803860014,1004.45556737916,1,2
14.02,-7.7924123,4.7251163,-0.09154233,1004.4455,5.681382644731983,1004.4566904219837,1,2
14.04,-8.064847,5.0826072999999985,-0.20990115,1004.4203,5.677696852269263,1004.4575517371032,1,2
14.06,-9.517892,4.925311,0.2635407,1004.3901,5.676281479965303,1004.4580699688896,1,2
14.08,-8.992098,5.7022586,-0.6501979,1004.47565,5.676768302107545,1004.4585911666078,1,2
14.1,-9.470063,5.2351364999999985,-1.3461541,1004.4731,5.679425979708903,1004.459103928712,1,2
14.12,-10.435569,4.729881,-2.0989232,1004.47076,5.6855385019966125,1004.4595989671637,1,2
14.14,-9.087648,4.7298803,-2.8800986,1004.37994,5.692590561685753,1004.459749610858,1,2
14.16,-6.167174299999999,4.596417,-2.3356407000000003,1004.38495,5.695035991980383,1004.459613441027,1,2
14.18,-7.911786599999999,3.9719975,-2.7996109,1004.3975,5.69599312421969,1004.4592695129767,1,2
14.2,-8.494909,3.647871,-2.7238592999999995,1004.42786,5.696365349227474,1004.4588525439048,1,2
14.22,-8.131628,3.2951455000000003,-2.7333262,1004.41754,5.695287973264862,1004.4583353848748,1,2
14.24,-7.084836,3.8480656,-3.1972969,1004.4731,5.691859972998854,1004.4579315757704,1,2
14.26,-6.989226,3.7289016,-3.0457942000000005,1004.46014,5.6859804000848255,1004.4575827203728,1,2
14.28,-7.5006495,3.8861973,-3.3109195,1004.4628,5.679174144126599,1004.4572932539503,1,2
14.3,-7.166048,3.647869,-2.9274316,1004.4326,5.670501325655428,1004.4569485857048,1,2
14.32,-7.720492,3.5334716,-2.9037583,1004.4427,5.6610752333580985,1004.4565927419353,1,2
14.34,-8.729014,3.4715064,-3.3440564,1004.4351,5.653091730761997,1004.4562009445089,1,2
14.36,-8.772017,3.7241333,-2.5770814,1004.4374,5.646205198616798,1004.4557870689027,1,2
14.38,-8.399178,4.853806,-2.3545632000000003,1004.40216,5.64054208232572,1004.4552283109692,1,2
14.4,-10.64567,4.9539037000000015,-1.9189963,1004.4324,5.639960995688398,1004.4546524105396,1,2
14.42,-11.386525,5.177932,-1.7296189,1004.48804,5.6453895984093405,1004.454263740242,1,2
14.44,-9.4459095,5.749918,-1.2467084,1004.52325,5.652992831720972,1004.4541686617024,1,2
14.46,-9.508032,5.2684956,-0.17199714,1004.55084,5.66195624275226,1004.4544326671223,1,2
14.48,-9.6657505,5.030167,-0.29509023,1004.576,5.672149104154607,1004.45510358471,1,2
14.5,-8.427767,5.3352265,0.98320043,1004.4172,5.681567992081003,1004.4555599545856,1,2
14.52,-8.035808,6.2980704,0.51449573,1004.4449,5.690684462462156,1004.455924827171,1,2
14.54,-7.6916485,6.412468,0.8174988000000001,1004.42957,5.699136363829192,1004.4561523512095,1,2
14.56,-6.142975,6.3981676,1.4613794,1004.4021,5.704771575307099,1004.4561588029857,1,2
14.58,-6.5349045,5.973943,0.5997191,1004.40186,5.7076584904290595,1004.4559690280844,1,2
14.6,-7.165824400000001,5.621218,-0.029955406,1004.37427,5.708591549330251,1004.4555072264806,1,2
14.62,-7.270964999999999,5.306625,0.041062072000000005,1004.3665,5.7075745546074055,1004.454778752568,1,2
14.64,-7.146675599999999,6.3457339999999975,-0.8348015,1004.4524,5.706068922643902,1004.4541265095096,1,2
14.66,-7.983125699999999,6.269469,-1.256162,1004.4119,5.705455450565478,1004.4533981721092,1,2
14.68,-8.484991,5.807112,-1.374521,1004.40924,5.705934404187904,1004.4525956437624,1,2
14.7,-9.660806,6.097872,-2.5013077,1004.43207,5.710123731996098,1004.4518126373977,1,2
14.72,-7.5672364,6.1312375,-2.0562723000000003,1004.40936,5.713958110712002,1004.450967943479,1,2
14.74,-6.6256020000000015,5.3399887,-1.8574262,1004.43976,5.7148793151704655,1004.450181223336,1,2
14.76,-8.848192999999998,4.4724746,-2.0610037,1004.4977,5.7161667767517015,1004.4496571450136,1,2
14.78,-9.001133,4.982496299999998,-1.634906,1004.43964,5.718377973535032,1004.449158007686,1,2
14.8,-8.427541999999999,5.592615,-1.109386,1004.40674,5.72089406053064,1004.4485642651157,1,2
14.82,-8.040362,6.3171315,-0.9768211,1004.4976,5.723871376841117,1004.4482161628259,1,2
14.84,-7.7296605,6.836685000000001,-1.0099607,1004.4773,5.727446933784982,1004.4480132814566,1,2
14.86,-7.920838000000002,5.8166423,-1.0383657,1004.50507,5.730526552355175,1004.4480394196654,1,2
14.88,-7.887364,5.106425,-0.38501647,1004.48236,5.732163556205799,1004.448186069476,1,2
14.9,-8.350988000000001,5.578314,-0.41815585,1004.4421,5.733865749305041,1004.4482937393983,1,2
14.92,-7.959030999999999,6.393394,-0.47496742,1004.4825,5.7359696451387325,1004.44851201908,1,2
14.94,-7.007836,6.3075957,-0.78270245,1004.4923,5.736843215786817,1004.448862527738,1,2
14.96,-7.3754177,5.2446423,-0.910489,1004.51483,5.735867557900318,1004.4494097200884,1,2
14.98,-7.404071000000001,5.235109,-1.1566757,1004.45416,5.733356311264713,1004.4499103202568,1,2
15.0,-7.1315990000000005,5.2017419999999985,-1.3791906,1004.3837,5.7290666841260185,1004.4501142934128,1,2
15.02,-7.504398299999999,5.4162364,-1.5685644,1004.3785,5.724161825909822,1004.4500367126371,1,2
15.04,-8.823601,5.5497003,-1.9425803,1004.42645,5.721259333822459,1004.4498832500984,1,2
15.06,-8.947852000000003,5.5258665,-1.7674053,1004.4645,5.720263068830932,1004.4498002708984,1,2
15.08,-8.140041,5.683162,-0.7400372,1004.47687,5.719481342337067,1004.4498244015024,1,2
15.1,-8.503282,5.8881235,0.0032667294,1004.4518,5.719697813381702,1004.4498528354584,1,2
15.12,-8.656213000000001,6.207482,-0.029872000000000006,1004.497,5.721437809077058,1004.4500476894943,1,2
15.14,-7.8675203,6.4887085,-0.17663634,1004.48706,5.723577622135822,1004.4503531068384,1,2
15.16,-7.8244777,6.2408470000000005,-0.14822766,1004.45935,5.725668096533062,1004.4506553624188,1,2
15.18,-7.6571603,6.1455150000000005,-0.28078878,1004.48956,5.727318178290568,1004.4510624921452,1,2
15.2,-7.0405425999999975,6.4076757,-0.2949899,1004.5123,5.727953979296258,1004.4516426869992,1,2
15.22,-7.384664,6.121681,-0.40861338,1004.49963,5.727850010024115,1004.4523281014997,1,2
15.24,-7.0787344,6.3790746,-0.15768789,1004.4642,5.726946165253612,1004.4529764725868,1,2
15.26,-7.126508,6.393374,-0.23343614,1004.48444,5.725435715814433,1004.4536626419776,1,2
15.28,-7.351135,6.1550455,-0.6216550999999999,1004.50214,5.723458995231526,1004.4544434597404,1,2
15.3,-7.5805407,6.3314075,-0.5032928,1004.4491,5.7216631057178775,1004.4551141538608,1,2
15.32,-7.685672999999999,6.3981385,-0.72107327,1004.4618,5.720317440199075,1004.4557308482314,1,2
15.34,-8.264006,6.1407440000000015,-0.72580546,1004.43616,5.719987695817102,1004.4562053043236,1,2
15.36,-8.813656,6.226542,-1.6158712,1004.439,5.721783558637557,1004.4565625946312,1,2
15.38,-8.909229,5.8309164,-1.9330742,1004.43866,5.725264590443881,1004.4568138470064,1,2
15.4,-7.3940100000000015,5.830916,-1.824181,1004.40857,5.727665223379949,1004.4568621757558,1,2
15.42,-6.366327,5.3733260000000005,-2.2313373,1004.4112,5.7270924683960365,1004.456740495206,1,2
15.44,-8.349921,4.0053234,-3.1450753,1004.4917,5.726296930126611,1004.4567588324893,1,2
15.46,-8.378999,4.9729443,-3.6185524,1004.46136,5.7265824954028535,1004.456791599516,1,2
15.48,-8.885651,4.825181,-3.9026158,1004.4085,5.728745995095745,1004.4566467027026,1,2
15.5,-9.545256,4.6964836,-3.912084,1004.4211,5.733592712028729,1004.4563907037483,1,2
15.52,-8.378977,5.163606,-3.9168174,1004.4136,5.739251463800922,1004.4560104565393,1,2
15.54,-6.66302,5.3304358,-3.4575799,1004.47144,5.742726101508023,1004.4557300164616,0,0
15.56,-6.514838,4.877612,-3.0078106,1004.4488,5.7431561823756745,1004.4554572715497,0,0
15.58,-7.375196000000001,4.1197295,-3.2966084,1004.48663,5.741708861142667,1004.4553284959676,0,0
15.6,-7.991783,4.1959940000000016,-3.5191247000000003,1004.45856,5.739896185142263,1004.455226343278,0,0
15.62,-8.001335000000001,4.572552,-3.6280158,1004.4839,5.73821625760023,1004.455239306326,0,0
15.64,-8.43629,4.6774163,-3.7605782,1004.4357,5.737593259147482,1004.455180418972,0,0
15.66,-7.795789,5.05874,-3.4575758000000003,1004.4384,5.736996722171702,1004.455067976598,0,0
15.68,-7.465975,4.9014440000000015,-3.4149654000000003,1004.4586,5.735690143029735,1004.4549813378004,0,0
15.7,-7.4516277,4.2960916,-3.1593068,1004.466,5.732932535026629,1004.4549444509427,0,0
15.72,-8.302424,3.8814006,-3.1687748,1004.44824,5.730012710143784,1004.4548877216921,0,0
15.74,-8.316756,4.224592,-3.1166956000000003,1004.4381,5.727246600511028,1004.454777159928,0,0
15.76,-7.781411599999997,4.501052,-2.9557252,1004.4359,5.7238526104115035,1004.4546115097777,0,0
15.78,-8.034733000000001,4.5201187,-3.4481025,1004.4359,5.720705381477562,1004.4543977798694,0,0
15.8,-8.072965,4.3199234,-2.9983335,1004.45844,5.717354981586312,1004.454223480115,0,0
15.82,-8.187672000000001,4.1626263,-2.955723,1004.42834,5.713867001653439,1004.4539762883237,0,0
15.84,-8.04905,4.243658,-2.728471,1004.4456,5.7099594296348855,1004.4537277150188,0,0
15.86,-7.9916854000000015,4.510585,-2.8420963,1004.4809,5.7059181300828286,1004.4536058958728,0,0
15.88,-8.417081,4.2484236,-2.8231580000000003,1004.4532,5.702262315678648,1004.45349679525,0,0
15.9,-8.49355,4.272257,-2.8136883,1004.45605,5.699112063608985,1004.4534095854767,0,0
15.92,-8.111157,4.253189599999999,-2.865766,1004.4384,5.695757679780768,1004.4532784924132,0,0
15.94,-8.206748,4.5344167,-2.9178438,1004.4382,5.6926987708386525,1004.4531083760099,0,0
15.96,-8.3503895,4.5105900000000005,-2.5533175,1004.4482,5.689929769578012,1004.4529403910022,0,0
15.98,-8.331273,4.315161,-2.202972,1004.4179,5.687030759670607,1004.4526658140418,0,0
16.0,-8.436430999999999,4.0816,-2.5249116000000003,1004.38007,5.684169593958853,1004.4521618529093,0,0
16.02,-8.823597999999997,3.857572,-2.3639421,1004.38525,5.6817882572904805,1004.4514756701816,0,0
16.04,-8.407757,3.6430771,-2.406552,1004.4077,5.6789207031172975,1004.4507117667113,0,0
16.06,-8.742347,3.8575723,-2.6574757,1004.4052,5.676557512088577,1004.4498729392444,0,0
16.08,-8.020598,4.319928599999999,-3.3818398000000003,1004.4301,5.674231106609081,1004.4490605687134,0,0
16.099999999999998,-8.159215,4.4295589999999985,-2.4207556,1004.4378,5.67168999258108,1004.4483022200646,0,0
16.12,-8.976564999999997,4.3723607000000015,-2.032535,1004.47076,5.670205215929352,1004.4477129912068,0,0
16.14,-8.393431,4.7727513,-2.0088630000000003,1004.476,5.668978871756012,1004.4472941818193,0,0
16.16,-7.877215,5.087343700000001,-2.1745677000000003,1004.45306,5.6674942640588615,1004.4469448787904,0,0
16.18,-7.781621,4.9157476,-2.4870384,1004.45044,5.665596230250914,1004.4466488170699,0,0
16.2,-7.862879799999999,4.7298527,-2.127224,1004.47296,5.663100436003282,1004.4464819371924,0,0
16.22,-8.092313,4.4009604000000015,-2.2029746,1004.48584,5.660193888691492,1004.4464761711588,0,0
16.24,-8.828403999999997,4.2913294,-2.1035523,1004.4627,5.6581145975253,1004.4465294820752,0,0
16.259999999999998,-8.900105,4.3675942,-2.2976632,1004.458,5.657060178956888,1004.4466178814656,0,0
16.28,-8.3504305,4.543957,-2.4870396,1004.45544,5.656187339010183,1004.4467277507936,0,0
16.3,-8.383891,4.496291,-2.0704122,1004.501,5.655290057759137,1004.4470202114287,0,0
16.32,-8.336096000000001,4.615455,-1.9757242,1004.4783,5.654364111671965,1004.4473912368852,0,0
16.34,-8.708922,4.338995,-1.7816138,1004.47046,5.653749812292472,1004.4478021225252,0,0
16.36,-8.885778,4.4819922,-1.8005517,1004.498,5.653874486088821,1004.448345893436,0,0
16.38,-8.642011,4.529658,-1.9662563,1004.463,5.654318259747372,1004.4488791241963,0,0
16.4,-8.489059,4.472459,-2.0088658,1004.478,5.6547303823075445,1004.4494551220492,0,0
16.419999999999998,-8.53686,4.4915257,-2.1793048,1004.48816,5.6552923328877815,1004.4501034113124,0,0
16.44,-8.403027999999999,4.7203197,-2.1651017999999995,1004.4702,5.6559613918585345,1004.4507485874248,0,0
16.46,-8.493012,4.6106690000000015,-1.8714926,1004.46014,5.656650179416507,1004.4513524741228,0,0
16.48,-8.120156,4.7298317,-2.2881174,1004.48303,5.656997311049602,1004.4520001075024,0,0
16.5,-8.02931,4.3914056,-2.221833,1004.4526,5.656512917705665,1004.4525745159697,0,0
16.52,-8.435564,4.243642,-1.7815306,1004.47034,5.655694280352908,1004.453146019034,0,0
16.54,-8.464212,4.2865400000000005,-1.8241376,1004.4574,5.654691505755983,1004.4536663134727,0,0
16.56,-8.335128,4.377104,-1.8856819,1004.4675,5.6534049501442425,1004.4541758469104,0,0
16.58,-8.210824,4.281772,-2.221822,1004.48035,5.651709093732946,1004.4547202976073,0,0
16.599999999999998,-8.076958,4.348503,-2.9461832,1004.47,5.649889752532687,1004.4552563811716,0,0
16.62,-8.330256,4.4771996,-3.021931,1004.44476,5.648578101544797,1004.4556922776366,0,0
16.64,-8.354128,4.601129,-2.913037,1004.43726,5.647811371508992,1004.4560110795537,0,0
16.66,-8.0099535,4.6821594000000015,-3.1876297,1004.47784,5.6471921961771026,1004.4563713570413,0,0
16.68,-7.7470317,4.863288400000001,-3.239705,1004.4448,5.646484173526909,1004.4566480413437,0,0
16.7,-8.25366,4.648792299999998,-2.6242297000000003,1004.47,5.64596163187954,1004.4569405866447,0,0
16.72,-7.53188,4.968151,-3.0550578,1004.4499,5.6449739197093995,1004.4571737335608,0,0
16.74,-8.158006,4.720289,-2.8278039,1004.47003,5.64423186198664,1004.4574260247348,0,0
16.759999999999998,-8.296588999999999,4.7631874000000005,-2.685769,1004.44965,5.643909642165793,1004.4576209555272,0,0
16.78,-7.7660007,4.825152,-2.662094,1004.4572,5.64309917287516,1004.4577916809357,0,0
16.8,-8.583319,4.7965517,-2.3164802000000004,1004.4445,5.643064081232244,1004.4578946838546,0,0
16.82,-8.119647,5.1445102999999985,-2.7662456000000004,1004.4498,5.643507512996415,1004.4579565563727,0,0
16.84,-7.708553999999999,5.030112,-3.0408382,1004.457,5.6437309697491145,1004.4580077833264,0,0
16.86,-8.234302,4.667853,-2.0702825,1004.47504,5.6437493999489465,1004.4581143634424,0,0
16.88,-8.339427,4.4533567000000005,-2.0466077,1004.48724,5.64355315101741,1004.4583133899248,0,0
16.9,-8.186444,4.491489,-2.1602309,1004.4596,5.642983453233181,1004.4584938815207,0,0
16.919999999999998,-8.77433,4.243627,-2.2738535,1004.43933,5.642967352601207,1004.4585843739217,0,0
16.94,-8.793421,4.8871117,-1.7814729,1004.47723,5.643873537217424,1004.4587314572608,0,0
16.96,-7.541819999999999,5.1445227,-2.2549784,1004.4392,5.643901577718142,1004.4587911068534,0,0
16.98,-7.895525,5.1588224999999985,-2.67634,1004.44684,5.6439852372687636,1004.4588007892484,0,0
17.0,-8.818026,4.796564,-2.1271493,1004.47705,5.645068026787608,1004.4588750417716,0,0
17.02,-7.943320299999999,4.8108635,-2.1886964,1004.44183,5.645533180477643,1004.4588792891507,0,0
17.04,-8.406959,4.3199086,-1.7862718,1004.47174,5.645613438044688,1004.4589293406938,0,0
17.06,-8.722425,4.0148487,-2.1981647,1004.4495,5.645833949677558,1004.4589396206109,0,0
17.08,-8.617269,4.0386815,-2.51537,1004.49475,5.6461632136481095,1004.4590776213112,0,0
17.099999999999998,-8.574247999999999,4.143546,-2.0892735,1004.4619,5.646391814024383,1004.4592097192932,0,0
17.12,-8.096267999999998,4.420006,-2.004054,1004.45166,5.645886215805657,1004.459299262081,0,0
17.14,-8.187083,4.229344,-2.2218366,1004.45435,5.644816097593662,1004.4593605647448,0,0
17.16,-8.636382000000001,4.1959777,-1.8146776,1004.47705,5.643859327553862,1004.4594784137453,0,0
17.18,-8.215758000000001,4.1578455000000005,-2.3496652,1004.4342,5.642447676768888,1004.4594915428328,0,0
17.2,-8.684178,4.3246746,-2.0750697,1004.45184,5.641507672687247,1004.4594755981401,0,0
17.22,-8.741535,4.558236,-2.1508198,1004.4442,5.641340345739938,1004.4594065172563,0,0
17.24,-8.139278,4.6917,-2.1792264,1004.46436,5.640928583653637,1004.4593633099253,0,0
17.259999999999998,-8.263552,4.558236,-1.9140996,1004.444,5.640271981574786,1004.459269824012,0,0
17.28,-8.679394,4.2388763,-1.9709122,1004.444,5.639876748627938,1004.4591322484924,0,0
17.3,-8.4021635,4.3580403,-2.0608656,1004.4513,5.639357808292939,1004.4589824906687,0,0
17.32,-8.502539,4.3961725,-2.027725,1004.4412,5.6389337261660035,1004.4587861476894,0,0
17.34,-8.593353,4.353274,-2.0750687,1004.45404,5.638740137740212,1004.4585955729013,0,0
17.36,-8.38782,4.472438,-2.0703344,1004.4438,5.638490011325265,1004.4583739169556,0,0
17.38,-8.449956,4.3818730000000015,-1.951974,1004.444,5.638166058028497,1004.4581263156616,0,0
17.4,-8.636368,4.277009,-1.8146762,1004.4462,5.637965400595335,1004.4578646004214,0,0
17.419999999999998,-8.383037,4.4867373,-1.9614427,1004.4591,5.637669991952658,1004.4576377962738,0,0
17.44,-8.344797,4.4486046,-1.8620201,1004.45123,5.637145757241216,1004.4574143240624,0,0
17.46,-8.554206,4.4199834000000005,-2.1602051,1004.4666,5.636899045830656,1004.4572499324496,0,0
17.48,-8.310402999999999,4.4009166,-2.2312179,1004.4538,5.636476214876182,1004.457092256264,0,0
17.5,-8.425083,4.496247,-2.1128547,1004.4588,5.6361401246056735,1004.4569590814637,0,0
17.52,-8.396365,4.353249,-2.1459918,1004.4664,5.635710372352742,1004.4568753955168,0,0
17.54,-8.544502,4.300816,-1.8335178,1004.4767,5.635286265908346,1004.4568728191904,0,0
17.56,-8.444092999999999,4.272216,-2.0749693,1004.45374,5.634760913291188,1004.456859264599,0,0
17.58,-8.372358,4.5105424,-2.1128411,1004.4565,5.634259822353723,1004.4568459944096,0,0
17.599999999999994,-8.506159,4.362778700000002,-2.1081038,1004.4463,5.633880643691857,1004.4567963032904,0,0
17.62,-8.319707000000001,4.3008122,-2.1507096000000003,1004.4412,5.633236339176039,1004.4566962495256,0,0
17.64,-8.639916,4.124449299999998,-2.3353481,1004.47406,5.6328697760342825,1004.4566703515206,0,0
17.66,-8.563404,4.2007127,-2.3448133,1004.43365,5.6326826525520275,1004.4565645947785,0,0
17.68,-8.549032,4.0767817000000015,-2.1838408,1004.43616,5.6324419573575675,1004.4563976915796,0,0
17.7,-8.673267999999998,4.210244,-2.321135,1004.4437,5.6325638006621,1004.4562045042231,0,0
17.72,-8.23827,4.453338,-2.3400693,1004.4917,5.632457273882268,1004.45616158766,0,0
17.74,-8.223896,4.5677347,-2.5436459,1004.47406,5.632341092085215,1004.4561881008693,0,0
17.759999999999994,-8.443731,4.2865067,-2.363735,1004.4614,5.632247825016202,1004.4562302907776,0,0
17.78,-8.352879,4.229307,-2.2264338,1004.4588,5.631891702259833,1004.4562768207338,0,0
17.8,-8.477117,4.215006400000001,-2.0986016,1004.44617,5.63145707000505,1004.4562815500484,0,0
17.82,-8.438836,4.510532,-2.1128008,1004.45624,5.631166874744297,1004.4562855792908,0,0
17.84,-8.328869000000001,4.4152,-2.3731902,1004.44324,5.630842788450821,1004.456242175444,0,0
17.86,-8.515244000000001,4.362767,-2.1554043,1004.4663,5.630670091387472,1004.4562400319733,0,0
17.88,-8.309678,4.419965,-2.2122142000000005,1004.4663,5.630342773937888,1004.4562743538871,0,0
17.9,-8.343102,4.3150997,-2.1790700000000003,1004.44104,5.629825664031268,1004.4562498370566,0,0
17.919999999999995,-8.43866,4.38183,-2.1222537,1004.4458,5.629350680249979,1004.4561905545717,0,0
17.94,-8.419505000000001,4.419962,-2.1790633,1004.46375,5.6289420320251295,1004.4561653865717,0,0
17.96,-8.352584,4.591558,-2.2122037,1004.4231,5.628654041387385,1004.4560241127347,0,0
17.98,-8.629776,4.176867,-2.0180898000000003,1004.43823,5.628500238506675,1004.4558352243672,0,0
18.0,-8.376411000000001,4.462859,-1.9660082,1004.4483,5.628247435199825,1004.4556411957974,0,0
18.02,-8.319021000000001,4.410426,-2.126975,1004.4536,5.627825921432849,1004.4554624038484,0,0
18.04,-8.653569000000001,4.310328,-2.0559554,1004.44324,5.627736457746712,1004.4552604226283,0,0
18.06,-8.548383,4.253128,-2.179047,1004.45074,5.627752916482736,1004.455065678501,0,0
18.08,-8.49099,4.448556,-2.008605,1004.4433,5.627863849192308,1004.4548512461473,0,0
18.1,-8.29498,4.4104230000000015,-1.9849298,1004.461,5.627658948905302,1004.4546839092335,0,0
18.12,-8.4287815,4.4819207,-2.0180674,1004.45844,5.627498458166828,1004.4545495722632,0,0
18.14,-8.519565,4.319857,-2.1743,1004.43066,5.627459330986871,1004.4543448696563,0,0
18.16,-8.46217,4.4866853,-2.036999,1004.43066,5.627518700348187,1004.454078728902,0,0
18.18,-8.486034,4.3484545,-2.1506212,1004.4865,5.6276286624918646,1004.4539602835073,0,0
18.2,-8.390405,4.410418,-1.9991174,1004.42816,5.627601398549137,1004.453762744136,0,0
18.22,-8.390369,4.3818183,-1.9801764,1004.44855,5.627417823682982,1004.4535694324687,0,0
18.24,-8.595865,4.334152,-2.1458771,1004.4231,5.627496750985882,1004.4532889323224,0,0
18.26,-8.600610000000001,4.3865833,-1.9849044,1004.44324,5.627794049356421,1004.4530049062372,0,0
18.28,-8.2659855,4.744074,-2.3873253,1004.43823,5.6282177161698295,1004.4527007511252,0,0
18.3,-8.012623,4.782205599999998,-2.5056825000000003,1004.45593,5.628412124513604,1004.4524436249646,0,0
18.32,-8.136863,4.3579807,-2.37785,1004.4456,5.628133039245214,1004.4521917912393,0,0
18.34,-8.332799000000001,4.353214,-2.202674,1004.4357,5.627694720274823,1004.4519099005107,0,0
18.36,-8.409239999999999,4.577241000000001,-2.2121396,1004.466,5.627471708036019,1004.4517115462216,0,0
18.38,-8.390085000000001,4.658272,-2.278418,1004.471,5.627516190409672,1004.4516057188048,0,0
18.4,-8.47609,4.462842500000002,-2.1789927,1004.4532,5.627715036111797,1004.4515179491119,0,0
18.42,-8.447376,4.3150783,-2.1411142000000005,1004.4508,5.627842585096387,1004.4514378111943,0,0
18.44,-8.528597999999999,4.3484435,-2.1269078,1004.4558,5.628077718867066,1004.4513827052104,0,0
18.46,-8.185605,4.648764599999999,-2.1696227,1004.458,5.628103068226289,1004.451357835824,0,0
18.48,-8.362469,4.419969999999998,-2.0228572,1004.448,5.627968394136752,1004.4513237730253,0,0
18.5,-8.405498,4.4819355000000005,-2.1412187,1004.4534,5.627881660074457,1004.4513011495533,0,0
18.52,-8.496326,4.3723054,-2.1080787,1004.4606,5.627882641319597,1004.4513146353153,0,0
18.54,-8.520236,4.396138,-1.9187033,1004.45557,5.627945534537169,1004.4513418706473,0,0
18.56,-8.572825,4.372306,-2.0749397000000003,1004.48334,5.6282020791513405,1004.4514811290522,0,0
18.58,-8.477241000000001,4.4867029999999986,-2.074941,1004.458,5.628563651707238,1004.4516276457144,0,0
18.6,-8.348197,4.3913727,-2.0607388,1004.4505,5.628688297216627,1004.4517530483124,0,0
18.62,-8.678014,4.2531424000000015,-2.1601622000000003,1004.4631,5.629117529531766,1004.4519047030741,0,0
18.64,-8.458155,4.372307299999999,-2.051272,1004.44794,5.629475927083386,1004.4520244322904,0,0
18.66,-8.482064,4.3961396,-2.2122426,1004.4631,5.629908712351048,1004.4521700970696,0,0
18.68,-8.482077,4.429506,-2.2643223,1004.45557,5.630461529591504,1004.4523110461192,0,0
18.7,-8.792775,4.2054777,-2.1601665,1004.4428,5.631430130123298,1004.4524013489332,0,0
18.72,-8.171411500000001,4.5010047,-2.2311835,1004.46295,5.631949729936363,1004.4525191156438,0,0
18.74,-8.209661,4.3389419999999985,-1.9613234,1004.45557,5.6318596986292695,1004.4526341574926,0,0
18.76,-8.620735,4.1768800000000015,-2.037075,1004.4682,5.631860905263866,1004.4527918455037,0,0
18.78,-8.482133000000001,4.3866086,-2.3022027,1004.47577,5.632003753442551,1004.453013899986,0,0
18.8,-8.649436,4.3437095,-2.1601715,1004.46045,5.632466858770765,1004.4532368772867,0,0
18.82,-8.396118,4.453341,-2.1838443,1004.4806,5.6328677661580775,1004.4535324072716,0,0
18.84,-8.276634,4.524839,-2.0796885,1004.45807,5.633020147601272,1004.4538098728999,0,0
18.86,-8.467837,4.262678599999999,-2.1601746,1004.4428,5.633085256792268,1004.4540154059868,0,0
18.88,-8.377033,4.291278,-2.3306143,1004.4604,5.633017412778826,1004.4542199995607,0,0
18.9,-8.573015,4.172115,-2.2501302000000005,1004.4605,5.6330396947371755,1004.4544233864444,0,0
18.92,-8.458312,4.358011,-2.235928,1004.4074,5.633095700433701,1004.4544338149034,0,0
18.94,-8.324489999999999,4.4867077,-2.2832732000000004,1004.4303,5.633086062085768,1004.454356147756,0,0
18.96,-8.386446000000001,4.4104385000000015,-2.2217093,1004.46027,5.633026937631638,1004.4543088109327,0,0
18.98,-8.429467,4.315108,-2.3211322,1004.4804,5.63296092337543,1004.4543609123964,0,0
19.0,-8.448589,4.315108,-2.2264445,1004.4677,5.632877559477032,1004.454454969965,0,0
19.02,-8.429474,4.3627734,-2.3732111,1004.46545,5.632860702665495,1004.4545776613407,0,0
19.04,-8.36256,4.343707599999999,-2.14596,1004.44763,5.632655095451825,1004.4546610598596,0,0
19.06,-8.22873,4.53437,-2.2595863,1004.4198,5.632280533153875,1004.4546092509752,0,0
19.08,-8.534641,4.276975599999999,-2.1980393,1004.4577,5.632034215919954,1004.4545745993415,0,0
19.1,-8.439049,4.3770733,-2.283259,1004.44006,5.6318623449928475,1004.4544917286003,0,0
19.12,-8.429492999999999,4.3818398,-2.1270242,1004.46027,5.631670754278319,1004.4544393057904,0,0
19.14,-8.467735000000001,4.2722096,-2.2264469,1004.45013,5.631476330157401,1004.4543774714947,0,0
19.16,-8.419941,4.334175,-2.0891495,1004.4298,5.631187474546622,1004.454234355814,0,0
19.18,-8.424725,4.367541,-2.2169785,1004.44495,5.630914715531166,1004.4540744751172,0,0
19.2,-8.486866000000001,4.5248370000000016,-2.2264478,1004.4323,5.63092116151259,1004.4538548164231,0,0
19.22,-8.305237,4.3723083,-2.2169793,1004.4526,5.630700466723328,1004.453656208662,0,0
19.24,-8.615928,4.2674437,-2.1175573,1004.43225,5.630697948402492,1004.453403656493,0,0
19.26,-8.362601,4.520071,-2.3116682,1004.4398,5.6307588854250215,1004.4531315282331,0,0
19.28,-8.271789,4.353241400000001,-2.306934,1004.4323,5.630553070355513,1004.4528160822013,0,0
19.3,-8.544242,4.310343,-2.231184,1004.4296,5.6305253455666735,1004.4524537761913,0,0
19.32,-8.43909,4.3961406,-2.1222932,1004.4627,5.63049445040393,1004.4521705290068,0,0
19.34,-8.357837,4.520071,-2.221716,1004.44995,5.630479200071917,1004.4519122578901,0,0
19.36,-8.515574,4.2912765,-2.2643259,1004.45996,5.630566743921107,1004.4517130214027,0,0
19.38,-8.439100999999999,4.4009075,-2.297467,1004.4373,5.630724384019237,1004.4514850891657,0,0
19.4,-8.367408,4.4104404000000015,-2.2027793,1004.43225,5.630778522863723,1004.4512144419199,0,0
19.42,-8.424769,4.3770747000000005,-2.3022022,1004.43976,5.630860286038816,1004.4509340620224,0,0
19.44,-8.482130999999999,4.257911,-2.344812,1004.4549,5.6309809285817245,1004.4507005957222,0,0
19.46,-8.267044,4.415208,-2.2359211,1004.4272,5.630842421039421,1004.4504097027543,0,0
19.48,-8.420001,4.324643,-2.278531,1004.4323,5.630685001678616,1004.4500874747982,0,0
19.5,-8.319628999999999,4.296044,-2.188578,1004.41956,5.630261341152222,1004.4496928552667,0,0
19.52,-8.534724,4.400908,-2.2501252,1004.41956,5.630117261074259,1004.4492356911701,0,0
19.54,-8.396113,4.4342739999999985,-2.3164074,1004.4472,5.6300355743842605,1004.4488244124857,0,0
19.56,-8.31964,4.515306,-2.1696413,1004.41956,5.629880082118717,1004.4483556547552,0,0
19.58,-8.467817,4.257912,-2.2264543,1004.4498,5.629711138760276,1004.4479466600676,0,0
19.6,-8.396124,4.386609,-2.2359235,1004.4499,5.6295251269902336,1004.4475923043857,0,0
19.62,-8.391347999999999,4.377075700000002,-2.179111,1004.43976,5.629280392485155,1004.4472509994088,0,0
19.64,-8.620782,4.3389440000000015,-2.2027833,1004.45746,5.629374089592034,1004.4469861747336,0,0
19.66,-8.434372999999999,4.396142500000002,-2.1459706,1004.4396,5.629456917519034,1004.4467255854216,0,0
19.68,-8.463056,4.343710400000001,-2.1365025,1004.43976,5.6295283375204885,1004.4464702525979,0,0
19.7,-8.592114,4.2340794000000015,-2.2406595,1004.45746,5.629771579449417,1004.4462842036056,0,0
19.72,-8.592118,4.296045,-2.2311914,1004.432,5.630217077152943,1004.446068387583,0,0
19.74,-8.286214999999999,4.4628744000000005,-2.212254,1004.4699,5.6304367615231525,1004.4459634863499,0,0
19.76,-8.505341,4.248361,-2.2311232000000003,1004.4498,5.630658759475954,1004.4458846070695,0,0
19.78,-8.433628,4.348459,-2.0985587000000003,1004.4471,5.630782986419036,1004.4458192847522,0,0
19.8,-8.620026,4.24836,-2.3542151,1004.4599,5.6311867004666585,1004.4458122565272,0,0
19.82,-8.361902,4.276959400000001,-2.2926664,1004.4421,5.631365698041284,1004.4457926822644,0,0
19.84,-8.438363,4.200694,-2.278462,1004.4421,5.631406999394425,1004.4457620927893,0,0
19.86,-8.581744,4.200693599999999,-2.1837726,1004.43695,5.631541574445169,1004.4457033403952,0,0
19.88,-8.342738,4.396122,-2.2879279,1004.4571,5.631555695537018,1004.4456924547543,0,0
19.9,-8.519575999999999,4.32939,-2.3778803,1004.4394,5.631763045389987,1004.4456601833654,0,0
19.92,-8.352267999999999,4.462853400000001,-2.2074404,1004.4444,5.631882232207872,1004.4456271317054,0,0
19.94,-8.44307,4.343689,-2.2169077,1004.424,5.631978323127518,1004.4455200695846,0,0
19.96,-8.596009,4.3103228,-2.2784538,1004.4597,5.632328266155157,1004.4454765172444,0,0
19.98,-8.347445500000001,4.334155,-2.3257966,1004.4622,5.632499018658838,1004.4454982389343,0,0
20.0,-8.447805,4.214991,-2.216904,1004.43427,5.632529279685444,1004.4454770105592,0,0
20.02,-8.266159,4.429486,-2.2311058,1004.4445,5.632315057165778,1004.4454547359293,0,0
20.04,-8.385639999999999,4.448551,-2.1979635,1004.4142,5.632101327347303,1004.4453225370166,0,0
20.06,-8.390404,4.4390182000000005,-2.2216344,1004.44434,5.631899445290808,1004.4452021889244,0,0
20.08,-8.543343,4.5295825,-2.3115866,1004.46686,5.632110899537178,1004.4451738174696,0,0
20.1,-8.390375,4.4294844000000015,-2.2784443,1004.4368,5.632302854844988,1004.4451186027096,0,0
20.12,-8.333002,4.543881400000001,-2.0843327,1004.4495,5.6323936653470765,1004.4450855879776,0,0
20.14,-8.280411,4.4437833,-2.1316752,1004.4646,5.632225765232588,1004.4451266680439,0,0
20.16,-8.481147,4.4390163000000005,-2.2689714,1004.45935,5.632248947131799,1004.4452141703856,0,0
20.18,-8.505032,4.2435870000000016,-2.2547672000000003,1004.4596,5.632297204136554,1004.4453432764412,0,0
20.2,-8.323385,4.510514,-1.9943734,1004.4745,5.632172187134625,1004.4455623187567,0,0
20.22,-8.404627,4.462848,-2.2121549,1004.46436,5.632091986873768,1004.4458235361992,0,0
20.24,-8.375933999999999,4.5915446,-2.3399822999999995,1004.4441,5.632185864242133,1004.4460481432013,0,0
20.26,-8.442892,4.515281,-2.2121572,1004.45416,5.6324173358371565,1004.4462758086323,0,0
20.28,-8.438098,4.548646,-2.2689686,1004.4392,5.632819837652964,1004.4464515008963,0,0
20.3,-8.256454,4.52958,-2.1648110000000003,1004.4468,5.632981393906097,1004.4466079971776,0,0
20.32,-8.428514999999999,4.505747,-2.1790130000000003,1004.4417,5.633219601183593,1004.4467286085018,0,0
20.34,-8.356803999999999,4.4199480000000015,-2.2736998,1004.45416,5.6333599111584975,1004.4468619336773,0,0
20.36,-8.39025,4.2864847,-2.231089,1004.4618,5.633328190964477,1004.4470335168413,0,0
20.38,-8.404575999999999,4.386582,-2.1979467999999995,1004.42645,5.6332475656330825,1004.447111027064,0,0
20.4,-8.533621,4.2340517,-2.2878995,1004.45917,5.6332596507734225,1004.4472229273996,0,0
20.42,-8.399774,4.458080000000002,-2.2310858,1004.429,5.63329242672625,1004.4472561999974,0,0
20.44,-8.065174,4.5105114,-2.3589134,1004.444,5.632864018474812,1004.4472738773449,0,0
20.46,-8.543141,4.2340508,-2.3399746,1004.45905,5.632612946000563,1004.4473318910904,0,0
20.48,-8.428414,4.3055487,-2.240551,1004.44147,5.63232889983606,1004.4473620492283,0,0
20.5,-8.361483999999999,4.4437785000000005,-2.2831595,1004.4212,5.6320464679021205,1004.4472945135817,0,0
20.52,-8.466627,4.157785,-2.292627,1004.45667,5.631697296972897,1004.4472685908354,0,0
20.54,-8.571769999999999,4.3818126,-2.3210323,1004.44385,5.631696955606627,1004.4472333785698,0,0
20.56,-8.385346,4.5009760000000005,-2.3589065,1004.4515,5.631801772845751,1004.4472176248488,0,0
20.58,-8.366214999999999,4.424711,-2.3020928,1004.42365,5.631864502481951,1004.4471188614116,0,0
20.6,-8.294505000000001,4.3007803,-2.1979344,1004.41364,5.6315948101765345,1004.4469110701376,0,0
20.62,-8.5095825,4.16255,-2.3873096,1004.4565,5.63138786061938,1004.4467619859154,0,0
20.64,-8.566930000000001,4.13395,-2.368371,1004.4287,5.63130633013478,1004.4465652319471,0,0
20.66,-8.385283,4.3865776,-2.363635,1004.4716,5.631235032578106,1004.4464815053059,0,0
20.68,-8.490428,4.2340474000000015,-2.3162901,1004.44147,5.631198366506236,1004.4463894830267,0,0
20.7,-8.390038,4.3103123,-2.2689445,1004.4639,5.631057900824423,1004.4463712100016,0,0
20.72,-8.619457,3.986186,-2.2405374,1004.46405,5.630942125197719,1004.446418707601,0,0
20.74,-8.4473715,4.1148824999999984,-2.3115523,1004.45135,5.630680550617607,1004.4464784291322,0,0
20.76,-8.514182,3.9718835,-2.2547297000000004,1004.44135,5.630260709960671,1004.4465127367323,0,0
20.78,-8.557184,4.176845,-2.382557,1004.46387,5.630022354143502,1004.4466055370757,0,0
20.8,-8.538048,4.076747,-2.0984912,1004.4412,5.6296867048081936,1004.4466680755254,0,0
20.82,-8.609729,4.2769413,-2.2026465,1004.4465,5.62962232771648,1004.4467227294276,0,0
20.84,-8.657511,4.100579,-2.2263172000000004,1004.444,5.6297400983917285,1004.44676121979,0,0
20.86,-8.533219,4.262641,-2.1884406000000003,1004.4586,5.629917914638188,1004.4468378494826,0,0
20.88,-8.494964999999999,4.243575,-2.0984855,1004.45654,5.630020401634468,1004.4469404872208,0,0
20.9,-8.47105,4.1339436,-2.2452502,1004.44354,5.629982446006622,1004.4470189361723,0,0
20.92,-8.5379505,4.0529118,-2.2073736,1004.45886,5.629853309726533,1004.4471308814959,0,0
20.94,-8.514033999999999,4.172075,-2.278388,1004.4385,5.629739236004747,1004.4471987252102,0,0
20.96,-8.475781,4.2388067000000005,-2.3683405,1004.44855,5.629673951773306,1004.4472635365056,0,0
20.98,-8.528341000000001,4.1530085,-2.178963,1004.4108,5.6295787455125765,1004.4471895350348,0,0
21.0,-8.566566,4.2102065,-2.3020558,1004.4687,5.629636396980143,1004.4472015850087,0,0
21.02,-8.485291499999999,4.2531047,-2.2831166,1004.4663,5.629711120243582,1004.4472809866597,0,0
21.04,-8.432697000000001,4.205439,-2.3683345,1004.4459,5.629704988236921,1004.4473461744068,0,0
21.06,-8.494817999999999,4.0958076,-2.344661,1004.4636,5.6296306327898025,1004.4474622880721,0,0
21.08,-8.442225,4.0862746,-2.3209875,1004.4231,5.6293805177800085,1004.4474771818698,0,0
21.1,-8.599942,4.0433745000000005,-2.2925794,1004.44604,5.629212102925751,1004.4474851681746,0,0
21.12,-8.47565,4.081507,-2.4298756,1004.436,5.62899234585201,1004.447450878268,0,0
21.14,-8.356136,4.2531023,-2.2973106,1004.43317,5.62859837638502,1004.447369168545,0,0
21.16,-8.552094,4.1291720000000005,-2.3777943,1004.413,5.628335250384046,1004.4471732408267,0,0
21.18,-8.475601,4.229269,-2.3162458,1004.40546,5.62810840678675,1004.4468499514282,0,0
21.2,-8.523384,4.0672054,-2.3446505,1004.4382,5.6278717749425375,1004.4465331530904,0,0
21.22,-8.351293,4.2388010000000005,-2.3399143,1004.44574,5.627466412633408,1004.4462503747279,0,0
21.24,-8.504232,4.1816025,-2.2546937,1004.4382,5.627096105023641,1004.4459715304178,0,0
21.26,-8.528936,4.2817197,-2.259502,1004.45325,5.626895242990769,1004.445751346076,0,0
21.28,-8.629328,4.176856,-2.3873324,1004.45575,5.626995752420045,1004.4455927863456,0,0
21.3,-8.533749,4.086292,-2.2547703,1004.4356,5.627043725177102,1004.4454167089368,0,0
21.32,-8.390369999999999,4.2340555,-2.2879127999999995,1004.4179,5.626932973571613,1004.4451620667863,0,0
21.34,-8.524222,4.1244254,-2.2168982,1004.4583,5.626792497564254,1004.4449843615416,0,0
21.36,-8.486,4.114892500000002,-2.2595096000000003,1004.44824,5.6265686968494535,1004.4448390614862,0,0
21.38,-8.548153,4.153025,-2.1174788,1004.45074,5.626352535508581,1004.4447319177356,0,0
21.4,-8.519491,4.248356299999998,-2.2026994,1004.42053,5.626216340192858,1004.4445501186136,0,0
21.42,-8.509946000000001,4.267423,-2.1979663,1004.4507,5.6261490588787915,1004.4444116204828,0,0
21.44,-8.715494999999999,4.0862947,-2.1979678,1004.4206,5.626357442921016,1004.4442035217004,0,0
21.46,-8.452621,4.2674236,-2.1411567,1004.40295,5.626464061558878,1004.4438711329384,0,0
21.48,-8.481316,4.124428,-2.1080174,1004.4206,5.6263886511550965,1004.4434936581496,0,0
21.5,-8.629505,4.1768603,-2.1316907000000005,1004.43317,5.626480281111776,1004.4431229562566,0,0
21.52,-8.5960655,4.1244287,-2.1932397,1004.43536,5.626640186803588,1004.4427674574216,0,0
21.54,-8.619978999999999,4.124429,-2.0654123,1004.44324,5.626845747136843,1004.4424550398044,0,0
21.56,-8.639114999999999,4.0910635000000015,-2.0701482,1004.45325,5.6270989575047885,1004.4422178494543,0,0
21.58,-8.5913315,4.1673290000000005,-2.1695719,1004.4354,5.627417574862236,1004.4419837238032,0,0
21.6,-8.562672000000001,4.210228400000001,-2.164839,1004.43536,5.6277766213107085,1004.4417530049719,0,0
21.62,-8.557906,4.1196637,-2.169575,1004.4507,5.62808329915146,1004.4415813509947,0,0
21.64,-8.610502,4.124431,-2.0985606,1004.4454,5.628410668138336,1004.4414434246768,0,0
21.66,-8.462342999999999,4.267428,-2.1269683999999995,1004.4124,5.628626152685094,1004.4412169966536,0,0
21.68,-8.591415,4.3293934,-2.1885173,1004.4454,5.629060408808451,1004.4410319836644,0,0
21.7,-8.495834,4.167331,-2.1553779,1004.44794,5.629351442607616,1004.4408933750459,0,0
21.72,-8.505412,4.2054644,-2.1411762000000003,1004.4401,5.629559918590813,1004.4407680443204,0,0
21.74,-8.448069,4.2006974,-2.0464895,1004.4303,5.629543619226303,1004.4406196171318,0,0
21.76,-8.623488,4.0719657,-2.046358,1004.4505,5.629535370874588,1004.4405240362463,0,0
21.78,-8.566086,4.1958947,-2.164714,1004.4808,5.6295913294445015,1004.4405845744452,0,0
21.8,-8.513466000000001,4.219727,-2.0368814,1004.4606,5.629572147713753,1004.4407101215303,0,0
21.82,-8.585124,4.238792,-2.1457691000000003,1004.44794,5.629682671404773,1004.4408470824964,0,0
21.84,-8.551622,4.1243940000000014,-2.1220934,1004.44037,5.6297338262968575,1004.4409663837096,0,0
21.86,-8.618499,4.26739,-2.2309809,1004.463,5.630031607949925,1004.4411511192801,0,0
21.88,-8.317328999999999,4.2912207,-2.1694295,1004.4657,5.629994876652175,1004.4414027276003,0,0
21.9,-8.737913,4.1100907,-2.1741605,1004.45544,5.63026710258914,1004.4416755828933,0,0
21.92,-8.455863,4.281686,-2.2546415,1004.4685,5.630488251839425,1004.4420132457317,0,0
21.94,-8.513179,4.2435527,-2.1410122000000005,1004.45776,5.630679257328903,1004.4423682929307,0,0
21.96,-8.398421,4.229252,-2.221493,1004.4454,5.630659764139053,1004.4426929267813,1,3
21.98,-8.570455,4.1291533,-2.2356925,1004.4981,5.630683836423999,1004.4431792387156,1,3
22.0,-8.407903,4.138685700000001,-2.1125946,1004.4455,5.630401354855675,1004.443617298681,1,3
22.02,-8.556035000000001,4.086252,-2.103122,1004.4631,5.630068682635947,1004.4440745061912,1,3
22.04,-8.594228999999999,4.195882,-2.1788682999999995,1004.45276,5.6298938114956485,1004.4445097625252,1,3
22.06,-8.508156,4.3817763,-2.2924907,1004.41754,5.629925697418304,1004.4447972638768,1,3
22.08,-8.493772,4.1386814,-2.036829,1004.44525,5.629775463877435,1004.445052929921,1,3
22.1,-8.646687,4.3341093,-2.2735455,1004.4251,5.630026550554848,1004.4452070058901,1,3
22.12,-8.570165,4.1339126,-2.159916,1004.4605,5.6302601943056025,1004.4453982021948,1,3
22.14,-8.46975,4.1386786,-2.2119906000000005,1004.39484,5.630323200127361,1004.445385133722,1,3
22.16,-8.613102,3.9623146,-2.1362362,1004.44775,5.6303092021690455,1004.445382099938,1,3
22.18,-8.780353999999999,4.0052123,-2.1930454,1004.41504,5.630597742639193,1004.4452701877266,1,3
22.2,-8.770755,4.1625074999999985,-2.1788387000000005,1004.4479,5.631262965434308,1004.4451807694207,1,3
22.22,-8.85197,4.2435384,-2.2309132000000003,1004.4352,5.632501815611664,1004.4450658286355,1,3
22.24,-8.698975,4.176806,-2.14569,1004.47577,5.633865951565676,1004.4450748019752,1,3
22.26,-8.603338,4.281669,-2.1030767000000004,1004.4326,5.635235889449607,1004.4450378215307,1,3
22.28,-8.751472,4.0481067,-2.0746667000000003,1004.45276,5.636659473039094,1004.4450329454526,1,3
22.3,-8.937839,4.0814714,-2.306648,1004.42755,5.6386028052416615,1004.4449656983462,1,3
22.32,-8.866857000000003,4.110087999999998,-2.136275,1004.4401,5.640813640946318,1004.444888762289,1,3
22.34,-8.857283,4.229252,-2.117336,1004.4427,5.643329977523326,1004.4448129020444,1,3
22.36,-8.857267,4.267384,-2.1457412,1004.4326,5.646153181938952,1004.4447019054852,1,3
22.38,-8.957628,4.2769165000000005,-2.1883495,1004.46545,5.649448429726468,1004.4446785220656,1,3
22.4,-8.838119,4.38178,-2.2498956000000003,1004.4097,5.653052010592368,1004.4445319377968,1,3
22.42,-8.92892,4.3055153,-2.1267996,1004.42255,5.656957333717807,1004.4443232809607,1,3
22.44,-8.881108,4.3102813,-2.2498927,1004.4682,5.661087345127536,1004.4442248679687,1,3
22.46,-9.115303,4.2435493,-2.1930785,1004.45044,5.665746289124496,1004.4441602847244,1,3
22.48,-8.847621,4.4294449999999985,-2.3540473,1004.4301,5.670605523777107,1004.4440526019446,1,3
22.5,-9.057918,4.291214,-2.0794501,1004.4175,5.6757609848292185,1004.4438618640734,1,3
22.52,-8.9240675,4.515242,-2.387185,1004.46295,5.68125490419611,1004.4437620453798,1,3
22.54,-8.818897999999997,4.491409,-2.3019648,1004.4327,5.686775936722211,1004.4436340222188,1,3
22.56,-9.115231,4.272147,-2.4439952000000003,1004.4451,5.692712996572733,1004.4435261784737,1,3
22.58,-8.957482,4.324579,-2.2262115,1004.40753,5.698650686715427,1004.443301301498,1,3
22.6,-9.000487,4.372244,-2.1788661,1004.43256,5.704667064173184,1004.4430639315167,1,3
22.62,-8.928775,4.6868362,-2.4534602000000003,1004.41504,5.711017206576893,1004.4427533052478,1,3
22.64,-9.115174,4.353177,-2.396646,1004.47296,5.717646565202083,1004.4425875799781,1,3
22.66,-8.981323,4.467574,-2.472395,1004.4225,5.7243939786317775,1004.4423688298416,1,3
22.68,-9.167723,4.2959776,-2.415581,1004.4277,5.731381908484704,1004.4421227344336,1,3
22.7,-9.009973,4.2530775,-2.5576117000000003,1004.3846,5.738303312401036,1004.4416982026872,1,3
22.72,-9.052977,4.324576,-2.5007973,1004.4301,5.745252131472029,1004.441281332906,1,3
22.74,-8.990826,4.3055096,-2.4676554,1004.39746,5.752053859925289,1004.4407552299692,1,3
22.76,-9.057729,4.186344999999998,-2.6333585,1004.41003,5.758806202181723,1004.4401797545863,1,3
22.78,-9.12463,4.091014,-2.4723873,1004.4253,5.765450830192585,1004.4396176974216,1,3
22.8,-9.105496,4.310275,-2.4913235,1004.39484,5.7721359010578235,1004.4389598639999,1,3
22.82,-8.82837,4.543839,-2.5481458,1004.37976,5.778569102757692,1004.4381654828784,1,3
22.84,-9.205964,4.272145,-2.5008006000000003,1004.4253,5.785175768495012,1004.4374172519807,1,3
22.86,-9.0769,4.200646,-2.5339406,1004.4072,5.791631869581503,1004.4366473330524,1,3
22.88,-8.971735,4.2578444000000015,-2.4913301,1004.4102,5.7977670411982425,1004.4358718222886,1,3
22.9,-9.105559,4.16728,-2.4297817000000004,1004.40247,5.803733471923126,1004.4350663344172,1,3
22.92,-9.162908,4.472339,-2.5434067,1004.37225,5.809953580004996,1004.4341284665303,1,3
22.94,-8.976483,4.4485054,-2.396639,1004.3876,5.815944033300672,1004.4331322639861,1,3
22.96,-9.0099325,4.3245754000000005,-2.3777006000000003,1004.37213,5.8216518052966535,1004.4320324112672,1,3
22.98,-9.181995,4.1672792,-2.4723878,1004.3647,5.8273160306687855,1004.4308181847246,1,3
23.0,-8.842618,4.343641000000001,-2.3161516,1004.37213,5.8323775792684875,1004.4295340166864,1,3
23.02,-8.899966000000003,4.315041000000001,-2.4061046000000004,1004.35455,5.837010698861485,1004.4281293833476,1,3
23.04,-8.928636000000003,4.2578425000000015,-2.2877433,1004.36206,5.8411939117274745,1004.4266503995495,1,3
23.06,-8.976424,4.324574,-2.2924767000000004,1004.30396,5.845112431231171,1004.4249018840272,1,3
23.08,-8.861699,4.4723372,-2.330351,1004.3143,5.848724788234692,1004.4229587289293,1,3
23.1,-8.895147,4.4199047,-2.4723823,1004.35724,5.852135995876582,1004.4210051696606,1,3
23.12,-8.780422,4.3102736,-2.3824277,1004.342,5.8550069086601075,1004.41899458608,1,3
23.14,-8.660917,4.31504,-2.3208795,1004.2739,5.8571478792561225,1004.4166956939183,1,3
23.16,-8.866439,4.248308,-2.4392388,1004.32935,5.859008189510051,1004.4143499483059,1,3
23.18,-8.727814,4.329339,-2.4913163,1004.3067,5.860460681899737,1004.411889707669,1,3
23.2,-8.751703,4.381771,-2.4202993,1004.2914,5.861601834229741,1004.4092820760948,1,3
23.22,-8.7325735,4.4246697,-2.4439702000000003,1004.3167,5.8624801055208335,1004.4066446773616,1,3
23.24,-8.627408,4.4914017,-2.4202974,1004.2863,5.862983856789161,1004.4038810310028,1,3
23.26,-8.852048,4.2483068,-2.4960468,1004.3118,5.8633791127910975,1004.4011075813679,1,3
23.28,-8.766003,4.286439,-2.4297642999999995,1004.2967,5.863520888257885,1004.398281093978,1,3
23.3,-8.636939,4.238773,-2.3208723,1004.30927,5.8631079879346215,1004.3954631697819,1,3
23.32,-8.699955000000001,4.129164,-2.3162184,1004.2967,5.862222597518128,1004.3926177045512,1,3
23.34,-8.494446,4.2530947,-2.3540957,1004.28143,5.860678250295225,1004.3897031757367,1,3
23.36,-8.709561,4.076733,-2.2357376,1004.2866,5.858735721001136,1004.3867567266436,1,3
23.38,-8.465816499999999,4.3293610000000005,-2.339897,1004.2866,5.85628070259384,1004.3837926800093,1,3
23.4,-8.55188,4.143466,-2.2546802,1004.2967,5.853328342071436,1004.3808601147548,1,3
23.42,-8.594923,3.924205,-2.1978693,1004.28143,5.849810087962397,1004.3779109516828,1,3
23.44,-8.623627,3.8956065,-2.4156544,1004.2767,5.845940645727406,1004.3749407117666,1,3
23.46,-8.370322,3.943273000000002,-2.2594213,1004.25385,5.841272584668043,1004.3718802812144,1,3
23.48,-8.700151,3.9718728,-2.2262826,1004.2538,5.836528980158963,1004.3687509957657,1,3
23.5,-8.494646000000001,4.0862703,-2.2404883,1004.2411,5.831464201155812,1004.3655264155583,1,3
23.52,-8.695424000000001,4.14347,-2.2546937,1004.24896,5.8265569535935775,1004.3622575373917,1,3
23.54,-8.752806,4.1244044,-2.3162436,1004.2286,5.821924404562021,1004.3588879895084,1,3
23.56,-8.599876,4.17207,-2.2357607,1004.24426,5.817275261449376,1004.3554979962367,1,3
23.58,-8.556884,4.2817016,-2.235763,1004.24646,5.812648213571168,1004.3521100613956,1,3
23.6,-8.642945,4.1101065000000006,-2.3541255000000003,1004.25433,5.808118967118047,1004.3487644739488,1,3
23.62,-8.733787,4.0147758,-2.2831118,1004.2414,5.803742434491329,1004.3454218007747,1,3
23.64,-8.408785,4.2006717,-2.3825364,1004.2364,5.7991364768806655,1004.3420757362752,1,3
23.66,-8.470945,4.2245050000000015,-2.316257,1004.2186,5.79444472328354,1004.3386746410328,1,3
23.68,-8.671723,3.9623456,-2.373072,1004.20605,5.789859947530798,1004.3351919845688,1,3
23.7,-8.265467999999998,4.133942,-2.2215736,1004.2266,5.784720875053263,1004.3317237781728,1,3
23.72,-8.576176,3.9003816,-2.2689197,1004.2086,5.779496962541102,1004.3282160253999,1,3
23.74,-8.37545,4.095811,-2.292594,1004.1782,5.774030294896939,1004.3245765173584,1,3
23.76,-8.729182000000002,4.0052466,-2.42516,1004.21136,5.769001957564052,1004.3209530685904,1,3
23.78,-8.418517999999999,4.2483416,-2.2594578,1004.1834,5.7639446180612275,1004.317256198212,1,3
23.8,-8.542817,4.167311,-2.2641945,1004.16583,5.759034430435972,1004.313444509232,1,3
23.82,-8.580511999999999,4.110099,-2.2972853,1004.2013,5.754306250646675,1004.309672780616,1,3
23.84,-8.733467999999998,4.1196322,-2.2215352000000004,1004.1938,5.750007535109343,1004.3059229392007,1,3
23.86,-8.613975,4.1815977,-2.2830827,1004.1988,5.745968947345494,1004.3022239367453,1,3
23.88,-8.422786,4.3245945,-2.1836603,1004.15576,5.7419106970917975,1004.2984282280032,1,3
23.9,-8.766933,4.0243015,-2.202598,1004.1736,5.738219745420501,1004.294624958138,1,3
23.92,-8.551845,4.191131,-2.2025983,1004.151,5.7346178328544255,1004.2907473390356,1,3
23.94,-8.575747,4.214964,-2.2452085,1004.1532,5.731192357151609,1004.2868259043764,1,3
23.96,-8.594869000000001,4.2340300000000015,-2.2168021,1004.1358,5.727973474245785,1004.2828172314557,1,3
23.98,-8.408458999999999,4.2626295,-2.3919752,1004.151,5.724723533260539,1004.2788006260297,1,3
24.0,-8.408462,4.043368,-2.2925532000000004,1004.12335,5.721211997523674,1004.2746919312216,1,3
24.02,-8.633113999999999,3.876539,-2.150521,1004.1333,5.717683868967304,1004.2705524775367,1,3
24.04,-8.265073,4.1339326000000005,-2.2736158,1004.11566,5.713763123925445,1004.2663372433417,1,3
24.06,-8.360671,4.224497,-2.3493667,1004.1334,5.7098018799075625,1004.2621340883306,1,3
24.08,-8.575764,4.048135,-2.3304293,1004.1358,5.706043333053267,1004.2579653778453,1,3
24.1,-8.523189,4.172065,-2.3446326,1004.1308,5.702497220991182,1004.2538241099,1,3
24.12,-8.379797,4.205431,-2.2925544,1004.1408,5.698896336933348,1004.2497579987476,1,3
24.14,-8.728725,4.1672993,-2.3162267000000005,1004.1308,5.695870838710072,1004.2457369341383,1,3
24.16,-8.461058999999999,4.2959957000000015,-2.4487903,1004.13074,5.6930614683035925,1004.2417699324864,1,3
24.18,-8.666592999999999,4.1577660000000005,-2.3541026,1004.1182,5.690653359895192,1004.2378198380701,1,3
24.2,-8.408486,4.2054315,-2.335165,1004.12836,5.688173610517781,1004.2339354792264,1,3
24.22,-8.695277,4.1672993,-2.3256965,1004.0955,5.6861209696327695,1004.230004892027,1,3
24.24,-8.355912,4.281696299999999,-2.3020248,1004.09045,5.683929984256551,1004.2260294275663,1,3
24.26,-8.719180999999999,4.133933,-2.4251196,1004.0956,5.6822117561400525,1004.2220471612295,1,3
24.28,-8.527989999999999,4.081501,-2.3067594,1004.083,5.68046457069297,1004.2180278609143,1,3
24.3,-8.408499,4.1958980000000015,-2.3067596000000004,1004.0729,5.67858276533962,1004.2139539468562,1,3
24.32,-8.370009,4.15776,-2.2925336,1004.0679,5.676477874911286,1004.209828442186,1,3
24.34,-8.441697999999999,4.0576620000000005,-2.306736,1004.1009,5.674231788109051,1004.2057910038671,1,3
24.36,-8.350875,4.224491,-2.3588138,1004.0804,5.6718797453925776,1004.2017721157547,1,3
24.38,-8.336528,4.181592,-2.358813,1004.06537,5.669377832997405,1004.1977299786024,1,3
24.4,-8.427338,4.1911254,-2.3067338,1004.04004,5.666898793583014,1004.1935906622913,1,3
24.42,-8.580283,4.138693,-2.3304055,1004.0679,5.664691324457903,1004.1894806760142,1,3
24.44,-8.46556,4.2769227,-2.3398736,1004.0657,5.662652339621737,1004.1854034817064,1,3
24.46,-8.694983500000001,4.1720586000000015,-2.28306,1004.0454,5.6610640633840665,1004.181296860282,1,3
24.48,-8.379508999999999,4.396086,-2.3351376,1004.0454,5.659538588873128,1004.1771790208943,1,3
24.5,-8.503777000000001,4.3007550000000005,-2.3209338,1004.0405,5.658201948008228,1004.1730484535361,1,3
24.52,-8.608924,4.253089,-2.3493395,1004.0179,5.65719784641534,1004.1688401497853,1,3
24.54,-8.417725,4.3770194,-2.3351357000000004,1004.03546,5.656253012921523,1004.1646415240524,1,3
24.56,-8.570671,4.219723,-2.3872135,1004.03534,5.655522024703674,1004.160466132868,1,3
24.58,-8.503746000000001,4.2340225999999985,-2.240446,1004.03033,5.654802304564892,1004.1563082671388,1,3
24.6,-8.350785,4.234022,-2.3682745,1004.02527,5.653882235593576,1004.1521626392192,1,3
24.62,-8.3794565,4.1100917,-2.230976,1004.0052,5.65266043446795,1004.147970496888,1,3
24.64,-8.556301,4.067192,-2.3209288,1004.0131,5.651504425321073,1004.1437807861354,1,3
24.66,-8.4129,4.195889,-2.3019907,1004.0077,5.650254821416096,1004.1395888668843,1,3
24.68,-8.412892999999999,4.2006555,-2.2925212000000004,1003.98254,5.648926628856393,1004.1353195111133,1,3
24.7,-8.422445,4.1768227,-2.3398645,1004.0026,5.647553144497177,1004.131069318114,1,3
24.72,-8.518033,4.1053243,-2.2735822,1004.0001,5.646221816101898,1004.1268423580343,1,3
24.74,-8.589722,4.1100903,-2.2877846,1003.9775,5.64507419614341,1004.1225697836197,1,3
24.76,-8.403302,4.3102856,-2.2025647,1003.975,5.643894177883527,1004.1182632856453,1,3
24.78,-8.584928,4.195888,-2.306721,1003.9577,5.642964610270741,1004.113880036207,1,3
24.8,-8.656617,4.219721,-2.4014084,1003.97284,5.642457736672676,1004.109499252873,1,3
24.82,-8.447059,4.286471,-2.2263045,1003.9803,5.641921526853452,1004.1051632754088,1,3
24.84,-8.600033999999999,4.043377,-2.259447,1003.9652,5.641439301869192,1004.1008281379297,1,3
24.86,-8.643075,4.1005764,-2.339934,1003.96765,5.641173729311775,1004.0965181691568,1,3
24.88,-8.423229,4.272173,-2.3399363,1003.9753,5.640854765936568,1004.09227349534,1,3
24.9,-8.504506,4.200675,-2.3730788,1003.94745,5.640588460783207,1004.0880015369723,1,3
24.92,-8.581006,4.0433793,-2.207377,1003.9299,5.640289910462163,1004.0836576690256,1,3
24.94,-8.265561,4.2006760000000005,-2.2594576,1003.91974,5.639555981609187,1004.0792293236992,1,3
24.96,-8.590611,4.143478,-2.3778198,1003.9325,5.63903552028501,1004.0747882122032,1,3
24.98,-8.365984,4.138712399999998,-2.3636186,1003.93,5.638287283805077,1004.070342808522,1,3
25.0,-8.394682000000001,3.986183,-2.3210108,1003.91724,5.6372368212326025,1004.0658636797183,1,3
25.02,-8.571558,4.100581,-2.321013,1003.9198,5.63634459226641,1004.0613800922605,1,3
25.04,-8.294354,4.2149790000000005,-2.3446872,1003.90466,5.635207765986358,1004.0568542020503,1,3
25.06,-8.633741,4.176847,-2.37783,1003.9248,5.634454574596782,1004.0523797303335,1,3
25.08,-8.581186,4.219746,-2.3683631000000003,1003.9176,5.633980987107186,1004.0479408800952,1,3
25.1,-8.480833,4.2435800000000015,-2.2642086,1003.87225,5.6335448299769855,1004.0433862248564,1,3
25.12,-8.705506,4.071985,-2.3446953,1003.89215,5.6334401637543,1004.0388172810781,1,3
25.14,-8.495216000000001,4.262647,-2.3589003,1003.8874,5.633421708502013,1004.0342350601433,1,3
25.16,-8.4331,4.3055463,-2.3304963,1003.85706,5.633392594924648,1004.0295483795088,1,3
25.18,-8.523939,4.1625504,-2.3447015,1003.8647,5.6333963142327095,1004.0248137743342,1,3
25.2,-8.724716,4.033854,-2.3825788,1003.8849,5.633702364475397,1004.0201265876144,1,3
25.22,-8.275435,4.1101193,-2.2973616000000003,1003.86224,5.633480961946787,1004.0154165977127,1,3
25.24,-8.595706,4.0100226,-2.3731139,1003.8243,5.633326803192487,1004.0105668308844,1,3
25.26,-8.481012,4.0529222,-2.3210375,1003.85706,5.633034253308347,1004.0057289523236,1,3
25.28,-8.571852,4.1005883,-2.2121487,1003.8269,5.6327748879365735,1004.0008104185988,1,3
25.3,-8.352003,4.1768537000000014,-2.240557,1003.8547,5.632227675917339,1003.9959384046927,1,3
25.32,-8.60067,4.0576919999999985,-2.3968031,1003.82434,5.631852009663877,1003.9910157389482,1,3
25.34,-8.366487,4.081526,-2.2074292,1003.812,5.6311302803038075,1003.9860216148364,1,3
25.36,-8.705879,3.9337635,-2.3636672,1003.8371,5.6306755196442095,1003.9810726889576,1,3
25.38,-8.428678,4.110126,-2.2500436,1003.80676,5.630047045363133,1003.9760722923708,1,3
25.4,-8.658131,4.1101269999999985,-2.2074363,1003.8196,5.629665423309731,1003.9710906416942,1,3
25.42,-8.557781,4.262657599999999,-2.3447366,1003.7968,5.629521724445058,1003.9660614088465,1,3
25.44,-8.505231,4.181627,-2.3163326,1003.8196,5.6294070916127525,1003.96109031763,1,3
25.46,-8.643873,4.1482614999999985,-2.3116007,1003.78436,5.629538674097398,1003.9560616322881,1,3
25.48,-8.490944,4.1959276,-2.3021343,1003.78436,5.62964712051088,1003.9510001600432,1,3
25.5,-8.543548,4.1720953000000005,-2.3494804,1003.754,5.629832259102617,1003.945818642592,1,3
25.52,-8.615272000000001,4.0481663,-2.2926702000000003,1003.75903,5.630079004303195,1003.9405678146584,1,3
25.54,-8.419327000000001,4.248361599999999,-2.3447511000000003,1003.79456,5.630226369671688,1003.9354025549637,1,3
25.56,-8.328534,4.0815325,-2.3116126,1003.7819,5.629954955214286,1003.9302859222992,1,3
25.58,-8.514974,4.172098,-2.3968341,1003.77686,5.629775451154301,1003.9252125323567,1,3
