Timestamp,Ax,Ay,Az,P,Value,Type
0.0,2.8698413,6.284889,7.6348033,1004.47437,0,0
0.04,2.4253335,6.180024,7.1424265,1004.4719,0,0
0.08,1.9521581,6.0370274,7.374414999999999,1004.48425,0,0
0.12,2.0955727,5.9226294,7.7579036,1004.47424,0,0
0.16,1.8566014,5.8940296,8.259751,1004.48175,0,0
0.2,1.7801448,5.9607606,7.980424,1004.4616,0,0
0.24,1.8184048,6.118057,8.496475,1004.45636,0,0
0.28,2.2725055,7.0666012999999985,8.647979,1004.4591,0,0
0.32,2.8508818,8.406003,9.01253,1004.489,0,0
0.36,3.6921465,9.68344,11.180889,1004.52966,0,0
0.4,5.030513,10.398422,13.737470000000002,1004.5344,0,0
0.44,5.31732,9.526142,14.220381,1004.51904,0,0
0.48,4.59081,7.8340144,12.037822,1004.4762,0,0
0.52,4.3566203,6.694806599999999,9.296604,1004.4257,0,0
0.56,2.7649658,5.727195,6.0346007,1004.31995,0,0
0.6,1.7182078,4.711917400000001,4.197653,1004.3399,0,0
0.64,0.26516145,3.8396378,2.6589732,1004.3527,0,0
0.68,-2.3015676,3.3820477,0.9167143,1004.3598,0,0
0.72,-4.1656704,2.6050985,0.7226057,1004.3398,0,0
0.76,-5.9096904000000015,2.3953552000000005,0.16400155,1004.38257,0,0
0.8,-8.007968,2.2189915,-0.8965,1004.3876,0,0
0.84,-9.288912,2.1856244,-1.3604677,1004.4103,0,0
0.88,-10.115772,2.5764806,-0.9864456,1004.4024,0,0
0.92,-8.595752000000001,3.076968,-1.3604596000000002,1004.40015,0,0
0.96,-9.083247,2.852939,-1.3225802,1004.43536,0,0
1.0,-9.102324,3.3105273,-1.3036388,1004.4228,0,0
1.04,-8.590841000000001,3.453523,-1.9333105,1004.415,0,0
1.08,-8.920603999999997,3.558386,0.0409403,1004.4402,0,0
1.12,-7.931141999999999,4.287668,-0.8254519,1004.41473,0,0
1.16,-8.088832,4.630859,-0.76863503,1004.4122,0,0
1.2,-9.250277,4.37823,-1.1095079,1004.4048,0,0
1.24,-8.743575,4.4735603,-0.65973556,1004.42236,0,0
1.28,-8.800889,4.4878589999999985,-0.8917174000000001,1004.42487,0,0
1.32,-8.6861315,4.5259905,0.16879308,1004.4499,0,0
1.36,-8.643069,4.845349,-0.26203367,1004.4499,0,0
1.4,-8.494850999999999,5.1647067,0.14039479,1004.4498,0,0
1.44,-8.198459,5.2600370000000005,0.1924773,1004.4448,0,0
1.48,-8.193636999999999,4.7166486,-0.3567098,1004.42944,0,0
1.52,-7.6391387,5.1599374000000005,-0.49873817,1004.4067,0,0
1.56,-7.639091499999997,5.6508913,-0.053699795,1004.3941,0,0
1.6,-7.8541408,5.269566,-0.020555161,1004.40155,0,0
1.64,-8.045289,5.245732,-0.25727132,1004.3991,0,0
1.68,-8.121725,4.883472,-1.0242411,1004.3915,0,0
1.72,-8.738272,4.7643075,-0.9011423,1004.39886,0,0
1.76,-8.542032,4.993096,-1.1567757,1004.42926,0,0
1.8,-8.336447999999999,5.1408577000000015,-1.3840224,1004.414,0,0
1.84,-7.8106194,5.6651773,-1.3603456,1004.3884,0,0
1.88,-8.307665,5.2314196,-0.72119606,1004.419,0,0
1.92,-8.355414,4.9263587,-1.1804289,1004.42664,0,0
1.96,-8.594351,4.497367400000001,-0.47026318,1004.3935,0,0
2.0,-8.29795,4.8071923,-0.74485373,1004.41614,0,0
2.04,-8.646836,4.5211983,-0.3992386,1004.4339,0,0
2.08,-7.944137599999999,4.7833567000000015,-1.0099707,1004.439,0,0
2.12,-8.149622,4.835788,-0.5507291,1004.391,0,0
2.16,-8.976472,4.6689568,0.30620328,1004.4184,0,0
2.2,-8.895164999999997,4.5307255,0.1736445,1004.45123,0,0
2.24,-8.938130000000003,4.3448286,-0.75902843,1004.42596,0,0
2.28,-8.737328999999999,4.5259566,-0.14828555,1004.4335,0,0
2.32,-8.211497,4.7738166,-0.039389398,1004.4284,0,0
2.36,-8.149303,4.916812,-0.06779064,1004.40814,0,0
2.4,-7.9771800000000015,4.897744,-0.3045063,1004.4005,0,0
2.44,-8.493345,4.850077,-0.115125224,1004.41833,0,0
2.48,-8.665364,4.878675,-0.46546626,1004.446,0,0
2.52,-9.114617,4.6784787,-0.30449194,1004.42566,0,0
2.56,-8.765638000000001,4.935871,-0.47966003,1004.4304,0,0
2.6,-8.383201,4.9168043,-0.6785002,1004.4103,0,0
2.64,-8.354471,4.9072695,-0.53646344,1004.4355,0,0
2.68,-8.493032000000001,4.6689405,-0.5033178,1004.4406,0,0
2.72,-8.220530499999999,4.568841,-0.9436126,1004.4203,0,0
2.76,-8.383878,4.244736,-0.63121825,1004.4,0,0
2.8,-8.517694,4.359133,-0.03941602,1004.4607,0,0
2.84,-8.025357000000001,4.5640945,-0.49865162,1004.4251,0,0
2.88,-7.910627000000002,4.878687,-0.17197633,1004.4125,0,0
2.92,-8.469845,5.2314115,-0.11516172,1004.4149,0,0
2.96,-8.269075,5.445906,-0.29506746,1004.4276,0,0
3.0,-8.197362,5.503104,-0.8063816999999999,1004.4175,0,0
3.04,-8.546269,5.331508,-0.35661158,1004.42737,0,0
3.08,-8.474555,5.159911599999999,-0.48917323,1004.4018,0,0
3.12,-8.312025,5.074113400000001,-0.6690792,1004.42474,0,0
3.16,-7.991759299999999,5.1027117,-0.9436729,1004.39935,0,0
3.2,-8.1638155,4.9835477,-0.69748235,1004.3868,0,0
3.24,-8.173358,5.078878400000002,-0.6075271,1004.42206,0,0
3.28,-8.168561,5.0407457,-0.64066637,1004.43207,0,0
3.32,-8.173323,5.0645776,-0.50810134,1004.40924,0,0
3.36,-8.245002000000001,5.0788769999999985,-0.6880071,1004.42706,0,0
3.4,-8.029894,5.3458037,-0.635927,1004.40924,0,0
3.44,-8.096793,5.403002,-0.74008226,1004.4421,0,0
3.48,-8.053758,5.350569200000002,-0.7921592,1004.4267,0,0
3.52,-8.273612,5.1932725999999985,-0.49389017,1004.4396,0,0
3.56,-8.010705,5.326736,-0.8158281,1004.4189,0,0
3.6,-8.163642999999999,5.3076690000000015,-0.6359191999999999,1004.42896,0,0
3.64,-8.369155000000001,5.488798,-0.7495432,1004.472,0,0
3.68,-8.068009,5.2743025,-0.65958786,1004.4468,0,0
3.72,-7.699948299999999,5.274302,-0.84896255,1004.4138,0,0
3.76,-7.947151,5.23137,-0.7683544,1004.42896,0,0
3.8,-8.315128999999999,5.0979047,-0.5174247999999999,1004.4794,0,0
3.84,-8.48235,5.1551013,-0.8582953999999999,1004.45166,0,0
3.88,-8.539638499999999,5.097901,-0.23808195,1004.449,0,0
3.92,-8.539562,5.321927,-0.28068465,1004.45135,0,0
3.96,-7.746049,5.4935217000000005,-0.091302395,1004.4639,0,0
4.0,-7.4496303,5.5459523,0.25431567,1004.45135,0,0
4.04,-7.941883,5.455386,-0.29960358,1004.43085,0,0
4.08,-8.262058,5.283788,-0.47003567,1004.4131,0,0
4.12,-8.371922999999999,5.035926,-0.80143756,1004.408,0,0
4.16,-8.175889,5.0597568,-1.0286833,1004.4179,0,0
4.2,-8.132795,5.083588,-0.9103163,1004.4736,0,0
4.24,-8.19486,5.083586,-0.74460554,1004.44824,0,0
4.28,-8.127873,5.293313,-0.90083444,1004.446,0,0
4.32,-8.323774,5.2027464000000005,-0.68777966,1004.4329,0,0
4.36,-8.189874,5.2647104,-0.79666483,1004.448,0,0
4.4,-7.874336,5.126478700000002,-0.99076885,1004.438,0,0
4.44,-8.094135000000001,4.7785177,-0.8250583,1004.4533,0,0
4.48,-8.337839,4.7308507,-0.8250521999999999,1004.45306,0,0
4.52,-8.705808,4.9596434,-0.5551843000000001,1004.45264,0,0
4.56,-8.003110000000001,5.2218019999999985,-0.91972727,1004.4402,0,0
4.6,-8.084301,5.2742330000000015,-0.92445564,1004.47284,0,0
4.64,-8.289756,5.321897,-0.5977748,1004.45044,0,0
4.68,-8.304028500000001,5.1407657,-0.24268837,1004.47296,0,0
4.72,-8.074527999999999,5.17413,-0.57409024,1004.41956,0,0
4.76,-8.138083,5.1122,-0.5694855999999999,1004.42456,0,0
4.8,-7.989897999999997,5.0597672,-0.8393457000000001,1004.4423,0,0
4.84,-8.295794,5.040701,-0.5978899000000001,1004.43726,0,0
4.88,-8.204967,5.2885620000000015,-0.8346091,1004.4423,0,0
4.92,-8.472625,5.407725,-0.47005898,1004.4268,0,0
4.96,-8.138028,5.4935226,-0.3564323,1004.45184,0,0
5.0,-8.094997,5.1026645,-0.31382155,1004.43933,0,0
5.04,-7.8464375,4.9120026,-0.23807012,1004.44934,0,0
5.08,-8.075855,5.1312633000000005,-0.76832235,1004.4292,0,0
5.12,-8.353073,5.217061,-0.8393374,1004.4343,0,0
5.16,-8.271805,5.326691599999998,-0.8535395,1004.4137,0,0
5.2,-8.190536999999999,5.3648243,-0.2806756,1004.4568,0,0
5.24,-8.06147,5.4982877,-0.3232841,1004.4364,0,0
5.28,-8.123597,5.3743567,0.18803251,1004.44147,0,0
5.32,-8.051889,5.1932273,0.036532555,1004.4617,0,0
5.36,-8.396024,5.2885585,-0.15757693,1004.44904,0,0
5.4,-7.975389999999999,5.536419,-0.5268594,1004.4437,0,0
5.44,-8.214369,5.269491,-0.2475286,1004.41364,0,0
5.48,-7.765055999999999,5.054996,-0.74937445,1004.43604,0,0
5.52,-8.200007000000001,4.9167657,-0.8251238999999999,1004.43854,0,0
5.56,-8.391189,4.821434,-0.85826373,1004.413,0,0
5.6,-8.544130000000001,4.8023669999999985,-0.8819347,1004.40576,0,0
5.64,-8.166514,5.021629,-0.8203864,1004.42053,0,0
5.68,-8.142603999999999,5.164625599999999,-0.63100916,1004.4105,0,0
5.72,-8.391143,5.231357,-0.35167828,1004.4156,0,0
5.76,-8.122577,5.2647014,-0.31845537,1004.4279,0,0
5.8,-8.203787,5.212268,-0.18588774,1004.45306,0,0
5.84,-8.241978,5.288532,-0.3752596,1004.43286,0,0
5.88,-8.246715,5.217032,-0.58356935,1004.43036,0,0
5.92,-8.079374000000001,5.135999,-0.6782531999999999,1004.4301,0,0
5.96,-8.165366,5.021601,-0.40365368,1004.43787,0,0
6.0,-8.3469515,4.911968700000001,-0.3894462,1004.4275,0,0
6.04,2.8698413,6.284889,7.6348033,1004.47437,0,0
6.08,2.4253335,6.180024,7.1424265,1004.4719,0,0
6.12,1.9521581,6.0370274,7.374414999999999,1004.48425,0,0
6.16,2.0955727,5.9226294,7.7579036,1004.47424,0,0
6.2,1.8566014,5.8940296,8.259751,1004.48175,0,0
6.24,1.7801448,5.9607606,7.980424,1004.4616,0,0
6.28,1.8184048,6.118057,8.496475,1004.45636,0,0
6.32,2.2725055,7.0666012999999985,8.647979,1004.4591,0,0
6.36,2.8508818,8.406003,9.01253,1004.489,0,0
6.4,3.6921465,9.68344,11.180889,1004.52966,0,0
6.44,5.030513,10.398422,13.737470000000002,1004.5344,0,0
6.48,5.31732,9.526142,14.220381,1004.51904,0,0
6.52,4.59081,7.8340144,12.037822,1004.4762,0,0
6.56,4.3566203,6.694806599999999,9.296604,1004.4257,0,0
6.6,2.7649658,5.727195,6.0346007,1004.31995,0,0
6.64,1.7182078,4.711917400000001,4.197653,1004.3399,0,0
6.68,0.26516145,3.8396378,2.6589732,1004.3527,0,0
6.72,-2.3015676,3.3820477,0.9167143,1004.3598,0,0
6.76,-4.1656704,2.6050985,0.7226057,1004.3398,0,0
6.8,-5.9096904000000015,2.3953552000000005,0.16400155,1004.38257,0,0
6.84,-8.007968,2.2189915,-0.8965,1004.3876,0,0
6.88,-9.288912,2.1856244,-1.3604677,1004.4103,0,0
6.92,-10.115772,2.5764806,-0.9864456,1004.4024,0,0
6.96,-8.595752000000001,3.076968,-1.3604596000000002,1004.40015,0,0
7.0,-9.083247,2.852939,-1.3225802,1004.43536,0,0
7.04,-9.102324,3.3105273,-1.3036388,1004.4228,0,0
7.08,-8.590841000000001,3.453523,-1.9333105,1004.415,0,0
7.12,-8.920603999999997,3.558386,0.0409403,1004.4402,0,0
7.16,-7.931141999999999,4.287668,-0.8254519,1004.41473,0,0
7.2,-8.088832,4.630859,-0.76863503,1004.4122,0,0
7.24,-9.250277,4.37823,-1.1095079,1004.4048,0,0
7.28,-8.743575,4.4735603,-0.65973556,1004.42236,0,0
7.32,-8.800889,4.4878589999999985,-0.8917174000000001,1004.42487,0,0
7.36,-8.6861315,4.5259905,0.16879308,1004.4499,0,0
7.4,-8.643069,4.845349,-0.26203367,1004.4499,0,0
7.44,-8.494850999999999,5.1647067,0.14039479,1004.4498,0,0
7.48,-8.198459,5.2600370000000005,0.1924773,1004.4448,0,0
7.52,-8.193636999999999,4.7166486,-0.3567098,1004.42944,0,0
7.56,-7.6391387,5.1599374000000005,-0.49873817,1004.4067,0,0
7.6,-7.639091499999997,5.6508913,-0.053699795,1004.3941,0,0
7.64,-7.8541408,5.269566,-0.020555161,1004.40155,0,0
7.68,-8.045289,5.245732,-0.25727132,1004.3991,0,0
7.72,-8.121725,4.883472,-1.0242411,1004.3915,0,0
7.76,-8.738272,4.7643075,-0.9011423,1004.39886,0,0
7.8,-8.542032,4.993096,-1.1567757,1004.42926,0,0
7.84,-8.336447999999999,5.1408577000000015,-1.3840224,1004.414,0,0
7.88,-7.8106194,5.6651773,-1.3603456,1004.3884,0,0
7.92,-8.307665,5.2314196,-0.72119606,1004.419,0,0
7.96,-8.355414,4.9263587,-1.1804289,1004.42664,0,0
8.0,-8.594351,4.497367400000001,-0.47026318,1004.3935,0,0
8.04,-8.29795,4.8071923,-0.74485373,1004.41614,0,0
8.08,-8.646836,4.5211983,-0.3992386,1004.4339,0,0
8.12,-7.944137599999999,4.7833567000000015,-1.0099707,1004.439,0,0
8.16,-8.149622,4.835788,-0.5507291,1004.391,0,0
8.2,-8.976472,4.6689568,0.30620328,1004.4184,0,0
8.24,-8.895164999999997,4.5307255,0.1736445,1004.45123,0,0
8.28,-8.938130000000003,4.3448286,-0.75902843,1004.42596,0,0
8.32,-8.737328999999999,4.5259566,-0.14828555,1004.4335,0,0
8.36,-8.211497,4.7738166,-0.039389398,1004.4284,0,0
8.4,-8.149303,4.916812,-0.06779064,1004.40814,0,0
8.44,-7.9771800000000015,4.897744,-0.3045063,1004.4005,0,0
8.48,-8.493345,4.850077,-0.115125224,1004.41833,0,0
8.52,-8.665364,4.878675,-0.46546626,1004.446,0,0
8.56,-9.114617,4.6784787,-0.30449194,1004.42566,0,0
8.6,-8.765638000000001,4.935871,-0.47966003,1004.4304,0,0
8.64,-8.383201,4.9168043,-0.6785002,1004.4103,0,0
8.68,-8.354471,4.9072695,-0.53646344,1004.4355,0,0
8.72,-8.493032000000001,4.6689405,-0.5033178,1004.4406,0,0
8.76,-8.220530499999999,4.568841,-0.9436126,1004.4203,0,0
8.8,-8.383878,4.244736,-0.63121825,1004.4,0,0
8.84,-8.517694,4.359133,-0.03941602,1004.4607,0,0
8.88,-8.025357000000001,4.5640945,-0.49865162,1004.4251,0,0
8.92,-7.910627000000002,4.878687,-0.17197633,1004.4125,0,0
8.96,-8.469845,5.2314115,-0.11516172,1004.4149,0,0
9.0,-8.269075,5.445906,-0.29506746,1004.4276,0,0
9.04,-8.197362,5.503104,-0.8063816999999999,1004.4175,0,0
9.08,-8.546269,5.331508,-0.35661158,1004.42737,0,0
9.12,-8.474555,5.159911599999999,-0.48917323,1004.4018,0,0
9.16,-8.312025,5.074113400000001,-0.6690792,1004.42474,0,0
9.2,-7.991759299999999,5.1027117,-0.9436729,1004.39935,0,0
9.24,-8.1638155,4.9835477,-0.69748235,1004.3868,0,0
9.28,-8.173358,5.078878400000002,-0.6075271,1004.42206,0,0
9.32,-8.168561,5.0407457,-0.64066637,1004.43207,0,0
9.36,-8.173323,5.0645776,-0.50810134,1004.40924,0,0
9.4,-8.245002000000001,5.0788769999999985,-0.6880071,1004.42706,0,0
9.44,-8.029894,5.3458037,-0.635927,1004.40924,0,0
9.48,-8.096793,5.403002,-0.74008226,1004.4421,0,0
9.52,-8.053758,5.350569200000002,-0.7921592,1004.4267,0,0
9.56,-8.273612,5.1932725999999985,-0.49389017,1004.4396,0,0
9.6,-8.010705,5.326736,-0.8158281,1004.4189,0,0
9.64,-8.163642999999999,5.3076690000000015,-0.6359191999999999,1004.42896,0,0
9.68,-8.369155000000001,5.488798,-0.7495432,1004.472,0,0
9.72,-8.068009,5.2743025,-0.65958786,1004.4468,0,0
9.76,-7.699948299999999,5.274302,-0.84896255,1004.4138,0,0
9.8,-7.947151,5.23137,-0.7683544,1004.42896,0,0
9.84,-8.315128999999999,5.0979047,-0.5174247999999999,1004.4794,0,0
9.88,-8.48235,5.1551013,-0.8582953999999999,1004.45166,0,0
9.92,-8.539638499999999,5.097901,-0.23808195,1004.449,0,0
9.96,-8.539562,5.321927,-0.28068465,1004.45135,0,0
10.0,-7.746049,5.4935217000000005,-0.091302395,1004.4639,0,0
10.04,-7.4496303,5.5459523,0.25431567,1004.45135,0,0
10.08,-7.941883,5.455386,-0.29960358,1004.43085,0,0
10.12,-8.262058,5.283788,-0.47003567,1004.4131,0,0
10.16,-8.371922999999999,5.035926,-0.80143756,1004.408,0,0
10.2,-8.175889,5.0597568,-1.0286833,1004.4179,0,0
10.24,-8.132795,5.083588,-0.9103163,1004.4736,0,0
10.28,-8.19486,5.083586,-0.74460554,1004.44824,0,0
10.32,-8.127873,5.293313,-0.90083444,1004.446,0,0
10.36,-8.323774,5.2027464000000005,-0.68777966,1004.4329,0,0
10.4,-8.189874,5.2647104,-0.79666483,1004.448,0,0
10.44,-7.874336,5.126478700000002,-0.99076885,1004.438,0,0
10.48,-8.094135000000001,4.7785177,-0.8250583,1004.4533,0,0
10.52,-8.337839,4.7308507,-0.8250521999999999,1004.45306,0,0
10.56,-8.705808,4.9596434,-0.5551843000000001,1004.45264,0,0
10.6,-8.003110000000001,5.2218019999999985,-0.91972727,1004.4402,0,0
10.64,-8.084301,5.2742330000000015,-0.92445564,1004.47284,0,0
10.68,-8.289756,5.321897,-0.5977748,1004.45044,0,0
10.72,-8.304028500000001,5.1407657,-0.24268837,1004.47296,0,0
10.76,-8.074527999999999,5.17413,-0.57409024,1004.41956,0,0
10.8,-8.138083,5.1122,-0.5694855999999999,1004.42456,0,0
10.84,-7.989897999999997,5.0597672,-0.8393457000000001,1004.4423,0,0
10.88,-8.295794,5.040701,-0.5978899000000001,1004.43726,0,0
10.92,-8.204967,5.2885620000000015,-0.8346091,1004.4423,0,0
10.96,-8.472625,5.407725,-0.47005898,1004.4268,0,0
11.0,-8.138028,5.4935226,-0.3564323,1004.45184,0,0
11.04,-8.094997,5.1026645,-0.31382155,1004.43933,0,0
11.08,-7.8464375,4.9120026,-0.23807012,1004.44934,0,0
11.12,-8.075855,5.1312633000000005,-0.76832235,1004.4292,0,0
11.16,-8.353073,5.217061,-0.8393374,1004.4343,0,0
11.2,-8.271805,5.326691599999998,-0.8535395,1004.4137,0,0
11.24,-8.190536999999999,5.3648243,-0.2806756,1004.4568,0,0
11.28,-8.06147,5.4982877,-0.3232841,1004.4364,0,0
11.32,-8.123597,5.3743567,0.18803251,1004.44147,0,0
11.36,-8.051889,5.1932273,0.036532555,1004.4617,0,0
11.4,-8.396024,5.2885585,-0.15757693,1004.44904,0,0
11.44,-7.975389999999999,5.536419,-0.5268594,1004.4437,0,0
11.48,-8.214369,5.269491,-0.2475286,1004.41364,0,0
11.52,-7.765055999999999,5.054996,-0.74937445,1004.43604,0,0
11.56,-8.200007000000001,4.9167657,-0.8251238999999999,1004.43854,0,0
11.6,-8.391189,4.821434,-0.85826373,1004.413,0,0
11.64,-8.544130000000001,4.8023669999999985,-0.8819347,1004.40576,0,0
11.68,-8.166514,5.021629,-0.8203864,1004.42053,0,0
11.72,-8.142603999999999,5.164625599999999,-0.63100916,1004.4105,0,0
11.76,-8.391143,5.231357,-0.35167828,1004.4156,0,0
11.8,-8.122577,5.2647014,-0.31845537,1004.4279,0,0
11.84,-8.203787,5.212268,-0.18588774,1004.45306,0,0
11.88,-8.241978,5.288532,-0.3752596,1004.43286,0,0
11.92,-8.246715,5.217032,-0.58356935,1004.43036,0,0
11.96,-8.079374000000001,5.135999,-0.6782531999999999,1004.4301,0,0
12.0,-8.165366,5.021601,-0.40365368,1004.43787,0,0
12.04,-8.3469515,4.911968700000001,-0.3894462,1004.4275,0,0
12.08,-8.485519,4.9929996,-0.43678594,1004.4175,0,0
12.12,-8.103091000000001,5.155061,-0.29948416,1004.44495,0,0
12.16,-7.9596505,5.2837567000000005,-0.3515583,1004.44226,0,0
12.2,-8.356324,5.069261,-0.20478724,1004.42725,0,0
12.24,-8.53313,4.9071965,-0.12903248,1004.455,0,0
12.28,-8.408811,5.054958999999998,-0.058012355,1004.4448,0,0
12.32,-8.284492,5.3981495000000015,-0.498308,1004.42694,0,0
12.36,-7.906840299999999,5.507779,-0.46989715,1004.4296,0,0
12.4,-8.093202999999999,5.1931853,-0.48409587,1004.4191,0,0
12.44,-8.528121,4.9596230000000014,-0.1242771,1004.40393,0,0
12.48,-8.485059,4.749893,0.6663725,1004.4596,0,0
12.52,-8.312936,5.012053,-0.13847175,1004.4468,0,0
12.56,-8.183836999999999,5.09785,-0.17634293,1004.4315,0,0
12.6,-8.040398,5.097849,-0.40359002,1004.4139,0,0
12.64,-8.394061,4.9357843,-0.4177895,1004.4568,0,0
12.68,-8.489607000000001,4.854752,-0.640302,1004.40106,0,0
12.72,-8.50868,4.86905,-0.2426077,1004.45135,0,0
12.76,-8.159707000000001,5.2456074,0.055664092000000005,1004.46906,0,0
12.8,-7.8780017,5.302814,-0.20475599,1004.4387,0,0
12.84,-8.0930605,5.12645,-0.06272079,1004.4262,0,0
12.88,-8.269879,4.8499894,-0.20001554,1004.46906,0,0
12.92,-8.642676,4.8166223,-0.25209132,1004.4234,0,0
12.96,-8.3176155,4.9929843,-0.38938603,1004.441,0,0
13.0,-8.049911999999999,5.0740147,-0.5266805,1004.42053,0,0
13.04,-8.178933,5.150279,-0.379911,1004.4356,0,0
13.08,-8.274499,4.9596157,-0.31836092,1004.4407,0,0
13.12,-8.384402,5.059713,-0.14318493,1004.4407,0,0
13.16,-8.083241000000001,5.231308,-0.30888605,1004.44824,0,0
13.2,-8.422574000000001,5.155042,-0.44618082,1004.4227,0,0
13.24,-8.207453,5.2217730000000016,-0.48405325,1004.41254,0,0
13.28,-8.087924000000001,5.19794,-0.1999859,1004.4628,0,0
13.32,-8.025754,5.2503715,-0.02007553,1004.4351,0,0
13.36,-8.317288000000001,5.2170043,-0.081619754,1004.4302,0,0
13.4,-8.169084,5.207470400000001,-0.11949214,1004.4628,0,0
13.44,-8.16427,5.2789683,-0.2899277,1004.46265,0,0
13.48,-8.331531,5.1026044000000015,-0.2757215,1004.45746,0,0
13.52,-8.03993,5.3599977,-0.5408451,1004.4473,0,0
13.56,-8.068579,5.1502686,-0.42248216,1004.4398,0,0
13.6,-8.278853999999999,4.973905,-0.21889953,1004.41925,0,0
13.64,-8.517814,5.1026015,-0.10527104,1004.4723,0,0
13.68,-8.082819,5.2884965,-0.1904873,1004.4243,0,0
13.72,-8.03021,5.3266277,-0.029514689,1004.4722,0,0
13.76,-8.073194500000001,5.274195,-0.105262175,1004.42413,0,0
13.8,-8.268786,5.1073565,-0.005804829300000001,1004.43396,0,0
13.84,-8.412137,5.069223,-0.010535203,1004.4393,0,0
13.88,-8.335613,5.1025870000000015,-0.15729745,1004.4265,0,0
13.92,-8.30211,5.1216526,-0.06260534,1004.4339,0,0
13.96,-8.211244,5.1836160000000016,-0.12414804,1004.4135,0,0
14.0,-8.38805,4.9405212,-0.13834697,1004.45404,0,0
14.04,-8.612657,4.9548190000000005,0.11258052,1004.46375,0,0
14.08,-8.082055,5.083515599999999,-0.44607523,1004.4588,0,0
14.12,-8.407031,5.0310826,0.036838636,1004.4511,0,0
14.16,-8.172774,5.164544599999998,0.088921376,1004.4463,0,0
14.2,-8.034116000000001,5.1121116,-0.22354527,1004.4435,0,0
14.24,-8.349533000000001,5.026312,-0.14305584,1004.4459,0,0
14.28,-8.153518,5.1740746,-0.19039588,1004.43585,0,0
14.32,-8.229957,5.0835089999999985,-0.062563464,1004.4458,0,0
14.36,-7.995692299999999,5.3027697,-0.34662288,1004.42554,0,0
14.4,-8.196401,5.2122035,-0.38449413,1004.4734,0,0
14.44,-8.411441,5.012007,-0.15723814,1004.4302,0,0
14.48,-8.291905,5.031072,-0.17143762,1004.4328,0,0
14.52,-8.397015,4.983405599999998,0.1315686,1004.4328,0,0
14.56,-8.167534,5.0215364000000005,0.098432325,1004.44543,0,0
14.6,-8.004974,5.0263019999999985,-0.143018,1004.42,0,0
14.64,-8.473351,4.888071,-0.0483259,1004.4401,0,0
14.68,-8.444628,4.88807,-0.0009778291,1004.4526,0,0
14.72,-8.415899000000001,4.959567,0.022698754,1004.43225,0,0
14.76,-8.363274,5.0691967,0.10792233,1004.4245,0,0
14.8,-8.205717,5.016769,0.30675125,1004.42706,0,0
14.84,-8.215239,5.054900599999999,0.3872396,1004.41187,0,0
14.88,-8.248659,5.0358334000000005,-0.057790946,1004.42206,0,0
14.92,-8.411137,4.988167,0.0416348,1004.42957,0,0
14.96,-8.401541,5.050131,0.10318534,1004.42426,0,0
15.0,-8.267667999999999,5.221726,0.098454416,1004.4446,0,0
15.04,-8.109895,5.2646246,0.11266133,1004.43445,0,0
15.08,-8.181559,5.054895,0.26889974,1004.42413,0,0
15.12,-8.367933,4.9833956,-0.00095783174,1004.4442,0,0
15.16,-8.449150999999999,5.002461,0.060592905,1004.4394,0,0
15.2,-8.410877000000001,5.054892,-0.1193112,1004.41113,0,0
15.24,-8.128829,5.069191,-0.08616665,1004.42346,0,0
15.28,-8.109672,5.0977893,0.032196935,1004.42377,0,0
15.32,-8.238686999999999,4.9976907,-0.03408126,1004.4162,0,0
15.36,-8.511103,4.926192,-0.11456308,1004.4187,0,0
15.4,-8.338989999999999,5.0119886,0.0038007572,1004.41846,0,0
15.44,-8.343733,5.2407827000000005,0.10796088,1004.44135,0,0
15.48,-8.147723,5.2217150000000006,-0.24238156,1004.41846,0,0
15.52,-7.9803925000000016,5.174049,0.051155012,1004.43866,0,0
15.56,-8.295819999999999,5.216946599999999,-0.11928007,1004.41815,0,0
15.6,-8.324465,5.1645136,-0.9241256,1004.40814,0,0
15.64,-8.367442,5.226478,0.42044905,1004.461,0,0
15.68,-8.200114,5.283675700000001,0.7187198,1004.45593,0,0
15.72,-8.037564,5.2741413,0.28789225,1004.43317,0,0
15.76,-8.228717,5.1502104000000015,0.47253776,1004.41785,0,0
15.8,-8.257483500000001,5.135913,0.24527816,1004.4282,0,0
15.84,-8.429526,5.0215144,0.38257873,1004.4105,0,0
15.88,-8.453392,5.1502113,0.48673865,1004.4201,0,0
15.92,-8.113994,5.321806400000002,0.4251944,1004.4481,0,0
15.96,-7.7889338000000015,5.1692753,0.52935433,1004.44543,0,0
16.0,-8.142608000000001,4.9214134000000005,0.39205942,1004.43756,0,0
16.04,-8.343327,4.935713,-0.22341017,1004.41986,0,0
16.08,-8.491467,4.859447,-0.13818792,1004.4426,0,0
16.12,-8.046915,5.054875,0.04645671,1004.4426,0,0
16.16,-8.309772,5.0262747,0.06539737,1004.4349,0,0
16.2,-8.653884,5.0167413,-0.062428553,1004.42224,0,0
16.24,-8.085056,5.255068,0.2547794,1004.42474,0,0
16.28,-7.826917,5.3074994,0.21217257,1004.46,0,0
16.32,-8.414795,5.0405717,-0.11923234,1004.4396,0,0
16.36,-8.448222,4.921406299999999,0.30686694,1004.41925,0,0
16.4,-8.175742999999999,5.0787024,0.19797842,1004.47504,0,0
16.44,-8.209166999999999,5.1502,0.09382473,1004.437,0,0
16.48,-8.510261999999999,5.1930976,0.22639106,1004.4471,0,0
16.52,-8.0561495,5.2884283,0.23112829,1004.4419,0,0
16.56,-8.103916,5.0834655999999985,0.22166231,1004.4417,0,0
16.6,-8.285519,5.002434,0.108039424,1004.45435,1,1
16.64,-8.299823,4.916633999999998,0.22166835,1004.45935,1,1
16.68,-8.452744500000001,4.892801,0.07963904,1004.439,1,1
16.72,-8.376233000000001,4.921399,0.18379916,1004.449,1,1
16.76,-8.43834,5.2407580000000005,-0.08605908,1004.45154,1,1
16.8,-7.9652267,5.2407603,-0.32752174,1004.4617,1,1
16.84,-8.165956,4.926167,-0.029252138,1004.449,1,1
16.88,-8.294985,4.7641034000000015,-0.07185955,1004.4364,1,1
16.92,-8.366653,4.6354055,-0.033981603,1004.46643,1,1
16.96,-8.916303,4.592506,-0.090791896,1004.4536,1,1
17.0,-8.275783,4.859432,-0.26122808,1004.4438,1,1
17.04,-8.084563000000001,4.9070973,-0.09078695,1004.44104,1,1
17.08,-7.702151299999999,4.745034,-0.07184677,1004.44354,1,1
17.12,-8.256578999999999,4.2159452,-0.43639338,1004.44366,1,1
17.16,-8.466866,3.772655,-0.6447046999999999,1004.43835,1,1
17.2,-8.581552499999999,3.8536859,-0.6494366,1004.4484,1,1
17.24,-9.857733,4.134912,-0.20440008,1004.4635,1,1
17.28,-8.371186999999999,5.2741184,0.52470064,1004.45325,1,1
17.32,-6.86552,5.455246400000001,0.16962303,1004.4457,1,1
17.36,-10.349968,4.2064085,2.058653,1004.5158,1,1
17.4,-10.311706,4.316038,1.9544984,1004.49097,1,1
17.44,-9.116725,5.002421400000001,0.9271353,1004.4177,1,1
17.48,-9.733292,4.730727,0.9271379,1004.45544,1,1
17.52,-9.274405,4.6544620000000005,0.7093577,1004.4202,1,1
17.56,-8.060307,4.4780984,0.9555492,1004.42755,1,1
17.6,-6.9418070000000025,4.3398676,1.6373059,1004.4755,1,1
17.64,-6.616750200000001,4.439965,2.1722965,1004.46783,1,1
17.68,-6.3299379999999985,4.759323,2.0065944,1004.43005,1,1
17.72,-7.0373187,5.092982,2.110754,1004.4424,1,1
17.76,-8.528591,6.0176926,0.8135295,1004.44745,1,1
17.8,-8.417117,6.5276766,0.10824408,1004.4273,1,1
17.84,-9.172237,7.233125,0.065642565,1004.42456,1,1
17.88,-10.596535,7.080593,0.49648106,1004.48773,1,1
17.92,-9.678719,6.789831,-0.2941559,1004.44995,1,1
17.96,-9.382287,5.807918,0.44915324,1004.4521,1,1
18.0,-6.1223782999999985,5.3455606,0.7805692,1004.4545,1,1
18.04,-5.6490839999999976,4.654407,-0.9001359,1004.4318,1,1
18.08,-9.5302,3.9966204,-0.28465559999999995,1004.4495,1,1
18.12,-9.052132,3.815489,-1.6102809,1004.40894,1,1
18.16,-8.636201,4.0109157999999985,-1.8848683,1004.4242,1,1
18.2,-8.502288,3.662955,-1.6528752,1004.3989,1,1
18.24,-7.790008500000001,3.3912592000000004,-0.6775797,1004.4367,1,1
18.28,-8.009785,3.1815283,0.018386401,1004.4441,1,1
18.32,-8.301264,4.1777362999999985,-0.2372633,1004.44135,1,1
18.36,-8.745708,5.2454433,-1.169934,1004.4213,1,1
18.4,-8.779067,6.198752,-1.0515647,1004.4141,1,1
18.44,-9.448156,6.2988477,0.13677855,1004.4666,1,1
18.48,-9.199523,5.3789,0.46346006,1004.4589,1,1
18.52,-8.353392,4.544750700000002,0.22674946,1004.4058,1,1
18.56,-8.678347,4.449417,0.57236767,1004.44104,1,1
18.6,-8.453608000000001,4.4112825,-0.17566018,1004.4309,1,1
18.64,-9.256525,4.182486,0.17469388,1004.42084,1,1
18.68,-8.252684,4.5113764000000005,0.5155786,1004.4284,1,1
18.72,-7.3348727,4.2730465,0.7901823,1004.45874,1,1
18.76,-7.8414207,3.8345203,0.539269,1004.4434,1,1
18.8,-7.4890985,4.582903400000001,0.7663938,1004.4409,1,1
18.84,-8.645783999999999,5.4265833,0.91316277,1004.451,1,1
18.88,-7.1305485,6.594389,-0.68232816,1004.3879,1,1
18.92,-7.503342999999999,6.1844645,-0.39352667,1004.4056,1,1
18.96,-9.171472,6.027167,0.771139,1004.4659,1,1
19.0,-9.157102,6.1367974,-0.29883367,1004.4306,1,1
19.04,-10.098687,4.9880567000000005,0.66225374,1004.43536,1,1
19.08,-8.397046000000001,3.996612,0.4823492,1004.448,1,1
19.12,-7.1638246,4.244472,-0.34143427,1004.4,1,1
19.16,-8.750691999999999,4.4256005,-1.6433932,1004.4428,1,1
19.2,-10.146363,3.5819193999999994,-2.2257216,1004.4203,1,1
19.24,-8.937042,2.9813323,-1.5486993999999998,1004.4072,1,1
19.28,-8.090996,2.6762724,-0.7296454000000001,1004.4426,1,1
19.32,-7.096759,2.356912,-0.18518537,1004.4552,1,1
19.36,-8.004893,2.5046747000000003,-0.18044834,1004.45294,1,1
19.4,-8.473283,3.5390162000000003,-1.1320609,1004.42474,1,1
19.44,-8.205591,4.9308505,-2.703881,1004.4149,1,1
19.48,-10.265649,5.5981674,0.63861203,1004.48254,1,1
19.52,-8.750428,5.8412614000000005,-0.672816,1004.42957,1,1
19.56,-9.964466,4.7544856,-1.1509878999999998,1004.40186,1,1
19.6,-11.307564,3.8726723,0.5912755000000001,1004.42194,1,1
19.64,-8.186316,3.3006845,0.37349615,1004.42694,1,1
19.68,-9.390801,3.2005866000000003,1.4671459,1004.45215,1,1
19.72,-9.233032,3.3674147000000003,0.117843896,1004.41693,1,1
19.76,-9.113509,4.029965,-0.2893123,1004.4245,1,1
19.8,-8.774239,4.597188,1.3866581,1004.4495,1,1
19.84,-6.857517,4.3731589999999985,0.8516723,1004.4419,1,1
19.88,-7.163394500000001,3.863137,0.20779605,1004.4243,1,1
19.92,-7.9185796,3.6248085,-0.076266065,1004.42413,1,1
19.96,-8.841059,4.139596,1.3251196,1004.482,1,1
20.0,-8.592478999999999,5.3550677,-0.009979591,1004.44916,1,1
20.04,-8.606794,5.6982584,-1.3450797,1004.40643,1,1
20.08,-9.76348,5.593394,-0.2656328,1004.4265,1,1
20.12,-8.439453,5.826955,-0.7106648,1004.43604,1,1
20.16,-9.887705,4.6686807,-0.07151772,1004.4239,1,1
20.2,-8.840905000000003,3.5437727,-0.20407888,1004.44617,1,1
20.24,-9.414464,2.9241202,0.3687857,1004.44135,1,1
20.28,-8.630543,3.7725663,-0.74853075,1004.42096,1,1
20.32,-9.52912,3.6295686,-1.5817838,1004.38574,1,1
20.36,-10.733607,3.110014,-0.8526831,1004.4083,1,1
20.4,-9.686813,3.2291772,-0.8621504000000001,1004.4031,1,1
20.44,-6.2405415,3.5294695,0.0847336,1004.38776,1,1
20.48,-6.7662960000000005,3.3769388,0.6670676,1004.4332,1,1
20.52,-7.9277716,3.262541,0.58184993,1004.42804,1,1
20.56,-8.195408,4.053789,-1.2598307,1004.38293,1,1
20.6,-8.754621,4.7640047,-1.0657177,1004.4053,1,1
20.64,-8.998362,5.4170227,-0.9757616,1004.42566,1,1
20.68,-9.050917,5.1929940000000006,-1.3781838,1004.4027,1,1
20.72,-10.833759,4.5161424000000014,-1.326103,1004.4078,1,1
20.76,-9.911231,4.4541764000000015,-1.3071631,1004.4027,1,1
20.8,-8.08462,4.497058,-0.20398046,1004.44293,1,1
20.84,-7.754781200000001,4.3492937000000005,0.42096406,1004.47076,1,1
20.88,-7.965036,3.8678703,0.0138104055,1004.4479,1,1
20.92,-9.547088,4.0632977,0.37363097,1004.4403,1,1
20.96,-10.268788,4.6829480000000006,0.98437375,1004.43,1,1
21.0,-7.8119226,5.326432,-0.5116939,1004.3924,1,1
21.04,-7.572872,4.8926744000000015,-0.38859388,1004.4377,1,1
21.08,-6.8606253,5.6839213,0.9133726,1004.4096,1,1
21.12,-5.713425599999999,6.2273073,0.35945153,1004.4296,1,1
21.16,-6.9178796,5.950846,-0.042967696,1004.40466,1,1
21.2,-8.638558,5.5552206,0.10853782,1004.4273,1,1
21.24,-10.1632595,4.8164024,-0.89988524,1004.41205,1,1
21.28,-10.034155,5.088095,0.6388009,1004.45996,1,1
21.32,-6.9654813,6.098604,-0.91881454,1004.3969,1,1
21.36,-7.538991,5.7792435,-0.67261946,1004.4268,1,1
21.4,-7.768375,5.0833254,-1.5484802,1004.40674,1,1
21.44,-9.555964,3.7963533,-1.7520542,1004.3916,1,1
21.48,-10.516656,4.001314,-0.94720083,1004.42194,1,1
21.52,-8.513862,4.792561,-1.0418838,1004.42944,1,1
21.56,-7.1898054999999985,5.4884768,-1.425366,1004.4067,1,1
21.6,-7.4239625999999985,5.4169769999999975,-0.7672789000000001,1004.43427,0,0
21.64,-7.615104700000002,4.825923,-0.6536486,1004.4088,0,0
21.68,-8.991635,4.9975176,-0.8808951999999999,1004.4191,0,0
21.72,-10.2247715,5.088081,-0.65837324,1004.4392,0,0
21.76,-8.633042999999999,5.0594807,-1.1460122,1004.4064,0,0
21.8,-8.017729,5.135777,-0.4217653,1004.4165,0,0
21.84,-7.372455,4.964181,-0.02880973,1004.42664,0,0
21.88,-7.24818,4.845017,-0.14716986,1004.41644,0,0
21.92,-8.524386999999999,4.70202,-0.07615380000000001,1004.4391,0,0
21.96,-8.581745,5.016613,-0.5448599000000001,1004.4089,0,0
22.0,-8.247158,5.274007,-1.0183004,1004.4242,0,0
22.04,-8.505268,5.3550385999999985,-0.44070294,1004.44403,0,0
22.08,-7.898233,5.45037,-0.07615380000000001,1004.4162,0,0
22.12,-7.793077499999999,5.3931713,-0.4927814,1004.4162,0,0
22.16,-7.7739587,5.5171013,-0.3081396,1004.41364,0,0
22.2,-8.333196000000001,5.607666,-0.5164534000000001,1004.4287,0,0
22.24,-7.6353445,5.5600004,-0.5874695,1004.4288,0,0
22.28,-8.032067999999999,5.383638,-0.07615380000000001,1004.4338,0,0
22.32,-8.361875,5.15961,-0.061950568,1004.4187,0,0
22.36,-8.304517,5.2692404,-0.019340944,1004.4338,0,0
22.4,-7.8695545,5.488502,-0.26079556,1004.3958,0,0
22.44,-7.8838935,5.5361676,-0.13296665,1004.42615,0,0
22.48,-8.122885,5.45037,-0.76264244,1004.3983,0,0
22.52,-8.5721855,5.4265366,-0.582735,1004.4086,0,0
22.56,-7.984269999999999,5.531401,-0.6821576,1004.4237,0,0
22.6,-8.094205,5.512335,-0.04774737,1004.4236,0,0
22.64,-8.271058,5.2787739999999985,0.23158251,1004.4286,0,0
22.68,-8.098985,4.9546475,0.47303715,1004.4212,0,0
22.72,-7.912573299999999,5.0547457,-0.043012958,1004.42065,0,0
22.76,-8.299737,4.9689474,-0.6632199000000001,1004.4009,0,0
22.8,-8.164764,5.0308847000000005,-1.1602283000000002,1004.4109,0,0
22.84,-8.0643425,5.1309809999999985,-0.7625341,1004.45123,0,0
22.88,-8.351082,5.088081,-0.23701073,1004.4311,0,0
22.92,-8.547014,4.8878846,-0.46899295,1004.4056,0,0
22.96,-8.460932000000001,5.1786437,-0.23700292,1004.41327,0,0
23.0,-7.877751400000001,5.502768,-0.37903088,1004.393,0,0
23.04,-8.183612,5.7315616999999985,-0.26066658,1004.4635,0,0
23.08,-8.054511999999999,5.6123967000000015,-0.31747526,1004.41327,0,0
23.12,-8.121381,5.13574,-0.6110039,1004.3932,0,0
23.16,-8.365110000000001,4.7734804,-0.41688964,1004.43604,0,0
23.2,-8.441542,4.554218,-0.19436845,1004.43335,0,0
23.24,-8.365019,4.835444,-0.25591153,1004.4158,0,0
23.28,-8.355414,4.9069405,0.032891348,1004.41565,0,0
23.32,-8.097261,5.1071353,-0.34585708,1004.41815,0,0
23.36,-8.250169999999999,4.945071,-0.40266576,1004.39044,0,0
23.4,-8.340943,4.844972599999998,-0.78614867,1004.4003,0,0
23.44,-8.541647,4.7353406,-0.6535809,1004.41583,0,0
23.48,-8.164,4.911702,0.047114957,1004.42804,0,0
23.52,-8.479421,4.9498334,-0.17066352,1004.42834,0,0
23.56,-8.240388000000001,5.092829,-1.1222749,1004.3955,0,0
23.6,-8.4171915,4.973664,-0.24167119,1004.44086,0,0
23.64,-8.488843,4.864032,0.061334886,1004.41815,0,0
23.68,-8.617855,4.8306646,-0.25113192,1004.4254,0,0
23.72,-8.546111999999999,4.7543989999999985,-0.5446608000000001,1004.4179,0,0
23.76,-8.125446,4.7400985,-0.41209352,1004.40533,0,0
23.8,-8.581128999999999,4.7020054,-0.41697454,1004.42316,0,0
23.84,-8.657625999999999,4.492277,-0.43591404,1004.413,0,0
23.88,-8.361298,4.787803599999998,-0.4453846,1004.44574,0,0
23.92,-8.399555,4.8164034,-0.39330786,1004.4306,0,0
23.96,-8.337437,4.84977,-0.79099953,1004.418,0,0
24.0,-8.54777,4.8164042999999985,-0.40278035,1004.4177,0,0
24.04,-8.375717,4.992768,-0.57322085,1004.42303,0,0
24.08,-8.06505,4.9260364,-0.7105204,1004.42053,0,0
24.12,-8.342298,4.992769,-0.53534913,1004.43317,0,0
24.16,-8.672125,4.649577,-0.23234911,1004.43567,0,0
24.2,-8.528749000000001,4.7115426,-0.2560229,1004.45605,0,0
24.24,-8.466632,4.7210765,-0.68212116,1004.40295,0,0
24.28,-7.9886723,5.0928683,-0.57796615,1004.4152,0,0
24.32,-8.361517999999998,4.921273,-0.6442496999999999,1004.43054,0,0
24.36,-8.442793,4.7973433,-0.6347826,1004.4281,0,0
24.4,-8.667464,4.582848,-0.3365171,1004.4331,0,0
24.44,-8.2851,4.868842,-0.7247399999999999,1004.4302,0,0
24.48,-8.562348,4.9784739999999985,-0.44067755,1004.4382,0,0
24.52,-8.065269,5.0499725,-0.7484156999999999,1004.4102,0,0
24.56,-8.55283,4.8116455,-1.0845604,1004.4331,0,0
24.6,-8.4811535,4.6638827,-0.96620196,1004.4227,0,0
24.64,-8.442931,4.7115483,-0.3838719,1004.4176,0,0
24.68,-8.304339,4.8402457000000005,-0.398077,1004.4331,0,0
24.72,-8.423853999999999,4.8307133,-0.53064215,1004.45044,0,0
24.76,-8.160983,5.0261426,-0.36493975,1004.4226,0,0
24.8,-8.374926,4.92125,-0.6631020000000001,1004.4099,0,0
24.84,-8.432258000000001,4.9546156,-0.64889646,1004.4151,0,0
24.88,-8.312736,4.873583999999999,-0.6299564999999999,1004.4253,0,0
24.92,-8.327048,4.9927464000000015,-0.83353335,1004.40753,0,0
24.96,-8.350921000000001,5.026111599999999,-0.786187,1004.4201,0,0
25.0,-8.121466,5.088076,-0.71990293,1004.44775,0,0
25.04,-8.436906,4.9546123,-0.8051198,1004.4227,0,0
25.08,-8.46078,4.7496495,-0.74830467,1004.4099,0,0
25.12,-8.436853999999999,4.797314599999999,-0.4453003,1004.42523,0,0
25.16,-8.594559,4.897412,-0.89980066,1004.4378,0,0
25.2,-8.1356735,5.2739687,-0.7625005,1004.4429,0,0
25.24,-7.762822,5.2978005,-0.5021059,1004.4253,0,0
25.28,-8.279014,5.02134,-0.3695401,1004.4125,0,0
25.32,-8.670932,4.654315,-0.42635053,1004.43506,0,0
25.36,-8.207266,4.7830114,-0.6630684,1004.4454,0,0
25.4,-8.546605,4.8688083,-0.7009411999999999,1004.4352,0,0
25.44,-8.188095,5.111902,-0.8619087999999999,1004.3946,0,0
25.48,-8.4461775,5.0022707,-0.5162948,1004.4378,0,0
25.52,-8.216719,5.021336,-0.84770054,1004.4149,0,0
25.56,-8.584739,4.7830076,-0.78615105,1004.4202,0,0
25.6,-8.345722,4.9164705,-0.4878810000000001,1004.4577,0,0
25.64,-8.278779,4.93077,-0.3553154000000001,1004.4376,0,0
25.68,-8.479505,5.007034,-0.4973451,1004.42236,0,0
25.72,-8.101874,5.2596607,-0.20854403,1004.45514,0,0
25.76,-7.958452999999999,5.1976953,-1.0275937,1004.43,0,0
25.8,-8.655707000000001,4.7734566,-0.76241225,1004.405,0,0
25.84,-8.593523,4.802055,-0.21795146,1004.41986,0,0
25.88,-8.211094000000001,5.0451484,-0.1611344,1004.4275,0,0
25.92,-8.048533,4.9927154,-0.9281036,1004.4048,0,0
25.96,-8.550361,4.8115845,-0.70084745,1004.4328,0,0
26.0,-8.057992,4.935514,-0.57301396,1004.42487,0,0
26.04,-8.55982,4.730551,-0.3741645,1004.4073,0,0
26.08,-8.335123,4.902146,-0.76238143,1004.44775,0,0
26.12,-8.000488,5.045141,-0.8712681999999999,1004.43994,0,0
26.16,-8.502317,5.102339,-0.8759979999999999,1004.4149,0,0
26.2,-8.033847999999999,5.164303,-1.1647922,1004.4251,0,0
26.24,-8.483102,4.8783080000000005,-0.7813011999999999,1004.40674,0,0
26.28,-8.373117,4.9212055,-0.81443745,1004.4324,0,0
26.32,-8.239234,4.992703,-0.8286363000000001,1004.40466,0,0
26.36,-8.062334,4.897371,-0.95172656,1004.4298,0,0
26.4,-8.43989,4.6209087,-1.1316293,1004.4176,0,0
26.44,-8.611917,4.678107,-1.0416714,1004.4324,0,0
26.48,-8.239042,4.9259667,-1.089011,1004.40924,0,0
26.52,-8.353708000000001,4.8449339999999985,-1.0605999,1004.42737,0,0
26.56,-8.205482,4.873532,-0.9280318,1004.4399,0,0
26.6,-8.606941,4.644736,-0.5871506999999999,1004.44257,0,0
26.64,-8.539972,4.9021287,-0.7907253000000001,1004.40924,0,0
26.68,-8.033267,5.126156,-0.98483163,1004.45264,0,0
26.72,-8.109694500000002,4.9736247,-1.193141,1004.4198,0,0
26.76,-8.731019,4.85446,-0.55872625,1004.45245,0,0
26.8,-8.107061,4.959378,-0.90453875,1004.4299,0,0
26.84,-8.188354499999999,5.021343700000001,-0.8666669,1004.42944,0,0
26.88,-8.34135,4.8306822999999985,-0.95662445,1004.4042,0,0
26.92,-8.150196000000001,4.778251,-0.85720533,1004.4194,0,0
26.96,-8.585198,4.706754,-1.0418509,1004.43713,0,0
27.0,-8.5565605,4.740121,-1.1696836000000002,1004.4017,0,0
27.04,-8.054719,4.9498506,-0.80987227,1004.4044,0,0
27.08,-8.470605,5.0833154,-0.7199225,1004.4017,0,0
27.12,-8.4324045,5.2549124,-0.3979865,1004.44714,0,0
27.16,-8.231693,5.1452827,-0.9519156,1004.41437,0,0
27.2,-8.647577,5.154816,-0.54476047,1004.41437,0,0
27.24,-8.031021,5.0594864,-0.6347176999999999,1004.4194,0,0
27.28,-8.432561999999999,5.364547,-0.18968709,1004.41174,0,0
27.32,-7.8972697,5.1786523,-0.92825836,1004.41425,0,0
27.36,-7.811271700000002,5.1643534,-0.8146361999999999,1004.41187,0,0
27.4,-8.231935,4.954626,-0.25598013,1004.4621,0,0
27.44,-8.566562,5.016592,-0.398016,1004.432,0,0
27.48,-8.365848,5.1262235999999985,-0.5353171999999999,1004.41187,0,0
27.52,-8.016963,5.2787547,-0.36488238,1004.4017,0,0
27.56,-8.270333,5.1166925,-0.23232274,1004.4192,0,0
27.6,-8.193892,5.011829,-0.37909257,1004.38385,0,0
27.64,-8.236953,5.1834264,-0.39803416,1004.4293,0,0
27.68,-8.217872,5.159595,-0.648961,1004.4141,0,0
27.72,-8.624198,5.0356655,-0.4832608,1004.42413,0,0
27.76,-8.29921,5.116698,-0.5921556,1004.4467,0,0
27.8,-8.044658,5.1405,-0.29851055,1004.4395,0,0
27.84,-7.8677936,5.3549953000000015,-0.54943305,1004.4267,0,0
27.88,-8.23105,4.8926387,-0.58257306,1004.38605,0,0
27.92,-8.69468,4.625712,-0.6441194,1004.44934,0,0
27.96,-8.403102,4.954604,-0.5778368,1004.4468,0,0
28.0,-7.9155526,5.1261997,-0.9423851,1004.4166,0,0
28.04,-8.216669,4.8831042999999985,-0.62044454,1004.4317,0,0
28.08,-8.46521,4.783007,-0.4736771,1004.44904,0,0
28.12,-8.71853,4.6066437,-0.29376888,1004.42163,0,0
28.16,-8.379152000000001,5.088066,-0.7245988,1004.4112,0,0
28.2,-8.379143,5.1786304,-0.9423806,1004.4191,0,0
28.24,-7.862916,5.2167625,-0.20854692,1004.42615,0,0
28.28,-8.154472,4.9784346,0.12286241,1004.4666,0,0
28.32,-8.532066,4.792539,-0.22274818,1004.4213,0,0
28.36,-8.675450999999999,4.8640366,-0.5162805,1004.44147,0,0
28.4,-8.431671000000001,4.9975,-0.4594666,1004.4187,0,0
28.44,-8.412542,4.8354370000000015,-0.50207543,1004.4137,0,0
28.48,-8.326495,4.6018753,-0.3174327,1004.4415,0,0
28.52,-8.369505,4.692439599999998,-0.19433732,1004.4364,0,0
28.56,-8.46031,4.8116035,-0.73879284,1004.4138,0,0
28.6,-8.512877,5.097596599999998,-0.9092305,1004.4111,0,0
28.64,-8.178282000000001,4.9450665,-0.65357167,1004.44147,0,0
28.68,-8.369463,4.6876717,-0.7340555999999999,1004.42365,0,0
28.72,-8.531967,4.4112114999999985,-0.3316304,1004.44147,0,0
28.76,-8.694469999999999,4.4016785999999986,-0.16592537,1004.449,0,0
28.8,-8.345535,4.902167,-0.77192813,1004.41113,0,0
28.84,-8.20691,5.2358255,-0.4263157,1004.4388,0,0
28.88,-8.2355795,5.235825,-0.51626855,1004.42615,0,0
28.92,-8.488899,5.0880613,-0.7813941999999999,1004.4211,0,0
28.96,-8.369392999999999,4.844967400000002,-0.7577213,1004.4209,0,0
29.0,-8.101716,4.844967,-0.66303235,1004.42834,0,0
29.04,-8.584466,4.892632,-0.55887455,1004.4387,0,0
29.08,-8.082577,4.9641304,-0.81926596,1004.44885,0,0
29.12,-8.3884735,4.864032,-0.8808121999999999,1004.4259,0,0
29.16,-8.570096000000001,4.6590695,-0.83346725,1004.43365,0,0
29.2,-8.584425,4.4922404,-1.2406251,1004.4362,0,0
29.24,-8.861644,4.3492435999999985,-1.0938578,1004.42334,0,0
29.28,-8.780378,4.2300787,-0.9612935,1004.4309,0,0
29.32,-8.168552,4.5208387000000005,-1.1459345,1004.43335,0,0
29.36,-8.412312,4.535138,-0.50205433,1004.436,0,0
29.4,-8.182872,4.60187,-1.0228381,1004.4231,0,0
29.44,-8.440936,4.4016733,-1.0796468,1004.4158,0,0
29.48,-8.823311,4.3206415,-0.98969203,1004.4335,0,0
29.52,-8.426575,4.5828013,-0.90920615,1004.446,0,0
29.56,-8.894984,4.5208364,-1.1601286,1004.4384,0,0
29.6,-8.431334,4.6733656,-0.99915785,1004.42834,0,0
29.64,-8.278369,4.635233,-0.8760623,1004.4686,0,0
29.68,-8.708542,4.4350375999999985,-0.7813733,1004.4409,0,0
29.72,-8.875822,4.3063397000000005,-0.80030996,1004.4485,0,0
29.76,-8.431291,4.215775,-0.719824,1004.451,0,0
29.8,-7.9771990000000015,4.234842,-0.87605834,1004.3652,0,0
29.84,-8.445608,4.4159703000000015,-0.9470735,1004.3904,0,0
29.88,-8.311763000000001,5.0308557,-1.0985733999999998,1004.42084,0,0
29.92,-8.727594,5.383581,-1.1648542,1004.44824,0,0
29.96,-8.197026,5.68864,-1.4536519,1004.446,0,0
30.0,-8.048841,5.84117,-0.83344376,1004.4055,0,0
30.04,-7.441796000000001,5.407413,-0.74822354,1004.42816,0,0
30.08,-7.6377573,5.126185400000002,-1.2406007,1004.4382,0,0
30.12,-8.416853,4.997488,-1.2121931,1004.4359,0,0
30.16,-8.794447,5.2024503,-1.548335,1004.4003,0,0
30.2,-8.474191000000001,5.6076074,-1.3542235,1004.4309,0,0
30.24,-8.330785,5.645739,-0.43574786,1004.45575,0,0
30.28,-8.287755,5.3311462,-0.51149744,1004.45605,0,0
30.32,-8.426358,5.107117700000001,-0.75295085,1004.413,0,0
30.36,-8.741814999999999,5.0499187,-0.061726924,1004.43567,0,0
30.4,-8.058292999999999,5.0308523,-1.2263895,1004.4409,0,0
30.44,-8.005856,4.8687925000000005,-1.6572332,1004.40826,0,0
30.48,-7.766858999999997,4.825894,-1.2121986,1004.4334,0,0
30.52,-7.518306,4.7496285,-1.5578098,1004.4158,0,0
30.56,-8.354766,4.5351339999999984,-1.1979946,1004.45325,0,0
30.6,-8.407339,4.6685967,-0.9186641,1004.4309,0,0
30.64,-8.120545,4.711496,-0.909195,1004.446,0,0
30.68,-8.493364999999999,4.5827985,-1.1885245,1004.4259,0,0
30.72,-9.124294,4.430269,-1.3921034,1004.4309,0,0
30.76,-9.08605,4.6495304000000015,-1.0417569,1004.44354,0,0
30.8,-8.741899499999999,5.0260878,-0.76242656,1004.44073,0,0
30.84,-7.981907,5.145251999999998,-0.58251876,1004.4281,0,0
30.88,-7.169335,5.21675,-1.3305542,1004.41296,0,0
30.92,-8.163528999999999,4.7162614000000005,-1.2879442,1004.4385,0,0
30.96,-8.631945,4.354003,-1.3589598,1004.46356,0,0
31.0,-9.028663,3.9774454,-1.0464886,1004.43304,0,0
31.04,-8.813568,4.158574,-1.2405988,1004.413,0,0
31.08,-8.397719,4.659062400000002,-0.9707373,1004.43304,0,0
31.12,-7.9197345,5.283481,-0.64406276,1004.44324,0,0
31.16,-7.981867,5.2405825,-0.75768805,1004.4309,0,0
31.2,-8.096577,5.145251,-0.8807821,1004.418,0,0
31.24,-8.698825999999999,4.797292,-0.85710955,1004.4407,0,0
31.28,-8.48851,4.840191,-1.065423,1004.40796,0,0
31.32,-8.120461,4.7067275,-1.197986,1004.4356,0,0
31.36,-8.321207000000001,4.7782254,-0.6345913000000001,1004.4457,0,0
31.4,-8.211267,4.9212217,-0.52569944,1004.4558,0,0
31.44,-8.19647,5.121406,-0.66295534,1004.4507,0,0
31.48,-8.502355,5.111872,-0.7813134,1004.4329,0,0
31.52,-8.000455,5.3216004,-0.73396736,1004.4251,0,0
31.56,-8.124706,5.3358994000000015,-1.0417017,1004.4354,0,0
31.6,-8.052987,5.3406660000000015,-0.8807298000000001,1004.438,0,0
31.64,-8.516605,5.097571,-0.55405384,1004.43286,0,0
31.68,-7.938228,5.2310333,-0.61559904,1004.4203,0,0
31.72,-8.08638,5.3549643,-0.44989297,1004.4304,0,0
31.76,-8.24887,5.1595345,-0.7528927,1004.41785,0,0
31.8,-7.9142613,5.1928997,-0.9043916,1004.3798,0,0
31.84,-8.229705000000001,5.269164,-0.7954982,1004.42535,0,0
31.88,-8.54037,5.264397,-0.48775983,1004.4306,0,0
31.92,-8.043248,5.178598,-0.35992882,1004.43286,0,0
31.96,-8.129261,5.0451345000000005,-0.17528495,1004.4379,0,0
32.0,-8.191378,5.0308337,-0.23683025,1004.44525,0,0
32.04,-8.248713,5.2024293,-0.4640795,1004.415,0,0
32.08,-8.215232,5.2643943,-0.6960635000000001,1004.4529,0,0
32.12,-8.315584,5.364491,-0.6439826999999999,1004.47546,0,0
32.16,-8.153045,5.2262607,0.018836198,1004.4022,0,0
32.2,-7.9666142,5.154762,0.16087006,1004.4175,0,0
32.24,-8.181682,5.006997599999999,-0.12792654,1004.4427,0,0
32.28,-8.540147,4.902133,-0.88542926,1004.38983,0,0
32.32,-8.368051,4.9021325,-0.5492845000000001,1004.4476,0,0
32.36,-8.258092,5.14046,-0.5824232,1004.4047,0,0
32.4,-8.215050999999999,5.0546618,-0.47352982,1004.44257,0,0
32.44,-8.225752,5.1547866,-0.23217963,1004.45496,0,0
32.48,-8.149298,5.121422,-0.37421384,1004.4702,0,0
32.52,-8.311831,5.111889,-0.20377728,1004.4827,0,0
32.56,-8.297514999999999,5.021325,-0.5115157,1004.43994,0,0
32.6,-8.598664999999999,5.0308585,-0.51151776,1004.44495,0,0
32.64,-8.010776,5.1071243,-0.41209757,1004.46,0,0
32.68,-8.187648,5.1118913,-0.5636004,1004.4298,0,0
32.72,-8.087294,5.116658,-0.91394824,1004.47504,0,0
32.76,-8.350205,5.1309586,-0.17064884,1004.46497,0,0
32.8,-8.264191,5.10236,0.042397395,1004.4675,0,0
32.84,-8.159058,5.183391599999998,-0.11857444,1004.4222,0,0
32.88,-8.168645,5.3311553,-0.22746821,1004.4424,0,0
32.92,-8.0252695,5.2834907,-0.66303515,1004.46497,0,0
32.96,-8.331199,5.3168573,-0.5020674,1004.42474,0,0
33.0,-8.29298,5.188160400000001,-0.2937555,1004.44714,0,0
33.04,-8.235650999999999,5.026098,-0.10911623,1004.4342,0,0
33.08,-8.063597999999999,5.2024612,-0.09491485,1004.4672,0,0
33.12,-8.058841000000001,5.326392,-0.5162789000000001,1004.4493,0,0
33.16,-8.001505,5.407424400000001,-0.48314005,1004.4371,0,0
33.2,-8.336113000000001,5.1309643,-0.40265724,1004.42944,0,0
33.24,-8.216638,5.211997,-0.3411118,1004.4493,0,0
33.28,-8.101948,5.2119975,-0.31270766,1004.4342,0,0
33.32,-8.015933,5.283496,-0.3931945,1004.46686,0,0
33.36,-8.336203999999999,4.9689035000000015,-0.15174207,1004.46185,0,0
33.4,-8.317107,5.021336,-0.53523093,1004.4543,0,0
33.44,-8.296427,5.0498977,-0.53508806,1004.44934,0,0
33.48,-7.928342999999999,5.273925,-0.459334,1004.43677,0,0
33.52,-8.258115,5.340656,-0.5019405,1004.4946,0,0
33.56,-8.090782,5.3025227,-0.7102507,1004.4594,0,0
33.6,-8.200676,4.9545627,-0.40724492,1004.467,0,0
33.64,-8.214975,4.9354954000000015,-0.5303358,1004.4593,0,0
33.68,-8.243618,5.002227,-0.44037881,1004.472,0,0
33.72,-8.320058,5.073724,-0.56820434,1004.4644,0,0
33.76,-8.329578,5.1499877,-0.6770921,1004.44147,0,0
33.8,-8.343877,5.1642866,-0.6912914000000001,1004.45404,0,0
33.84,-8.133529,5.292982599999998,-0.5776624,1004.4641,0,0
33.88,-8.076131,5.1213856,-0.35040733,1004.4487,0,0
33.92,-8.238605,5.0832524,-0.41195098,1004.43115,0,0
33.96,-8.520574,5.0165195,-0.6155268,1004.43854,0,0
34.0,-8.19073,5.164282,-0.61552346,1004.43835,0,0
34.04,-7.894343400000001,5.1547475,-0.6391919,1004.44086,0,0
34.08,-8.200211,5.0165167,-0.62498504,1004.4536,0,0
34.12,-8.362685,5.064181,-0.549231,1004.4284,0,0
34.16,-8.238374,5.097546,-0.5776340999999999,1004.44324,0,0
34.2,-8.453425,5.078479,-0.5160832000000001,1004.44574,0,0
34.24,-7.989746,5.2453074,-0.38825065,1004.4558,0,0
34.28,-8.080524,5.3025055,-0.6297019,1004.4484,0,0
34.32,-7.817597,5.3215704000000015,-0.91376257,1004.4178,0,0
34.36,-8.295537,4.964078,-0.8664149,1004.45593,0,0
34.4,-8.338516,4.897345,-0.9895058,1004.4509,0,0
34.44,-8.616869,4.883073,-0.7055445,1004.4456,0,0
34.48,-8.181913,5.059435400000001,-0.6061226,1004.443,0,0
34.52,-8.138900999999999,5.1118674,-0.64399827,1004.443,0,0
34.56,-8.052871000000001,5.235799,-0.9659384,1004.44794,0,0
34.6,-8.148473,5.278698,-0.72921866,1004.4353,0,0
34.64,-8.138919,5.2643986,-0.9233299,1004.44525,0,0
34.68,-8.181944,5.0928025,-0.66767263,1004.4277,0,0
34.72,-8.282327,5.1023355000000015,-0.60612607,1004.4529,0,0
34.76,-8.545221000000002,5.0785027000000005,-0.7008146,1004.4529,0,0
34.8,-7.933414,5.188134,-0.66294,1004.4328,0,0
34.84,-8.000337,5.035604,-0.49723637,1004.4577,0,0
34.88,-8.511783,5.097569999999998,-0.5729875,1004.46796,0,0
34.92,-8.287138,5.007005,-0.8712556,1004.45795,0,0
34.96,-8.234567,5.1118693,-0.6724111999999999,1004.4454,0,0
35.0,-8.05294,5.1547684999999985,-0.68188053,1004.46014,0,0
35.04,-8.306275999999999,5.035605,-0.8049755999999999,1004.4426,0,0
35.08,-8.530930999999999,4.9402742,-0.6061310000000001,1004.43475,0,0
35.12,-8.201132000000001,5.054672,-0.61086607,1004.4527,0,0
35.16,-8.397112,4.959340599999999,-0.6203356,1004.4501,0,0
35.2,-8.162908,4.978407,-0.79077464,1004.43475,0,0
35.24,-8.416242,4.897375599999998,-0.69608706,1004.4446,0,0
35.28,-8.210718,5.0070066,-0.7244941999999999,1004.4524,0,0
35.32,-8.521411,4.911676,-0.76237,1004.45233,0,0
35.36,-8.535756,4.9545746,-0.4830407,1004.41943,0,0
35.4,-8.215514,5.054673,-0.4451658,1004.4191,0,0
35.44,-8.018097000000001,5.1166024000000006,-0.719629,1004.4596,0,0
35.48,-8.443436,4.835374,-0.7196232,1004.4471,0,0
35.52,-8.672816000000001,4.711442,-0.60125846,1004.4393,0,0
35.56,-8.472016,4.759107,-0.7953646,1004.4394,0,0
35.6,-8.242548,4.9974337,-0.58231294,1004.447,0,0
35.64,-8.266386,4.906867,-0.729074,1004.45215,0,0
35.68,-8.266345,4.911633,-0.7716799,1004.4262,0,0
35.72,-8.69647,4.7066693,-0.7811435,1004.4213,0,0
35.76,-8.366610000000001,4.7829337,-0.8237481,1004.4466,0,0
35.8,-8.729827,4.635168599999999,-0.59175795,1004.4315,0,0
35.84,-8.6485195,4.716199400000002,-0.49233085,1004.4288,0,0
35.88,-7.8454633,5.026024,-0.9136882,1004.41614,0,0
35.92,-7.759388,5.0212564,-0.7574494,1004.44135,0,0
35.96,-8.562334,4.8591924,-0.5680677,1004.4312,0,0
36.0,-8.452344,4.878257,-0.89947104,1004.44135,0,0
36.04,-8.442747,4.954521,-0.5017775999999999,1004.4413,0,0
36.08,-8.246727,5.054618,-0.56805485,1004.45135,0,0
36.12,-8.012458,5.121348,-0.5964558000000001,1004.42847,0,0
36.16,-8.213161,5.0355487,-0.62012345,1004.43866,0,0
36.2,-8.418652999999999,4.978349,-0.6816669,1004.4261,0,0
36.24,-8.475946,5.064145,-0.7716148,1004.43317,0,0
36.28,-8.217792,5.3978033,-0.9704558,1004.4309,0,0
36.32,-8.122142,5.2023735,-1.0414668,1004.451,0,0
36.36,-8.160333999999999,4.9306784000000015,-0.82367986,1004.45605,0,0
36.4,-8.347945,4.682846499999999,-0.31720853,1004.4686,0,0
36.44,-8.572596,4.935474,-0.3882246,1004.4279,0,0
36.48,-8.395743,5.145203,-0.7243674,1004.42285,0,0
36.52,-7.8986444,5.288199400000001,-0.66282004,1004.4659,0,0
36.56,-7.956002000000002,5.068938,-0.3503493,1004.45807,0,0
36.6,-8.596496,4.840143,-0.814321,1004.4432,0,0
36.64,-8.204552,4.9831395,-1.0463068000000002,1004.4105,0,0
36.68,-8.395743,4.96884,-0.9800251,1004.4231,0,0
36.72,-8.563037,5.4311957,-0.66755444,1004.42804,0,0
36.76,-7.3872056,5.6885900000000005,-0.9042747,1004.4406,0,0
36.8,-7.4254440000000015,5.4311957,-0.8806027,1004.4406,0,0
36.84,-8.778128,4.7257457,-0.63441366,1004.4504,0,0
36.88,-8.166312,5.059405,-1.0510412,1004.4377,0,0
36.92,-8.238010000000001,5.1690354,-1.0747133,1004.4377,0,0
36.96,-7.697893,5.345398,-1.0936509,1004.4176,0,0
37.0,-8.108955,5.092771,-0.86166507,1004.43,0,0
37.04,-8.113736,5.145203,-0.97055644,1004.4579,0,0
37.08,-8.194992,5.1738024000000005,-0.97055644,1004.4225,0,0
37.12,-8.175873,5.231001,-1.0415725,1004.45764,0,0
37.16,-8.223671000000001,5.164269,-0.9137435,1004.45514,0,0
37.2,-8.352725,5.130903,-0.7622425,1004.45514,0,0
37.24,-8.190211999999999,5.192868,-0.8569306000000001,1004.4247,0,0
37.28,-8.051599000000001,5.145203,-0.88533705,1004.4398,0,0
37.32,-8.051599000000001,5.068938,-0.82852423,1004.4624,0,0
37.36,-8.338386,4.940241,-0.82852423,1004.46265,0,0
37.4,-8.222982,5.1690182999999985,-0.68642896,1004.4526,0,0
37.44,-8.132137,5.202384,-0.8663337,1004.44244,0,0
37.48,-8.356769,5.140418,-0.7716439,1004.455,0,0
37.52,-7.926552,5.221448400000001,-0.9089385,1004.4496,0,0
37.56,-8.10816,5.0546190000000015,-1.0509684,1004.4421,0,0
37.6,-8.328009,5.0164857000000005,-0.8189805,1004.43427,0,0
37.64,-8.103323,5.2023807,-0.8473838,1004.41144,0,0
37.68,-8.337504,5.2119126,-0.75742745,1004.45184,0,0
37.72,-8.385277,5.226212,-0.71954983,1004.4519,0,0
37.76,-8.05067,5.216678,-0.9704713,1004.4315,0,0
37.8,-8.170132,5.126113,-0.73848253,1004.4672,0,0
37.84,-8.21312,4.94975,-0.42127466,1004.4442,0,0
37.88,-8.346933,5.0641465,-0.18455254,1004.4593,0,0
37.92,-8.624129,4.8448844000000015,-0.6674588,1004.4618,0,0
37.96,-8.136562,5.0403129999999985,-0.65325314,1004.42896,0,0
38.0,-8.203452,5.0975103,-1.0414718,1004.4239,0,0
38.04,-7.806700999999999,5.1451755,-1.3444712,1004.42145,0,0
38.08,-8.217741,4.7590833,-0.9373102,1004.4667,0,0
38.12,-8.394563,4.7781487,-0.5538206,1004.4338,0,0
38.16,-8.432775,5.0117097,-0.04723693,1004.47925,0,0
38.2,-7.9165254,5.6694937,-0.18453181,1004.45905,0,0
38.24,-8.298883,5.3692,-0.7053139,1004.4262,0,0
38.28,-8.346655,5.302467299999999,-0.4212472,1004.5092,0,0
38.32,-8.260589,4.7924457,-0.6390271,1004.44116,0,0
38.36,-8.451755,4.7161794000000015,-0.5538055000000001,1004.4385,1,2
38.4,-8.265322,4.6685133,-0.4117714,1004.4535,1,2
38.44,-8.055139,4.754315,-0.45912725,1004.46375,1,2
38.48,-8.069455,5.526496400000001,-0.44965634,1004.4508,1,2
38.52,-8.251068,5.6694927,0.2605062,1004.4789,1,2
38.56,-7.471939599999999,6.103249,0.94226235,1004.4888,1,2
38.6,-7.9307795,6.0841822999999975,1.6429563000000005,1004.51154,1,2
38.64,-7.8734016,6.360642,2.0359137,1004.5339,1,2
38.68,-6.764464,6.3415747000000025,1.7471169999999998,1004.45306,1,2
38.72,-6.7931222999999985,5.817253,1.6003524,1004.4632,1,2
38.76,-7.251960799999999,5.4359283,0.7008175999999999,1004.4433,1,2
38.8,-8.02149,5.1833,-0.35968733,1004.4509,1,2
38.84,-8.700199000000001,4.887773,-0.8899386,1004.4458,1,2
38.88,-8.470747,5.1261005,-1.6143005,1004.42035,1,2
38.92,-8.289094,5.8744492999999975,-0.95621634,1004.45807,1,2
38.96,-7.419149000000001,6.7467289999999975,-1.5527495,1004.4607,1,2
39.0,-7.519505,7.0565539999999976,-1.9693753,1004.47296,1,2
39.04,-8.700094,6.3320370000000015,-2.2108278,1004.45013,1,2
39.08,-9.283208,6.1938066,-1.1266472,1004.48785,1,2
39.12,-6.840708,6.5083985,-0.95620656,1004.52325,1,2
39.16,-6.114156,5.874446,-1.7231784,1004.45013,1,2
39.2,-8.183788999999999,4.806737,-1.3112832,1004.50793,1,2
39.24,-7.8348445999999985,4.4635444,-1.576408,1004.50037,1,2
39.28,-7.4763365,4.601774,-1.6616251,1004.4928,1,2
39.32,-8.341461,4.4254107000000005,-1.633217,1004.4649,1,2
39.36,-8.159805,4.997397,-2.0735142,1004.4753,1,2
39.4,-8.069156,6.5226994000000005,-2.4096723,1004.4827,1,2
39.44,-7.514685000000001,7.7715372999999985,-2.8925803,1004.4652,1,2
39.48,-7.9448547,7.4092784,-2.1114025,1004.5001,1,2
39.52,-8.317664,7.0136538,-1.7847271,1004.4878,1,2
39.56,-8.049983000000001,6.7085934000000025,-0.8899236999999999,1004.5331,1,2
39.6,-7.385575999999999,6.036509,-0.6105924,1004.51013,1,2
39.64,-6.6685919999999985,6.184272,0.42624342,1004.49994,1,2
39.68,-6.281415,6.2510033,0.56354237,1004.5303,1,2
39.72,-7.5815066999999985,5.412089,-0.004584871,1004.49225,1,2
39.76,-7.433319,5.764814,0.46412244,1004.4875,1,2
39.8,-6.917087,6.1461377,-0.04719205,1004.5073,1,2
39.84,-6.6398444,5.364422,-1.0461502,1004.4469,1,2
39.88,-7.4667363,5.2643247,-0.014048655,1004.4921,1,2
39.92,-7.0126414000000015,6.069872,-0.30284604,1004.487,1,2
39.96,-7.0604253,6.970751,0.39311272,1004.482,1,2
40.0,-7.705686,7.15188,1.108009,1004.4892,1,2
40.04,-7.6865535,7.2996425999999985,1.1127446,1004.49207,1,2
40.08,-7.83949,7.599935,1.6429995,1004.49927,1,2
40.12,-9.05833,7.700033,1.1742941999999998,1004.4893,1,2
40.16,-9.345103,6.4940940000000005,0.80027777,1004.5045,1,2
40.2,-5.626402400000001,6.517926,-0.24129002,1004.4642,1,2
40.24,-5.540352,6.2891307,-1.8083768,1004.4389,1,2
40.28,-9.416759,4.415874,-0.64844626,1004.4915,1,2
40.32,-8.016262,4.444473,-0.7147266999999999,1004.4867,1,2
40.36,-6.53929,4.906828400000001,-0.35964509999999994,1004.4815,1,2
40.4,-5.792783,5.6408577000000015,-0.35483217,1004.4613,1,2
40.44,-6.442788,5.4501940000000015,-0.369031,1004.4889,1,2
40.48,-7.4943,5.5359907,0.5636509,1004.46124,1,2
40.52,-7.953112599999999,5.397759400000001,0.8429851,1004.51154,1,2
40.56,-7.618481,6.107975,-0.69569224,1004.4789,1,2
40.6,-8.469237,6.656128,-0.46370196,1004.4585,1,2
40.64,-7.130842,8.057495,-0.9371378,1004.4713,1,2
40.68,-8.770271000000001,7.585603999999999,1.1128633,1004.52893,1,2
40.72,-9.788319,7.075581,1.3921977,1004.52136,1,2
40.76,-8.282633,6.908751,1.7236106,1004.46075,1,2
40.8,-7.0972023,6.303397,2.3485556,1004.51105,1,2
40.84,-6.3132606,6.265263,2.4101079,1004.4985,1,2
40.88,-6.45183,5.95067,1.5484502,1004.4759,1,2
40.92,-7.369503999999999,5.502612,1.5200483,1004.48566,1,2
40.96,-7.001411,5.845803,1.7946482,1004.49347,1,2
41.0,-6.523382700000001,6.231893,2.3533125,1004.50854,1,2
41.04,-5.863724,6.60845,2.5758333,1004.4882,1,2
41.08,-6.4563746,7.1280036,2.7604795,1004.47534,1,2
41.12,-6.069163,8.114678999999999,2.6279206000000004,1004.47284,1,2
41.16,-5.4573026,8.548434,2.1166089,1004.463,1,2
41.2,-6.346292,8.033646000000001,1.4206562,1004.47546,1,2
41.24,-7.24485,7.356794,0.5069204,1004.47046,1,2
41.28,-7.952215,6.727607000000001,0.18025059,1004.4577,1,2
41.32,-8.191157,6.5893755,0.3412248,1004.47046,1,2
41.36,-8.583053,5.9744883,0.22760342,1004.4427,1,2
41.4,-7.3703074000000015,5.1308403,0.09965332,1004.4804,1,2
41.44,-6.6629033,4.9592443,0.34110734,1004.47534,1,2
41.48,-7.4993773,5.888723400000001,-0.122865096,1004.4904,1,2
41.52,-8.684776,6.141351,-0.4779460999999999,1004.4804,1,2
41.56,-8.268939999999999,6.303414,0.4878718,1004.4776,1,2
41.6,-6.8684660000000015,6.5703416,1.2027661,1004.5003,1,2
41.64,-6.964069,6.4940767,1.8561133,1004.5154,1,2
41.68,-8.039533,6.03172,2.107036,1004.50507,1,2
41.72,-8.135136,5.726661,1.7708926,1004.5054,1,2
41.76,-7.795778,5.6694627,1.8561113,1004.4799,1,2
41.8,-7.566354,6.1079865,2.410036,1004.50256,1,2
41.84,-7.322592,6.031721,2.2395968,1004.51263,1,2
41.88,-7.0549307,6.155652,1.5389041,1004.4619,1,2
41.92,-6.213692,6.198551,0.8855556,1004.4596,1,2
41.96,-6.9593490000000005,6.0793877,0.7103819,1004.46466,1,2
42.0,-9.425735,5.745729,1.2169625,1004.48956,1,2
42.04,-7.714573,5.7695620000000005,1.1222736999999998,1004.48456,1,2
42.08,-9.153301,5.9506907,4.1759644,1004.5322,1,2
42.12,-6.787306,8.205273,4.1806980000000005,1004.5174,1,2
42.16,-7.150578,8.500799,3.32377,1004.4792,1,2
42.2,-6.548331,8.30537,2.9497514,1004.45685,1,2
42.24,-6.395385299999999,7.485523,2.7887807,1004.4772,1,2
42.28,-6.772997,7.385426,2.485778,1004.4591,1,2
42.32,-6.729985000000001,7.3425264000000015,2.1496348,1004.4363,1,2
42.36,-5.0666213,7.409259,1.3968638,1004.4591,1,2
42.4,-5.372536,6.6847425000000005,0.80032814,1004.4593,1,2
42.44,-7.197553,5.626545,0.45006165,1004.4639,1,2
42.48,-7.216645699999999,5.8791723,0.22754705,1004.46643,1,2
42.52,-8.416349,5.631311,0.5400203,1004.4487,1,2
42.56,-8.803489,5.9840355,-0.12752858,1004.4664,1,2
42.6,-8.330261,7.2519383,-1.01286,1004.4388,1,2
42.64,-8.387592,6.999311,-1.9029256,1004.44885,1,2
42.68,-8.444925,6.965944,-2.7456472,1004.4636,1,2
42.72,-5.9068227,7.800091,-2.8071918,1004.4611,1,2
42.76,-5.4957333,7.2376356,-2.6367512000000004,1004.4561,1,2
42.8,-7.269014,6.2843246,-2.035479,1004.4714,1,2
42.84,-8.765064,5.7695355,-1.4010665,1004.47833,1,2
42.88,-7.9668117,6.1174936,-0.97970194,1004.47833,1,2
42.92,-5.8923516,6.2509565,-1.1974825,1004.42804,1,2
42.96,-6.212574,5.6980357,-0.52992904,1004.47833,1,2
43.0,-7.469633999999999,5.159414,-1.5667611,1004.49365,1,2
43.04,-7.665580999999999,5.497839,-1.9218394,1004.4331,1,2
43.08,-8.392083999999999,5.545503599999999,-1.7135228,1004.45306,0,0
43.12,-9.046893,5.4501724000000005,-1.4199876,1004.45795,0,0
43.16,-7.751539,5.617001,-0.7950436,1004.48834,0,0
43.2,-6.8768086,5.7599974000000005,-0.26005352,1004.50073,0,0
43.24,-7.8900995,5.488302,-0.3926144,1004.4731,0,0
43.28,-8.21988,5.1975419999999986,-0.76662993,1004.45294,0,0
43.32,-8.109917999999999,5.3405385,-0.90865964,1004.47327,0,0
43.36,-7.8948016,5.2499730000000016,-0.7855629,1004.4655,0,0
43.4,-8.296278,5.1022086,-0.57251215,1004.47046,0,0
43.44,-7.8947496,5.4597,-1.1595761999999998,1004.49066,0,0
43.48,-7.7895675,5.3929677000000025,-1.0506823,1004.45544,0,0
43.52,-8.06199,5.1689386,-0.5961770000000001,1004.49817,0,0
43.56,-8.377587,5.030712,-0.7429555,1004.4931,0,0
43.6,-8.358445,5.2928715,-0.97967356,1004.4399,0,0
43.64,-7.7227134999999985,5.4072685,-0.8565773999999999,1004.45514,0,0
43.68,-8.592614999999999,5.211839,-0.46361983,1004.46515,0,0
43.72,-8.22455,5.1165075,-0.6766661999999999,1004.4803,0,0
43.76,-8.210189999999999,5.130806400000001,-0.18902062,1004.4802,0,0
43.8,-7.904261999999999,4.8972454,-0.30264437,1004.4802,0,0
43.84,-8.697689,4.601718,-0.4162683,1004.46265,0,0
43.88,-8.802822,4.606484,-0.5346263000000001,1004.4622,0,0
43.92,-8.243565,4.7923794,-0.6529845999999999,1004.45734,0,0
43.96,-8.257883,4.868643799999999,-0.64351386,1004.4699,0,0
44.0,-8.487293,4.892476,-0.73820007,1004.4672,0,0
44.04,-8.530292,4.8495765,-0.2742266,1004.4848,0,0
44.08,-8.391657,4.9115415,-0.37838167,1004.4497,0,0
44.12,-7.884975999999999,5.226134,-0.5393493,1004.46716,0,0
44.16,-8.362935,5.0593033,-0.7808022,1004.48236,0,0
44.2,-8.625803999999999,5.0545363,-0.62929934,1004.44965,0,0
44.24,-8.233839,4.935371400000001,-0.8139390999999999,1004.4673,0,0
44.28,-8.2481575,4.9496712999999986,-0.43518484,1004.45715,0,0
44.32,-7.980467,5.2928624000000015,-0.50146455,1004.47723,0,0
44.36,-8.080822,5.4167924,-0.19846076,1004.45715,0,0
44.4,-8.166839999999999,5.3405275,-0.6150866999999999,1004.47974,0,0
44.44,-8.205055999999999,5.145098,-1.0364467,1004.4418,0,0
44.48,-8.434465,5.1784635,-0.75711495,1004.46436,0,0
44.52,-8.099859,5.1689295999999985,-0.8754731,1004.4795,0,0
44.56,-8.080964,4.9735065,-0.66244537,1004.482,0,0
44.6,-8.515914,4.7971435,-0.5393498000000001,1004.4769,0,0
44.64,-8.439426,5.0402374000000005,-0.61509925,1004.5073,0,0
44.68,-8.262561999999999,5.340531,-0.5440821,1004.4744,0,0
44.72,-7.7463326,5.4835267,-1.045928,1004.4744,0,0
44.76,-7.985311,5.2642646,-1.1311462,1004.4716,0,0
44.8,-8.128695,4.9544387,-1.1027389,1004.4591,0,0
44.84,-8.487167999999999,4.71611,-0.9228304,1004.4766,0,0
44.88,-8.362882,4.7876086,-0.8186726,1004.4993,0,0
44.92,-8.205136999999999,5.045001999999998,-0.88021874,1004.507,0,0
44.96,-8.047393,5.106967,-0.49199653,1004.4765,0,0
45.0,-8.295931,5.059301400000002,-0.5724803,1004.46906,0,0
45.04,-8.348497,4.9687366,-0.7192459,1004.4993,0,0
45.08,-8.458422,5.0307016,-0.5251342,1004.44366,0,0
45.12,-8.252877,4.978269,-0.55353963,1004.4942,0,0
45.16,-8.271987,5.0878997,-0.5582731,1004.4764,0,0
45.2,-8.238517,4.9592019999999986,-0.5251311,1004.46625,0,0
45.24,-8.066433,5.097432,-0.68136543,1004.4788,0,0
45.28,-8.37233,4.873404,-0.510926,1004.45856,0,0
45.32,-8.506153999999999,4.8019047,-0.7192387,1004.4689,0,0
45.36,-8.252811,5.0306997,-0.72397214,1004.46606,0,0
45.4,-8.075948,5.197529,-0.8660030999999999,1004.456,0,0
45.44,-8.195432,5.1736955999999985,-0.8091894000000001,1004.47864,0,0
45.48,-8.319695,5.0545316,-0.56773365,1004.4736,0,0
45.52,-8.525215,4.8686357000000005,-0.60087335,1004.4608,0,0
45.56,-8.352687,4.806659,-0.6387069000000001,1004.45575,0,0
45.6,-8.2236,4.8114247,-0.58662564,1004.4711,0,0
45.64,-8.610738000000001,4.887689,-0.6055607,1004.4607,0,0
45.68,-8.204426,5.130782,-0.9085601,1004.46576,0,0
45.72,-8.161377,5.09265,-0.7002435,1004.4631,0,0
45.76,-8.261726,5.140314,-0.58188087,1004.458,0,0
45.8,-8.424209,5.030683,-0.5155964,1004.45294,0,0
45.84,-8.180413,5.030682,-0.87067443,1004.47815,0,0
45.88,-8.1851635,4.9019847,-0.8138588000000001,1004.44775,0,0
45.92,-8.419345,4.8304852999999985,-0.7381057,1004.4681,0,0
45.96,-8.223344,4.8114184999999985,-0.818588,1004.4982,0,0
46.0,-8.438405,4.8304834,-0.88960135,1004.50824,0,0
46.04,-8.424041,4.8018837,-0.74283236,1004.46533,0,0
46.08,-8.299737,4.77805,-0.7380954000000001,1004.48303,0,0
46.12,-8.495677,5.002078,-0.7333581,1004.49054,0,0
46.16,-8.151504,5.121241,-0.9700759,1004.48285,0,0
46.2,-8.127578999999999,4.9973097,-0.72861874,1004.4501,0,0
46.24,-8.313961,4.6588835999999985,-0.6386624,1004.48755,0,0
46.28,-8.605497999999999,4.6970153,-0.5439714,1004.4904,0,0
46.32,-8.485975999999999,4.901977,-0.62445384,1004.47754,0,0
46.36,-8.213498,5.0402064000000015,-0.6386544,1004.4524,0,0
46.4,-8.175231,5.1164703000000005,-0.7286055,1004.4624,0,0
46.44,-8.232559,4.983006,-0.8564315999999998,1004.4749,0,0
46.48,-8.500202,4.925807,-0.76174116,1004.4599,0,0
46.52,-8.662684,5.021137,-0.5202837,1004.4976,0,0
46.56,-8.285498,5.097412599999998,-0.35935217,1004.45215,0,0
46.6,-7.9461193,4.863850599999999,-0.7428376999999999,1004.4472,0,0
46.64,-8.758675,4.863850599999999,-0.6812895,1004.4799,0,0
46.68,-8.10383,4.8686166,-1.4009181,1004.47253,0,0
46.72,-8.156396,4.816184,-1.3488383999999998,1004.45667,0,0
46.76,-8.443174,4.635054599999999,-1.0931798,1004.4698,0,0
46.8,-8.768188,4.797117,-0.018468738,1004.50244,0,0
46.84,-7.989071400000001,5.0211453,-0.60553396,1004.4522,0,0
46.88,-8.524396000000001,4.9305806,-0.48717272,1004.4868,0,0
46.92,-8.404889,4.854315,-0.20784187,1004.47437,0,0
46.96,-8.032055,4.8066497,-0.6528748999999999,1004.4744,0,0
47.0,-8.749015,4.5873876,-0.73335874,1004.4643,0,0
47.04,-8.682085,4.6874847,-0.6623416,1004.4491,0,0
47.08,-8.127618,4.921046,-0.72862226,1004.4616,0,0
47.12,-8.395275,4.99731,-0.2551808,1004.49164,0,0
47.16,-8.270988000000001,5.140307,-0.35460222,1004.4742,0,0
47.2,-8.352234,5.1832056,-0.37827322,1004.50464,0,0
47.24,-7.874242,5.321436,-0.37827218,1004.47437,0,0
47.28,-8.15146,5.316669,-0.28831747,1004.51184,0,0
47.32,-8.242265,5.2213373,-0.6386625,1004.46893,0,0
47.36,-8.237473,5.1641383,-0.24570577,1004.4767,0,0
47.4,-8.05583,5.187971,-0.31672087,1004.4765,0,0
47.44,-8.333047,5.445365,-0.2741102,1004.4663,0,0
47.48,-7.864615400000001,5.64556,-0.70967436,1004.4865,0,0
47.52,-8.323466,5.3786325,-0.49662519,1004.4663,0,0
47.56,-8.858601,4.9782367,-0.07051019,1004.46387,0,0
47.6,-8.428401,4.9067383,-0.44452655,1004.4689,0,0
47.64,-8.007759,5.254696,-0.62916654,1004.4385,0,0
47.68,-7.654034599999999,5.149832,-0.8942914000000001,1004.4636,0,0
47.72,-7.9886035999999985,4.91627,-0.7617265000000001,1004.4739,0,0
47.76,-8.213234,4.6970077,-0.951101,1004.4812,0,0
47.8,-8.313591,4.854304,-1.3251171999999998,1004.4764,0,0
47.84,-8.069802000000001,5.364324,-1.9547915,1004.4385,0,0
47.88,-7.649162299999999,5.678917,-1.7322725,1004.4609,0,0
47.92,-7.5153103,5.779014,-1.4576757,1004.4736,0,0
47.96,-7.9980497,5.483487,-1.6281123,1004.50616,0,0
48.0,-8.246582,5.4167547,-0.8990123,1004.46075,0,0
48.04,-7.414877400000001,5.5168524,-1.4908111000000002,1004.47327,0,0
48.08,-8.762762,5.292824,-1.0363065,1004.47565,0,0
48.12,-7.940617599999999,5.512085,-1.1783371,1004.4884,0,0
48.16,-7.744627499999999,5.621715,-0.9984279,1004.468,0,0
48.2,-7.582095,5.6026487000000005,-0.9368789,1004.4934,0,0
48.24,-7.887983,5.3261876,-0.5912656999999999,1004.47064,0,0
48.28,-7.993120699999999,5.2403893,-0.70015514,1004.4705,0,0
48.32,-8.614476,5.187957,-0.3592764,1004.4957,0,0
48.36,-8.303769,5.2928205,-0.4444939000000001,1004.51855,0,0
48.4,-7.6728187,5.56928,-0.6338686,1004.4932,0,0
48.44,-8.102981,5.3166523,-0.6007259,1004.48553,0,0
48.48,-8.308494,5.1259894,-0.458692,1004.4778,0,0
48.52,-7.73968,5.1450553,-0.58651936,1004.4803,0,0
48.56,-8.269797,5.292808,-0.53440064,1004.5107,0,0
48.6,-7.9065065,5.473936599999999,-0.94155705,1004.47296,0,0
48.64,-7.9781675,5.4930015,-0.6527550999999999,1004.48785,0,0
48.68,-8.398756,5.4644017,-0.9415505,1004.503,0,0
48.72,-8.001998,5.445335,-0.5059822,1004.51544,0,0
48.76,-7.528762299999999,5.5597305,-0.098820165,1004.5054,0,0
48.8,-8.245699,5.4834647000000025,-0.6764145,1004.4975,0,0
48.84,-7.9732127,5.550196,-0.7853024000000001,1004.533,0,0
48.88,-7.963617299999999,5.492996,-0.7190174,1004.4671,0,0
48.92,-7.9874839999999985,5.578794,-0.71427995,1004.4572,0,0
48.96,-8.212098,5.230834,-0.90838736,1004.4724,0,0
49.0,-8.054329,5.2689657,-0.76635194,1004.48224,0,0
49.04,-8.001717,5.297564,-0.5911757,1004.50006,0,0
49.08,-7.915647,5.3309293,-0.8562993,1004.4923,0,0
49.12,-8.015986,5.2975626,-0.7994832,1004.44684,0,0
49.16,-8.140226,5.3356943,-1.0314659,1004.47455,0,0
49.2,-8.00157,5.426257,-0.60063106,1004.4819,0,0
49.24,-8.07324,5.4119573,-0.8941617000000001,1004.5021,0,0
49.28,-7.838994500000001,5.5978518,-0.9983153,1004.482,0,0
49.32,-7.9680133,5.4882207,-0.5864189000000001,1004.4618,0,0
49.36,-7.8771634000000015,5.4500875,-0.7994641,1004.48706,0,0
49.4,-7.9297065999999985,5.3785877,-0.71424156,1004.50714,0,0
49.44,-8.015707,5.5072839999999985,-0.58167493,1004.45355,0,0
49.48,-7.6141676999999985,5.7170115,-0.79945433,1004.4589,0,0
49.52,-8.135133999999999,5.6455129999999984,-0.9935619,1004.48444,0,0
49.56,-8.1358595,5.6550636,-0.733236,1004.5093,0,0
49.6,-7.9016447,5.5168333,-0.58173466,1004.4867,0,0
49.64,-7.9016385,5.4929999999999986,-0.27399784,1004.4712,0,0
49.68,-7.892074000000001,5.4644010000000005,-0.53438973,1004.4463,0,0
49.72,-7.982885400000002,5.473934,-0.5769989000000001,1004.4661,0,0
49.76,-8.0115595,5.373836,-0.7995154999999999,1004.4739,0,0
49.8,-8.102369,5.359536599999998,-0.7142956,1004.47614,0,0
49.84,-8.131044000000001,5.3309370000000005,-0.5627943,1004.4689,0,0
49.88,-8.021105,5.4453344,-0.6290756,1004.46606,0,0
49.92,-7.8729243,5.421501,-0.61013746,1004.461,0,0
49.96,-8.10235,5.254671,-0.40655756,1004.46857,0,0
50.0,-8.193162,5.202239,-0.39235395,1004.48895,0,0
50.04,-8.188377000000001,5.3404694,-0.63380814,1004.4459,0,0
50.08,-7.8824644,5.5930967,-0.7284957,1004.44604,0,0
50.12,-7.868120699999999,5.4739327000000015,-0.35921168,1004.4509,0,0
50.16,-8.331756,5.316636,-0.35921124,1004.4507,0,0
50.2,-8.221815,5.307103,-0.051474485999999986,1004.48364,0,0
50.24,-7.920683,5.4262667,-0.35921034,1004.47833,0,0
50.28,-8.09753,5.426266,-0.4112882000000001,1004.45825,0,0
50.32,-8.183562,5.330935500000002,-0.25978693,1004.46075,0,0
50.36,-8.097521,5.330935500000002,-0.07514468,1004.47107,0,0
50.4,-8.169212,5.2403708,-0.22191076,1004.48083,0,0
50.44,-8.040153,5.383367,-0.113019004,1004.45044,0,0
50.48,-8.193102,5.3976665,-0.34973878,1004.4811,0,0
50.52,-7.772473,5.7837577000000016,-0.41128543,1004.4884,0,0
50.56,-7.901875,5.483473,-0.48706764,1004.47546,0,0
50.6,-8.030936,5.3071103,-0.648038,1004.45325,0,0
50.64,-8.44679,5.2260795,-0.33083397,1004.4881,0,0
50.68,-8.097873,5.3643093,-0.3024283,1004.478,0,0
50.72,-7.916247999999999,5.5406723,-0.41132024,1004.4934,0,0
50.76,-7.9305954,5.4787073,-0.38764903,1004.458,0,0
50.8,-7.9545035,5.5311394,-0.44446272,1004.4652,0,0
50.84,-8.054889999999999,5.3214115999999985,-0.50127655,1004.4351,0,0
50.88,-8.121813000000001,5.3023457999999986,-0.43972984,1004.47296,0,0
50.92,-8.303453999999999,5.3929105,-0.2408856000000001,1004.4577,0,0
50.96,-7.940200999999999,5.7551684000000005,-0.42079404,1004.4781,0,0
51.0,-7.916309,5.659838,-0.54388916,1004.4577,0,0
51.04,-7.7442446,5.488242,-0.42079547,1004.4854,0,0
51.08,-8.461225,5.106918,-0.1793418,1004.4879,0,0
51.12,-8.289161,5.216549,-0.41132838,1004.4652,0,0
51.16,-7.6916943,5.5311413,-0.6480494000000001,1004.4652,0,0
51.2,-7.973708999999999,5.4787097000000005,-0.7238005,1004.4574,0,0
51.24,-7.992839999999997,5.4501104000000025,-0.44920608,1004.4703,0,0
51.28,-8.217499,5.388146,-0.5249573000000001,1004.48755,0,0
51.32,-8.174486,5.2499156,-0.29297206,1004.48236,0,0
51.36,-7.902047599999999,5.316648000000002,-0.188816,1004.48785,0,0
51.4,-8.231864999999999,5.454878,-0.4539437,1004.4648,0,0
51.44,-7.978542999999997,5.5120773000000005,-0.6717270000000001,1004.50287,0,0
51.48,-7.9689926999999985,5.3833804,-0.5817741,1004.4674,0,0
51.52,-8.055036999999999,5.3690805,-0.34032026,1004.4723,0,0
51.56,-8.044785000000001,5.3213983,-0.10353665,1004.4696,0,0
51.6,-7.973074,5.4310284000000015,-0.2976459,1004.48975,0,0
51.64,-8.121227000000001,5.335697,-0.6527244000000001,1004.47217,0,0
51.68,-8.063854,5.5406585,-0.51542526,1004.48474,0,0
51.72,-7.762706,5.5120587,-0.75214344,1004.4696,0,0
51.76,-8.264560000000001,5.2165318,-0.6669221,1004.4696,0,0
51.8,-8.154608999999999,5.264197,-0.16980809,1004.4797,0,0
51.84,-7.820007,5.4453260000000006,-0.36865166,1004.4745,0,0
51.88,-7.953819,5.626454,-0.78527725,1004.46967,0,0
51.92,-8.015937,5.5406556,-0.16506845,1004.49457,0,0
51.96,-7.666996000000001,5.5549550000000005,-0.23608308,1004.4694,0,0
52.0,-8.111500999999999,5.492989,-0.32130075,1004.4543,0,0
52.04,-7.700414,5.5835532999999975,-0.40651795,1004.454,0,0
52.08,-8.063661,5.4691553,-0.66217405,1004.46924,0,0
52.12,-8.316971,5.3642907,-0.64323467,1004.4694,0,0
52.16,-8.202241,5.359524,-0.52013886,1004.45416,0,0
52.2,-7.776815400000001,5.6169176,-0.24554123,1004.46906,0,0
52.24,-8.039686,5.693182,-0.29288363,1004.46655,0,0
52.28,-7.8102436,5.7503800000000025,-0.15085031,1004.48444,0,0
52.32,-8.00619,5.631215599999999,-0.29761457,1004.4816,0,0
52.36,-8.087427,5.4119534000000025,-0.5438019000000001,1004.47687,0,0
52.4,-7.939236,5.3642874,-0.4065025,1004.45605,0,0
52.44,-8.015694,5.402419,-0.31181267,1004.46625,0,0
52.48,-8.030014999999999,5.3928866,-0.4491088,1004.4614,0,0
52.52,-8.073014,5.4119519999999985,-0.22185563,1004.4814,0,0
52.56,-7.8573895,5.4786706,-0.39224538,1004.4941,0,0
52.6,-8.105903,5.4786696,-0.22180341,1004.4613,0,0
52.64,-8.01983,5.4262365999999975,-0.44431707,1004.4738,0,0
52.68,-8.024567,5.4024024000000015,-0.5721421999999999,1004.46625,0,0
52.72,-8.158362,5.3261366,-0.12710452,1004.4766,0,0
52.76,-8.05795,5.3833346,-0.21705483,1004.4588,0,0
52.8,-8.287341,5.4024,-0.22652002,1004.4691,0,0
52.84,-8.053094,5.3738,-0.3638144,1004.4918,0,0
52.88,-7.814076400000001,5.516795,-0.112888485,1004.4688,0,0
52.92,-8.344585,5.025839,-0.5200427,1004.4638,0,0
52.96,-8.425802000000001,5.187901,-0.39694467,1004.4763,0,0
53.0,-7.904767,5.4071617,-0.45848858,1004.4636,0,0
53.04,-7.766111,5.4929585,-0.49162555,1004.4636,0,0
53.08,-7.809093499999999,5.521557,-0.4963566,1004.44604,0,0
53.12,-8.052823,5.378559,-0.25963274,1004.4762,0,0
53.16,-8.301333,5.302294,-0.13653465,1004.4663,0,0
53.2,-8.114881500000001,5.3404254999999985,-0.31643838,1004.4385,0,0
53.24,-7.971451299999999,5.521553,-0.30696622,1004.4437,0,0
53.28,-8.186501,5.550152,-0.13178943,1004.45605,0,0
53.32,-7.8853354000000015,5.473886,-0.4253191,1004.4661,0,0
53.36,-8.124286999999999,5.249857,-0.07496959,1004.4458,0,0
53.4,-8.052549,5.3165879999999985,0.07180059,1004.4585,0,0
53.44,-8.047731,5.4500504,-0.05602474,1004.4839,0,0
53.48,-8.181528,5.473882,-0.33061683,1004.441,0,0
53.52,-8.114574000000001,5.521546400000001,-0.4016295,1004.4613,0,0
53.56,-8.0102415,5.5835323,-0.42064247,1004.46106,0,0
53.6,-7.967218400000001,5.4500685,-0.5390020999999999,1004.44104,0,0
53.64,-8.172742999999999,5.2022076,-0.4253759,1004.4613,0,0
53.68,-8.010226,5.164075,-0.2880777,1004.4613,0,0
53.72,-8.406944000000001,5.1545415,-0.56267273,1004.4638,0,0
53.76,-7.9910983999999985,5.3118377,-0.73311085,1004.4661,0,0
53.8,-7.890716599999997,5.2975379999999985,-0.27860755,1004.4638,0,0
53.84,-8.091464,5.2355730000000005,-0.534265,1004.45605,0,0
53.88,-8.354346000000001,5.2069730000000005,-0.5437333000000001,1004.4462,0,0
53.92,-8.048435000000001,5.292771,-0.5721393,1004.4588,0,0
53.96,-7.9958525,5.3261366,-0.53426355,1004.45624,0,0
54.0,-8.048426,5.4310007,-0.52952874,1004.4613,0,0
54.04,-8.062759,5.32137,-0.47271544,1004.4565,0,0
54.08,-8.263505,5.1831393,-0.6194814999999999,1004.4713,0,0
54.12,-8.349538,5.078275,-0.5153242,1004.45624,0,0
54.16,-8.363873,5.3213696,-0.6431526,1004.46924,0,0
54.2,-7.632557,5.640729,-0.59107363,1004.45624,0,0
54.24,-8.000597,5.316603,-0.5437291999999999,1004.4309,0,0
54.28,-8.100967,5.2355714,-0.37329018,1004.46686,0,0
54.32,-8.249137,5.3118362,-0.5295251,1004.46924,0,0
54.36,-8.296928999999999,5.354735400000001,-0.48218054,1004.4465,0,0
54.4,-8.000577,5.4309993,-0.16024062,1004.4639,0,0
54.44,-8.072269,5.626428,-0.05608323,1004.4515,0,0
54.48,-8.1821995,5.6502614,-0.66682094,1004.46686,0,0
54.52,-8.081819,5.640728,-0.7662431,1004.4288,0,0
54.56,-8.32125,5.3976445,-0.38753104,1004.42377,0,0
54.6,-8.173088,5.349979,-0.5437675000000001,1004.4417,0,0
54.64,-8.163542,5.3023143,-0.10346909,1004.4466,0,0
54.68,-8.077518,5.3881120000000005,-0.54850423,1004.4366,0,0
54.72,-8.082310000000001,5.264182,-0.8515073000000001,1004.44934,0,0
54.76,-7.7525163,5.187917,-0.089269325,1004.45166,0,0
54.8,-7.872023599999999,5.130718700000001,-0.008785546,1004.4515,0,0
54.84,-7.938953,5.2069839999999985,-0.6952753,1004.429,0,0
54.88,-8.048902,5.2880163,-0.325993,1004.4267,0,0
54.92,-7.981996,5.4786787000000015,-0.50590146,1004.43176,0,0
54.96,-7.8433948,5.5501776,-0.88465494,1004.4444,0,0
55.0,-8.154095,5.454846,-0.47749728,1004.4395,0,0
55.04,-8.039391499999999,5.4357805,-0.53431135,1004.4621,0,0
55.08,-8.163679,5.264185,-0.6858134,1004.4292,0,0
55.12,-8.292746000000001,5.2260528,-0.36387494,1004.4495,0,0
55.16,-8.2593,5.3261504,-0.10348396,1004.4571,0,0
55.2,-7.7669929999999985,5.4357815,-0.3449397,1004.4496,0,0
55.24,-8.111151,5.1640882,-0.25025272,1004.4797,0,0
55.28,-8.350153,5.073524,-0.2076442,1004.46234,0,0
55.32,-8.211553,5.1354894999999985,-0.10822293,1004.452,0,0
55.36,-8.460114,5.478682,-0.31180346,1004.4522,0,0
55.4,-7.757496400000001,5.5263480000000005,-0.6384786,1004.452,0,0
55.44,-8.092094,5.2403545,-0.27866486,1004.4395,0,0
55.48,-8.550966,4.940062,-0.018273745,1004.4521,0,0
55.52,-8.364567999999998,4.949596,-0.29760474,1004.4472,0,0
55.56,-8.412156,5.2784830000000005,-0.27391353,1004.46234,0,0
55.6,-8.044114,5.3404484000000005,-0.037193622,1004.4522,0,0
55.64,-7.9772005,5.230817299999999,-0.027725127,1004.4524,0,0
55.68,-8.321351,4.968657,-0.17922644,1004.4448,0,0
55.72,-8.632042,4.754162,-0.21236765,1004.46234,0,0
55.76,-8.598587,4.8542595,-0.08453901,1004.44476,0,0
55.8,-8.091931,5.2737164000000005,-0.17922747,1004.4348,0,0
55.84,-8.048917,5.3452150000000005,-0.1555558,1004.43506,0,0
55.88,-8.240112,5.2117515,-0.2502442,1004.43964,0,0
55.92,-8.264014,4.9400578,0.16164863,1004.44006,0,0
55.96,-8.283137,4.911459,-0.14608802,1004.46796,0,0
56.0,-8.354838,4.8304269999999985,-0.29758927,1004.4778,0,0
56.04,-8.531695,4.844727,-0.07980701,1004.4502,0,0
56.08,-8.397865,4.8971589999999985,-0.38280925,1004.45764,0,0
56.12,-8.034604,4.954358,-0.18396461,1004.4502,0,0
56.16,-8.546046,4.7589293,0.01014564,1004.4577,0,0
56.2,-8.632087,4.7493963,-0.24551253,1004.43,0,0
56.24,-8.479136,4.9066925,-0.38281062,1004.46796,0,0
56.28,-8.278388,4.987724299999999,-0.24077882,1004.45544,0,0
56.32,-8.369208,5.002024,-0.23131035,1004.4705,0,0
56.36,-8.354873,4.878093700000001,-0.16502906,1004.4404,0,0
56.4,-8.536508,4.701731,-0.20290464,1004.463,0,0
56.44,-8.397899,4.9257593,-0.22657697,1004.4428,0,0
56.48,-8.43136,4.892393599999999,-0.44909436,1004.44293,0,0
56.52,-8.608217999999999,4.892394,-0.30706257,1004.4507,0,0
56.56,-8.187407499999999,5.0735183,-0.32598305,1004.4356,0,0
56.6,-8.545889,5.044919,-0.6147813,1004.4431,0,0
56.64,-8.531546,4.9924865,-0.26443508,1004.4381,0,0
56.68,-8.526762,5.040152,-0.12240259,1004.4632,0,0
56.72,-8.694052000000001,5.040152,-0.35438806,1004.46075,0,0
56.76,-8.488516,5.1593160000000005,-0.37332535,1004.4811,0,0
56.8,-8.369017,5.230814499999998,-0.50588834,1004.46576,0,0
56.84,-8.70838,5.054452,-0.3733247,1004.4356,0,0
56.88,-8.569761,5.035385,-0.07505682,1004.4507,0,0
56.92,-8.526739,5.254647,-0.41119918,1004.451,0,0
56.96,-8.579313,5.3499775000000005,-0.51062137,1004.441,0,0
57.0,-8.588869,5.240347,-0.35912004,1004.456,0,0
57.04,-8.412013,5.1974483,-0.35438532,1004.45355,0,0
57.08,-8.803953,5.1307154000000015,-0.36858818,1004.45605,0,0
57.12,-8.765711,5.2308135,-0.15080525,1004.4438,0,0
57.16,-8.68923,5.3785763,-0.20761779,1004.45605,0,0
57.2,-8.665327,5.4453087,-0.5390256999999999,1004.44855,0,0
57.24,-8.703563,5.24988,-0.00877212,1004.4385,0,0
57.28,-8.770475999999999,5.202214,-0.09399104,1004.43854,0,0
57.32,-8.894748,5.159314599999999,-0.16500677,1004.4387,0,0
57.36,-8.909082000000001,5.2975445,-0.0892559,1004.4413,0,0
57.4,-8.784803,5.435775,-0.26916298,1004.4312,0,0
57.44,-8.918633999999997,5.4882064,-0.32124108,1004.4312,0,0
57.48,-8.493228,5.407175,-0.32597515,1004.4237,0,0
57.52,-8.894729,5.159314,-0.046644945,1004.4337,0,0
57.56,-8.919356,5.2546635,-0.1319309,1004.47186,0,0
57.6,-8.823785,5.254664,-0.20768373,1004.44403,0,0
57.64,-9.000662,5.321396,-0.30710837,1004.4438,0,0
57.68,-8.627862,5.340463,-0.22189139,1004.4466,0,0
57.72,-8.814300999999997,5.35953,0.019560888,1004.4441,0,0
57.76,-8.785646,5.3118644,-0.21242726,1004.42145,0,0
57.8,-9.034222,5.3690643,-0.21242958,1004.4016,0,0
57.84,-8.733117,5.335699,-0.24557258,1004.43677,0,0
57.88,-8.943455,5.3690653,-0.09407395,1004.4141,0,0
57.92,-8.628012,5.540662,0.024283988,1004.4017,0,0
57.96,-8.752311,5.4548644999999985,-0.2124386,1004.4091,1,3
58.0,-8.857492,5.402433,-0.18876888,1004.3689,1,3
58.04,-8.838399,5.2737365,-0.032535847,1004.39136,1,3
58.08,-8.738048,5.3214025000000005,-0.21244559,1004.3994,1,3
58.12,-8.738071000000001,5.3929019999999985,-0.07988438,1004.4095,1,3
58.16,-8.695077000000001,5.268972,0.10475524,1004.39435,1,3
58.2,-8.814598,5.1974745,-0.032544825,1004.3866,1,3
58.24,-8.738147999999999,5.168875,-0.06568813,1004.392,1,3
58.28,-8.742953,5.183175599999998,0.019528816,1004.37427,1,3
58.32,-8.599583,5.168876,-0.25506884,1004.3593,1,3
58.36,-8.738223,5.192710400000001,-0.018350933,1004.36676,1,3
58.4,-8.465798,5.297575,-0.04202528,1004.3691,1,3
58.44,-8.475384,5.311875,0.20889588,1004.3618,1,3
58.48,-8.599683,5.2689767,0.1094712,1004.3595,1,3
58.52,-8.743103,5.1498137,-0.07990733,1004.3345,1,3
58.56,-8.752049000000001,5.1354989999999985,-0.046710443,1004.352,1,3
58.6,-8.795067999999999,5.1068997000000005,-0.004100792,1004.33417,1,3
58.64,-8.422243,5.1926975,-0.04197604,1004.3671,1,3
58.68,-8.685132000000001,5.040168,0.019571226,1004.35706,1,3
58.72,-8.579976,4.9686694000000005,0.1947442,1004.3216,1,3
58.76,-8.312307,5.040168,0.14740016,1004.3445,1,3
58.8,-8.613435,4.94007,-0.037241627,1004.31195,1,3
58.84,-8.551297,4.873338,0.13793136,1004.31464,1,3
58.88,-8.1784725,5.025868,-0.08458567,1004.30945,1,3
58.92,-8.121117,5.083067,-0.32604033,1004.2968,1,3
58.96,-8.560858,4.806607,-0.15560174,1004.3223,1,3
59.0,-8.427023,4.859039,-0.24082102,1004.28925,1,3
59.04,-8.575197,4.80184,-0.24082102,1004.28674,1,3
59.08,-8.173693,4.992502,0.033774454,1004.2643,1,3
59.12,-8.0733185,5.116432,-0.20768023,1004.29956,1,3
59.16,-8.579976,4.9972687,-0.1035233,1004.2745,1,3
59.2,-8.450922,4.959136,-0.40652516,1004.2746,1,3
59.24,-8.47482,5.049700700000002,-0.5722294,1004.2745,1,3
59.28,-8.460481,5.0735335,-0.30710268,1004.2924,1,3
59.32,-8.097218,5.0783,-0.18400817,1004.26465,1,3
59.36,-8.336207,4.873338,-0.01830402,1004.25464,1,3
59.4,-8.384005,4.9829690000000015,-0.44440043,1004.2571,1,3
59.44,-8.465261,5.0020356,-0.48701006,1004.2091,1,3
59.48,-8.364885000000001,4.9686694000000005,-0.19347699,1004.2445,1,3
59.52,-8.0733185,4.921004,-0.392322,1004.2373,1,3
59.56,-8.504042,4.8399854000000015,-0.10830721,1004.2245,1,3
59.6,-8.465823,4.82092,0.014785336,1004.22943,1,3
59.64,-8.179057,4.8399863,-0.24087448,1004.2449,1,3
59.68,-8.351152,4.8209214000000005,0.085797474,1004.2474,1,3
59.72,-8.599723,4.944852,0.20415561,1004.21936,1,3
59.76,-8.169561,5.0544834000000005,-0.17933302,1004.1896,1,3
59.8,-8.322536,4.997285400000001,-0.22194462,1004.20966,1,3
59.84,-8.384692,4.930554,-0.41132253,1004.2072,1,3
59.88,-8.757539999999999,4.835223,-0.19827634,1004.19965,1,3
59.92,-8.341719,4.9829870000000005,0.00056658685,1004.20715,1,3
59.96,-8.394316,4.9972873,-0.06571679,1004.182,1,3
60.0,-8.279621,4.9734545,-0.30717340000000004,1004.16943,1,3
60.04,-8.351342,4.916256400000001,-0.32611316,1004.1645,1,3
60.08,-8.408721,4.8399925,-0.23616143,1004.19464,1,3
60.12,-8.528236,4.596899,-0.2645697,1004.16705,1,3
60.16,-8.313167,4.892425,-0.13674274,1004.16705,1,3
60.2,-8.303627,5.0640215999999985,-0.24090149,1004.16974,1,3
60.24,-7.9881825,5.059256,-0.4066076,1004.1547,1,3
60.28,-8.102917999999999,4.911494,-0.19829568,1004.15717,1,3
60.32,-8.6239395,4.630267,-0.16515695,1004.1396,1,3
60.36,-8.389745,4.7780304000000005,-0.30245609999999995,1004.1346,1,3
60.4,-8.609641,4.7637315000000005,-0.44449052,1004.11676,1,3
60.44,-8.404132,4.9877605,-0.13675644,1004.122,1,3
60.48,-8.146042999999999,5.0783253,-0.15096149,1004.1345,1,3
60.52,-8.423293,4.887664,-0.20304194,1004.1195,1,3
60.56,-8.490297,4.7303696,-0.103627264,1004.13214,1,3
60.6,-8.49032,4.873367,-0.027878981,1004.13965,1,3
60.64,-8.471222000000001,4.9925313,-0.321414,1004.12463,1,3
60.68,-8.490366999999999,4.9877653,-0.15571219,1004.09436,1,3
60.72,-8.122345,4.9544,-0.18885508,1004.0994,1,3
60.76,-8.366138000000001,4.8114038,0.05259735,1004.1171,1,3
60.8,-8.342264,4.8781360000000005,0.047860734,1004.10223,1,3
60.84,-8.643414,4.59691,-0.31669047,1004.0997,1,3
60.88,-8.194137,4.778039499999998,-0.04209723,1004.0969,1,3
60.92,-8.146362,4.901971,0.13780795,1004.082,1,3
60.96,-8.447514,4.925804,-0.4587293,1004.0924,1,3
61.0,-8.657848,4.7303760000000015,-0.3640432,1004.06464,1,3
61.04,-8.739129,4.744676,0.09519182,1004.0847,1,3
61.08,-8.328088000000001,5.016371,-0.34037542,1004.07214,1,3
61.12,-8.3806925,5.154601,0.10465622,1004.0596,1,3
61.16,-8.337697,5.1021695,-0.046846803,1004.0495,1,3
61.2,-8.356841000000001,4.9353404,-0.33564785,1004.0722,1,3
61.24,-8.524158,4.7828116,-0.278837,1004.0696,1,3
61.28,-8.576757,4.7589793,-0.20782305,1004.0422,1,3
61.32,-8.40949,4.8161783,-0.30251345,1004.0575,1,3
61.36,-8.246998,4.8924437,-0.24096812,1004.0269,1,3
61.4,-8.356958,4.792347,-0.23150165,1004.0321,1,3
61.44,-8.342642,4.644584,-0.15575327,1004.0296,1,3
61.48,-8.4765,4.7399163,-0.23624034,1004.0149,1,3
61.52,-8.151496,4.87338,-0.2267736,1003.9893,1,3
61.56,-8.551658,4.7875489999999985,-0.089353085,1004.0296,1,3
61.6,-8.465593,4.830447,-0.11775689,1004.01685,1,3
61.64,-8.384304,4.8781123,-0.34027090000000004,1004.0069,1,3
61.68,-8.384275,4.9734426,-0.2171738,1004.00214,1,3
61.72,-8.5133,4.854278,-0.15088937,1003.9998,1,3
61.76,-8.718801,4.825678,-0.17929299,1003.99976,1,3
61.8,-8.365064,4.8733425000000015,0.00061733276,1004.0249,1,3
61.84,-8.207303,4.982972599999999,0.05743263,1003.98956,1,3
61.88,-8.503621,4.8638080000000015,-0.4349427,1003.9419,1,3
61.92,-8.513154,4.8304415,-0.5059563,1003.96466,1,3
61.96,-8.627834,4.5253809999999985,-0.48701555,1003.9596,1,3
62.0,-8.312339,4.6207113,-0.3544496,1003.9596,1,3
62.04,-8.393567,4.7303414,0.17580631,1003.9394,1,3
62.08,-8.235805000000001,4.77324,0.17580894,1003.9546,1,3
62.12,-8.116278,4.816138,0.04324854,1003.9243,1,3
62.16,-8.785419000000001,4.67314,-0.43492353,1003.93195,1,3
62.2,-8.641996,4.7255720000000005,-0.07510616,1003.8866,1,3
62.24,-8.226124,5.025864,0.085866384,1003.8992,1,3
62.28,-8.264333,5.121194999999998,-0.08930397,1003.9092,1,3
62.32,-8.488953,4.9495983,-0.12244183,1003.8891,1,3
62.36,-8.412445,4.9352975,-0.056157384000000005,1003.88916,1,3
62.4,-8.660966,4.8066,-0.34495342,1003.9044,1,3
62.44,-8.29767,4.9114637000000005,-0.18871534,1003.8717,1,3
62.48,-8.4362545,4.811365,-0.264463,1003.90436,1,3
62.52,-8.455343,4.916228299999998,-0.297601,1003.8742,1,3
62.56,-8.518436,4.8304540000000005,-0.11304672,1003.8792,1,3
62.6,-8.069142,4.9353185,-0.35450208,1003.8288,1,3
62.64,-8.193427,4.844754,-0.28348687,1003.84906,1,3
62.68,-8.451545,4.8209214000000005,-0.30715972,1003.87427,1,3
62.72,-8.413316,4.72559,-0.4681303,1003.84644,1,3
62.76,-8.231691,4.806622,-0.31189573,1003.8414,1,3
62.8,-8.260378999999999,4.8304553,-0.18406758,1003.8138,1,3
62.84,-8.241269,5.006818,-0.23141246,1003.8212,1,3
62.88,-8.308194,4.973452,-0.35450768,1003.819,1,3
62.92,-8.575872,4.9591527,-0.22667961,1003.83655,1,3
62.96,-8.470725,4.944853,-0.34030613,1003.8163,1,3
63.0,-8.456394,4.96392,-0.3734477000000001,1003.7963,1,3
63.04,-8.442064,5.0783176,0.047913477,1003.76605,1,3
63.08,-8.02145,5.1450496,-0.3355741,1003.77875,1,3
63.12,-8.375164999999999,4.882889,-0.34977823,1003.7836,1,3
63.16,-8.604603,4.811391,-0.22668435,1003.7912,1,3
63.2,-8.456438,4.863823,-0.16987233,1003.7938,1,3
63.24,-8.131421000000001,5.0115867,-0.2598269,1003.769,1,3
63.28,-8.145769,5.1164510000000005,-0.20301484,1003.76117,1,3
63.32,-8.131438000000001,5.0068199999999985,-0.20775008,1003.7636,1,3
63.36,-8.494711,4.8352246,-0.12253147,1003.76636,1,3
63.4,-8.356108,4.8781238,-0.31190866,1003.74347,1,3
63.44,-8.3800125,4.8733580000000005,-0.10832983,1003.7636,1,3
63.48,-8.083674,4.973455,-0.1888156,1003.73346,1,3
63.52,-8.466068,4.9972887,-0.37819257,1003.7337,1,3
63.56,-8.433358,5.0211396,-0.24569784,1003.7463,1,3
63.6,-8.213514,5.211803,-0.28357542,1003.7235,1,3
63.64,-8.242230000000001,5.111706,-0.18415643,1003.7538,1,3
63.68,-8.419119,5.011609,-0.10840924,1003.73364,1,3
63.72,-8.34268,4.892446,-0.09420948,1003.7211,1,3
63.76,-8.495671000000002,4.935346,-0.27412040000000004,1003.7284,1,3
63.8,-8.2376,4.94488,-0.12262289,1003.7133,1,3
63.84,-8.533987,4.921048000000001,-0.35934657,1003.68066,1,3
63.88,-7.9604464,5.0592794,-0.24572416,1003.701,1,3
63.92,-8.204253999999999,4.811419,-0.21258685,1003.70605,1,3
63.96,-8.519759,4.711323,-0.21259034,1003.7033,1,3
64.0,-8.333382,4.8161874000000005,-0.25993760000000005,1003.68097,1,3
64.04,-8.429016,4.89722,-0.2457379,1003.7061,1,3
64.08,-8.056230000000001,5.016385,-0.3167574,1003.6935,1,3
64.12,-8.271361,4.882921700000002,-0.10844734,1003.6684,1,3
64.16,-8.672908,4.6970277000000005,-0.20313936,1003.6534,1,3
64.2,-8.801989,4.76376,-0.027968775,1003.68115,1,3
64.24,-8.410086,4.987789599999998,0.0430436,1003.6761,1,3
64.28,-8.195032000000001,5.1784525000000015,-0.07058561,1003.64325,1,3
64.32,-8.319343,5.106955,0.028833654,1003.6433,1,3
64.36,-8.491454,4.801896,-0.013779506,1003.6508,1,3
64.4,-8.357655000000001,4.859096,-0.12267408,1003.64594,1,3
64.44,-8.687501,4.801898,-0.2931163,1003.6359,1,3
64.48,-8.032703999999999,4.9544287,-0.1984315,1003.64105,1,3
64.52,-8.505945,4.7590010000000005,0.13297312,1003.61816,1,3
64.56,-8.299497,4.7446785,0.19933861,1003.62103,1,3
64.6,-8.270819,4.911508,0.09991613,1003.63617,1,3
64.64,-8.342514999999999,4.8447765999999985,-0.037381608,1003.6059,1,3
64.68,-8.634084,4.9305744,-0.14627291,1003.6108,1,3
64.72,-8.385533,4.9162745,-0.113132074,1003.63116,1,3
64.76,-8.332955,5.11647,0.11885375,1003.62604,1,3
64.8,-8.098746,5.183202,-0.01370959,1003.58057,1,3
64.84,-8.528928,4.949640799999999,-0.10366328,1003.5932,1,3
64.88,-8.5623865,4.7399125,0.033634476,1003.5808,1,3
64.92,-8.548047,4.730379,0.15199459,1003.5933,1,3
64.96,-8.24692,4.8924417,-0.023178376,1003.5657,1,3
65.0,-8.409432,5.025905000000002,0.13779138,1003.58344,1,3
65.04,-8.332955,4.997306,0.038368884,1003.5909,1,3
65.08,-8.342514999999999,4.901975,-0.13680412,1003.5707,1,3
65.12,-8.136984,4.8781424000000015,-0.09419446,1003.5859,1,3
65.16,-8.485909,4.725612,0.10938494,1003.58374,1,3
65.2,-8.352076,4.7923446,0.09991613,1003.5759,1,3
65.24,-8.438111,4.9067416,-0.037381608,1003.5506,1,3
65.28,-8.184782,5.006839299999998,0.043103263,1003.53815,1,3
65.32,-8.055728,5.1784352999999985,0.028900065,1003.5584,1,3
65.36,-8.127425,5.1307697,-0.027912784,1003.5406,1,3
65.4,-8.629303,4.9210410000000016,0.024165656,1003.56116,1,3
65.44,-8.500249,5.078337,-0.05631921,1003.5639,1,3
65.48,-8.462010000000001,5.0831040000000005,-0.28357062,1003.5234,1,3
65.52,-8.366415,5.1927347,0.11885375,1003.5157,1,3
65.56,-8.232358999999999,5.0783324,-0.15098699999999998,1003.50574,1,3
65.6,-8.16065,5.0211334,-0.24093972,1003.5261,1,3
65.64,-8.45699,4.868603,-0.008953121,1003.5337,1,3
65.68,-8.557359,4.844771,-0.2267351,1003.49835,1,3
65.72,-8.308802,4.9925337,-0.24093755,1003.4985,1,3
65.76,-8.194074,4.7971044,-0.40664065,1003.4884,1,3
65.8,-8.1558275,4.944867,-0.2362013,1003.50354,1,3
65.84,-8.514306,4.758971,-0.14151263,1003.51605,1,3
65.88,-8.547756,4.744672,-0.061026942,1003.4909,1,3
65.92,-8.375672,4.7875705,0.118881404,1003.4884,1,3
65.96,-8.117554,4.830468700000001,-0.29774535,1003.4859,1,3
66.0,-8.681564999999999,4.763737,-0.3498232,1003.4558,1,3
66.04,-8.389985000000001,4.730371,-0.40190062,1003.4231,1,3
66.08,-8.394756,4.8400016,-0.05628838,1003.4683,1,3
66.12,-8.495123,4.925799400000002,-0.52972794,1003.44086,1,3
66.16,-8.428198,4.925799400000002,-0.4918520000000001,1003.4384,1,3
66.2,-8.418629,4.7542033,-0.29774055,1003.4231,1,3
66.24,-8.66239,4.5921397000000015,-0.29300532,1003.44086,1,3
66.28,-8.389933000000001,4.8495339999999985,-0.27406698,1003.3957,1,3
66.32,-8.256089,4.882899299999999,-0.31194136,1003.4256,1,3
66.36,-8.284759,4.8876657,-0.16043964,1003.4057,1,3
66.4,-8.361227,4.6684036,-0.27406457,1003.4057,1,3
66.44,-8.270403,4.7399025,-0.4823776,1003.40076,1,3
66.48,-8.647999,4.6731696,-0.3924231,1003.36804,1,3
66.52,-8.38988,4.787567,-0.43029752,1003.378,1,3
66.56,-8.0365505,4.954406,-0.046845067,1003.3781,1,3
66.6,-8.222968,4.8876743,-0.16047128,1003.353,1,3
66.64,-8.399828,4.9877725,-0.35931686,1003.36053,1,3
66.68,-8.548007,4.9877725,-0.31197342,1003.33276,1,3
66.72,-8.571913,5.0449715,-0.6149759,1003.3533,1,3
66.76,-8.414186,4.854309,-0.4256002,1003.3533,1,3
66.8,-8.237338000000001,4.96394,-0.3025063,1003.3608,1,3
66.84,-8.438097,4.8018765,-0.11313072,1003.34033,1,3
66.88,-8.567157,4.859076,-0.5297588000000001,1003.313,1,3
66.92,-8.438108999999999,4.797111,-0.4113993,1003.3256,1,3
66.96,-8.686665,4.782811,-0.22202368,1003.34045,1,3
67.0,-8.25649,4.901975599999999,-0.09419535,1003.3027,1,3
67.04,-7.8645515,4.9210415,-0.57237077,1003.2976,1,3
67.08,-8.466812,4.7017803,-0.31671348,1003.3231,1,3
67.12,-8.528955999999999,4.5301843,-0.468215,1003.29034,1,3
67.16,-8.557642,4.5635505,-0.31198022,1003.313,1,3
67.2,-8.366456,4.6350484000000005,-0.12733904,1003.3079,1,3
67.24,-8.309105,4.878144,0.028895766,1003.27527,1,3
67.28,-8.395147,4.9115095,-0.094199374,1003.3029,1,3
67.32,-8.600684,4.9639419999999985,-0.17468481,1003.2755,1,3
67.36,-8.667608999999999,4.7017817000000015,-0.43981203,1003.28033,1,3
67.4,-8.529,4.816179,-0.17942034,1003.2958,1,3
67.44,-8.395172,4.9401093000000005,-0.06579518,1003.28564,1,3
67.48,-8.495555,4.9973083,-0.07053022,1003.2555,1,3
67.52,-8.242229,5.040208,-0.18415643,1003.26294,1,3
67.56,-8.343028,4.754225,-0.22207026,1003.2454,1,3
67.6,-8.634619,4.5587964,-0.22207235,1003.24536,1,3
67.64,-8.515145,4.6350612999999985,-0.14632386,1003.2404,1,3
67.68,-8.280957,4.7494593,-0.12738834,1003.2429,1,3
67.72,-8.266639999999999,4.830491,-0.12739028,1003.2477,1,3
67.76,-8.33358,4.7780595,-0.10372035,1003.2251,1,3
67.8,-8.462658,4.625531,-0.108457,1003.2127,1,3
67.84,-8.47224,4.6827296999999986,-0.15580298,1003.2153,1,3
67.88,-8.352766,4.921058,-0.37358755,1003.2027,1,3
67.92,-8.491404,4.9448915,-0.2315575,1003.2027,1,3
67.96,-8.802114,4.873394,-0.31204447,1003.22284,1,3
68.0,-8.219,4.9925585,-0.18421765,1003.2002,1,3
68.04,-8.176003999999999,4.882928,0.085641325,1003.1928,1,3
68.08,-8.615769,4.7018,-0.17948742,1003.16986,1,3
68.12,-8.649248,4.635068,-0.29311493,1003.1549,1,3
68.16,-8.720967,4.6684345999999985,-0.20316339,1003.1877,1,3
68.2,-8.26213,4.963961599999998,-0.113211766,1003.1826,1,3
68.24,-8.118757,5.0211606,-0.16055778,1003.1625,1,3
68.28,-8.309974,4.668436,-0.032731075,1003.1826,1,3
68.32,-8.553765,4.4253426,-0.14162447,1003.1449,1,3
68.36,-8.792778,4.339545200000001,-0.16056405,1003.1524,1,3
68.4,-8.515573,4.763768700000001,-0.061143626,1003.1524,1,3
68.44,-8.448675,4.9687314,-0.43042916,1003.13983,1,3
68.48,-8.16191,4.9734983,-0.21738301,1003.14246,1,3
68.52,-8.324447,4.7590046,-0.22211950000000005,1003.1299,1,3
68.56,-8.950305,4.573101,-0.5203599,1003.1273,1,3
68.6,-8.457996000000001,4.806663,-0.44934478,1003.13495,1,3
68.64,-8.625299,4.7685304,-0.17948467,1003.1323,1,3
68.68,-8.324182,4.9210606,-0.4966907,1003.1425,1,3
68.72,-8.424566,4.9019947,-0.15581444,1003.10986,1,3
68.76,-8.419797,4.6255345000000005,-0.44461408,1003.10974,1,3
68.8,-8.787852,4.353841,-0.39727095,1003.11475,1,3
68.84,-8.386357,4.506371499999998,-0.37833413,1003.0821,1,3
68.88,-8.266872,4.6160026,-0.23630296,1003.07965,1,3
68.92,-8.400718,4.6922674,-0.35466394,1003.0973,1,3
68.96,-8.185636500000001,4.549271,-0.38780576,1003.0871,1,3
69.0,-8.372058,4.4730062,-0.33099374,1003.1176,1,3
69.04,-8.152199000000001,4.639836,-0.5345741999999999,1003.0721,1,3
69.08,-8.505914,4.4444075,-0.47302777,1003.10754,1,3
69.12,-8.3434105,4.5063734,-0.1416204,1003.0799,1,3
69.16,-8.386438,4.549272,-0.24104376,1003.095,1,3
69.2,-8.276513000000001,4.639837,-0.4446241,1003.06995,1,3
69.24,-8.353,4.534973,-0.47776586,1003.0776,1,3
69.28,-8.324330999999999,4.5349736,-0.22684328,1003.0495,1,3
69.32,-8.34346,4.3586106,-0.35467312,1003.06714,1,3
69.36,-8.266993,4.5254407,-0.39254925,1003.0523,1,3
69.4,-8.376938,4.534974,-0.3120653,1003.0272,1,3
69.44,-7.9372067,4.549274,-0.47303593,1003.0246,1,3
69.48,-7.9085383,4.377678,0.009872368,1003.0219,1,3
69.52,-8.195335,4.172716599999998,-0.26945844,1003.03723,1,3
69.56,-8.419996000000001,4.16795,-0.5440548000000001,1003.012,1,3
69.6,-8.047182000000001,4.3919787,-0.5961342,1002.99677,1,3
69.64,-8.032853,4.368146,-0.16056988,1003.02686,1,3
69.68,-7.913367299999999,4.5683413,-0.15110192,1003.03705,1,3
69.72,-8.233625,4.263282,-0.12269649,1003.0096,1,3
69.76,-8.042442,4.1917844,-0.32627675,1003.01715,1,3
69.8,-8.032892,4.144119,-0.5203882000000001,1003.0094,1,3
69.84,-8.123717999999998,3.9534569,-0.8707351000000001,1003.012,1,3
69.88,-8.405736,3.8438263,-0.7287039000000001,1003.02716,1,3
69.92,-8.228895,4.196552,-0.7097671999999999,1003.0325,1,3
69.96,-8.07117,4.225151,-0.4730478,1003.0044,1,3
70.0,-7.870430000000002,4.215618,-0.31681347,1002.99445,1,3
70.04,-8.271942,3.9915903,0.0998133,1003.0094,1,3
70.08,-8.176356,4.02019,-0.42097214,1002.96155,1,3
70.12,-8.166807,3.9200928,-0.08009596,1002.97675,1,3
70.16,-8.061661,4.1774864,-0.103768855,1003.02466,1,3
70.2,-7.9326177,4.1488876,-0.51092863,1002.97675,1,3
70.24,-8.310231,4.1679544,-0.54407036,1002.9945,1,3
70.28,-7.8657193,4.2537527000000015,-0.5014616,1002.96686,1,3
70.32,-8.142958,4.187021,-0.43044636,1002.98444,1,3
70.36,-8.047372,4.272819,-0.43044737,1002.96924,1,3
70.4,-8.052162,4.3586173,-0.31682256,1002.9819,1,3
70.44,-7.947016199999997,4.5397468,-0.34996426,1002.9923,1,3
70.48,-7.688916000000001,4.6541443,-0.77132714,1002.97437,1,3
70.52,-7.999613,4.4015174,-0.9038914,1002.97974,1,3
70.56,-8.357758500000001,4.129815,-0.32152855,1002.97925,1,3
70.6,-8.166561999999999,4.144115,-0.15582404,1002.98694,1,3
70.64,-8.109200999999999,4.2013135,-0.17002691,1002.97925,1,3
70.68,-8.080519,4.401509,-0.1558234,1002.9667,1,3
70.72,-8.066175,4.4301076,-0.4446217000000001,1002.96924,1,3
70.76,-8.333839999999999,4.401509,-0.63873196,1002.9772,1,3
70.8,-8.462892,4.2918773,-0.26944804,1002.95667,1,3
70.84,-8.214338,4.310943599999999,-0.5724496,1002.98724,1,3
70.88,-8.520242,4.2585120000000005,-0.23157214,1002.97217,1,3
70.92,-8.018359,4.515905,-0.16055574,1002.97473,1,3
70.96,-8.290804,4.430107,-0.25997788,1002.97723,1,3
71.0,-8.391175,4.31571,-0.23630549,1002.9798,1,3
71.04,-8.525006,4.153647,-0.340462,1002.98224,1,3
71.08,-8.558461,4.248978,-0.30258644,1002.99725,1,3
71.12,-8.338588,4.3967410000000005,-0.38780546,1002.9948,1,3
71.16,-8.367263000000001,4.477772,-0.17949125,1002.98474,1,3
71.2,-8.271661,4.482539,-0.35466385,1003.01495,1,3
71.24,-8.544107,4.43964,-0.06586489,1002.95935,1,3
71.28,-8.419828,4.5826364,-0.2363031,1002.96466,1,3
71.32,-8.529760000000001,4.406273400000001,-0.43041334,1002.96967,1,3
71.36,-8.725728,4.3633747000000005,-0.48249143,1002.9923,1,3
71.4,-8.376799,4.506371499999998,-0.15581718,1003.0049,1,3
71.44,-8.214282,4.5921693,-0.47302192,1002.96967,1,3
71.48,-8.534525,4.544503,-0.52983445,1002.98224,1,3
71.52,-8.644456,4.5731025,-0.35466114,1002.9949,1,3
71.56,-8.687789,4.453946599999999,-0.5345973,1002.97974,1,3
71.6,-8.491827,4.592177,-0.43517563,1002.9722,1,3
71.64,-8.257625,4.6493764,-0.22686262,1002.97723,1,3
71.68,-8.467943,4.744707,-0.35469225,1002.9571,1,3
71.72,-8.53009,4.544512,-0.47778767,1002.94714,1,3
71.76,-8.678272999999999,4.444414599999999,-0.43517876,1002.97473,1,3
71.8,-8.463189999999999,4.5826445,-0.42097637,1002.97217,1,3
71.84,-8.740428999999999,4.6303105,-0.43991482,1003.00494,1,3
71.88,-8.396291,4.849572,-0.54407245,1002.96497,1,3
71.92,-8.238565,4.806674,-0.46832287,1002.99225,1,3
71.96,-8.539702,4.5731125,-0.3452291,1002.9924,1,3
72.0,-8.687884,4.496848,-0.42098036,1002.97754,1,3
72.04,-8.716574000000001,4.463482,-0.4257156,1002.9748,1,3
72.08,-8.396335,4.763775,-0.48252922,1002.9798,1,3
72.12,-8.272067999999999,4.782842,-0.7713287,1002.9827,1,3
72.16,-8.453710000000001,4.6779776,-0.39257717,1002.9724,1,3
72.2,-8.577994,4.601713,-0.53461015,1002.9901,1,3
72.24,-8.678378,4.482549,-0.4920013,1002.9396,1,3
72.28,-8.573231,4.5731144,-0.35470423,1002.97754,1,3
72.32,-8.558900999999999,4.539748,-0.5109405,1002.96246,0,0
72.36,-8.597147999999999,4.7399445,-0.5961605999999999,1002.9599,0,0
72.4,-8.233891999999999,4.8066764000000015,-0.44939485,1002.98553,0,0
72.44,-8.4059725,4.7065782999999985,-0.36891073,1002.985,0,0
72.48,-8.654532000000001,4.5683484000000005,-0.39258358,1002.9901,0,0
72.52,-8.544604,4.673213,-0.50147563,1002.9726,0,0
72.56,-8.439204,4.7828383,-0.5156564,1002.9825,0,0
72.6,-8.443982,4.7542386,-0.5061875,1002.975,0,0
72.64,-8.4869995,4.7065730000000014,-0.38782725,1002.96265,0,0
72.68,-8.501338,4.658907,-0.32154545,1002.9956,0,0
72.72,-8.448758,4.587409,-0.32154536,1002.97534,0,0
72.76,-8.496554,4.830503,-0.22212271,1002.9649,0,0
72.8,-8.501334,4.8495693,-0.37362358,1002.95984,0,0
72.84,-8.491774000000001,4.954434,-0.4872492,1002.9653,0,0
72.88,-8.434413000000001,4.8591027,-0.43990502,1002.9452,0,0
72.92,-8.357935000000001,4.7399387000000015,-0.21738784,1002.99304,0,0
72.96,-8.558686,4.5492764,0.028801288,1002.9954,0,0
73.0,-8.486988,4.6303077,-0.420967,1002.99567,0,0
73.04,-8.510885,4.725639,-0.38309172,1002.9705,0,0
73.08,-8.463086,4.763771,-0.28840348,1002.9781,0,0
73.12,-8.410507,4.735172,-0.03747994,1002.99316,0,0
73.16,-8.491763,4.682739700000001,-0.48724824,1002.96783,0,0
73.2,-8.305349,4.692273,-0.56299865,1002.9756,0,0
73.24,-8.649493,4.6827393,-0.46831036,1002.99347,0,0
73.28,-8.224089999999999,4.8257365,-0.7618433000000001,1002.99835,0,0
73.32,-8.353144,5.087897,-0.31680924,1002.94543,0,0
73.36,-8.544334,4.887702,-0.17477696,1002.98334,0,0
73.4,-8.228866,4.749471,-0.82812476,1002.98334,0,0
73.44,-8.314900999999999,4.5635757,-0.7239678,1002.9605,0,0
73.48,-8.549111,4.5349765,-0.9559534,1002.97064,0,0
73.52,-8.563449,4.6779733,-1.1216575,1002.98596,0,0
73.56,-8.645211,4.9973445,-0.76662356,1002.9555,0,0
73.6,-8.076433999999999,5.1880074,-0.6435306,1002.97815,0,0
73.64,-8.305883,5.0307117,-0.18429513,1002.99585,0,0
73.68,-8.258104,4.7685513,-0.6577373000000001,1002.9634,0,0
73.72,-8.81736,4.616022,-0.51097256,1002.98865,0,0
73.76,-8.315499,5.049779,-0.60092795,1002.956,0,0
73.8,-8.167344,5.106978400000001,-0.69561774,1002.9609,0,0
73.84,-8.258178,4.944916,-0.17010045,1002.9939,0,0
73.88,-8.382473,4.7780867,0.18024369,1003.02124,0,0
73.92,-8.210419,4.9020176,-0.18904166,1002.9862,0,0
73.96,-8.678856,4.8686523,-0.2411216,1002.9634,0,0
74.0,-8.650198,5.126046700000002,-0.59146935,1002.9534,0,0
74.04,-7.861548399999997,5.0593157,-0.65301824,1002.9686,0,0
74.08,-8.339549,4.873420200000001,-0.76664585,1002.9685,0,0
74.12,-8.779307000000001,4.7780895,0.09501415,1002.97644,0,0
74.16,-7.4601007,5.3977427,-0.52519447,1002.9788,0,0
74.2,-8.416081,5.2595124,-1.0980594,1002.98645,0,0
74.24,-8.258366,5.0545516,-1.4436726999999998,1002.9664,0,0
74.28,-8.291843,4.8638897000000005,-0.31688592,1003.0194,0,0
74.32,-9.06619,4.5254645,-0.2553404,1002.99646,0,0
74.36,-8.56911,4.787625299999998,-0.38317105,1002.97894,0,0
74.4,-7.8330392999999985,4.963989,-0.57254905,1002.9817,0,0
74.44,-8.325378,4.773327,-1.0649289,1002.9739,0,0
74.48,-8.96589,4.4778004000000005,-0.7098501,1002.9741,0,0
74.52,-8.913328,4.568365,-0.3121616,1002.98645,0,0
74.56,-8.033358,5.0021105000000015,-0.5772437,1002.9741,0,0
74.6,-7.9282007,5.035476,-0.6435251999999999,1002.9766,0,0
74.64,-8.516114,5.0497755999999985,-0.12274057,1002.99176,0,0
74.68,-7.990336,5.011643,-0.6056497,1002.98694,0,0
74.72,-8.301022,5.059309,-0.85657305,1002.97687,0,0
74.76,-8.3583765,4.963978,-0.9512611,1002.9794,0,0
74.8,-8.329697,4.811448,-1.0270115,1002.949,0,0
74.84,-8.669063000000001,4.8257474999999985,0.12818344,1003.0294,0,0
74.88,-7.980769,5.078375,-0.36892894,1002.97186,0,0
74.92,-8.214978,5.378668,-0.009114068,1002.96674,0,0
74.96,-7.8947306,5.5264316,-0.33105347,1002.98944,0,0
75.0,-8.171958,5.4025006,-0.6056488,1002.96936,0,0
75.04,-8.530441,5.0307097,-0.4304757000000001,1002.98193,0,0
75.08,-8.224533000000001,4.959210400000001,-0.12273933,1002.99695,0,0
75.12,-8.310569000000001,4.902012,-0.37839708,1002.98193,0,0
75.16,-8.191072,5.0068765,-0.13694233,1002.98193,0,0
75.2,-8.014218,5.130806400000001,-0.36419362,1002.97174,0,0
75.24,-8.4444,5.102207,-0.51096004,1002.97437,0,0
75.28,-8.430059,5.0831413,-0.39259985,1002.9946,0,0
75.32,-8.085911,5.3929677000000025,-0.29317716,1002.9996,0,0
75.36,-7.8325809999999985,5.335768700000001,-0.5109597,1002.97943,0,0
75.4,-8.219744,5.0450087,-0.6245853,1002.97943,0,0
75.44,-8.224522,4.9782769999999985,-0.49675632,1002.9391,0,0
75.48,-8.48263,5.049775,-0.46834975,1002.97955,0,0
75.52,-8.018988,5.249971,-0.41627115,1002.9493,0,0
75.56,-7.975778599999999,5.2309,-0.3073623,1002.99475,0,0
75.6,-8.20042,5.2499660000000015,-0.34523675,1002.97455,0,0
75.64,-8.119155000000001,5.326230000000002,-0.368908,1002.972,0,0
75.68,-8.133486,5.330997,-0.5014705,1002.967,0,0
75.72,-8.023541999999999,5.3738956,-0.3925785,1002.98987,0,0
75.76,-8.0856695,5.302397,-0.5204065,1002.97955,0,0
75.8,-8.558863,5.235665,-0.21266952,1002.97955,0,0
75.84,-7.880121000000001,5.416794,-0.5488113,1002.9722,0,0
75.88,-8.186017999999999,5.0497684000000005,-0.061166715,1002.97455,0,0
75.92,-8.176451,5.097434,-0.21266708,1002.9798,0,0
75.96,-8.229018,5.25473,-0.34522936,1002.9921,0,0
76.0,-8.22901,5.302396,-0.41151026,1002.9924,0,0
76.04,-8.233782000000001,5.3262277000000005,-0.19846132,1002.9622,0,0
76.08,-8.219433,5.39296,-0.22213249,1002.9697,0,0
76.12,-7.9899936,5.678953,-0.023286637,1002.99005,0,0
76.16,-7.860932400000001,5.6074543,-0.06116132,1002.99005,0,0
76.2,-7.7701054,5.407259,-0.28367734,1002.9672,0,0
76.24,-8.362793,5.0688330000000015,-0.61035055,1002.9798,0,0
76.28,-8.534858999999999,5.078366,-0.60088104,1002.99005,0,0
76.32,-8.138125,5.3738923,-0.49198896,1002.9724,0,0
76.36,-7.736612299999999,5.655119,-0.23159574,1002.9928,0,0
76.4,-7.6218910000000015,5.6694182999999985,-0.32154882,1002.9748,0,0
76.44,-8.491806,5.1975292999999985,-0.30734476,1002.9775,0,0
76.48,-8.381861,5.2833266,-0.4162352,1002.98004,0,0
76.52,-7.841733500000001,5.473989,-0.728705,1002.9752,0,0
76.56,-7.885826,5.450183,-0.6719904999999999,1002.94006,0,0
76.6,-7.9432178,5.273820400000001,-0.4494767,1002.9953,0,0
76.64,-8.038839,5.1832566,-0.35952532,1002.9672,0,0
76.68,-8.067563999999999,5.302422,-0.5773121,1002.9802,0,0
76.72,-8.110616,5.426353,-0.5110336,1002.9928,0,0
76.76,-8.244480000000001,5.5121517,-0.51577073,1002.96515,0,0
76.8,-7.948161,5.726648,-0.61519575,1002.97015,0,0
76.84,-7.938644,5.4692545,-0.5915275999999999,1002.99304,0,0
76.88,-7.957795,5.3167257,-0.41162315,1002.99286,0,0
76.92,-8.149013,5.216628599999999,-0.53472006,1002.9677,0,0
76.96,-8.239869,5.087932,-0.65308386,1002.9727,0,0
77.0,-7.929217299999999,5.326261,-0.69569665,1002.9627,0,0
77.04,-8.072645,5.3643947,-0.686231,1002.9881,0,0
77.08,-8.0057535,5.493092,-0.57734203,1002.9727,0,0
77.12,-8.115724,5.350096,-0.65783006,1002.98553,0,0
77.16,-8.26394,5.245233,-0.6815060000000001,1002.97534,0,0
77.2,-7.8481274,5.4692615999999985,-0.63416475,1002.9653,0,0
77.24,-7.6713023,5.712357,-1.050795,1002.978,0,0
77.28,-7.833849400000001,5.674225,-1.225971,1002.9605,0,0
77.32,-7.9964046,5.5216965999999985,-0.65784615,1002.978,0,0
77.36,-7.876942999999999,5.2404704,-0.619974,1002.978,0,0
77.4,-8.168543,5.288137,-0.26489666,1002.973,0,0
77.44,-7.9726050000000015,5.531232,-0.9513885,1002.97034,0,0
77.48,-7.709751,5.65993,-0.9135164,1002.98083,0,0
77.52,-7.967896,5.626565,-0.8046283000000001,1002.97833,0,0
77.56,-8.230114,5.4883184,-0.6483315,1002.98584,0,0
77.6,-7.838176299999999,5.56935,-0.58678484,1002.97784,0,0
77.64,-8.034154,5.4549522,-0.4494877000000001,1002.9755,0,0
77.68,-8.005482,5.3214893,-0.65780205,1002.99347,0,0
77.72,-7.924231,5.4454203,-0.733553,1002.96826,0,0
77.76,-8.273163,5.5645843,-0.9702739,1002.97565,0,0
77.8,-7.618336,5.821978,-0.87558633,1002.98083,0,0
77.84,-7.3745728,5.5407515,-0.62939787,1002.98584,0,0
77.88,-8.316199000000001,5.249992,-0.18909882,1003.00616,0,0
77.92,-8.1728115,5.2881246,-0.37374118,1002.99066,0,0
77.96,-8.220616,5.4072886,-0.49210197,1002.9859,0,0
78.0,-7.838238700000002,5.702814599999999,-0.5678529999999999,1003.0009,0,0
78.04,-7.7139697,5.721882,-0.50157183,1002.9884,0,0
78.08,-7.8956084,5.6456165,-0.47316593,1002.96826,0,0
78.12,-8.129826,5.3977556,-0.39268166,1002.9909,0,0
78.16,-8.249327000000001,5.2309265,-0.2932597,1002.97064,0,0
78.2,-7.886067999999999,5.2642927,-0.4210892,1002.9781,0,0
78.24,-8.125064,5.478787400000001,-0.387949,1002.9934,0,0
78.28,-8.105951,5.4454226,-0.7004201999999999,1003.00616,0,0
78.32,-7.890866,5.626551,-0.43055978,1002.99603,0,0
78.36,-7.8574147,5.478788,-0.14176165,1003.00104,0,0
78.4,-8.043833,5.445423,-0.41162327,1002.9985,0,0
78.44,-8.153773,5.3500915,-0.3027325,1002.9984,0,0
78.48,-7.991267,5.493088200000001,-0.45423406,1002.9809,0,0
78.52,-8.06297,5.493088200000001,-0.63887644,1002.95575,0,0
78.56,-7.8634057,5.6647134,-0.6863292,1002.97327,0,0
78.6,-8.164589,5.4788194,-0.55850536,1002.97833,0,0
78.64,-8.002127,5.4549875,-0.55377555,1002.9809,0,0
78.68,-7.93526,5.5026546,-0.86625075,1002.9683,0,0
78.72,-8.030909,5.3930254,-0.88519335,1002.99347,0,0
78.76,-8.203033999999999,5.3644266,-0.67688435,1002.9959,0,0
78.8,-8.016676,5.2547975,-0.5395915,1002.98584,0,0
78.84,-7.9450283,5.3310637000000005,-0.2081878,1002.98334,0,0
78.88,-7.7730083,5.474062,-0.0661605,1003.0035,0,0
78.92,-8.174565,5.5550942,-0.051962156,1002.96326,0,0
78.96,-8.155499,5.5026636,-0.13245195,1002.9834,0,0
79.0,-7.849645,5.569397,-0.028299887000000006,1002.9784,0,0
79.04,-8.107804,5.4645333,-0.009366844,1002.9859,0,0
79.08,-8.136536999999999,5.4597690000000005,-0.6201099,1002.98846,0,0
79.12,-7.9549575,5.464536,-0.5206923,1002.9781,0,0
79.16,-8.13664,5.359673,-0.3597271,1002.98083,0,0
79.2,-7.8260064,5.431173,-0.14194936,1002.9733,0,0
79.24,-8.117628,5.4216413,-0.20350154,1003.01105,0,0
79.28,-8.466602,5.3930435,-0.5254456000000001,1002.9482,0,0
79.32,-7.921759,5.5265083,-0.70535785,1002.97064,0,0
79.36,-8.050866000000001,5.559875,-0.65328425,1002.9985,0,0
79.4,-8.117834,5.5980089999999985,-0.3455525,1002.9858,0,0
79.44,-7.8932395,5.6409097,-0.21772878,1002.9809,0,0
79.48,-8.0988245,5.4597816,-0.6059549,1002.9606,0,0
79.52,-8.041513,5.1737895,-0.5633495,1003.0035,0,0
79.56,-8.206821000000001,5.006911,-0.7383407,1002.9783,0,0
79.6,-8.015599,4.9973774,-0.40219525,1003.001,0,0
79.64,-8.025133,5.1451397000000005,-0.25069195,1002.9758,0,0
79.68,-8.058563000000001,5.250004,-0.41165912,1003.006,0,0
79.72,-7.9103637,5.407299,-0.32170308,1002.9932,0,0
79.76,-8.158885,5.412065,-0.26488766,1002.9706,0,0
79.8,-7.8577309999999985,5.5598273,-0.7667321,1002.9683,0,0
79.84,-8.096689999999999,5.3643975,-0.4542586,1002.96326,0,0
79.88,-8.283076,5.197568,-0.41638094,1002.99335,0,0
79.92,-8.412104,5.040271,-0.2696119,1002.9934,0,0
79.96,-8.153967,5.2738314000000015,-0.15598375,1003.0085,0,0
80.0,-8.015326,5.5264583,-0.3690294,1002.98083,0,0
80.04,-7.876685,5.726653,-0.5631376,1002.9884,0,0
80.08,-7.847976700000001,5.6789865,-0.6294166,1002.963,0,0
80.12,-8.039144,5.4549575,-0.6814925999999999,1003.0035,0,0
80.16,-8.120372999999999,5.2499957,-0.6862246999999999,1002.9856,0,0
80.2,-8.101227,5.345326,-0.26486006,1002.98334,0,0
80.24,-7.924344,5.612252,-0.752501,1002.96533,0,0
80.28,-7.976896000000001,5.712349400000001,-0.8377180000000001,1002.9806,0,0
80.32,-7.9051714,5.507386,-0.9513411,1003.00073,0,0
80.36,-7.857345,5.431121,-0.7051495,1002.98816,0,0
80.4,-8.144109,5.2595243,-0.4731614000000001,1002.98315,0,0
80.44,-7.900309599999999,5.340555,-0.5867844,1002.9856,0,0
80.48,-7.881162,5.4549513,-0.5820474,1003.003,0,0
80.52,-8.005411,5.48355,-0.54890424,1002.9758,0,0
80.56,-8.001017,5.6027239999999985,-0.6152211999999999,1002.9677,0,0
80.6,-7.90063,5.493093,-0.5631417,1002.98315,0,0
80.64,-8.254323,5.326263,-0.36903006,1002.98816,0,0
80.68,-8.120478,5.2499980000000015,-0.23646577,1002.98535,0,0
80.72,-7.8384585000000015,5.4835587,-0.36902806,1002.9804,0,0
80.76,-8.086998,5.4644923,-0.6341538000000001,1002.97284,0,0
80.8,-8.120444,5.483558,-0.43057328,1002.9981,0,0
80.84,-7.9674807,5.545523,-0.31221226,1003.0031,0,0
80.88,-7.8336324999999984,5.569356,-0.44003996,1002.98773,0,0
80.92,-8.082172,5.397759400000001,-0.25066277,1002.9853,0,0
80.96,-8.048702,5.340560400000001,-0.36902183,1002.98755,0,0
81.0,-8.091709,5.4215918,-0.36428642,1002.9852,0,0
81.04,-7.957864,5.3834589999999976,-0.68149054,1002.99786,0,0
81.08,-8.125146,5.264295,-0.63887995,1002.95264,0,0
81.12,-7.9482813,5.292894,-0.49684668,1002.9903,0,0
81.16,-8.41191,5.0974646,-0.50158,1002.9802,0,0
81.2,-8.153789999999999,5.302427,-0.7809089,1002.95264,0,0
81.24,-8.254154,5.164196,-0.75723594,1003.00287,0,0
81.28,-8.258924,5.0593314000000005,-0.76196915,1002.9878,0,0
81.32,-8.254133,4.9925995,-0.4921072,1002.98505,0,0
81.36,-8.120286,4.859136,-0.3311363,1002.9599,0,0
81.4,-8.292349,4.768571,-0.1796344,1002.9775,0,0
81.44,-8.263658,4.930633,-0.20803975,1002.96246,0,0
81.48,-8.0963545,4.897267299999998,-0.53944707,1002.98004,0,0
81.52,-8.407029,4.873434,-0.6814781999999999,1002.9924,0,0
81.56,-8.134889,4.8543754,-0.8945546,1002.98224,1,4
81.6,-8.091872,5.0879364,-0.6199591999999999,1002.9622,1,4
81.64,-8.197028,5.0069050000000015,-1.0839311000000005,1002.9873,1,4
81.68,-8.345203,4.978306,-1.1691504,1002.9672,1,4
81.72,-8.187471,4.639880000000002,-0.8756174000000001,1002.9647,1,4
81.76,-8.197032,4.201357,-1.1975572,1002.9773,1,4
81.8,-8.641556,3.8247993,-0.94189936,1002.98694,1,4
81.84,-8.240053,4.3681865,-0.5584127,1002.98737,1,4
81.88,-8.024964,5.340564700000002,0.26537365,1002.9872,1,4
81.92,-7.6760397,6.0078825999999985,0.45474973,1003.0073,1,4
81.96,-8.16836,5.6503906,0.18015416,1002.9618,1,4
82.0,-8.90923,5.378697,0.37899902,1002.957,1,4
82.04,-8.354775,5.135603,-0.08970713599999999,1002.9773,1,4
82.08,-8.412134,5.4072967000000025,0.27484190000000003,1002.99475,1,4
82.12,-8.05365,6.0412483,0.4594836,1002.9669,1,4
82.16,-7.934157000000001,6.541737,0.8761110999999999,1002.97675,1,4
82.2,-7.6473694,7.027926,0.79562604,1003.0045,1,4
82.24,-8.206608000000001,7.9860039999999985,0.23696622,1002.96686,1,4
82.28,-7.2649875,8.786785,-0.46372575,1002.97925,1,4
82.32,-7.1168146,8.686687,0.7198753000000001,1002.9593,1,4
82.36,-7.594796,7.704777,-0.21753697,1002.97174,1,4
82.4,-6.9447446,6.1413470000000006,-1.7183433999999995,1002.9493,1,4
82.44,-7.32235,5.521694,-1.5242329,1002.97186,1,4
82.48,-7.284113400000002,5.6408580000000015,0.2985128,1002.9794,1,4
82.52,-5.19534,6.6942673,-2.1018305,1002.9213,1,4
82.56,-7.2547035000000015,5.450178,-2.035482,1002.9568,1,4
82.6,-8.220198,4.573131,-0.39737546,1003.0271,1,4
82.64,-7.001318,4.315736,-1.2827065,1002.9618,1,4
82.68,-7.441036,3.781881,-1.5241588,1002.9643,1,4
82.72,-8.009803,3.9201107,-1.1832790000000002,1002.95654,1,4
82.76,-7.842484,5.188014,-1.4105281,1002.9767,1,4
82.8,-6.528008,6.0126269999999975,-2.381078,1002.95123,1,4
82.84,-7.479164599999999,6.279554,-1.8508229,1002.95654,1,4
82.88,-7.2497077,6.4892817,-2.5988562,1002.944,1,4
82.92,-8.310792999999999,5.9172945,-3.7067041,1002.93616,1,4
82.96,-12.784662,5.1689440000000015,-1.53361,1003.01685,1,4
83.0,-8.435013,6.732374,0.3554201,1003.0116,1,4
83.04,-4.91227,7.2471619999999985,-0.45889494,1002.94867,1,4
83.08,-6.8385034,7.604652400000001,0.75784963,1003.0041,1,4
83.12,-5.8395,7.194728,-0.39734292,1002.9563,1,4
83.16,-7.593660000000002,5.6360636,0.26074192,1002.9713,1,4
83.2,-9.859257,4.4348903,1.3496576999999998,1003.0014,1,4
83.24,-7.7943544,5.14034,0.19446552,1002.9636,1,4
83.28,-7.325906,5.6455946,1.0561298,1002.9913,1,4
83.32,-6.532432,5.788591,0.8146774999999999,1002.9788,1,4
83.36,-5.987506400000001,5.7647567,1.0750723,1002.9788,1,4
83.4,-5.9874806,6.0316834,0.4690709,1002.941,1,4
83.44,-5.958773000000001,5.7123237,-0.9181071,1002.9385,1,4
83.48,-8.783609,5.7266226,0.2654966,1002.9711,1,4
83.52,-9.361937,6.0221486,-0.023299363,1002.96857,1,4
83.56,-10.532962,5.9697156,-1.8081677,1002.918,1,4
83.6,-9.543515,6.007848,-1.0790668,1002.95575,1,4
83.64,-6.661267,6.498802,-1.7371466,1002.93823,1,4
83.68,-7.9613476,5.764752,-0.6955751,1002.958,1,4
83.72,-9.266204,4.4396486,-1.1216688,1002.9684,1,4
83.76,-7.564567599999997,4.4634800000000014,-1.4009963,1002.9455,1,4
83.8,-6.7710943,4.105988,-0.43990976,1002.9532,1,4
83.84,-7.607532000000001,3.2813733,0.09981494,1002.963,1,4
83.88,-8.39617,3.0907102,0.28919384,1002.9555,1,4
83.92,-8.76897,3.6960626,-0.7381698,1002.9655,1,4
83.96,-8.75938,5.0545300000000015,-1.2258108,1002.95044,1,4
84.0,-10.312791,4.768536,-0.061144743,1002.9555,1,4
84.04,-8.210803,6.389193,-1.2401148000000002,1002.9379,1,4
84.08,-8.626650999999999,6.3081616999999985,-0.47314143,1002.9451,1,4
84.12,-8.980358,5.4311147,0.009767555,1002.99304,1,4
84.16,-8.358988,4.8162293,0.3269723,1002.95795,1,4
84.2,-8.196477,4.878195,1.1176175,1002.97784,1,4
84.24,-8.081767,5.1117563,1.3211966,1002.96783,1,4
84.28,-8.062650999999999,5.159422,0.9519128,1002.94543,1,4
84.32,-8.067434,5.259519,1.1318197,1002.95795,1,4
84.36,-7.2500906,5.497847599999999,1.5200408,1002.9655,1,4
84.4,-6.6765175,5.5884123,0.5258155,1002.94037,1,4
84.44,-7.737638,5.3071856,0.30329818,1002.93005,1,4
84.48,-7.5655675,5.7361755,0.37431398,1002.95233,1,4
84.52,-6.925077000000001,6.2509637000000025,0.23701587,1002.9627,1,4
84.56,-8.908699,5.869639,0.7009871999999999,1003.0029,1,4
84.6,-9.477499,5.8076744000000025,0.9519104,1003.0157,1,4
