Timestamp,Ax,Ay,Az,P,Value,Type
0.0,2.2973669,4.196507,9.100886,1003.5525,0,0
0.04,2.6127806,4.368104,9.555384,1003.5676,0,0
0.08,2.5505865,4.835228400000001,8.949375,1003.56006,0,0
0.12,2.1585927000000003,4.7303653,8.660571000000001,1003.4968,0,0
0.16,1.7952778000000005,4.773265,9.015647,1003.5194,0,0
0.2,2.182385,5.3738527000000005,9.351786,1003.55255,0,0
0.24,4.041679,6.579793,11.245543,1003.58545,0,0
0.28,5.011925700000001,7.5331054,11.917823,1003.5779,0,0
0.32,5.327339599999998,7.943030999999999,13.754767,1003.5878,0,0
0.36,6.240232,8.453053,12.78421,1003.5856,0,0
0.4,5.8960295,8.314824,9.285479,1003.46643,0,0
0.44,4.146571,7.0755215,6.5347852999999985,1003.44904,0,0
0.48,3.878849,6.632233,3.8977172,1003.40607,0,0
0.52,3.2000637000000003,5.35003,3.00291,1003.411,0,0
0.56,-2.3015442000000004,1.6130513000000002,0.9481735,1003.45154,0,0
0.6,-2.6887548,2.1373737,-1.0876248,1003.444,0,0
0.64,-6.5269904,0.383282,-1.8830098,1003.4416,0,0
0.68,-9.433167999999998,0.08775697,-2.8251612,1003.45935,0,0
0.72,-9.179887,0.9791044,-2.5411017000000005,1003.48706,0,0
0.76,-10.394015,1.7274553,-1.7409922999999998,1003.49475,0,0
0.8,-7.137767,4.720823,-10.097107,1003.5048,0,0
0.84,-7.414999000000001,4.4014645,-0.008090649,1003.59827,0,0
0.88,-8.002919,4.2489343,-1.693539,1003.52747,0,0
0.92,-7.840408999999998,3.1764593,-3.0239072,1003.5225,0,0
0.96,-8.934987,2.4567094,-3.1043925,1003.482,0,0
1.0,-9.642403,1.9895867,-1.8592442,1003.4568,0,0
1.04,-9.078389,2.0038865,-2.3705604,1003.46436,0,0
1.08,-9.522915,2.2946465,-2.6025467,1003.4872,0,0
1.12,-9.6328535,2.3852115,-2.5741405,1003.5327,0,0
1.16,-8.753374,3.357589,-3.0333781,1003.4744,0,0
1.2,-8.519167,3.1001947,-1.9823406000000003,1003.49994,0,0
1.24,-8.619547,3.2574914,-3.3032398,1003.5175,0,0
1.28,-8.036414,3.371889,-2.706705,1003.54285,0,0
1.32,-8.839425,2.9857981,-3.0759892000000004,1003.525,0,0
1.36,-9.202694,2.9285994,-3.038114,1003.54034,0,0
1.4,-8.772515,3.047763,-2.9528954,1003.5657,0,0
1.44,-8.829877999999997,3.667416,-3.0049741,1003.5835,0,0
1.48,-9.011514,3.3909554,-2.9008176,1003.55054,0,0
1.52,-7.658833,3.5101194,-2.4321117,1003.52527,0,0
1.56,-8.968502,3.3718896000000003,-2.7540517,1003.5506,0,0
1.6,-8.84901,3.1240287,-2.697239,1003.5479,0,0
1.64,-8.696061,3.2908585,-2.7067082,1003.57074,0,0
1.68,-8.9159355,3.1859944,-3.0475857000000004,1003.5327,0,0
1.72,-8.839462,3.3432908,-2.97657,1003.5302,0,0
1.76,-8.739091,3.1383288,-2.6877718,1003.52515,0,0
1.8,-8.472999,3.505392,-2.8299482000000005,1003.5253,0,0
1.84,-8.329671000000001,3.309965,-2.7068596,1003.5102,0,0
1.88,-8.764698,3.1812696,-2.967258,1003.50507,0,0
1.92,-8.6739435,3.2861354,-2.938857,1003.54553,0,0
1.96,-8.56407,3.2575376,-3.151911,1003.52545,0,0
2.0,-9.094699,3.1145425,-3.2229335,1003.51276,0,0
2.04,-8.678918,2.9858472000000003,-3.057235,1003.53046,0,0
2.08,-8.559488,3.1526783,-2.8773339,1003.5252,0,0
2.12,-8.66949,3.2766106,-2.9199490000000003,1003.5026,0,0
2.16,-8.80817,3.5054066,-3.0998628,1003.5278,0,0
2.2,-8.492768,3.4911084000000003,-3.25137,1003.54047,0,0
2.24,-8.674468,3.333814,-3.1093438,1003.5177,0,0
2.28,-8.559814,3.2575505,-3.0904117,1003.51794,0,0
2.32,-8.526422,3.1336217,-2.9815264,1003.50507,0,0
2.36,-8.741579,3.2194211,-3.0762205,1003.5077,0,0
2.4,-8.63649,3.3957856,-3.2040553,1003.52783,0,0
2.44,-8.464482,3.4768186,-3.3082185,1003.5355,0,0
2.48,-8.732213,3.124095,-3.1093793,1003.495,0,0
2.52,-8.541086,3.653184,-3.1472604,1003.49255,0,0
2.56,-8.832717,3.5626209,-3.1046562,1003.4597,0,0
2.6,-8.5842285,3.4672914,-3.2040844,1003.5077,0,0
2.64,-8.832844999999997,3.2003663,-3.0478551,1003.4976,0,0
2.68,-8.856810000000003,2.9668064,-3.0099862,1003.4952,0,0
2.72,-8.359776,3.0478394,-2.7353966,1003.4976,0,0
2.76,-8.847386,3.1050398,-2.7164655,1003.4649,0,0
2.8,-9.157589,3.3719550000000003,-2.8063748,1003.4546,0,0
2.84,-8.67487,2.9239,-2.6264713,1003.5154,0,0
2.88,-9.004721,3.2098942000000004,-2.5270529,1003.54065,0,0
2.92,-9.411049,3.1955955,-3.0525758,1003.5634,0,0
2.96,-9.033487,3.043067,-2.6643586,1003.533,0,0
3.0,-8.584230999999999,3.4482257000000005,-2.5649405,1003.51794,0,0
3.04,-8.722887,3.2241986,-2.4087088,1003.5052,0,0
3.08,-9.22959,3.4148614,-2.3282278,1003.4826,0,0
3.12,-8.852027,3.1765347000000004,-2.1009803,1003.5104,0,0
3.16,-8.565281,3.5149615,-1.9021388,1003.48755,0,0
3.2,-8.842557000000003,2.9429758,-2.129395,1003.50006,0,0
3.24,-8.957319,3.2814023,-2.3093064,1003.538,0,0
3.28,-8.952581,3.4339335,-2.3093102,1003.513,0,0
3.32,-8.9717455,3.7103949,-2.5839097,1003.48773,0,0
3.36,-8.952667,3.5578659,-2.280912,1003.45465,0,0
3.4,-8.876238,3.4863687000000003,-2.2335722,1003.447,0,0
3.44,-8.398297,3.7389972,-2.261982,1003.46246,0,0
3.48,-8.63255,3.8438625,-2.1057508,1003.4675,0,0
3.52,-8.532223,3.9105952,-2.4892416,1003.46497,0,0
3.56,-8.756915,4.096492,-2.3235414,1003.4749,0,0
3.6,-8.494069,4.3300543,-2.5697346000000003,1003.47754,0,0
3.64,-8.384178,4.153693,-2.5034568,1003.4878,0,0
3.68,-8.546737,3.929666000000001,-2.4324448,1003.5004,0,0
3.72,-8.771432,4.0059314,-2.4229803,1003.5384,0,0
3.76,-8.570719,4.115564,-2.3851085,1003.53326,0,0
3.8,-8.574805,3.9201179,-2.5176082,1003.54315,0,0
3.84,-8.627398,3.781888,-2.252483,1003.523,0,0
3.88,-8.622635,3.9391847,-2.607565,1003.5255,0,0
3.92,-8.589191,3.8295543,-2.3235018,1003.48755,0,0
3.96,-8.570086,3.858154,-2.437129,1003.50775,0,0
4.0,-8.560541,3.8247888,-2.5838970000000003,1003.528,0,0
4.04,-8.49842,4.0631166,-2.3803189,1003.54083,0,0
4.08,-8.464974,4.010685,-2.3045697,1003.5027,0,0
4.12,-8.694422,3.9487202,-2.6123078,1003.5458,0,0
4.16,-8.708775,3.7437584,-2.2903693,1003.5255,0,0
4.2,-8.541496,3.972553500000001,-2.351918,1003.5077,0,0
4.24,-8.770944,3.972554,-2.3755912999999995,1003.51807,0,0
4.28,-8.460269,4.0535855000000005,-2.332983,1003.53564,0,0
4.32,-8.536762,3.9344225,-2.3424532000000005,1003.54083,0,0
4.36,-8.818786,3.886757,-2.2809074000000003,1003.5231,0,0
4.4,-8.723205,3.9487226,-2.3093152000000003,1003.55096,0,0
4.44,-8.575046,4.07742,-2.5791776,1003.5509,0,0
4.48,-8.555942,3.9725564,-2.564976,1003.4977,0,0
4.52,-8.21181,4.10602,-2.6075866000000003,1003.5232,0,0
4.56,-8.4938345,3.8533933,-2.7022765,1003.5282,0,0
4.6,-8.45561,4.0535884,-2.5365734,1003.5107,0,0
4.64,-8.360028999999999,4.101255,-2.8632488,1003.51807,0,0
4.68,-8.632494,4.058356,-2.9011257,1003.5459,0,0
4.72,-8.297921,4.358649,-2.9958148,1003.58655,0,0
4.76,-8.374414,4.3538830000000015,-2.9342692,1003.5587,0,0
4.8,-8.078114,4.425383,-3.0384302000000005,1003.5587,0,0
4.84,-8.379257,4.0964904,-2.796977,1003.5613,0,0
4.88,-8.2072,4.0583587,-2.7922444,1003.5436,0,0
4.92,-8.255014,4.053592,-2.8159177000000004,1003.49286,0,0
4.96,-8.288489,4.148924,-2.920076,1003.5029,0,0
5.0,-8.360202000000001,4.2204227,-2.8111863,1003.51575,0,0
5.04,-8.3458805,4.1775246,-2.7875156000000003,1003.50037,0,0
5.08,-8.470172,4.144158999999998,-2.7922516,1003.4876,0,0
5.12,-8.317232,4.177525,-2.7259715,1003.46497,0,0
5.16,-8.293351,4.0774274,-2.702301,1003.48285,0,0
5.2,-8.350724000000001,4.096494,-2.782787,1003.5132,0,0
5.24,-8.322061999999999,4.287157,-2.7591166,1003.5561,0,0
5.28,-8.298179,4.330056,-2.6312892000000003,1003.513,0,0
5.32,-8.216939,4.406321,-2.7212446,1003.5383,0,0
5.36,-8.365129,4.272858599999998,-2.7165115,1003.52057,0,0
5.4,-8.3173485,4.2871585,-2.6549659,1003.5082,0,0
5.44,-8.240888,4.253793,-2.6928425,1003.5257,0,0
5.48,-8.417755,4.177529,-2.6739063,1003.51575,0,0
5.52,-8.274377000000001,4.2585607,-2.6360326,1003.4928,0,0
5.56,-8.532504,4.1632295,-2.5744867,1003.50543,0,0
5.6,-8.465602,4.249028,-2.5650196,1003.54083,0,0
5.64,-8.417819,4.2013626,-2.7591317,1003.5411,0,0
5.68,-8.432177000000001,4.082199,-2.7922740000000004,1003.5484,0,0
5.72,-8.403513,4.1060324,-2.6076336,1003.5282,0,0
5.76,-8.245796,4.1632314,-2.607635,1003.4774,0,0
5.8,-8.403546,4.2347302,-2.669184,1003.50543,0,0
5.84,-8.513498,4.177532,-2.6549822999999995,1003.4827,0,0
5.88,-8.307983,4.234731,-2.7875469,1003.5155,0,0
5.92,-8.273883,4.17275,-2.6975346,1003.49536,0,0
5.96,-8.42205,4.010687399999999,-2.6454554,1003.4648,0,0
6.0,-8.393365,4.0249867,-2.612314,1003.485,0,0
6.04,2.2973669,4.196507,9.100886,1003.5525,0,0
6.08,2.6127806,4.368104,9.555384,1003.5676,0,0
6.12,2.5505865,4.835228400000001,8.949375,1003.56006,0,0
6.16,2.1585927000000003,4.7303653,8.660571000000001,1003.4968,0,0
6.2,1.7952778000000005,4.773265,9.015647,1003.5194,0,0
6.24,2.182385,5.3738527000000005,9.351786,1003.55255,0,0
6.28,4.041679,6.579793,11.245543,1003.58545,0,0
6.32,5.011925700000001,7.5331054,11.917823,1003.5779,0,0
6.36,5.327339599999998,7.943030999999999,13.754767,1003.5878,0,0
6.4,6.240232,8.453053,12.78421,1003.5856,0,0
6.44,5.8960295,8.314824,9.285479,1003.46643,0,0
6.48,4.146571,7.0755215,6.5347852999999985,1003.44904,0,0
6.52,3.878849,6.632233,3.8977172,1003.40607,0,0
6.56,3.2000637000000003,5.35003,3.00291,1003.411,0,0
6.6,-2.3015442000000004,1.6130513000000002,0.9481735,1003.45154,0,0
6.64,-2.6887548,2.1373737,-1.0876248,1003.444,0,0
6.68,-6.5269904,0.383282,-1.8830098,1003.4416,0,0
6.72,-9.433167999999998,0.08775697,-2.8251612,1003.45935,0,0
6.76,-9.179887,0.9791044,-2.5411017000000005,1003.48706,0,0
6.8,-10.394015,1.7274553,-1.7409922999999998,1003.49475,0,0
6.84,-7.137767,4.720823,-10.097107,1003.5048,0,0
6.88,-7.414999000000001,4.4014645,-0.008090649,1003.59827,0,0
6.92,-8.002919,4.2489343,-1.693539,1003.52747,0,0
6.96,-7.840408999999998,3.1764593,-3.0239072,1003.5225,0,0
7.0,-8.934987,2.4567094,-3.1043925,1003.482,0,0
7.04,-9.642403,1.9895867,-1.8592442,1003.4568,0,0
7.08,-9.078389,2.0038865,-2.3705604,1003.46436,0,0
7.12,-9.522915,2.2946465,-2.6025467,1003.4872,0,0
7.16,-9.6328535,2.3852115,-2.5741405,1003.5327,0,0
7.2,-8.753374,3.357589,-3.0333781,1003.4744,0,0
7.24,-8.519167,3.1001947,-1.9823406000000003,1003.49994,0,0
7.28,-8.619547,3.2574914,-3.3032398,1003.5175,0,0
7.32,-8.036414,3.371889,-2.706705,1003.54285,0,0
7.36,-8.839425,2.9857981,-3.0759892000000004,1003.525,0,0
7.4,-9.202694,2.9285994,-3.038114,1003.54034,0,0
7.44,-8.772515,3.047763,-2.9528954,1003.5657,0,0
7.48,-8.829877999999997,3.667416,-3.0049741,1003.5835,0,0
7.52,-9.011514,3.3909554,-2.9008176,1003.55054,0,0
7.56,-7.658833,3.5101194,-2.4321117,1003.52527,0,0
7.6,-8.968502,3.3718896000000003,-2.7540517,1003.5506,0,0
7.64,-8.84901,3.1240287,-2.697239,1003.5479,0,0
7.68,-8.696061,3.2908585,-2.7067082,1003.57074,0,0
7.72,-8.9159355,3.1859944,-3.0475857000000004,1003.5327,0,0
7.76,-8.839462,3.3432908,-2.97657,1003.5302,0,0
7.8,-8.739091,3.1383288,-2.6877718,1003.52515,0,0
7.84,-8.472999,3.505392,-2.8299482000000005,1003.5253,0,0
7.88,-8.329671000000001,3.309965,-2.7068596,1003.5102,0,0
7.92,-8.764698,3.1812696,-2.967258,1003.50507,0,0
7.96,-8.6739435,3.2861354,-2.938857,1003.54553,0,0
8.0,-8.56407,3.2575376,-3.151911,1003.52545,0,0
8.04,-9.094699,3.1145425,-3.2229335,1003.51276,0,0
8.08,-8.678918,2.9858472000000003,-3.057235,1003.53046,0,0
8.12,-8.559488,3.1526783,-2.8773339,1003.5252,0,0
8.16,-8.66949,3.2766106,-2.9199490000000003,1003.5026,0,0
8.2,-8.80817,3.5054066,-3.0998628,1003.5278,0,0
8.24,-8.492768,3.4911084000000003,-3.25137,1003.54047,0,0
8.28,-8.674468,3.333814,-3.1093438,1003.5177,0,0
8.32,-8.559814,3.2575505,-3.0904117,1003.51794,0,0
8.36,-8.526422,3.1336217,-2.9815264,1003.50507,0,0
8.4,-8.741579,3.2194211,-3.0762205,1003.5077,0,0
8.44,-8.63649,3.3957856,-3.2040553,1003.52783,0,0
8.48,-8.464482,3.4768186,-3.3082185,1003.5355,0,0
8.52,-8.732213,3.124095,-3.1093793,1003.495,0,0
8.56,-8.541086,3.653184,-3.1472604,1003.49255,0,0
8.6,-8.832717,3.5626209,-3.1046562,1003.4597,0,0
8.64,-8.5842285,3.4672914,-3.2040844,1003.5077,0,0
8.68,-8.832844999999997,3.2003663,-3.0478551,1003.4976,0,0
8.72,-8.856810000000003,2.9668064,-3.0099862,1003.4952,0,0
8.76,-8.359776,3.0478394,-2.7353966,1003.4976,0,0
8.8,-8.847386,3.1050398,-2.7164655,1003.4649,0,0
8.84,-9.157589,3.3719550000000003,-2.8063748,1003.4546,0,0
8.88,-8.67487,2.9239,-2.6264713,1003.5154,0,0
8.92,-9.004721,3.2098942000000004,-2.5270529,1003.54065,0,0
8.96,-9.411049,3.1955955,-3.0525758,1003.5634,0,0
9.0,-9.033487,3.043067,-2.6643586,1003.533,0,0
9.04,-8.584230999999999,3.4482257000000005,-2.5649405,1003.51794,0,0
9.08,-8.722887,3.2241986,-2.4087088,1003.5052,0,0
9.12,-9.22959,3.4148614,-2.3282278,1003.4826,0,0
9.16,-8.852027,3.1765347000000004,-2.1009803,1003.5104,0,0
9.2,-8.565281,3.5149615,-1.9021388,1003.48755,0,0
9.24,-8.842557000000003,2.9429758,-2.129395,1003.50006,0,0
9.28,-8.957319,3.2814023,-2.3093064,1003.538,0,0
9.32,-8.952581,3.4339335,-2.3093102,1003.513,0,0
9.36,-8.9717455,3.7103949,-2.5839097,1003.48773,0,0
9.4,-8.952667,3.5578659,-2.280912,1003.45465,0,0
9.44,-8.876238,3.4863687000000003,-2.2335722,1003.447,0,0
9.48,-8.398297,3.7389972,-2.261982,1003.46246,0,0
9.52,-8.63255,3.8438625,-2.1057508,1003.4675,0,0
9.56,-8.532223,3.9105952,-2.4892416,1003.46497,0,0
9.6,-8.756915,4.096492,-2.3235414,1003.4749,0,0
9.64,-8.494069,4.3300543,-2.5697346000000003,1003.47754,0,0
9.68,-8.384178,4.153693,-2.5034568,1003.4878,0,0
9.72,-8.546737,3.929666000000001,-2.4324448,1003.5004,0,0
9.76,-8.771432,4.0059314,-2.4229803,1003.5384,0,0
9.8,-8.570719,4.115564,-2.3851085,1003.53326,0,0
9.84,-8.574805,3.9201179,-2.5176082,1003.54315,0,0
9.88,-8.627398,3.781888,-2.252483,1003.523,0,0
9.92,-8.622635,3.9391847,-2.607565,1003.5255,0,0
9.96,-8.589191,3.8295543,-2.3235018,1003.48755,0,0
10.0,-8.570086,3.858154,-2.437129,1003.50775,0,0
10.04,-8.560541,3.8247888,-2.5838970000000003,1003.528,0,0
10.08,-8.49842,4.0631166,-2.3803189,1003.54083,0,0
10.12,-8.464974,4.010685,-2.3045697,1003.5027,0,0
10.16,-8.694422,3.9487202,-2.6123078,1003.5458,0,0
10.2,-8.708775,3.7437584,-2.2903693,1003.5255,0,0
10.24,-8.541496,3.972553500000001,-2.351918,1003.5077,0,0
10.28,-8.770944,3.972554,-2.3755912999999995,1003.51807,0,0
10.32,-8.460269,4.0535855000000005,-2.332983,1003.53564,0,0
10.36,-8.536762,3.9344225,-2.3424532000000005,1003.54083,0,0
10.4,-8.818786,3.886757,-2.2809074000000003,1003.5231,0,0
10.44,-8.723205,3.9487226,-2.3093152000000003,1003.55096,0,0
10.48,-8.575046,4.07742,-2.5791776,1003.5509,0,0
10.52,-8.555942,3.9725564,-2.564976,1003.4977,0,0
10.56,-8.21181,4.10602,-2.6075866000000003,1003.5232,0,0
10.6,-8.4938345,3.8533933,-2.7022765,1003.5282,0,0
10.64,-8.45561,4.0535884,-2.5365734,1003.5107,0,0
10.68,-8.360028999999999,4.101255,-2.8632488,1003.51807,0,0
10.72,-8.632494,4.058356,-2.9011257,1003.5459,0,0
10.76,-8.297921,4.358649,-2.9958148,1003.58655,0,0
10.8,-8.374414,4.3538830000000015,-2.9342692,1003.5587,0,0
10.84,-8.078114,4.425383,-3.0384302000000005,1003.5587,0,0
10.88,-8.379257,4.0964904,-2.796977,1003.5613,0,0
10.92,-8.2072,4.0583587,-2.7922444,1003.5436,0,0
10.96,-8.255014,4.053592,-2.8159177000000004,1003.49286,0,0
11.0,-8.288489,4.148924,-2.920076,1003.5029,0,0
11.04,-8.360202000000001,4.2204227,-2.8111863,1003.51575,0,0
11.08,-8.3458805,4.1775246,-2.7875156000000003,1003.50037,0,0
11.12,-8.470172,4.144158999999998,-2.7922516,1003.4876,0,0
11.16,-8.317232,4.177525,-2.7259715,1003.46497,0,0
11.2,-8.293351,4.0774274,-2.702301,1003.48285,0,0
11.24,-8.350724000000001,4.096494,-2.782787,1003.5132,0,0
11.28,-8.322061999999999,4.287157,-2.7591166,1003.5561,0,0
11.32,-8.298179,4.330056,-2.6312892000000003,1003.513,0,0
11.36,-8.216939,4.406321,-2.7212446,1003.5383,0,0
11.4,-8.365129,4.272858599999998,-2.7165115,1003.52057,0,0
11.44,-8.3173485,4.2871585,-2.6549659,1003.5082,0,0
11.48,-8.240888,4.253793,-2.6928425,1003.5257,0,0
11.52,-8.417755,4.177529,-2.6739063,1003.51575,0,0
11.56,-8.274377000000001,4.2585607,-2.6360326,1003.4928,0,0
11.6,-8.532504,4.1632295,-2.5744867,1003.50543,0,0
11.64,-8.465602,4.249028,-2.5650196,1003.54083,0,0
11.68,-8.417819,4.2013626,-2.7591317,1003.5411,0,0
11.72,-8.432177000000001,4.082199,-2.7922740000000004,1003.5484,0,0
11.76,-8.403513,4.1060324,-2.6076336,1003.5282,0,0
11.8,-8.245796,4.1632314,-2.607635,1003.4774,0,0
11.84,-8.403546,4.2347302,-2.669184,1003.50543,0,0
11.88,-8.513498,4.177532,-2.6549822999999995,1003.4827,0,0
11.92,-8.307983,4.234731,-2.7875469,1003.5155,0,0
11.96,-8.273883,4.17275,-2.6975346,1003.49536,0,0
12.0,-8.42205,4.010687399999999,-2.6454554,1003.4648,0,0
12.04,-8.393365,4.0249867,-2.612314,1003.485,0,0
12.08,-8.3598995,4.0202203,-2.5933757,1003.5282,0,0
12.12,-8.39813,4.139384,-2.6927977000000003,1003.4928,0,0
12.16,-8.465041000000001,4.196582299999998,-2.716469,1003.4775,0,0
12.2,-8.412457,4.1489162,-2.7354062000000003,1003.50543,0,0
12.24,-8.40289,4.2061152,-2.683327,1003.5331,0,0
12.28,-8.450682,3.982087,-2.5697005,1003.5459,0,0
12.32,-8.508034,3.9868531,-2.6170442000000005,1003.5507,0,0
12.36,-8.450667999999999,4.0488186,-2.5176208,1003.5358,0,0
12.4,-8.436323,4.2061142999999985,-2.5034173,1003.5154,0,0
12.44,-8.4363165,4.1107826,-2.498682,1003.51794,0,0
12.48,-8.431529,4.1679816,-2.5365567,1003.5205,0,0
12.52,-8.421965,4.172748,-2.5744314,1003.5001,0,0
12.56,-8.464974,4.110782,-2.5507588,1003.48505,0,0
12.6,-8.412391,4.0726504,-2.5886335,1003.52545,0,0
12.64,-8.455403,4.0535836000000005,-2.6170392,1003.52057,0,0
12.68,-8.393259,4.1298485000000005,-2.6359766,1003.5154,0,0
12.72,-8.479287,4.1393814,-2.52235,1003.49255,0,0
12.76,-8.498402,3.9916177,-2.6170378,1003.513,0,0
12.8,-8.417138000000001,4.063116,-2.5744271,1003.5004,0,0
12.84,-8.402792,4.077416,-2.6217706,1003.5054,0,0
12.88,-8.52228,4.172746,-2.5933638,1003.50793,0,0
12.92,-8.4840355,4.1060147,-2.5602221000000003,1003.5155,0,0
12.96,-8.335769,4.1441445,-2.5554793,1003.54315,0,0
13.0,-8.421797,4.05358,-2.5507443,1003.5231,0,0
13.04,-8.421783999999999,4.1870427,-2.3945076000000003,1003.5179,0,0
13.08,-8.383535,4.1346110000000005,-2.4749918,1003.53326,0,0
13.12,-8.426547,4.215642,-2.3850372,1003.5127,0,0
13.16,-8.5077915,4.1060114,-2.5554748,1003.51044,0,0
13.2,-8.359608,4.2251744,-2.4560513,1003.5155,0,0
13.24,-8.531671000000001,4.2108746,-2.5412698,1003.5077,0,0
13.28,-8.445625999999999,4.277606,-2.3850336,1003.5026,0,0
13.32,-8.55555,4.1679754,-2.4702518,1003.5231,0,0
13.36,-8.469505999999999,4.206107599999998,-2.4181728,1003.52295,0,0
13.4,-8.579428,4.125076,-2.4087029,1003.50775,0,0
13.44,-8.531623,4.177508,-2.4844525,1003.5305,0,0
13.48,-8.421677,4.1155424,-2.3897634,1003.52295,0,0
13.52,-8.526824000000001,3.934413,-2.2571993,1003.5051,0,0
13.56,-8.445556,4.044043,-2.3376832000000003,1003.5003,0,0
13.6,-8.502905,4.04881,-2.3518856,1003.52045,0,0
13.64,-8.59849,4.0821752999999985,-2.285603,1003.523,0,0
13.68,-8.61282,4.0297427,-2.3850245,1003.475,0,0
13.72,-8.646269,4.234705,-2.588603,1003.51294,0,0
13.76,-8.512423,4.1393733,-2.342413,1003.53314,0,0
13.8,-8.335561,4.234704,-2.2382553,1003.5433,0,0
13.84,-8.416807,3.982077,-2.1435664,1003.5507,0,0
13.88,-8.741825,3.867679,-1.9873301,1003.49255,0,0
13.92,-8.775272,3.9010444,-1.8263594,1003.4774,0,0
13.96,-8.565456,4.024987,-2.2146258,1003.4876,0,0
14.0,-8.7232,4.0297537000000005,-2.4229405,1003.4724,0,0
14.04,-8.737549000000001,3.9820888,-1.9305633,1003.4394,0,0
14.08,-8.747117,4.044054,-2.4560833,1003.4647,0,0
14.12,-8.474679,4.120319,-1.9921123,1003.4699,0,0
14.16,-8.532047,3.9153578,-1.8311434,1003.4748,0,0
14.2,-8.622873,3.9725566,-2.4608202,1003.45734,0,0
14.24,-8.331316000000001,3.9725568,-2.129413,1003.4421,0,0
14.28,-8.694591,4.1250870000000015,-2.5744476,1003.4647,0,0
14.32,-8.316997,4.27285,-2.3850725,1003.4697,0,0
14.36,-8.2548685,4.1155542999999986,-2.205166,1003.5026,0,0
14.4,-8.675500999999999,4.172753,-2.4560905,1003.5026,0,0
14.44,-8.288348,4.196586,-2.3329968,1003.5026,0,0
14.48,-8.69942,4.1060214,-2.5318427000000003,1003.533,0,0
14.52,-8.541697000000001,4.134621,-2.5981252,1003.5027,0,0
14.56,-8.498688000000001,4.1775208,-2.5933917,1003.53046,0,0
14.6,-8.493917999999999,4.0631237,-2.6028616,1003.52026,0,0
14.64,-8.575186,3.9582596,-2.763832,1003.5104,0,0
14.68,-8.527397,3.8676953,-2.7070203,1003.50507,0,0
14.72,-8.517849,3.9105942,-2.9200692000000004,1003.54065,0,0
14.76,-8.503518,3.8343298,-2.9579453,1003.5252,0,0
14.8,-8.188061,3.8819954,-3.0194938,1003.5177,0,0
14.84,-8.211969999999999,3.6198354,-2.8869312000000003,1003.52527,0,0
14.88,-8.326694999999999,3.600769,-2.9390104,1003.5481,0,0
14.92,-8.814245,3.4863725,-2.9484804,1003.53033,0,0
14.96,-8.469416,3.696084,-2.8537295,1003.50507,0,0
15.0,-8.502857,3.486355,-2.9342132000000003,1003.53784,1,1
15.04,-8.794407000000001,3.2003615,-2.777976,1003.54803,1,1
15.08,-8.555399000000001,3.2766259,-2.5554574,1003.50244,1,1
15.12,-8.239915,3.186061,-2.067812,1003.5127,1,1
15.16,-7.7619175999999985,3.038297,-2.072545,1003.56586,1,1
15.2,-9.272317,3.119328,-1.7553383000000002,1003.5405,1,1
15.24,-10.046628,3.0907285,-1.5422884,1003.52,1,1
15.28,-9.81718,3.958241000000001,-1.4902083000000002,1003.5077,1,1
15.32,-9.544713,4.592192,-1.3907841,1003.5102,1,1
15.36,-8.937662,4.5731263,-1.4239233999999998,1003.533,1,1
15.4,-8.464443,4.187034,-1.5848916000000002,1003.55316,1,1
15.44,-8.464425,3.8247762,-0.99782383,1003.5353,1,1
15.48,-8.851573,4.396762,-0.6569451,1003.50244,1,1
15.52,-8.856336,4.8877169999999985,-0.58119315,1003.53534,1,1
15.56,-9.319959,5.0402464999999985,-1.1635232,1003.5682,1,1
15.6,-9.157428,5.235675,-1.5470084,1003.5554,1,1
15.64,-8.994897,5.5741,-1.4996628,1003.48706,1,1
15.68,-8.779788,6.4320793,-2.5459645,1003.4924,1,1
15.72,-8.053239999999999,6.031688,-2.361321,1003.48737,1,1
15.76,-8.1536,4.778084,-3.0762148,1003.47455,1,1
15.8,-7.71862,4.177497,-3.1424950000000003,1003.47974,1,1
15.84,-6.7961016,4.1155314,-2.9436483,1003.462,1,1
15.88,-8.287381,3.72944,-3.5875254,1003.4923,1,1
15.92,-8.3781805,4.1917953,-3.7106185,1003.54553,1,1
15.96,-6.777307,4.587428599999999,-3.3792431000000005,1003.54034,1,1
16.0,-5.9742975,4.2776017,-2.6359415,1003.53534,1,1
16.04,-6.791641,3.8009467,-2.8442552000000005,1003.4872,1,1
16.08,-7.781059,3.9105773,-2.905802,1003.5101,1,1
16.12,-7.140561999999999,4.6589265,-2.6122687,1003.48975,1,1
16.16,-7.890989,4.9925857,-2.4228923,1003.5327,1,1
16.2,-9.181532,5.4120426,-3.952105,1003.5706,1,1
16.24,-9.850703,5.6456037000000014,-3.3555696000000004,1003.5706,1,1
16.28,-9.755104,6.1842246,-2.9010665,1003.5378,1,1
16.32,-9.908055,5.6503695999999985,-2.228781,1003.5302,1,1
16.36,-7.733242999999999,5.2023134,-1.5754328000000002,1003.5732,1,1
16.4,-7.867075,4.6875257,-1.3671187,1003.54803,1,1
16.44,-8.40241,4.6922917,-0.9315532,1003.5074,1,1
16.48,-8.364169,4.48733,-1.0451787,1003.4516,1,1
16.52,-8.187313,4.4825635,-1.7316672,1003.4315,1,1
16.56,-8.024797,4.501629,-0.9173494,1003.3833,1,1
16.6,-6.834625,5.1165156,-1.4807434,1003.4468,1,1
16.64,-7.1453094,4.882954,-2.0488715,1003.48206,1,1
16.68,-7.341278999999999,4.7351904000000005,-1.5186182,1003.48956,1,1
16.72,-6.327958,5.383442400000002,-1.6038373,1003.49963,1,1
16.76,-7.8049149999999985,5.264278400000001,-1.7127281000000003,1003.48956,1,1
16.8,-8.703515,5.4168080000000005,-2.072543,1003.472,1,1
16.84,-8.206412,6.9611725999999985,-1.9967921,1003.48206,1,1
16.88,-7.542018400000001,7.1756673,-2.361341,1003.5302,1,1
16.92,-9.095451,6.0507602999999985,-3.1283145,1003.52246,1,1
16.96,-9.065918,6.2700005,-3.2181900000000003,1003.4719,1,1
17.0,-6.6329618,6.017372,-3.3649528,1003.4946,1,1
17.04,-8.324975,4.844798,-3.298668,1003.48975,1,1
17.08,-9.386058,5.0640593,-3.4264940000000004,1003.46936,1,1
17.12,-7.1442929999999985,5.2356544000000005,-2.8820338,1003.4744,1,1
17.16,-5.2657933,4.8781614,-2.2760267000000005,1003.4719,1,1
17.2,-6.3459916,4.120278,-2.1103194,1003.5073,1,1
17.24,-6.7618003,4.206075,-2.5411468,1003.52496,1,1
17.28,-6.9147177,4.6827296999999986,-3.5495718000000003,1003.52246,1,1
17.32,-7.3209662,4.606464,-2.9719713,1003.52234,1,1
17.36,-7.55036,5.33098,-3.0382493,1003.49207,1,1
17.4,-7.7940936,5.4596763,-2.735244,1003.53253,1,1
17.44,-9.132401,5.774268,-3.3175726,1003.50714,1,1
17.48,-9.72984,6.7609444000000005,-3.246553,1003.5122,1,1
17.52,-7.9612784,7.4854603000000015,-1.9067134,1003.5351,1,1
17.56,-6.5607567,6.57028,-0.81779677,1003.5325,1,1
17.6,-6.8522881999999985,6.2556867999999985,-0.7515116999999999,1003.52496,1,1
17.64,-7.8177743,6.7466407,-1.4332628,1003.502,1,1
17.68,-8.190564,7.1613307,-1.6557767,1003.49207,1,1
17.72,-6.641871000000001,7.237594599999999,-1.4379908,1003.44904,1,1
17.76,-6.278569,7.108896700000002,-1.584754,1003.48706,1,1
17.8,-5.9535055,7.113662700000001,-1.437984,1003.4995,1,1
17.84,-5.480271,6.989731,-0.8840555,1003.51715,0,0
17.88,-5.962994,7.0993605,-1.395368,1003.53,0,0
17.92,-7.2726216,7.056461,-1.9824305,1003.5274,0,0
17.96,-6.734047,7.0136,-1.8831494,1003.4641,0,0
18.0,-6.777092,6.899203,-2.1956224,1003.50726,0,0
18.04,-6.8535952999999985,6.6132100000000005,-2.0772648,1003.5172,0,0
18.08,-6.934879,6.546479,-2.205096,1003.50964,0,0
18.12,-6.5859785,6.5321803,-1.8074083,1003.49457,0,0
18.16,-6.648140400000001,6.370118,-1.8784268,1003.4817,0,0
18.2,-6.954077000000002,6.393951,-2.1104152000000003,1003.4971,0,0
18.24,-7.073595,6.627513,-2.1719644,1003.5045,0,0
18.28,-7.0258245,6.536949,-2.252452,1003.5044,0,0
18.32,-6.844217,6.39872,-2.058344,1003.48926,0,0
18.36,-6.6912923,6.651348,-2.1767066,1003.48676,0,0
18.4,-6.590942999999998,6.6418149999999985,-2.0441453000000003,1003.48175,0,0
18.44,-6.7678185,6.441621,-2.0630853,1003.4742,0,0
18.48,-7.0259547000000016,6.5083528,-2.0157437,1003.45886,0,0
18.52,-6.7917724,6.8038807,-2.0678248,1003.4638,0,0
18.56,-7.0068902999999985,6.803881,-2.0630927,1003.4438,0,0
18.6,-6.9208789999999984,6.6608853,-1.9920789,1003.4766,0,0
18.64,-6.7058125,6.894447,-2.0110188,1003.4943,0,0
18.68,-6.8348960000000005,6.679952,-1.9494742,1003.4792,0,0
18.72,-6.9018397,6.617988,-1.9258046,1003.48926,0,0
18.76,-6.72023,6.708553299999998,-1.8974004,1003.4791,0,0
18.8,-6.897111,6.765753,-1.9826223000000005,1003.507,0,0
18.84,-7.073989,6.5274253,-2.09625,1003.49927,0,0
18.88,-7.054896,6.308164,-2.1578,1003.48413,0,0
18.92,-6.7203364,6.4320955,-1.9305508,1003.48425,0,0
18.96,-6.746577,6.598864999999999,-1.9539996,1003.5094,0,0
19.0,-6.808646,6.6322293000000005,-2.020275,1003.47406,0,0
19.04,-6.980643,6.5511956,-2.04394,1003.4941,0,0
19.08,-6.822841,6.7370899999999985,-2.0439339,1003.47644,0,0
19.12,-6.8036494,6.684656,-1.9350361,1003.47644,0,0
19.16,-6.870495,6.703720599999999,-1.9681703,1003.4966,0,0
19.2,-6.5645190000000015,6.8085833,-2.0391803,1003.51434,0,0
19.24,-6.679162,6.665584599999999,-1.9350166,1003.48676,0,0
19.28,-6.8129240000000015,6.608384,-1.9302756,1003.47894,0,0
19.32,-6.765058,6.756146,-1.9728788,1003.48663,0,0
19.36,-6.927495,6.565482,-1.9397309,1003.5067,0,0
19.4,-6.812716,6.6226788,-2.0770228,1003.5043,0,0
19.44,-6.869997,6.6703424,-2.053344,1003.502,0,0
19.48,-6.716975,6.589309,-2.0959473,1003.4915,0,0
19.52,-6.7981553,6.532108999999998,-2.1385498,1003.48413,0,0
19.56,-6.836321400000001,6.646504400000001,-2.181153,1003.46643,0,0
19.6,-6.7358723,6.6465025,-2.0675206000000004,1003.5017,0,0
19.64,-6.8266253,6.622668300000001,-2.1195931,1003.5018,0,0
19.68,-6.850447999999999,6.6941643,-2.1195862,1003.4992,0,0
19.72,-6.9650955,6.5130343,-2.07697,1003.47644,0,0
19.76,-6.888546000000002,6.5082655,-2.0296197,1003.49646,0,0
19.8,-6.9028172,6.5225635,-2.0769575,1003.4941,0,0
19.84,-6.8453875,6.5225616,-2.0485446,1003.47363,0,0
19.88,-6.9552507,6.4367623,-2.133757,1003.51184,0,0
19.92,-6.9790773,6.546391000000002,-2.067469,1003.4865,0,0
19.96,-7.018954300000001,6.5225983,-2.1812446,1003.4788,0,0
20.0,-6.8946752999999985,6.541665,-2.0818214,1003.4838,0,0
20.04,-6.9902678,6.489232,-2.1670406000000004,1003.47894,0,0
20.08,-6.8946679999999985,6.4653993,-2.1007588,1003.4838,0,0
20.12,-6.9663615000000005,6.379601,-2.1859775000000004,1003.50653,0,0
20.16,-6.9711375,6.3700686,-2.2522588,1003.49646,0,0
20.2,-7.1145277,6.3414683,-2.2238522,1003.4862,0,0
20.24,-6.865974400000002,6.5273643,-2.1623046,1003.46857,0,0
20.28,-6.947227000000002,6.493998,-2.1386323,1003.48114,0,0
20.32,-6.966342999999998,6.336702,-2.2143824,1003.48114,0,0
20.36,-7.2196684000000015,6.3224019999999985,-2.238054,1003.4942,0,0
20.4,-6.85162,6.498764,-2.1623032,1003.514,0,0
20.44,-7.143184,6.3367014,-2.1954439,1003.48114,0,0
20.48,-6.980667,6.398667,-2.2001777,1003.4865,0,0
20.52,-7.152736,6.3939,-2.114958,1003.4685,0,0
20.56,-7.095375,6.327168,-2.081817,1003.504,0,0
20.6,-7.2865634,6.327167500000002,-2.133895,1003.5015,0,0
20.64,-6.990212,6.3557677,-2.162301,1003.4988,0,0
20.68,-7.1909595,6.065007,-2.1338942000000003,1003.4937,0,0
20.72,-7.2387543,6.1746383,-2.1528318,1003.4836,0,0
20.76,-7.0236589999999985,6.246136,-2.1054873,1003.5113,0,0
20.8,-7.114472,6.3367010000000015,-1.9871268,1003.5088,0,0
20.84,-7.090569,6.4034330000000015,-1.9303136000000003,1003.48627,0,0
20.88,-6.904153,6.5368958,-1.8782349,1003.4914,0,0
20.92,-7.0236444,6.5607285000000015,-1.9397815,1003.47363,0,0
20.96,-6.9890738,6.560701,-2.048571,1003.4889,0,0
21.0,-6.864750999999999,6.641731299999999,-2.0059574,1003.50885,0,0
21.04,-6.922063400000001,6.3462043,-1.9822811,1003.5038,0,0
21.08,-7.070189,6.279471,-2.1527152000000003,1003.4987,0,0
21.12,-7.079704,6.25087,-2.1574457,1003.49854,0,0
21.16,-7.012735,6.2699356,-2.1858473,1003.4911,0,0
21.2,-7.060485000000001,6.298534,-2.294734,1003.4912,0,0
21.24,-6.979183,6.350965,-2.0958848000000003,1003.4709,0,0
21.28,-6.888315,6.541626,-2.2757878,1003.47845,0,0
21.32,-7.0603433,6.3700285,-2.3136587000000004,1003.47845,0,0
21.36,-7.0794169999999985,6.3890934,-2.3657331000000004,1003.4709,0,0
21.4,-6.8642716,6.3843260000000015,-2.3420558,1003.476,0,0
21.44,-6.950266,6.198428599999999,-2.5124907000000003,1003.48346,0,0
21.48,-6.9932360000000005,6.38909,-2.521955,1003.4786,0,0
21.52,-6.7828794000000014,6.422455,-2.6450455,1003.49097,0,0
21.56,-6.8545284,6.541618,-2.7065885,1003.4631,0,0
21.6,-6.9596357000000015,6.470118,-2.6213646,1003.4532,0,0
21.64,-6.4816074,6.6083474,-2.5124693,1003.51636,0,0
21.68,-6.8639436,6.3938503,-2.597684,1003.4859,0,0
21.72,-6.6918254,6.446282,-2.6071484000000003,1003.4859,0,0
21.76,-6.7491345,6.3938484,-2.521925,1003.4683,0,0
21.8,-6.7156277,6.498711599999999,-2.5550613,1003.50116,0,0
21.84,-6.7108026,6.6321745,-2.3562121,1003.48346,0,0
21.88,-6.7203116,6.608340299999999,-2.550318,1003.48596,0,0
21.92,-6.9066787,6.4510427,-2.4698290000000003,1003.52893,0,0
21.96,-6.945883,6.365268,-2.4793863,1003.5138,0,0
22.0,-6.9363155,6.412934,-2.4557135,1003.4886,0,0
22.04,-7.0175652999999985,6.446299,-2.6214168,1003.52405,0,0
22.08,-6.869383999999998,6.365267299999998,-2.6403537,1003.51385,0,0
22.12,-6.730762,6.613128,-2.540931,1003.4962,0,0
22.16,-6.7594333,6.26517,-2.7066345000000003,1003.50616,0,0
22.2,-6.7068477,6.52733,-2.5598671000000004,1003.54395,0,0
22.24,-6.7020607000000005,6.5225635,-2.2994742,1003.54144,0,0
22.28,-6.964942,6.6035943,-1.9727994,1003.49084,0,0
22.32,-6.759402799999998,6.8085559999999985,-1.9964708,1003.48584,0,0
22.36,-6.8310924,6.7227583,-2.2568624,1003.5085,0,0
22.4,-6.7737274,6.465364,-2.7113645,1003.5364,0,0
22.44,-7.261259599999999,5.9601088,-2.6971605,1003.5161,0,0
22.48,-6.888428,6.3986316,-2.4462364,1003.4504,0,0
22.52,-6.7067869999999985,6.508262,-2.3373444,1003.5211,0,0
22.56,-7.084386,6.2032027,-2.1811087,1003.4907,0,0
22.6,-7.318588,6.112638,-1.996466,1003.49835,0,0
22.64,-7.4428550000000016,6.651258500000001,-1.8070891,1003.48065,0,0
22.68,-6.8119130000000006,6.446296,-2.166903,1003.4854,0,0
22.72,-7.237309,6.6035924,-2.1953092,1003.5363,0,0
22.76,-6.768881,6.3604980000000015,-2.4793727000000003,1003.5058,0,0
22.8,-7.820428999999999,6.1650686,-2.3326054,1003.47546,0,0
22.84,-6.697168400000002,6.3223653,-2.6072,1003.51324,0,0
22.88,-7.251618400000001,6.403396599999999,-2.507777,1003.4805,0,0
22.92,-6.787969,6.050671,-2.5456514,1003.5183,0,0
22.96,-7.141699000000001,6.0697384,-2.2379174,1003.45544,0,0
23.0,-7.0795555,5.812343599999998,-2.1716352000000003,1003.48065,0,0
23.04,-7.3615575,5.9553404,-2.7444975,1003.47797,0,0
23.08,-6.89791,6.203201,-2.9480762,1003.50085,0,0
23.12,-6.706712,6.346197599999999,-2.962279,1003.516,0,0
23.16,-6.309981,6.112636,-3.1279826,1003.53107,0,0
23.2,-7.304175,5.836176,-2.6450727,1003.4703,0,0
23.24,-6.668454,5.9744053,-3.322092,1003.4829,0,0
23.28,-7.629189500000002,5.5120497,-3.6156244,1003.47784,0,0
23.32,-7.20856,5.9029074,-3.6961088,1003.5032,0,0
23.36,-6.687556,5.578780999999998,-3.7671244,1003.48303,0,0
23.4,-7.4905562,5.044926599999998,-3.7055767,1003.4627,0,0
23.44,-7.461870699999999,5.340453,-3.6203566,1003.4502,0,0
23.48,-7.136838000000001,5.74561,-3.5446057,1003.4829,0,0
23.52,-6.840484,5.7027106,-3.719778,1003.49567,0,0
23.56,-7.968511,5.30232,-3.2747433,1003.5032,0,0
23.6,-7.0985809999999985,5.1879230000000005,-3.6392922,1003.526,0,0
23.64,-8.054535000000001,4.9924936,-2.8912554,1003.46515,0,0
23.68,-7.022091400000001,5.9839373,-3.7907915,1003.47015,0,0
23.72,-7.055544,6.0220699999999985,-3.7623847,1003.4981,0,0
23.76,-6.5871167,5.507281,-3.8144627,1003.5308,0,0
23.8,-7.442695,5.4262495,-3.1563797,1003.46765,0,0
23.84,-6.606223,5.3261523,-3.3504899,1003.4778,0,0
23.88,-7.552619,5.4262489999999985,-2.9149241000000004,1003.4223,0,0
23.92,-7.108090400000001,6.2413306,-3.2226596,1003.4627,0,0
23.96,-6.495444,6.1936445,-3.5492578000000004,1003.5283,0,0
24.0,-6.944708,5.392862,-3.9658818,1003.5259,0,0
24.04,-7.269695299999999,5.664555,-3.672345200000001,1003.46,0,0
24.08,-5.8882957000000005,6.145975599999999,-4.008485,1003.4878,0,0
24.12,-6.6434627000000015,5.94578,-3.8569798,1003.52576,0,0
24.16,-6.394876,6.079242,-4.036883400000002,1003.52576,0,0
24.2,-6.5095519999999985,5.7646484,-3.4024699000000003,1003.53827,0,0
24.24,-7.188244999999998,5.6407175,-3.6533897,1003.513,0,0
24.28,-6.719784700000001,5.9410095,-3.2888370000000005,1003.4675,0,0
24.32,-6.9491787,6.0220400000000005,-2.7349080000000003,1003.4572,0,0
24.36,-7.1546755000000015,6.193635,-2.5644665,1003.4702,0,0
24.4,-6.934758,6.5225263,-2.2946012,1003.46747,0,0
24.44,-7.054217,6.7513204,-2.3845515,1003.48785,0,0
24.48,-6.9346820000000005,6.536824,-2.5313144,1003.50287,0,0
24.52,-6.829489,6.398593,-2.0910115,1003.51025,0,0
24.56,-6.7529759999999985,6.6321535,-2.1620243,1003.4953,0,0
24.6,-6.915447,6.679817699999999,-2.1052077,1003.4726,0,0
24.64,-6.7528973,6.837113400000002,-2.0436566000000003,1003.47003,0,0
24.68,-6.8149953,6.760847999999998,-2.2709045,1003.51044,0,0
24.72,-6.5807457,6.8800106,-1.7690543,1003.51544,0,0
24.76,-6.6380663,6.684581,-1.9868336,1003.49005,0,0
24.8,-6.556770299999998,6.7417784,-1.8779385,1003.51794,0,0
24.84,-6.6905656,6.6464467,-1.7879813000000002,1003.4852,0,0
24.88,-6.939075999999999,6.403351,-1.8211185,1003.4597,0,0
24.92,-6.7000470000000005,6.69411,-1.7879740000000002,1003.4852,0,0
24.96,-6.873065,6.660767599999999,-1.6034188,1003.45233,0,0
25.0,-6.9543214,7.0087259999999985,-1.7643884,1003.48004,0,0
25.04,-6.844386,7.0277925,-1.8354045,1003.51276,0,0
25.08,-6.7057720000000005,6.9753604000000005,-1.6507628,1003.5104,0,0
25.12,-6.7057720000000005,6.918162,-1.6602316000000004,1003.50287,0,0
25.16,-6.825267,6.860963000000001,-1.688638,1003.5155,0,0
25.2,-6.8826246,6.703666,-1.7738574,1003.4697,0,0
25.24,-6.7679095,6.870496000000001,-1.769123,1003.47217,0,0
25.28,-6.968661,6.479638,-1.7028413,1003.47723,0,0
25.32,-7.155073,6.689367,-1.7454508999999998,1003.46716,0,0
25.36,-6.973441,6.7751649999999985,-1.7075756999999998,1003.50256,0,0
25.4,-7.2841277,6.6417009999999985,-1.840139,1003.4977,0,0
25.44,-7.351045,6.050648000000002,-1.8354045,1003.47723,0,0
25.48,-7.1980914999999985,6.1078470000000005,-1.7738574,1003.4696,0,0
25.52,-7.011678999999999,6.0363483,-1.9064206,1003.50006,0,0
25.56,-7.23155,6.0554147,-2.0626562,1003.4545,0,0
25.6,-7.3367057,6.0840144,-2.2094226000000003,1003.48505,0,0
25.64,-7.293688,6.0697145,-2.1999538,1003.4494,0,0
25.68,-7.2602286,6.0172824999999985,-2.0957968,1003.4898,0,0
25.72,-7.250669500000001,6.022049,-2.143141,1003.4848,0,0
25.76,-7.427522,6.064947599999999,-2.2851732000000005,1003.48224,0,0
25.8,-7.3701644,6.0411150000000005,-2.1857505,1003.4619,0,0
25.84,-7.341486,6.0792475,-2.2330947,1003.4594,0,0
25.88,-7.341486,6.141213,-2.214157,1003.4925,0,0
25.92,-7.403623,6.0840144,-2.2425635,1003.4822,0,0
25.96,-7.3692417,6.150723,-2.2330103,1003.4645,0,0
26.0,-7.460033,6.093524,-2.2282734,1003.4847,0,0
26.04,-7.617720599999998,5.879027400000001,-2.3229573,1003.4672,0,0
26.08,-7.4264913,5.88856,-2.3655636,1003.4799,0,0
26.12,-7.684566499999999,5.359471,-2.3987012,1003.45966,0,0
26.16,-7.8183729999999985,5.130676,-2.38923,1003.47455,0,0
26.2,-7.2877717,5.049643,-1.9157856,1003.46686,1,2
26.24,-7.063084,5.097307700000001,-1.7169371999999998,1003.462,1,2
26.28,-7.345055,4.839913,-1.2482276,1003.4516,1,2
26.32,-7.1012460000000015,6.1602483,-0.82212776,1003.4872,1,2
26.36,-7.8803196,6.493906,-0.6185451,1003.5151,1,2
26.4,-7.842044400000002,6.2317452000000015,-0.51911926,1003.5149,1,2
26.44,-7.5695679999999985,6.1936116,-0.007801004,1003.4721,1,2
26.48,-7.072425,6.5415697,0.16737594,1003.45416,1,2
26.52,-7.196663,6.527269,0.21945779,1003.487,1,2
26.56,-7.1297115999999985,6.794194999999998,-0.36760524,1003.49725,1,2
26.6,-6.6660314,7.304216,-1.144044,1003.5048,1,2
26.64,-6.379208599999999,7.957233,-1.5227932,1003.49475,1,2
26.68,-7.468967399999999,7.723671,-2.531218,1003.52997,1,2
26.72,-7.339878,8.271824,-3.5112367,1003.5274,1,2
26.76,-7.574052,7.857132400000001,-4.3018790000000005,1003.5426,1,2
26.8,-5.06462,8.081161,-3.0709305,1003.4797,1,2
26.84,-5.920175,7.599736999999998,-3.3123825,1003.56036,1,2
26.88,-5.2557383,6.694089999999999,-2.8720790000000003,1003.5298,1,2
26.92,-4.9354644,6.67979,-2.7442472,1003.4642,1,2
26.96,-5.9733353,5.6311636,-2.80112,1003.4518,1,2
27.0,-6.3509297,5.697895,-2.9952297000000003,1003.43646,1,2
27.04,-6.3891597,6.4367113,-3.0757139,1003.4996,1,2
27.08,-6.8145539999999984,6.551108,-3.189339,1003.50714,1,2
27.12,-6.7858663,6.837101,-3.085181,1003.5577,1,2
27.16,-6.4178123,7.7761125999999985,-2.7916472000000003,1003.54,1,2
27.2,-7.325966999999999,8.438664,-2.928944,1003.43646,1,2
27.24,-8.587829,8.533996,-2.3939557,1003.4163,1,2
27.28,-6.8479705,8.691292,-1.7027318,1003.47156,1,2
27.32,-6.240925,7.7904115,-0.14511174,1003.5094,1,2
27.36,-4.8069744000000005,7.728446000000001,1.0621622,1003.4617,1,2
27.4,-5.7772655,7.075427499999999,0.5981914,1003.4589,1,2
27.44,-7.182523,6.879998700000002,-0.10249991,1003.454,1,2
27.48,-7.196853,6.894298599999999,-0.4149698000000001,1003.4438,1,2
27.52,-5.8776160000000015,7.0086955999999985,-0.6942986999999999,1003.5552,1,2
27.56,-6.126159,6.7084025999999986,-0.76057976,1003.58527,1,2
27.6,-5.595589,6.0410833,-0.23979418,1003.4943,1,2
27.64,-5.7437572,6.393809,0.21944362,1003.4338,1,2
27.68,-6.5658755000000015,6.770366,-0.09776073,1003.49677,1,2
27.72,-7.3545337,6.9943943,-0.15930714,1003.5399,1,2
27.76,-7.947221000000001,7.404318300000001,-0.48598024,1003.5246,1,2
27.8,-8.386953,7.4710493,-0.03621102,1003.55005,1,2
27.84,-8.186193,7.6092796,-0.06935109,1003.5397,1,2
27.88,-8.1957445,7.709378,-1.224545,1003.52466,1,2
27.92,-6.6709785,7.8619065,-2.2235036,1003.57513,1,2
27.96,-6.4743996,6.317528,-2.1145566,1003.51965,1,2
28.0,-6.832852000000001,5.2831839999999985,-1.7642077,1003.4515,1,2
28.04,-7.3872757,5.349914599999999,-2.4933033,1003.48413,1,2
28.08,-6.3882660000000016,6.2603264,-2.081407,1003.5548,1,2
28.12,-6.894892,5.5739410000000005,-1.7736678,1003.4714,1,2
28.16,-7.8173614,5.0019540000000005,-1.461194,1003.45886,1,2
28.2,-7.587898299999999,5.2784133,-1.3144243999999998,1003.4739,1,2
28.24,-6.636684,4.892321599999999,-1.1439829,1003.4613,1,2
28.28,-6.789606599999999,5.4404745000000005,-0.28705275,1003.4487,1,2
28.32,-7.9893064,5.416641,-1.5748079,1003.5092,1,2
28.36,-7.329658999999999,5.869463,-1.437507,1003.494,1,2
28.4,-8.041817,6.2031217000000005,-1.6174114,1003.54205,1,2
28.44,-8.362033,6.408083,-1.1250306,1003.53955,1,2
28.48,-8.275955999999999,5.831328,-0.0834579,1003.4284,1,2
28.52,-8.98334,5.7788954000000015,1.1806306999999998,1003.4309,1,2
28.56,-8.992869,6.398547,1.60673,1003.48645,1,2
28.6,-9.107552,6.374714,1.9807508000000005,1003.44867,1,2
28.64,-8.60086,7.313724499999998,1.9570818,1003.4915,1,2
28.68,-7.329399,7.204092500000002,2.0375698,1003.5118,1,2
28.72,-6.7079935,6.736969500000002,2.1180575,1003.42334,1,2
28.76,-6.378154,6.408077,1.6872298,1003.41327,1,2
28.8,-6.4163613,5.969551999999998,1.0338846,1003.42334,1,2
28.84,-6.0960800000000015,6.408075,0.2763831,1003.4663,1,2
28.88,-6.8655977,6.503405,-0.77465194,1003.4661,1,2
28.92,-7.138012400000001,7.013425999999999,-0.07395701,1003.4638,1,2
28.96,-6.899212,6.879967,-0.41485146,1003.542,1,2
29.0,-8.54822,6.589206,-0.6847104,1003.51404,1,2
29.04,-8.118012,6.989596400000001,-1.0113819,1003.461,1,2
29.08,-7.654349000000002,6.150682,-1.2670377,1003.4915,1,2
29.12,-8.414311999999999,5.507196,-1.6410536,1003.451,1,2
29.16,-8.806234,5.407098,-1.5510976,1003.41815,1,2
29.2,-8.572000000000001,6.3175097,-1.5037513999999998,1003.4434,1,2
29.24,-7.7880883,6.2031116,-1.0823872,1003.4663,1,2
29.28,-7.6637897,5.697856,-1.480075,1003.5067,1,2
29.32,-7.2383637,5.459528,-1.6221051000000002,1003.5041,1,2
29.36,-6.516588,5.5929904000000015,-1.4800706,1003.4711,1,2
29.4,-6.181979,6.041046,-1.811477,1003.47363,1,2
29.44,-6.086359,6.651165,-1.9819133,1003.4583,1,2
29.48,-6.679031,7.0610886,-2.6447277,1003.4889,1,2
29.52,-6.530833,6.941923599999999,-2.5642407000000005,1003.48865,1,2
29.56,-6.5212507,7.294648,-2.6683955000000004,1003.51135,1,2
29.6,-6.640722800000002,7.046786999999999,-2.6825964,1003.4988,1,2
29.64,-6.898808,7.19455,-2.4742806,1003.4635,1,2
29.68,-7.0756373,6.732193,-2.048182,1003.4912,1,2
29.72,-6.8318415,6.946687,-1.7167712,1003.50385,1,2
29.76,-6.659746000000001,6.5081635,-1.2622664,1003.50635,0,0
29.8,-6.788778,6.0601068,-0.954528,1003.50146,0,0
29.84,-7.3288717,5.5405517,-0.7225399,1003.4003,0,0
29.88,-7.247589599999999,6.060105999999998,-0.81722564,1003.42804,0,0
29.92,-7.859381699999999,6.298433,-0.997131,1003.4658,0,0
29.96,-7.850491499999999,6.265084,-1.1439588,1003.4812,0,0
30.0,-7.362956,6.317516,-1.5085084,1003.4836,0,0
30.04,-7.2864823,6.1983514,-1.3096635,1003.50146,0,0
30.08,-7.382082,6.0839542999999985,-1.2907263,1003.45825,0,0
30.12,-7.7214518,6.3222823,-1.3238677,1003.4506,0,0
30.16,-7.6115203,6.412847,-1.1250228999999998,1003.45306,0,0
30.2,-7.46335,6.217418,-1.4185563,1003.49854,0,0
30.24,-7.496813,6.198352,-1.5416511999999998,1003.5242,0,0
30.28,-7.793164,5.759829,-1.5227138999999998,1003.4861,0,0
30.32,-7.5207190000000015,6.1173205,-1.3380725,1003.4838,0,0
30.36,-7.34865,6.131621,-1.2055095,1003.5087,0,0
30.4,-7.582864,6.0839553,-1.2623228000000002,1003.48846,0,0
30.44,-7.788399000000001,5.7073975,-1.5274497,1003.51135,0,0
30.48,-7.611550299999998,5.7598295,-1.432762,1003.5264,0,0
30.52,-7.855324,5.75983,-1.7262953999999997,1003.4685,0,0
30.56,-7.8887863,5.6692653,-1.5463883,1003.4758,0,0
30.6,-7.482507000000001,5.8503947,-1.6694832,1003.52893,0,0
30.64,-7.764518700000001,5.664499,-1.5511235,1003.4706,0,0
30.68,-7.7215047,5.75983,-1.5889989,1003.5034,0,0
30.72,-7.6067924,5.8170285,-1.6221403,1003.5163,0,0
30.76,-7.7645300000000015,5.6406665,-1.5937341,1003.4988,0,0
30.8,-7.802772,5.7026315,-1.7120945,1003.48615,0,0
30.84,-7.573345699999999,5.8789945,-1.7215637,1003.5341,0,0
30.88,-7.903156,5.697865,-1.8399242,1003.4783,0,0
30.92,-7.841022,5.912360700000002,-1.8115182,1003.5087,0,0
30.96,-7.477508500000001,5.898054599999999,-1.7310106,1003.47076,0,0
31.0,-7.5205207,5.7216916,-1.6694627,1003.48596,0,0
31.04,-7.826422,5.545329,-1.9298544,1003.51624,0,0
31.08,-7.539627,5.8789883000000005,-1.7594153,1003.51624,0,0
31.12,-7.716474000000002,5.6692589999999985,-1.7499458,1003.49097,0,0
31.16,-7.678228999999999,5.8599215,-1.7641484,1003.4657,0,0
31.2,-7.539608,5.9790854000000015,-1.8635705,1003.49866,0,0
31.24,-7.477464,6.002918,-1.9582579,1003.5186,0,0
31.28,-7.630412,5.7741227,-1.8919756,1003.4909,0,0
31.32,-7.515690299999998,5.740757,-1.7878182,1003.4402,0,0
31.36,-7.510905,5.921886,-1.7736145,1003.4808,0,0
31.4,-7.5778155,5.9171190000000005,-1.8351611,1003.52106,0,0
31.44,-7.7355423,5.826555,-1.9961302,1003.5312,0,0
31.48,-7.41051,6.0791817,-1.906176,1003.4984,0,0
31.52,-7.2957883,6.0601153,-1.9109099,1003.4882,0,0
31.56,-7.702064999999998,5.793188,-1.9203781,1003.4907,0,0
31.6,-7.6064630000000015,5.8932858,-1.8256896,1003.50854,0,0
31.64,-7.4200444,6.0267487,-1.8020169,1003.52606,0,0
31.68,-7.6829276,5.840853,-1.8493602,1003.511,0,0
31.72,-7.577766,5.7455215,-1.9535165,1003.49817,0,0
31.76,-7.391347,5.874219,-1.7925464,1003.5337,0,0
31.8,-7.525175599999999,5.797954,-1.8493586,1003.5009,0,0
31.84,-7.768939,5.812253,-2.0576718,1003.5336,0,0
31.88,-7.606419,5.95525,-1.8304198,1003.5158,0,0
31.92,-7.8167243000000015,5.702622,-1.9582481,1003.5186,0,0
31.96,-7.8823085000000015,5.6978230000000005,-1.9391885,1003.52606,0,0
32.0,-7.7245193,5.545291400000001,-1.6787912,1003.5311,0,0
32.04,-8.016031,5.69782,-1.7734742,1003.52606,0,0
32.08,-7.5379877,5.6739855000000015,-2.1285489,1003.55615,0,0
32.12,-8.039808,5.573887,-2.3605292,1003.5107,0,0
32.16,-7.528313000000002,5.8503456,-2.1096008,1003.5007,0,0
32.2,-7.141093,5.9838076,-2.5214887000000004,1003.56396,0,0
32.24,-7.561656,5.3593874,-2.4315295,1003.5815,0,0
32.28,-7.188768,5.583414,-2.2184753,1003.50574,0,0
32.32,-7.030975,5.902772,-2.6256287,1003.54364,0,0
32.36,-7.3129277,5.712108,-2.3747003,1003.4956,0,0
32.4,-7.250734299999999,6.088665,-2.61615,1003.5462,0,0
32.44,-6.715333,6.1696944,-2.4788463,1003.569,0,0
32.48,-7.207597,5.855100599999999,-1.7970868000000002,1003.50073,0,0
32.52,-7.3126929999999986,6.3651204,-1.5603613,1003.49054,0,0
32.56,-7.427349,6.641578999999999,-1.1153216,1003.4449,0,0
32.6,-7.718857000000002,6.312686,-1.650304,1003.5285,0,0
32.64,-7.642320599999999,5.826495,-2.1758175,1003.56116,0,0
32.68,-7.580131,5.740696,-2.388861,1003.508,0,0
32.72,-7.508374000000001,5.6072307,-2.573497,1003.4929,0,0
32.76,-7.341017699999999,5.9885535,-2.2799585,1003.4854,0,0
32.8,-7.259705499999999,5.530963,-2.2515466,1003.5233,0,0
32.84,-7.4843,5.712091,-1.953274,1003.51324,0,0
32.88,-7.479457400000001,5.998082599999999,-1.9248619,1003.5283,0,0
32.92,-7.8331027,5.840785,-1.920122,1003.52325,0,0
32.96,-7.796479,5.793158999999998,-1.7640345000000002,1003.5309,0,0
33.0,-7.672211,5.945689,-1.8255825,1003.5056,0,0
33.04,-7.7821546,5.6978282999999985,-1.8019111,1003.52576,0,0
33.08,-7.887318,5.6787624,-1.9155377,1003.5334,0,0
33.12,-7.447583,5.9170904,-1.925007,1003.5207,0,0
33.16,-7.500169,5.3451037,-1.8823981,1003.49036,0,0
33.2,-8.083313,5.235473000000002,-2.1617289,1003.5384,0,0
33.24,-7.7200546,5.7788606,-1.9628843,1003.5384,0,0
33.28,-7.7391815,5.5262337,-1.6598831000000005,1003.5308,0,0
33.32,-7.48108,5.9790564,-1.626743,1003.56116,0,0
33.36,-7.595802000000001,5.783628,-2.05284,1003.6067,0,0
33.4,-7.629269,6.045789,-2.0149655,1003.5536,0,0
33.44,-7.8443675000000015,5.845593,-1.8161211,1003.55865,0,0
33.48,-7.1656426999999985,5.8789597,-1.219587,1003.5207,0,0
33.52,-7.796583999999998,6.312716,-1.5131207,1003.49286,0,0
33.56,-7.5958395,5.936158,-2.1759381,1003.58875,0,0
33.6,-7.7105627,5.3689384,-2.4410655,1003.5888,0,0
33.64,-7.9447803,5.102011,-2.455269,1003.508,0,0
33.68,-7.815733,6.026724,-1.915548,1003.5207,0,0
33.72,-8.006932,6.431881,-1.7829852,1003.5155,0,0
33.76,-7.624557000000001,5.626333,-1.7167042,1003.56104,0,0
33.8,-7.1704826,5.3689394,-2.3605838,1003.54083,0,0
33.84,-6.2862263,5.836062,-1.991301,1003.46014,0,0
33.88,-7.189616,4.992382,-2.1806781,1003.465,0,0
33.92,-7.7632002999999985,5.0257483,-2.6919942000000003,1003.4449,0,0
33.96,-8.236502,6.3699193,-3.3358827000000004,1003.51807,0,0
34.0,-6.0186853,6.570115,-2.810365,1003.5838,0,0
34.04,-7.3379226,5.311744,-2.5499737,1003.4803,0,0
34.08,-7.247117999999999,6.455718,-2.625725,1003.53577,0,0
34.12,-6.573177,6.031495,-2.9666033,1003.60394,0,0
34.16,-7.8446164,5.473808,-2.8529785,1003.4549,0,0
34.2,-8.140975,5.8360667,-3.2033255,1003.46,0,0
34.24,-6.8122015,6.393753500000001,-2.6588700000000003,1003.50543,0,0
34.28,-7.5960990000000015,6.331789499999998,-3.1654522000000003,1003.52826,0,0
34.32,-7.352340700000001,5.1592164,-3.1891253,1003.57367,0,0
34.36,-7.490966,5.211649,-3.1559856,1003.4424,0,0
34.4,-7.5578949999999985,4.882757,-3.709912,1003.4979,0,0
34.44,-7.342814,4.8160253,-3.7288508,1003.4752,0,0
34.48,-7.8399262,4.982855000000002,-3.9513686,1003.5383,0,0
34.52,-6.520711,5.7884035,-4.358528,1003.58124,0,0
34.56,-7.4766827,5.2926817,-3.9703083,1003.57623,0,0
34.6,-7.667886699999999,5.283149,-3.7951365,1003.5154,0,0
34.64,-7.0321836,5.3069816,-3.6389022,1003.5282,0,0
34.68,-7.5579734,5.4213796,-3.686247,1003.49536,0,0
34.72,-7.362012400000001,4.9447236,-4.3206587,1003.5509,0,0
34.76,-7.175611999999999,4.668264,-4.0034540000000005,1003.4726,0,0
34.8,-6.3630557,5.7073736,-4.424817,1003.51807,0,0
34.84,-6.2483516,5.416614,-3.6862514,1003.4625,0,0
34.88,-7.1278477,5.5596112999999985,-4.022395,1003.45734,0,0
34.92,-6.9701257,6.2555285000000005,-3.7335975,1003.55347,0,0
34.96,-6.98831,5.769317,-3.5015259,1003.59894,0,0
35.0,-7.5666394,5.4213575999999986,-3.1653807,1003.48785,0,0
35.04,-6.7588240000000015,5.755016,-3.2032535,1003.4424,0,0
35.08,-7.533128,5.8122144,-3.515722,1003.41187,0,0
35.12,-6.806572,6.1363397000000015,-4.1406612,1003.54083,0,0
35.16,-6.486299,5.550052,-3.7003589,1003.5131,0,0
35.2,-6.624886,5.8408113,-3.4399643,1003.50037,0,0
35.24,-6.424108,6.4509300000000005,-3.7429638,1003.57367,0,0
35.28,-6.7299905,6.603459,-3.4636314,1003.56354,0,0
35.32,-7.093227400000001,5.859876,-3.567786,1003.5585,0,0
35.36,-7.0406246,5.8884745,-2.7487316,1003.4803,0,0
35.4,-6.6629934,6.064836,-2.966512,1003.4901,0,0
35.44,-6.9497550000000015,6.1887665,-2.6729763,1003.46,0,0
35.48,-7.174381,6.2888627,-3.6671991,1003.53314,0,0
35.52,-6.4717216,5.7407084,-3.3073816,1003.55347,0,0
35.56,-7.441994999999999,5.8169723,-3.8707733,1003.5055,0,0
35.6,-6.457329799999999,6.4270916,-3.4636120000000004,1003.5231,0,0
35.64,-6.643716,5.3736815,-3.58197,1003.5204,0,0
35.68,-7.7430444,5.8169703,-2.9191506,1003.4222,0,0
35.72,-6.0748677,6.584386,-3.8423572,1003.5459,0,0
35.76,-7.1455173,5.735938,-3.6482444,1003.5207,0,0
35.8,-6.8013463000000005,5.4165782999999985,-4.315793,1003.57117,0,0
35.84,-6.2612004,5.550041,-4.3489323,1003.5055,0,0
35.88,-6.447586,5.4928412,-4.3157883,1003.5207,0,0
35.92,-6.4475627,5.5071406,-4.273176,1003.455,0,0
35.96,-6.375996,5.6644406,-4.803442,1003.56616,0,0
36.0,-6.476351,5.6692066,-4.5004377,1003.51807,0,0
36.04,-6.567147,5.812203,-4.4862328,1003.5106,0,0
36.08,-6.619707000000001,6.017164,-4.396277400000002,1003.5029,0,0
36.12,-6.605346000000001,5.716871,-4.4388847,1003.58124,0,0
36.16,-6.4906106,6.245958,-4.1406155,1003.48785,0,0
36.2,-6.160785,5.7216363,-4.3299904,1003.5484,0,0
36.24,-6.829936999999998,5.540506400000001,-4.187956,1003.4398,0,0
36.28,-6.672183500000001,6.1935244,-4.0033126,1003.508,0,0
36.32,-6.1941824,6.193524,-4.1169367,1003.50037,0,0
36.36,-6.49529,6.207823,-4.2921076,1003.5029,0,0
36.4,-6.289739599999999,6.1839895,-4.363122,1003.5561,0,0
36.44,-6.1415453,6.164923,-4.2447605,1003.5155,0,0
36.48,-6.480890799999999,5.8407965,-3.9701624,1003.4853,0,0
36.52,-6.5669070000000005,6.508114,-4.116927,1003.49536,0,0
36.56,-5.5583496,6.4509153,-4.306301,1003.58136,0,0
36.6,-6.609887,5.783597,-4.02697,1003.5233,0,0
36.64,-6.141446,5.983792,-4.1595316,1003.5333,0,0
36.68,-6.4043136,6.193519,-4.434125,1003.52325,0,0
36.72,-6.55247,6.0600557,-4.632968,1003.513,0,0
36.76,-6.51421,5.8455596,-4.0601034,1003.5055,0,0
36.8,-6.2321825,5.9885554,-4.173728,1003.5283,0,0
36.84,-6.767499000000001,5.9980884,-3.9843493,1003.49286,0,0
36.88,-6.4424519999999985,6.05052,-4.4293814000000005,1003.5738,0,0
36.92,-6.5045705,5.7359266,-3.951205,1003.52325,0,0
36.96,-6.442793,6.055295,-4.069598,1003.54083,0,0
37.0,-6.0365043,6.0934277,-3.5440786,1003.49554,0,0
37.04,-6.839506599999999,6.2125910000000015,-3.9322991,1003.5257,0,0
37.08,-6.3710804,5.864632599999998,-4.031721,1003.5461,0,0
37.12,-6.968551,6.021929,-3.4446547,1003.455,0,0
37.16,-5.988686,6.10296,-3.6434991,1003.5333,0,0
37.2,-7.207530999999999,6.3746532999999985,-3.5914202000000004,1003.4602,0,0
37.24,-6.8633804000000005,6.3460546,-4.3252525,1003.5637,0,0
37.28,-6.194203,5.416576,-3.4872625,1003.5056,0,0
37.32,-7.3031125,6.083894,-3.278948,1003.4273,0,0
37.36,-5.936083999999999,7.189734,-3.7239816,1003.536,0,0
37.4,-6.4140587,5.869398,-3.9322948,1003.58636,0,0
37.44,-7.6663622999999985,5.1496477,-4.249499299999999,1003.56616,0,0
37.48,-6.3327923,5.254512,-4.0506544,1003.4803,0,0
37.52,-6.872905,5.1734805,-3.0280223,1003.4046,0,0
37.56,-7.0258536,5.955196,-3.3736336,1003.46014,0,0
37.6,-6.6386843,6.8370085000000005,-3.9086208,1003.5688,0,0
37.64,-6.337552,5.9456625,-4.5004206,1003.59143,0,0
37.68,-6.75339,5.6358356,-4.1027308,1003.54346,0,0
37.72,-6.356661,5.721634,-3.9322913,1003.5207,0,0
37.76,-6.6721233999999985,5.8217316,-3.7949934,1003.5082,0,0
37.8,-6.652999,6.0457597000000005,-3.5156631000000003,1003.5384,0,0
37.84,-6.308848,6.29362,-3.6198194,1003.4853,0,0
37.88,-6.2419257,6.393718,-2.8528452,1003.5258,0,0
37.92,-7.164422999999998,6.8703732,-3.4777863,1003.6065,0,0
37.96,-5.639439,6.5462418,-2.0811162,1003.5384,0,0
38.0,-7.613486,6.75597,-2.6255715,1003.503,0,0
38.04,-6.633611,6.922799,-1.5224539,1003.54364,0,0
38.08,-7.197614,6.674938,-2.1947381,1003.5157,0,0
38.12,-6.7482996,6.6272720000000005,-1.8349222,1003.59424,0,0
38.16,-6.595331699999999,7.0276622999999985,-2.3699086,1003.5434,0,0
38.2,-6.8916655,6.6368046000000005,-2.2042031000000004,1003.54114,0,0
38.24,-6.9394503,6.403243,-2.3130932,1003.5334,0,0
38.28,-6.8534,6.517639599999999,-1.6171345,1003.43756,0,0
38.32,-6.9872212,6.551005,-2.024292,1003.4577,0,0
38.36,-7.011105499999998,6.1220155,-2.857546,1003.56146,0,0
38.4,-7.1688266,5.979018,-2.5924182,1003.49567,0,0
38.44,-6.7481885,6.836997500000002,-2.1095076,1003.51843,0,0
38.48,-6.662139999999999,6.827464599999999,-2.0100837,1003.5765,0,0
38.52,-7.857077,5.7597556,-2.3841007000000003,1003.574,0,0
38.56,-7.565494,5.5309599999999985,-2.0384877,1003.5765,0,0
38.6,-7.4507656,5.8407860000000005,-2.0668929,1003.5233,0,0
38.64,-7.5511284,5.611991400000001,-2.2799400000000003,1003.48816,0,0
38.68,-7.7327460000000015,5.4546943,-2.1095002,1003.45526,0,0
38.72,-7.4124865999999985,5.7502203000000005,-2.0763578000000003,1003.5057,0,0
38.76,-7.541526299999999,5.4880595,-2.1426382,1003.5259,0,0
38.8,-7.785282,5.449927,-2.0432146,1003.5285,0,0
38.84,-7.7565913,5.6787214000000015,-2.1615736,1003.53107,0,0
38.88,-7.5558243,5.7835855,-2.081087,1003.5107,0,0
38.92,-7.7565637,5.5500235999999985,-2.0100698,1003.52094,0,0
38.96,-7.480585,5.850347,-1.8870898,1003.53357,0,0
39.0,-7.557099000000001,5.859882,-1.986516,1003.5537,0,0
39.04,-7.5284567,5.6930532,-2.0622697,1003.4956,0,0
39.08,-7.9634557,5.459492,-2.1190858,1003.4728,0,0
39.12,-7.557206599999999,5.8884835,-2.0812137,1003.43756,0,0
39.16,-7.624159,5.702588,-2.0717483,1003.4879,0,0
39.2,-7.466462,5.8837185,-2.067017,1003.52094,0,0
39.24,-7.576434,5.688290599999998,-2.261131,1003.5235,0,0
39.28,-7.53823,5.659692,-2.1664462,1003.51843,0,0
39.32,-7.586067,5.793156,-2.4268422000000003,1003.5283,0,0
39.36,-7.304095699999999,5.964753599999999,-2.3558292,1003.5283,0,0
39.4,-7.2706714,5.9456882,-2.3747700000000003,1003.5334,0,0
39.44,-7.203792999999999,5.90279,-2.6114938,1003.5437,0,0
39.48,-7.4380380000000015,5.6692300000000015,-2.6967163,1003.5006,0,0
39.52,-7.399836,5.9409246,-2.6115005,1003.5259,0,0
39.56,-7.098745299999999,5.74073,-2.5120814,1003.5006,0,0
39.6,-7.33299,5.9123269999999986,-2.332177,1003.50824,0,0
39.64,-7.7106314,5.974293,-1.8350679,1003.473,0,0
39.68,-7.399978999999999,6.174489,-1.8208679,1003.5387,0,0
39.72,-7.8540993000000014,5.831298,-1.8729498,1003.574,0,0
39.76,-7.404832400000001,5.869431,-1.801937,1003.5109,0,0
39.8,-7.232798599999999,5.974296,-1.7261901000000002,1003.4881,0,0
39.84,-7.419242999999999,6.0696287,-2.0481324,1003.54865,0,0
39.88,-7.285444999999998,6.4318876,-2.2753873,1003.5639,0,0
39.92,-7.2520237,6.2507595999999985,-2.4600327,1003.5639,0,0
39.96,-7.3033714,5.940903,-2.4315135,1003.5158,0,0
40.0,-7.1121674,5.874171,-2.426778,1003.52094,0,0
40.04,-7.169511,6.0838995,-2.4693863,1003.5158,0,0
40.08,-7.164717,6.2459617,-2.2989464,1003.5083,0,0
40.12,-7.312875999999998,6.160163400000001,-2.2658045,1003.5133,0,0
40.16,-7.370220699999999,6.241194200000002,-2.0716925,1003.503,0,0
40.2,-7.0547395,6.28886,-2.1000977,1003.51807,0,0
40.24,-7.417990700000002,6.088664,-2.1142995,1003.54877,0,0
40.28,-6.8874187,6.288859,-1.8870468,1003.52094,0,0
40.32,-7.336708,6.1744614,-2.0858908,1003.5285,0,0
40.36,-7.026006,6.193527,-1.9059819,1003.5387,0,0
40.4,-7.0498910000000015,6.279325,-2.0196066000000004,1003.51843,0,0
40.44,-7.1167940000000005,6.379421700000001,-2.1379654,1003.531,0,0
40.48,-6.8156539999999985,6.1982927000000005,-2.0906203000000003,1003.5108,0,0
40.52,-7.021171000000002,6.43662,-2.0764153000000003,1003.5157,0,0
40.56,-6.8777633,6.6415815,-2.119024,1003.5208,0,0
40.6,-6.8920884,6.6749473,-2.2610548,1003.5359,0,0
40.64,-7.054589,6.5414834000000015,-2.3273351000000004,1003.5384,0,0
40.68,-6.968538799999998,6.3746532999999985,-2.104817,1003.5358,0,0
40.72,-6.958964999999999,6.489051,-2.1095502,1003.5131,0,0
40.76,-7.073667,6.6082144,-2.2421122,1003.51825,0,0
40.8,-6.853781,6.703545,-2.2657830000000003,1003.5285,0,0
40.84,-6.719933500000002,6.7369103,-2.2089689,1003.5157,0,0
40.88,-6.767718,6.641578999999999,-2.2089674,1003.5232,0,0
40.92,-7.0688309999999985,6.512882,-2.0243244,1003.5082,0,0
40.96,-6.754838,6.527218,-2.0433967,1003.5486,0,0
41.0,-7.017775500000001,6.4175879999999985,-2.0954797,1003.54083,0,0
41.04,-7.032157400000001,6.3794565,-2.2848601000000004,1003.5056,0,0
41.08,-6.9844054999999985,6.374691,-2.1807075,1003.5131,0,0
41.12,-7.304697999999999,6.265062,-2.2517273,1003.49036,0,0
41.16,-7.0944295,6.317495,-2.166512,1003.5056,0,0
41.2,-7.2044106,6.43666,-2.185454,1003.53076,0,0
41.24,-7.2235785,6.374696,-2.3085527000000003,1003.54095,0,0
41.28,-7.1662636,6.255532700000002,-2.0813053,1003.5031,0,0
41.32,-7.061151,6.331799,-2.019762,1003.5233,0,0
41.36,-7.142453,6.288901,-2.0387042,1003.5207,0,0
41.4,-7.0469050000000015,6.3032017,-2.119193,1003.5082,0,0
41.44,-7.099525999999999,6.360401,-2.17601,1003.5132,0,0
41.48,-7.042214,6.3747025,-2.033982,1003.4778,0,0
41.52,-7.061379,6.2984385000000005,-2.1334085,1003.5005,0,0
41.56,-7.2191553,6.222174,-2.1428814,1003.52325,0,0
41.6,-6.8941717,6.379472,-2.0529318,1003.4981,0,0
41.64,-7.1475496,6.298442,-2.1381555,1003.4979,0,0
41.68,-7.0854550000000005,6.4223733,-2.1855032000000003,1003.4777,0,0
41.72,-7.0616016,6.3985415,-2.2044451,1003.5436,0,0
41.76,-7.0281916,6.398543,-2.1334336,1003.5333,0,0
41.8,-7.0091147,6.3508782,-2.1902502,1003.52057,0,0
41.84,-7.01872,6.3461127,-2.209192,1003.51556,0,0
41.88,-6.990087,6.374713400000001,-2.275478,1003.5257,0,0
41.92,-7.095286,6.3604145,-2.337029,1003.51807,0,0
41.96,-7.026289,6.274565,-2.265823,1003.53314,0,0
42.0,-6.9402156,6.379428400000001,-2.2326784,1003.5257,0,0
42.04,-7.030989999999999,6.331763,-2.308425,1003.5155,0,0
42.08,-7.226922999999998,6.331762,-2.3747032000000003,1003.5106,0,0
42.12,-7.021354700000002,6.331761,-2.2563398,1003.5131,0,0
42.16,-7.064334,6.33176,-2.1474447,1003.49536,0,0
42.2,-7.3415256,6.117264,-2.1569102000000004,1003.46,0,0
42.24,-6.9829984,6.2793255,-2.0716872,1003.51044,0,0
42.28,-7.174151400000001,6.2936239999999986,-2.2184498,1003.51556,0,0
42.32,-7.322291000000001,6.3841877,-2.2042437,1003.5333,0,0
42.36,-7.059362400000001,6.293622,-2.133224,1003.50543,0,0
42.4,-7.021085,6.4699836,-2.208971,1003.5131,0,0
42.44,-6.997146000000001,6.1458572999999985,-2.1190135,1003.5104,0,0
42.48,-7.255216000000001,6.2507205,-2.2941830000000003,1003.48505,0,0
42.52,-7.164363400000001,6.179221599999999,-2.1616166,1003.5005,0,0
42.56,-7.0496063,6.336516400000002,-2.1000652,1003.4775,0,0
42.6,-7.427173599999999,6.269784,-2.2468283,1003.5282,0,0
42.64,-6.9395967,6.579609,-1.6597588,1003.4926,0,0
42.68,-7.6517463,6.522409400000001,-2.1237268,1003.54315,0,0
42.72,-7.728183299999999,6.570074000000001,-2.3320367,1003.6265,0,0
42.76,-6.858219999999998,6.236414,-2.4077837000000004,1003.5835,0,0
42.8,-6.8964240000000006,5.3831997000000005,-2.3699055,1003.5835,0,0
42.84,-7.3313437000000015,5.144871,-2.5071995,1003.5028,0,0
42.88,-7.278727000000001,5.001873000000002,-2.5829463,1003.5005,0,0
42.92,-7.8474865,5.1448693,-3.0895243,1003.5028,0,0
42.96,-7.255735,5.1782575,-2.9807193,1003.55853,0,0
43.0,-7.0645432,5.197324299999999,-2.9807193,1003.57117,0,0
43.04,-7.599881,5.5452824,-2.578295,1003.4979,0,0
43.08,-6.887689999999999,6.4461617,-2.346309,1003.52295,0,0
43.12,-6.749076400000001,6.9847827,-1.6503514,1003.5383,0,0
43.16,-8.331191,6.112503,-1.7308363999999998,1003.5939,0,0
43.2,-7.7145967,6.703556,-1.3189431,1003.7173,0,0
43.24,-7.241396000000001,6.336531,-0.8739091,1003.75543,0,0
43.28,-7.662019,6.5462594,-0.8739091,1003.8638,0,0
43.32,-8.484145,5.7931433,-1.1058948,1003.94214,0,0
43.36,-7.6237803,5.926607,-0.9875348,1003.778,0,0
43.4,-7.8149724,5.5548160000000015,-1.3094743,1003.5911,0,0
43.44,-7.800633,5.025728,-0.9354564,1003.4903,0,0
43.48,-8.694456,5.3117220000000005,-1.4183656999999998,1003.51544,0,0
43.52,-7.705037,5.5119166,-1.271599,1003.45233,0,0
43.56,-8.288173,5.1448917000000005,-1.2952713,1003.4522,0,0
43.6,-8.1113205,5.1925573,-1.1958486000000002,1003.412,0,0
43.64,-7.972706,5.469018,-1.1911143,1003.4499,0,0
43.68,-8.077861,5.4499516,-1.3710215,1003.4777,0,0
43.72,-7.934467999999999,5.3784532999999985,-1.3899591999999998,1003.52325,0,0
43.76,-7.834091,5.1067595,-1.4751784,1003.50775,0,0
43.8,-7.7384952999999985,5.559582700000001,-1.2195207,1003.4699,0,0
43.84,-7.666798599999999,5.6739798,-0.90704995,1003.43964,0,0
43.88,-7.853211,6.1554017,-1.3094743,1003.52325,0,0
43.92,-7.5425233999999985,5.478551,-1.02541,1003.54083,0,0
43.96,-7.676358,5.726412,-1.5793356,1003.62396,0,0
44.0,-7.4899454,5.421352400000001,-1.153239,1003.5079,0,0
44.04,-7.8388715,5.4070525,-1.1863799,1003.4853,0,0
44.08,-7.437367999999998,5.654913400000001,-1.247927,1003.5179,0,0
44.12,-7.657239,5.4976172,-1.3094743,1003.5002,0,0
44.16,-7.4708266,5.654913400000001,-1.4136313,1003.5104,0,0
44.2,-7.4421477,5.421352400000001,-1.4088968000000002,1003.50037,0,0
44.24,-7.179259,5.4404182,-1.5793356,1003.53076,0,0
44.28,-7.4132795,5.3450828,-1.3710042,1003.475,0,0
44.32,-7.2794375,5.8217382,-1.6503335,1003.51807,0,0
44.36,-7.2794313,5.5071454000000015,-1.498832,1003.5028,0,0
44.4,-7.480180000000002,5.61201,-1.5651133,1003.47,0,0
44.44,-7.159925500000001,5.7264066,-1.3567989,1003.4547,0,0
44.48,-7.1360207,5.8074384000000006,-1.4467521,1003.49536,0,0
44.52,-7.355886,5.688274,-1.2952507,1003.51025,0,0
44.56,-7.1742477,5.907535,-1.3662661,1003.50037,0,0
44.6,-7.1790223,5.855103,-1.3331249,1003.5029,0,0
44.64,-7.3319697,5.645375,-1.2952491000000002,1003.5157,0,0
44.68,-7.0881940000000005,5.6263084,-1.2479044,1003.5002,0,0
44.72,-7.250702,5.707339299999999,-1.484624,1003.50543,0,0
44.76,-7.1120834,5.6835065,-1.4088732,1003.5002,0,0
44.8,-7.532698599999999,5.6549067000000015,-0.94490093,1003.48004,0,0
44.84,-7.126411,5.5691085,-1.2052928,1003.5381,0,0
44.88,-7.155084,5.7216387000000015,-1.3094492,1003.53314,0,0
44.92,-7.284132,5.3403144000000005,-1.0727283,1003.50775,0,0
44.96,-7.0929356,5.6358404,-1.1721503999999998,1003.52795,0,0
45.0,-7.0021124000000015,5.6072407,-1.2810411,1003.5331,0,0
45.04,-7.288895599999999,5.688272,-1.238431,1003.5358,0,0
45.08,-6.916066000000002,5.5977073,-1.1958208,1003.54584,0,0
45.12,-7.226747,5.878933999999999,-1.4372749,1003.55334,0,0
45.16,-7.045107000000002,5.5738745000000005,-1.186351,1003.53577,0,0
45.2,-7.198057,5.826502,-1.2573665,1003.58105,0,0
45.24,-6.9017034,5.6596720000000005,-1.2526317,1003.56354,0,0
45.28,-7.30771,5.9980907,-1.6408275,1003.5607,0,0
45.32,-7.054364,5.726396599999998,-1.1721198999999998,1003.528,0,0
45.36,-7.279001700000001,5.097211,-0.708147,1003.4497,0,0
45.4,-7.259863,5.96949,-1.5319318000000002,1003.56586,0,0
45.44,-7.221607700000002,5.411803,-0.64659643,1003.4803,0,0
45.48,-7.2168160000000015,5.8646255,-1.2904743,1003.56335,0,0
45.52,-7.5800652999999985,5.368903,-1.5177244,1003.6293,0,0
45.56,-7.938533,5.0447764,-0.91645336,1003.5459,0,0
45.6,-7.89072,4.7778497,-1.9201456,1003.6015,0,0
45.64,-7.675612400000001,5.030476599999999,-1.3472813,1003.5557,0,0
45.68,-7.728173700000001,4.6729846,-1.910674,1003.5561,0,0
45.72,-8.005386,4.8016806,-1.636077,1003.5257,0,0
45.76,-7.7568199999999985,4.6825160000000015,-1.4703714,1003.55096,0,0
45.8,-7.6994467,4.820746400000001,-1.9438105,1003.57855,0,0
45.84,-7.747227,4.7158813,-1.2005073999999998,1003.61664,0,0
45.88,-8.029217,4.6729827,-1.6218677,1003.57855,0,0
45.92,-7.723296,4.9303756,-1.7828362000000002,1003.6241,0,0
45.96,-8.143904,5.001874,-1.7023499,1003.6441,0,0
46.0,-7.914457,4.8779426,-1.498769,1003.5863,0,0
46.04,-7.943119,4.930374,-1.8727854,1003.5838,0,0
46.08,-8.354166000000001,4.6205482,-1.7686269,1003.55347,0,0
46.12,-8.010003,4.8445764,-1.6786717,1003.54584,0,0
46.16,-8.3063345,4.8350425,-2.0432193,1003.5813,0,0
46.2,-8.277639,4.873174,-1.7544193,1003.56866,0,0
46.24,-8.378,4.744477,-1.8254341,1003.58124,0,0
46.28,-8.168622000000001,4.773099,-1.8491914,1003.6316,0,0
46.32,-8.24512,4.668236,-1.7971148,1003.60645,0,0
46.36,-8.264263,4.425142,-1.8823365,1003.6217,0,0
46.4,-8.388557,4.591971400000001,-1.7923846,1003.609,0,0
46.44,-8.560652000000001,4.6968365,-1.8823403000000003,1003.64185,0,0
46.48,-8.054015,4.7016034000000015,-1.7450442,1003.63434,0,0
46.52,-8.312144,4.520475,-1.7639838,1003.66455,0,0
46.56,-8.245248,4.7206707,-1.81133,1003.6494,0,0
46.6,-8.321747,4.5824413,-1.7592536,1003.6722,0,0
46.64,-8.450823,4.611041,-1.7639897,1003.64185,0,0
46.68,-8.307449,4.792171,-1.8302732,1003.6595,0,0
46.72,-8.340928,4.8541365,-1.7734624,1003.6268,0,0
46.76,-8.374409,4.73974,-1.7355891,1003.66705,0,0
46.8,-8.39355,4.8398376,-1.7261223,1003.66455,0,0
46.84,-8.350552,4.873204,-1.7450618000000002,1003.7177,0,0
46.88,-8.312336,4.8732047,-1.7876734,1003.74036,0,0
46.92,-8.412732,4.5586123,-1.7640033,1003.71,0,0
46.96,-8.326716000000001,4.7254424,-1.6882547,1003.70514,0,0
47.0,-8.379316000000001,4.725443,-1.8681641,1003.7506,0,0
47.04,-8.264623,4.811241000000001,-1.6645865000000002,1003.6924,0,0
47.08,-8.30766,4.74451,-1.6882604,1003.7252,0,0
47.12,-8.312464,4.7349772,-1.773482,1003.71,0,0
47.16,-8.245566,4.877975,-1.8255622,1003.74036,0,0
47.2,-8.255147000000001,4.796944,-1.7356105,1003.7429,0,0
47.24,-8.245610000000001,4.773112,-1.7403468999999998,1003.758,0,0
47.28,-8.312837,4.8255515,-1.8255944,1003.7506,0,0
47.32,-8.365446,4.9113503,-1.7498468999999996,1003.7556,0,0
47.36,-8.269881,4.9447165,-1.7687874,1003.74036,0,0
47.4,-8.360731,4.925651599999999,-1.6977744,1003.7125,0,0
47.44,-8.403782000000001,4.9208856,-1.6646365,1003.74286,0,0
47.48,-8.231742,5.020984,-1.6788428,1003.7858,0,0
47.52,-8.3560505,4.968553,-1.7593308999999997,1003.80365,0,0
47.56,-8.255705,4.9399543,-1.6788486,1003.81354,0,0
47.6,-8.236616999999999,4.9161220000000005,-1.6977891,1003.8238,0,0
47.64,-8.198414,4.9733220000000005,-1.6930580000000002,1003.78326,0,0
47.68,-8.174548,4.839859,-1.6551857,1003.81366,0,0
47.72,-8.184138,4.9733233,-1.7640798,1003.8112,0,0
47.76,-8.184172,4.8017282,-1.7498796000000003,1003.7884,0,0
47.8,-8.184204,4.8017287,-1.7262107,1003.758,0,0
47.84,-8.064739999999999,4.9161267,-1.8114328,1003.7631,0,0
47.88,-8.193829,5.044825,-1.8966552,1003.81366,0,0
47.92,-8.169962,5.0686589999999985,-1.8729861,1003.81354,0,0
47.96,-8.04572,5.149691000000002,-1.7925043,1003.8237,0,0
48.0,-8.356441,5.0734267,-1.8161793,1003.85144,0,0
48.04,-8.14138,5.092494,-1.8114479,1003.8819,0,0
48.08,-8.160531,4.9637976,-1.7641063999999995,1003.87177,0,0
48.12,-8.088869,5.245025,-1.8398602,1003.8946,0,0
48.16,-8.208397,5.321291,-1.8398632,1003.8743,0,0
48.2,-7.9981174,5.4118559999999984,-1.7877876,1003.8542,0,0
48.24,-8.050727,5.368958,-1.8304002,1003.85144,0,0
48.28,-7.991717299999999,5.2592870000000005,-1.8255147,1003.8793,0,0
48.32,-7.948664999999999,5.3403177,-1.726089,1003.87933,0,0
48.36,-7.9247336,5.2926507,-1.7213515,1003.9021,0,0
48.4,-8.034635,5.068622,-1.7213484,1003.88684,0,0
48.44,-7.9198856,5.1734858,-1.7213453,1003.8743,0,0
48.48,-7.924630599999999,5.354614,-1.8254992,1003.8819,0,0
48.52,-7.962833,5.278348,-1.7639484,1003.8768,0,0
48.56,-7.9675803,5.42611,-1.7544768,1003.86926,0,0
48.6,-8.077481,5.435642700000002,-1.8018177,1003.9097,0,0
48.64,-7.9436149999999985,5.488074,-1.7071266,1003.9325,0,0
48.68,-8.00572,5.516672,-1.7497333,1003.9147,0,0
48.72,-7.9913473,5.592937,-1.7165895,1003.9349,0,0
48.76,-8.019989,5.3832073,-1.7071173,1003.9954,0,0
48.8,-7.886122999999999,5.459471,-1.70238,1003.95764,0,0
48.84,-7.9864645,5.4261045,-1.7449863,1003.9299,0,0
48.88,-7.962531599999998,5.4118037,-1.7118424,1003.9703,0,0
48.92,-7.967275999999999,5.3164725,-1.7213081,1003.98035,0,0
48.96,-7.8477488,5.3021717000000015,-1.7023677,1003.9653,0,0
49.0,-7.928972,5.3593693,-1.7544429,1003.9526,0,0
49.04,-7.9862947,5.430867,-1.7781116999999995,1003.9703,0,0
49.08,-7.957582,5.3117027000000006,-1.8017806,1004.0082,0,0
49.12,-7.823715700000001,5.3736663,-1.8396529,1003.98035,0,0
49.16,-8.072230000000001,5.259268799999999,-1.7733681,1003.998,0,0
49.2,-8.03396,5.4642296,-1.7686308999999998,1003.9956,0,0
49.24,-8.067383,5.4689956,-1.763893,1004.0359,0,0
49.28,-8.001737,5.454726,-1.7071966,1004.0135,0,0
49.32,-8.016094,5.469027,-1.6835262999999998,1004.0383,0,0
49.36,-8.001771000000002,5.507159,-1.7166686000000002,1004.0034,0,0
49.4,-8.130842999999999,5.478560400000001,-1.8066238,1004.0538,0,0
49.44,-8.040044,5.3355646,-1.7166717,1004.0489,0,0
49.48,-7.9970455,5.3736973,-1.7308767,1004.04364,0,0
49.52,-7.982722,5.278367,-1.7971596999999997,1004.0715,0,0
49.56,-7.872803699999999,5.3022003,-1.7498173,1004.0638,0,0
49.6,-8.011436,5.1306047,-1.8113664,1004.0513,0,0
49.64,-7.896737599999999,5.354633,-1.7876959,1004.03864,0,0
49.68,-8.016250999999999,5.2879014,-1.9344641,1004.06885,0,0
49.72,-7.805957,5.335567500000002,-1.915528,1004.1069,0,0
49.76,-7.906351,5.11154,-1.9676081000000003,1004.0916,0,0
49.8,-8.006744,5.3260355000000015,-1.8823905,1004.07404,0,0
49.84,-7.9446235,5.4690330000000005,-1.8681886000000003,1004.11176,0,0
49.88,-7.892063,5.4690332,-1.7403613000000002,1004.0841,0,0
49.92,-8.097613,5.4070683,-1.7356286,1004.1143,0,0
49.96,-7.9924735999999985,5.4785666,-1.7308958,1004.08905,0,0
50.0,-7.997272,5.311738,-1.6882877,1004.1143,0,0
50.04,-8.040307,5.5262337,-1.8445247,1004.14716,0,0
50.08,-8.021206,5.373704,-1.8776672,1004.13715,0,0
50.12,-7.806132300000002,5.397537000000002,-1.7451054,1004.1069,0,0
50.16,-8.131176,5.3069725,-1.7451069,1004.1371,0,0
50.2,-8.021257,5.2926736,-1.8966097,1004.1624,0,0
50.24,-7.949578999999999,5.2593083,-1.8918768,1004.1675,0,0
50.28,-7.935257400000001,5.2783747000000005,-1.8303311,1004.1069,0,0
50.32,-7.892257000000002,5.159211599999999,-1.6598942,1004.0765,0,0
50.36,-7.997428399999999,5.1878114,-1.6456925,1004.14465,0,0
50.4,-8.045244,5.1973449999999985,-1.560475,1004.1345,0,0
50.44,-8.026142,5.3737080000000015,-1.3995066,1004.1499,0,0
50.48,-8.169553,5.435673,-1.432649,1004.16,0,0
50.52,-8.073974,5.4690404,-1.309556,1004.1624,0,0
50.56,-8.217386,5.445207,-1.5273403,1004.20544,0,0
50.6,-8.078791,5.4309080000000005,-1.5084045,1004.20276,0,0
50.64,-8.031008,5.249779,-1.6172972,1004.1877,0,0
50.68,-8.016687,5.3546443,-1.5983613,1004.13715,0,0
50.72,-7.964128,5.368944,-1.6693789,1004.1675,0,0
50.76,-8.06452,5.335578400000001,-1.7261933,1004.1523,0,0
50.8,-8.035860000000001,5.2545476,-1.7782735,1004.2005,0,0
50.84,-8.026318,5.2307153,-1.650446,1004.20557,0,0
50.88,-8.045454,5.130618599999999,-1.6599164,1004.2005,0,0
50.92,-7.9928946,5.3117480000000015,-1.7025278999999998,1004.1929,0,0
50.96,-7.8781953,5.39278,-1.7214668999999998,1004.1802,0,0
51.0,-7.848647,5.402291,-1.7071841,1004.20807,0,0
51.04,-7.9537997,5.3546257000000015,-1.721387,1004.22064,0,0
51.08,-7.9107785,5.4642563,-1.7355901000000002,1004.213,0,0
51.12,-7.929895,5.502389,-1.8350122,1004.22314,0,0
51.16,-8.073286,5.4261236,-1.7687303,1004.2157,0,0
51.2,-7.963348,5.45949,-1.6740419999999998,1004.19293,0,0
51.24,-7.987244,5.5023885,-1.6456352,1004.23334,0,0
51.28,-8.101956,5.3879914000000015,-1.72612,1004.2434,0,0
51.32,-7.9442195999999985,5.5071545,-1.6645723999999995,1004.2308,0,0
51.36,-7.987235000000001,5.397524,-1.7450569,1004.2636,0,0
51.4,-7.8820763,5.345092,-1.6361654,1004.2661,0,0
51.44,-7.882072999999999,5.273594,-1.6693060000000002,1004.27374,0,0
51.48,-7.9203095,5.4356565,-1.7166498,1004.26117,0,0
51.52,-8.025462,5.3498583,-1.6361645,1004.26874,0,0
51.56,-7.9107437,5.3593910000000005,-1.6787740000000002,1004.2636,0,0
51.6,-8.020676,5.330792,-1.7213831999999998,1004.2864,0,0
51.64,-8.015893,5.1973286,-1.6740389999999998,1004.2788,0,0
51.68,-8.015889999999999,5.225928,-1.7687268,1004.2814,0,0
51.72,-8.16884,5.2020946,-1.7024449,1004.26355,0,0
51.76,-8.135378999999999,5.426122,-1.7497886000000002,1004.2838,0,0
51.8,-8.039781,5.550053,-1.8066013,1004.26874,0,0
51.84,-8.011099,5.4547215,-1.6740377,1004.2889,0,0
51.88,-8.054114,5.3832235,-1.6408966,1004.29663,0,0
51.92,-8.068451,5.430889,-1.6740370999999998,1004.3093,0,0
51.96,-7.929834,5.259293,-1.5272703,1004.3169,0,0
52.0,-8.063611,5.478553,-1.5272651000000002,1004.32684,0,0
52.04,-8.154423,5.4833197999999985,-1.3947014,1004.3219,0,0
52.08,-7.8915289999999985,5.321256,-1.4373107,1004.3547,0,0
52.12,-8.140074,5.121061,-1.3662941000000002,1004.3595,0,0
52.16,-8.359939,5.392755,-1.6645612,1004.4002,0,0
52.2,-8.202202,5.283124,-1.5177941,1004.35474,0,0
52.24,-8.216535,5.111527400000001,-1.4704496,1004.327,0,0
52.28,-8.082696,5.235458,-1.5130588,1004.327,0,0
52.32,-8.307342,5.2831235,-1.4704486,1004.3395,0,0
52.36,-8.393373,5.421354,-1.6266835,1004.37494,0,0
52.4,-8.297772,5.41182,-1.4325725,1004.3699,0,0
52.44,-8.484179,5.387987,-1.513057,1004.3648,0,0
52.48,-8.35512,5.4261193,-1.2858051,1004.37494,0,0
52.52,-8.4459305,5.440419,-1.5272591999999998,1004.35223,0,0
52.56,-8.5702,5.3975196,-1.1153654,1004.34467,0,0
52.6,-8.465038999999999,5.6120152,-1.569868,1004.40045,0,0
52.64,-8.412457,5.5691156,-1.5225234,1004.4027,0,0
52.68,-8.441131,5.397519,-1.4704446000000002,1004.4002,0,0
52.72,-8.579741,5.5500493,-1.4515063999999998,1004.3547,0,0
52.76,-8.484139,5.7597775,-1.2526611,1004.40015,0,0
52.8,-8.484135,5.7359447,-1.3094734,1004.45074,0,0
52.84,-8.622744,5.635847,-1.3662858999999998,1004.47864,0,0
52.88,-8.441106,5.5071497,-1.3047382,1004.4837,0,0
52.92,-8.6896515,5.378453,-1.4893795,1004.443,0,0
52.96,-8.617949000000001,5.340319999999998,-1.4467694,1004.42804,0,0
53.0,-8.585291,5.3403397,-1.498921,1004.45593,0,0
53.04,-8.623555999999999,5.259309,-1.3710947,1004.4228,0,0
53.08,-8.637921,5.3784738,-1.4610506,1004.42316,0,0
53.12,-8.810021,5.41184,-1.3853027,1004.4101,0,0
53.16,-8.685773,5.6549354,-1.314289,1004.42053,0,0
53.2,-8.747935,5.5405383000000015,-1.3095568000000002,1004.4101,0,0
53.24,-8.724065,5.516706,-1.3379658,1004.46857,0,0
53.28,-8.738430000000001,5.469042,-1.3995155,1004.44086,0,0
53.32,-8.714557000000001,5.330812,-1.3995178999999998,1004.4509,0,0
53.36,-8.709800999999999,5.535774,-1.3569105,1004.43823,0,0
53.4,-8.65725,5.5643744,-1.2480216,1004.471,0,0
53.44,-8.690733999999999,5.588207700000001,-1.2527583,1004.471,0,0
53.48,-8.733781,5.5596094,-1.1012601,1004.4533,0,0
53.52,-8.757703999999999,5.535777,-1.2622321,1004.47107,0,0
53.56,-8.729053500000001,5.4738120000000015,-1.2006874,1004.46826,0,0
53.6,-8.638264,5.621576,-1.3095812,1004.4711,0,0
53.64,-8.700425,5.2402525,-1.1154727,1004.47864,0,0
53.68,-8.810388,5.407082599999999,-1.172288,1004.49896,0,0
53.72,-8.800855,5.1067905,-1.1675559,1004.4887,0,0
53.76,-8.619247999999999,5.1210904,-1.0586672,1004.4508,0,0
53.8,-8.896502499999997,4.9876275,-1.1864983,1004.456,0,0
53.84,-8.719678,5.0734262,-1.0586719999999998,1004.4483,0,0
53.88,-8.9061165,5.163991,-1.2527851,1004.4764,0,0
53.92,-8.791427,5.054361,-1.1912401,1004.4939,0,0
53.96,-8.762774,5.102027400000001,-1.338009,1004.5115,0,0
54.0,-8.661325,4.9685373,-1.3237077,1004.5017,0,0
54.04,-8.723448,4.906572,-1.285831,1004.4761,0,0
54.08,-8.666074,4.97807,-1.3663143999999998,1004.471,0,0
54.12,-8.455747,5.0543346,-1.3189688999999998,1004.49646,0,0
54.16,-8.7138405,4.9637694,-1.3568428,1004.4937,0,0
54.2,-8.689925,5.0114345999999985,-1.5036077,1004.4812,0,0
54.24,-8.460479,4.978068,-1.418387,1004.49896,0,0
54.28,-8.675550999999999,4.7874050000000015,-1.3426348999999995,1004.45874,0,0
54.32,-8.694656,4.72544,-1.3142271,1004.48145,0,0
54.36,-8.594263,4.8017044,-1.3142256,1004.4536,0,0
54.4,-8.556008,4.839836,-1.3994434,1004.4711,0,0
54.44,-8.60857,4.7302050000000015,-1.4420515,1004.4761,0,0
54.48,-8.48428,4.816003,-1.4562534,1004.4838,0,0
54.52,-8.460363000000001,4.763571,-1.4704549,1004.4964,0,0
54.56,-8.603742,4.7111373,-1.4515159,1004.4484,0,0
54.6,-8.527248,4.7016044,-1.3994358999999998,1004.4991,0,0
54.64,-8.503333999999999,4.725437,-1.3662937,1004.4939,0,0
54.68,-8.575013,4.758801999999998,-1.5083243,1004.51154,0,0
54.72,-8.579778999999998,4.7302019999999985,-1.5556668,1004.4966,0,0
54.76,-8.312094,4.5729055,-1.423102,1004.50397,0,0
54.8,-8.551066,4.577672,-1.5319918,1004.4865,0,0
54.84,-8.469794,4.420375,-1.550928,1004.48627,0,0
54.88,-8.398081,4.429908,-1.6314114,1004.49146,0,0
54.92,-8.522339,4.4108410000000005,-1.6598163,1004.4888,0,0
54.96,-8.417167,4.6158023,-1.5130483,1004.4535,0,0
55.0,-8.666605,4.7016225,-1.6598959999999998,1004.4888,0,0
55.04,-8.580588,4.6634910000000005,-1.6078194,1004.4966,0,0
55.08,-8.513685,4.563393,-1.6125553,1004.489,0,0
55.12,-8.432452,4.6396585,-1.631495,1004.4941,0,0
55.16,-8.485046,4.4489965,-1.6125588,1004.542,0,0
55.2,-8.41337,4.61106,-1.4563254,1004.49646,0,0
55.24,-8.346471000000001,4.63966,-1.4989368,1004.5294,0,0
55.28,-8.432527,4.7254586,-1.5036727,1004.5242,0,0
55.32,-8.528141,4.611061599999998,-1.5510185,1004.5093,0,0
55.36,-8.322629,4.825557,-1.5084107,1004.4939,0,0
55.4,-8.566416,4.687328,-1.5936315,1004.51917,0,0
55.44,-8.389583,4.6301293,-1.3379754,1004.4964,0,0
55.48,-8.561674,4.5014324,-1.4516029,1004.48645,0,0
55.52,-8.251005000000001,4.830325599999999,-1.5226207,1004.48645,0,0
55.56,-8.3514,4.9304237,-1.8303586,1004.50397,0,0
55.6,-8.619087,4.6730304,-1.7025315,1004.5191,0,0
55.64,-8.217603,4.906592,-1.7120018,1004.50397,0,0
55.68,-8.274980000000001,4.8827596,-1.7782854,1004.532,0,0
55.72,-8.384934,4.882760500000002,-1.7498808,1004.49896,0,0
55.76,-8.174642,4.906593,-1.7924922,1004.50653,0,0
55.8,-8.303714999999999,4.8398614,-1.7309464,1004.5118,0,0
55.84,-8.212917,4.935194,-1.7782922,1004.5042,0,0
55.88,-8.294192,4.8160300000000005,-1.7593564,1004.4937,0,0
55.92,-8.332450999999999,4.8732295,-1.6978108,1004.49646,0,0
55.96,-8.203413000000001,4.7159333,-1.6078588,1004.4966,0,0
56.0,-8.284302,4.8970532,-1.5604811,1004.5093,0,0
56.04,-8.312983500000001,4.787422,-1.5510126,1004.49646,0,0
56.08,-8.446822000000001,4.806489,-1.6125602,1004.4764,0,0
56.12,-8.566321,4.6873255,-1.5368098999999995,1004.48645,0,0
56.16,-8.40859,4.873221,-1.4847318,1004.4736,0,0
56.2,-8.27476,4.806489,-1.3332313,1004.489,0,0
56.24,-8.250865,4.7206907,-1.2716843999999998,1004.4887,0,0
56.28,-8.293887,4.8112555,-1.3284975,1004.4941,0,0
56.32,-8.446845,4.763591,-1.4373893,1004.51935,0,0
56.36,-8.504206,4.906587,-1.4042487,1004.48395,0,0
56.4,-8.461192,4.839855,-1.5036714,1004.47363,0,0
56.44,-8.413397,4.9494867,-1.4799998,1004.47864,0,0
56.48,-8.284347,4.8112564,-1.4705313,1004.4761,0,0
56.52,-8.241331,4.8398557,-1.2953588,1004.4635,0,0
56.56,-8.451647,4.8684554,-1.3095623,1004.4963,0,0
56.6,-8.341714999999999,4.8970547,-1.3142971,1004.4887,0,0
56.64,-8.394296,4.873222,-1.333235,1004.4811,0,0
56.68,-8.370401,4.98762,-1.4137203,1004.5241,0,0
56.72,-8.265249,4.973319999999998,-1.2148756,1004.4762,0,0
56.76,-8.260473,4.7731247,-1.1249223,1004.4634,0,0
56.8,-8.356073,4.839856,-1.2385483,1004.51404,0,0
56.84,-8.365637,4.911355,-1.3805808000000002,1004.50397,0,0
56.88,-8.427777,4.8446235999999985,-1.2243458,1004.4887,0,0
56.92,-8.480359,4.8112574,-1.1864707,1004.49097,0,0
56.96,-8.437345,4.7921915,-1.2101432,1004.46826,0,0
57.0,-8.384803999999999,4.8017254000000005,-1.2243497,1004.5065,0,0
57.04,-8.475624,4.677795,-1.2006782,1004.50635,0,0
57.08,-8.446951,4.7397604000000015,-1.2432883,1004.48346,0,0
57.12,-8.580790499999999,4.6539626,-1.2527575,1004.48346,0,0
57.16,-8.337026,4.9065900000000005,-1.1959451,1004.4889,0,0
57.2,-8.556901,4.7826595,-1.3805873,1004.5238,0,0
57.24,-8.332253999999999,4.801726,-1.2432902,1004.50903,0,0
57.28,-8.456535,4.6253633,-1.3521819,1004.49646,0,0
57.32,-8.489999000000001,4.7349944000000015,-1.077587,1004.4459,0,0
57.36,-8.270132,4.954256,-1.2527604,1004.5163,0,0
57.4,-8.298817999999999,4.911358,-1.2953705,1004.50903,0,0
57.44,-8.35618,4.8255596,-1.4042621000000002,1004.54694,0,0
57.48,-8.3179455,4.844626,-1.2622305,1004.5113,0,0
57.52,-8.2844925,4.9304237,-1.1864805,1004.4608,0,0
57.56,-8.308397,5.0591207,-1.3001066,1004.5087,0,0
57.6,-8.284502999999999,5.0924873,-1.3427167,1004.5416,0,0
57.64,-8.356204,4.8636922999999985,-1.1344033000000002,1004.50366,0,0
57.68,-8.408787,4.7159295,-1.0917941,1004.4734,0,0
57.72,-8.360992999999999,4.8398595,-1.2574987,1004.47845,0,0
57.76,-8.3371,4.939958,-1.3332498,1004.4987,0,0
57.8,-8.384903,4.99239,-1.3711255,1004.4936,0,0
57.84,-8.294092,4.8827596,-1.3711258999999998,1004.50366,0,0
57.88,-8.23196,4.901826,-1.2575006000000002,1004.49866,0,0
57.92,-8.30366,4.9733243,-1.1533441999999998,1004.45557,0,0
57.96,-8.337125,5.073422,-1.4326743999999998,1004.4858,0,0
58.0,-8.317525,4.9208803,-1.2669264,1004.4962,0,0
58.04,-8.398766499999999,4.796949400000001,-1.2432531,1004.49585,0,0
58.08,-8.250582000000001,4.959012,-1.2763927,1004.4932,0,0
58.12,-8.374841,4.8875136,-1.4326267,1004.4631,0,0
58.16,-8.398727000000001,4.982844,-1.2574526,1004.4454,0,0
58.2,-8.370036,4.8303146,-1.3474051,1004.50366,0,0
58.24,-8.274425,5.0591083,-1.2053716,1004.4882,0,0
58.28,-8.30787,5.082941,-1.4799659,1004.47327,0,0
58.32,-8.427351,4.9065775999999985,-1.3758076,1004.5085,0,0
58.36,-8.193128,4.9304104,-1.2195711,1004.4985,0,0
58.4,-8.307828,4.9256434,-1.2195698,1004.4808,1,3
58.44,-8.455988,4.8303123,-1.3047878000000002,1004.51373,1,3
58.48,-8.269561999999999,4.925643,-1.404209,1004.51117,1,3
58.52,-8.374703,4.897043,-1.3663325000000002,1004.4884,1,3
58.56,-8.39381,4.8827434,-1.314253,1004.4657,1,3
58.6,-8.226502,5.0591054,-1.413674,1004.51624,1,3
58.64,-8.279066,4.906575,-1.1911558,1004.4657,1,3
58.68,-8.460686,4.7826443,-1.2242954,1004.4681,1,3
58.72,-8.379416,4.9590063,-1.3805295,1004.49347,1,3
58.76,-8.374626,4.911341,-1.361591,1004.50854,1,3
58.8,-8.32203,4.820776,-1.205354,1004.4859,1,3
58.84,-8.436732000000001,4.77311,-1.243228,1004.4733,1,3
58.88,-8.427162,4.91134,-1.3189775,1004.4959,1,3
58.92,-8.398469,4.892273,-1.4515395,1004.50366,1,3
58.96,-8.446251,4.8303080000000005,-1.2384897,1004.496,1,3
59.0,-8.398827,4.8636823,-1.3095402,1004.5084,1,3
59.04,-8.441846,4.787417400000002,-1.2574618,1004.52106,1,3
59.08,-8.63782,4.6301217,-1.281134,1004.52106,1,3
59.12,-8.575683999999999,4.6348886,-1.1817116,1004.49335,1,3
59.16,-8.494429,4.682554,-1.3568847,1004.48566,1,3
59.2,-8.437072,4.749285,-1.3237438999999998,1004.4881,1,3
59.24,-8.351036,4.711153,-1.4468386,1004.511,1,3
59.28,-8.3892765,4.5252576,-1.0444143,1004.468,1,3
59.32,-8.446634,4.596756,-1.0254768,1004.49066,1,3
59.36,-8.575691,4.71592,-1.3710884,1004.51605,1,3
59.4,-8.527894,4.8017178,-1.4089638,1004.5108,1,3
59.44,-8.3845005,4.7969513,-1.4279016000000002,1004.50073,1,3
59.48,-8.217210000000001,4.8160176,-1.0586182,1004.4856,1,3
59.52,-8.198091499999999,4.906582,-0.9544614,1004.4881,1,3
59.56,-8.575698,4.6777873,-0.89291424,1004.5235,1,3
59.6,-8.699973,4.43946,-0.6751315999999999,1004.4579,1,3
59.64,-8.265013,4.5586233,-0.5473029,1004.44775,1,3
59.68,-8.073821,4.463293,-0.116472095,1004.473,1,3
59.72,-7.3329535,4.458526,0.35696825,1004.52606,1,3
59.76,-7.7583575,4.3822613,0.7262517,1004.5867,1,3
59.8,-8.43709,4.482359,1.2138953,1004.5236,1,3
59.84,-8.938971,4.858917,1.1097382,1004.4428,1,3
59.88,-9.469531,4.9637814,0.80200183,1004.45795,1,3
59.92,-10.205622,4.8446174000000015,-0.36739624,1004.49835,1,3
59.96,-9.158845,5.2402415,-0.5046941,1004.5286,1,3
60.0,-9.33108,4.6110597,-0.84558606,1004.5412,1,3
60.04,-9.875985,4.3679657,-0.86452436,1004.5464,1,3
60.08,-9.512728,4.6634927,-1.3521687,1004.5311,1,3
60.12,-9.006077000000003,4.496663,-1.5462798999999998,1004.511,1,3
60.16,-8.136159,4.372733,-1.6220312,1004.4881,1,3
60.2,-8.021450999999999,3.5195193,-1.659907,1004.4529,1,3
60.24,-7.7394505,3.3622233999999995,-1.4989381000000002,1004.397,1,3
60.28,-7.3905325,3.8102796,-1.8398159,1004.4678,1,3
60.32,-7.7585845,4.3489010000000015,-2.3795385,1004.47546,1,3
60.36,-8.346508,5.102017,-2.4032114,1004.536,1,3
60.4,-9.345495,5.607272,-2.6399324,1004.5662,1,3
60.44,-9.498456,5.7073703,-2.1286175,1004.49054,1,3
60.48,-10.148517,5.8932657,-1.47527,1004.44257,1,3
60.52,-8.709802999999999,6.8942432,-0.6514844,1004.5233,1,3
60.56,-7.443162400000001,5.612039599999999,0.83038366,1004.5233,1,3
60.6,-8.088445,4.673028,0.46109933,1004.57886,1,3
60.64,-8.217506,5.0257535,0.6930845,1004.55615,1,3
60.68,-8.743292,4.9161224,0.6504741999999999,1004.48553,1,3
60.72,-7.849476299999999,4.1868396,0.6930831000000001,1004.397,1,3
60.76,-8.241427,4.396568299999998,-0.33428344,1004.435,1,3
60.8,-8.365708999999999,4.2345057,-0.5520666999999999,1004.50824,1,3
60.84,-7.1946673,5.0257545,-0.6088804,1004.5258,1,3
60.88,-7.252031,4.639663,-0.28694135,1004.5056,1,3
60.92,-7.0512867,4.93519,0.16756077,1004.4954,1,3
60.96,-7.777824000000002,5.121086,-0.12597296,1004.51575,1,3
61.0,-9.235671,6.017199,-0.481054,1004.55615,1,3
61.04,-9.560705,6.689284,-0.7603846,1004.5765,1,3
61.08,-8.786386,6.918079,-0.34849212,1004.5613,1,3
61.12,-9.001484,6.045799,-0.70830745,1004.5763,1,3
61.16,-10.808257,3.972347,-0.9971069,1004.44495,1,3
61.2,-9.575075,3.4623256,-1.9250509,1004.4147,1,3
61.24,-8.676478,3.1191337000000003,-1.7640817,1004.38684,1,3
61.28,-8.007315,3.6386883,-2.1996477000000003,1004.4879,1,3
61.32,-6.410867700000002,4.0676785,-1.7546144,1004.5864,1,3
61.36,-6.53515,3.381295,-1.7214741999999998,1004.5813,1,3
61.4,-7.6823106,2.8617404,-1.3663946000000002,1004.47015,1,3
61.44,-8.470985,3.390828,-1.6504595000000002,1004.51825,1,3
61.48,-8.394516000000001,4.306007,-1.7782891,1004.52075,1,3
61.52,-10.220408,4.158244,-1.7877586,1004.52576,1,3
61.56,-11.257634,4.167777,-1.8445723000000005,1004.4828,1,3
61.6,-10.191744,4.6063004,-1.4184765,1004.5182,1,3
61.64,-9.340947,3.9246833,-0.8882238000000001,1004.5358,1,3
61.68,-10.067486,2.8045428,-0.44319052,1004.5307,1,3
61.72,-9.41266,3.5052269,-0.111782774,1004.42975,1,3
61.76,-9.612178,3.9246535,0.3759738,1004.4298,1,3
61.8,-8.727893,4.406075,0.35703805,1004.51556,1,3
61.84,-7.2700315,4.2154126,0.48013455,1004.4423,1,3
61.88,-7.671516,3.9818509,-0.08799222,1004.5055,1,3
61.92,-7.771871000000001,3.953251,-0.17320965,1004.5205,1,3
61.96,-6.863688000000002,4.2726097,0.13452855,1004.44476,1,3
62.0,-6.834989,4.830296499999998,0.4138602,1004.4826,1,3
62.04,-7.9486623,5.168721700000001,-0.02170304,1004.55084,1,3
62.08,-9.129253,4.9685254,-0.38151604,1004.508,1,3
62.12,-10.974237,5.6739755,-0.8407514000000001,1004.5105,1,3
62.16,-11.977977,5.8122053,-1.2763149,1004.48254,1,3
62.2,-10.19031,6.16493,-1.3899387,1004.42694,1,3
62.24,-8.808927,5.0114226,-2.1000974,1004.5406,1,3
62.28,-8.474319,3.958013,-1.5509048,1004.5331,1,3
62.32,-7.4131827,3.9961452,-1.389933,1004.44464,1,3
62.36,-6.3329287,3.8293152,-1.0679919,1004.5129,1,3
62.4,-6.543218,3.2334947999999994,-1.1816156,1004.5356,1,3
62.44,-7.4465804,3.0380657,-1.4372716,1004.4775,1,3
62.48,-7.8385043,3.3335915000000003,-1.5603642,1004.47504,1,3
62.52,-8.531555,3.872212,-1.6313784,1004.4498,1,3
62.56,-8.832663,4.186804,-1.636111,1004.46216,1,3
62.6,-10.515134,4.2058697,-1.9959240000000005,1004.5179,1,3
62.64,-10.706305,5.097215,-1.6739825000000002,1004.54065,1,3
62.68,-10.926155,5.5119050000000005,-1.0490391,1004.4521,1,3
62.72,-10.682364,4.6443915,-0.03587467,1004.4599,1,3
62.76,-8.268646,4.5490623,0.8352482,1004.5079,1,3
62.8,-8.607996,4.1963367,1.0198915000000002,1004.56573,1,3
62.84,-9.54004,4.0247407,0.7831728,1004.6162,1,3
62.88,-7.757158,4.1486707,0.5701261999999999,1004.5331,1,3
62.92,-7.2696036999999984,3.9961407,0.5511899,1004.4444,1,3
62.96,-7.8861804000000015,3.662481,-0.15423484,1004.5177,1,3
63.0,-6.915865400000001,3.7625782,0.30026942,1004.46216,1,3
63.04,-7.0018850000000015,3.910341,0.26239568,1004.4722,1,3
63.08,-7.3316755,4.987582700000001,0.30500674,1004.5076,1,3
63.12,-8.9424515,4.8636518,-0.15896331,1004.5657,1,3
63.16,-9.692864,5.121045,-0.1778994,1004.49,1,3
63.2,-9.501658,6.1982865,-0.06427237400000001,1004.53546,1,3
63.24,-11.131553,6.4127812,-0.93540126,1004.5909,1,3
63.28,-11.341848,5.893226,-1.3993715,1004.4418,1,3
63.32,-8.999728999999997,5.640599,-2.114265,1004.4495,1,3
63.36,-8.689025,4.8302830000000005,-1.8112618000000005,1004.4521,1,3
63.4,-7.6517916,4.177265,-1.2999444,1004.4117,1,3
63.44,-6.5524206,4.1248326,-1.3141462,1004.5076,1,3
63.48,-6.380331,3.9675357,-1.2999413999999998,1004.60333,1,3
63.52,-6.729242299999999,3.5385451,-0.9780006,1004.52783,1,3
63.56,-7.441416,3.0475893,-0.977999,1004.442,1,3
63.6,-8.292204,3.109554,-1.3094058000000002,1004.4064,1,3
63.64,-8.091436,3.6291087,-1.138966,1004.42145,0,0
63.68,-8.402106,4.4489555,-1.5319198,1004.4569,0,0
63.72,-8.7796955,4.6062512,-1.8869988,1004.5655,0,0
63.76,-9.654727,4.234468,-1.8207473,1004.5002,0,0
63.8,-9.281901,4.077172,-1.20054,1004.4466,0,0
63.84,-10.314337,5.4261074,-0.5803326999999999,1004.48975,0,0
63.88,-13.273031,5.4880724,-1.1673987,1004.535,0,0
63.92,-11.284631,5.3021765,0.001999501,1004.4769,0,0
63.96,-9.353587,4.8731866,1.3465706,1004.52765,0,0
64.0,-8.330708,5.0495486,1.0530378,1004.6084,0,0
64.04,-8.5171175,4.6872907,1.2092735,1004.5122,0,0
64.08,-7.6519704,4.8159876,0.5748634,1004.45667,0,0
64.12,-7.5276933,4.839820400000002,1.0151633,1004.3458,0,0
64.16,-7.981772,4.958984,0.42809737,1004.4845,0,0
64.2,-7.221781299999999,5.4976053,0.19611171,1004.5428,0,0
64.24,-7.312595,5.816964,0.20558074,1004.50476,0,0
64.28,-8.397607,5.4928384,-0.21104664,1004.48975,0,0
64.32,-8.192072999999999,5.678734,-0.24892162,1004.47455,0,0
64.36,-8.345024,5.6072354,-1.1105832,1004.5604,0,0
64.4,-8.368921,5.0686145,-0.8833315,1004.5122,0,0
64.44,-8.168166000000001,4.4346623,-1.2762867,1004.47455,0,0
64.48,-8.550549,3.958007,-1.3709747,1004.4594,0,0
64.52,-7.938731,4.210634,-1.1815983,1004.48206,0,0
64.56,-8.507525,3.9389405,-1.2762861,1004.45935,0,0
64.6,-8.942485000000003,3.9770727,-1.124785,1004.43396,0,0
64.64,-9.167133,4.5299935,-1.4940683,1004.46185,0,0
64.68,-8.69393,4.734955,-1.2668166,1004.4845,0,0
64.72,-8.560093,4.3297977,-1.1958003,1004.45685,0,0
64.76,-8.967063000000003,4.019989,-1.0964408,1004.4541,0,0
64.8,-8.599046000000001,4.3393483,-1.1295841,1004.49225,0,0
64.84,-8.613408999999999,4.139154,-1.2337431,1004.49713,0,0
64.88,-8.575194999999999,4.143921,-1.2479485,1004.4973,0,0
64.92,-9.048422,3.8674617,-1.1627316,1004.46674,0,0
64.96,-8.823795,4.0009255,-1.1958746,1004.46936,0,0
65.0,-8.761683999999999,4.205888,-1.4468006000000002,1004.5074,0,0
65.04,-8.94334,4.215422,-1.3521147,1004.5197,0,0
65.08,-8.905128,4.0867257000000015,-1.2526945,1004.492,0,0
65.12,-8.594466,4.0867260000000005,-0.973367,1004.4996,0,0
65.16,-8.8956175,3.891298,-1.0633228,1004.4921,0,0
65.2,-9.053375,3.8150337,-1.2290292,1004.49207,0,0
65.24,-8.790512,3.9627974,-1.1390778999999998,1004.5147,0,0
65.28,-8.752296000000001,3.9627979,-1.1154081,1004.49445,0,0
65.32,-8.948295,3.9008331,-1.1248791,1004.48425,0,0
65.36,-8.881403,3.986632,-1.1012095,1004.49713,0,0
65.4,-8.790610000000001,4.096263,-1.1580247,1004.5097,0,0
65.44,-9.029628,3.9389675,-1.0775421,1004.50214,0,0
65.48,-8.809782,4.124864,-1.1722325,1004.4641,0,0
65.52,-8.776347,4.0533660000000005,-1.1817036,1004.48425,0,0
65.56,-8.929326,3.9818687000000006,-1.124893,1004.4666,0,0
65.6,-8.809855,4.0057015,-1.1675048,1004.4717,0,0
65.64,-8.8529,3.9580371,-1.058616,1004.46405,0,0
65.68,-8.790786,4.162999,-1.1580406,1004.4741,0,0
65.72,-8.695217,4.2011322999999985,-1.1012303,1004.5274,0,0
65.76,-8.766938,4.1677675,-1.0917635,1004.5045,0,0
65.8,-8.652247000000001,4.0104713,-1.162782,1004.5347,0,0
65.84,-8.891261,4.1153364,-1.2101283,1004.52966,0,0
65.88,-8.685758,4.420396299999998,-1.1959275,1004.4918,0,0
65.92,-8.776596000000001,4.3631983,-1.1012415,1004.5019,0,0
65.96,-8.714485,4.220202,-1.2243383999999995,1004.4968,0,0
66.0,-8.752748500000001,4.205903500000002,-1.0870429,1004.497,0,0
66.04,-8.652397,4.1391726,-1.0397011,1004.4995,0,0
66.08,-8.805377,4.1773050000000005,-0.92134327,1004.4691,0,0
66.12,-8.800621000000003,4.2964699999999985,-1.0965188,1004.51465,0,0
66.16,-8.767186,4.2440386,-1.1438649,1004.5222,0,0
66.2,-8.695514999999999,4.177307,-1.0113039,1004.48944,0,0
66.24,-8.685982000000001,4.358436,-1.0065718,1004.47675,0,0
66.28,-8.686005999999999,4.3870363,-1.0065739,1004.4995,0,0
66.32,-8.609555,4.3107724,-0.9971076,1004.5046,0,0
66.36,-8.733854,4.3012394999999986,-1.0065786,1004.47424,0,0
66.4,-8.824696000000003,4.329839700000001,-1.1107378,1004.5096,0,0
66.44,-8.762582,4.291708,-0.97817665,1004.4868,0,0
66.48,-8.796064,4.253576,-1.1533518,1004.49194,0,0
66.52,-8.700495,4.325075,-1.0065877,1004.47394,0,0
66.56,-8.686181,4.3536754,-1.0349965,1004.48914,0,0
66.6,-8.645866999999999,4.243993799999998,-0.9921969,1004.47394,0,0
66.64,-8.741442999999999,4.3345575,-0.9874606,1004.5018,0,0
66.68,-8.655385,4.234458999999998,-1.0395371,1004.484,0,0
66.72,-8.664923,4.325023000000002,-1.0158632,1004.4816,0,0
66.76,-8.631442999999999,4.30119,-1.0158613,1004.5297,0,0
66.8,-8.674439999999999,4.4584856,-1.0300626,1004.50684,0,0
66.84,-8.607505999999999,4.377454,-1.0774049,1004.4867,0,0
66.88,-8.712639999999999,4.4489517,-1.0774028,1004.48413,0,0
66.92,-8.502308,4.5347495,-0.9969162,1004.4942,0,0
66.96,-8.511847,4.587181,-0.97324234,1004.47406,0,0
67.0,-8.769935,4.386985299999999,-0.87381786,1004.47644,0,0
67.04,-8.631302999999999,4.348852,-0.9353635,1004.4437,0,0
67.08,-8.884611,4.2630534,-0.9495646,1004.43616,0,0
67.12,-8.798552,4.2678194000000005,-0.92589056,1004.4766,0,0
67.16,-8.827210000000003,4.2773523,-1.0679208999999998,1004.51685,0,0
67.2,-8.645557,4.367916,-1.0489813,1004.4942,0,0
67.24,-8.755472,4.1438875,-0.9779634,1004.5018,0,0
67.28,-8.702875,4.16772,-0.9874304,1004.4917,0,0
67.32,-8.908386,4.1152873,-1.0537101,1004.5068,0,0
67.36,-8.664593,4.2153845,-0.99216086,1004.4867,0,0
67.4,-8.769730000000001,4.224917,-0.9779559,1004.4992,0,0
67.44,-8.812728,4.139118700000001,-1.058439,1004.484,0,0
67.48,-8.717112,4.2392154,-1.0442338,1004.47394,0,0
67.52,-8.678851,4.2582817,-1.0394975,1004.45123,0,0
67.56,-8.879582000000003,4.344079,-0.9448076,1004.47406,0,0
67.6,-9.080584,4.382217400000001,-1.1200033,1004.47394,0,0
67.64,-9.090135,3.8864954,-1.1720809,1004.50146,0,0
67.68,-8.736419,3.6052687,-0.8075309,1004.51184,0,0
67.72,-8.7555275,4.6348443,-1.2336261999999998,1004.5346,0,0
67.76,-8.301436,4.520447,-1.0963278,1004.51935,0,0
67.8,-9.023177,3.4908702000000003,-0.74598086,1004.47144,0,0
67.84,-8.831975,4.143888,-1.2572956,1004.4966,0,0
67.88,-8.784165,4.2535186,-1.2904354,1004.5066,0,0
67.92,-8.731579,4.325017,-1.3803883999999995,1004.50433,0,0
67.96,-8.4925785,4.3774486,-1.4087938,1004.4713,0,0
68.0,-8.435209,4.5871773000000005,-1.5129498,1004.4942,0,0
68.04,-8.573814,4.429880000000002,-1.5129489,1004.5166,0,0
68.08,-8.650282,4.2821174000000015,-1.2951654,1004.5016,0,0
68.12,-8.769767,4.4775457,-1.3614461000000002,1004.552,0,0
68.16,-8.392152000000001,4.644375,-1.266757,1004.5243,0,0
68.2,-8.540317,4.377447,-1.134193,1004.48895,0,0
68.24,-8.745838000000001,4.3107157,-1.2951617,1004.4865,0,0
68.28,-8.48772,4.3774467,-1.3046296999999998,1004.504,0,0
68.32,-8.659781,4.549042,-1.4182544,1004.51416,0,0
68.36,-8.545056,4.4870768,-1.4513943,1004.4914,0,0
68.4,-8.516368,4.129585,-1.4513934,1004.46625,0,0
68.44,-8.4829,4.081919,-1.058437,1004.43085,0,0
68.48,-9.080363,4.2678146,-1.5839548,1004.54694,0,0
68.52,-8.664511,4.3202467,-1.5034691,1004.56726,0,0
68.56,-8.69796,4.5633407,-1.3330296999999998,1004.5344,0,0
68.6,-8.607262,4.44418,-1.1010545,1004.5066,0,0
68.64,-8.540339,4.3250155,-1.0963198,1004.4763,0,0
68.68,-8.827122,4.0771546,-1.0063655,1004.4738,0,0
68.72,-8.578567999999999,4.4251137,-1.2099445,1004.51917,0,0
68.76,-8.588122,4.6634407,-1.2288816,1004.499,0,0
68.8,-8.602457000000001,4.711106,-1.3472414,1004.499,0,0
68.84,-8.463837,4.4584785,-1.148396,1004.5168,0,0
68.88,-8.430374,4.529977,-0.9684881,1004.49146,0,0
68.92,-8.525965,4.53951,-1.0915822,1004.509,0,0
68.96,-8.631116,4.653907,-1.1483946000000005,1004.4711,0,0
69.0,-8.707587,4.6157746,-1.1625973,1004.46124,0,0
69.04,-8.492492,4.6968055,-1.0347679,1004.499,0,0
69.08,-8.702799,4.529976400000002,-1.1057834999999998,1004.5168,0,0
69.12,-8.497261,4.6062407,-1.0726421,1004.57965,0,0
69.16,-8.502036,4.520443,-1.0537040000000002,1004.54456,0,0
69.2,-8.717122999999999,4.37268,-0.9069372,1004.4913,0,0
69.24,-8.578503999999999,4.32978,-0.7696390000000001,1004.4407,0,0
69.28,-8.631075,4.1915502999999985,-0.8974674000000001,1004.4636,0,0
69.32,-8.941758,4.081919,-0.91640455,1004.4939,0,0
69.36,-8.917853,4.2868814,-0.99215454,1004.52167,0,0
69.4,-8.726657000000001,4.377445,-0.81698114,1004.4937,0,0
69.44,-8.936964,4.3917449999999985,-0.9590128,1004.4812,0,0
69.48,-8.831802,4.1200514,-0.9684812,1004.49866,0,0
69.52,-8.674064,4.329779,-1.2241386,1004.50653,0,0
69.56,-8.726637,4.14865,-1.328295,1004.4934,0,0
69.6,-8.730931,4.124806,-1.2004217,1004.48114,0,0
69.64,-8.683110000000001,4.086673,-1.3377172,1004.50653,0,0
69.68,-8.81214,4.17247,-1.2998399,1004.48083,0,0
69.72,-8.749978,4.1295705,-1.2430248,1004.4985,0,0
69.76,-8.749956,4.1438694,-1.1578034,1004.5012,0,0
69.8,-8.76905,4.2106010000000005,-1.1388636,1004.4962,0,0
69.84,-8.759468,4.2058339999999985,-1.1672678,1004.5113,0,0
69.88,-8.855039999999997,4.224899,-1.2288129,1004.4962,0,0
69.92,-8.716403,4.0771356,-1.0631066999999998,1004.5214,0,0
69.96,-8.620783,4.0914345,-1.0962453,1004.5063,0,0
70.0,-8.678118,4.234431,-1.1388528,1004.5012,0,0
70.04,-8.778467,4.2344300000000015,-1.1009753,1004.45557,0,0
70.08,-8.740207,4.2773285,-1.0820355,1004.4583,0,0
70.12,-8.687606,4.2153625,-1.0962367,1004.47833,0,0
70.16,-8.721039999999999,4.348826,-1.0252184000000002,1004.47845,0,0
70.2,-8.811831,4.220128,-1.2193267,1004.4985,0,0
70.24,-8.697095,4.3917236,-1.1199023,1004.47833,0,0
70.28,-8.620593,4.301158,-1.0678215,1004.47845,0,0
70.32,-8.658807000000001,4.4870534000000015,-1.1719761999999998,1004.47327,0,0
70.36,-8.658783999999999,4.4632206,-1.2335213,1004.496,0,0
70.4,-8.610963,4.453686,-1.0252055,1004.48615,0,0
70.44,-8.658735,4.334522,-1.1246256,1004.46826,0,0
70.48,-8.739969,4.4107857,-1.143561,1004.5063,0,0
70.52,-8.630011,4.2487226,-1.0914806,1004.5467,0,0
70.56,-8.658664,4.2868547,-1.1435567,1004.5719,0,0
70.6,-8.517104,4.415597,-1.1011149,1004.51886,0,0
70.64,-8.598411,4.391765,-1.4325277,1004.4834,0,0
70.68,-8.717957499999999,4.382233,-1.4277982,1004.4354,0,0
70.72,-8.732339999999999,4.434666,-1.0253776,1004.4505,0,0
70.76,-8.837545,4.32027,-1.1816176,1004.4228,0,0
70.8,-8.617721000000001,4.043811,-1.2479035,1004.3927,0,0
70.84,-9.2343645,3.3240623,-1.6455978999999998,1004.337,0,0
70.88,-9.282212,2.7997422000000003,-1.5367111999999998,1004.34467,0,0
70.92,-9.956214,2.613848,-1.4562309,1004.38495,0,0
70.96,-9.655135,3.6386585,-1.674018,1004.42804,0,0
71.0,-8.130428,5.197324299999999,-0.67032874,1004.4175,0,0
71.04,-7.810227999999999,6.074371299999999,-0.85497475,1004.4405,0,0
71.08,-7.3227410000000015,6.2459690000000005,-1.0017459999999998,1004.42535,0,0
71.12,-7.07902,6.503364,-1.0585635,1004.4684,0,0
71.16,-6.696679,6.3365355,-1.2148028999999998,1004.4608,0,0
71.2,-6.505536599999999,6.0028777,-0.40048975,1004.496,0,0
71.24,-5.454032,6.8942256,1.8483477,1004.5415,0,0
71.28,-5.0573545,6.2078419999999985,1.8672811,1004.5109,0,0
71.32,-5.028725,6.408039,-1.3379153999999998,1004.42035,0,0
71.36,-4.502993,7.184989,2.2649622000000003,1004.47577,0,0
71.4,-4.407447,6.2936440000000005,1.4364369,1004.50104,0,0
71.44,-3.4228594,7.4090195,5.001439,1004.5185,0,0
71.48,-3.3607562000000004,5.764558,5.351782,1004.5113,0,0
71.52,-3.1313875,7.699782000000001,6.2560472,1004.5235,0,0
71.56,-3.6237535,5.597731,6.3602,1004.5338,0,0
71.6,-2.9020557,6.2793503,6.057193,1004.5415,0,0
71.64,-2.9068694,5.7359633,6.398067500000002,1004.57416,0,0
71.68,-3.4900675000000003,6.3031855000000006,6.0903254,1004.52856,0,0
71.72,-2.4003186000000003,6.3460855,6.0429764000000015,1004.4706,0,0
71.76,-1.6499294999999998,5.7598,7.491700999999999,1004.4658,0,0
71.8,-3.6240473,4.6396604,7.198163,1004.5134,0,0
71.84,-4.804705,2.5709763,8.698965,1004.5135,0,0
71.88,-3.021888,5.111552,9.115588,1004.51105,0,0
71.92,-2.156796,5.1878185,10.147683,1004.5311,0,0
71.96,-2.2858846,4.782662,10.493291,1004.56396,0,0
72.0,-3.1224089,6.3937593,11.534855,1004.5538,0,0
72.04,-2.4676251,7.080145,8.9546,1004.5235,0,0
72.08,-3.700861,5.998138,9.707366,1004.49866,0,0
72.12,-4.260141,5.883741400000001,8.997202,1004.51105,0,0
72.16,-3.2707777,5.6644809999999985,7.681032000000001,1004.5113,0,0
72.2,-4.092953,4.9065995,8.173406,1004.4957,0,0
72.24,-3.7870984,5.8265467000000015,7.1365669999999986,1004.52356,0,0
72.28,-4.35248,5.22111,7.373599,1004.5311,0,0
72.32,-5.107655,5.387938,2.7291512000000004,1004.53613,0,0
72.36,-4.4336699999999984,4.7921185,8.079031,1004.7206,0,0
72.4,-5.3322406,4.353594,6.578228,1004.53143,0,0
