Timestamp,Ax,Ay,Az,P,Value,Type
0.0,3.4097873999999995,6.960555,7.805731,1000.4667,0,0
0.04,3.361957,7.565908,7.398567999999999,1000.444,0,0
0.08,4.207948,7.875735799999997,9.150294,1000.4769,0,0
0.12,3.4766042,8.033032,7.1429043000000005,1000.4416,0,0
0.16,2.845638,7.537311,8.141860000000001,1000.4494,0,0
0.2,2.7261088,7.7279740000000015,7.677886,1000.4166,0,0
0.24,3.0654407000000004,8.176032000000001,8.113448,1000.3687,0,0
0.28,2.3245368,7.9663033,6.612638499999999,1000.35614,0,0
0.32,3.194429,9.200844,7.753628,1000.3486,0,0
0.36,5.1684519999999985,9.868163,11.370709,1000.40405,0,0
0.4,4.2076783,9.124579,8.563205,1000.34106,0,0
0.44,2.9792328,7.756578399999999,6.0113572999999985,1000.293,0,0
0.48,2.051921,6.455309400000001,2.5552387000000003,1000.3288,0,0
0.52,-1.7241606,3.3522818,2.1007323,1000.3061,0,0
0.56,-5.309046,2.1606436,1.1538485,1000.31616,0,0
0.6,-7.555588,1.3026643999999998,-0.048693426,1000.31616,0,0
0.64,-9.873826,0.6877793000000001,0.58097935,1000.3742,0,0
0.68,-9.6396475,0.20635782,-0.15759079,1000.3213,0,0
0.72,-9.162082,0.09197073,-0.21444157,1000.3339,0,0
0.76,-9.4393635,1.0738826,-2.0655985,1000.32635,0,0
0.8,-8.990115,1.9938295,-2.2029011,1000.32385,0,0
0.84,-9.731033,2.6611485,-3.3107564,1000.3139,0,0
0.88,-8.77512,3.3951995000000004,-4.347595,1000.3491,0,0
0.92,-8.536175,3.7765253,-3.2728896,1000.3566,0,0
0.96,-8.842135,2.8136818,-1.8431044,1000.367,0,0
1.0,-8.106094,3.2331402,-3.329712,1000.3519,0,0
1.04,-9.253294,3.0520122000000005,-2.5722113,1000.35706,0,0
1.08,-9.286802,2.8279853,-2.6763728,1000.35944,0,0
1.12,-8.5173025,3.8813953,-2.4491258,1000.3545,0,0
1.16,-8.751562,3.757466,-2.4728024,1000.3495,0,0
1.2,-8.651234,3.9052308,-3.4859690000000003,1000.3419,0,0
1.24,-8.670403,3.4714756,-3.1072216,1000.3545,0,0
1.28,-9.167551,3.1807163,-2.3023772,1000.3547,0,0
1.32,-8.87603,2.8089263,-2.2360997000000005,1000.35706,0,0
1.36,-8.942997,2.8947256,-2.652732,1000.3851,0,0
1.4,-9.01952,2.9423923,-2.605392,1000.3623,0,0
1.44,-8.895294,3.2188535,-2.4254892000000003,1000.352,0,0
1.48,-9.005282000000003,2.9662275,-2.7616367000000004,1000.3724,0,0
1.52,-8.847594,3.109225,-2.6764216,1000.352,0,0
1.56,-8.64211,3.1854916,-2.7663796,1000.36237,0,0
1.6,-8.637377,3.171193,-2.6669614,1000.37256,0,0
1.64,-8.838181,3.1139953,-2.7616541,1000.35724,0,0
1.68,-8.78087,3.1521287,-2.9273627,1000.3623,0,0
1.72,-8.608044,3.542968,-2.884684,1000.3524,0,0
1.76,-8.689319,3.4047382000000006,-2.6716378,1000.3524,0,0
1.8,-8.541159,3.6049342,-2.6763735,1000.3398,0,0
1.84,-8.73715,3.6192343,-2.955705,1000.3299,0,0
1.88,-8.732388499999999,3.6001685,-2.6195638,1000.3701,0,0
1.92,-8.756306,3.481005,-2.941505,1000.35254,0,0
1.96,-8.53645,3.4285734,-2.6669111,1000.32983,0,0
2.0,-8.75634,3.3284762000000003,-2.6432407,1000.3702,0,0
2.04,-8.512587,3.6144695,-2.6905863,1000.3727,0,0
2.08,-8.751595,3.4953062999999993,-3.003059,1000.36005,0,0
2.12,-8.436146,3.4619408,-2.7568715,1000.3449,0,0
2.16,-8.636913,3.3427775,-2.771076,1000.3501,0,0
2.2,-8.560454,3.3999765,-2.8326247,1000.3501,0,0
2.24,-8.727766,3.2951126000000004,-2.8847048,1000.3553,0,0
2.28,-8.708662,3.342779,-3.031473,1000.3276,0,0
2.32,-8.565288,3.5429747000000003,-3.362883,1000.31494,0,0
2.36,-8.761275999999999,3.4190447,-1.9520319,1000.33765,0,0
2.4,-8.182939,3.581108,-2.3260515,1000.3475,0,0
2.44,-8.742189999999999,3.1807172,-3.916813,1000.38293,0,0
2.48,-9.110255,3.3809135,-3.4670463,1000.3981,0,0
2.52,-8.369402000000001,3.4428787000000005,-2.9367943,1000.3578,0,0
2.56,-8.560613,3.5954092000000006,-2.794764,1000.32245,0,0
2.6,-8.670564,3.3999808,-2.9794075,1000.33276,0,0
2.64,-8.613226,3.2903507000000003,-2.9036586,1000.3805,0,0
2.68,-8.727957,3.4142814,-2.9083943,1000.36053,0,0
2.72,-8.57599,3.5191698,-3.017376,1000.36316,0,0
2.76,-8.623836500000001,3.4667387,-3.0552557,1000.37823,0,0
2.8,-8.561755,3.46674,-3.1783555,1000.3681,0,0
2.84,-8.356282,3.652637200000002,-3.074204,1000.36053,0,0
2.88,-8.461491,3.5048754,-3.0931463,1000.4033,0,0
2.92,-8.356391,3.7003055,-3.0458074,1000.36554,0,0
2.96,-8.432922999999999,3.5811431,-3.1594384,1000.34534,0,0
3.0,-8.542911,3.6383429,-3.1499740000000003,1000.33777,0,0
3.04,-8.404353,3.5716126000000004,-3.0789633,1000.36053,0,0
3.08,-8.667287,3.676478,-3.1215773,1000.37335,0,0
3.12,-8.571757,3.543016,-3.1499894,1000.35815,0,0
3.16,-8.390177,3.8004115,-3.2730887,1000.333,0,0
3.2,-8.227719,3.6288168,-2.993764,1000.3632,0,0
3.24,-8.552799,3.4429220000000003,-3.1547384,1000.3709,0,0
3.28,-8.505056,3.6955514,-3.1500092,1000.34564,0,0
3.32,-8.452538,3.4286253,-3.2304997,1000.37335,0,0
3.36,-8.509941,3.5001252,-2.941705,1000.328,0,0
3.4,-8.653398,3.404795,-3.1216183,1000.333,0,0
3.44,-8.64867,3.4572287000000004,-3.211577,1000.37103,0,0
3.48,-8.56747,3.4572300000000005,-3.1926441000000003,1000.37854,0,0
3.52,-8.4002285,3.5716286,-3.1168985,1000.3332,0,0
3.56,-8.529342999999999,3.2999363,-3.0080125,1000.34326,0,0
3.6,-8.892663,3.3809693,-2.9748769,1000.2979,0,0
3.64,-8.715857000000002,3.5001345,-2.9938188,1000.26013,0,0
3.68,-8.639436,3.4906025,-2.8801982,1000.33075,0,0
3.72,-8.524388,3.4190962,-2.965387,1000.35333,0,0
3.76,-8.667829,3.5001287000000003,-3.0411417000000003,1000.3712,0,0
3.8,-8.567492,3.5048962,-3.0790205000000004,1000.3662,0,0
3.84,-8.524513,3.4572313,-2.9890702,1000.3459,0,0
3.88,-8.634491,3.4191003,-2.9938087,1000.3511,0,0
3.92,-8.581951,3.4810662000000003,-3.0032810000000003,1000.3485,0,0
3.96,-8.615447999999999,3.5239666,-3.064832,1000.3511,0,0
4.0,-8.543795,3.5382671,-2.9938195,1000.34607,0,0
4.04,-8.519936,3.4477036,-3.1595275000000003,1000.3205,0,0
4.08,-8.558214,3.4334050000000005,-3.026968,1000.28296,0,0
4.12,-8.5821495,3.5954683,-2.965424,1000.3106,0,0
4.16,-8.505716,3.8004317,-3.2447577,1000.3459,0,0
4.2,-8.257206,3.795666,-3.1358702000000003,1000.3435,0,0
4.24,-8.510574,3.7146354,-3.16428,1000.37646,0,0
4.28,-8.448478,3.4810753,-3.1027367000000003,1000.3181,0,0
4.32,-8.548891000000001,3.4906094,-3.216366,1000.3257,0,0
4.36,-8.348180000000001,3.6002410000000005,-3.0459309,1000.2956,0,0
4.4,-8.462935,3.8195035,-3.3678741000000003,1000.3712,0,0
4.44,-8.400839,3.666975,-3.2069082000000004,1000.3966,0,0
4.48,-8.572953,3.5811777,-3.2873967000000004,1000.3661,0,0
4.52,-8.305319,3.7146423,-3.263728,1000.3485,0,0
4.56,-8.520453,3.4906151,-3.2968726000000004,1000.3411,0,0
4.6,-8.444015,3.533515,-3.3205483,1000.37354,0,0
4.64,-8.348462,3.6097808,-3.3915684,1000.3483,0,0
4.68,-8.40586,3.6765137,-3.240071,1000.3233,0,0
4.72,-8.376833999999999,3.5668745000000004,-3.3583992,1000.3436,0,0
4.76,-8.367299000000001,3.6240737,-3.3868080000000003,1000.3511,0,0
4.8,-8.333865,3.7051055,-3.3157942000000005,1000.3181,0,0
4.84,-8.367348,3.705106,-3.4625628,1000.3258,0,0
4.88,-8.525107,3.5287445,-3.3726118,1000.30817,0,0
4.92,-8.424757000000001,3.6097765,-3.3536763,1000.32605,0,0
4.96,-8.314847,3.762307,-3.3063345,1000.321,0,0
5.0,-8.429585000000001,3.6050115,-3.4294312000000007,1000.3359,0,0
5.04,-8.377034,3.6860435,-3.292136,1000.3282,0,0
5.08,-8.381839,3.6336117,-3.4389047999999995,1000.32324,0,0
5.12,-8.343623,3.7146437,-3.4673133000000003,1000.3689,0,0
5.16,-8.357988,3.6050138,-3.3489556000000005,1000.3435,0,0
5.2,-8.334113,3.7051117,-3.3205514,1000.33105,0,0
5.24,-8.219424,3.7575445,-3.3489604,1000.3361,0,0
5.28,-8.487117999999999,3.5764163,-3.4199786,1000.3109,0,0
5.32,-8.544497999999999,3.6145492,-3.3584332000000003,1000.3588,0,0
5.36,-8.272078,3.7670796,-3.2495446,1000.3107,0,0
5.4,-8.477634,3.6574497,-3.3963134,1000.341,0,0
5.44,-8.410739,3.6479168,-3.367909,1000.3134,0,0
5.48,-8.210016,3.8671794,-3.4389277000000003,1000.3384,0,0
5.52,-8.329532,3.6097856,-3.4105230000000004,1000.30084,0,0
5.56,-8.525530999999999,3.433424,-3.41526,1000.321,0,0
5.6,-8.310467,3.5478214999999995,-3.31584,1000.3386,0,0
5.64,-8.396526,3.5430558,-3.3395143,1000.3359,0,0
5.68,-8.372651,3.5525894,-3.3395166,1000.3185,0,0
5.72,-8.486462,3.566867,-3.358371,1000.33356,0,0
5.76,-8.438652000000001,3.5287342000000006,-3.3962455,1000.3185,0,0
5.8,-8.338265,3.5430336,-3.3867755,1000.28796,0,0
5.84,-8.333473,3.5763996,-3.4199154000000003,1000.3208,0,0
5.88,-8.419499,3.4238691,-3.3867733,1000.30804,0,0
5.92,-8.319111999999999,3.6621969,-3.4341164,1000.3257,0,0
5.96,-8.347778,3.6478968,-3.4104433,1000.32855,0,0
6.0,-8.199594,3.6383631,-3.3773015,1000.3207,0,0
6.04,3.4097873999999995,6.960555,7.805731,1000.4667,0,0
6.08,3.361957,7.565908,7.398567999999999,1000.444,0,0
6.12,4.207948,7.875735799999997,9.150294,1000.4769,0,0
6.16,3.4766042,8.033032,7.1429043000000005,1000.4416,0,0
6.2,2.845638,7.537311,8.141860000000001,1000.4494,0,0
6.24,2.7261088,7.7279740000000015,7.677886,1000.4166,0,0
6.28,3.0654407000000004,8.176032000000001,8.113448,1000.3687,0,0
6.32,2.3245368,7.9663033,6.612638499999999,1000.35614,0,0
6.36,3.194429,9.200844,7.753628,1000.3486,0,0
6.4,5.1684519999999985,9.868163,11.370709,1000.40405,0,0
6.44,4.2076783,9.124579,8.563205,1000.34106,0,0
6.48,2.9792328,7.756578399999999,6.0113572999999985,1000.293,0,0
6.52,2.051921,6.455309400000001,2.5552387000000003,1000.3288,0,0
6.56,-1.7241606,3.3522818,2.1007323,1000.3061,0,0
6.6,-5.309046,2.1606436,1.1538485,1000.31616,0,0
6.64,-7.555588,1.3026643999999998,-0.048693426,1000.31616,0,0
6.68,-9.873826,0.6877793000000001,0.58097935,1000.3742,0,0
6.72,-9.6396475,0.20635782,-0.15759079,1000.3213,0,0
6.76,-9.162082,0.09197073,-0.21444157,1000.3339,0,0
6.8,-9.4393635,1.0738826,-2.0655985,1000.32635,0,0
6.84,-8.990115,1.9938295,-2.2029011,1000.32385,0,0
6.88,-9.731033,2.6611485,-3.3107564,1000.3139,0,0
6.92,-8.77512,3.3951995000000004,-4.347595,1000.3491,0,0
6.96,-8.536175,3.7765253,-3.2728896,1000.3566,0,0
7.0,-8.842135,2.8136818,-1.8431044,1000.367,0,0
7.04,-8.106094,3.2331402,-3.329712,1000.3519,0,0
7.08,-9.253294,3.0520122000000005,-2.5722113,1000.35706,0,0
7.12,-9.286802,2.8279853,-2.6763728,1000.35944,0,0
7.16,-8.5173025,3.8813953,-2.4491258,1000.3545,0,0
7.2,-8.751562,3.757466,-2.4728024,1000.3495,0,0
7.24,-8.651234,3.9052308,-3.4859690000000003,1000.3419,0,0
7.28,-8.670403,3.4714756,-3.1072216,1000.3545,0,0
7.32,-9.167551,3.1807163,-2.3023772,1000.3547,0,0
7.36,-8.87603,2.8089263,-2.2360997000000005,1000.35706,0,0
7.4,-8.942997,2.8947256,-2.652732,1000.3851,0,0
7.44,-9.01952,2.9423923,-2.605392,1000.3623,0,0
7.48,-8.895294,3.2188535,-2.4254892000000003,1000.352,0,0
7.52,-9.005282000000003,2.9662275,-2.7616367000000004,1000.3724,0,0
7.56,-8.847594,3.109225,-2.6764216,1000.352,0,0
7.6,-8.64211,3.1854916,-2.7663796,1000.36237,0,0
7.64,-8.637377,3.171193,-2.6669614,1000.37256,0,0
7.68,-8.838181,3.1139953,-2.7616541,1000.35724,0,0
7.72,-8.78087,3.1521287,-2.9273627,1000.3623,0,0
7.76,-8.608044,3.542968,-2.884684,1000.3524,0,0
7.8,-8.689319,3.4047382000000006,-2.6716378,1000.3524,0,0
7.84,-8.541159,3.6049342,-2.6763735,1000.3398,0,0
7.88,-8.73715,3.6192343,-2.955705,1000.3299,0,0
7.92,-8.732388499999999,3.6001685,-2.6195638,1000.3701,0,0
7.96,-8.756306,3.481005,-2.941505,1000.35254,0,0
8.0,-8.53645,3.4285734,-2.6669111,1000.32983,0,0
8.04,-8.75634,3.3284762000000003,-2.6432407,1000.3702,0,0
8.08,-8.512587,3.6144695,-2.6905863,1000.3727,0,0
8.12,-8.751595,3.4953062999999993,-3.003059,1000.36005,0,0
8.16,-8.436146,3.4619408,-2.7568715,1000.3449,0,0
8.2,-8.636913,3.3427775,-2.771076,1000.3501,0,0
8.24,-8.560454,3.3999765,-2.8326247,1000.3501,0,0
8.28,-8.727766,3.2951126000000004,-2.8847048,1000.3553,0,0
8.32,-8.708662,3.342779,-3.031473,1000.3276,0,0
8.36,-8.565288,3.5429747000000003,-3.362883,1000.31494,0,0
8.4,-8.761275999999999,3.4190447,-1.9520319,1000.33765,0,0
8.44,-8.182939,3.581108,-2.3260515,1000.3475,0,0
8.48,-8.742189999999999,3.1807172,-3.916813,1000.38293,0,0
8.52,-9.110255,3.3809135,-3.4670463,1000.3981,0,0
8.56,-8.369402000000001,3.4428787000000005,-2.9367943,1000.3578,0,0
8.6,-8.560613,3.5954092000000006,-2.794764,1000.32245,0,0
8.64,-8.670564,3.3999808,-2.9794075,1000.33276,0,0
8.68,-8.613226,3.2903507000000003,-2.9036586,1000.3805,0,0
8.72,-8.727957,3.4142814,-2.9083943,1000.36053,0,0
8.76,-8.57599,3.5191698,-3.017376,1000.36316,0,0
8.8,-8.623836500000001,3.4667387,-3.0552557,1000.37823,0,0
8.84,-8.561755,3.46674,-3.1783555,1000.3681,0,0
8.88,-8.356282,3.652637200000002,-3.074204,1000.36053,0,0
8.92,-8.461491,3.5048754,-3.0931463,1000.4033,0,0
8.96,-8.356391,3.7003055,-3.0458074,1000.36554,0,0
9.0,-8.432922999999999,3.5811431,-3.1594384,1000.34534,0,0
9.04,-8.542911,3.6383429,-3.1499740000000003,1000.33777,0,0
9.08,-8.404353,3.5716126000000004,-3.0789633,1000.36053,0,0
9.12,-8.667287,3.676478,-3.1215773,1000.37335,0,0
9.16,-8.571757,3.543016,-3.1499894,1000.35815,0,0
9.2,-8.390177,3.8004115,-3.2730887,1000.333,0,0
9.24,-8.227719,3.6288168,-2.993764,1000.3632,0,0
9.28,-8.552799,3.4429220000000003,-3.1547384,1000.3709,0,0
9.32,-8.505056,3.6955514,-3.1500092,1000.34564,0,0
9.36,-8.452538,3.4286253,-3.2304997,1000.37335,0,0
9.4,-8.509941,3.5001252,-2.941705,1000.328,0,0
9.44,-8.653398,3.404795,-3.1216183,1000.333,0,0
9.48,-8.64867,3.4572287000000004,-3.211577,1000.37103,0,0
9.52,-8.56747,3.4572300000000005,-3.1926441000000003,1000.37854,0,0
9.56,-8.4002285,3.5716286,-3.1168985,1000.3332,0,0
9.6,-8.529342999999999,3.2999363,-3.0080125,1000.34326,0,0
9.64,-8.892663,3.3809693,-2.9748769,1000.2979,0,0
9.68,-8.715857000000002,3.5001345,-2.9938188,1000.26013,0,0
9.72,-8.639436,3.4906025,-2.8801982,1000.33075,0,0
9.76,-8.524388,3.4190962,-2.965387,1000.35333,0,0
9.8,-8.667829,3.5001287000000003,-3.0411417000000003,1000.3712,0,0
9.84,-8.567492,3.5048962,-3.0790205000000004,1000.3662,0,0
9.88,-8.524513,3.4572313,-2.9890702,1000.3459,0,0
9.92,-8.634491,3.4191003,-2.9938087,1000.3511,0,0
9.96,-8.581951,3.4810662000000003,-3.0032810000000003,1000.3485,0,0
10.0,-8.615447999999999,3.5239666,-3.064832,1000.3511,0,0
10.04,-8.543795,3.5382671,-2.9938195,1000.34607,0,0
10.08,-8.519936,3.4477036,-3.1595275000000003,1000.3205,0,0
10.12,-8.558214,3.4334050000000005,-3.026968,1000.28296,0,0
10.16,-8.5821495,3.5954683,-2.965424,1000.3106,0,0
10.2,-8.505716,3.8004317,-3.2447577,1000.3459,0,0
10.24,-8.257206,3.795666,-3.1358702000000003,1000.3435,0,0
10.28,-8.510574,3.7146354,-3.16428,1000.37646,0,0
10.32,-8.448478,3.4810753,-3.1027367000000003,1000.3181,0,0
10.36,-8.548891000000001,3.4906094,-3.216366,1000.3257,0,0
10.4,-8.348180000000001,3.6002410000000005,-3.0459309,1000.2956,0,0
10.44,-8.462935,3.8195035,-3.3678741000000003,1000.3712,0,0
10.48,-8.400839,3.666975,-3.2069082000000004,1000.3966,0,0
10.52,-8.572953,3.5811777,-3.2873967000000004,1000.3661,0,0
10.56,-8.305319,3.7146423,-3.263728,1000.3485,0,0
10.6,-8.520453,3.4906151,-3.2968726000000004,1000.3411,0,0
10.64,-8.444015,3.533515,-3.3205483,1000.37354,0,0
10.68,-8.348462,3.6097808,-3.3915684,1000.3483,0,0
10.72,-8.40586,3.6765137,-3.240071,1000.3233,0,0
10.76,-8.376833999999999,3.5668745000000004,-3.3583992,1000.3436,0,0
10.8,-8.367299000000001,3.6240737,-3.3868080000000003,1000.3511,0,0
10.84,-8.333865,3.7051055,-3.3157942000000005,1000.3181,0,0
10.88,-8.367348,3.705106,-3.4625628,1000.3258,0,0
10.92,-8.525107,3.5287445,-3.3726118,1000.30817,0,0
10.96,-8.424757000000001,3.6097765,-3.3536763,1000.32605,0,0
11.0,-8.314847,3.762307,-3.3063345,1000.321,0,0
11.04,-8.429585000000001,3.6050115,-3.4294312000000007,1000.3359,0,0
11.08,-8.377034,3.6860435,-3.292136,1000.3282,0,0
11.12,-8.381839,3.6336117,-3.4389047999999995,1000.32324,0,0
11.16,-8.343623,3.7146437,-3.4673133000000003,1000.3689,0,0
11.2,-8.357988,3.6050138,-3.3489556000000005,1000.3435,0,0
11.24,-8.334113,3.7051117,-3.3205514,1000.33105,0,0
11.28,-8.219424,3.7575445,-3.3489604,1000.3361,0,0
11.32,-8.487117999999999,3.5764163,-3.4199786,1000.3109,0,0
11.36,-8.544497999999999,3.6145492,-3.3584332000000003,1000.3588,0,0
11.4,-8.272078,3.7670796,-3.2495446,1000.3107,0,0
11.44,-8.477634,3.6574497,-3.3963134,1000.341,0,0
11.48,-8.410739,3.6479168,-3.367909,1000.3134,0,0
11.52,-8.210016,3.8671794,-3.4389277000000003,1000.3384,0,0
11.56,-8.329532,3.6097856,-3.4105230000000004,1000.30084,0,0
11.6,-8.525530999999999,3.433424,-3.41526,1000.321,0,0
11.64,-8.310467,3.5478214999999995,-3.31584,1000.3386,0,0
11.68,-8.396526,3.5430558,-3.3395143,1000.3359,0,0
11.72,-8.372651,3.5525894,-3.3395166,1000.3185,0,0
11.76,-8.486462,3.566867,-3.358371,1000.33356,0,0
11.8,-8.438652000000001,3.5287342000000006,-3.3962455,1000.3185,0,0
11.84,-8.338265,3.5430336,-3.3867755,1000.28796,0,0
11.88,-8.333473,3.5763996,-3.4199154000000003,1000.3208,0,0
11.92,-8.419499,3.4238691,-3.3867733,1000.30804,0,0
11.96,-8.319111999999999,3.6621969,-3.4341164,1000.3257,0,0
12.0,-8.347778,3.6478968,-3.4104433,1000.32855,0,0
12.04,-8.199594,3.6383631,-3.3773015,1000.3207,0,0
12.08,-8.50071,3.6002305,-3.4151757000000007,1000.3181,0,0
12.12,-8.433783,3.7003279,-3.358362,1000.3386,0,0
12.16,-8.543707000000001,3.5239656000000004,-3.3441575,1000.3134,0,0
12.2,-8.376402,3.5382648000000003,-3.2021244,1000.31573,0,0
12.24,-8.567583,3.476299,-3.2115922,1000.33575,0,0
12.28,-8.39072,3.5191977,-3.2163258,1000.3664,0,0
12.32,-8.56278,3.538264,-3.348888,1000.33093,0,0
12.36,-8.500632000000001,3.4715319,-3.3394184,1000.3235,0,0
12.4,-8.462383,3.5763958,-3.3204796,1000.3283,0,0
12.44,-8.553188,3.4667647000000006,-3.292072,1000.3737,0,0
12.48,-8.3285265,3.5144297999999994,-3.1689765,1000.32324,0,0
12.52,-8.620082,3.4762971,-3.2731323,1000.3435,0,0
12.56,-8.400201,3.4667637000000004,-3.235256,1000.33075,0,0
12.6,-8.586601,3.4000316,-3.2589269,1000.33826,0,0
12.64,-8.433637,3.5239623,-3.1689723,1000.32324,0,0
12.68,-8.629597,3.476296,-3.1452992,1000.3386,0,0
12.72,-8.4670725,3.5763937999999995,-3.3110023,1000.29803,0,0
12.76,-8.610552,3.4762979,-3.2447286,1000.33075,0,0
12.8,-8.3428755,3.5573292000000003,-3.1263678,1000.34076,0,0
12.84,-8.467143,3.5382628,-3.1642423,1000.3283,0,0
12.88,-8.428897000000001,3.4667642,-3.2210543,1000.33826,0,0
12.92,-8.596182,3.5382626000000004,-3.3394141000000004,1000.33325,0,0
12.96,-8.46712,3.6097605,-3.2210531,1000.3231,0,0
13.0,-8.447994,3.600227,-3.225787,1000.30817,0,0
13.04,-8.438426,3.5287285,-3.1500356,1000.3056,0,0
13.08,-8.519675999999999,3.5620942,-3.1926446,1000.3357,0,0
13.12,-8.572247,3.3857317000000005,-3.1216278,1000.3332,0,0
13.16,-8.701294,3.5239617999999995,-3.3062687000000004,1000.33093,0,0
13.2,-8.400158,3.681258,-3.2068458,1000.3258,0,0
13.24,-8.457508,3.590693,-3.1926417,1000.293,0,0
13.28,-8.481400500000001,3.5430272000000005,-3.2068446,1000.33075,0,0
13.32,-8.409696,3.6240585,-3.3299382000000004,1000.3232,0,0
13.36,-8.543522,3.433396,-3.2399838,1000.36115,0,0
13.4,-8.395341,3.4381626000000005,-3.2920613,1000.341,0,0
13.44,-8.419233,3.5096605000000003,-3.2305138,1000.336,0,0
13.48,-8.433564,3.4715283,-3.358342,1000.3483,0,0
13.52,-8.500475,3.4905941,-3.3062627,1000.3485,0,0
13.56,-8.486127999999999,3.5144265,-3.2778556000000005,1000.3584,0,0
13.6,-8.5578165,3.4905937000000007,-3.325199,1000.341,0,0
13.64,-8.466992999999999,3.5716248,-3.2778542,1000.3156,0,0
13.68,-8.553022,3.4333947,-3.344135,1000.3483,0,0
13.72,-8.404841000000001,3.4333947,-3.2873216,1000.3408,0,0
13.76,-8.658164,3.4429271,-3.4672284,1000.3232,0,0
13.8,-8.318789,3.5334916,-3.2163043,1000.3459,0,0
13.84,-8.662927999999999,3.2570312,-3.2873197,1000.3559,0,0
13.88,-8.476508,3.4667594,-3.3772726000000004,1000.30536,0,0
13.92,-8.380904,3.6478887,-3.4814289,1000.3181,0,0
13.96,-8.32832,3.5287244,-3.3583336000000004,1000.3256,0,0
14.0,-8.462146,3.3094625,-3.3157233999999995,1000.3408,0,0
14.04,-8.361763,3.4524593,-3.3772697,1000.3433,0,0
14.08,-8.457351,3.4143264,-3.4009411,1000.3231,0,0
14.12,-8.595958,3.40956,-3.4577534,1000.3483,0,0
14.16,-8.442997,3.5620892,-3.4908936,1000.3407,0,0
14.2,-8.366512,3.4619915,-3.3015168,1000.333,0,0
14.24,-8.452541,3.5477893,-3.4908922,1000.32806,0,0
14.28,-8.4573145,3.4333918,-3.4482818,1000.33826,0,0
14.32,-8.524224,3.452458,-3.434078,1000.3103,0,0
14.36,-8.385602,3.6383533,-3.3204517,1000.31793,0,0
14.4,-8.519428,3.5573215,-3.4577487,1000.3154,0,0
14.44,-8.409486,3.6431198,-3.4104037000000003,1000.3128,0,0
14.48,-8.395139,3.5620875,-3.3299184,1000.34564,0,0
14.52,-8.399911999999999,3.4476905,-3.391465,1000.32794,0,0
14.56,-8.476381,3.4762895,-3.3488548,1000.3332,0,0
14.6,-8.448519000000001,3.5621076,-3.3631325,1000.32294,0,0
14.64,-8.438969,3.538275,-3.3773365,1000.3255,0,0
14.68,-8.329042,3.5668747000000005,-3.4341505,1000.3229,0,0
14.72,-8.553703,3.395279,-3.4010105000000004,1000.3277,0,0
14.76,-8.410319,3.4191122000000003,-3.363136,1000.3506,0,0
14.8,-8.41033,3.5430427000000004,-3.4625595,1000.3481,0,0
14.84,-8.563293,3.4191127,-3.4483573,1000.3229,0,0
14.88,-8.453368,3.490611,-3.386811,1000.338,0,0
14.92,-8.443819,3.3809807000000003,-3.315796,1000.333,0,0
14.96,-8.568104,3.485845,-3.3820784,1000.3431,0,0
15.0,-8.496417999999998,3.4524794,-3.4815018,1000.3405,0,0
15.04,-8.266997,3.4524796,-3.4199557,1000.3558,0,0
15.08,-8.42952,3.4238806000000004,-3.3773468,1000.3506,0,0
15.12,-8.400851,3.4667795,-3.4341607000000005,1000.35046,0,0
15.16,-8.510797,3.4191146,-3.4199584,1000.353,0,0
15.2,-8.300497,3.609777,-3.4341626000000005,1000.3859,0,0
15.24,-8.45824,3.4667802000000005,-3.557258,1000.3606,0,0
15.28,-8.486928,3.5239797,-3.3300073,1000.34784,0,0
15.32,-8.46304,3.4191155,-3.4625716,1000.33527,0,0
15.36,-8.46305,3.3857498,-3.3962908,1000.36566,0,0
15.4,-8.405704,3.4906142,-3.3347447,1000.3556,0,0
15.44,-8.477409,3.5335135,-3.4578402,1000.37067,0,0
15.48,-8.381824,3.5478132000000007,-3.3726218,1000.3681,0,0
15.52,-8.477432,3.4810817000000003,-3.363154,1000.3455,0,0
15.56,-8.295808000000001,3.6288457,-3.3205452000000006,1000.37317,0,0
15.6,-8.466792,3.5430207,-3.3772583,1000.3732,0,0
15.64,-8.299475,3.6526508,-3.4624752999999995,1000.3681,0,0
15.68,-8.495417,3.5048866000000003,-3.6045048,1000.3455,0,0
15.72,-8.337651,3.5334854,-3.3677819,1000.36053,0,0
15.76,-8.509689999999999,3.4476867,-3.481404,1000.3452,0,0
15.8,-8.222871000000001,3.5239508,-3.2730875,1000.38293,0,0
15.84,-8.418811999999999,3.4000196000000003,-3.4766642999999995,1000.37286,0,0
15.88,-8.404438,3.461984,-3.4719267,1000.33765,0,0
15.92,-8.466539,3.7813423,-3.4482512,1000.3452,0,0
15.96,-8.370917,3.8671398,-3.3961704,1000.32745,0,0
16.0,-8.342205,3.747975,-3.3535578,1000.3628,0,0
16.04,-8.542919,3.3809493,-3.5997434,1000.35504,0,0
16.08,-8.533331,3.4000146,-3.4340365,1000.36536,0,0
16.12,-8.456831,3.4572123999999995,-3.2020485,1000.3704,0,0
16.16,-8.342067,3.614508,-3.4955773,1000.3502,0,0
16.2,-8.523666,3.4476779000000004,-3.353542,1000.35754,0,0
16.24,-8.442395,3.4476774,-3.4813697,1000.3855,0,0
16.28,-8.456704,3.4905758,-3.5571175000000004,1000.335,0,0
16.32,-8.365846000000001,3.4905746,-3.3866751000000006,1000.36273,0,0
16.36,-8.418385,3.3809428,-3.415078,1000.3502,0,0
16.4,-8.432697000000001,3.4810395,-3.4008722,1000.3477,0,0
16.44,-8.403996000000001,3.4762727999999994,-3.4056046,1000.36786,0,0
16.48,-8.313139,3.4333730000000005,-3.410335,1000.3626,0,0
16.52,-8.509074,3.4810371,-3.5144887,1000.3577,0,0
16.56,-8.351314,3.6573994,-3.3677197,1000.36273,0,0
16.6,-8.37594,3.4524550000000005,-3.4435367999999995,1000.3527,0,0
16.64,-8.457194,3.5001209,-3.4103956,1000.36505,0,0
16.68,-8.495431,3.3523571000000003,-3.4388018,1000.33234,0,0
16.72,-8.500207000000001,3.3285248,-3.3109727,1000.3525,0,0
16.76,-8.662718,3.4476886,-3.5192862000000003,1000.3424,0,0
16.8,-8.222974,3.7146153,-3.4198635000000004,1000.3904,0,0
16.84,-8.141715,3.686016,-3.263628,1000.3626,0,0
16.88,-8.571895,3.4667542,-3.2730963,1000.36505,0,0
16.92,-8.677049,3.3332907999999994,-3.4435349000000004,1000.35254,0,0
16.96,-8.418936,3.557319,-3.4103937000000006,1000.3676,0,0
17.0,-8.543206,3.342824,-3.429331,1000.3801,0,0
17.04,-8.409371,3.51442,-3.2967677,1000.3751,0,0
17.08,-8.533643,3.590685,-3.4956126000000003,1000.36505,0,0
17.12,-8.160816,4.0053744,-3.5429564,1000.3777,0,0
17.16,-8.026978999999999,3.8147128,-3.5003464,1000.37006,0,0
17.2,-8.146473,3.6812491,-3.4009237,1000.3474,0,0
17.24,-8.313761999999999,3.7622805,-3.443533,1000.3524,0,0
17.28,-8.184705000000001,3.924343,-3.2872975,1000.3727,0,0
17.32,-8.390234,3.8337786,-3.6187057,1000.3751,0,0
17.36,-8.289855000000001,3.9005103,-3.5287519,1000.34717,0,0
17.4,-8.084322,3.862378,-3.4956107000000003,1000.38245,0,0
17.44,-8.237273,3.7479806,-3.6234393,1000.3598,0,0
17.48,-8.270731,3.676482,-3.6755176,1000.3699,0,0
17.52,-8.165569999999999,3.8909771,-3.599767,1000.3648,0,0
17.56,-8.103432000000002,3.857611,-3.5760946,1000.3293,0,0
17.6,-8.083536,4.038721,-3.6423051,1000.352,0,0
17.64,-8.131313,3.971989,-3.6186314,1000.3371,0,0
17.68,-8.054795,4.033953,-3.5854864,1000.3497,0,0
17.72,-8.155136,3.9529207,-3.6943748,1000.3294,0,0
17.76,-8.150325,4.0053519999999985,-3.4860582,1000.38245,0,0
17.8,-8.116849,3.929087,-3.5049940000000004,1000.3547,0,0
17.84,-8.164609,4.0196505,-3.6564915,1000.3419,0,0
17.88,-8.188467,3.867119600000001,-3.6375504,1000.3368,0,0
17.92,-8.264911,3.9338508,-3.4292333,1000.3823,0,0
17.96,-7.973322,3.9958155,-3.623342,1000.37726,0,0
18.0,-8.217049000000001,3.9481485,-3.5097125,1000.34924,0,0
18.04,-8.140545,3.8194509,-3.3960843,1000.35175,0,0
18.08,-8.303028999999999,3.8051505,-3.4576290000000003,1000.3495,0,0
18.12,-8.207391000000001,3.819449,-3.4008121,1000.37195,0,0
18.16,-8.197797,3.7098176,-3.4244812000000007,1000.362,0,0
18.2,-8.379408999999999,3.6430855,-3.4765577000000003,1000.32916,0,0
18.24,-8.322008,3.8146803,-3.362928,1000.36456,0,0
18.28,-8.336316,3.7288816,-3.4244723,1000.34686,0,0
18.32,-8.513143,3.5763512000000004,-3.3297818,1000.33936,0,0
18.36,-8.36016,3.7956119,-3.5522962,1000.3516,0,0
18.4,-8.412704,3.5143843,-3.3960578000000003,1000.34656,0,0
18.44,-8.379203,3.7145786,-3.4149914,1000.32654,0,0
18.48,-8.245344000000001,3.6859787000000006,-3.367645,1000.32385,0,0
18.52,-8.512974,3.4524164,-3.5096738,1000.33154,0,0
18.56,-8.398224,3.5286806000000004,-3.3865760000000003,1000.34656,0,0
18.6,-8.227052,3.5620682,-3.49555,1000.32135,0,0
18.64,-8.437367,3.4858038,-3.514488,1000.32654,0,0
18.68,-8.43737,3.700299,-3.53816,1000.34656,0,0
18.72,-8.026313,3.9338603,-3.661255,1000.3391,0,0
18.76,-8.136250500000001,3.6192675,-3.609177,1000.3617,0,0
18.8,-8.164933,3.6383336,-3.4576763999999995,1000.3492,0,0
18.84,-8.30355,3.5906684,-3.5381613,1000.34393,0,0
18.88,-8.39437,3.6192677,-3.3961296,1000.3389,0,0
18.92,-8.313119,3.7431984,-3.372458,1000.3313,0,0
18.96,-8.327461999999999,3.7145991,-3.4908185,1000.3464,0,0
19.0,-8.356144,3.6717002,-3.3345835,1000.3665,0,0
19.04,-8.389606,3.6812336,-3.5097568,1000.33386,0,0
19.08,-8.408729,3.5859022000000005,-3.3393188,1000.3411,0,0
19.12,-8.346592999999999,3.481038,-3.4198036,1000.33887,0,0
19.16,-8.442196000000001,3.5573032,-3.381929,1000.3361,0,0
19.2,-8.341824,3.4905715,-3.471883,1000.32605,0,0
19.24,-8.490001,3.4619725,-3.3440542,1000.316,0,0
19.28,-8.466105,3.4715056000000004,-3.3913987,1000.3085,0,0
19.32,-8.490007,3.3809414,-3.4434776,1000.36395,0,0
19.36,-8.647745,3.3475752,-3.618651,1000.3311,0,0
19.4,-8.604732,3.2570105,-3.7985585,1000.35114,0,0
19.44,-7.624875500000001,3.5144047999999994,-3.613917,1000.336,1,1
19.48,-8.838949000000003,2.8089547,-3.9642634,1000.3184,1,1
19.52,-8.537825999999999,3.2474778,-3.5997148,1000.2956,1,1
19.56,-8.53305,3.2236454,-3.5286992,1000.3184,1,1
19.6,-8.633042999999999,3.371399,-3.8032596,1000.3435,1,1
19.64,-8.623477000000001,2.918576,-3.6280859,1000.346,1,1
19.68,-8.198063000000001,2.7994115,-3.419771,1000.35864,1,1
19.72,-7.9112597,2.71838,-2.6385927,1000.3107,1,1
19.76,-8.470486,3.5048616000000004,-3.1357043,1000.3737,1,1
19.8,-9.808823,2.670714,-3.1499066000000004,1000.3335,1,1
19.84,-9.158754,2.8423095000000003,-2.2645717,1000.336,1,1
19.88,-9.149183,3.4810278,-2.4208062000000004,1000.3534,1,1
19.92,-8.346167999999999,3.876652200000001,-2.7380104,1000.3687,1,1
19.96,-8.102386,3.733655,-2.184084,1000.3686,1,1
20.0,-8.274449,3.4190621,-2.2503645,1000.3583,1,1
20.04,-8.948387,3.9195502,-1.7390476,1000.3963,1,1
20.08,-8.838441,4.429571,-1.6443584999999998,1000.4013,1,1
20.12,-9.617537,4.4248047,-1.9899691,1000.35834,1,1
20.16,-10.143306,4.934826,-2.5533624,1000.37354,1,1
20.2,-9.364184,4.9443583,-2.6149085,1000.4013,1,1
20.24,-9.082166,5.4162474000000005,-2.4302657,1000.3835,1,1
20.28,-8.9435425,5.4353137,-2.5722969,1000.3681,1,1
20.32,-8.130962,5.2255845,-2.434998,1000.3735,1,1
20.36,-8.972196,3.5048573,-3.3108616,1000.2928,1,1
20.4,-7.8823895,3.709819,-3.2682512000000004,1000.30786,1,1
20.44,-7.261004400000001,3.881415,-3.3108597,1000.33276,1,1
20.48,-7.882366999999999,3.7622507000000014,-3.481297,1000.348,1,1
20.52,-7.963614,3.6764524,-3.5901875,1000.3455,1,1
20.56,-7.084117999999999,3.4476572999999995,-3.2256374,1000.3858,1,1
20.6,-7.025849000000001,3.0567775,-2.747379,1000.3153,1,1
20.64,-7.991325999999999,2.7564833,-2.9698923,1000.3254,1,1
20.68,-7.307767,3.466699,-2.8609965,1000.3406,1,1
20.72,-7.7904797000000015,3.8909216,-3.1403222,1000.3128,1,1
20.76,-9.224376,4.0053177,-3.5900865,1000.37823,1,1
20.8,-10.113373,4.353275,-4.0587883,1000.4136,1,1
20.84,-10.710801,4.1483116,-3.9214866,1000.39075,1,1
20.88,-11.203074,4.7012315000000005,-3.6090112,1000.3957,1,1
20.92,-9.372362,4.6011324,-1.5968848,1000.3579,1,1
20.96,-7.2931046,4.005312,-1.2560037,1000.3957,1,1
21.0,-8.593164,3.2140625,-0.95773196,1000.39056,1,1
21.04,-8.956394,3.199762,-1.3128091,1000.3,1,1
21.08,-8.124649,3.5715517999999995,-1.3128037,1000.2922,1,1
21.12,-8.18196,3.8480108,-1.2938618999999998,1000.33,1,1
21.16,-7.6561527,4.2817674000000014,-1.6868147,1000.3555,1,1
21.2,-7.3023853,4.1578345,-1.4737608,1000.32996,1,1
21.24,-7.8137813,4.443827,-1.5116321,1000.34,1,1
21.28,-8.009703,4.9204817,-1.6252532,1000.3955,1,1
21.32,-8.124383,5.2970386,-1.8951111,1000.4284,1,1
21.36,-9.080288,5.59733,-2.0087316000000004,1000.39294,1,1
21.4,-8.444530499999999,5.9405217000000015,-2.164963,1000.35535,1,1
21.44,-9.821062,5.120672,-2.6526022,1000.36273,1,1
21.48,-9.2426605,5.034873,-3.3106800000000005,1000.3755,1,1
21.52,-9.075323,3.8146338,-3.3769577000000006,1000.3171,1,1
21.56,-8.253152,3.7002354,-3.253859,1000.2872,1,1
21.6,-7.4170880000000015,3.5191162000000005,-2.6478922000000003,1000.3249,1,1
21.64,-6.924740299999999,4.1626,-2.2549338,1000.33966,1,1
21.68,-7.068113,4.3484955,-2.5816061,1000.3904,1,1
21.72,-7.1923520000000005,3.9528704,-2.7615097,1000.4131,1,1
21.76,-7.4169725999999985,3.7860408,-2.5342557,1000.36273,1,1
21.8,-7.5125437,3.7574403,-2.6005352000000004,1000.3347,1,1
21.84,-8.329858,3.89567,-3.2491457,1000.3272,1,1
21.88,-9.663395,3.9862335,-3.883553500000001,1000.36273,1,1
21.92,-11.312402,4.0005326,-4.40907,1000.365,1,1
21.96,-13.525421,4.300825,-4.6741943,1000.35986,1,1
22.0,-9.950105,4.920477,-2.2170355,1000.32965,1,1
22.04,-6.761945,4.31989,-0.7256954000000001,1000.3045,1,1
22.08,-9.543756,3.7050033,-2.2833116,1000.4226,1,1
22.12,-7.779985000000001,4.0100627,-0.93400383,1000.3824,1,1
22.16,-7.9137936,4.2674556,-1.3222227,1000.31683,1,1
22.2,-7.947223700000001,4.577281,-1.6299563999999995,1000.37726,1,1
22.24,-7.0820417,4.5629807,-0.9529332,1000.3093,1,1
22.28,-7.125033,4.7250432999999985,-1.3506205,1000.34973,1,1
22.32,-6.900353,5.1540318,-0.8771774,1000.31433,1,1
22.36,-6.728258,5.5830216,-0.74461216,1000.3144,1,1
22.4,-7.660291,6.1550074,-1.9329451,1000.40265,1,1
22.44,-8.367677,6.0120106,-2.0228963,1000.3901,1,1
22.48,-9.882842,5.4733887,-3.6467943,1000.4077,1,1
22.52,-9.777651,5.8880787,-3.8977146,1000.36456,1,1
22.56,-8.63525,4.9967313,-3.3532555,1000.2711,1,1
22.6,-7.712815799999999,4.734572,-3.7367482000000014,1000.34436,1,1
22.64,-7.6888914,3.8670588,-3.2585711,1000.33167,1,1
22.68,-7.822702,3.6954622,-2.870348,1000.3216,1,1
22.72,-7.1535087,4.2865148,-2.8798149,1000.3593,1,1
22.76,-6.565569,4.5629745,-2.7614522,1000.3495,1,1
22.8,-7.191698,4.0148196,-2.316416,1000.2661,1,1
22.84,-7.368518400000001,4.443809,-2.6809623,1000.3218,1,1
22.88,-7.3828406000000015,4.486707,-2.7519767,1000.309,1,1
22.92,-8.792850999999999,4.4009085,-3.5000098,1000.39233,1,1
22.96,-9.275596,4.4104410000000005,-3.6988535,1000.382,1,1
23.0,-9.911274,4.9728947,-3.9403048,1000.3896,1,1
23.04,-10.169366,4.41044,-3.6657078,1000.3947,1,1
23.08,-8.376909,4.2483764000000015,-1.6441143,1000.3339,1,1
23.12,-8.764047,4.095846,-1.961317,1000.3667,1,1
23.16,-9.667406,4.0767794,-1.8003448,1000.3742,1,1
23.2,-8.6970825,4.6344657,-1.568357,1000.33136,1,1
23.24,-7.994425,4.5057683,-1.7577307,1000.2884,1,1
23.28,-7.750633,4.2197742,-1.7529943,1000.3011,1,1
23.32,-7.592872,4.0481777,-1.615694,1000.32623,1,1
23.36,-7.263039999999997,4.4724,-1.6062229,1000.3842,1,1
23.4,-7.296473,4.3103370000000005,-1.2227339,1000.3363,1,1
23.44,-7.4350634000000015,4.7726917,-1.6062183,1000.36646,1,1
23.48,-7.994277,5.4590760000000005,-1.8239988,1000.36646,1,1
23.52,-8.706442,5.225514,-1.9092158,1000.33636,1,1
23.56,-10.035201,5.3113117,-2.4394667,1000.3363,1,1
23.6,-9.791407,6.0072284000000025,-3.088078,1000.31354,1,1
23.64,-9.762702,5.5830035,-3.0880756000000003,1000.268,1,1
23.68,-8.390873,4.391364,-3.7934997,1000.28815,1,1
23.72,-7.6786594,3.733579,-3.0312583,1000.37885,1,1
23.76,-8.123156,3.80031,-3.1780226000000003,1000.32367,1,1
23.8,-9.189024,3.7669435,-3.0549254,1000.3159,1,1
23.84,-7.9080133,4.3436956,-3.3863316,1000.33356,1,1
23.88,-6.904236,4.2388309999999985,-3.0738592,1000.3511,1,1
23.92,-6.980681,3.5333803,-2.6572285,1000.3134,1,1
23.96,-7.525554700000002,2.9375598,-2.931822,1000.3688,1,1
24.0,-7.4825177,3.2426193,-2.8181944,1000.34106,1,1
24.04,-7.869652,3.5762775,-2.7471757,1000.3461,1,1
24.08,-7.989126700000001,3.809838,-3.0265036,1000.3714,1,1
24.12,-8.00344,4.1673293,-3.376847,1000.35345,1,1
24.16,-8.529187,4.3436910000000015,-3.5283456,1000.34863,1,1
24.2,-9.963104,4.248359,-3.784001,1000.36865,1,1
24.24,-10.3454685,4.100596,-3.6372328,1000.3737,1,1
24.28,-9.303442,4.357988400000001,-2.652474,1000.32825,1,1
24.32,-9.279525,4.343689,-1.7624041,1000.26514,1,1
24.36,-7.310218300000002,5.077738,-1.7339952,1000.3333,1,1
24.4,-8.940103,4.5009837,-1.847618,1000.39636,1,1
24.44,-9.332023,4.1959233,-2.0322578,1000.3734,1,1
24.48,-9.002189999999997,4.17209,-2.0938025,1000.3207,1,1
24.52,-8.624566,4.6153793,-1.9186277,1000.28796,1,1
24.56,-7.950583,4.5724800000000005,-2.1458764,1000.3006,0,0
24.6,-7.859741,4.577245,-2.1032646,1000.29785,0,0
24.64,-7.988771000000002,4.1720877,-2.2026846,1000.33307,0,0
24.68,-8.7917595,4.0815225,-2.4015281,1000.33307,0,0
24.72,-8.75827,4.5009785,-2.6713865,1000.3256,0,0
24.76,-8.711147,4.7917557,-3.102279,1000.35565,0,0
24.8,-8.668118,4.357998,-3.2443101000000003,1000.36084,0,0
24.84,-8.453014,3.5715165,-2.7329931,1000.32324,0,0
24.88,-7.621316999999999,3.766945,-2.6335697,1000.33307,0,0
24.92,-7.8220563,3.2855225,-2.955508,1000.3279,0,0
24.96,-7.9272,3.4523516000000005,-2.9128973,1000.3102,0,0
25.0,-8.190076,3.6620798,-3.1969604,1000.33295,0,0
25.04,-8.668046,3.8098428,-3.1401465,1000.34045,0,0
25.08,-8.902242999999997,3.805076,-3.334256,1000.37573,0,0
25.12,-8.811414,3.9290062999999993,-3.2632387,1000.3556,0,0
25.16,-8.562852000000001,3.6954448,-3.2443,1000.37067,0,0
25.2,-8.601078,3.4332837999999994,-2.917625,1000.33044,0,0
25.24,-8.146985,3.5286148,-2.6572316,1000.32025,0,0
25.28,-8.271246000000001,3.7335763,-3.0691237,1000.3808,0,0
25.32,-8.471988,3.8432066,-2.9602313,1000.3455,0,0
25.36,-8.782662,3.538147,-3.1259344,1000.3606,0,0
25.4,-8.715733,3.595345,-2.8986819,1000.30023,0,0
25.44,-8.753959,3.495247,-2.9602277000000004,1000.3304,0,0
25.48,-8.4337,3.590578,-2.832398,1000.33545,0,0
25.52,-8.462367,3.64301,-2.8560688,1000.3556,0,0
25.56,-8.443235000000001,3.585810700000001,-2.8750052000000004,1000.3304,0,0
25.6,-8.672657000000001,3.4237475,-2.846598,1000.3405,0,0
25.64,-8.55793,3.7383401,-2.8892066,1000.3126,0,0
25.68,-8.600935,3.7955384,-2.908143,1000.36816,0,0
25.72,-8.519667,3.9147022,-2.9034073,1000.3403,0,0
25.76,-8.39075,3.886106,-2.9318266,1000.3707,0,0
25.8,-8.500678,3.666844600000001,-2.7519186,1000.3629,0,0
25.84,-8.629727,3.6811442,-2.8797472,1000.3254,0,0
25.88,-8.577144,3.828907,-2.8276682,1000.32007,0,0
25.92,-8.629714,3.8384402,-2.9365585,1000.3075,0,0
25.96,-8.553231,3.7812412,-2.912886,1000.3075,0,0
26.0,-8.41939,3.6239445,-2.7945254,1000.31506,0,0
26.04,-8.405045,3.6001115,-2.7803216,1000.3377,0,0
26.08,-8.548432,3.7192757,-2.818196,1000.3452,0,0
26.12,-8.362014,3.94807,-2.7566485000000003,1000.32764,0,0
26.16,-8.581878999999999,3.8956378,-2.8702734,1000.3427,0,0
26.2,-8.448038,3.7192752,-2.7803192,1000.34033,0,0
26.24,-8.51495,3.78124,-2.8560693,1000.33276,0,0
26.28,-8.543622000000001,3.8289053,-2.7282395,1000.35034,0,0
26.32,-8.376322,3.9909682,-2.7803175,1000.33264,0,0
26.36,-8.596188,3.786006200000001,-2.9128804,1000.3327,0,0
26.4,-8.586621000000001,3.6716087,-2.7850509,1000.3452,0,0
26.44,-8.534038,3.7621732,-2.8323944,1000.3177,0,0
26.48,-8.471894,3.8289046,-2.8797379000000003,1000.3403,0,0
26.52,-8.428869,3.8146048,-2.8465965,1000.32764,0,0
26.56,-8.553138,3.886103,-2.756642,1000.3428,0,0
26.6,-8.57225,3.824138,-2.8229234,1000.3251,0,0
26.64,-8.500546,3.752639,-2.860798,1000.3428,0,0
26.68,-8.51488,3.7574055,-2.8655317000000005,1000.3629,0,0
26.72,-8.4861965,3.924235,-2.8560624,1000.3377,0,0
26.76,-8.442212,3.8479464,-2.8512397000000003,1000.34784,0,0
26.8,-8.537761,3.7526138,-2.7518127,1000.3251,0,0
26.84,-8.561619,3.7001808,-2.8749034,1000.32007,0,0
26.88,-8.523333000000001,3.7812111000000006,-2.90804,1000.3553,0,0
26.92,-8.685802,3.6620462,-2.803879,1000.3579,0,0
26.96,-8.446767,3.7526095,-2.9601102000000004,1000.34784,0,0
27.0,-8.57578,3.652511,-2.9459033,1000.3501,0,0
27.04,-8.714354,3.6143773,-2.7896643,1000.3402,0,0
27.08,-8.432297,3.8384044,-3.0216458,1000.36554,0,0
27.12,-8.618668,3.499978,-2.8512034,1000.3832,0,0
27.16,-8.661645,3.5714753,-2.9127467,1000.3578,0,0
27.2,-8.479968,3.542875,-2.8133202,1000.33246,0,0
27.24,-8.585078999999999,3.4809084,-2.893801,1000.33014,0,0
27.28,-8.623274,3.571472,-2.9080002,1000.32745,0,0
27.32,-8.589773,3.6429696,-2.9695437,1000.33264,0,0
27.36,-8.651863,3.6429684,-3.130509,1000.37054,0,0
27.4,-8.479749,3.6286678,-2.8890505,1000.33514,0,0
27.44,-8.618319,3.5238023000000003,-3.045282,1000.33014,0,0
27.48,-8.551356,3.4904354,-2.955324,1000.3174,0,0
27.52,-8.536976,3.504734,-3.045274,1000.3174,0,0
27.56,-8.565608000000001,3.4856665,-2.9174407,1000.32245,0,0
27.6,-8.656384,3.5809964999999995,-3.0168598,1000.32764,0,0
27.64,-8.489048,3.6143613,-3.0026526,1000.3501,0,0
27.68,-8.527239,3.61436,-2.9695075,1000.36053,0,0
27.72,-8.603674,3.4808953,-2.9931755,1000.3377,0,0
27.76,-8.57187,3.5000026,-2.9507174,1000.34283,0,0
27.8,-8.557553,3.5143027,-2.936516,1000.34784,0,0
27.84,-8.686633,3.5524356,-3.1116912,1000.3554,0,0
27.88,-8.418984,3.6001017,-3.0028021000000003,1000.3503,0,0
27.92,-8.576741,3.614402,-3.0170076,1000.32007,0,0
27.96,-8.466828,3.514305,-2.964931,1000.33026,0,0
28.0,-8.782318,3.442807,-2.9791362,1000.33527,0,0
28.04,-8.519451,3.4904733,-3.0880296,1000.32263,0,0
28.08,-8.624628,3.423742,-3.069094,1000.3503,0,0
28.12,-8.610313,3.2759795,-2.950736,1000.33026,0,0
28.16,-8.619892,3.447576,-3.0264883,1000.3556,0,0
28.2,-8.6581545,3.452343,-3.0406938,1000.34045,0,0
28.24,-8.619938000000001,3.590574,-2.9602108,1000.3556,0,0
28.28,-8.572163,3.4428108,-2.9933537999999995,1000.3455,0,0
28.32,-8.600864999999999,3.4857106,-2.9744182,1000.3505,0,0
28.36,-8.634346,3.5429099,-3.0312333,1000.35803,0,0
28.4,-8.639147,3.438046,-3.0028288,1000.3304,0,0
28.44,-8.69175,3.4332805,-3.0880501,1000.3505,0,0
28.48,-8.543598,3.547678,-2.922348,1000.33795,0,0
28.52,-8.500601,3.6048772000000007,-2.9838974,1000.3556,0,0
28.56,-8.725274,3.5000136,-2.955493,1000.35565,0,0
28.6,-8.691837,3.6001115,-3.0407142999999994,1000.36066,0,0
28.64,-8.567586,3.5047812000000005,-2.8418715,1000.3456,0,0
28.68,-8.538928,3.4618830000000003,-2.860811,1000.33307,0,0
28.72,-8.639327,3.399918,-2.9744387000000003,1000.36066,0,0
28.76,-8.696867999999998,3.2807586000000004,-2.9602523,1000.3632,0,0
28.8,-8.653878,3.3951568999999995,-2.8182228,1000.35834,0,0
28.84,-8.505733,3.7478826,-3.0028672000000003,1000.371,0,0
28.88,-8.749533,3.5190885,-2.8987130000000003,1000.3381,0,0
28.92,-8.529688,3.5047894,-2.8845122,1000.3384,0,0
28.96,-8.677893,3.3760934,-2.8419054,1000.35846,0,0
29.0,-8.706598,3.3760939,-2.903455,1000.35583,0,0
29.04,-8.611033,3.4142272000000005,-2.9460676,1000.3432,0,0
29.08,-8.548922,3.5333915,-2.936601,1000.35583,0,0
29.12,-8.764044,3.442828,-2.9318695,1000.3509,0,0
29.16,-8.55376,3.4428284,-2.9839506,1000.3182,0,0
29.2,-8.644605,3.5286274,-2.9839532,1000.3408,0,0
29.24,-8.673312,3.4046972,-2.9839559,1000.35333,0,0
29.28,-8.668563,3.4952626,-2.8419263,1000.3357,0,0
29.32,-8.568216,3.3522666,-3.0975869,1000.36096,0,0
29.36,-8.6734,3.476198,-2.9460886000000004,1000.3938,0,0
29.4,-8.458338000000001,3.6144285,-3.002904,1000.34827,0,0
29.44,-8.59698,3.8003254,-3.0691884,1000.3282,0,0
29.48,-8.616127,3.5572314,-2.9981747000000003,1000.3383,0,0
29.52,-8.601819,3.6430304,-3.050256,1000.3255,0,0
29.56,-8.5301485,3.5667663,-2.9366329,1000.3714,0,0
29.6,-8.47282,3.7526624,-2.9650419,1000.3512,0,0
29.64,-8.358134,3.8098617,-2.9461071,1000.3336,0,0
29.68,-8.477658,3.5906012,-2.9461098,1000.3587,0,0
29.72,-8.568502,3.5191032999999994,-3.1118162,1000.3636,0,0
29.76,-8.549411,3.5572362,-3.078678,1000.36127,0,0
29.8,-8.654596000000002,3.5953698,-3.1212902,1000.3688,0,0
29.84,-8.406075,3.719301,-2.9697921000000003,1000.34357,0,0
29.88,-8.563838,3.6573365,-3.0928892999999995,1000.3386,0,0
29.92,-8.391794,3.6811697,-3.021876,1000.35364,0,0
29.96,-8.745528,3.4666755,-3.0692227,1000.31104,0,0
30.0,-8.559142999999999,3.509575,-2.917724,1000.33606,0,0
30.04,-8.549611,3.619207,-3.0834308,1000.336,0,0
30.08,-8.559201,3.557242,-2.936667,1000.3212,0,0
30.12,-8.564009,3.5143440000000004,-3.0124202,1000.3741,0,0
30.16,-8.52102,3.4619124,-2.946141,1000.3715,0,0
30.2,-8.444056,3.614430000000002,-2.9745028,1000.364,0,0
30.24,-8.654382,3.5476987,-3.0597234,1000.35394,0,0
30.28,-8.740433,3.6620965,-2.9555678,1000.36664,0,0
30.32,-8.511016,3.595365,-3.0171163,1000.34644,0,0
30.36,-8.649645,3.5572329,-2.9461017000000003,1000.3438,0,0
30.4,-8.668778,3.3427386,-2.9839785,1000.3388,0,0
30.44,-8.515841,3.5143347,-3.0029175,1000.36664,0,0
30.48,-8.558872000000001,3.4619029,-3.0313249,1000.3715,0,0
30.52,-8.563666,3.3904047,-2.9129663,1000.3212,0,0
30.56,-8.525443,3.5238693,-2.9508429,1000.34155,0,0
30.6,-8.673632000000001,3.6096673,-3.0739386000000004,1000.3615,0,0
30.64,-8.573272,3.6763992,-3.0881433,1000.34644,0,0
30.68,-8.554165,3.5048037000000005,-2.9981909,1000.38184,0,0
30.72,-8.611539,3.4380724000000003,-2.9271762000000003,1000.33124,0,0
30.76,-8.611554,3.4905047,-3.168632,1000.3466,0,0
30.8,-8.630686,3.5381708,-3.0786798,1000.32135,0,0
30.84,-8.315234,3.7478998,-3.0597434,1000.3438,0,0
30.88,-8.554239,3.566771,-3.0455415,1000.354,0,0
30.92,-8.449098,3.5238726,-2.9792614,1000.3771,0,0
30.96,-8.592506,3.5667715,-3.0597475,1000.3667,0,0
31.0,-8.477805,3.5763052,-2.9887326,1000.3516,0,0
31.04,-8.549517999999999,3.604905000000002,-3.0313437000000003,1000.3569,0,0
31.08,-8.582991999999999,3.623971,-3.0360794,1000.34174,0,0
31.12,-8.530426,3.595372,-3.1260345000000003,1000.34174,0,0
31.16,-8.463525,3.6192055,-2.9792693,1000.352,0,0
31.2,-8.683199,3.7049985,-3.1733618,1000.3293,0,0
31.24,-8.439435000000001,3.7240648,-2.960314,1000.33655,0,0
31.28,-8.535036,3.571535,-2.9934556,1000.32684,0,0
31.32,-8.640199,3.5238702000000006,-2.9177055,1000.36194,0,0
31.36,-8.449013,3.5524695,-3.0408008,1000.33185,0,0
31.4,-8.70235,3.4380722,-3.002926,1000.3544,0,0
31.44,-8.558961,3.4571383,-2.9934580000000004,1000.3495,0,0
31.48,-8.601985,3.5953689,-2.917708,1000.347,0,0
31.52,-8.611550999999999,3.5429368,-2.86563,1000.3392,0,0
31.56,-8.635455,3.4762053,-2.9555842999999995,1000.3192,0,0
31.6,-8.520747,3.5000381000000003,-2.946116,1000.352,0,0
31.64,-8.60201,3.6096692,-3.0408046000000004,1000.34424,0,0
31.68,-8.487302,3.4237738,-3.0928838,1000.3695,0,0
31.72,-8.530325,3.5572371,-3.0502746,1000.3343,0,0
31.76,-8.59247,3.5000388999999994,-3.0834162,1000.327,0,0
31.8,-8.520779,3.7336006,-3.0218694,1000.3522,0,0
31.84,-8.41085,3.6859348,-2.974526,1000.34973,0,0
31.88,-8.592487,3.4905062000000004,-2.9745264,1000.35956,0,0
31.92,-8.530356,3.547705,-3.1070902,1000.38745,0,0
31.96,-8.516024,3.6382694,-3.1497006,1000.3497,0,0
32.0,-8.49691,3.6716356,-3.0692163,1000.3698,0,0
32.04,-8.420439,3.6239703,-3.197046,1000.35974,0,0
32.08,-8.516043,3.7002354,-3.1544366000000004,1000.3296,0,0
32.12,-8.430012,3.6287372,-3.0597491000000003,1000.3344,0,0
32.16,-8.640329,3.4809742,-3.002937,1000.337,0,0
32.2,-8.606656,3.457136,-3.0313234,1000.3499,0,0
32.24,-8.573194500000001,3.5429337,-3.002917,1000.3575,0,0
32.28,-8.487155,3.6430316,-3.007651,1000.3726,0,0
32.32,-8.534951,3.4380696000000004,-3.0834012000000004,1000.3397,0,0
32.36,-8.577967,3.5238678,-2.9224312,1000.36755,0,0
32.4,-8.66878,3.5858326000000003,-2.9176965,1000.3423,0,0
32.44,-8.558843,3.6763973,-2.993447,1000.37,0,0
32.48,-8.534941,3.5429335,-2.8656178,1000.36005,0,0
32.52,-8.534938,3.5143342000000004,-2.8608835,1000.35254,0,0
32.56,-8.687891,3.4237697,-2.9176958,1000.3651,0,0
32.6,-8.630529,3.5619993,-2.8987582,1000.3904,0,0
32.64,-8.606628,3.7240624,-2.8135386,1000.3601,0,0
32.68,-8.5301485,3.6716304,-2.9461017000000003,1000.3728,0,0
32.72,-8.568384,3.5000343000000003,-2.9082263,1000.38544,0,0
32.76,-8.410648,3.4762015,-2.8419445,1000.3526,0,0
32.8,-8.730893,3.4428353,-2.8372097000000003,1000.32996,0,0
32.84,-8.678311,3.5286334000000004,-2.770928,1000.36273,0,0
32.88,-8.477559,3.576299,-3.0313199,1000.365,0,0
32.92,-8.730886,3.5191,-3.0739293,1000.37537,0,0
32.96,-8.597048,3.6763964,-2.979241,1000.39294,0,0
33.0,-8.310258000000001,3.8479924,-3.2491019,1000.40076,0,0
33.04,-8.362832000000001,3.3951697,-2.8656147,1000.3654,0,0
33.08,-8.439308,3.3999362,-2.709379,1000.33014,0,0
33.12,-8.577919999999999,3.5619986000000003,-2.931896,1000.3526,0,0
33.16,-8.487101,3.6525633,-2.9413645,1000.3629,0,0
33.2,-8.654866,3.6144423,-3.04083,1000.3703,0,0
33.24,-8.587963,3.6668751,-2.950878,1000.3224,0,0
33.28,-8.344209,3.5906107000000005,-2.889332,1000.32263,0,0
33.32,-8.349003999999999,3.7240744,-3.282289,1000.33246,0,0
33.36,-8.272542999999999,3.9624026,-2.538989,1000.3101,0,0
33.4,-8.798341,4.1292324,-3.0029624,1000.3476,0,0
33.44,-8.540247,3.9671705,-2.9508855,1000.30975,0,0
33.48,-8.368189,3.8146408,-2.6904943,1000.33246,0,0
33.52,-8.568959,3.3904172999999993,-2.4206352000000004,1000.3576,0,0
33.56,-8.373002,4.1244674,-2.4159021000000003,1000.3527,0,0
33.6,-8.607229,4.0529695,-2.6999679,1000.33496,0,0
33.64,-8.430391,4.0148373,-2.5958123,1000.3199,0,0
33.68,-8.382611,3.962406,-2.7141740000000003,1000.3555,0,0
33.72,-8.502117,4.062504,-2.9130201,1000.3476,0,0
33.76,-8.129317,4.453362,-2.5153322,1000.3757,0,0
33.8,-8.091091,4.777488,-2.4963958,1000.36536,0,0
33.84,-8.334876,4.56776,-2.7425861,1000.37286,0,0
33.88,-8.4352665,4.4581294,-2.515336,1000.3753,0,0
33.92,-8.616919000000001,4.2007356,-2.7094486,1000.3779,0,0
33.96,-8.244109,4.5534615999999986,-2.676309,1000.3628,0,0
34.0,-8.095953999999999,4.334201,-2.723655,1000.36786,0,0
34.04,-8.277602,4.2293363,-2.5390146,1000.3503,0,0
34.08,-8.124663,4.338967299999998,-2.5484848,1000.3729,0,0
34.12,-8.334992,4.372334,-2.5200799,1000.3577,0,0
34.16,-8.177275,4.6392617,-2.567425,1000.40076,0,0
34.2,-8.205967999999999,4.8632903,-2.6999903,1000.36536,0,0
34.24,-8.177305,4.677394400000002,-2.5674279,1000.3249,0,0
34.28,-8.143864,4.7917924,-2.5674295,1000.3375,0,0
34.32,-8.277716,4.5296325999999985,-2.6715884,1000.36804,0,0
34.36,-8.454583,4.848992,-2.955654,1000.3858,0,0
34.4,-7.680272,4.6869297,-2.6905286,1000.37317,0,0
34.44,-8.0148735,4.6440306,-2.5342946,1000.36816,0,0
34.48,-8.134383999999999,4.505800700000001,-2.3969984,1000.35046,0,0
34.52,-8.292135,4.4867352999999985,-2.4017344,1000.3679,0,0
34.56,-7.9910235,4.5201015,-2.7615504,1000.40607,0,0
34.6,-8.512038,4.3342066,-3.0787572999999995,1000.36053,0,0
34.64,-7.9193573000000015,4.5439352999999985,-2.8183663,1000.3378,0,0
34.68,-7.6899433,4.972926,-2.5769134,1000.3,0,0
34.72,-8.191839,4.9252605,-2.7852285,1000.3631,0,0
34.76,-7.8238106,5.063491,-2.960403,1000.37823,0,0
34.8,-7.9624414,5.1063905,-2.8941228,1000.3957,0,0
34.84,-8.115412,5.125457,-2.832577,1000.39056,0,0
34.88,-7.508394,5.101624500000002,-2.7568283,1000.3858,0,0
34.92,-8.038967999999999,4.9776945,-2.7236888,1000.3151,0,0
34.96,-7.938604400000001,5.268454599999999,-3.0124886,1000.39056,0,0
35.0,-7.431961999999999,5.4162187999999984,-2.8420515,1000.37823,0,0
35.04,-7.733109,5.2207904,-2.8893974,1000.3833,0,0
35.08,-7.623187,5.125458999999998,-2.8515234,1000.3682,0,0
35.12,-7.8813148,4.710769,-2.8420563,1000.35315,0,0
35.16,-8.0868635,4.753669,-2.7047603,1000.3254,0,0
35.2,-8.024650999999999,5.4066854000000015,-3.121381,1000.3707,0,0
35.24,-7.9195037,5.3065877,-2.8515205000000003,1000.37823,0,0
35.28,-7.699649000000001,5.154058,-2.643208,1000.3682,0,0
35.32,-7.991228599999999,4.6821694,-2.297598,1000.3885,0,0
35.36,-8.196771,4.8108664,-2.335474,1000.3377,0,0
35.4,-8.01515,5.239857,-2.463304,1000.3909,0,0
35.44,-7.924347999999997,5.192192,-2.42543,1000.3707,0,0
35.48,-8.139451,5.106395,-2.2976024,1000.33295,0,0
35.52,-8.163361,5.2875237,-2.6763556,1000.34045,0,0
35.56,-7.771426700000001,5.1921926,-2.2171192000000004,1000.27997,0,0
35.6,-8.05823,4.8061023,-2.2928712000000004,1000.3027,0,0
35.64,-8.125163,4.777503500000001,-2.5864055,1000.3254,0,0
35.68,-8.115613,4.8156360000000005,-2.486984,1000.3431,0,0
35.72,-7.938772699999999,4.8204026,-2.6479552,1000.36066,0,0
35.76,-8.077401,4.5773087,-2.5864089,1000.35315,0,0
35.8,-8.196909,4.4104790000000005,-2.4491124,1000.3505,0,0
35.84,-8.18736,4.6392746,-2.6384895,1000.348,0,0
35.88,-8.364227,4.5344105,-2.5627406,1000.3378,0,0
35.92,-8.646247,4.6440415,-2.6384919,1000.36816,0,0
35.96,-8.14916,4.353282,-2.6337588,1000.39343,0,0
36.0,-8.450299000000001,4.1673870000000015,-2.6905725,1000.36066,0,0
36.04,-8.498111,4.0720563,-2.794731,1000.4085,0,0
36.08,-8.240013000000001,4.0958885999999985,-2.6526997000000003,1000.37317,0,0
36.12,-8.283045,4.400949,-2.7757955,1000.3704,0,0
36.16,-8.326075,4.324684,-2.7757967,1000.3707,0,0
36.2,-8.344069500000002,4.4724197,-2.5863173,1000.3631,0,0
36.24,-8.434853,4.243624700000002,-2.747284,1000.35815,0,0
36.28,-8.229286,4.153059,-2.652593,1000.3506,0,0
36.32,-8.453902000000001,4.195957,-2.912982,1000.35535,0,0
36.36,-8.377395,4.1196914,-2.8466973,1000.35535,0,0
36.4,-8.248316,4.086325,-2.5910373,1000.3478,0,0
36.44,-8.195697000000001,4.215021,-2.690456,1000.33545,0,0
36.48,-8.42032,4.176888,-2.709391,1000.34045,0,0
36.52,-8.257775,4.191187,-2.8182795,1000.3304,0,0
36.56,-8.530186,4.114921,-2.7661977,1000.3556,0,0
36.6,-8.343741,4.2054844000000005,-2.6431002999999995,1000.3352,0,0
36.64,-8.329371,4.1911845,-2.766192,1000.36816,0,0
36.68,-8.534868,4.0624866000000015,-2.7661886000000004,1000.3831,0,0
36.72,-8.458364999999999,4.0577190000000005,-2.728311,1000.37573,0,0
36.76,-8.353176,4.1244507000000015,-2.5578694,1000.37573,0,0
36.8,-8.486976,3.9862194,-2.695164,1000.36066,0,0
36.84,-8.568204,3.8384554,-2.6856925,1000.37573,0,0
36.88,-8.773698,3.800322,-3.187536,1000.3629,0,0
36.92,-8.510779,3.7288227,-2.9886885,1000.3631,0,0
36.96,-8.281321,4.005282,-2.7993097,1000.3403,0,0
37.0,-8.252614,4.1101456,-2.8892608,1000.3808,0,0
37.04,-8.166534,4.095845,-2.7756312000000003,1000.3481,0,0
37.08,-8.271655,4.0529449999999985,-2.8182375,1000.36566,0,0
37.12,-8.381567,4.0243454,-2.78036,1000.3707,0,0
37.16,-8.333730000000001,4.305571,-2.8466382,1000.35284,0,0
37.2,-8.358922,4.2245717,-2.8798976,1000.3629,0,0
37.24,-8.368502000000001,4.1578403,-2.6715856,1000.34534,0,0
37.28,-8.435442,4.0911093,-2.723666,1000.31757,0,0
37.32,-8.42112,4.1387753,-2.7946837,1000.36053,0,0
37.36,-8.660134,3.943347,-2.8230925,1000.3478,0,0
37.4,-8.25387,4.0911107000000015,-2.7899532,1000.3808,0,0
37.44,-8.105715,4.1721425000000005,-2.7520797000000004,1000.3403,0,0
37.48,-8.306485,3.9671812000000006,-2.7946913,1000.373,0,0
37.52,-8.38776,4.153077,-2.742614,1000.34784,0,0
37.56,-8.473817,4.0625133999999985,-2.884648,1000.3579,0,0
37.6,-8.583772999999999,4.005315,-2.7946966,1000.3581,0,0
37.64,-8.340025,3.7812872,-2.6195254,1000.34784,0,0
37.68,-8.320924,3.876619,-2.6005898,1000.36554,0,0
37.72,-8.755908,3.6716576,-2.7378892999999995,1000.36554,1,2
37.76,-8.488259,3.824188,-2.898861,1000.3654,1,2
37.8,-8.93758,3.4905293,-3.031426,1000.36816,1,2
37.84,-8.689052,3.7002583,-2.4964402000000003,1000.348,1,2
37.88,-7.2933674,4.0148516,-2.6479428,1000.3506,1,2
37.92,-7.7522506999999985,3.8241901,-2.0750818,1000.3403,1,2
37.96,-8.292383000000001,4.033919,-2.723697,1000.3831,1,2
38.0,-8.359321000000001,4.25318,-3.126123,1000.3805,1,2
38.04,-7.929163000000001,4.1101839999999985,-2.728435,1000.3805,1,2
38.08,-8.980736,4.1149516,-3.519082,1000.39056,1,2
38.12,-8.794350999999999,4.891900499999998,-3.5285537,1000.3704,1,2
38.16,-8.636629,4.7298384,-3.1640053,1000.35284,1,2
38.2,-9.420286,4.014849,-3.533268,1000.3503,1,2
38.24,-8.703327,4.2198114,-3.2350013,1000.3503,1,2
38.28,-8.034164,4.1864457,-3.429113,1000.3781,1,2
38.32,-7.752165,3.4714627,-3.3533633000000003,1000.36053,1,2
38.36,-6.8487935,2.9709744,-3.1213787,1000.3327,1,2
38.4,-6.958739,2.8565774,-2.9556754,1000.32513,1,2
38.44,-7.704397699999999,3.571561,-3.2776155,1000.3653,1,2
38.48,-7.718746,4.334210400000001,-3.9309642,1000.4284,1,2
38.52,-9.114459,4.105416,-3.9546373,1000.388,1,2
38.56,-9.716725,4.8299327000000005,-4.087201,1000.3781,1,2
38.6,-10.57232,4.8013334,-4.101406,1000.3957,1,2
38.64,-9.597249,4.6726364999999985,-2.9130712000000005,1000.3704,1,2
38.68,-7.7235765,5.1683593,-1.9093782,1000.37286,1,2
38.72,-7.193028999999999,4.486741,-1.4217354,1000.3778,1,2
38.76,-8.0342865,4.7250695,-1.6111128,1000.4056,1,2
38.8,-8.660447,4.1864486,-1.488019,1000.4332,1,2
38.84,-8.588761,3.4809988,-1.1092675,1000.3728,1,2
38.88,-8.583988,3.8766234,-1.8383664,1000.3831,1,2
38.92,-8.822989999999997,3.8194249,-2.2171197,1000.3631,1,2
38.96,-8.029556,4.067286,-1.8478373,1000.3653,1,2
39.0,-7.618500999999997,4.3389796999999986,-2.2597315,1000.42316,1,2
39.04,-8.201647,4.639273,-1.3649299,1000.3958,1,2
39.08,-8.211217999999999,4.3580465,-1.6537297,1000.3551,1,2
39.12,-9.396619,4.6917057,-1.6537304,1000.3757,1,2
39.16,-9.210216,5.4400554,-1.7720915000000002,1000.32007,1,2
39.2,-9.105068,5.9262447,-2.2928767000000003,1000.3652,1,2
39.24,-9.410988,6.0883080000000005,-2.2881432,1000.3174,1,2
39.28,-8.445478999999999,5.98821,-2.2265973,1000.3677,1,2
39.32,-6.872934,5.4829555,-2.8846803,1000.5042,1,2
39.36,-7.059353999999999,4.71554,-3.2113552000000003,1000.48114,1,2
39.4,-8.775314999999999,3.461936,-2.950964,1000.36273,1,2
39.44,-8.536333,3.6811981,-2.605353,1000.26715,1,2
39.48,-6.767817999999999,4.4819794,-2.7710583,1000.3,1,2
39.52,-6.882538,4.296084,-2.8231373,1000.3199,1,2
39.56,-8.297376,3.1235116,-3.3912672999999995,1000.34753,1,2
39.6,-8.354743,3.252209,-2.7947333,1000.33014,1,2
39.64,-7.604324,4.143555,-2.4349194,1000.3526,1,2
39.68,-7.5135174,4.5582457000000005,-2.9272982999999995,1000.3677,1,2
39.72,-8.684579,4.4772143,-2.9793777,1000.3296,1,2
39.76,-8.263966,5.001536,-2.6527047,1000.36,1,2
39.8,-9.5545225,5.4066934999999985,-2.5627518,1000.4131,1,2
39.84,-10.238046,5.6259555999999975,-2.392314,1000.42303,1,2
39.88,-8.909269,5.7641860000000005,-1.6016695,1000.40076,1,2
39.92,-8.655948,5.5878234,-0.943588,1000.42596,1,2
39.96,-8.923630000000003,4.524882,-0.0771931,1000.41815,1,2
40.0,-8.550815,5.168367,0.17846383,1000.3902,1,2
40.04,-8.340513,5.149301,0.14058773,1000.37787,1,2
40.08,-8.058513,5.1969666,0.13585262,1000.3423,1,2
40.12,-7.7956367,5.4352946,-0.04879032,1000.3296,1,2
40.16,-6.9448414000000005,5.420995,0.29682034,1000.36273,1,2
40.2,-6.5959252999999975,5.4257617,0.4625236,1000.3677,1,2
40.24,-7.064356299999999,6.2074776,0.21633361,1000.3677,1,2
40.28,-7.3320327,6.1884117,-0.0014497004,1000.38544,1,2
40.32,-8.517436,5.9548507000000015,-0.96726936,1000.3425,1,2
40.36,-8.445749000000001,6.5030055,-1.4028353999999998,1000.3022,1,2
40.4,-8.713428500000001,6.5077715,-1.5401341999999998,1000.3653,1,2
40.44,-9.344369,6.121681,-2.0041065,1000.3904,1,2
40.48,-8.622632000000001,5.931019,-2.3875945,1000.3752,1,2
40.52,-8.1112,5.673625,-2.666925,1000.3902,1,2
40.56,-7.571095,5.201736,-2.818427,1000.3752,1,2
40.6,-8.039524,4.7489133,-2.6953332000000003,1000.3703,1,2
40.64,-8.178148,3.566808,-2.3544571,1000.33734,1,2
40.68,-7.661939999999999,4.7346144,-2.2929108,1000.3448,1,2
40.72,-7.757548,5.3638,-2.2076926,1000.33484,1,2
40.76,-8.472969,5.4972258,-2.515287,1000.3474,1,2
40.8,-8.272203,5.845184,-2.4442694,1000.40015,1,2
40.84,-7.818111,6.2598743,-1.9140155,1000.35205,1,2
40.88,-7.3257747,5.7307863,-2.0418427,1000.3902,1,2
40.92,-7.6221112999999985,5.40666,-2.117592,1000.36255,1,2
40.96,-7.230150999999997,5.196931,-2.2359507,1000.3271,1,2
41.0,-7.081962599999999,5.4686246,-2.1507301,1000.3399,1,2
41.04,-7.8037004,5.0968323,-2.4963405,1000.3472,1,2
41.08,-7.1775335999999985,5.3542266,-2.3969169,1000.36755,1,2
41.12,-6.436645,5.2112292999999985,-2.628901,1000.3902,1,2
41.16,-7.134483,5.5067554,-2.9413705,1000.42804,1,2
41.2,-8.405901,4.767939,-2.794603,1000.3523,1,2
41.24,-7.770172599999999,4.334182,-1.3411394,1000.3095,1,2
41.28,-9.165858,5.8594800000000005,-1.7340936999999998,1000.3269,1,2
41.32,-9.925832000000002,6.4124,-1.7340922,1000.3398,1,2
41.36,-8.883824,6.6507277,-1.4216205,1000.37756,1,2
41.4,-7.9230703999999985,6.6173615,-1.5257761,1000.4354,1,2
41.44,-7.3160205,6.4743643,-1.0144591,1000.42285,1,2
41.48,-7.186948299999999,6.221736,-0.7493309,1000.31177,1,2
41.52,-7.464162299999999,6.317067,-0.9245025,1000.28687,1,2
41.56,-7.808294999999997,6.455297,-1.0854712,1000.3095,1,2
41.6,-7.669665299999999,6.4648294,-0.9055623,1000.2841,1,2
41.64,-7.1486526,6.760356,-0.96710825,1000.33734,1,2
41.68,-7.0052447,6.5601597000000025,-1.0807328,1000.33966,1,2
41.72,-6.699327499999999,6.4266963,-1.1186072,1000.3648,1,2
41.76,-6.6187344,6.0644540000000005,-1.0997301000000002,1000.3723,1,2
41.8,-7.565148,6.0978203,-1.061856,1000.34973,1,2
41.84,-7.373968,6.7699046,-1.2891085,1000.3623,1,2
41.88,-7.3500809999999985,6.6078424,-0.90088856,1000.3851,1,2
41.92,-7.780277000000001,6.9176693,-1.6725978,1000.44037,1,2
41.96,-8.272608,6.5792437,-2.3827596,1000.43787,1,2
42.0,-8.549849499999999,6.707941,-3.1592033,1000.37726,1,2
42.04,-7.135036,7.151232,-2.9934995,1000.3167,1,2
42.08,-7.163732,6.631676700000001,-3.3485816,1000.322,1,2
42.12,-6.857834,6.355217,-3.2633631000000003,1000.3522,1,2
42.16,-6.9916835000000015,5.764164,-3.8030868,1000.3368,1,2
42.2,-7.9046383,4.991982,-3.840963,1000.2789,1,2
42.24,-7.5079265,5.249377,-3.5805721,1000.2766,1,2
42.28,-6.934363,5.049181,-3.5616355000000004,1000.289,1,2
42.32,-6.7909822,4.8251534000000005,-3.7604816,1000.35724,1,2
42.36,-6.9965253,4.84422,-3.869374,1000.3873,1,2
42.4,-6.9248414,5.2160115,-3.225496,1000.3598,1,2
42.44,-7.5510073,4.4867287000000005,-3.16395,1000.3141,1,2
42.48,-8.918042999999997,4.0529730000000015,-4.456444,1000.2814,1,2
42.52,-8.722083999999999,4.2579346,-2.9461699,1000.2713,1,2
42.56,-7.8617325,4.3818655,-2.444324,1000.28143,1,2
42.6,-8.158093,4.2579355,-2.9414375,1000.27386,1,2
42.64,-8.344514,4.0911064,-2.6147645,1000.3066,1,2
42.68,-8.296731,4.010075,-2.9603775000000003,1000.36444,0,0
42.72,-8.650451,4.062508,-2.8467531000000004,1000.33167,0,0
42.76,-8.7986355,3.943344,-2.7757382,1000.3015,0,0
42.8,-8.382806,4.1864386,-2.842021,1000.3143,0,0
42.84,-8.268104,3.8718462,-3.0456014,1000.35187,0,0
42.88,-8.507105000000001,3.72885,-2.9035702000000003,1000.3218,0,0
42.92,-8.201211,3.8241818,-2.8704305,1000.3014,0,0
42.96,-8.392414,3.77175,-2.860963,1000.3115,0,0
43.0,-8.578839,3.8194153,-2.988793,1000.3218,0,0
43.04,-8.440238,4.2007400000000015,-2.8704338,1000.3092,0,0
43.08,-8.315975,4.0053115,-2.6999967,1000.3392,0,0
43.12,-8.25863,3.9814794,-2.79942,1000.3293,0,0
43.16,-8.550207,3.857549,-3.0219383,1000.3569,0,0
43.2,-8.359032000000001,4.2150416,-2.643187,1000.35693,0,0
43.24,-8.397283,4.3342056,-2.8136268,1000.3495,0,0
43.28,-8.425974,4.1101775,-2.7568154,1000.3671,0,0
43.32,-8.593278999999999,3.8861494,-2.7284098,1000.33185,0,0
43.36,-8.287384,3.9862478,-2.6621292000000003,1000.3495,0,0
43.4,-8.287397,4.0148473,-2.9130542,1000.329,0,0
43.44,-8.220492,4.267475,-2.747351,1000.3188,0,0
43.48,-8.320877000000001,4.2770085,-2.7662895,1000.3241,0,0
43.52,-8.233664,4.296046,-2.6052117000000004,1000.3316,0,0
43.56,-8.262327,4.133982,-2.8608685,1000.3339,0,0
43.6,-8.391369000000001,4.124449299999998,-2.7093663,1000.34656,0,0
43.64,-8.453492,4.005285,-2.5815360000000003,1000.32654,0,0
43.68,-8.372221000000001,3.9433196,-2.6525507,1000.329,0,0
43.72,-8.821507,3.9099529,-2.8608634,1000.3364,0,0
43.76,-7.7699365999999985,4.6583014,-3.0549726,1000.3088,0,0
43.8,-8.109289,4.2531443,-2.8229854,1000.2834,0,0
43.84,-8.754551,4.0767813,-3.0549703,1000.3315,0,0
43.88,-8.472525,4.033882,-2.8939989,1000.31104,0,0
43.92,-8.53943,4.1768785,-2.8419194,1000.3037,0,0
43.96,-8.109235,4.1244464,-3.1023104,1000.2382,0,0
44.0,-8.936124000000003,4.0910797,-2.766166,1000.2559,0,0
44.04,-8.357752,4.138745,-2.993416,1000.2632,0,0
44.08,-8.854837,4.262675,-2.9744773,1000.28864,0,0
44.12,-8.104395,4.2674413,-2.5815203,1000.2961,0,0
44.16,-7.9992247,4.467636,-2.7898328,1000.30096,0,0
44.2,-8.113926,4.391371,-2.9792078,1000.3139,0,0
44.24,-7.7458663,4.620166,-2.6809387000000005,1000.3011,0,0
44.28,-7.822328999999999,4.5677333,-2.2927162999999995,1000.3061,0,0
44.32,-8.223819,4.5867987,-2.6714675,1000.3315,0,0
44.36,-8.008714,4.5963316,-2.7898264,1000.32367,0,0
44.4,-7.7601533,4.6916623,-2.9223886,1000.3061,0,0
44.44,-8.032583,4.701195200000001,-2.335321,1000.3464,0,0
44.48,-8.228541,4.663062,-2.5246956000000003,1000.359,0,0
44.52,-8.296296,4.4056883,-2.6762733,1000.3388,0,0
44.56,-8.439706,4.3675566,-2.6383994,1000.34894,0,0
44.6,-8.908151,4.343724,-2.7709650000000003,1000.32874,0,0
44.64,-8.831686999999997,4.229327,-2.695216,1000.3363,0,0
44.68,-8.511462,4.3913910000000005,-2.4916384,1000.33636,0,0
44.72,-8.492358,4.1292305,-1.9235113,1000.35895,0,0
44.76,-8.109996,4.124464499999998,-2.0466077,1000.3715,0,0
44.8,-8.478061,3.9290364,-2.28333,1000.35895,0,0
44.84,-8.626248,4.067267,-2.2454557,1000.364,0,0
44.88,-8.850924000000003,4.296062,-2.070285,1000.35364,0,0
44.92,-8.310824,4.496258,-2.0702868000000003,1000.36615,0,0
44.96,-8.420778,4.572523,-1.9992723,1000.36115,0,0
45.0,-8.167468,4.5772900000000005,-2.1649783,1000.3791,0,0
45.04,-8.19138,4.5105586,-2.3164806,1000.33856,0,0
45.08,-8.406496,4.2531652,-2.392233,1000.3589,0,0
45.12,-8.779335000000001,4.095869,-2.54847,1000.3461,0,0
45.16,-8.344395,4.286532,-2.444315,1000.36127,0,0
45.2,-8.086306,4.520094,-2.5105984,1000.35645,0,0
45.24,-8.287074,4.610659,-2.6810386000000004,1000.36127,0,0
45.28,-8.291872,4.615426,-2.3448975,1000.3512,0,0
45.32,-8.454405,4.434297,-2.2218049,1000.36865,0,0
45.36,-8.454423,4.481963,-2.1318529,1000.3688,0,0
45.4,-8.143756,4.491497,-2.2454803,1000.3638,0,0
45.44,-8.559617999999999,4.548696,-2.2123413,1000.35364,0,0
45.48,-8.296747,4.601128599999999,-2.2738903,1000.3586,0,0
45.52,-8.520133,4.572498,-2.4631503,1000.3487,0,0
45.56,-8.319348,4.5963306,-2.1743490000000003,1000.3636,0,0
45.6,-8.400568,4.6582940000000015,-2.17908,1000.36127,0,0
45.64,-8.319279,4.577262,-1.861872,1000.38116,0,0
45.68,-8.180641,4.5772614,-2.2453566,1000.35596,0,0
45.72,-8.228407,4.701191400000001,-2.448933,1000.351,0,0
45.76,-8.405222,4.4628625,-2.1695998,1000.35846,0,0
45.8,-8.223557000000001,4.39613,-2.2216752,1000.35345,0,0
45.84,-8.280885000000001,4.405662,-2.3873765,1000.34576,0,0
45.88,-8.553303,4.4199614999999985,-2.3731704,1000.34076,0,0
45.92,-8.223464,4.7488527000000005,-2.458387,1000.3636,0,0
45.96,-7.9892235,4.8155839999999985,-2.4252434,1000.3283,0,0
46.0,-8.199505,4.734552,-2.714039,1000.3206,0,0
46.04,-7.989161500000002,4.6868854,-2.2500644,1000.3584,0,0
46.08,-7.8887550000000015,4.4628562999999986,-2.8087215,1000.3609,0,0
46.12,-8.600913,4.305559,-2.7945154,1000.3382,0,0
46.16,-8.610443,4.448555000000002,-3.09278,1000.3357,0,0
46.2,-8.271044999999999,4.558185,-3.0785737,1000.37115,0,0
46.24,-8.055924000000001,4.586784,-2.420489,1000.37866,0,0
46.28,-8.34746,4.091061,-2.0843434,1000.38104,0,0
46.32,-8.605538000000001,4.4819182999999985,-1.880761,1000.37354,0,0
46.36,-8.548149,4.372287,-1.9801806,1000.3659,0,0
46.4,-8.385603999999999,4.643979,-2.3873367,1000.3611,0,0
46.44,-8.242180000000001,4.3675184,-2.4630842,1000.33325,0,0
46.48,-8.624533,4.481915,-2.3352525,1000.36084,0,0
46.52,-8.061226,4.3484690000000015,-2.292708,1000.3533,0,0
46.56,-8.218957000000001,4.2769704000000015,-2.321114,1000.3661,0,0
46.6,-8.567881,4.024343,-2.685663,1000.37836,0,0
46.64,-8.558318,4.1101410000000005,-2.1080656,1000.34814,0,0
46.68,-8.725609,3.9623778,-2.2879725,1000.35065,0,0
46.72,-8.931137,4.019576,-1.8666102,1000.3432,0,0
46.76,-8.6108885,4.019576,-1.8618758,1000.32025,0,0
46.8,-8.505730999999999,4.605862,-2.198018,1000.3432,0,0
46.84,-8.195041,4.5486636,-2.5720358,1000.343,0,0
46.88,-8.214157,4.491465,-2.4631443,1000.3432,0,0
46.92,-8.668236,4.1864057,-2.2216895,1000.3432,0,0
46.96,-8.424464,4.2150044,-2.2169547,1000.35565,0,0
47.0,-8.586974,4.2245374,-2.3069081,1000.33295,0,0
47.04,-8.462696000000001,4.315102,-2.2074854,1000.36584,0,0
47.08,-8.309741,4.410433,-2.1838133,1000.3632,0,0
47.12,-8.515269,4.2912690000000016,-2.3637204,1000.3682,0,0
47.16,-8.586965,4.1816387000000015,-2.2264225,1000.37085,0,0
47.2,-8.357531,4.2102375,-2.3211102,1000.3405,0,0
47.24,-8.376648,4.1816387000000015,-2.2690315,1000.338,0,0
47.28,-8.73513,4.281736,-2.3163755,1000.33795,0,0
47.32,-8.333625,4.7107253,-2.0985928,1000.338,0,0
47.36,-8.180669,4.515297,-2.5057514,1000.37836,0,0
47.4,-8.787702000000001,4.138739,-2.3069057,1000.36066,0,0
47.44,-8.52003,4.0148087,-2.3353124,1000.3531,0,0
47.48,-8.563046,3.9909759,-2.1696076,1000.34546,0,0
47.52,-8.634352999999999,4.114897,-2.1932442,1000.3556,0,0
47.56,-8.533959,4.310325,-2.1222265,1000.386,0,0
47.6,-8.328412,4.434254599999999,-2.4157581,1000.36584,0,0
47.64,-8.581724000000001,4.1577945,-2.1790364,1000.34045,0,0
47.68,-8.4669895,4.1196613,-2.4962397000000003,1000.35803,0,0
47.72,-8.54823,4.0576954,-2.1979704,1000.3506,0,0
47.76,-8.495633,3.9957302,-2.3115947,1000.3405,0,0
47.8,-8.63901,4.014796,-2.2595148,1000.3354,0,0
47.84,-8.533837,3.9289978,-2.5293744,1000.3606,0,0
47.88,-8.615076,3.9718964,-2.325793,1000.3304,0,0
47.92,-8.57682,3.971896,-2.2121658,1000.32025,0,0
47.96,-8.701079,4.07676,-2.2926493,1000.3456,0,0
48.0,-8.5911255,3.971895,-2.2547722,1000.36066,0,0
48.04,-8.624568,4.00526,-2.3541932,1000.3606,0,0
48.08,-8.452475999999999,4.024326,-2.2689722000000003,1000.33795,0,0
48.12,-8.571954,3.8908622,-2.3447213,1000.3632,0,0
48.16,-8.672312,4.014792,-2.2452970000000003,1000.36334,0,0
48.2,-8.414185,4.296018599999999,-2.3778586,1000.3533,0,0
48.24,-8.481086,4.310318,-2.3257787,1000.3506,0,0
48.28,-8.514525,4.0672226,-2.38259,1000.3254,0,0
48.32,-8.433251,4.062456,-2.2926345,1000.3432,0,0
48.36,-8.504933,3.9957242,-2.2547580000000003,1000.35565,0,0
48.4,-8.648309,4.138719999999998,-2.3399756000000003,1000.36066,0,0
48.44,-8.117732,4.12442,-2.235817,1000.36835,0,0
48.48,-8.112935,4.172085,-2.2500186,1000.36584,0,0
48.52,-8.38989,3.8813186,-2.3210096,1000.3506,0,0
48.56,-8.982556,3.9909484,-2.321007,1000.3533,0,0
48.6,-8.729198,4.2388086,-2.4914432,1000.36334,0,0
48.64,-8.332449,4.453303,-2.216845,1000.3709,0,0
48.68,-8.036074000000001,4.296005999999998,-2.3162653,1000.3533,0,0
48.72,-7.945231,4.1148763,-2.2168400000000004,1000.35065,0,0
48.76,-8.480538000000001,3.7144847,-2.2121031,1000.36334,0,0
48.8,-8.700384,3.9480455,-2.3730705000000003,1000.371,0,0
48.84,-8.423127000000001,4.1720724,-2.3730679,1000.3456,0,0
48.88,-8.20801,4.3913335999999985,-2.401472,1000.37866,0,0
48.92,-7.98333,4.2054377,-2.3020468,1000.3485,0,0
48.96,-7.997642999999999,3.881311,-2.098465,1000.35834,0,0
49.0,-8.384780000000001,3.7859795,-2.1836815,1000.3533,0,0
49.04,-8.265255999999999,3.938508,-2.3209765,1000.37354,0,0
49.08,-8.217432,4.086271,-2.1694734,1000.3586,0,0
49.12,-8.183946,4.200667,-2.2925653,1000.38116,0,0
49.16,-7.911467599999999,4.1959,-2.1647336,1000.3432,0,0
49.2,-8.150433,3.9671054,-2.065309,1000.3686,0,0
49.24,-7.935312,3.8956058,-2.1505256,1000.3256,0,0
49.28,-8.097799,3.9289715,-2.3114932,1000.3737,0,0
49.32,-8.011735,3.8908384,-2.3683033,1000.3485,0,0
49.36,-7.9639087,4.010001,-2.2215343,1000.371,0,0
49.4,-7.906525,3.8956034,-2.330423,1000.3534,0,0
49.44,-7.973413000000001,3.9051359,-2.0463560000000003,1000.376,0,0
49.48,-7.896910000000001,3.8813024,-2.1883857000000004,1000.371,0,0
49.52,-7.916003,4.038598,-2.1457736,1000.33826,0,0
49.56,-8.011569,3.9146671,-2.235725,1000.376,0,0
49.6,-7.8490294999999985,4.1625266000000005,-2.2593944,1000.3986,0,0
49.64,-8.073652000000001,3.9527977,-2.2688608,1000.3734,0,0
49.68,-8.049726,4.038595,-2.1457636000000004,1000.37115,0,0
49.72,-7.8835087,4.043387999999998,-2.1884718,1000.37115,0,0
49.76,-7.7735806,4.0576878,-2.3068326,1000.38654,0,0
49.8,-7.9886813,3.83366,-2.1884732,1000.3509,0,0
49.84,-7.97913,4.019556,-2.4678037,1000.3734,0,0
49.88,-7.893101,3.9671245,-2.2973661,1000.40137,0,0
49.92,-7.792734599999997,3.9671247,-2.2310853,1000.3913,0,0
49.96,-7.8835588,3.919459,-2.2594924,1000.37616,0,0
50.0,-7.902686599999999,3.9814246,-2.250024,1000.4092,0,0
50.04,-8.046088000000001,3.8622606,-2.3115726000000003,1000.4039,0,0
50.08,-7.998298599999999,3.8717937,-2.2405572,1000.4165,0,0
50.12,-8.012646,3.8527281,-2.3021052,1000.39636,0,0
50.16,-7.921838,3.8431952,-2.3399808,1000.3991,0,0
50.2,-8.222974,3.78123,-2.4252012,1000.39404,0,0
50.24,-7.969653,3.8145964,-2.3068419,1000.4167,0,0
50.28,-7.9935603,3.957593,-2.3494523,1000.4041,0,0
50.32,-8.103503,3.8813286,-2.2547648,1000.3963,0,0
50.36,-8.007916999999999,4.0719910000000015,-2.339985,1000.41925,0,0
50.4,-8.070063000000001,4.038625,-2.3683922,1000.4394,0,0
50.44,-8.036612,4.0529246,-2.382596,1000.4393,0,0
50.48,-8.462023,3.800298,-2.3068461,1000.4419,0,0
50.52,-8.117885000000001,4.0290922999999985,-2.3589253,1000.4417,0,0
50.56,-8.089214,4.000493,-2.358926,1000.4469,0,0
50.6,-8.094002,4.0004935,-2.3210518,1000.4092,0,0
50.64,-8.466835000000001,3.8336642,-2.3494592,1000.42444,0,0
50.68,-8.328228999999999,3.9337623,-2.2737093,1000.42926,0,0
50.72,-8.415092999999999,3.9909809,-2.368473,1000.44965,0,0
50.76,-8.467709,4.1339784,-2.467899,1000.4293,0,0
50.8,-8.372152999999999,4.0291157,-2.3400738,1000.4695,0,0
50.84,-8.400872,3.843221,-2.3022025,1000.462,0,0
50.88,-8.506066,3.8479884,-2.4537067,1000.47217,0,0
50.92,-8.377052,4.076784,-2.288006,1000.4797,0,0
50.96,-8.530044,4.1578164,-2.4395108,1000.4873,0,0
51.0,-8.367571,4.105385299999999,-2.2027943,1000.48987,0,0
51.04,-8.64006,3.938557,-2.4111116000000004,1000.48975,0,0
51.08,-8.577964,3.9051921,-2.2359424,1000.5076,0,0
51.12,-8.654481,4.052956,-2.482135,1000.48224,0,0
51.16,-8.434648,4.2102532,-2.19334,1000.51495,0,0
51.2,-8.649776,4.148289,-2.4253292,1000.48236,0,0
51.24,-8.434728999999999,4.0243597,-2.259629,1000.49756,0,0
51.28,-8.582944,4.0100612999999985,-2.4537435000000003,1000.5099,0,0
51.32,-8.463486,4.0386615,-2.207558,1000.5174,0,0
51.36,-8.716857000000001,3.9576309,-2.491626,1000.5074,0,0
51.4,-8.57828,4.0767956,-2.4158788,1000.5199,0,0
51.44,-8.578319,4.138762,-2.3069909,1000.53033,1,3
51.48,-8.310692999999999,4.40569,-2.3732765,1000.5275,1,3
51.52,-8.454127,4.0672655,-2.2691232999999995,1000.5376,1,3
51.56,-8.654917999999999,3.8956707,-2.292799,1000.55554,1,3
51.6,-8.621501,4.029135,-2.4301004,1000.5578,1,3
51.64,-8.545063,4.0053034,-2.207587,1000.56036,1,3
51.68,-8.626361,4.0434364999999985,-2.3259509,1000.5452,1,3
51.72,-8.515241,4.038641,-2.2548265,1000.5401,1,3
51.76,-8.496115,4.072007,-2.3211074000000003,1000.57544,1,3
51.8,-8.591702,4.1006064,-2.2311532000000005,1000.5527,1,3
51.84,-8.586915,4.200703,-2.287965,1000.5829,1,3
51.88,-8.572569,4.1959367,-2.2832303,1000.59076,1,3
51.92,-8.754192999999999,3.9719088,-2.3637142000000004,1000.5807,1,3
51.96,-8.481736999999999,4.1196712999999985,-2.1743376,1000.5757,1,3
52.0,-8.653803,3.9719083,-2.2642908,1000.5958,1,3
52.04,-8.505622,3.9051764,-2.2122116000000003,1000.59045,1,3
52.08,-8.725485,3.9671414,-2.2879612000000003,1000.5807,1,3
52.12,-8.443469,4.186403,-2.1553972000000003,1000.62354,1,3
52.16,-8.72069,4.1053705,-2.264288,1000.6008,1,3
52.2,-8.672885,4.296033,-2.1506612,1000.60846,1,3
52.24,-8.543823,4.1292033,-2.3400369,1000.60846,1,3
52.28,-8.543816,4.0195727,-2.0701752,1000.61096,1,3
52.32,-8.701542,3.924241,-2.2500818,1000.61066,1,3
52.36,-8.414745,4.1959343,-2.235878,1000.6488,1,3
52.4,-8.682406,4.091069999999998,-2.2548149,1000.62616,1,3
52.44,-8.730198,4.2102337,-2.344768,1000.669,1,3
52.48,-8.419503,4.1387353,-2.1885319,1000.6513,1,3
52.52,-8.500752,4.086303,-2.3210945,1000.669,1,3
52.56,-8.4051485,4.1673339999999985,-2.1743274,1000.6664,1,3
52.6,-8.610673,4.2007,-2.354234,1000.6488,1,3
52.64,-8.529408,4.0291038,-2.292686,1000.6639,1,3
52.68,-8.610658,4.043403,-2.2595444,1000.65894,1,3
52.72,-8.648632000000001,4.0672297,-2.2926612,1000.67664,1,3
52.76,-8.538679,4.1673269999999984,-2.3068628,1000.684,1,3
52.8,-8.443064999999999,4.14826,-2.3210642000000004,1000.6967,1,3
52.84,-8.533863,4.157793,-2.3400002,1000.6915,1,3
52.88,-8.462149,4.0624614,-2.4299524,1000.6639,1,3
52.92,-8.653324000000001,3.9909625,-2.3163252,1000.717,1,3
52.96,-8.595948,4.052927,-2.3636675,1000.7117,1,3
53.0,-8.5576935,4.20069,-2.3968067000000004,1000.70917,1,3
53.04,-8.495538,4.2102227,-2.4441490000000003,1000.7143,1,3
53.08,-8.414266,4.0815253,-2.3021157000000003,1000.72455,1,3
53.12,-8.533741000000001,4.1768565,-2.3257859,1000.717,1,3
53.16,-8.672338499999999,4.01956,-2.425207,1000.72455,1,3
53.2,-8.672321,4.1005907,-2.4062676,1000.72705,1,3
53.24,-8.519349,4.1291895,-2.3305156000000005,1000.7523,1,3
53.28,-8.461974,4.148255000000002,-2.4109988,1000.684,1,3
53.32,-8.490636,3.9528258,-2.3731217,1000.7398,1,3
53.36,-8.500178,3.9528253,-2.3021045,1000.76514,1,3
53.4,-8.5718565,4.1387205,-2.4062598,1000.76733,1,3
53.44,-8.720013,4.229285,-2.5908997000000005,1000.79285,1,3
53.48,-8.567043,4.057688,-2.3399746,1000.7724,1,3
53.52,-8.237219999999999,4.076754,-2.3068322999999995,1000.7598,1,3
53.56,-8.662603,3.9194574,-2.463066,1000.74976,1,3
53.6,-8.476173,3.909924,-2.3210323,1000.7623,1,3
53.64,-8.686468,4.1577845,-2.5340788,1000.7724,1,3
53.68,-8.414000999999999,4.0529199999999985,-2.2594817000000003,1000.78503,1,3
53.72,-8.750015,4.048188,-2.5200047000000003,1000.7953,1,3
53.76,-8.487167999999999,4.2054852999999985,-2.3495703,1000.79285,1,3
53.8,-8.487207000000001,4.1244555,-2.3116984,1000.7876,1,3
53.84,-8.487245,4.048191,-2.325905,1000.8155,1,3
53.88,-8.525521000000001,3.9480944,-2.5389566,1000.8128,1,3
53.92,-8.391725,4.0672593,-2.2170208,1000.8028,1,3
53.96,-8.668989999999999,4.000528299999999,-2.4111347000000003,1000.8207,1,3
54.0,-8.664252000000001,4.1196933,-2.4348104,1000.8051,1,3
54.04,-8.387061,4.3198895,-2.4490173,1000.8127,1,3
54.08,-8.410999,4.04343,-2.3211918,1000.851,1,3
54.12,-8.434935000000001,3.9814663,-2.3685393,1000.8534,1,3
54.16,-8.477993,4.0148325,-2.5437157000000004,1000.8432,1,3
54.2,-8.635767999999999,4.024367,-2.4348283,1000.84827,1,3
54.24,-8.731401,4.1053989999999985,-2.496379,1000.85846,1,3
54.28,-8.4255295,4.2722297,-2.4727104,1000.8384,1,3
54.32,-8.396892999999999,4.334196,-2.2786036,1000.8785,1,3
54.36,-8.306116000000001,4.0100713,-2.3874986,1000.8686,1,3
54.4,-8.741114999999999,3.8861413,-2.3780330000000003,1000.88104,1,3
54.44,-8.483044999999999,4.134003,-2.4348495,1000.88873,1,3
54.48,-8.454405,4.3056,-2.4869316,1000.8709,1,3
54.52,-8.416205999999999,4.1483050000000015,-2.3827782,1000.8657,1,3
54.56,-8.6026535,4.0672739999999985,-2.4680004,1000.8432,1,3
54.6,-8.444961,4.0768085,-2.1839402000000003,1000.9011,1,3
54.64,-8.411539,4.1816735000000005,-2.3827887000000003,1000.8985,1,3
54.68,-8.473716,4.262706,-2.3212447,1000.9138,1,3
54.72,-8.601686,4.138749,-2.373224,1000.9239,1,3
54.76,-8.596902,4.2054800000000006,-2.321145,1000.9341,1,3
54.8,-8.420042,4.0529504,-2.2974727,1000.8961,1,3
54.84,-8.616010000000001,3.9671528,-2.3637538,1000.9289,1,3
54.88,-8.506069,4.0529504,-2.359019,1000.9239,1,3
54.92,-8.544302,4.21978,-2.3258777000000004,1000.92645,1,3
54.96,-8.443922,4.176881,-2.2453923,1000.9138,1,3
55.0,-8.558632000000001,4.267445,-2.316408,1000.9365,1,3
55.04,-8.486931,4.086316,-2.3637514,1000.95154,1,3
55.08,-8.520385000000001,4.272211,-2.3732197,1000.94653,1,3
55.12,-8.453462,3.9909842,-2.3211408,1000.9493,1,3
55.16,-8.491695,4.1196814,-2.2690618,1000.9491,1,3
55.2,-8.467792,4.1435137000000015,-2.4347658,1000.9543,1,3
55.24,-8.701997,4.1768800000000015,-2.3779523,1000.9845,1,3
55.28,-8.50602,4.124448,-2.1554348,1000.9596,1,3
55.32,-8.3674,4.129214,-2.1743722,1000.98193,1,3
55.36,-8.582487,4.2436113,-2.131762,1000.9995,1,3
55.4,-8.333932,4.3008094,-2.3495443,1000.9795,1,3
55.44,-8.544238,4.2579107,-2.53892,1000.9873,1,3
55.48,-8.587251,4.024349,-2.1743705,1001.002,1,3
55.52,-8.520328999999998,4.086314700000001,-2.4347622,1001.05005,1,3
55.56,-8.482085000000001,4.2388434,-2.2643232,1001.035,1,3
55.6,-8.439062,4.215011,-2.4584334,1000.992,1,3
55.64,-8.324342999999999,4.224544,-2.3590102,1001.00726,1,3
55.68,-8.644584,4.0958467,-2.0702112,1000.98694,1,3
55.72,-8.577598,4.0386467,-2.576786,1000.9995,1,3
55.76,-8.286021,4.1816435,-2.4016125,1001.0324,1,3
55.8,-9.036444,3.233098,-1.81928,1001.03015,1,3
55.84,-8.596694,3.9480817,-2.297454,1001.035,1,3
55.88,-8.663604,4.1816425000000015,-2.6904092,1001.035,1,3
55.92,-8.472404,4.324639,-2.3447967,1001.03015,1,3
55.96,-8.1425905,4.5629663,-2.5862508,1001.0477,1,3
56.0,-8.247739,4.4771686,-2.5483751,1001.0628,1,3
56.04,-8.625336,4.1435094,-2.3447948,1001.09045,1,3
56.08,-8.33854,4.2388396,-2.3258564,1001.0956,1,3
56.12,-8.582302,4.1578089999999985,-2.4536848,1001.06537,1,3
56.16,-8.367204,4.3103385,-2.3874025000000003,1001.08295,1,3
56.2,-8.806939,4.238839,-2.4915586,1001.12823,1,3
56.24,-8.510582000000001,4.396136,-2.4158072,1001.1108,1,3
56.28,-8.701768,4.234073,-2.538901,1001.1383,1,3
56.32,-8.539247,4.3389370000000005,-2.34479,1001.1182,1,3
56.36,-8.548799,4.367536,-2.49629,1001.1461,1,3
56.4,-8.83558,4.2912703,-2.4726174,1001.1485,1,3
56.44,-8.601361,4.276971,-2.4584138,1001.13367,1,3
56.48,-8.782986,4.391368,-2.3921313,1001.12354,1,3
56.52,-8.48663,4.59633,-2.47735,1001.13367,1,3
56.56,-8.849889,4.377068,-2.5815063,1001.15375,1,3
56.6,-8.725607,4.3580017,-2.354254,1001.16144,1,3
56.64,-8.95025,4.3198690000000015,-2.4347382,1001.164,1,3
56.68,-8.883326,4.2483705999999986,-2.5767696,1001.18646,1,3
56.72,-8.821373,4.4485703,-2.4252858,1001.1638,1,3
56.76,-9.003006,4.281741,-2.4205513,1001.17896,1,3
56.8,-8.89785,4.4390373,-2.2785192000000003,1001.2043,1,3
56.84,-9.0938225,4.2674413,-2.4726298,1001.2043,1,3
56.88,-8.959987,4.4914694000000015,-2.477364,1001.2194,1,3
56.92,-9.0938225,4.377072,-2.4631608,1001.222,1,3
56.96,-8.964767,4.6058664,-2.3305974,1001.2044,1,3
57.0,-8.945647,4.6582985,-2.4678953,1001.2044,1,3
57.04,-8.921749,4.5582013,-2.3684728,1001.212,1,3
57.08,-9.022124,4.377072,-2.3258631000000003,1001.2069,1,3
57.12,-9.098601,4.5010023,-2.3874104,1001.217,1,3
57.16,-9.155959,4.3627725,-2.2974567,1001.2372,1,3
57.2,-9.003006,4.5963335,-2.3684728,1001.2018,1,3
57.24,-8.916969,4.6773653,-2.3211286,1001.2167,1,3
57.28,-9.122501,4.6392326,-2.501036,1001.2322,1,3
57.32,-9.012566,4.3866053,-2.4489577,1001.2443,1,3
57.36,-9.165519,4.3389397,-2.4868329,1001.2372,1,3
57.4,-9.046024,4.348472599999999,-2.4158168,1001.2523,1,3
57.44,-9.036464,4.5057693,-2.5483801,1001.24225,1,3
57.48,-8.869172,4.5105357,-2.5341768,1001.262,1,3
57.52,-9.261115,4.405671,-2.4252858,1001.2544,1,3
57.56,-8.8596115,4.5343684999999985,-2.3684728,1001.2443,1,3
57.6,-9.165519,4.343706,-2.4726298,1001.2448,1,3
57.64,-9.12728,4.2674413,-2.3779416,1001.2221,1,3
57.68,-9.39495,4.281741,-2.4442232,1001.23193,1,3
57.72,-9.046661,4.4962516,-2.5152977,1001.25714,1,3
57.76,-8.850716,4.7107472,-2.4868937,1001.2498,1,3
57.8,-8.63565,4.5582185,-2.2833166,1001.2498,1,3
57.84,-8.908127,4.21026,-2.3732727,1001.2696,0,0
57.88,-8.774317,4.119696,-2.2833214,1001.2425,0,0
57.92,-8.908173,4.1339964999999985,-2.382746,1001.2573,0,0
57.96,-8.836507000000003,4.138764,-2.1460285,1001.2775,0,0
58.0,-8.798286000000003,4.153064,-2.3496096,1001.2677,0,0
58.04,-8.917809,4.3866260000000015,-2.3212054,1001.24725,0,0
58.08,-8.545014,4.491491000000001,-2.3827555,1001.2599,0,0
58.12,-8.664533,4.243630400000002,-2.1981158,1001.2347,0,0
58.16,-8.698016,4.0625024,-2.3022752,1001.2548,0,0
58.2,-8.712375,4.1340010000000005,-2.2880738,1001.24963,0,0
58.24,-8.698061000000001,4.1626005,-2.4348426,1001.2778,0,0
58.28,-8.84148,4.3294305999999985,-2.3259535,1001.26996,0,0
58.32,-8.497356,4.448595,-2.2975492,1001.28284,0,0
58.36,-8.397013000000001,4.338965,-2.378037,1001.2297,0,0
58.4,-8.521316,4.0529723,-2.2644138,1001.2702,0,0
58.44,-8.674281,3.9385755,-2.3449,1001.2574,0,0
58.48,-8.669532,4.0958724,-2.3306992,1001.26746,0,0
58.52,-8.755597,4.272236,-2.378046,1001.2272,0,0
58.56,-8.344555,4.329435,-2.2880943,1001.24475,0,0
58.6,-8.554896000000001,4.243638,-2.1223931,1001.26514,0,0
58.64,-8.4641,4.386635299999999,-2.1886764,1001.275,0,0
58.68,-8.511928,4.4057016,-2.2975705,1001.245,0,0
58.72,-8.463703,4.5391545,-2.4300947,1001.2599,0,0
58.76,-8.645344,4.1959634,-2.3969545,1001.23975,0,0
58.8,-8.697928,4.162597,-2.1697037,1001.2574,0,0
58.84,-8.554542,4.367559,-2.4395657,1001.2523,0,0
58.88,-8.406376,4.515323,-2.3685503,1001.2624,0,0
58.92,-8.320346,4.4914904,-2.5058484,1001.26514,0,0
58.96,-8.248657000000001,4.248396400000002,-2.2501915,1001.2549,0,0
59.0,-8.554571000000001,4.1768985,-2.3401456,1001.25507,0,0
59.04,-8.56414,4.2293305,-2.4443035,1001.2702,0,0
59.08,-8.53547,4.434292299999999,-2.4679763,1001.25256,0,0
59.12,-8.315605,4.3818603,-2.3827574,1001.2702,0,0
59.16,-8.463786,4.2626967,-2.2691326000000003,1001.26013,0,0
59.2,-8.387317999999999,4.219798,-2.5247912,1001.26495,0,0
59.24,-8.540279,4.191199,-2.3922286,1001.2977,0,0
59.28,-8.420792,4.358028400000001,-2.4395735,1001.26495,0,0
59.32,-8.468595500000001,4.30083,-2.4916523,1001.2524,0,0
59.36,-8.325209,4.3484955,-2.4016993,1001.2727,0,0
59.4,-8.678922,4.2102656,-2.505857,1001.3027,0,0
59.44,-8.291763000000001,4.3151297999999985,-2.406435,1001.25464,0,0
59.48,-8.678938,4.138768,-2.444311,1001.2697,0,0
59.52,-8.200966000000001,4.3770957,-2.2880764,1001.2725,0,0
59.56,-8.325246,4.410462,-2.5484693,1001.29034,0,0
59.6,-8.40651,4.138768700000001,-2.2786088,1001.2778,0,0
59.64,-8.583371000000001,4.1340017,-2.4916577,1001.2548,0,0
59.68,-8.468662,4.2436333,-2.2217972,1001.23193,0,0
59.72,-8.507100999999999,4.2484045,-2.3875198,1001.24475,0,0
59.76,-8.540574000000001,4.386635299999999,-2.269161,1001.2702,0,0
59.8,-8.349393,4.3246699999999985,-2.3259747,1001.26495,0,0
59.84,-8.41155,4.2341056,-2.2975702,1001.25964,0,0
59.88,-8.569301,4.043443700000001,-2.2644307999999995,1001.2573,0,0
59.92,-8.621891,4.1721416,-2.368589,1001.2979,0,0
59.96,-8.301662,4.2722397,-2.3212466,1001.2848,0,0
60.0,-8.516766,4.234107,-2.2833724,1001.2926,0,0
60.04,-8.468985,4.162609,-2.307046,1001.2498,0,0
60.08,-8.507236,4.30084,-2.3733287,1001.23206,0,0
60.12,-8.550267999999999,4.338972599999999,-2.3449237000000003,1001.28,0,0
60.16,-8.330411999999999,4.4200040000000005,-2.2360337,1001.2599,0,0
60.2,-8.535960000000001,4.2293425,-2.236035,1001.2696,0,0
60.24,-8.526418,4.1721444,-2.4301474,1001.26746,0,0
60.28,-8.445172999999999,4.191211,-2.2691789,1001.2544,0,0
60.32,-8.483427,4.1769120000000015,-2.19343,1001.2848,0,0
60.36,-8.512119,4.1483120000000016,-2.2644472,1001.2773,0,0
60.4,-8.430879,4.353275,-2.3638709,1001.2599,0,0
60.44,-8.593406,4.224578,-2.3544037,1001.28,0,0
60.48,-8.445249,4.1673803,-2.2076385,1001.2822,0,0
60.52,-8.612556,4.224579,-2.1697645,1001.2774,0,0
60.56,-8.464396,4.377109,-2.2975948,1001.2822,0,0
60.6,-8.617369,4.191214,-2.1650329,1001.2775,0,0
60.64,-8.478767,4.2150474,-2.2739255000000003,1001.24725,0,0
60.68,-8.5600395,4.076817,-2.2313175,1001.2649,0,0
60.72,-8.593064,4.0911064,-2.1602616,1001.2876,0,0
60.76,-8.306273,4.4867300000000006,-2.2454808,1001.28503,0,0
60.8,-8.454445,4.262702,-2.2454805,1001.25464,0,0
60.84,-8.607396000000001,4.138772,-2.2975588,1001.2368,0,0
60.88,-8.607393,4.062507,-2.302293,1001.2798,0,0
60.92,-8.411419,4.1864367,-2.1129165000000003,1001.2445,0,0
60.96,-8.363617999999999,4.2293363,-2.3259645,1001.26465,0,0
61.0,-8.521351,4.2817680000000005,-2.112916,1001.2647,0,0
61.04,-8.339715,4.3103669999999985,-2.3591046,1001.2925,0,0
61.08,-8.645617999999999,4.2245693,-2.3354325,1001.2646,0,0
61.12,-8.363608000000001,4.19597,-1.9803519,1001.2697,0,0
61.16,-8.631275,4.3342004,-2.1697278,1001.2849,0,0
61.2,-8.540457,4.2341022000000015,-2.1271183,1001.3076,0,0
61.24,-8.483096000000002,4.2722344,-2.1886652,1001.24945,0,0
61.28,-8.760323,4.1673703,-2.1034458,1001.2797,0,0
61.32,-8.51655,4.329433,-2.1129142999999995,1001.2797,0,0
61.36,-8.425732,4.386632,-2.179196,1001.2847,0,0
61.4,-8.435286999999999,4.3056,-2.1697264,1001.26715,0,0
61.44,-8.392267,4.1816697,-2.174461,1001.2646,0,0
61.48,-8.607356,4.134004,-2.273883,1001.2646,0,0
61.52,-8.549996,4.172137,-2.1649914,1001.2744,0,0
61.56,-8.430499000000001,4.4295300000000015,-2.1697257000000003,1001.2467,0,0
61.6,-8.626468,4.2913,-2.2360072,1001.2442,0,0
61.64,-8.487851,4.3055997,-2.236007,1001.24176,0,0
61.68,-8.416152,4.2436347,-2.0987089,1001.23676,0,0
61.72,-8.559031,4.234089,-2.183881,1001.2342,0,0
61.76,-8.343916,4.296053400000001,-2.254895,1001.2467,0,0
61.8,-8.578104,4.2865195,-2.2596273,1001.26685,0,0
61.84,-8.43469,4.3484845000000005,-2.1886096,1001.23676,0,0
61.88,-8.659315,4.24362,-2.3117015,1001.2794,0,0
61.92,-8.319927999999999,4.3818493,-2.1696675,1001.262,0,0
61.96,-8.582796,4.3294168,-2.2122755,1001.2821,0,0
62.0,-8.429818,4.191186,-2.027631,1001.25433,0,0
62.04,-8.635328,4.1101537000000015,-2.117583,1001.2544,0,0
62.08,-8.568389999999999,4.358014,-2.1885972,1001.2769,0,0
62.12,-8.42975,4.2531495,-2.3590333,1001.2493,0,0
62.16,-8.424947999999999,4.186417,-2.3400939,1001.234,0,0
62.2,-8.620896,4.033887,-2.3164196,1001.249,0,0
62.24,-8.530061,4.02912,-2.330621,1001.2593,0,0
62.28,-8.735565,4.0386524,-2.2643368,1001.25183,0,0
62.32,-8.711653,4.133982700000002,-2.278539,1001.26935,0,0
62.36,-8.290998,4.434275,-2.2359264,1001.2389,0,0
62.4,-8.678142999999999,4.3294106,-2.1554396,1001.2364,0,0
62.44,-8.615985,4.253145,-2.1175625,1001.239,0,0
62.48,-8.50603,4.2722106,-2.1412327,1001.2415,0,0
62.52,-8.615942,4.1625795,-2.4252949,1001.25146,0,0
62.56,-8.453407,4.2054777,-2.354277,1001.2415,0,0
62.6,-8.501182,4.1435122,-2.3163996,1001.23145,0,0
62.64,-8.329081,4.2960415,-2.1696303,1001.254,0,0
62.68,-8.3529625,4.310341,-2.3495362,1001.2592,0,0
62.72,-8.32474,4.3866167,-2.4584692,1001.2565,0,0
62.76,-8.554166,4.2769856,-2.3779838,1001.24646,0,0
62.8,-8.420328999999999,4.4009160000000005,-2.3732493,1001.25397,0,0
62.84,-8.372527,4.296052,-2.3306391,1001.2463,0,0
62.88,-8.44422,4.176888,-2.4111238,1001.244,0,0
62.92,-8.353399000000001,4.1625876,-2.4347954,1001.2364,0,0
62.96,-8.291259,4.272218700000002,-2.5768273,1001.2414,0,0
63.0,-8.444208,4.1673546,-2.3069656000000003,1001.2338,0,0
63.04,-8.472884,4.2388525,-2.4395290000000003,1001.2439,0,0
63.08,-8.3916235,4.3818493,-2.4726696,1001.2389,0,0
63.12,-8.487217,4.257919,-2.4821377,1001.2491,0,0
63.16,-8.5302305,4.2245526,-2.4489965,1001.26385,0,0
63.2,-8.339036,4.229319599999998,-2.4016523,1001.2288,0,0
63.24,-8.276895,4.2245526,-2.3022296000000004,1001.23865,0,0
63.28,-8.458523,4.1721206,-2.264354,1001.2466,0,0
63.32,-8.444179,4.315117,-2.4631984,1001.2437,0,0
63.36,-8.491974,4.229319,-2.3069627,1001.2638,0,0
63.4,-8.396374,4.1006217000000005,-2.4158537,1001.2386,0,0
63.44,-8.458508,4.3627825,-2.330634,1001.2386,0,0
63.48,-8.353349,4.3294163,-2.3211648,1001.2312,0,0
63.52,-8.539757,4.253151,-2.174398,1001.259,0,0
63.56,-8.539753,4.086322,-2.2974923,1001.23627,0,0
63.6,-8.702264,4.1387540000000005,-2.377977,1001.2386,0,0
63.64,-8.415472,4.167353,-2.269085,1001.25616,0,0
63.68,-8.405907000000001,4.167353,-2.2880225,1001.2438,0,0
63.72,-8.472725,4.105385299999999,-2.2738101000000004,1001.25616,0,0
63.76,-8.487055999999999,4.2912803,-2.2406685,1001.2336,0,0
63.8,-8.448811,4.2865143,-2.2501366000000003,1001.22833,0,0
63.84,-8.420124000000001,4.4056773,-2.3353553,1001.2336,0,0
63.88,-8.520493,4.2150154,-2.2974794,1001.24365,0,0
63.92,-8.510925,4.210248,-2.2880096,1001.24615,0,0
63.96,-8.5156975,4.148283,-2.1838524,1001.23334,0,0
64.0,-8.563488000000001,4.229315,-2.1933203,1001.21826,0,0
64.04,-8.396188,4.296046,-2.2453983,1001.27136,0,0
64.08,-8.510895,4.1578155,-2.1743815,1001.2311,0,0
64.12,-8.424851,4.2007146,-2.3022099,1001.27374,0,0
64.16,-8.601696,4.200714,-2.2595994,1001.23334,0,0
64.2,-8.496532,4.224547,-2.2122548,1001.21826,0,0
64.24,-8.439169,4.2054800000000006,-2.2643322999999995,1001.23584,0,0
64.28,-8.47262,4.2007136,-2.1696434,1001.251,0,0
64.32,-8.52519,4.1625809999999985,-2.344816,1001.2409,0,0
64.36,-8.367449,4.377075700000002,-2.2548614,1001.2334,0,0
64.4,-8.467817,4.262678,-2.3116739,1001.2409,0,0
64.44,-8.44869,4.3627763,-2.3258762,1001.2484,0,0
64.48,-8.472583,4.296044,-2.2974691000000003,1001.2436,0,0
64.52,-8.439117,4.367542299999998,-2.3495470000000003,1001.22833,0,0
64.56,-8.381751,4.296044,-2.2832646,1001.2562,0,0
64.6,-8.529917999999999,4.234078,-2.2548573,1001.2411,0,0
64.64,-8.439095,4.2817440000000015,-2.2122474,1001.2359,0,0
64.68,-8.439095,4.2817440000000015,-2.2122474,1001.2636,0,0
64.72,-8.439095,4.2817440000000015,-2.2122474,1001.2283,0,0
64.76,-8.439095,4.2817440000000015,-2.2122474,1001.2359,0,0
64.8,-8.439095,4.2817440000000015,-2.2122474,1001.2585,0,0
64.84,-8.391009,4.2483705999999986,-2.1838142999999994,1001.2133,0,0
64.88,-8.467472,4.2150044,-2.3258455,1001.2663,0,0
64.92,-8.395757000000001,4.2388363,-2.3258436,1001.23846,0,0
64.96,-8.443541999999999,4.329400499999998,-2.264295,1001.26855,0,0
65.0,-8.266671,4.467631,-2.3921223,1001.23083,0,0
65.04,-8.472187,4.3055673,-2.3353080000000004,1001.2813,0,0
65.08,-8.309655000000001,4.305567,-2.2784936,1001.23334,0,0
65.12,-8.524731,4.2722006,-2.2453513,1001.2585,0,0
65.16,-8.347862,4.310333,-2.3542414000000003,1001.251,0,0
65.2,-8.500803999999999,4.2865,-2.387381,1001.25116,0,0
65.24,-8.242673,4.472395,-2.292691,1001.2537,0,0
65.28,-8.314357000000001,4.3865967,-2.4299874,1001.246,0,0
65.32,-8.457730999999999,4.36753,-2.3447664,1001.2588,0,0
65.36,-8.4720545,4.3675294000000005,-2.3637025,1001.26874,0,0
65.4,-8.266507,4.505759200000001,-2.3258257,1001.23083,0,0
65.44,-8.38599,4.357995,-2.3589652,1001.25867,0,0
65.48,-8.299933,4.3770614000000005,-2.4394486,1001.25604,0,0
65.52,-8.443313999999999,4.195932,-2.2926807,1001.2436,0,0
65.56,-8.280782,4.534357,-2.3258197,1001.2612,0,0
65.6,-8.194733,4.5248230000000005,-2.27374,1001.251,0,0
65.64,-8.510178999999999,4.410425,-2.4015672,1001.2711,0,0
65.68,-8.366769,4.4104247,-2.3447528,1001.24854,0,0
65.72,-8.343363,4.4199705,-2.377939,1001.22076,0,0
65.76,-8.400724,4.319873,-2.3021889,1001.25604,0,0
65.8,-8.419847,4.2579080000000005,-2.3069236,1001.26886,0,0
65.84,-8.3099165,4.377071400000001,-2.321127,1001.23596,0,0
65.88,-8.419853,4.319873,-2.3684714,1001.251,0,0
65.92,-8.324264,4.377072,-2.3779407000000004,1001.2259,0,0
65.96,-8.515458,4.2960405,-2.2453775,1001.23596,0,0
66.0,-8.438984,4.400905000000002,-2.2927217,1001.25604,0,0
66.04,-8.372072,4.3198733,-2.2785192000000003,1001.25354,0,0
66.08,-8.23824,4.3675394,-2.3732076,1001.251,0,0
66.12,-8.553711,4.2483754000000005,-2.292723,1001.24347,0,0
66.16,-8.577613000000001,4.434271,-2.3211296000000003,1001.25616,0,0
66.2,-8.324289,4.5296025,-2.401615,1001.22833,0,0
66.24,-8.434227,4.4485707,-2.349537,1001.24854,0,0
66.28,-8.324296,4.3437066,-2.1980362,1001.2636,0,0
66.32,-8.415116000000001,4.2388425000000005,-2.363741,1001.25616,0,0
66.36,-8.539394,4.267442,-2.3448036,1001.22833,0,0
66.4,-8.381664,4.3484735,-2.25485,1001.2409,0,0
66.44,-8.295631,4.3627734,-2.13649,1001.25354,0,0
66.48,-8.405571,4.4009056,-2.2595851,1001.2462,0,0
66.52,-8.391236,4.3532405,-2.3637426,1001.23596,0,0
66.56,-8.491615,4.372307299999999,-2.3400707,1001.23834,0,0
66.6,-8.381683,4.3341746,-2.3590088,1001.23846,0,0
66.64,-8.348228,4.3913730000000015,-2.27379,1001.25604,0,0
66.68,-8.353012,4.362774,-2.3400717,1001.25116,0,0
66.72,-8.510812,4.2340784000000005,-2.420563,1001.2409,0,0
66.76,-8.372205000000001,4.296044,-2.3022034,1001.2663,0,0
66.8,-8.405669,4.4628735,-2.387423,1001.246,0,0
66.84,-8.267061,4.462874,-2.2880013,1001.23584,0,0
66.88,-8.534737,4.324643599999999,-2.515253,1001.22577,0,0
66.92,-8.448705,4.34371,-2.2785335,1001.23083,0,0
66.96,-8.439153999999998,4.291278,-2.4063632,1001.2636,0,0
67.0,-8.367463,4.248379,-2.2595973,1001.2283,0,0
67.04,-8.381808,4.2769785,-2.4063642000000005,1001.2331,0,0
67.08,-8.44873,4.434275,-2.4442399,1001.2535,0,0
67.12,-8.39616,4.262679,-2.3732245,1001.23083,0,0
67.16,-8.453524,4.319878,-2.3353498,1001.2434,0,0
67.2,-8.386614,4.2817464,-2.3921633,1001.22577,0,0
67.24,-8.463096,4.3008122,-2.3069446,1001.2409,0,0
67.28,-8.319709,4.319878599999999,-2.4963214,1001.2459,0,0
67.32,-8.42965,4.291279,-2.3732274,1001.2636,0,0
67.36,-8.439214,4.281747,-2.4158375,1001.23846,0,0
67.4,-8.424882,4.486708,-2.425307,1001.246,0,0
67.44,-8.295834,4.2388473,-2.3779633,1001.2409,0,0
67.48,-8.54917,4.119684,-2.401636,1001.25616,0,0
67.52,-8.372325,4.29128,-2.3779647,1001.2535,0,0
67.56,-8.310193,4.400911,-2.3542933,1001.25104,0,0
67.6,-8.448811,4.329413,-2.4726536,1001.2434,0,0
67.64,-8.42492,4.381844999999998,-2.420576,1001.23834,0,0
67.68,-8.31977,4.2722144,-2.4205766,1001.23834,0,0
67.72,-8.477257,4.2197765999999985,-2.3306002999999995,1001.2283,0,0
67.76,-8.467694,4.2579093,-2.2785215,1001.246,0,0
67.8,-8.381653,4.3437066,-2.430022,1001.256,0,0
67.84,-8.271714,4.3866057000000005,-2.221708,1001.24585,0,0
67.88,-8.568059,4.2769747,-2.354271,1001.24585,0,0
67.92,-8.386422,4.305574,-2.3495364,1001.2481,0,0
67.96,-8.56805,4.3532395,-2.3542702,1001.2786,0,0
68.0,-8.343396,4.429504,-2.3116603,1001.2481,0,0
68.04,-8.281255999999999,4.396138,-2.2406437,1001.22046,0,0
68.08,-8.677974,4.195943,-2.3353317,1001.23303,0,0
68.12,-8.429421000000001,4.3198733,-2.240643,1001.2434,0,0
68.16,-8.438977000000001,4.2388415,-2.3968782,1001.2784,0,0
68.2,-8.381615,4.4247375,-2.1980326,1001.23303,0,0
68.24,-8.46287,4.253141,-2.283252,1001.2255,0,0
68.28,-8.32903,4.415204,-2.221704,1001.24817,0,0
68.32,-8.496321,4.2769737,-2.3732047,1001.2481,0,0
68.36,-8.510655,4.2722073,-2.3021884,1001.2381,0,0
68.4,-8.30034,4.3532386,-2.3211255,1001.24084,0,0
68.44,-8.46763,4.324639,-2.2690468,1001.2381,0,0
68.48,-8.434168,4.315106,-2.264312,1001.25824,0,0
68.52,-8.443725,4.248374,-2.3779376,1001.2608,0,0
68.56,-8.357683,4.415203599999999,-2.235905,1001.2305,0,0
68.6,-8.524973,4.2388406,-2.3637335,1001.2127,0,0
68.64,-8.400694,4.3913703,-2.23117,1001.2457,0,0
68.68,-8.42459,4.338938,-2.3400607000000004,1001.24066,0,0
68.72,-8.434398,4.2483797,-2.3732245,1001.2381,0,0
68.76,-8.458304,4.229314,-2.373225,1001.25323,0,0
68.8,-8.410513,4.3294115,-2.3022099,1001.248,0,0
68.84,-8.448756,4.315112,-2.510524,1001.25073,0,0
68.88,-8.434422999999999,4.3627777000000005,-2.3353517000000004,1001.24066,0,0
68.92,-8.348393,4.296046,-2.5057907000000004,1001.23566,0,0
68.96,-8.463114,4.310346,-2.444244,1001.2178,0,0
69.0,-8.515699,4.0958510000000015,-2.4395103,1001.2256,0,0
69.04,-8.510925,4.1721163,-2.5010579,1001.2253,0,0
69.08,-8.281500999999999,4.3198795,-2.3400888,1001.24817,0,0
69.12,-8.47748,4.272214,-2.4537150000000003,1001.25574,0,0
69.16,-8.558742,4.1530504,-2.45845,1001.2404,0,0
69.2,-8.391454,4.2722144,-2.4489818,1001.2606,0,0
69.24,-8.358002,4.215016,-2.4016383,1001.26074,0,0
69.28,-8.606558,4.3055806,-2.4915924,1001.24066,0,0
69.32,-8.353235,4.429511,-2.4489834,1001.2583,0,0
69.36,-8.214625,4.4390445,-2.3921711,1001.2633,0,0
69.4,-8.396267,4.243616,-2.2738118,1001.23566,0,0
69.44,-8.491867999999998,4.2340827,-2.4773917,1001.27094,0,0
69.48,-8.530111999999999,4.276982,-2.4537203,1001.248,0,0
69.52,-8.415402,4.2722154,-2.4442515,1001.2277,0,0
69.56,-8.281577,4.391380000000002,-2.3400958,1001.2429,0,0
69.6,-8.372398,4.2245502,-2.3874404,1001.24066,0,0
69.64,-8.477559,4.1816516,-2.297487,1001.2454,0,0
69.68,-8.501465,4.3532476,-2.5010672,1001.2529,0,0
69.72,-8.3904,4.415185,-2.3778691000000003,1001.2404,0,0
69.76,-8.371238,4.2817206,-2.4299436,1001.2657,0,0
69.8,-8.423775,4.1768556000000014,-2.358924,1001.2555,0,0
69.84,-8.304239,4.2102203000000005,-2.51989,1001.2606,0,0
69.88,-8.34722,4.162554,-2.6619186000000004,1001.2782,0,0
69.92,-8.657869999999999,4.162553,-2.9081044,1001.23285,0,0
69.96,-8.710409,3.9289908,-3.0974767000000005,1001.2657,1,4
70.0,-8.29453,3.6668293,-3.24424,1001.2579,1,4
70.04,-7.945562400000001,3.528598,-3.182689,1001.23785,1,4
70.08,-7.840372,3.175872,-3.5282977,1001.23535,1,4
70.12,-8.5334015,3.132972,-3.2442293,1001.2227,1,4
70.16,-8.638527999999999,2.9947412,-3.111663,1001.2203,1,4
70.2,-8.781877,3.1186707,-2.7613132,1001.23004,1,4
70.24,-9.097317,3.4713953,-3.173204,1001.2606,1,4
70.28,-8.408976,3.5238261,-2.5861332000000004,1001.2402,1,4
70.32,-8.633583,3.704954,-2.2357833,1001.2302,1,4
70.36,-9.178446,3.2473636000000003,-1.577698,1001.2203,1,4
70.4,-8.628741,3.8956149,-1.5445546,1001.30817,1,4
70.44,-9.6467905,4.105342,-1.8333488,1001.3208,1,4
70.48,-8.642994999999999,4.5629300000000015,-1.5871563,1001.29315,1,4
70.52,-8.308368,4.391333,-1.6439655,1001.2602,1,4
70.56,-8.427827,4.1339383000000005,-1.0805681,1001.25775,1,4
70.6,-7.9976034,4.4914293,-0.7680935999999999,1001.25543,1,4
70.64,-8.982196,4.7011566,-1.0663568,1001.25775,1,4
70.68,-9.69435,5.3160415,-1.2983392,1001.26556,1,4
70.72,-9.064678,5.85946,-1.7955673,1001.3006,1,4
70.76,-9.122049,6.7508063,-1.8287092,1001.3131,1,4
70.8,-9.40407,6.1311545,-1.7624286,1001.3485,1,4
70.84,-8.424223,5.2445745000000015,-2.0370257,1001.32074,1,4
70.88,-7.616447999999999,4.949049,-2.638296,1001.2627,1,4
70.92,-7.2627570000000015,4.6106234000000015,-2.4110458,1001.2253,1,4
70.96,-6.9281836,4.815586,-2.5530791,1001.18713,1,4
71.0,-8.00365,4.696422,-2.737722,1001.2049,1,4
71.04,-8.223533999999999,4.362764,-1.8902646,1001.23535,1,4
71.08,-7.415758999999999,4.7869873,-1.8855312,1001.24756,1,4
71.12,-7.903314599999999,4.6916566,-1.7908447,1001.26276,1,4
71.16,-7.7073483,4.6153917,-1.800314,1001.2425,1,4
71.2,-7.8746551999999985,4.4914618,-1.7719089,1001.2425,1,4
71.24,-7.501846,5.2112126,-1.7056285,1001.23486,1,4
71.28,-8.730267,5.7689,-1.790849,1001.27014,1,4
71.32,-7.8173337,5.654503,-2.6430426,1001.3659,1,4
71.36,-8.142377,4.0910720000000005,-3.2301102000000004,1001.328,1,4
71.4,-9.925254,4.4866962,-3.3390026,1001.245,1,4
71.44,-10.603999,5.263646,-2.7756097,1001.1694,1,4
71.48,-8.959762,5.425709,-2.4205308,1001.19965,1,4
71.52,-7.912995,5.049151,-1.2842743,1001.1921,1,4
71.56,-7.4111285,4.601095,-1.1375091,1001.2677,1,4
71.6,-7.803089999999999,4.1101402999999985,-1.8145304,1001.27527,1,4
71.64,-7.6310262999999985,4.329402,-1.9376258,1001.2122,1,4
71.68,-7.874809700000001,4.1721062999999985,-2.0938623,1001.24255,1,4
71.72,-7.463761,4.7917595,-2.037051,1001.2173,1,4
71.76,-7.2056627,4.6916614,-2.0228486,1001.23236,1,4
71.8,-6.8185086,4.686895400000001,-1.8287389,1001.19464,1,4
71.84,-6.83286,5.20645,-2.3305871,1001.2526,1,4
71.88,-7.258097,5.1015816,-2.6667147,1001.2323,1,4
71.92,-7.1720667,5.468607,-2.3542447,1001.23737,1,4
71.96,-9.781846,5.7736664000000015,-4.1485844,1001.386,1,4
72.0,-11.048502,5.301778,-4.532072,1001.2626,1,4
72.04,-9.791417,5.249346,-3.9165995,1001.19965,1,4
72.08,-7.477999700000002,4.77269,-2.9413127999999995,1001.1845,1,4
72.12,-7.779134,4.620161,-2.6477804,1001.19714,1,4
72.16,-7.1099677,4.5009966,-2.4205296,1001.1694,1,4
72.2,-6.866206599999999,3.6906824,-2.1175284,1001.2147,1,4
72.24,-6.870989999999999,3.4952536,-2.5578284,1001.24994,1,4
72.28,-7.6262064,3.728815,-2.8987064,1001.26764,1,4
72.32,-7.860423,4.5629625,-3.8645253,1001.26996,1,4
72.36,-8.228475,4.5820292999999985,-3.0360055,1001.2298,1,4
72.4,-8.840294,4.615395,-3.784042,1001.30035,1,4
72.44,-8.505714999999999,5.5448737,-3.8455896,1001.3128,1,4
72.48,-9.327846,5.5448737,-3.5094473,1001.22723,1,4
72.52,-9.012387,5.0253196,-2.5104887,1001.2146,1,4
72.56,-8.60133,4.7869916,-1.9186885,1001.1845,1,4
72.6,-8.295428999999999,4.987188,-1.7482506000000002,1001.2096,1,4
72.64,-8.66826,4.901389599999999,-1.6772349999999998,1001.23975,1,4
72.68,-8.008654,5.02532,-1.4452498,1001.23224,1,4
72.72,-7.478101700000002,4.9728885,-2.0938637,1001.2574,1,4
72.76,-7.865271000000001,4.834658,-1.8808162,1001.2299,1,4
72.8,-6.8424006,4.6487627,-1.3789699,1001.2272,1,4
72.84,-6.928442,4.539132,-1.4736584,1001.2196,1,4
72.88,-6.5460660000000015,5.387579,-0.87712413,1001.18677,1,4
72.92,-8.079532,5.535321700000001,-2.1411326,1001.2524,1,4
72.96,-7.99826,5.845147,-2.1363966,1001.212,1,4
73.0,-9.183615,6.112073400000001,-2.0369709,1001.24475,1,4
73.04,-9.398685,6.078707,-2.6713793,1001.32043,1,4
73.08,-9.293503,5.65925,-3.821837,1001.28754,1,4
73.12,-8.633865,5.5210195,-3.6513963,1001.2169,1,4
73.16,-7.8547244,5.58775,-3.2158282,1001.21185,1,4
73.2,-7.242882700000001,5.335121,-2.837073,1001.2093,1,4
73.24,-6.4302964000000005,5.0824940000000005,-2.377834,1001.2421,1,4
73.28,-6.3155575,4.6582694,-2.1316428,1001.22687,1,4
73.32,-6.6070976,4.3913417,-1.9091232,1001.20685,1,4
73.36,-7.7016472999999985,4.1959124,-2.084294,1001.2018,1,4
73.4,-7.9549537,4.7154665,-2.8181245,1001.26996,1,4
73.44,-8.447236,5.163521299999998,-2.5671978,1001.2245,1,4
73.48,-9.312356,5.4161487,-3.102183,1001.25714,1,4
73.52,-9.173713,5.4733467000000005,-3.1353214,1001.2495,1,4
73.56,-9.737714,5.7069077,-2.5624568,1001.1941,1,4
73.6,-9.493909,5.5543765999999986,-2.3352025000000003,1001.18677,1,4
73.64,-8.327617,5.4066133,-1.6203054,1001.21936,1,4
73.68,-7.6440787,4.6248974999999986,-0.06268376,1001.1893,1,4
73.72,-8.346678,5.015754,-0.5976686,1001.20917,1,4
73.76,-8.776843,4.643962,-0.22838351,1001.1915,1,4
73.8,-8.236703,4.281703500000001,-1.1326528,1001.1767,1,4
73.84,-8.552135,3.7049491,-0.8911950000000001,1001.13367,1,4
73.88,-7.9737535,3.9575765,-1.7386509,1001.16644,1,4
73.92,-7.7729697,4.4389977,-1.6108192,1001.13873,1,4
73.96,-6.233846700000001,5.0967817,-0.76335824,1001.1386,1,4
74.0,-6.171689,5.4256735,-2.1931467,1001.2119,1,4
74.04,-8.265217999999999,5.754565,-2.2736294,1001.24695,1,4
74.08,-7.925818400000002,5.8832617,-2.302033,1001.2395,1,4
74.12,-9.522246,5.5496019999999975,-2.425125,1001.26715,1,4
74.16,-10.267869,5.8832603,-3.4714258,1001.2722,1,4
74.2,-9.340569,5.478102,-3.3720016000000004,1001.23944,1,4
74.24,-7.141825999999999,5.3303385,-2.8606830000000003,1001.26465,1,4
74.28,-8.030842999999999,3.976635700000001,-3.4193401,1001.242,1,4
74.32,-8.059502,3.6334434,-2.4724574,1001.23676,1,4
74.36,-7.151312400000001,4.219729,-2.4251108,1001.23944,1,4
74.4,-6.7163205,4.405624,-2.552937,1001.2644,1,4
74.44,-7.414144999999999,3.700173,-2.510325,1001.2798,1,4
74.48,-7.8251867,3.7287717,-2.9080129,1001.252,1,4
74.52,-7.8920784,3.7383044,-3.031105,1001.2897,1,4
74.56,-7.954183,4.2673917,-3.0358365000000003,1001.24927,1,4
74.6,-8.527739,4.667781,-3.0358346000000003,1001.30505,1,4
74.64,-8.56595,5.106304,-3.8312123,1001.30756,1,4
74.68,-8.709318,4.806010700000002,-3.3483007000000007,1001.3173,1,4
74.72,-9.407138,5.173034,-2.500839,1001.2924,1,4
74.76,-8.981709,4.8107753,-2.4771647,1001.25964,1,4
74.8,-9.07842,4.2435822,-1.8428565,1001.24207,1,4
74.84,-9.4847,4.1625510000000014,-0.9669915,1001.199,1,4
74.88,-9.671109,4.6678057,-1.6676830000000002,1001.24176,1,4
74.92,-8.64345,5.225493,-1.4356971,1001.2899,1,4
74.96,-7.8261002999999985,5.20166,-1.2368517,1001.2266,1,4
75.0,-7.7113833,5.010998000000002,-1.6014007,1001.2191,1,4
75.04,-7.180821400000001,4.405645,-1.4451652,1001.2063,1,4
75.08,-6.851013000000001,4.338913,-1.4498992,1001.2065,1,4
75.12,-6.8701285999999975,4.4628440000000005,-1.0474746,1001.21936,1,4
75.16,-7.778289999999997,4.5009755999999985,-1.6203374,1001.2619,1,4
75.2,-8.194129,5.092029,-1.8570575,1001.29974,1,4
75.24,-8.237144,5.06343,-2.3873105,1001.2745,1,4
75.28,-8.557388000000001,5.7784123,-1.5351173,1001.23676,1,4
75.32,-8.739019,6.0024405,-2.7423902,1001.25183,1,4
75.36,-9.718876,5.5114856,-2.9649072,1001.204,1,4
75.4,-8.55738,5.3589554,-2.789734,1001.1889,1,4
75.44,-6.894007000000001,5.8785105,-2.642967,1001.22186,1,4
75.48,-8.136753,5.2016589999999985,-3.4762223,1001.2568,1,4
75.52,-9.441636,4.4294769999999986,-3.2489705,1001.2797,1,4
75.56,-8.500012,4.6392055,-2.9364994,1001.237,1,4
75.6,-6.7697214999999975,4.8298674,-2.3778396,1001.2317,1,4
75.64,-7.008709,4.7202363,-2.9885771,1001.31,1,4
75.68,-7.5775027,4.8584666,-3.3531263,1001.31256,1,4
75.72,-7.9455456999999985,4.2388144,-3.3105164,1001.2619,1,4
75.76,-8.939741999999997,4.210215,-3.1258745,1001.23663,1,4
75.8,-7.859571499999999,4.977632,-2.9696453,1001.1938,1,4
75.84,-7.606242,5.053897,-2.628768,1001.24207,1,4
75.88,-7.931269,4.9680985999999985,-2.8370817,1001.22156,0,0
75.92,-8.265856,4.6916385,-2.7045186,1001.21686,0,0
75.96,-8.442708,4.400879,-2.524611,1001.199,0,0
76.0,-8.132019999999999,4.553408,-2.524611,1001.2571,0,0
76.04,-7.888250999999999,4.4199449999999985,-2.4299228,1001.2595,0,0
76.08,-8.600441,4.148251,-2.732925,1001.2797,0,0
76.12,-8.686478999999999,4.348447,-2.524611,1001.2595,0,0
76.16,-7.9886265,4.696405,-2.6713777000000003,1001.27466,0,0
76.2,-7.864351299999999,4.7631373,-2.7708,1001.26465,0,0
76.24,-8.093781,4.405645400000001,-2.732925,1001.22186,0,0
76.28,-7.974286999999999,4.8823013,-2.548283,1001.22174,0,0
76.32,-7.601462400000001,4.9823985,-2.5672204,1001.2395,0,0
76.36,-7.974286999999999,4.939499400000001,-2.7234561,1001.23193,0,0
76.4,-8.213277,4.8251023,-2.5908926,1001.21436,0,0
76.44,-8.12246,4.848935,-2.6808465,1001.21924,0,0
76.48,-8.050764,4.729771,-2.4109852000000003,1001.21924,0,0
76.52,-7.902590299999999,4.9109,-2.3068283,1001.2118,0,0
76.56,-8.189378999999999,4.8632345,-2.221609,1001.23444,0,0
76.6,-8.198938,4.9061337,-2.4677982000000003,1001.2621,0,0
76.64,-8.198938,4.653506299999999,-2.5530174,1001.2571,0,0
76.68,-8.227616000000001,4.6582727,-2.4299228,1001.27997,0,0
76.72,-8.117681,4.4247117,-2.3683758,1001.22174,0,0
76.76,-8.390130000000001,4.6678057,-2.557752,1001.22955,0,0
76.8,-8.222545,4.7869625,-2.4535685000000003,1001.23206,0,0
76.84,-8.284672,4.6487327,-2.4677706,1001.2571,0,0
76.88,-8.332459,4.4056377,-2.3588781,1001.21674,0,0
76.92,-8.198613,4.44377,-2.4298933,1001.2345,0,0
76.96,-8.404133,4.2388077000000015,-2.6097994,1001.23944,0,0
77.0,-8.351544,4.3341384000000005,-2.2925935,1001.22705,0,0
77.04,-8.447128,4.3389050000000005,-2.5861254,1001.217,0,0
77.08,-8.375421000000001,4.4008699999999985,-2.3494043,1001.23444,0,0
77.12,-8.337171000000001,4.338904,-2.5245762000000003,1001.2521,0,0
77.16,-8.557031,4.4104023,-2.439356,1001.2421,0,0
77.2,-8.265452,4.334137,-2.5529807,1001.26483,0,0
77.24,-8.432732000000001,4.1816072,-2.453557,1001.2397,0,0
77.28,-8.427941,4.0958085,-2.4961653,1001.19934,0,0
77.32,-8.5665455,4.205439599999999,-2.4393518,1001.23206,0,0
77.36,-8.007298,4.4056344,-2.2120993,1001.2144,0,0
77.4,-8.513945,4.553397,-2.325724,1001.2828,0,0
77.44,-8.208026,4.5819964,-2.4582863,1001.2649,0,0
77.48,-8.466125,4.3150687,-2.2736435,1001.2322,0,0
77.52,-8.432654,4.2626367,-2.2783768,1001.22705,0,0
77.56,-8.298808,4.4199324,-2.3541265,1001.2424,0,0
77.6,-8.523448,4.2721696,-2.2073588,1001.24,0,0
77.64,-8.69073,4.2674026,-2.4582813,1001.23486,0,0
77.68,-8.337014,4.4675980000000015,-2.3399198,1001.24225,0,0
77.72,-8.308327,4.5200295,-2.264169,1001.23987,0,0
77.76,-8.499504,4.281701,-2.2546985,1001.25757,0,0
77.8,-8.328582,4.3579940000000015,-2.4110394,1001.2424,0,0
77.84,-8.462454,4.253131,-2.2690105,1001.23236,0,0
77.88,-8.433809,4.272198,-2.2216697,1001.2173,0,0
77.92,-8.366923,4.35323,-2.202735,1001.2299,0,0
77.96,-8.53903,4.4676285,-2.3968487,1001.2299,0,0
78.0,-8.400451,4.367532,-2.3779142,1001.22723,0,0
78.04,-8.548658999999999,4.5391283,-2.4157925,1001.23737,0,0
78.08,-8.32882,4.3484669999999985,-2.3921235,1001.24,0,0
78.12,-8.314513,4.338935,-2.3400478,1001.24,0,0
78.16,-8.30499,4.2340717,-2.396864,1001.2222,0,0
78.2,-8.324143,4.2436056,-2.3495232999999995,1001.2197,0,0
78.24,-8.371974,4.4771676,-2.3400574,1001.2475,0,0
78.28,-8.118675999999999,4.6344647000000005,-2.311654,1001.24756,0,0
78.32,-8.415061,4.534368,-2.3542671000000004,1001.25507,0,0
78.36,-8.482012,4.3675394,-2.321129,1001.27527,0,0
78.4,-8.424688,4.195944,-2.250116,1001.25507,0,0
78.44,-8.424721,4.3580074,-2.4063547,1001.2526,0,0
78.48,-8.376954,4.586803400000001,-2.354279,1001.235,0,0
78.52,-8.34353,4.5915704,-2.2832663,1001.2604,0,0
78.56,-8.095015,4.624937,-2.406364,1001.2425,0,0
78.6,-8.448753,4.4867077,-2.0276144,1001.2047,0,0
78.64,-8.568284,4.5343747,-2.2027907000000004,1001.2174,0,0
78.68,-8.166812,4.582041,-2.1696527000000003,1001.2351,0,0
78.72,-8.487093,4.291281,-2.3069534,1001.2602,0,0
78.76,-8.4536705,4.567743,-2.2028,1001.2602,0,0
78.8,-8.237446,4.524815599999998,-2.339994,1001.2527,0,0
78.84,-8.404729,4.582014599999999,-2.2595081,1001.2604,0,0
78.88,-8.4047165,4.3818183,-2.1979597,1001.2655,0,0
78.92,-8.447726,4.46285,-2.0748644,1001.2351,0,0
78.96,-8.581547,4.515282,-2.2595048,1001.25775,0,0
79.0,-8.452482,4.500982,-2.131675,1001.2577,0,0
79.04,-8.452471000000001,4.3961169999999985,-2.1695492,1001.25287,0,0
79.08,-8.299505,4.467615,-1.9991097,1001.25037,0,0
79.12,-8.251696,4.624912,-2.2926416,1001.2579,0,0
79.16,-8.280364,4.7774410000000005,-2.2831721000000003,1001.2604,0,0
79.2,-8.528902,4.429482,-2.3589213,1001.2403,0,0
79.24,-8.227764,4.5820117,-2.2500287999999995,1001.22015,0,0
79.28,-8.289889,4.4056487,-2.3683882,1001.24036,0,0
79.32,-8.270760000000001,4.4485474,-2.2926366,1001.2478,0,0
79.36,-8.371125,4.477146599999998,-2.368386,1001.2278,0,0
79.4,-8.160802,4.7917394999999985,-2.3825884,1001.2629,0,0
79.44,-8.452357000000001,4.5248113,-2.5198848,1001.2505,0,0
79.48,-8.265935,4.6344423,-2.368383,1001.2504,0,0
79.52,-8.055614,4.7393064,-2.4630702,1001.2482,0,0
79.56,-8.457108,4.305549,-2.5624917000000003,1001.23035,0,0
79.6,-8.179865,4.462846,-2.6240377,1001.2203,0,0
79.64,-8.2037525,4.38658,-2.6666462,1001.2077,0,0
79.68,-7.9599714000000015,4.577242,-2.382581,1001.2079,0,0
79.72,-8.347124,4.6058407,-2.5198777000000003,1001.23535,0,0
79.76,-8.146364,4.7774367,-2.6571748,1001.2505,0,0
79.8,-8.074879,4.6678114,-2.856039,1001.2936,0,0
79.84,-8.189592999999999,4.5343480000000005,-2.60985,1001.2457,0,0
79.88,-8.289966,4.6010795,-2.600381,1001.25073,0,0
79.92,-8.280403,4.486682,-2.5861773,1001.2331,0,0
79.96,-8.30908,4.41995,-2.5293643,1001.2256,0,0
80.0,-8.137004,4.424717,-2.562505,1001.2583,0,0
80.04,-8.309074,4.591546,-2.6619272,1001.261,0,0
80.08,-8.203916,4.5581803,-2.5861764,1001.2557,0,0
80.12,-8.184794,4.5772457000000015,-2.6098482999999995,1001.2379,0,0
80.16,-8.256489,4.5057480000000005,-2.4630814,1001.2381,0,0
80.2,-8.18479,4.605845,-2.6429884,1001.2431,0,0
80.24,-8.285162,4.40565,-2.534097,1001.2308,0,0
80.28,-8.332958,4.4533157,-2.5814412,1001.24084,0,0
80.32,-8.199121,4.4533157,-2.4772837000000005,1001.24817,0,0
80.36,-8.328174,4.415183,-2.4394085,1001.2532,0,0
80.4,-8.242135000000001,4.620145,-2.5956433,1001.2859,0,0
80.44,-8.246912,4.653511,-2.6335187,1001.24817,0,0
80.48,-8.304267999999999,4.539113,-2.595643,1001.26355,0,0
80.52,-8.242127,4.496214,-2.5482988,1001.261,0,0
80.56,-8.165648,4.5009804,-2.5530329,1001.25574,0,0
80.6,-8.318599,4.4676147,-2.638252,1001.25854,0,0
80.64,-8.227780000000001,4.567713,-2.524626,1001.26605,0,0
80.68,-8.108283,4.68211,-2.5814388,1001.23303,0,0
80.72,-8.175199000000001,4.643977,-2.576704,1001.26605,0,0
80.76,-8.084379,4.739309,-2.5009534,1001.2535,0,0
80.8,-8.232711,4.6153817,-2.5719838,1001.25104,0,0
80.84,-8.290072,4.3913536,-2.4583588,1001.26105,0,0
80.88,-8.371333,4.5343504,-2.6524694,1001.2686,0,0
80.92,-8.184924,4.648748,-2.4962344,1001.27106,0,0
80.96,-8.357001,4.4342527,-2.605126,1001.2484,0,0
81.0,-8.385684,4.4771523,-2.529376,1001.2585,0,0
81.04,-8.151475999999999,4.467619,-2.482032,1001.23083,0,0
81.08,-8.19928,4.567717,-2.534111,1001.2434,0,0
81.12,-8.52909,4.3436885,-2.6051273,1001.27124,0,0
81.16,-8.213626,4.524818,-2.5719872,1001.2535,0,0
81.2,-8.180171000000001,4.5200510000000005,-2.5719874,1001.27124,0,0
81.24,-8.323568,4.367522,-2.4915028,1001.23834,0,0
81.28,-8.275775,4.472386,-2.500972,1001.26874,0,0
81.32,-8.175403999999999,4.610616,-2.5956604,1001.30896,0,0
81.36,-8.342699,4.334156,-2.538848,1001.25604,0,0
81.4,-8.328363000000001,4.4771533,-2.5956612,1001.2258,0,0
81.44,-8.161074000000001,4.5915504,-2.5435832,1001.20557,0,0
81.48,-8.271013,4.520052,-2.6193337000000003,1001.246,0,0
81.52,-8.376173,4.3675222,-2.557787,1001.23834,0,0
81.56,-8.237561999999999,4.391355,-2.5814593,1001.25867,0,0
81.6,-8.299703,4.486686,-2.5341153,1001.2436,0,0
81.64,-8.299707000000001,4.558185,-2.643007,1001.2661,0,0
81.68,-8.175436,4.64875,-2.5814602000000004,1001.2434,0,0
81.72,-8.218459,4.491453,-2.586195,1001.25616,0,0
81.76,-8.299717999999999,4.558185,-2.5625234,1001.24347,0,0
81.8,-8.329498,4.386616,-2.586296,1001.2562,0,0
81.84,-8.238732,4.4819484,-2.5910351,1001.2436,0,0
81.88,-8.248331,4.377085,-2.534226,1001.25867,0,0
81.92,-8.363095,4.3961525,-2.4300735,1001.2209,0,0
81.96,-8.415721000000001,4.486718,-2.69047,1001.25354,0,0
82.0,-8.042942,4.6773815,-2.4726915000000003,1001.246,0,0
82.04,-8.305864,4.3675566,-2.5247731,1001.25354,0,0
82.08,-8.497103,4.310359,-2.3590732000000005,1001.25354,0,0
82.12,-8.286853,4.5105553,-2.501111,1001.27637,0,0
82.16,-8.430288000000001,4.38186,-2.4490364,1001.2636,0,0
82.2,-8.420775,4.243631,-2.4632437,1001.24347,0,0
82.24,-8.253532,4.448594,-2.3874981,1001.23584,0,0
82.28,-8.368292,4.2579327000000005,-2.5816126,1001.23083,0,0
82.32,-8.344436,4.334199,-2.3922403,1001.2711,0,0
82.36,-8.1293955,4.3675656,-2.4916675,1001.24115,0,0
82.4,-8.511818,4.1244726,-2.539015,1001.2133,0,0
82.44,-8.325453,4.462899,-2.2644238,1001.23346,0,0
82.48,-8.325508000000001,4.7202945,-2.5958374,1001.251,0,0
82.52,-8.435475,4.7774944,-2.619512,1001.2838,0,0
82.56,-8.134407000000001,4.462903,-2.4916887,1001.25867,0,0
82.6,-8.306515,4.2531743,-2.2975814,1001.24347,0,0
82.64,-8.368708,4.3961725,-2.411212,1001.246,0,0
82.68,-8.421332000000001,4.358042,-2.4680293,1001.2459,0,0
82.72,-8.282765,4.4390745,-2.425424,1001.246,0,0
82.76,-8.459661500000001,4.2150474,-2.4443655,1001.23846,0,0
82.8,-8.3067465,4.305613,-2.3307432999999995,1001.22076,0,0
82.84,-8.335481,4.415245,-2.4822495,1001.24854,0,0
82.88,-8.435903999999999,4.481978,-2.4964569,1001.2409,0,0
82.92,-8.225636,4.567777,-2.4775233,1001.26105,0,0
82.96,-8.211347,4.64881,-2.3923085,1001.23846,0,0
83.0,-8.483845,4.448615,-2.5864236000000003,1001.2283,0,0
83.04,-8.311813,4.4486165,-2.5248802,1001.23334,0,0
83.08,-8.316637,4.3485203000000014,-2.52015,1001.20807,0,0
83.12,-8.493538000000001,4.477218,-2.5106854,1001.21826,0,0
83.16,-8.283273,4.391421,-2.5627682000000003,1001.20325,0,0
83.2,-8.407592,4.5296526,-2.4680839,1001.2411,0,0
83.24,-8.307262,4.5201206,-2.5154321,1001.2283,0,0
83.28,-8.249952,4.4152575,-2.5107024,1001.2484,0,0
83.32,-8.355143,4.3628263,-2.4065485,1001.22577,0,0
83.36,-8.312183000000001,4.372361,-2.6574774,1001.27637,0,0
83.4,-8.273989,4.3961945,-2.5438557,1001.2535,0,0
83.44,-8.407869,4.3056307,-2.558063,1001.22833,0,0
83.48,-8.45092,4.381897,-2.5296597000000003,1001.251,0,0
83.52,-8.271347,4.5486593,-2.5909579,1001.2484,0,0
83.56,-8.233091,4.529593,-2.5388777,1001.2736,0,0
83.6,-8.362127000000001,4.415195,-2.4725945,1001.2384,0,0
83.64,-8.108782000000001,4.4199614999999985,-2.496265,1001.2381,0,0
83.68,-8.280839,4.253131400000001,-2.6098893,1001.2535,0,0
83.72,-8.495915,4.1768665,-2.5199344,1001.2104,0,0
83.76,-8.357285000000001,4.443793,-2.6335588,1001.23083,0,0
83.8,-8.18041,4.7250195,-2.5151963,1001.2485,0,0
83.84,-8.075237,4.643987,-2.4820538,1001.23334,0,0
83.88,-8.256852,4.558189,-2.4678493,1001.22534,0,0
83.92,-8.385891,4.367526,-2.44891,1001.2255,0,0
83.96,-8.261599,4.5438886,-2.4252365,1001.22046,0,0
84.0,-8.271144999999999,4.4533239999999985,-2.3494847,1001.2283,0,0
84.04,-8.318928,4.3818245000000005,-2.4110305,1001.23083,0,0
84.08,-8.428844999999999,4.5200543,-2.553061,1001.2484,0,0
84.12,-8.02732,4.6868834,-2.496246,1001.22534,0,0
84.16,-8.285411999999999,4.5057540000000005,-2.37315,1001.2104,0,0
84.2,-8.299737,4.4723873,-2.5057123,1001.2283,0,0
84.24,-8.309277,4.4771540000000005,-2.5909297,1001.23334,0,0
84.28,-8.294927000000001,4.4294877,-2.5341158,1001.23303,0,0
84.32,-8.266225,4.6010833,-2.4820352000000003,1001.22797,0,0
84.36,-8.304447,4.505751999999998,-2.4299555,1001.2354,0,0
84.4,-8.290087,4.5105176,-2.562517,1001.2431,0,0
84.44,-8.371329,4.439019,-2.5672498,1001.2532,0,0
84.48,-8.275719,4.5391164,-2.4725604,1001.2833,0,0
84.52,-8.194466,4.481918,-2.5956552000000004,1001.2986,0,0
84.56,-8.137091999999999,4.6201477,-2.5814507,1001.2557,0,0
84.6,-8.266135,4.4819174,-2.5909183,1001.24567,0,0
84.64,-8.366489,4.229289499999998,-2.4488842,1001.2484,0,0
84.68,-8.299555999999999,4.396118,-2.5293677000000003,1001.2304,0,0
84.72,-8.328218,4.5581809999999985,-2.5483038,1001.2456,0,0
84.76,-8.227826,4.5581803,-2.5056925,1001.27075,0,0
84.8,-8.404663000000001,4.4628489999999985,-2.5009565,1001.22296,0,0
84.84,-8.289932,4.3293843,-2.5482993,1001.24054,0,0
84.88,-8.289914999999999,4.424716,-2.4772818,1001.20276,0,0
84.92,-8.299458999999999,4.334151,-2.5246246,1001.228,0,0
84.96,-8.385479,4.3579826,-2.515154,1001.2333,0,0
85.0,-8.404585,4.310317,-2.4820118,1001.23303,0,0
85.04,-8.30419,4.424714,-2.4157283,1001.2256,0,0
85.08,-8.524044,4.3722816,-2.5388215,1001.23804,0,0
85.12,-8.23724,4.5295777,-2.5577579,1001.2431,0,0
85.16,-8.280242999999999,4.515278,-2.4346619,1001.24054,0,0
85.2,-8.265886,4.305548,-2.4630666000000003,1001.2104,0,0
85.24,-8.423605,4.2578825999999985,-2.4393935,1001.26575,0,0
85.28,-8.337551,4.4342446,-2.581424,1001.2582,0,0
85.32,-8.256283,4.643973,-2.5009377,1001.2331,0,0
85.36,-8.227582,4.496209,-2.3920445,1001.2633,0,0
85.4,-8.294488000000001,4.4962087,-2.4867315,1001.2331,0,0
85.44,-8.337486,4.3341455,-2.5340738,1001.2633,0,0
85.48,-8.160617,4.3579774,-2.5056658,1001.2557,0,0
85.52,-8.338967,4.582043,-2.4868653,1001.23566,0,0
