Timestamp,Ax,Ay,Az,P,Value,Type
0.0,0.8723912,9.635162,0.82509226,1000.38715,0,0
0.04,4.019348600000002,5.7819805,8.028119,1000.4276,0,0
0.08,3.6614535,5.581770400000001,8.567896000000001,1000.43835,0,0
0.12,3.6327116,5.853466,7.8056507,1000.4388,0,0
0.16,3.5227084000000004,5.9726315,8.298022,1000.40656,0,0
0.2,3.455732,6.067964,7.8577175000000015,1000.3894,0,0
0.24,3.8189378,6.7114509999999985,8.672029499999999,1000.3873,0,0
0.28,3.9813838,7.0880103000000005,8.326412,1000.40265,0,0
0.32,5.453504,7.764863,11.11497,1000.4204,0,0
0.36,7.6617136,9.213898,14.722581,1000.4714,0,0
0.4,7.0402717999999975,9.514193,10.475815,1000.37646,0,0
0.44,7.131025,8.012729,12.274881,1000.37964,0,0
0.48,3.0585723,5.195695,5.5236160000000005,1000.3369,0,0
0.52,0.9697385,3.0793452,3.809756,1000.31506,0,0
0.56,-2.1897793,0.82953215,0.90282536,1000.313,0,0
0.6,-4.751809,3.365342,6.655122,1000.3207,0,0
0.64,-5.918145,2.0307071,0.8649392,1000.3159,0,0
0.68,-8.441949000000001,2.2738035,-0.3660122,1000.32654,0,0
0.72,-9.20678,3.0173879,-0.44650286,1000.34937,0,0
0.76,-9.096908,2.926825,-2.3402705000000004,1000.3294,0,0
0.8,-9.345514,3.508346,-1.9047105,1000.33997,0,0
0.84,-9.431618,3.1651556,-1.8763102,1000.37836,0,0
0.88,-8.5569725,4.1375346,-3.3818562000000005,1000.3884,0,0
0.92,-8.96332,3.5893824,-0.35184306,1000.3986,0,0
0.96,-8.055221000000001,3.8086452,-1.6727477,1000.3943,0,0
1.0,-8.241696000000001,4.2519364,-1.7485042000000002,1000.38434,0,0
1.04,-8.11748,5.067019,-2.141465,1000.4073,0,0
1.08,-8.797630999999997,4.466468,-2.6529105,1000.37006,0,0
1.12,-8.597002,4.3711400000000005,-1.904886,1000.3704,0,0
1.16,-8.214728,4.7381673,-3.1737165000000003,1000.36316,0,0
1.2,-7.8229012,5.124261,-1.0101042,1000.37836,0,0
1.24,-7.794332000000002,4.9002357000000005,-0.7213155,1000.39166,0,0
1.28,-7.9856479999999985,4.795374400000001,-1.1237513,1000.3868,0,0
1.32,-8.468525,4.9431405,-2.667178,1000.36707,0,0
1.36,-8.698065,5.000342,-3.2305818,1000.4075,0,0
1.4,-8.105478,5.1481080000000015,-2.3547272999999995,1000.4178,0,0
1.44,-7.030146,5.348306,-2.2221754,1000.383,0,0
1.48,-7.7472267000000015,5.162413,-2.3168733,1000.35535,0,0
1.52,-7.7329965,5.0527854,-2.4447122,1000.3406,0,0
1.56,-7.866955,5.443646,-2.1369874,1000.3537,0,0
1.6,-7.714110400000001,5.291119,-2.3500457000000003,1000.3588,0,0
1.64,-7.8289356,5.0909260000000005,-2.1417415,1000.3467,0,0
1.68,-7.953334,4.9717655,-2.539443,1000.3319,0,0
1.72,-7.7765985,5.3530927,-1.8908404,1000.33514,0,0
1.76,-7.991805999999999,5.753486,-2.1654465,1000.29724,0,0
1.8,-7.599972,6.0966809999999985,-2.619959,1000.3354,0,0
1.84,-7.6861243,5.65816,-2.326437,1000.3408,0,0
1.88,-7.6002054,5.7439620000000025,-2.1039307000000003,1000.31573,0,0
1.92,-7.7819467000000015,5.453204,-1.9240333,1000.33105,0,0
1.96,-7.6004314,5.7487335,-1.8482934,1000.32874,0,0
2.0,-7.485825,5.519942,-2.1134303,1000.32153,0,0
2.04,-7.810975599999999,5.6295753,-2.1702545,1000.3593,0,0
2.08,-7.687166,5.696319,-2.0377333,1000.3472,0,0
2.12,-7.596488499999999,5.648656,-2.1040282,1000.3372,0,0
2.16,-7.892958599999999,5.4770629999999985,-2.0708983,1000.3625,0,0
2.2,-7.86919,5.539032,-2.0377693,1000.3678,0,0
2.24,-7.5920844,5.848861,-2.0188427,1000.33795,0,0
2.28,-7.960252,5.662969,-1.9999168,1000.33044,0,0
2.32,-7.673594500000001,5.829801,-1.9194437,1000.3584,0,0
2.36,-7.477761,5.7630725,-2.0993638,1000.3459,0,0
2.4,-7.793350699999999,5.5295143,-2.042562,1000.33124,0,0
2.44,-7.9990039999999984,5.286423,-2.0046983,1000.34424,0,0
2.48,-7.850961,5.462789,-1.9810381,1000.35187,0,0
2.52,-7.62167,5.3054957,-1.9100348000000005,1000.3721,0,0
2.56,-8.123695,5.1863356,-1.8863761000000003,1000.34955,0,0
2.6,-7.966100999999999,5.334102,-1.9810771,1000.3575,0,0
2.64,-7.712869,5.2340074,-1.8485225,1000.3577,0,0
2.68,-7.9759135,5.4580392999999985,-1.9100841,1000.35785,0,0
2.72,-7.8326506999999985,5.4532757000000025,-1.9527055,1000.3579,0,0
2.76,-7.722846,5.5104775,-1.9195768,1000.35815,0,0
2.8,-7.8280997,5.3960824,-2.1184306,1000.3808,0,0
2.84,-7.6657160000000015,5.400852,-1.805972,1000.32355,0,0
2.88,-7.9956703,5.410389,-1.8864702,1000.3237,0,0
2.92,-7.8810850000000015,5.4246917,-1.848607,1000.2862,0,0
2.96,-8.497777000000001,5.7249875,-2.094805,1000.28894,0,0
3.0,-7.498962,5.6487265,-1.6119107,1000.26135,0,0
3.04,-7.3635564,5.281663,-1.6827829,1000.2968,0,0
3.08,-8.190529,4.8574410000000015,-2.0047286,1000.294,0,0
3.12,-7.9946156,5.0052056,-1.8816392,1000.31464,0,0
3.16,-7.965994999999999,5.243535,-1.7443468999999998,1000.3121,0,0
3.2,-8.066432,5.6629934,-2.04262,1000.27466,0,0
3.24,-7.8800817,5.4675665,-2.0284226000000003,1000.335,0,0
3.28,-7.961400999999999,5.3960695,-2.118382,1000.33527,0,0
3.32,-8.066618,5.2149415,-2.0000277,1000.28754,0,0
3.36,-7.8850446,5.3627067,-2.118393,1000.3104,0,0
3.4,-7.9185658,5.009983,-2.22729,1000.313,0,0
3.44,-8.143263000000001,5.214946,-2.1846845,1000.2733,0,0
3.48,-8.052524,5.172049,-2.0284564,1000.26825,0,0
3.52,-7.904412700000001,5.305514,-2.156291,1000.2911,0,0
3.56,-8.023966,5.2673826,-2.3314693,1000.26373,0,0
3.6,-7.9284163,5.2816834,-2.525584,1000.2839,0,0
3.64,-7.832894299999999,5.1386886,-1.8817117,1000.29913,0,0
3.68,-7.8329606,5.381785,-2.478253,1000.3115,0,0
3.72,-8.000311,5.291221599999999,-2.4214456,1000.3093,0,0
3.76,-7.7088056,5.3531885,-2.2746847000000003,1000.31683,0,0
3.8,-7.8857164000000015,5.2340264,-2.3835812,1000.29944,0,0
3.84,-7.7137094,5.28646,-2.3267744,1000.30444,0,0
3.88,-7.8380427,5.157764,-2.28417,1000.29956,0,0
3.92,-7.780742999999997,5.3436613,-2.3457227,1000.3322,0,0
3.96,-7.795145,5.329363,-2.2178993,1000.33246,0,0
4.0,-7.95772,5.372264,-2.4309533,1000.29486,0,0
4.04,-7.828972999999999,5.2388077000000015,-2.3931062,1000.3179,0,0
4.08,-7.824265,5.2483425000000015,-2.3505032000000003,1000.2874,0,0
4.12,-7.986846400000001,5.1482462999999985,-2.3978534,1000.3102,0,0
4.16,-7.790951,5.324611,-2.2510939,1000.2852,0,0
4.2,-7.652409,5.2960129999999985,-2.2368972,1000.3183,0,0
4.24,-7.977503299999999,5.2197504,-2.359998,1000.2931,0,0
4.28,-7.9393425,5.362749,-2.3173952,1000.2933,0,0
4.32,-7.910725599999999,5.324618,-2.3884172,1000.283,0,0
4.36,-7.7769637,5.424717,-2.4215648,1000.2983,0,0
4.4,-7.8104997,5.419953,-2.5494006,1000.30615,0,0
4.44,-7.557237599999999,5.4056544,-2.421578,1000.2987,0,0
4.48,-7.461709,5.586786,-2.3458335,1000.276,0,0
4.52,-7.5717216,5.653519,-2.492607,1000.324,0,0
4.56,-7.6865,5.5486565,-2.4547380000000003,1000.3014,0,0
4.6,-7.710476,5.5057589999999985,-2.5210266,1000.30646,0,0
4.64,-7.5002365000000015,5.610625700000001,-2.6393933,1000.29895,0,0
4.68,-7.6628175,5.4914627000000005,-2.6062586,1000.3169,0,0
4.72,-7.6772246,5.458099,-2.5068421,1000.31195,0,0
4.76,-7.5769258000000015,5.448567400000001,-2.3600826,1000.27686,0,0
4.8,-7.911583999999999,5.4104366,-2.2322602,1000.2995,0,0
4.84,-7.830399499999999,5.424738,-2.1707196,1000.3121,0,0
4.88,-7.840027,5.6964335,-1.995553,1000.29755,0,0
4.92,-7.820983999999997,5.5915713,-2.303296,1000.3148,0,0
4.96,-7.7493505,5.558207,-2.2985678,1000.29486,0,0
5.0,-7.4578547,5.405679,-2.350653,1000.29755,0,0
5.04,-7.3573309999999985,5.448574,-2.492671,1000.31757,0,0
5.08,-8.256001,5.386611,-2.3411765,1000.2724,0,0
5.12,-8.12223,5.5582085,-2.5779026000000003,1000.3204,0,0
5.16,-7.405314999999999,5.5057774,-2.4737508,1000.34827,0,0
5.2,-7.305011,5.3532495,-2.435882,1000.3304,0,0
5.24,-7.687454700000001,5.2054873,-2.5069036,1000.3307,0,0
5.28,-7.405505000000002,5.4199843,-2.2749233,1000.263,0,0
5.32,-7.9648023,5.396153,-2.2228503,1000.2855,0,0
5.36,-8.438066000000001,5.58205,-1.9908701,1000.2931,0,0
5.4,-7.7116,5.5820513,-2.166049,1000.29095,0,0
5.44,-7.463114,5.272227,-2.1849923,1000.2906,0,0
5.48,-8.208826,5.1339984,-2.0382314,1000.30347,0,0
5.52,-7.7213454,5.167366,-2.2418165,1000.31604,0,0
5.56,-7.989082000000002,5.2531652,-2.137666,1000.3361,0,0
5.6,-7.7358117,5.4295297,-2.4548764,1000.311,0,0
5.64,-7.759774,5.63926,-2.4264758,1000.30865,0,0
5.68,-7.726375,5.577296,-2.5117004,1000.31616,0,0
5.72,-7.592608,5.4057016,-2.4690971,1000.3313,0,0
5.76,-7.912914,5.1483088,-2.3791487,1000.2887,0,0
5.8,-8.008574000000001,5.0291467,-2.360217,1000.28107,0,0
5.84,-8.113789,5.0434480000000015,-2.4123008,1000.29114,0,0
5.88,-7.860527,5.281777,-2.0951018,1000.2941,0,0
5.92,-7.793665,5.1721477999999985,-2.2466078,1000.30396,0,0
5.96,-7.736371000000001,5.305613,-2.2276762000000003,1000.3014,0,0
6.0,-8.510766,4.743160700000002,-2.1329942,1000.3193,0,0
6.04,0.8723912,9.635162,0.82509226,1000.38715,0,0
6.08,4.019348600000002,5.7819805,8.028119,1000.4276,0,0
6.12,3.6614535,5.581770400000001,8.567896000000001,1000.43835,0,0
6.16,3.6327116,5.853466,7.8056507,1000.4388,0,0
6.2,3.5227084000000004,5.9726315,8.298022,1000.40656,0,0
6.24,3.455732,6.067964,7.8577175000000015,1000.3894,0,0
6.28,3.8189378,6.7114509999999985,8.672029499999999,1000.3873,0,0
6.32,3.9813838,7.0880103000000005,8.326412,1000.40265,0,0
6.36,5.453504,7.764863,11.11497,1000.4204,0,0
6.4,7.6617136,9.213898,14.722581,1000.4714,0,0
6.44,7.0402717999999975,9.514193,10.475815,1000.37646,0,0
6.48,7.131025,8.012729,12.274881,1000.37964,0,0
6.52,3.0585723,5.195695,5.5236160000000005,1000.3369,0,0
6.56,0.9697385,3.0793452,3.809756,1000.31506,0,0
6.6,-2.1897793,0.82953215,0.90282536,1000.313,0,0
6.64,-4.751809,3.365342,6.655122,1000.3207,0,0
6.68,-5.918145,2.0307071,0.8649392,1000.3159,0,0
6.72,-8.441949000000001,2.2738035,-0.3660122,1000.32654,0,0
6.76,-9.20678,3.0173879,-0.44650286,1000.34937,0,0
6.8,-9.096908,2.926825,-2.3402705000000004,1000.3294,0,0
6.84,-9.345514,3.508346,-1.9047105,1000.33997,0,0
6.88,-9.431618,3.1651556,-1.8763102,1000.37836,0,0
6.92,-8.5569725,4.1375346,-3.3818562000000005,1000.3884,0,0
6.96,-8.96332,3.5893824,-0.35184306,1000.3986,0,0
7.0,-8.055221000000001,3.8086452,-1.6727477,1000.3943,0,0
7.04,-8.241696000000001,4.2519364,-1.7485042000000002,1000.38434,0,0
7.08,-8.11748,5.067019,-2.141465,1000.4073,0,0
7.12,-8.797630999999997,4.466468,-2.6529105,1000.37006,0,0
7.16,-8.597002,4.3711400000000005,-1.904886,1000.3704,0,0
7.2,-8.214728,4.7381673,-3.1737165000000003,1000.36316,0,0
7.24,-7.8229012,5.124261,-1.0101042,1000.37836,0,0
7.28,-7.794332000000002,4.9002357000000005,-0.7213155,1000.39166,0,0
7.32,-7.9856479999999985,4.795374400000001,-1.1237513,1000.3868,0,0
7.36,-8.468525,4.9431405,-2.667178,1000.36707,0,0
7.4,-8.698065,5.000342,-3.2305818,1000.4075,0,0
7.44,-8.105478,5.1481080000000015,-2.3547272999999995,1000.4178,0,0
7.48,-7.030146,5.348306,-2.2221754,1000.383,0,0
7.52,-7.7472267000000015,5.162413,-2.3168733,1000.35535,0,0
7.56,-7.7329965,5.0527854,-2.4447122,1000.3406,0,0
7.6,-7.866955,5.443646,-2.1369874,1000.3537,0,0
7.64,-7.714110400000001,5.291119,-2.3500457000000003,1000.3588,0,0
7.68,-7.8289356,5.0909260000000005,-2.1417415,1000.3467,0,0
7.72,-7.953334,4.9717655,-2.539443,1000.3319,0,0
7.76,-7.7765985,5.3530927,-1.8908404,1000.33514,0,0
7.8,-7.991805999999999,5.753486,-2.1654465,1000.29724,0,0
7.84,-7.599972,6.0966809999999985,-2.619959,1000.3354,0,0
7.88,-7.6861243,5.65816,-2.326437,1000.3408,0,0
7.92,-7.6002054,5.7439620000000025,-2.1039307000000003,1000.31573,0,0
7.96,-7.7819467000000015,5.453204,-1.9240333,1000.33105,0,0
8.0,-7.6004314,5.7487335,-1.8482934,1000.32874,0,0
8.04,-7.485825,5.519942,-2.1134303,1000.32153,0,0
8.08,-7.810975599999999,5.6295753,-2.1702545,1000.3593,0,0
8.12,-7.687166,5.696319,-2.0377333,1000.3472,0,0
8.16,-7.596488499999999,5.648656,-2.1040282,1000.3372,0,0
8.2,-7.892958599999999,5.4770629999999985,-2.0708983,1000.3625,0,0
8.24,-7.86919,5.539032,-2.0377693,1000.3678,0,0
8.28,-7.5920844,5.848861,-2.0188427,1000.33795,0,0
8.32,-7.960252,5.662969,-1.9999168,1000.33044,0,0
8.36,-7.673594500000001,5.829801,-1.9194437,1000.3584,0,0
8.4,-7.477761,5.7630725,-2.0993638,1000.3459,0,0
8.44,-7.793350699999999,5.5295143,-2.042562,1000.33124,0,0
8.48,-7.9990039999999984,5.286423,-2.0046983,1000.34424,0,0
8.52,-7.850961,5.462789,-1.9810381,1000.35187,0,0
8.56,-7.62167,5.3054957,-1.9100348000000005,1000.3721,0,0
8.6,-8.123695,5.1863356,-1.8863761000000003,1000.34955,0,0
8.64,-7.966100999999999,5.334102,-1.9810771,1000.3575,0,0
8.68,-7.712869,5.2340074,-1.8485225,1000.3577,0,0
8.72,-7.9759135,5.4580392999999985,-1.9100841,1000.35785,0,0
8.76,-7.8326506999999985,5.4532757000000025,-1.9527055,1000.3579,0,0
8.8,-7.722846,5.5104775,-1.9195768,1000.35815,0,0
8.84,-7.8280997,5.3960824,-2.1184306,1000.3808,0,0
8.88,-7.6657160000000015,5.400852,-1.805972,1000.32355,0,0
8.92,-7.9956703,5.410389,-1.8864702,1000.3237,0,0
8.96,-7.8810850000000015,5.4246917,-1.848607,1000.2862,0,0
9.0,-8.497777000000001,5.7249875,-2.094805,1000.28894,0,0
9.04,-7.498962,5.6487265,-1.6119107,1000.26135,0,0
9.08,-7.3635564,5.281663,-1.6827829,1000.2968,0,0
9.12,-8.190529,4.8574410000000015,-2.0047286,1000.294,0,0
9.16,-7.9946156,5.0052056,-1.8816392,1000.31464,0,0
9.2,-7.965994999999999,5.243535,-1.7443468999999998,1000.3121,0,0
9.24,-8.066432,5.6629934,-2.04262,1000.27466,0,0
9.28,-7.8800817,5.4675665,-2.0284226000000003,1000.335,0,0
9.32,-7.961400999999999,5.3960695,-2.118382,1000.33527,0,0
9.36,-8.066618,5.2149415,-2.0000277,1000.28754,0,0
9.4,-7.8850446,5.3627067,-2.118393,1000.3104,0,0
9.44,-7.9185658,5.009983,-2.22729,1000.313,0,0
9.48,-8.143263000000001,5.214946,-2.1846845,1000.2733,0,0
9.52,-8.052524,5.172049,-2.0284564,1000.26825,0,0
9.56,-7.904412700000001,5.305514,-2.156291,1000.2911,0,0
9.6,-8.023966,5.2673826,-2.3314693,1000.26373,0,0
9.64,-7.9284163,5.2816834,-2.525584,1000.2839,0,0
9.68,-7.832894299999999,5.1386886,-1.8817117,1000.29913,0,0
9.72,-7.8329606,5.381785,-2.478253,1000.3115,0,0
9.76,-8.000311,5.291221599999999,-2.4214456,1000.3093,0,0
9.8,-7.7088056,5.3531885,-2.2746847000000003,1000.31683,0,0
9.84,-7.8857164000000015,5.2340264,-2.3835812,1000.29944,0,0
9.88,-7.7137094,5.28646,-2.3267744,1000.30444,0,0
9.92,-7.8380427,5.157764,-2.28417,1000.29956,0,0
9.96,-7.780742999999997,5.3436613,-2.3457227,1000.3322,0,0
10.0,-7.795145,5.329363,-2.2178993,1000.33246,0,0
10.04,-7.95772,5.372264,-2.4309533,1000.29486,0,0
10.08,-7.828972999999999,5.2388077000000015,-2.3931062,1000.3179,0,0
10.12,-7.824265,5.2483425000000015,-2.3505032000000003,1000.2874,0,0
10.16,-7.986846400000001,5.1482462999999985,-2.3978534,1000.3102,0,0
10.2,-7.790951,5.324611,-2.2510939,1000.2852,0,0
10.24,-7.652409,5.2960129999999985,-2.2368972,1000.3183,0,0
10.28,-7.977503299999999,5.2197504,-2.359998,1000.2931,0,0
10.32,-7.9393425,5.362749,-2.3173952,1000.2933,0,0
10.36,-7.910725599999999,5.324618,-2.3884172,1000.283,0,0
10.4,-7.7769637,5.424717,-2.4215648,1000.2983,0,0
10.44,-7.8104997,5.419953,-2.5494006,1000.30615,0,0
10.48,-7.557237599999999,5.4056544,-2.421578,1000.2987,0,0
10.52,-7.461709,5.586786,-2.3458335,1000.276,0,0
10.56,-7.5717216,5.653519,-2.492607,1000.324,0,0
10.6,-7.6865,5.5486565,-2.4547380000000003,1000.3014,0,0
10.64,-7.710476,5.5057589999999985,-2.5210266,1000.30646,0,0
10.68,-7.5002365000000015,5.610625700000001,-2.6393933,1000.29895,0,0
10.72,-7.6628175,5.4914627000000005,-2.6062586,1000.3169,0,0
10.76,-7.6772246,5.458099,-2.5068421,1000.31195,0,0
10.8,-7.5769258000000015,5.448567400000001,-2.3600826,1000.27686,0,0
10.84,-7.911583999999999,5.4104366,-2.2322602,1000.2995,0,0
10.88,-7.830399499999999,5.424738,-2.1707196,1000.3121,0,0
10.92,-7.840027,5.6964335,-1.995553,1000.29755,0,0
10.96,-7.820983999999997,5.5915713,-2.303296,1000.3148,0,0
11.0,-7.7493505,5.558207,-2.2985678,1000.29486,0,0
11.04,-7.4578547,5.405679,-2.350653,1000.29755,0,0
11.08,-7.3573309999999985,5.448574,-2.492671,1000.31757,0,0
11.12,-8.256001,5.386611,-2.3411765,1000.2724,0,0
11.16,-8.12223,5.5582085,-2.5779026000000003,1000.3204,0,0
11.2,-7.405314999999999,5.5057774,-2.4737508,1000.34827,0,0
11.24,-7.305011,5.3532495,-2.435882,1000.3304,0,0
11.28,-7.687454700000001,5.2054873,-2.5069036,1000.3307,0,0
11.32,-7.405505000000002,5.4199843,-2.2749233,1000.263,0,0
11.36,-7.9648023,5.396153,-2.2228503,1000.2855,0,0
11.4,-8.438066000000001,5.58205,-1.9908701,1000.2931,0,0
11.44,-7.7116,5.5820513,-2.166049,1000.29095,0,0
11.48,-7.463114,5.272227,-2.1849923,1000.2906,0,0
11.52,-8.208826,5.1339984,-2.0382314,1000.30347,0,0
11.56,-7.7213454,5.167366,-2.2418165,1000.31604,0,0
11.6,-7.989082000000002,5.2531652,-2.137666,1000.3361,0,0
11.64,-7.7358117,5.4295297,-2.4548764,1000.311,0,0
11.68,-7.759774,5.63926,-2.4264758,1000.30865,0,0
11.72,-7.726375,5.577296,-2.5117004,1000.31616,0,0
11.76,-7.592608,5.4057016,-2.4690971,1000.3313,0,0
11.8,-7.912914,5.1483088,-2.3791487,1000.2887,0,0
11.84,-8.008574000000001,5.0291467,-2.360217,1000.28107,0,0
11.88,-8.113789,5.0434480000000015,-2.4123008,1000.29114,0,0
11.92,-7.860527,5.281777,-2.0951018,1000.2941,0,0
11.96,-7.793665,5.1721477999999985,-2.2466078,1000.30396,0,0
12.0,-7.736371000000001,5.305613,-2.2276762000000003,1000.3014,0,0
12.04,-8.510766,4.743160700000002,-2.1329942,1000.3193,0,0
12.08,-8.486927,4.8432603,-2.076187,1000.3293,0,0
12.12,-8.534788,4.652599,-1.7353154,1000.30646,0,0
12.16,-8.869438,4.819430400000001,-2.1235425,1000.2914,0,0
12.2,-8.67353,4.91953,-1.7447958,1000.31177,0,0
12.24,-7.6602716,5.4915175000000005,-1.2050792,1000.29425,0,0
12.28,-7.593417,5.3818884,-1.3565858999999998,1000.31213,0,0
12.32,-7.746434700000001,5.324692,-1.3660605,1000.2997,0,0
12.36,-8.162341,5.1387973,-1.5933177,1000.2791,0,0
12.4,-8.224538,5.1387987,-1.6785426,1000.32214,0,0
12.44,-8.18158,5.248431,-1.4370934,1000.3222,0,0
12.48,-8.616608,5.0101047,-1.2666608999999998,1000.30206,0,0
12.52,-8.353779,5.2198353,-1.2808696000000002,1000.34247,0,0
12.56,-8.372225,5.2817836,-1.432309,1000.2948,0,0
12.6,-7.9755397,5.34375,-1.2003266,1000.28467,0,0
12.64,-7.851309,5.2388864,-1.4417853,1000.2798,0,0
12.68,-8.0138645,5.1101904000000005,-1.2240065,1000.3198,0,0
12.72,-7.8513927,5.148324,-1.1056502,1000.31995,0,0
12.76,-8.085649,4.952896,-0.8405277,1000.3148,0,0
12.8,-8.262544,5.124493,-1.219284,1000.3202,0,0
12.84,-8.640183,5.057762599999998,-0.8784101000000001,1000.3076,0,0
12.88,-8.606773,4.9624324,-0.35289562,1000.33276,0,0
12.92,-8.286571,4.900468,-0.030960051,1000.31537,0,0
12.96,-8.219696,4.8099045999999985,-0.3907788,1000.31287,0,0
13.0,-8.506525,4.6955085,-0.7648005,1000.28754,0,0
13.04,-8.272355000000001,4.6478443,-1.1009468999999998,1000.32294,0,0
13.08,-8.869874000000003,4.6573777000000005,-1.1104196000000002,1000.3255,0,0
13.12,-8.659608,4.5811142999999985,-1.3471441000000002,1000.30786,0,0
13.16,-8.736125999999999,4.7288785,-0.86423844,1000.3129,0,0
13.2,-8.267748,5.0339394,-0.86897695,1000.3356,0,0
13.24,-7.8949669999999985,5.3199334,-0.94473124,1000.33057,0,0
13.28,-7.928465400000001,5.3390010000000006,-0.8642501,1000.32294,0,0
13.32,-8.5929,5.1245065,-0.9447389,1000.30316,0,0
13.36,-8.124524000000001,5.0434766,-1.1577911,1000.3182,0,0
13.4,-8.487829,4.9386134,-1.0110283000000002,1000.2881,0,0
13.44,-8.244106,5.0148790000000005,-1.1293926,1000.3335,0,0
13.48,-8.263264999999999,4.9386153,-0.9873642,1000.3259,0,0
13.52,-8.425818,4.8718843000000005,-1.1483377,1000.3084,0,0
13.56,-8.205991000000001,5.0053496,-0.88794947,1000.33374,0,0
13.6,-8.368545,4.967217400000001,-0.98264116,1000.3134,0,0
13.64,-8.3446865,5.04825,-0.8548159,1000.32874,0,0
13.68,-8.363852,4.9815190000000005,-1.0915405,1000.2984,0,0
13.72,-8.182260000000001,5.138817,-0.91637105,1000.30865,0,0
13.76,-8.206204,5.0768533,-0.90690655,1000.32367,0,0
13.8,-8.335298,5.1006866,-1.0962862,1000.3159,0,0
13.84,-8.120249000000001,5.148353,-1.0726181,1000.3364,0,0
13.88,-8.306704,4.991058,-1.1483723999999995,1000.34125,0,0
13.92,-8.25895,5.0530243,-1.2714709,1000.3215,0,0
13.96,-8.325907,5.0577917,-1.1578488,1000.3261,1,1
14.0,-8.115639,5.067326,-1.0110865,1000.3366,1,1
14.04,-8.192159,5.0625606,-0.92113656,1000.3416,1,1
14.08,-8.087049,5.029196,-1.0773761,1000.3011,1,1
14.12,-8.201802,4.895733,-1.0489731000000002,1000.3339,1,1
14.16,-8.545994,4.843302,-1.3235728999999998,1000.30615,1,1
14.2,-8.307043,5.029199,-1.3472483999999998,1000.30896,1,1
14.24,-8.063314,5.1245303,-1.1247353999999998,1000.34155,1,1
14.28,-8.168516,5.048267,-1.1957555,1000.31885,1,1
14.32,-8.221133,4.8814387,-1.484558,1000.30896,1,1
14.36,-8.006085,4.929105,-1.134216,1000.3116,1,1
14.4,-8.732656500000001,4.819475,-1.1247507,1000.3366,1,1
14.44,-10.085386,4.728912,-0.67025214,1000.32385,1,1
14.48,-9.693486,5.3437986,-0.18261237,1000.3367,1,1
14.52,-8.536814,6.092149,0.34290284,1000.3392,1,1
14.56,-7.384419,6.4305629999999985,0.20091306,1000.31903,1,1
14.6,-7.264945,5.820444599999999,-0.21571651,1000.3192,1,1
14.64,-7.3127675,5.048262599999998,-0.8832698,1000.3141,1,1
14.68,-7.2649894,4.380945,-1.0253038,1000.3142,1,1
14.72,-7.872047,4.619274,-0.32934840000000004,1000.3142,1,1
14.76,-7.594842999999999,5.119763,-0.10209917,1000.3142,1,1
14.8,-7.5566263,6.1970053,0.12988472,1000.32916,1,1
14.84,-7.8816757,6.630762599999999,-0.42404273,1000.3216,1,1
14.88,-8.08245,7.8557679999999985,0.29085028,1000.32404,1,1
14.92,-7.700087,8.036899,-0.44298443,1000.3192,1,1
14.96,-8.044255999999999,7.6365075,-0.589753,1000.3066,1,1
15.0,-7.7861695000000015,6.7403955,-1.5034952,1000.3117,1,1
15.04,-7.561539999999999,5.6726870000000025,-1.9201248,1000.30414,1,1
15.08,-7.618919,4.857607,-1.7402194,1000.2941,1,1
15.12,-6.591284299999999,4.538247599999999,-1.8301752,1000.3243,1,1
15.16,-6.6295470000000005,4.3428197,-2.5024629000000003,1000.2965,1,1
15.2,-7.1649065,4.3380537000000015,-2.4503863,1000.3017,1,1
15.24,-7.853223,4.481051,-2.7723281,1000.3142,1,1
15.28,-8.135252000000001,4.8004107000000005,-2.4503906000000004,1000.30963,1,1
15.32,-7.9870996,5.2866,-1.9012015,1000.32465,1,1
15.36,-8.192654,5.88242,-1.882266,1000.34686,1,1
15.4,-9.07694,6.3114104000000015,-1.2289203000000002,1000.32715,1,1
15.44,-7.996726,6.6975026,-1.4703768,1000.2916,1,1
15.48,-10.009046,6.9119983,-1.0584857,1000.34973,1,1
15.52,-12.021368,6.1827154,0.59381926,1000.3268,1,1
15.56,-7.2694106,6.859546000000001,-0.5565649,1000.32465,1,1
15.6,-6.4998510000000005,6.625984,1.019993,1000.3243,1,1
15.64,-6.824867,6.154095,1.4650279,1000.32214,1,1
15.68,-7.369753,5.8013697,-0.13046543,1000.29706,1,1
15.72,-7.5609350000000015,5.6011744000000006,-0.4571384,1000.282,1,1
15.76,-6.63842,5.6393065,0.23882023,1000.3195,1,1
15.8,-6.5045753,5.686971,0.12046109,1000.2992,1,1
15.84,-6.820031,5.634539,-0.85482514,1000.3198,1,1
15.88,-6.5523504999999975,6.1540933,-0.0026313440000000003,1000.3073,1,1
15.92,-6.3372483,6.5497174000000005,0.66492075,1000.3245,1,1
15.96,-6.2607613,6.9262753,-0.10205188,1000.3145,1,1
16.0,-7.278846700000001,7.050205,-0.6512416999999999,1000.322,1,1
16.04,-8.8083725,6.702246700000001,-0.69385034,1000.3525,1,1
16.08,-10.51953,6.230357,-2.4645166,1000.29663,1,1
16.12,-10.127576,5.8442655,-3.5581629999999995,1000.2948,1,1
16.16,-7.4556556,5.8061333,-1.8443075,1000.34247,1,1
16.2,-6.088617299999999,5.553505,-0.19673352,1000.3625,1,1
16.24,-6.3275986,5.157881,-0.53760976,1000.3396,1,1
16.28,-6.786449,5.0005846,-1.2714415,1000.3424,1,1
16.32,-6.795996700000001,5.005350599999999,-2.0100079,1000.3049,1,1
16.36,-7.321764,5.0625486,-1.8064274,1000.33496,1,1
16.4,-8.172557000000001,5.1245136,-1.195688,1000.3149,1,1
16.44,-7.575072299999999,5.9300612999999975,-1.148343,1000.30695,1,1
16.48,-7.8475094,6.492515,-0.5376036,1000.3477,1,1
16.52,-8.354157,6.3018519999999985,-1.0063087,1000.3299,1,1
16.56,-7.1787243,7.0740447,-1.6880995,1000.3199,1,1
16.6,-10.911756,6.230364,-0.40981072,1000.3422,1,1
16.64,-11.753006,6.297096,0.36663124,1000.36975,1,1
16.68,-7.6615,6.7260866,0.24827063,1000.33246,1,1
16.72,-7.981751400000001,6.244664,1.1951512,1000.3399,1,1
16.76,-7.4464183,5.9586706,1.3087763,1000.3299,1,1
16.8,-6.772471,5.601179,0.16304997,1000.3199,1,1
16.84,-7.068823299999999,5.1340566,0.85900706,1000.332,1,1
16.88,-6.4044360000000005,5.0053595999999985,0.77852166,1000.3299,1,1
16.92,-6.146332,5.238921,0.092032544,1000.34247,1,1
16.96,-6.762931299999999,5.43435,0.56547254,1000.3146,1,1
17.0,-6.500047,6.0635357,0.73117626,1000.3224,1,1
17.04,-6.8394179999999976,6.425794000000002,0.8684735999999998,1000.3145,1,1
17.08,-7.66155,7.078812599999999,0.39503258,1000.3149,1,1
17.12,-8.564936999999999,7.49827,0.6601588,1000.34247,1,1
17.16,-9.817251,7.4839699999999985,-0.3009258,1000.30457,1,1
17.2,-9.659523,7.1598444,-2.1331408,1000.2945,1,1
17.24,-6.987617,6.740387400000001,-1.9153587,1000.3049,1,1
17.28,-6.385367,6.006338,-0.8974622,1000.33246,1,1
17.32,-7.843211699999999,5.482017,-0.6749456,1000.3149,1,1
17.36,-7.5038505,5.095926,-1.5082011999999998,1000.3174,1,1
17.4,-7.1310315000000015,5.072093,-1.673906,1000.3274,1,1
17.44,-7.226632,4.943396,-1.2998883999999995,1000.3099,1,1
17.48,-7.4082694,4.995828,-1.2856855,1000.36005,1,1
17.52,-7.8575754,4.857599,-0.50924367,1000.32745,1,1
17.56,-7.303281299999999,5.710816,-1.0631839,1000.3198,1,1
17.6,-8.08718,6.27327,-0.68916696,1000.335,1,1
17.64,-7.733487599999999,6.659362,-1.5176889999999998,1000.30457,1,1
17.68,-8.044185,6.5735636,-2.0952873,1000.2894,1,1
17.72,-10.137749,6.630762599999999,-0.5944818000000001,1000.37756,1,1
17.76,-10.768695,5.972978,-0.5897485,1000.3396,1,1
17.8,-7.351147,6.130275,-2.2657287,1000.282,1,1
17.84,-7.6475053,5.8490480000000025,0.13934769,1000.3475,1,1
17.88,-7.523242,5.8109160000000015,0.5038959,1000.3449,1,1
17.92,-7.537592999999997,5.4629574,-1.0158491,1000.3098,1,1
17.96,-7.2221375,5.710819,0.07779731599999999,1000.30695,1,1
18.0,-6.4478207,5.777551,0.035186604,1000.3424,1,1
18.04,-6.944934,5.4820247,-0.7033818000000001,1000.3174,1,1
18.08,-7.7240524000000015,4.7575083,-0.4524593,1000.3224,1,1
18.12,-5.9077395999999975,5.815684,-0.5092733,1000.3073,1,1
18.16,-6.897167,5.6250224,-0.5992276999999999,1000.32733,1,1
18.2,-8.025211,5.858584,-1.2383734,1000.3099,1,1
18.24,-9.253632,5.7680197,-2.2515368,1000.36005,1,1
18.28,-8.077812,5.9205494000000005,-0.45246422,1000.3804,1,1
18.32,-8.302472999999999,5.715588,-1.536644,1000.3475,1,1
18.36,-10.611132,6.244676,-1.8964598,1000.2873,1,1
18.4,-9.377952,6.3495407,-2.2846818,1000.3302,1,1
18.44,-7.4325839999999985,6.435339,-2.4503872,1000.3073,1,1
18.48,-7.652469,6.340008,-2.2468088,1000.3402,1,1
18.52,-7.934486,5.8347535000000015,-3.1416125,1000.4102,1,1
18.56,-6.572096000000001,5.9539137,-2.2231245,1000.36755,1,1
18.6,-5.87425,5.9062480000000015,-2.6255493,1000.3224,1,1
18.64,-6.9879475000000015,5.8967147,-2.7581130000000003,1000.3048,0,0
18.68,-6.9210362000000005,5.9014816,-3.4446023,1000.28973,0,0
18.72,-6.395263,6.020646,-2.9616935,1000.2549,0,0
18.76,-7.781411,6.096911,-0.69391406,1000.3249,0,0
18.8,-6.600803,5.896715,-0.8596185,1000.2945,0,0
18.84,-7.408596000000001,5.734653,-2.6776304,1000.2745,0,0
18.88,-8.507956,5.310429599999999,-2.199456,1000.345,0,0
18.92,-8.187714,5.28183,-2.2136595000000003,1000.33246,0,0
18.96,-7.6189227,5.339029,-1.6265941000000002,1000.33966,0,0
19.0,-7.977413,5.2198660000000014,-1.7686267,1000.3525,0,0
19.04,-8.077794,4.6288123,-1.6834078999999995,1000.33997,0,0
19.08,-8.856907000000003,4.304686,-1.5697826,1000.3223,0,0
19.12,-8.885591,4.45245,-1.5319077,1000.3628,0,0
19.16,-8.312018,4.6526456,-1.5697834,1000.33746,0,0
19.2,-8.445858,4.8337746,-1.2809852,1000.37006,0,0
19.24,-9.03378,4.7813425,-1.68341,1000.3525,0,0
19.28,-8.646621000000001,4.1998224,-1.7496923,1000.3701,0,0
19.32,-8.503231,4.3523526,-1.4324876,1000.3174,0,0
19.36,-8.226007000000001,4.428618,-1.6265987,1000.33746,0,0
19.4,-8.312049,4.404785,-1.7212870999999998,1000.3174,0,0
19.44,-8.756575999999999,4.1664577000000005,-1.806507,1000.3173,0,0
19.48,-8.613187,4.1998234000000005,-1.8680546,1000.3173,0,0
19.52,-8.3981,4.3094544,-1.6313348,1000.33746,0,0
19.56,-8.3598995,4.423853,-1.8775274,1000.32996,0,0
19.6,-8.493739,4.595449,-1.7496988999999998,1000.33246,0,0
19.64,-8.345572,4.404787000000002,-1.7828403999999998,1000.3223,0,0
19.68,-8.293,4.4619860000000005,-1.7875754,1000.3149,0,0
19.72,-8.7709875,4.6145153,-1.9154047,1000.3201,0,0
19.76,-8.125719,4.8051777,-2.0337656,1000.3201,0,0
19.8,-8.50811,4.724147,-1.7260297999999998,1000.3076,0,0
19.84,-8.006236999999999,4.8385440000000015,-1.7828432,1000.2975,0,0
19.88,-8.034923,5.0196733,-2.0479703,1000.3152,0,0
19.92,-7.8580755999999985,5.391465,-2.3604414,1000.285,0,0
19.96,-7.877200999999999,4.919576,-1.5934687,1000.32294,0,0
20.0,-9.311149,4.233192,-1.2383889,1000.32794,0,0
20.04,-9.119962,4.07113,-0.63712007,1000.34015,0,0
20.08,-7.590431,4.686015599999998,-1.6313455,1000.3229,0,0
20.12,-8.446022,4.447687,-1.5650645,1000.3154,0,0
20.16,-8.814074,4.385722,-1.4325018,1000.34045,0,0
20.2,-8.7854,4.5287194,-1.7923169999999995,1000.34045,0,0
20.24,-8.728049,4.862378,-1.4419718,1000.3455,0,0
20.28,-8.522524,4.9148107,-1.5508636,1000.33575,0,0
20.32,-8.154486,5.2055707,-1.6218803,1000.348,0,0
20.36,-7.862924,4.95771,-1.9012105,1000.34076,0,0
20.4,-8.627697999999999,4.8623786,-1.6408189999999998,1000.3508,0,0
20.44,-8.340917,4.881446,-1.4798497,1000.3257,0,0
20.48,-8.302685,4.919578,-1.5887417,1000.3282,0,0
20.52,-7.9920034,4.5287204,-1.806525,1000.33826,0,0
20.56,-8.790331,4.457225,-1.5650796,1000.3257,0,0
20.6,-9.387818,4.4000263,-1.4514548,1000.3411,0,0
20.64,-8.288472,4.6478877,-1.6787071,1000.2956,0,0
20.68,-8.317162,4.795651,-1.1389858999999998,1000.2906,0,0
20.72,-7.8678713,5.105478,-1.1342524,1000.331,0,0
20.76,-7.910897999999999,5.134077,-2.0148525,1000.3386,0,0
20.8,-8.498824,5.0149136,-1.7970707,1000.3213,0,0
20.84,-7.5380945000000015,5.3676386,-1.5414139,1000.3414,0,0
20.88,-8.102121,4.9005165,-1.1910689,1000.3238,0,0
20.92,-8.293322,5.262775,-1.5982287,1000.336,0,0
20.96,-7.829692,5.5916677,-1.8302152,1000.36145,0,0
21.0,-7.805802000000001,5.6440997,-1.6455743000000005,1000.3564,0,0
21.04,-8.025683,5.5201699999999985,-2.0290623,1000.31866,0,0
21.08,-7.662428999999999,5.3152084,-1.7260612000000002,1000.3112,0,0
21.12,-7.9444466,5.3914733,-1.9675164,1000.32117,0,0
21.16,-7.829741999999999,5.167445,-2.0906122,1000.3366,0,0
21.2,-7.791514,5.196045,-2.0148625,1000.3013,0,0
21.24,-7.686367,5.8299970000000005,-2.2279117000000004,1000.29895,0,0
21.28,-7.4856253,6.1350574,-2.2989287,1000.33136,0,0
21.32,-7.260985000000002,5.806165,-1.7544732,1000.32385,0,0
21.36,-7.968406,5.2580113,-1.7970836,1000.3088,0,0
21.4,-7.88238,5.563071,-2.0574768,1000.3341,0,0
21.44,-7.6768584,5.9920616,-2.2326508,1000.32904,0,0
21.48,-7.409198299999999,6.206557,-2.2326517000000003,1000.33936,0,0
21.52,-6.7830534,6.1779575,-2.0196042000000003,1000.3064,0,0
21.56,-7.7576046,5.8252196,-2.242073,1000.3241,0,0
21.6,-7.896209,5.524926,-2.2089312000000003,1000.34155,0,0
21.64,-7.34174,5.663156,-1.7828336,1000.3215,0,0
21.68,-7.676315299999999,5.5249257000000025,-1.7686293999999998,1000.3195,0,0
21.72,-7.9344125,5.76802,-1.7260185,1000.37213,0,0
21.76,-7.9248433,5.7966190000000015,-1.4987663,1000.3346,0,0
21.8,-7.638044,5.911016,-1.7780951,1000.35693,0,0
21.84,-7.8818025999999985,5.5249248,-1.6928748,1000.322,0,0
21.88,-8.699137,5.148366,-1.7402177,1000.3248,0,0
21.92,-8.369319,5.2675295,-1.5981846000000002,1000.2972,0,0
21.96,-7.6953554,5.748952,-1.404073,1000.3196,0,0
22.0,-6.538632,5.8347497000000015,-1.1815549,1000.3394,0,0
22.04,-6.7106943,5.582122,-1.1957572,1000.312,0,0
22.08,-8.21632,5.0292005999999985,-1.6076493,1000.29694,0,0
22.12,-9.568994,5.4677243,-1.4466785,1000.30975,0,0
22.16,-8.187617999999999,6.1541076,-1.8964459,1000.33734,0,0
22.2,-7.41328,5.925313,-1.759147,1000.33484,0,0
22.24,-7.709617,5.4915557,-1.3377842,1000.3244,0,0
22.28,-8.058532000000001,4.7479725,-1.2715014,1000.3271,0,0
22.32,-8.393105499999999,4.6860075,-1.1720779,1000.3522,0,0
22.36,-8.326178,4.805171,-1.1815457,1000.3449,0,0
22.4,-8.378743,5.1483626,-1.162607,1000.3148,0,0
22.44,-7.676101700000001,5.486788,-1.6407808999999998,1000.3222,0,0
22.48,-8.173189,5.4534216,-1.9248441000000005,1000.3398,0,0
22.52,-7.9819865,5.176961,-1.7212638,1000.31006,0,0
22.56,-8.202639999999999,4.7336903,-2.1805725,1000.3274,0,0
22.6,-8.12618,4.700325,-1.8349626,1000.31506,0,0
22.64,-8.240916,4.6955585,-1.8681054,1000.31757,0,0
22.68,-8.293512,4.6526604,-2.1095617,1000.3204,0,0
22.72,-8.312652,4.614528,-1.7828896,1000.34033,0,0
22.76,-8.16928,4.523964,-1.7781571,1000.3276,0,0
22.8,-8.432188,4.6955605,-2.1947865,1000.3251,0,0
22.84,-8.556483,4.9672550000000015,-2.1143036,1000.3305,0,0
22.88,-8.1358795,4.881458,-2.0811644,1000.32275,0,0
22.92,-8.284074,4.5811652999999986,-1.8633837,1000.33307,0,0
22.96,-8.561324,4.071144,-2.1663876,1000.33276,0,0
23.0,-8.542223,4.0044127,-2.0054195,1000.31006,0,0
23.04,-8.781232000000001,4.185542,-2.1900630000000003,1000.338,0,0
23.08,-7.978246,4.705097,-2.0717046000000003,1000.3231,0,0
23.12,-8.441908999999999,4.371439499999998,-1.9864874,1000.33795,0,0
23.16,-8.446707,4.4810705,-2.4646642000000005,1000.33307,0,0
23.2,-8.484967,4.514437,-2.3747122000000003,1000.3231,0,0
23.24,-8.375051,4.7050996,-2.0859153000000004,1000.3204,0,0
23.28,-8.174318,4.833797,-1.9154786,1000.32794,0,0
23.32,-8.15044,4.771832,-2.2326856,1000.3029,0,0
23.36,-8.174357,4.6431355000000005,-1.948623,1000.3332,0,0
23.4,-8.575883000000001,4.5192055999999985,-2.14747,1000.3105,0,0
23.44,-8.150499,4.929130000000002,-1.8965482,1000.3105,0,0
23.48,-8.231776,5.1483919999999985,-2.142739,1000.34296,0,0
23.52,-7.8541919999999985,5.134093,-2.1238034,1000.35297,0,0
23.56,-8.174935000000001,4.805213,-1.972348,1000.34863,0,0
23.6,-8.294467,4.790914,-2.0717738000000003,1000.3608,0,0
23.64,-8.112871,4.9291453,-2.0433707,1000.33795,0,0
23.68,-8.098571000000002,4.9434457,-2.2043443,1000.3608,0,0
23.72,-8.218108,4.8433495,-1.8918774,1000.3131,0,0
23.76,-8.246824,4.962514,-1.9486933,1000.3256,0,0
23.8,-8.275542,4.881483599999998,-1.8729466,1000.3661,0,0
23.84,-8.347278999999999,4.7813870000000005,-1.9250288,1000.34357,0,0
23.88,-8.266058000000001,4.8576527,-1.9155631,1000.36096,0,0
23.92,-8.347355,4.7813888,-1.707253,1000.34106,0,0
23.96,-8.729775,4.5907269999999984,-1.830351,1000.34814,0,0
24.0,-8.500387,4.666993,-1.5084152,1000.3257,0,0
24.04,-8.218411999999999,4.352401,-1.6409817999999998,1000.3435,1,2
24.08,-8.118079,4.0902414,-1.5368286,1000.3511,1,2
24.12,-8.132458,3.9424798,-1.1202046,1000.3566,1,2
24.16,-8.165956,4.1665087,-0.7982686999999999,1000.3589,1,2
24.2,-8.381084,3.9567811,-0.68464637,1000.33875,1,2
24.24,-8.524517,4.128378,-0.7746036999999999,1000.3488,1,2
24.28,-8.648831,4.033048,-0.9261082,1000.3513,1,2
24.32,-8.3573,4.1760454,-0.8456268,1000.3463,1,2
24.36,-7.7455254,5.286654,-0.5236907000000001,1000.3414,1,2
24.4,-8.782779,5.8538747,-1.4184966,1000.3463,1,2
24.44,-10.493988,4.562139,-1.6173453000000002,1000.3513,1,2
24.48,-10.226356,4.2999797,-1.5605358,1000.319,1,2
24.52,-8.830693,4.4572763,-1.4327105,1000.3313,1,2
24.56,-7.23333,4.5430519999999985,-2.2280073,1000.3865,1,2
24.6,-7.620495,4.8338127,-2.024428,1000.35144,1,2
24.64,-7.448423,4.237992299999998,-1.8113798,1000.34143,1,2
24.68,-7.969423299999999,4.0425644,-2.1664603,1000.3567,1,2
24.72,-8.213194999999999,4.452488400000001,-2.4221184,1000.34906,1,2
24.76,-7.945527,5.038775,-2.0149596,1000.3491,1,2
24.8,-9.804871,5.014942,-3.174889,1000.33154,1,2
24.84,-9.532424,6.67847,-3.3926716,1000.3288,1,2
24.88,-9.976947,6.7690350000000015,-2.9665754,1000.30396,1,2
24.92,-9.742737,6.6880035000000015,-0.23955826,1000.29663,1,2
24.96,-7.032589999999999,6.3019120000000015,0.011365067,1000.35443,1,2
25.0,-4.308103599999999,7.050261999999999,-1.3332058999999998,1000.3643,1,2
25.04,-6.243925599999999,6.0683513,-0.8029527,1000.3647,1,2
25.08,-8.09849,4.943443299999998,-0.7745465,1000.34186,1,2
25.12,-8.772444,4.466787999999998,0.3238353,1000.3145,1,2
25.16,-7.453219,5.930121,-1.0396733,1000.3622,1,2
25.2,-7.1090746,5.2342043,-0.6703899,1000.35205,1,2
25.24,-7.520139,4.8099804000000015,-0.97339195,1000.2488,1,2
25.28,-7.1281967,4.900545,-0.6467181,1000.2973,1,2
25.32,-7.3528485,6.0874176,-0.73193747,1000.28723,1,2
25.36,-7.6348577,5.8300233,-0.32477883,1000.3149,1,2
25.4,-7.783033,6.8119345,-0.8787043,1000.2697,1,2
25.44,-8.442647000000001,6.3162127,-1.3710825,1000.3598,1,2
25.48,-8.4283085,7.1980257,-1.5462555,1000.355,1,2
25.52,-8.906291,6.9692307,-2.4694645,1000.35004,1,2
25.56,-8.356614,6.4401426,-2.0338995,1000.3247,1,2
25.6,-6.2439427000000025,6.2923800000000005,-2.3369014,1000.3299,1,2
25.64,-6.3443193,5.7489919999999985,-2.9760463,1000.3476,1,2
25.68,-7.3480797,4.7718477,-2.6114972,1000.3602,1,2
25.72,-7.85952,5.224671,-2.7393262000000003,1000.365,1,2
25.76,-6.1340127,5.84909,-3.1086097,1000.3755,1,2
25.8,-5.670372,5.4343996,-2.2374797,1000.3577,1,2
25.84,-7.228164,4.952967,-2.919195,1000.3631,1,2
25.88,-7.2281523,5.0053988,-2.9381313,1000.33527,1,2
25.92,-5.8897963,5.7537475,-2.8008327,1000.3129,1,2
25.96,-7.548375599999999,5.6059839999999985,-2.199562,1000.3277,1,2
26.0,-7.7013164,6.2923684,-2.7676897,1000.36053,1,2
26.04,-7.940295,6.2685356,-2.2374353,1000.3731,1,2
26.08,-9.369444,7.1884804,-2.4599512000000003,1000.3982,1,2
26.12,-8.910571000000003,7.4983068,-1.4941316,1000.3781,1,2
26.16,-7.189831,7.1455803,-0.22057565,1000.3481,1,2
26.2,-7.706038499999999,6.9882839999999975,0.546399,1000.3632,1,2
26.24,-8.207904,6.5926595,0.1960542,1000.4211,1,2
26.28,-7.4192257,6.878653,0.71683973,1000.39594,1,2
26.32,-7.596066,7.1837125,1.2991726,1000.3157,1,2
26.36,-6.625754,7.6699004,1.2707672,1000.3407,1,2
26.4,-6.343734,7.4220395,0.8257344000000001,1000.3583,1,2
26.44,-6.181209,7.055014,0.5558744000000001,1000.31616,1,2
26.48,-5.5550422999999975,6.5116267,1.2849737,1000.29095,1,2
26.52,-5.4116370000000025,6.6021905,0.6410958999999999,1000.3259,1,2
26.56,-7.017639,6.5497584,-0.679802,1000.3738,1,2
26.6,-7.098883,7.012114,-0.5283,1000.3308,1,2
26.64,-7.906658,7.0121136,-0.8265664,1000.31085,1,2
26.68,-7.8684077000000014,7.646064999999999,-1.7166331999999995,1000.30817,1,2
26.72,-6.377098,7.2266083,-0.80762666,1000.3261,1,2
26.76,-8.155172,6.2065644,-1.7829129,1000.3485,1,2
26.8,-8.069124,6.2160980000000015,-1.0774854,1000.3361,1,2
26.84,-7.334169,6.4306199999999984,0.13915269,1000.34125,1,2
26.88,-7.946015400000001,7.317201,-0.4337131,1000.3361,1,2
26.92,-6.9327292,7.6556273,-0.25854313,1000.3313,1,2
26.96,-6.598176,7.264769999999999,-0.4242503,1000.31354,1,2
27.0,-7.34386,6.9311123,-0.7509274,1000.3213,1,2
27.04,-6.7464156000000015,6.649886,-0.7177894,1000.3213,1,2
27.08,-6.9615396999999986,6.406792,-0.107054256,1000.3113,1,2
27.12,-7.128866,6.316229,-0.47160643,1000.32886,1,2
27.16,-6.851668400000001,6.244731,-0.89770573,1000.3266,1,2
27.2,-6.7513256,5.7394767,-0.98292804,1000.29144,1,2
27.24,-7.39185,5.896774,-0.8929771000000001,1000.29395,1,2
27.28,-6.3068676,6.3686643,-1.0302778,1000.3241,1,2
27.32,-6.7753234,5.9444413,-1.4942528,1000.34674,1,2
27.36,-7.4971027,5.7537794,-1.887211,1000.3216,1,2
27.4,-8.032475,6.3162346,-1.5273994,1000.2913,1,2
27.44,-8.69212,6.907287599999999,-1.8351386000000005,1000.30164,1,2
27.48,-8.955039,6.449699400000001,-1.4753267,1000.357,1,2
27.52,-9.06979,5.7680826,-0.9876861,1000.3339,1,2
27.56,-6.91892,5.17703,-1.3096296,1000.35925,1,2
27.6,-7.177051,4.8290725,-1.6599773999999998,1000.3244,1,2
27.64,-7.683744,5.343861,-0.67995876,1000.2913,1,2
27.68,-7.1914570000000015,6.1208114999999985,-0.040817115,1000.3344,1,2
27.72,-7.592993300000002,6.8453282999999985,-0.76991844,1000.3294,1,2
27.76,-8.764076,6.697566,-0.41484094,1000.3495,1,2
27.8,-7.0338197000000005,7.064592,-1.2291616,1000.3419,1,2
27.84,-6.9182024,6.5211816,-0.031274524,1000.3369,1,2
27.88,-7.281463,6.530715,-0.49998027,1000.352,1,2
27.92,-7.195423599999999,6.3400526,-1.3711103999999998,1000.3269,1,2
27.96,-7.4965477,6.2018223,-1.300094,1000.3196,1,2
28.0,-8.213514,6.259021,-0.75563717,1000.3449,0,0
28.04,-7.23843,6.27332,-1.7877371,1000.29956,0,0
28.08,-7.8024435,5.7442327,-1.5557508,1000.3123,0,0
28.12,-6.9898729999999984,5.4534726,-1.2716862,1000.3502,0,0
28.16,-7.0281080000000005,5.5869365,-1.9913154,1000.3374,0,0
28.2,-8.471603,5.1436462,-1.3190296,1000.3299,0,0
28.24,-8.466821000000001,5.215144,-2.0717993000000003,1000.3324,0,0
28.28,-8.050974,5.744232,-1.1059806,1000.3427,0,0
28.32,-7.687705999999999,5.882462,-1.5084046999999998,1000.33246,0,0
28.36,-6.889474000000001,6.406784,-2.0954707,1000.3501,0,0
28.4,-6.798653599999999,6.0778904,-2.2659085,1000.3551,0,0
28.44,-8.089197,5.3867397000000015,-1.7025142,1000.3251,0,0
28.48,-8.012717,5.5440364,-1.797202,1000.33514,0,0
28.52,-7.477375500000001,6.0540575999999975,-1.8871554,1000.34283,0,0
28.56,-7.2813993,5.744231,-1.6741066999999998,1000.31006,0,0
28.6,-7.582524,5.7966633000000005,-1.7924665000000002,1000.32764,0,0
28.64,-7.7880516,5.596468,-1.7593253,1000.3302,0,0
28.68,-8.022257000000002,5.9587264000000015,-1.6125585,1000.3256,0,0
28.72,-7.7689247,5.8395624,-1.7451215,1000.31537,0,0
28.76,-7.6111875,5.5774016,-1.7309179,1000.3151,0,0
28.8,-8.079604,5.324774,-1.4752597,1000.3076,0,0
28.84,-7.573817699999997,5.5774225999999985,-1.6694502,1000.3229,0,0
28.88,-7.6790037,5.58219,-1.9724548,1000.32764,0,0
28.92,-7.9227979999999985,5.6965879999999975,-1.503751,1000.3408,0,0
28.96,-7.779441,5.8300524000000005,-1.3617222,1000.323,0,0
29.0,-7.875064999999997,6.1351132,-1.5368978000000002,1000.32574,0,0
29.04,-7.483153999999999,5.744256,-1.1013354,1000.3408,0,0
29.08,-7.425818400000002,5.744257,-1.4138083,1000.35333,0,0
29.12,-7.8703694,5.4248980000000016,-1.5700463,1000.3182,0,0
29.16,-7.9803424,5.6155615,-1.1439534,1000.35834,0,0
29.2,-7.325539999999997,5.9825864,-1.5937246,1000.32074,0,0
29.24,-7.927824,5.796692,-1.3049284,1000.3386,0,0
29.28,-7.6315064,5.887257,-1.7262932,1000.35114,0,0
29.32,-7.555058,5.710895,-1.6126703000000002,1000.3661,0,0
29.36,-8.009171,5.710896,-1.0871541999999998,1000.3435,0,0
29.4,-7.7749915,5.682297,-1.2339236,1000.3538,0,0
29.44,-7.5025697,6.125588,-0.98773694,1000.34894,0,0
29.48,-7.5121600000000015,5.9539924000000015,-1.5606027,1000.3764,0,0
29.52,-7.655584299999999,6.0111919999999985,-1.5227302,1000.3411,0,0
29.56,-7.6699553,5.8681965,-1.4990611,1000.3417,0,0
29.6,-7.971103999999999,5.8538966,-1.4990629999999998,1000.3693,0,0
29.64,-7.450142,5.791932,-1.7689276000000005,1000.3562,0,0
29.68,-7.722623,5.9635295999999975,-1.29549,1000.34406,0,0
29.72,-7.5888114,5.7442684,-1.4185865,1000.3419,0,0
29.76,-8.076386999999999,5.4201435999999985,-1.6221694,1000.3595,0,0
29.8,-8.081323,5.4535127,-1.4706826000000002,1000.3366,0,0
29.84,-7.5651392999999985,6.5307559999999985,-1.2955128,1000.367,0,0
29.88,-6.2172704,6.344861,-1.7784255,1000.3994,0,0
29.92,-7.718160000000001,5.9540042999999985,-1.1724244,1000.34424,0,0
29.96,-7.201978,6.2876635,-1.8683853,1000.3821,0,0
30.0,-6.900884,6.402062,-2.0293581,1000.3794,0,0
30.04,-7.656128999999999,5.834843,-1.7784379,1000.3423,0,0
30.08,-7.5127683,5.777645,-1.6932217,1000.3194,0,0
30.12,-7.694436599999999,5.8014784000000015,-1.8541948,1000.33167,0,0
30.16,-7.4841604,5.8396120000000025,-1.6837593000000002,1000.31683,0,0
30.2,-7.770983999999999,5.901578,-1.6127466,1000.3272,0,0
30.24,-7.5176897,5.949244,-1.7973917,1000.3297,0,0
30.28,-7.665895,5.877747,-1.6222215,1000.3322,0,0
30.32,-7.5703387000000015,5.65372,-1.688507,1000.32214,0,0
30.36,-8.120047,5.4821243,-1.8542138,1000.3249,0,0
30.4,-8.034046,5.5250244,-1.9394364,1000.34247,0,0
30.44,-7.6994977,5.691855,-1.7690013999999998,1000.34753,0,0
30.48,-7.914619999999997,5.315297599999999,-1.7832073,1000.33484,0,0
30.52,-7.7664814,5.563159,-1.7974138,1000.3299,0,0
30.56,-7.847775500000001,5.4153970000000005,-1.641182,1000.3249,0,0
30.6,-7.5753627,5.7490573,-1.8637022,1000.33746,0,0
30.64,-7.804826299999997,5.5726953,-1.6364537,1000.3124,0,0
30.68,-7.924357,5.4296994000000005,-1.7642859,1000.32776,0,0
30.72,-7.991308,5.1294074,-1.8068988,1000.33246,0,0
30.76,-8.440646000000001,5.3010044,-1.6364635,1000.3378,0,0
30.8,-7.695028999999999,5.9349566,-1.9915466,1000.3652,0,0
30.84,-7.2307425,5.8777423,-1.9630814,1000.34033,0,0
30.88,-7.957281,5.343888,-1.7216275,1000.34033,0,0
30.92,-8.191500999999999,5.2199583,-1.6506122,1000.3452,0,0
30.96,-7.794786,5.4916515,-1.9583492,1000.37054,0,0
31.0,-7.880831,5.3581886,-1.7263643,1000.3452,0,0
31.04,-8.038573,5.5297847,-1.7689748,1000.3254,0,0
31.08,-7.622739,5.5917497,-1.518052,1000.3254,0,0
31.12,-7.9812326,5.0769625,-1.4707087,1000.33026,0,0
31.16,-8.325386,5.243792,-1.5890697,1000.35565,0,0
31.2,-7.861756,5.610817400000001,-1.3760223,1000.3377,0,0
31.24,-7.828305,5.6823153,-1.4517736,1000.35565,0,0
31.28,-8.062524,5.563152,-1.5322592,1000.3603,0,0
31.32,-7.957378,5.453521,-1.6458857,1000.3378,0,0
31.36,-8.134238999999999,5.167528,-1.603277,1000.3101,0,0
31.4,-8.019533000000001,5.2247267,-1.6269499,1000.3408,0,0
31.44,-8.03388,5.501188,-1.6742946,1000.3558,0,0
31.48,-7.7136429999999985,5.668017400000001,-1.4375751,1000.3408,0,0
31.52,-7.651513599999999,5.853913,-1.4470448,1000.3406,0,0
31.56,-7.923971000000001,5.5536203,-1.6648281000000005,1000.3433,0,0
31.6,-8.196429,5.253327400000001,-1.6032816,1000.3233,0,0
31.64,-7.952667699999999,5.634652,-1.6742985,1000.3433,0,0
31.68,-7.613311,5.696617,-1.6127521,1000.35114,0,0
31.72,-7.943125999999999,5.3438926,-1.7831916,1000.35114,0,0
31.76,-8.014831,5.401091,-1.6458944,1000.3713,0,0
31.8,-7.818867999999997,5.4439910000000005,-1.6979738000000002,1000.3485,0,0
31.84,-8.029641999999999,5.315305,-1.8163763,1000.34125,0,0
31.88,-7.972311500000001,5.324839,-1.773769,1000.3361,0,0
31.92,-7.6234107,5.5155015,-1.7974433999999997,1000.3233,0,0
31.96,-7.828968499999997,5.143711,-1.5086472,1000.3534,0,0
32.0,-7.996289699999997,5.4011054000000005,-1.9868246,1000.35364,0,0
32.04,-7.867259,5.439239,-1.8069195,1000.34863,0,0
32.08,-7.8577285,5.2771764,-1.854266,1000.3587,0,0
32.12,-8.115863000000001,5.253344,-1.7927212,1000.3414,0,0
32.16,-8.020292,5.6013036,-1.8448019,1000.3589,0,0
32.2,-7.6809535,5.7300014,-1.8400701,1000.3612,0,0
32.24,-7.876950999999999,5.5059733,-1.882682,1000.36646,0,0
32.28,-7.939114,5.3677444,-1.8353404,1000.3338,0,0
32.32,-7.810085000000001,5.3105464000000016,-1.7737952,1000.3589,0,0
32.36,-7.8101134,5.3439126,-1.8590173,1000.35187,0,0
32.4,-8.073027,5.267648,-1.7927376,1000.32904,0,0
32.44,-7.791044999999999,5.629907599999999,-1.8637562,1000.3191,0,0
32.48,-7.82931,5.4201794,-1.8826963,1000.3216,0,0
32.52,-8.173483000000001,5.372514700000001,-1.8590268,1000.33905,0,0
32.56,-7.9201774999999985,5.3820486,-1.8022163,1000.3491,0,0
32.6,-7.6907744,5.4916800000000014,-1.8921725,1000.3368,0,0
32.64,-7.9489100000000015,5.243819,-1.9016435,1000.3318,0,0
32.68,-8.273961,5.0722239999999985,-2.0200057,1000.32715,0,0
32.72,-8.140155,4.929228,-1.7785540000000002,1000.2866,0,0
32.76,-7.9442067,5.210456,-1.6270552,1000.2992,0,0
32.8,-8.03027,5.0769925,-1.5607758,1000.34436,0,0
32.84,-8.020736999999999,5.143725,-1.6412631000000002,1000.3346,0,0
32.88,-8.407928,5.1341925,-1.6602035,1000.3419,0,0
32.92,-8.197643,5.072228,-1.8921916,1000.31964,0,0
32.96,-8.106853,5.2342916,-1.7596306000000002,1000.3247,0,0
33.0,-8.178576,4.9721317,-1.7122891,1000.31464,0,0
33.04,-8.302876,4.6241736,-1.7170258000000005,1000.312,0,0
33.08,-8.14039,4.705206,-1.9064044,1000.3168,0,0
33.12,-8.374627,4.748105000000002,-1.7691091,1000.3045,0,0
33.16,-8.331634,4.8958693,-1.7170328,1000.34503,0,0
33.2,-8.264743,4.862504,-1.8685362,1000.3073,0,0
33.24,-8.269549000000001,4.9578357,-1.7833195,1000.30707,0,0
33.28,-8.355613,4.7290416,-1.7880564,1000.3174,0,0
33.32,-8.202683,4.795774,-1.7738553,1000.3525,0,0
33.36,-8.278889,4.852966,-1.9774098,1000.3474,0,0
33.4,-8.412742,4.733803,-1.8969266,1000.3098,0,0
33.44,-8.044716000000001,4.605106,-1.811709,1000.295,0,0
33.48,-8.388879,4.6241727,-2.0010872,1000.3048,0,0
33.52,-8.388898,4.562208,-1.7691028000000002,1000.2775,0,0
33.56,-8.231182,4.7719364,-1.6223378000000002,1000.2778,0,0
33.6,-8.360255,4.8482027,-1.792778,1000.3077,0,0
33.64,-8.274238,4.953067,-1.6980919,1000.3229,0,0
33.68,-8.221679,5.105597,-1.9821578,1000.31793,0,0
33.72,-8.216916000000001,5.0769980000000015,-1.7501736,1000.32025,0,0
33.76,-8.049643,4.8863363,-1.6791592,1000.30536,0,0
33.8,-8.498961999999999,4.824371299999999,-1.9300845,1000.3358,0,0
33.84,-8.145275,4.8863373,-1.8211948,1000.3358,0,0
33.88,-8.274349,4.9006376,-1.7549148999999995,1000.323,0,0
33.92,-8.107074,4.9149375,-1.806995,1000.3078,0,0
33.96,-8.126211,4.972137,-1.6744332,1000.30804,0,0
34.0,-8.37,4.7910085,-1.8922175,1000.3082,0,0
34.04,-8.154929,4.943537999999998,-1.7123119999999998,1000.2984,0,0
34.08,-8.379597,4.7385769999999985,-1.6981105,1000.2983,0,0
34.12,-8.169305,4.9769053,-1.896957,1000.3485,0,0
34.16,-8.274479,4.9673724,-1.9916469,1000.34106,0,0
34.2,-8.245818,4.8863416,-1.8259442,1000.3082,0,0
34.24,-8.331873,4.7957773,-1.8638213,1000.3084,0,0
34.28,-8.202838,4.872043,-1.8543543,1000.30365,0,0
34.32,-8.260212,4.8434443,-1.8117462,1000.32605,0,0
34.36,-8.37492,4.8863425000000005,-1.863824,1000.28107,0,0
34.4,-8.33192,4.7957782999999985,-1.9017007,1000.3263,0,0
34.44,-8.293699,4.800545,-1.8874992,1000.2909,0,0
34.48,-8.073846000000001,4.824378500000001,-1.7833439999999998,1000.2884,0,0
34.52,-8.484925,4.752881,-1.8732992,1000.2836,0,0
34.56,-8.384567,4.748114599999999,-1.8259567,1000.2962,0,0
34.6,-8.274649,4.8386793,-1.8590991,1000.3212,0,0
34.64,-8.222089,4.767182,-1.8164911,1000.3087,0,0
34.68,-8.241225,4.733816,-1.8733056,1000.3065,0,0
34.72,-8.298599000000001,4.7242837,-1.8164942,1000.29144,0,0
34.76,-8.1647835,4.886347,-1.7975583,1000.29614,0,0
34.8,-8.40857,4.77195,-1.9206544,1000.2636,0,0
34.84,-8.083561,4.6956854,-1.8307022,1000.2661,0,0
34.88,-7.992764,4.6909194,-1.9017199,1000.27905,0,0
34.92,-8.222209,4.4621252999999985,-1.6792046000000005,1000.2891,0,0
34.96,-8.19833,4.7004538,-1.8780514,1000.3121,0,0
35.0,-8.523375,4.7910185,-1.844912,1000.2915,0,0
35.04,-8.365657,4.986448,-1.9064608,1000.3045,0,0
35.08,-8.002411,5.05318,-1.9064624,1000.28674,0,0
35.12,-7.658282000000002,4.724288,-1.8165102,1000.2794,0,0
35.16,-8.074141000000001,4.4192285999999985,-1.7170893,1000.2892,0,0
35.2,-8.298810000000001,4.4859605,-1.9301394,1000.2945,0,0
35.24,-8.279710000000001,4.6337247,-1.920672,1000.3123,0,0
35.28,-8.17457,4.829154,-1.9301425,1000.292,0,0
35.32,-7.7013880000000015,4.8434544000000015,-1.7928463,1000.30505,0,0
35.36,-7.968916,4.5765233,-1.8780528000000003,1000.2825,0,0
35.4,-7.949808999999999,4.3572617,-1.7076151000000002,1000.297,0,0
35.44,-8.059754,4.481193,-1.8638515,1000.2847,0,0
35.48,-8.021528,4.8148527,-1.7786334,1000.29,0,0
35.52,-7.854247,4.843452,-1.915932,1000.33014,0,0
35.56,-7.8877163,4.7385874,-1.7454945,1000.3026,0,0
35.6,-7.6678567,4.5479255,-1.7928395,1000.2973,0,0
35.64,-8.007234,4.4192290000000005,-1.7454966,1000.32526,0,0
35.68,-7.873411,4.557459400000001,-1.7975762,1000.2722,0,0
35.72,-7.6822295,4.7433553,-1.7644362,1000.3177,0,0
35.76,-7.8782125,4.5717597,-1.8875319,1000.3124,0,0
35.8,-7.7682886,4.6384916,-1.8922673,1000.2976,0,0
35.84,-7.710942299999999,4.4478297,-1.8354555,1000.3052,0,0
35.88,-7.76353,4.357265,-1.8496597,1000.30023,0,0
35.92,-7.730083500000001,4.400164599999999,-1.8449262,1000.2876,0,0
35.96,-7.6679573,4.5574613,-1.9774907,1000.3053,0,0
36.0,-7.873500999999999,4.633726599999999,-1.769178,1000.32574,0,0
36.04,-7.6536399999999984,4.724292,-1.769179,1000.3029,0,0
36.08,-7.7683663,4.686159,-1.7975863,1000.32794,0,0
36.12,-7.634543400000001,4.543163,-1.7455089,1000.3305,0,0
36.16,-7.730150999999997,4.6003612999999985,-1.7407756,1000.33276,0,0
36.2,-7.5724287,4.709992400000001,-1.6886982,1000.32806,0,0
36.24,-7.835329,4.71476,-1.7029023999999997,1000.32574,0,0
36.28,-7.711065,4.7576589999999985,-1.6887002,1000.34326,0,0
36.32,-7.5294433,4.7910247,-1.6839668,1000.35077,0,0
36.36,-7.59675,4.7052364,-1.5798455,1000.33575,0,0
36.4,-7.816647,4.600373,-1.5467072,1000.3283,0,0
36.44,-7.592023399999999,4.8387012,-1.7076792,1000.3636,0,0
36.48,-7.572927,4.743371,-1.6556029,1000.3484,0,0
36.52,-8.003136,4.6528068,-1.5467141000000002,1000.3384,0,0
36.56,-7.3961296,4.910202,-1.6508737,1000.35614,0,0
36.6,-7.6733847000000015,4.8816032,-1.6603448,1000.34357,0,0
36.64,-7.864603,4.662342,-1.6840191999999998,1000.3282,0,0
36.68,-7.8646283,4.776740599999999,-1.7124281000000003,1000.3486,0,0
36.72,-7.812077499999999,4.7815075,-1.7361023000000002,1000.36365,0,0
36.76,-7.7977614,4.843473,-1.8071208,1000.3663,0,0
36.8,-7.7356505,4.7576756,-1.736107,1000.38135,0,0
36.84,-7.922090499999999,4.848241000000002,-1.6508903999999998,1000.3664,0,0
36.88,-7.941235000000002,4.733844,-1.6650957999999998,1000.336,0,0
36.92,-7.9651594,4.8482423,-1.721911,1000.36865,0,0
36.96,-7.9890865999999985,4.7815113,-1.6698352,1000.40405,1,3
37.0,-7.9269757,4.767212000000002,-1.6366968000000002,1000.3813,1,3
37.04,-8.070396,4.8291783,-1.764528,1000.4018,1,3
37.08,-8.046522,4.762447,-1.6509047,1000.4242,1,3
37.12,-8.027429,4.92451,-1.8497521,1000.4343,1,3
37.16,-7.950978299999999,4.886379,-1.5893621,1000.3817,1,3
37.2,-8.28081,4.6432843,-1.7171935,1000.4145,1,3
37.24,-7.998829,4.957878,-1.6840551,1000.4318,1,3
37.28,-8.099232,4.9054465,-1.7929487000000002,1000.4343,1,3
37.32,-8.204413,4.8625484000000005,-1.7503418000000002,1000.44965,1,3
37.36,-8.199094,4.8244023,-1.7550268,1000.45966,1,3
37.4,-8.242116000000001,4.9388003,-1.7266206000000002,1000.44183,1,3
37.44,-8.223001,4.9245005,-1.7218865,1000.44934,1,3
37.48,-8.132188000000001,5.0007660000000005,-1.7076836,1000.4569,1,3
37.52,-8.337724,4.795803500000001,-1.7266215,1000.4594,1,3
37.56,-8.418983,4.8482356,-1.7550285,1000.47473,1,3
37.6,-8.342511,4.919735,-1.7360911,1000.4619,1,3
37.64,-8.366414,4.810104,-1.826045,1000.5074,1,3
37.68,-8.103528,4.8720690000000015,-1.9112649,1000.50745,1,3
37.72,-8.15133,4.8053374,-1.570388,1000.4672,1,3
37.76,-8.356864999999999,4.9531,-1.8118428,1000.51764,1,3
37.8,-8.261273,5.029366,-1.6650766,1000.4923,1,3
37.84,-8.5146055,4.838703,-1.7976403000000003,1000.4851,1,3
37.88,-8.046189,4.9817,-1.7597653999999998,1000.4948,1,3
37.92,-8.266064,4.800571,-1.6840153999999998,1000.47473,1,3
37.96,-8.309086,4.805338,-1.7408285,1000.495,1,3
38.0,-8.189594999999999,4.948335,-1.8781267,1000.53296,1,3
38.04,-8.3616705,4.814871299999999,-1.8307829,1000.54,1,3
38.08,-8.156143,4.8244042,-1.81658,1000.5277,1,3
38.12,-8.318660000000001,4.9674010000000015,-1.8213149,1000.5503,1,3
38.16,-7.93628,5.0246,-1.7124238999999997,1000.55786,1,3
38.2,-8.246971,4.8959025999999986,-1.8118466,1000.5782,1,3
38.24,-8.184837,4.905436,-1.7739718,1000.59564,1,3
38.28,-8.266097,4.829171700000002,-1.9065355,1000.5679,1,3
38.32,-8.29,4.962635,-1.9728174,1000.54785,1,3
38.36,-8.242362,4.9483395,-1.7929248,1000.5856,1,3
38.4,-8.0464,5.172368,-1.7976601000000003,1000.6009,1,3
38.44,-8.084649,5.053204,-1.8071299,1000.58826,1,3
38.48,-8.204155,4.838709,-1.7976618999999998,1000.60596,1,3
38.52,-8.318878999999999,4.8577757,-1.7645221000000002,1000.57324,1,3
38.56,-8.189836,4.857776,-1.811867,1000.6033,1,3
38.6,-8.328459,4.7672114,-2.0533226000000004,1000.60565,1,3
38.64,-8.161177,4.99124,-1.8213377,1000.63354,1,3
38.68,-7.9269757,5.2248015,-1.8639481,1000.62866,1,3
38.72,-8.213774,5.081805,-1.7881987,1000.60596,1,3
38.76,-8.094288,4.972175,-1.7124491000000002,1000.6309,1,3
38.8,-8.352408,4.8005786,-1.7171843,1000.6409,1,3
38.84,-8.428894999999999,4.8005786,-1.7882015,1000.626,1,3
38.88,-8.275951,5.03414,-1.9255,1000.64874,1,3
38.92,-8.103888000000001,4.934043,-1.6603743000000002,1000.6639,1,3
38.96,-8.333328,4.93881,-1.7219223999999995,1000.6589,1,3
39.0,-8.237741999999999,4.991242400000001,-1.7503299,1000.6539,1,3
39.04,-8.29989,4.8768449999999985,-1.7408619,1000.66644,1,3
39.08,-8.218643,5.034141,-1.731394,1000.6689,1,3
39.12,-8.189975,5.005542299999999,-1.8639581000000005,1000.6891,1,3
39.16,-8.166085,4.9721769999999985,-1.6745830000000002,1000.6563,1,3
39.2,-8.223453,4.853013,-1.816616,1000.6666,1,3
39.24,-8.457673,4.938812,-1.7408663,1000.6866,1,3
39.28,-7.9127855,5.243871,-1.7787426,1000.72186,1,3
39.32,-8.142225999999999,5.029376999999998,-1.6840554,1000.7118,1,3
39.36,-8.295628,4.862558,-1.7977221,1000.7294,1,3
39.4,-8.200061,4.9578896,-1.7835215,1000.7221,1,3
39.44,-8.123611,5.015089499999998,-1.7882586,1000.74207,1,3
39.48,-8.171434,4.8720930000000005,-1.7929951000000002,1000.70935,1,3
39.52,-8.1858015,4.910227,-1.7314506,1000.73444,1,3
39.56,-8.2288475,4.991258599999999,-1.7503906000000002,1000.74445,1,3
39.6,-8.367488,4.9149942000000015,-1.7882683,1000.7143,1,3
39.64,-8.181106,5.0389256,-1.6888485,1000.7573,1,3
39.68,-8.1763525,5.1485567,-1.8450861,1000.7269,1,3
39.72,-7.923052,5.0961256,-1.7693385,1000.7696,1,3
39.76,-8.305462,4.752934,-1.8782324,1000.7646,1,3
39.8,-8.324616,4.948364,-1.7504065,1000.77216,1,3
39.84,-8.205149,5.057995,-1.7267369,1000.77966,1,3
39.88,-8.018758,5.1771593000000005,-1.7362077,1000.7546,1,3
39.92,-8.2769,4.829202,-1.740945,1000.76215,1,3
39.96,-8.210011,4.8244357,-1.7977605,1000.76996,1,3
40.0,-8.348653,4.9674335,-1.8829824,1000.79254,1,3
40.04,-8.3582325,4.8435035000000015,-1.707811,1000.77515,1,3
40.08,-8.214864,5.0627656,-1.8261735,1000.78265,1,3
40.12,-8.076278,5.1104317,-1.8356451,1000.8277,1,3
40.16,-8.157571,4.96267,-1.8593205,1000.7976,1,3
40.2,-8.315329,4.68621,-1.6888841,1000.8127,1,3
40.24,-8.286677000000001,4.795841,-1.8167156,1000.83795,1,3
40.28,-8.382297,4.8053746,-1.8119831,1000.8179,1,3
40.32,-8.0907545,4.9054730000000015,-1.8830017,1000.80225,1,3
40.36,-8.405845,4.814899400000002,-1.7172630000000002,1000.8052,1,3
40.4,-8.458435,5.024628599999999,-1.9019059,1000.83545,1,3
40.44,-8.381967999999999,5.0198617,-1.8214219,1000.8229,1,3
40.48,-7.9756966,4.8768654,-1.8119541,1000.8176,1,3
40.52,-8.219479,4.8482666,-1.8119552,1000.83545,1,3
40.56,-8.267287,4.7291026,-1.9776605,1000.84796,1,3
40.6,-8.329436,4.7577024,-1.9303176,1000.8558,1,3
40.64,-8.305549000000001,4.8625665,-1.8782401,1000.84827,1,3
40.68,-8.20518,5.067529,-1.8308966,1000.89355,1,3
40.72,-8.004442999999998,5.048463,-2.0439463,1000.85065,1,3
40.76,-8.152628,4.9007,-1.9350559,1000.8555,1,3
40.8,-8.219553,4.738638,-1.764618,1000.8659,1,3
40.84,-8.104852000000001,4.9674325,-1.9066516,1000.85803,1,3
40.88,-8.45379,4.967433,-2.0392158,1000.8907,1,3
40.92,-8.176573,4.8339690000000015,-1.7977624,1000.87836,1,3
40.96,-8.410791,4.767238,-1.8261696,1000.9113,1,3
41.0,-8.243511,4.967434,-1.8309052,1000.891,1,3
41.04,-7.961516,5.2581940000000005,-1.9397976000000003,1000.9213,1,3
41.08,-8.224414999999999,4.9960337,-1.8451105,1000.901,1,3
41.12,-8.1144905,4.9197690000000005,-1.9492683,1000.92615,1,3
41.16,-8.272235,4.786305400000002,-1.8877223,1000.90326,1,3
41.2,-8.219669999999999,4.8864036,-1.8356448,1000.92365,1,3
41.24,-8.076286,5.0961323,-1.954006,1000.9438,1,3
41.28,-8.114536,5.1485650000000005,-1.9113975,1000.9337,1,3
41.32,-8.06197,5.124732,-1.9113984,1000.9617,1,3
41.36,-8.314395,4.8959155,-1.8971123,1000.9438,1,3
41.4,-8.304811500000001,4.8959145999999985,-1.892376,1000.9337,1,3
41.44,-7.965421000000001,4.9721794,-1.8734359,1000.96375,1,3
41.48,-8.299978999999999,4.8387145999999985,-1.9539182,1000.9387,1,3
41.52,-8.166121,4.953111,-1.8639624,1000.9565,1,3
41.56,-8.276033,4.814881,-2.0438676,1000.9462,1,3
41.6,-8.276006,4.9960093,-1.8071451,1000.9744,1,3
41.64,-8.1325865,5.0293746,-1.8970963,1000.997,1,3
41.68,-8.170808000000001,5.0818059999999985,-1.8260785,1000.979,1,3
41.72,-8.25681,4.924509,-1.7597938999999998,1000.9664,1,3
41.76,-8.275905999999999,4.976941,-1.9870431,1000.9941,1,3
41.8,-8.237644,4.862543,-1.6887735,1000.9788,1,3
41.84,-8.218501,4.838709,-1.8118658,1001.0043,1,3
41.88,-8.127658,4.867308,-1.6366905,1001.00146,1,3
41.92,-8.146752000000001,5.029371,-1.7124386000000005,1001.0066,1,3
41.96,-8.361817,4.905439,-1.745577,1001.01166,1,3
42.0,-8.266198,4.876839,-1.7645125,1001.0271,1,3
42.04,-8.199257000000001,4.8816055999999985,-1.7503072,1001.027,1,3
42.08,-8.376081,5.0103016,-1.9728216,1001.0244,1,3
42.12,-8.495553,4.9340363,-1.7029584999999998,1001.0295,1,3
42.16,-7.960190299999999,4.986468,-1.8023785,1001.0546,1,3
42.2,-8.218276,4.8434706,-1.6745473999999998,1001.0069,1,3
42.24,-8.170451,4.924501,-1.7455611,1001.0193,1,3
42.28,-8.28514,4.9006677000000005,-1.8071061,1001.05444,1,3
42.32,-8.165624000000001,4.9864655,-1.8781202,1001.0599,1,3
42.36,-8.166417,5.010318,-1.8687239,1001.05444,1,3
42.4,-8.137746,4.9006867,-1.9302719,1001.0745,1,3
42.44,-8.252467999999999,4.876854,-1.8166468,1001.07214,1,3
42.48,-8.147321,4.8768544,-1.7787721999999997,1001.0849,1,3
42.52,-8.08997,5.0865827,-1.8213826,1001.0795,1,3
42.56,-8.338528,4.867322,-1.8923994,1001.0644,1,3
42.6,-8.534507000000001,4.9674196,-1.8024465,1001.0492,1,3
42.64,-8.262065,5.220048,-1.9539479,1001.06726,1,3
42.68,-8.395907000000001,5.310612,-1.9160734,1001.08215,1,3
42.72,-8.328997,5.091350599999998,-1.7266979,1001.072,1,3
42.76,-8.735288,4.881623,-1.9492155,1001.1047,1,3
42.8,-8.682718,5.0293856,-1.5988704,1001.10736,1,3
42.84,-7.9896544999999985,5.0961175,-1.6367464,1001.12744,1,3
42.88,-8.529779,5.043686,-1.8782017,1001.0969,1,3
42.92,-8.4676485,4.9817204,-1.8308582,1001.0971,1,3
42.96,-8.63017,5.0007877,-1.9728911,1001.1173,1,3
43.0,-8.625397999999999,5.1390176,-1.9492197,1001.0995,1,3
43.04,-8.381635000000001,5.1628504,-2.0675807,1001.12256,1,3
43.08,-8.721008,5.200983,-1.854533,1001.0995,1,3
43.12,-8.721015,5.0675197,-2.024972,1001.1148,1,3
43.16,-8.682785,5.0484532999999985,-2.0344417,1001.12964,1,3
43.2,-8.721031,4.7529273000000005,-2.0439115,1001.1401,1,3
43.24,-8.639782,4.9531226,-2.043912,1001.15015,1,3
43.28,-8.854880999999997,4.7672276,-1.953959,1001.1548,1,3
43.32,-8.79275,4.8720919999999985,-1.9871004,1001.1422,1,3
43.36,-9.12791,4.8149076,-2.1386540000000003,1001.1371,1,3
43.4,-8.735996,5.2772636,-2.0439687,1001.14734,1,3
43.44,-8.769485000000001,5.105669,-1.9966273,1001.14984,1,3
43.48,-9.037183,4.976972,-2.0487082,1001.16986,1,3
43.52,-8.879482000000003,5.0294050000000015,-2.0155706,1001.1977,1,3
43.56,-9.013348,5.0294056,-2.1860118,1001.18756,1,3
43.6,-8.817406,5.034173,-2.048717,1001.1903,1,3
43.64,-8.979947,4.8053794000000005,-1.9919066000000003,1001.1821,1,3
43.68,-8.879602,4.7863135,-2.0818632,1001.15717,1,3
43.72,-8.89875,4.8292136,-2.0439906000000003,1001.1698,1,3
43.76,-8.879662,4.915012,-2.1765568,1001.1823,1,3
43.8,-8.846231,5.034177,-2.1292152,1001.1776,0,0
43.84,-9.047013,4.967445400000001,-2.3091254,1001.22015,0,0
43.88,-8.621641,5.0437117,-2.176565,1001.1826,0,0
43.92,-8.941921,4.9245480000000015,-2.0676765,1001.20276,0,0
43.96,-8.803335,5.029413,-2.148164,1001.1695,0,0
44.0,-8.722106,5.110445,-2.2381203,1001.20734,0,0
44.04,-8.884651,5.024648,-2.110294,1001.2122,0,0
44.08,-8.841663,4.9722165999999985,-2.2665322,1001.19226,0,0
44.12,-8.860812,5.2296114000000005,-2.2712696,1001.2275,0,0
44.16,-8.68877,5.258212,-2.2712722000000003,1001.18726,0,0
44.2,-8.578864999999999,4.8721213,-1.8972569,1001.2149,0,0
44.24,-8.755747999999999,4.54323,-1.7836342,1001.17725,0,0
44.28,-8.636281,4.6147285,-2.2712803,1001.20715,0,0
44.32,-8.846622,4.6337957,-2.2192047,1001.2248,0,0
44.36,-8.6221285,4.681465,-1.9777645,1001.20966,0,0
44.4,-8.626942,4.733898,-2.1103308,1001.202,0,0
44.44,-8.521819,4.757732,-2.2192252,1001.197,0,0
44.48,-8.493178,4.7291336,-2.0298524,1001.19476,0,0
44.52,-8.402396000000001,4.657635,-1.8878233,1001.22217,0,0
44.56,-8.531487,4.738668,-2.0251245,1001.23486,0,0
44.6,-8.493282,4.705303,-1.8594235,1001.21216,0,0
44.64,-8.555453,4.800634400000002,-1.7742071,1001.23737,0,0
44.68,-8.455113,4.8673677,-2.0393372,1001.2198,0,0
44.72,-8.541185,4.9198008,-2.143497,1001.23975,0,0
44.76,-8.216192999999999,5.0294323,-2.0724843,1001.2446,0,0
44.8,-8.254466,4.838771,-1.9304554,1001.20483,0,0
44.84,-8.211483,4.8673715999999985,-1.665332,1001.2196,0,0
44.88,-8.397931,4.81494,-1.9020555,1001.2122,0,0
44.92,-8.283251,5.143833,-2.0488253,1001.21716,0,0
44.96,-8.144668,5.134300700000002,-1.8783896,1001.2272,0,0
45.0,-8.187724000000001,4.8864408,-1.8121111,1001.192,0,0
45.04,-8.312035,4.9102745,-1.7931768,1001.2221,0,0
45.08,-8.22603,5.0437384000000005,-2.1387916,1001.222,0,0
45.12,-8.173492999999999,5.1200047,-1.7695116999999998,1001.2095,0,0
45.16,-7.9584312000000015,5.305901,-1.8878745,1001.2094,0,0
45.2,-8.0923,5.305902,-1.9683625,1001.23456,0,0
45.24,-8.25485,5.1295404000000016,-1.982569,1001.20184,0,0
45.28,-8.183188000000001,4.9102798,-1.7884616999999998,1001.2245,0,0
45.32,-8.140205,4.872148,-1.7600584,1001.20685,0,0
45.36,-8.162222,4.7910705,-1.7314797999999998,1001.2196,0,0
45.4,-8.166959,5.038930400000001,-1.8687736,1001.22705,0,0
45.44,-8.33421,5.005563,-1.9445204,1001.20465,0,0
45.48,-8.377189,4.9102316,-1.8308908,1001.2173,0,0
45.52,-8.286331,5.010328,-1.8166838,1001.2269,0,0
45.56,-8.09988,4.9769607,-1.7740705,1001.222,0,0
45.6,-8.257568,4.82443,-1.8403484,1001.217,0,0
45.64,-8.343564,4.6004010000000015,-1.7409218999999998,1001.237,0,0
45.68,-8.238372,4.8005953,-1.7693249,1001.2194,0,0
45.72,-8.295685,4.953124,-1.8498057,1001.2445,0,0
45.76,-8.362559,5.1104198,-1.7172385,1001.23456,0,0
45.8,-8.14743,5.091352,-1.939752,1001.237,0,0
45.84,-8.424619,4.786291,-1.9208107,1001.2244,0,0
45.88,-8.29074,4.7433915,-1.6982898000000002,1001.21655,0,0
45.92,-8.328936,4.8959203,-1.9492093,1001.237,0,0
45.96,-8.161607,4.9388185,-1.845049,1001.23456,0,0
46.0,-8.23804,4.829187,-2.067562,1001.204,0,0
46.04,-8.285795,4.814886,-2.0486207,1001.21655,0,0
46.08,-8.309652999999999,4.7910523000000005,-1.8166308,1001.22687,0,0
46.12,-8.194898,4.9388146,-1.9207842,1001.21906,0,0
46.16,-8.390827,4.833949,-1.987062,1001.2319,0,0
46.2,-8.156576,5.015077,-1.9065734,1001.22925,0,0
46.24,-8.032259,4.962644,-1.7408651999999998,1001.2016,0,0
46.28,-8.299885,4.7195487,-1.7408615,1001.2018,0,0
46.32,-8.366767,4.705248,-1.8024055,1001.19635,0,0
46.36,-8.257605,4.9769607,-1.8450859,1001.23663,0,0
46.4,-8.219357,4.905462,-1.8592883,1001.22925,0,0
46.44,-8.233687,4.886396,-2.006054,1001.22675,0,0
46.48,-8.157204,4.776765,-1.7645986,1001.23444,0,0
46.52,-8.434422,4.7243323,-2.0344589,1001.2242,0,0
46.56,-8.118946000000001,4.9245276,-2.0391922,1001.2091,0,0
46.6,-8.314910000000001,4.7290983,-1.9303004,1001.22406,0,0
46.64,-8.1810665,4.938827,-1.9302998,1001.2088,0,0
46.68,-8.1141405,4.8434954,-2.110206,1001.2393,0,0
46.72,-8.319663,4.8196626,-2.1007366000000003,1001.22894,0,0
46.76,-8.18104,4.853028299999999,-1.9350314,1001.1941,0,0
46.8,-8.104555,4.9388260000000015,-2.0107813,1001.23425,0,0
46.84,-8.114107,4.900693,-1.830873,1001.25433,0,0
46.88,-8.185794,4.9245257,-2.08653,1001.2216,0,0
46.92,-8.109309,4.9483585,-1.9965758,1001.2189,0,0
46.96,-8.238355,4.8673267,-2.0865288,1001.2065,0,0
47.0,-8.185768,4.948358,-1.9539644,1001.25183,0,0
47.04,-8.204879,4.9292912000000015,-1.9539635,1001.1991,0,0
47.08,-8.195311,5.053222,-1.9729005,1001.2392,0,0
47.12,-8.075807000000001,4.9531236,-2.0675879,1001.23395,0,0
47.16,-8.305227,4.843493,-2.1386032000000004,1001.23895,0,0
47.2,-8.214402999999999,4.7624617,-1.7835218999999998,1001.20636,0,0
47.24,-8.1379175,4.7576942,-1.9681628,1001.2367,0,0
47.28,-8.314761,4.786293,-2.0533812,1001.2239,0,0
47.32,-8.094882,5.119952,-1.8687387,1001.2241,0,0
47.36,-8.166507000000001,4.9721875,-1.9539514,1001.2239,0,0
47.4,-8.113918,4.98172,-1.7551055,1001.2166,0,0
47.44,-8.32422,4.8387227,-1.9634184,1001.21625,0,0
47.48,-8.152134,5.019851999999998,-1.9965581,1001.22894,0,0
47.52,-8.075645,4.986486,-1.9492128,1001.2313,0,0
47.56,-8.238149,4.853021599999999,-1.8592584,1001.2138,0,0
47.6,-8.204678999999999,5.0103183,-1.892398,1001.2111,0,0
47.64,-7.913099000000001,5.100882,-2.0154915,1001.2263,0,0
47.68,-8.12818,4.9149866,-2.0249593,1001.2238,0,0
47.72,-8.223763,5.0198503,-1.9302702,1001.2135,0,0
47.76,-8.056460000000001,4.996017,-2.0249572,1001.2161,0,0
47.8,-7.984750999999997,5.0246167,-2.067566,1001.206,0,0
47.84,-8.520078999999999,4.6718910000000005,-2.2522066,1001.20105,0,0
47.88,-8.013408,5.0913477,-1.8497813000000003,1001.2135,0,0
47.92,-7.69315,5.2915425,-2.1906574,1001.1935,0,0
47.96,-8.228475999999999,5.0579815,-1.8923888,1001.21857,0,0
48.0,-8.233245,4.938817,-2.0012794,1001.1985,0,0
48.04,-7.9129868,5.37734,-1.9160585,1001.2312,0,0
48.08,-8.190204,4.9388165,-2.0391521,1001.21857,0,0
48.12,-8.199753,5.015081,-1.8829157,1001.22614,0,0
48.16,-7.989431,5.186677,-1.9349933,1001.20844,0,0
48.2,-7.850803999999999,5.177143,-2.0770245,1001.23627,0,0
48.24,-8.252297,4.9245157,-2.0249448,1001.2185,0,0
48.28,-8.070654,4.981714,-2.181179,1001.1906,0,0
48.32,-7.9368076,5.2820067,-1.8687075,1001.1807,0,0
48.36,-7.980191,5.2629495,-2.1386023,1001.21075,0,0
48.4,-8.0471115,5.1819186,-1.9397573,1001.2032,0,0
48.44,-8.027996,5.1819186,-2.1196651,1001.2008,0,0
48.48,-7.841588000000002,5.4059467,-2.0013056,1001.1854,0,0
48.52,-7.8368115,5.2724833,-2.1244001,1001.2008,0,0
48.56,-8.1331625,5.1390195,-2.0107749,1001.2233,0,0
48.6,-7.8511586,5.2581835,-2.1101975,1001.211,0,0
48.64,-7.875062,5.324916,-2.0202441,1001.2157,0,0
48.68,-8.185752,5.1151870000000015,-2.0297134,1001.2134,0,0
48.72,-7.8320503,5.4345465,-1.868744,1001.20807,0,0
48.76,-7.92287,5.3725809999999985,-2.1007302000000005,1001.2185,0,0
48.8,-8.123626,5.1533194,-1.977636,1001.2157,0,0
48.84,-8.080611,5.315383,-1.8024634,1001.1905,0,0
48.88,-7.7890472000000015,5.4774456,-1.9302927,1001.21576,0,0
48.92,-8.05194,5.2105190000000015,-1.9634339,1001.208,0,0
48.96,-8.14754,5.1151876,-2.020247,1001.2283,0,0
49.0,-7.980250999999999,5.2105190000000015,-1.9965755,1001.2134,0,0
49.04,-8.09497,5.077056,-1.9444972,1001.1982,0,0
49.08,-7.999377000000001,5.1342545,-1.8356062,1001.2082,0,0
49.12,-7.812969,5.2629514,-1.9634355,1001.20807,0,0
49.16,-8.047182000000001,5.177153,-1.8829509,1001.23083,0,0
49.2,-8.118883,5.1342550000000005,-2.067593,1001.21295,0,0
49.24,-8.0519705,5.1771536,-2.039187,1001.1852,0,0
49.28,-7.932479400000001,5.081823,-1.9208273,1001.21826,0,0
49.32,-8.099776,5.21052,-1.9634373,1001.22314,0,0
49.36,-7.971226,5.2677307,-2.015562,1001.21533,0,0
49.4,-8.057285,5.015104,-2.0534391,1001.2203,0,0
49.44,-8.057310000000001,5.172401,-1.8545965,1001.2079,0,0
49.48,-8.062113,5.139035,-2.0392404,1001.1902,0,0
49.52,-7.947421,5.1342697,-1.9824297,1001.20044,0,0
49.56,-7.990464699999999,5.1628690000000015,-1.95876,1001.1849,0,0
49.6,-8.014385,5.3344655,-2.1055288,1001.19745,0,0
49.64,-7.851897,5.215303,-2.0581868,1001.21045,0,0
49.68,-8.019217,5.3058677,-2.0345173,1001.1952,0,0
49.72,-7.9714427,5.277269,-2.1150043,1001.2153,0,0
49.76,-8.067064,5.1628723,-2.0487251,1001.1977,0,0
49.8,-8.038408,5.086608,-1.9303671,1001.2102,0,0
49.84,-7.885480999999999,5.2343720000000005,-2.0108542000000003,1001.2002,0,0
49.88,-7.813802000000001,5.21054,-2.105544,1001.21,0,0
49.92,-8.162754,5.119976,-2.0724053,1001.21027,0,0
49.96,-8.134099,5.134276,-2.0960798,1001.22534,0,0
50.0,-7.9285936,5.277273,-2.0155973,1001.17487,0,0
50.04,-7.971634,5.072312,-2.20971,1001.2225,0,0
50.08,-8.029014,5.119978,-2.001398,1001.21497,0,0
50.12,-8.10073,4.986515,-2.0629470000000003,1001.2052,0,0
50.16,-7.9669256,5.253443,-1.7173381999999997,1001.2002,0,0
50.2,-7.8044343,5.177178400000002,-1.9351228,1001.2175,0,0
50.24,-7.909610000000002,5.334475,-1.845171,1001.1923,0,0
50.28,-8.086492,5.4488730000000025,-2.03455,1001.19745,0,0
50.32,-7.8570848,5.5346723,-2.2002563,1001.2175,0,0
50.36,-7.5971375,5.8539863,-2.0201807,1001.1924,0,0
50.4,-7.7213616,5.9159503,-2.2142866000000003,1001.20465,0,0
50.44,-7.295905,5.977914299999999,-2.1006560000000003,1001.2175,0,0
50.48,-7.3771105,5.8015504,-2.1006513,1001.22003,0,0
50.52,-7.6877502999999985,5.710984,-2.3042264,1001.20984,0,0
50.56,-7.453489999999999,5.558454,-2.0580325,1001.2198,0,0
50.6,-7.759346000000002,5.5441523,-2.2994826,1001.23,0,0
50.64,-7.744959,5.572750599999999,-2.062758,1001.2022,0,0
50.68,-7.6015169999999985,5.8444433,-2.1479728,1001.1945,0,0
50.72,-7.7878757,5.758644,-2.0485456,1001.1995,0,0
50.76,-7.558397999999999,5.7634089999999984,-2.1479638,1001.235,0,0
50.8,-7.830798599999999,5.4583483,-2.001193,1001.187,0,0
50.84,-7.72081,5.668075599999999,-1.9775158,1001.21967,0,0
50.88,-7.7542176,5.5679765,-2.0059175,1001.22217,0,0
50.92,-7.7015924,5.501244,-1.9680378,1001.19965,0,0
50.96,-7.8640547,5.453577,-2.0153775,1001.18463,0,0
51.0,-7.7779675,5.7252693,-2.062717,1001.225,0,0
51.04,-7.4576697,5.7586346,-1.9254144,1001.2124,0,0
51.08,-7.782652400000001,5.5822699999999985,-2.001161,1001.1995,0,0
51.12,-7.849515400000001,5.3963733,-2.0579686,1001.18976,0,0
51.16,-7.729969500000001,5.601334,-2.0626984,1001.18726,0,0
51.2,-7.6152034,5.6489983,-2.228398,1001.1845,0,0
51.24,-7.7155312999999985,5.7347956,-2.091096,1001.1996,0,0
51.28,-7.4669313,5.691895,-1.8969805,1001.1569,0,0
51.32,-7.6819754,5.6680613,-1.9963989,1001.1795,0,0
51.36,-8.280916,5.5108004,-1.6556557,1001.1796,0,0
51.4,-7.8794208,5.2009745,-1.6887975,1001.1895,0,0
51.44,-8.237917,5.27724,-2.1575048,1001.19214,0,0
51.48,-7.769506,5.548934,-1.9870667,1001.2096,0,0
51.52,-7.884231,5.186676,-1.7787539,1001.20984,0,0
51.56,-8.118451,5.2152753,-1.8355677,1001.1946,0,0
51.6,-7.965509,5.2152753,-1.7456149,1001.19714,0,0
51.64,-7.917720299999999,5.439304,-1.8971168,1001.2046,0,0
51.68,-8.242755,5.143778,-1.7172101999999998,1001.21747,0,0
51.72,-8.242764999999999,4.9721823,-1.6698672,1001.1972,0,0
51.76,-8.261894999999999,4.829186,-1.6509305,1001.225,0,0
51.8,-7.898639699999999,5.3439736,-1.9160580000000005,1001.2326,0,0
51.84,-7.6070824,5.6823997,-2.2853425,1001.20215,0,0
51.88,-7.5640744999999985,5.5823019999999985,-2.138577,1001.2026,0,0
51.92,-8.003827000000001,5.472672,-1.7314192,1001.1849,0,0
51.96,-7.67403,5.7443657,-1.9397337,1001.2047,0,0
52.0,-7.521086,5.8015647,-2.0770323,1001.20996,0,0
52.04,-7.7744255,5.896895400000001,-2.0865023000000003,1001.2301,0,0
52.08,-7.516327,5.672868,-2.1007063,1001.22754,0,0
52.12,-7.7218684999999985,5.4631395,-1.9160655,1001.2248,0,0
52.16,-7.812694500000001,5.4488400000000015,-1.8923944,1001.1647,0,0
52.2,-7.922639,5.6824017,-1.8213792,1001.1999,0,0
52.24,-7.822273,5.8396983,-1.972881,1001.22284,0,0
52.28,-7.65021,5.5918374,-1.8450528,1001.20496,0,0
52.32,-7.970467,5.363044,-1.6698808999999997,1001.19495,0,0
52.36,-7.912708999999999,5.2772355000000015,-1.7597979,1001.20233,0,0
52.4,-8.051317999999998,5.320134,-1.8024071,1001.23785,0,0
52.44,-7.864898700000001,5.50603,-1.807141,1001.2077,0,0
52.48,-7.7406187000000015,5.5965940000000005,-1.8781565,1001.1999,0,0
52.52,-7.8887863,5.3868655999999975,-1.8923591,1001.21,0,0
52.56,-7.883999999999999,5.472664,-2.0864692,1001.2002,0,0
52.6,-7.8361955,5.377332,-2.1006718,1001.2329,0,0
52.64,-7.8744283,5.367799,-1.8970916,1001.21027,0,0
52.68,-7.869642,5.3725653,-2.1196082,1001.1948,0,0
52.72,-7.860076400000001,5.3773317,-2.0675292,1001.2127,0,0
52.76,-7.9939046,5.129471,-1.9823095,1001.2049,0,0
52.8,-8.189871,5.3106003,-1.9491678,1001.20245,0,0
52.84,-7.6688657,5.4583626,-2.024918,1001.2278,0,0
52.88,-7.860050999999999,5.2962995,-1.7787281000000004,1001.22253,0,0
52.92,-8.428842,5.258167299999998,-1.9586351,1001.2228,0,0
52.96,-7.726204400000001,5.2962989999999985,-1.9681032,1001.2278,0,0
53.0,-8.251977,5.191435,-1.7787265,1001.1952,0,0
53.04,-7.950842999999999,5.248634,-1.8402733,1001.1952,0,0
53.08,-8.036873,5.234334,-1.750319,1001.2281,0,0
53.12,-8.629561,5.1008697,-1.6698335,1001.2102,0,0
53.16,-7.984282,5.4440620000000015,-1.4473158000000002,1001.20526,0,0
53.2,-8.055973,5.3344307,-1.2721423,1001.2253,0,0
53.24,-8.414452,4.8768410000000015,-1.1253753,1001.1948,0,0
53.28,-8.715573,4.6242137,-1.0070145,1001.1773,1,4
53.32,-8.414439,4.791043,-0.7513561,1001.1896,1,4
53.36,-8.343083,5.0818114,-1.4094695,1001.2178,1,4
53.4,-7.994165,5.425003500000001,-1.7266753,1001.2175,1,4
53.44,-7.0095325,5.425003500000001,-1.1017344999999998,1001.1698,1,4
53.48,-6.9904213,5.0865784000000005,-1.5041597,1001.1825,1,4
53.52,-7.716958,4.8101177,-2.0675545,1001.2027,1,4
53.56,-8.257082,5.7205309999999985,-1.9491949,1001.21246,1,4
53.6,-7.1481767000000005,5.968392,-2.5883403,1001.2301,1,4
53.64,-7.282018700000001,5.2915410000000005,-2.83453,1001.22754,1,4
53.68,-8.151950999999999,5.3725724,-3.5920355,1001.21,1,4
53.72,-7.731335,5.701465,-2.8345315,1001.1598,1,4
53.76,-6.847079300000001,6.2496195,-2.6451561000000003,1001.16754,1,4
53.8,-6.8996644,6.111389599999999,-3.2132852,1001.2052,1,4
53.84,-6.7992954,5.5251036,-3.6867263,1001.24286,1,4
53.88,-7.062193,5.119946,-3.2890370000000004,1001.2052,1,4
53.92,-6.517303,5.0389147,-3.0049734,1001.2127,1,4
53.96,-7.3872347,5.5155706,-2.8771453,1001.1876,1,4
54.0,-7.3585625,6.106624,-3.2937737,1001.23303,1,4
54.04,-7.8604503,6.5689800000000025,-2.8676777,1001.253,1,4
54.08,-9.0028305,6.3211193,-3.1706805,1001.22754,1,4
54.12,-8.754289,7.0933012999999985,-2.2238002,1001.26074,1,4
54.16,-8.974166,7.264898,-2.673569,1001.23303,1,4
54.2,-9.299199,7.546124499999999,-0.8744960999999999,1001.2278,1,4
54.24,-8.128156,7.1409674,-0.39632198,1001.2104,1,4
54.28,-7.769678,7.164801,1.0097955,1001.1952,1,4
54.32,-4.5146394,7.1981673,1.1470926,1001.1851,1,4
54.36,-6.4549327000000005,6.340179,0.5269136999999999,1001.1849,1,4
54.4,-7.587741,5.6204285999999986,-0.036479995,1001.2079,1,4
54.44,-6.9615817,5.3392019999999984,0.110286996,1001.1826,1,4
54.48,-6.569633500000001,5.649028,-1.2484868,1001.20526,1,4
54.52,-7.2005625,5.343968,-1.1964079,1001.18787,1,4
54.56,-6.6030817,5.973153599999999,-0.36315212,1001.1603,1,4
54.6,-6.359307,6.616639,-0.623544,1001.17285,1,4
54.64,-5.92434,7.479386,-1.7740037,1001.22784,1,4
54.68,-6.4453335,7.288724,-2.5125704,1001.23035,1,4
54.72,-6.741676299999999,7.488917999999999,-1.4473288999999998,1001.21783,1,4
54.76,-6.870725599999999,8.089504,-2.3610687,1001.23285,1,4
54.8,-8.228185,6.750102,-2.640398,1001.208,1,4
54.84,-9.327535,5.0103083,-1.930237,1001.15753,1,4
54.88,-9.121999,5.1247053,-2.1574879,1001.15515,1,4
54.92,-7.592457,5.305835,-2.3326604,1001.1751,1,4
54.96,-7.348682000000001,5.701459,-2.602521,1001.2228,1,4
55.0,-5.6375065000000015,5.9207199999999975,-2.8487096000000003,1001.2002,1,4
55.04,-5.7665567000000015,4.8911440000000015,-1.8923594,1001.2281,1,4
55.08,-6.7272916,4.514586,-2.6309261000000004,1001.20276,1,4
55.12,-7.721486599999999,4.4955196,-2.7918954,1001.2079,1,4
55.16,-7.4394727,5.196203,-2.6167216,1001.20746,1,4
55.2,-8.290273,5.887354,-3.8997452,1001.22534,1,4
55.24,-8.24725,6.244845400000001,-3.1943185,1001.1851,1,4
55.28,-8.175548,7.426951400000001,-3.1517081,1001.2482,1,4
55.32,-7.611525,6.993194,-2.967066,1001.26294,1,4
55.36,-8.888167,5.4679074,-1.8639895,1001.2329,1,4
55.4,-8.596612,5.8015666,-1.6130673,1001.2203,1,4
55.44,-7.1196660000000005,6.130458999999999,-1.2721913,1001.22534,1,4
55.48,-6.785092,6.030362,-1.1727698,1001.2205,1,4
55.52,-6.8090034,5.9493303,-1.6840867,1001.2052,1,4
55.56,-6.727759,5.200981,-1.8308543,1001.1876,1,4
55.6,-6.77557,5.177149,-1.4899783000000002,1001.1827,1,4
55.64,-6.3931974999999985,5.043685400000001,-1.3148066,1001.1824,1,4
55.68,-6.421889299999999,5.1533165,-1.1159627,1001.19775,1,4
55.72,-6.6656713000000005,6.3306565,-1.6698892,1001.22504,1,4
55.76,-7.540387599999999,6.430754,-2.3421757000000003,1001.22754,1,4
55.8,-8.051839,7.2124705,-2.214348,1001.1824,1,4
55.84,-9.03649,7.1266723,-3.767234,1001.23035,1,4
55.88,-9.003046000000003,6.1209292,-3.3032634,1001.13965,1,4
55.92,-8.166591,5.7539042999999985,-3.052341,1001.14246,1,4
55.96,-7.205864,6.063731,-2.6593866000000004,1001.1397,1,4
56.0,-7.6742979999999985,5.682407,-2.8819046000000004,1001.1901,1,4
56.04,-7.014697,5.5012784,-2.5647008,1001.2326,1,4
56.08,-4.5722294,5.243884,-2.773016,1001.24756,1,4
56.12,-6.7852917,4.0236464,-2.4321396,1001.205,1,4
56.16,-7.2967434,4.390671299999998,-2.9292533,1001.2124,1,4
56.2,-7.268076400000001,5.1056550000000005,-2.900848,1001.18744,1,4
56.24,-7.5978947,5.4774466,-3.0239437,1001.16724,1,4
56.28,-9.318637,5.4393150000000015,-3.3458846,1001.18744,1,4
56.32,-8.850228,5.596611,-3.4500425000000003,1001.1824,1,4
56.36,-9.624412,6.068497,-2.725665,1001.1923,1,4
56.4,-8.658897999999999,6.549919,-2.4984145,1001.21246,1,4
56.44,-6.933396000000001,6.068497,-1.6036125,1001.1849,1,4
56.48,-7.946720599999999,5.2105174000000005,-0.47682485,1001.2077,1,4
56.52,-7.3396916,5.7682047,-1.4947225,1001.22003,1,4
56.56,-7.4687524,5.5108104,-1.1065018,1001.172,1,4
56.6,-7.325363999999999,5.434546,-1.1964561000000002,1001.1723,1,4
56.64,-6.9621053,5.1819186,-1.7267099999999995,1001.1996,1,4
56.68,-7.2345605,4.895925,-1.2627388000000002,1001.1723,1,4
56.72,-7.3540616,4.795828,-1.1680514,1001.15216,1,4
56.76,-6.1399984000000005,6.354492,-1.3053496999999998,1001.1896,1,4
56.8,-6.417233,7.198173,-2.1954181,1001.19495,1,4
56.84,-7.6456485,6.9979777,-2.2617006,1001.16974,1,4
56.88,-8.314827000000001,6.9169464000000005,-2.0344498,1001.1924,1,4
56.92,-8.721116,6.874047,-2.6167817,1001.19745,1,4
56.96,-8.080629,7.279204400000001,-3.3506155,1001.20996,1,4
57.0,-8.257487,6.2782282999999985,-3.8145876,1001.21246,1,4
57.04,-6.7996545,6.044667,-3.147037,1001.18994,1,4
57.08,-6.6084685,6.292528,-3.3648202000000005,1001.1748,1,4
57.12,-6.116155,5.610911,-3.0476158,1001.2276,1,4
57.16,-5.045485,5.7014747,-2.6357229,1001.22003,1,4
57.2,-6.2356625,5.077056400000001,-2.791959,1001.25543,1,4
57.24,-6.1735305999999985,4.6957316,-2.6688650000000003,1001.1874,1,4
57.28,-6.9239674,4.9483595000000005,-3.2511973,1001.1824,1,4
57.32,-7.72698,5.124722,-2.8677113,1001.1523,1,4
57.36,-8.108807,6.1256857,-3.0949116,1001.16473,1,4
57.4,-8.304762,6.8120699999999985,-3.8666182,1001.1974,1,4
57.44,-7.539978,7.398355499999999,-2.7540317,1001.14966,1,4
57.48,-8.52938,7.465087,-2.133823,1001.18207,1,4
57.52,-7.7741555999999985,7.098061,-2.1811655,1001.1849,1,4
57.56,-7.8075975999999985,6.0827847,-0.8413275,1001.167,1,4
57.6,-7.8983974,6.092317,-1.1727343,1001.16974,1,4
57.64,-7.291347999999997,6.3020453000000005,-0.64721406,1001.1644,1,4
57.68,-5.3316097000000005,6.788233999999999,-0.77504134,1001.147,1,4
57.72,-6.3640323,6.159048,-0.9502129,1001.167,1,4
57.76,-6.870675,5.820622,-1.262682,1001.1747,1,4
57.8,-6.559972,5.4202312999999975,-0.9218035,1001.1723,1,4
57.84,-5.929023,5.7967879999999985,-0.5193777,1001.1446,1,4
57.88,-7.047478999999999,5.7491226,-0.7702995,1001.1745,1,4
57.92,-7.659279,6.154279,-1.3620987,1001.20233,1,4
57.96,-8.596103999999999,6.5117707000000005,-1.1111736,1001.1796,1,4
58.0,-7.5062929999999985,7.8225729999999984,-2.2711012000000004,1001.22,1,4
58.04,-7.0521936,7.7129416,-2.597774,1001.2121,1,4
58.08,-8.858944000000003,6.2448425,-3.1138225,1001.2225,1,4
58.12,-8.930622999999997,6.116145,-3.2700562,1001.2022,1,4
58.16,-7.7547765,6.211476,-2.5598943,1001.14716,1,4
58.2,-7.5731273,5.7538857000000005,-2.3989227000000004,1001.147,1,4
58.24,-7.4440565,5.529857,-2.394187,1001.1849,1,4
58.28,-5.03024,6.125676,-2.3468416000000003,1001.2175,1,4
58.32,-6.08178,4.414482,-1.8828683,1001.1619,1,4
58.36,-6.933447,4.1237435,-2.0533857,1001.17487,1,4
58.4,-6.269071,4.5336676,-2.7209384,1001.1596,1,4
58.44,-7.0004005000000005,4.4240375,-1.9681697,1001.1523,1,4
58.48,-9.117872,4.5336685,-3.1754448,1001.1851,1,4
58.52,-9.12267,4.5050697,-2.8393037,1001.19244,1,4
58.56,-8.448737,5.258186299999998,-2.2995832000000003,1001.2326,1,4
58.6,-7.650533699999999,5.4107165,-2.564712,1001.2451,1,4
58.64,-9.1992035,5.2295876,-1.8024741,1001.2047,1,4
58.68,-10.174307,5.7539089999999975,-2.0723374,1001.21967,1,4
58.72,-9.83496,5.3916515999999985,-0.25906223,1001.1948,1,4
58.76,-9.825415,6.1304684,-0.49578366,1001.2148,1,4
58.8,-7.884836999999999,6.392629,-0.09809573,1001.2225,1,4
58.84,-7.7557964,5.8254094000000025,0.12442,1001.215,1,4
58.88,-7.392554,5.901675,-0.8129941999999999,1001.22,1,4
58.92,-7.182261500000001,5.7396126,-0.32535225,1001.17224,1,4
58.96,-7.478628599999999,5.601383,-0.97396743,1001.22003,1,4
59.0,-7.416507000000001,5.4059544000000015,-1.2059548,1001.19464,1,4
59.04,-7.507340400000001,6.1495376,-0.8556103,1001.17975,1,4
59.08,-7.8180504,5.639517,-1.5563045,1001.1796,1,4
59.12,-7.3114114,5.7777476,-1.2817107,1001.2071,0,0
59.16,-7.5599789999999985,6.254403599999999,-1.7930278999999998,1001.225,0,0
59.2,-8.429922,5.3058586,-1.7740921000000005,1001.1948,0,0
59.24,-8.45384,5.3582915999999985,-1.3101223,1001.1519,0,0
59.28,-7.1346335000000005,5.606153,-1.3764056999999998,1001.1493,0,0
59.32,-6.953019,5.3439927,-1.4521577,1001.1695,0,0
59.36,-7.8660383,5.1342664000000005,-1.8167139,1001.1745,0,0
59.4,-7.870845299999999,5.034169,-1.963483,1001.19714,0,0
59.44,-7.933003,5.7014875,-1.9918913,1001.1871,0,0
59.48,-7.689253,5.725321,-1.8830018,1001.19965,0,0
59.52,-7.942603999999997,5.5823245,-2.0439737,1001.17206,0,0
59.56,-7.976083999999997,5.6252246,-2.1244605,1001.1871,0,0
59.6,-7.617622,5.796821,-2.034509,1001.1595,0,0
59.64,-7.6463156,5.534661,-2.0960574,1001.2096,0,0
59.68,-7.8470936,5.3392324,-1.8640739,1001.2172,0,0
59.72,-8.033525,4.90071,-1.982436,1001.19226,0,0
59.76,-8.392026,4.7052812999999984,-1.9114214,1001.1722,0,0
59.8,-8.38727,4.895944,-1.8546107,1001.20734,0,0
59.84,-7.785041,5.2772694000000016,-1.8404099,1001.20233,0,0
59.88,-8.047951,4.881646,-1.8309427,1001.1919,0,0
59.92,-8.387339,5.0961413,-1.5658181999999998,1001.1717,0,0
59.96,-7.9954157000000015,5.18194,-1.8167435,1001.2121,0,0
60.0,-8.062353,5.3726025,-1.7741357,1001.2197,0,0
60.04,-8.181871000000001,5.2153068,-1.9540452,1001.19965,0,0
60.08,-8.005038,5.4155025000000006,-1.684186,1001.20215,0,0
60.12,-7.828207000000001,5.1771755,-1.7031256,1001.1972,0,0
60.16,-8.205833,5.0198800000000015,-1.7504717,1001.21716,0,0
60.2,-8.449625,4.905483,-2.039272,1001.20233,0,0
60.24,-8.277572,5.110445,-1.8830386,1001.2044,0,0
60.28,-7.770934,5.0770800000000005,-1.9871975,1001.1745,0,0
60.32,-8.287175999999999,5.0151153,-1.8972459,1001.16956,0,0
60.36,-8.405426,4.743391,-1.6225367,1001.22,0,0
60.4,-8.252447,4.8434877,-1.5704559,1001.18463,0,0
60.44,-7.979974,5.0436826,-1.8450489,1001.1895,0,0
60.48,-8.754269,4.886386,-1.9255309,1001.1843,0,0
60.52,-8.572608,4.8148866,-2.1196392000000004,1001.18445,0,0
60.56,-7.984661599999999,4.8148856,-2.3090124,1001.1619,0,0
60.6,-8.1136875,4.748153,-2.0060077,1001.18195,0,0
60.64,-8.051524,4.8673162,-2.0438805,1001.17206,0,0
60.68,-7.8029437,4.9435806,-2.1101594,1001.1896,0,0
60.72,-8.1422825,4.8387150000000005,-2.0580785,1001.18207,0,0
60.76,-8.319105,4.8768473,-1.9965286,1001.1995,0,0
60.8,-8.23782,5.0198436,-2.1811676,1001.22217,0,0
60.84,-8.037041,5.0722747,-2.0770082,1001.18445,0,0
60.88,-8.31902,4.938811,-2.034396,1001.20465,0,0
60.92,-8.151698,4.8816112999999985,-1.8734237,1001.1743,0,0
60.96,-8.12299,4.829179,-1.9633746,1001.187,0,0
61.0,-8.1373,4.905442,-2.7208767000000003,1001.1745,0,0
61.04,-8.213747,4.9102087,-1.9491659,1001.2045,0,0
61.08,-8.242401,4.838709,-1.9870389,1001.1994,0,0
61.12,-8.424002999999999,4.6480465,-1.9633641,1001.16156,0,0
61.16,-8.251901,4.9245057,-1.9822991,1001.17145,0,0
61.2,-8.103699,4.9197392,-1.882874,1001.16943,0,0
61.24,-8.318761,4.8482394,-1.916012,1001.18695,0,0
61.28,-8.309173,4.8005733,-2.0769792,1001.212,0,0
61.32,-8.122731,4.9292693,-2.0959141,1001.1944,0,0
61.36,-8.204718,4.910221599999999,-2.1007154,1001.2095,0,0
61.4,-8.324213,4.8673224,-2.0628402,1001.1768,0,0
61.44,-7.9705086,4.976953,-1.9302771,1001.2195,0,0
61.48,-8.051766,4.786290599999999,-2.143325,1001.20685,0,0
61.52,-8.276419,4.729092,-2.0628405,1001.2169,0,0
61.56,-8.3576765,4.6957260000000005,-2.1575286,1001.16394,0,0
61.6,-8.276421000000001,4.8339567,-1.972887,1001.1843,0,0
61.64,-8.137808,4.9435873,-2.0865128,1001.1944,0,0
61.68,-8.199946,4.833957,-2.1527948,1001.2169,0,0
61.72,-8.15215,4.9245214000000015,-2.1149194,1001.212,0,0
61.76,-7.9991970000000014,4.914988,-1.9823564,1001.19916,0,0
61.8,-8.20473,4.767225,-2.0912476000000004,1001.21185,0,0
61.84,-8.357685,4.9674206,-2.1433263,1001.20685,0,0
61.88,-8.190394,4.910222,-2.0249662,1001.2044,0,0
61.92,-7.9992023,4.6242285,-1.8734655,1001.217,0,0
61.96,-8.620578,4.3954334,-2.0249665,1001.189,0,0
62.0,-8.415049,4.867323000000002,-1.9776227,1001.20166,0,0
62.04,-7.946628599999999,5.119950299999998,-2.0723107,1001.21674,0,0
62.08,-8.032665,5.1390166,-1.991826,1001.1943,0,0
62.12,-8.266878,4.7529254000000005,-1.9066069,1001.1792,0,0
62.16,-8.357696,4.8577900000000005,-1.9444823,1001.202,0,0
62.2,-8.118706,4.8482566,-1.9018726,1001.1841,0,0
62.24,-8.3576975,4.6432943,-2.043905,1001.1866,0,0
62.28,-8.33858,4.628995,-1.9160761,1001.1787,0,0
62.32,-8.180847,4.9483546999999986,-1.8213882,1001.1991,0,0
62.36,-8.251789,4.948336,-1.9065382,1001.2093,0,0
62.4,-8.280439999999999,4.953101599999999,-1.8591919,1001.1966,0,0
62.44,-8.371228,4.6909410000000005,-1.9396739,1001.1865,0,0
62.48,-8.418998,4.776738,-1.8970617,1001.2093,0,0
62.52,-8.213436999999999,4.795803,-1.9207311,1001.2116,0,0
62.56,-8.2898855,4.6909385000000015,-1.8213061,1001.2292,0,0
62.6,-8.017405499999999,4.7147703000000005,-1.8828504,1001.22687,0,0
62.64,-8.136873,4.9006653,-1.897051,1001.20667,0,0
62.68,-8.280241,4.800567,-1.8639078,1001.1991,0,0
62.72,-8.251533,5.0913267,-1.8307642,1001.21674,0,0
62.76,-8.1606865,5.0198274000000005,-1.7928863999999998,1001.1966,0,0
62.8,-8.304052,4.9959935999999985,-1.9349159,1001.2114,0,0
62.84,-8.203649,4.729066400000002,-1.7834125,1001.1918,0,0
62.88,-8.380471,4.8196297,-1.7834096999999998,1001.21686,0,0
62.92,-8.107996,4.953093,-1.7407974999999998,1001.20166,0,0
62.96,-8.026708,5.0102905999999985,-1.8212798,1001.2192,0,0
63.0,-8.241772000000001,4.9292583,-1.854418,1001.2066,0,0
63.04,-8.270424,5.0198220000000005,-1.9112285,1001.2319,0,0
63.08,-8.103099,4.905424,-1.7455213,1001.2068,0,0
63.12,-8.299043,4.8863572999999985,-1.8070662,1001.2166,0,0
63.16,-7.997886999999999,5.0484195,-1.5798119,1001.2043,0,0
63.2,-8.236851,4.8815894,-1.6318879,1001.1918,0,0
63.24,-8.351534,4.8196235,-1.5656035,1001.17896,0,0
63.28,-8.389743,4.776724,-1.6176792,1001.2319,0,0
63.32,-8.231983,5.05795,-1.6129421999999998,1001.22144,0,0
63.36,-8.467546,4.8720875,-1.7077543000000002,1001.2367,0,0
63.4,-8.505813,4.833956,-1.7882417000000002,1001.21924,0,0
63.44,-8.204711999999999,4.78629,-1.5846646999999998,1001.20636,0,0
63.48,-8.271654,4.9245214000000015,-1.6178081,1001.1787,0,0
63.52,-8.467653,4.752926,-1.8024522,1001.2043,0,0
63.56,-8.190452,4.976955,-1.84033,1001.20654,0,0
63.6,-8.300411,4.738628,-1.6746279,1001.2118,0,0
63.64,-8.309997000000001,4.7338614,-1.6888336,1001.18896,0,0
63.68,-8.400841,4.7100296,-1.6793672999999998,1001.2164,0,0
63.72,-8.381748,4.8720930000000005,-1.882949,1001.22644,0,0
63.76,-8.166682000000002,4.9197593,-1.8214042,1001.1913,0,0
63.8,-8.262303999999999,4.9626594000000015,-1.8687507,1001.14856,0,0
63.84,-8.338808,4.7624645,-1.7125177,1001.18616,0,0
63.88,-8.267138000000001,4.786298,-1.9160993,1001.1867,0,0
63.92,-8.243264,4.800598,-1.8498201,1001.2038,0,0
63.96,-8.147696,4.9626617,-2.0439332,1001.1689,0,0
64.0,-8.405828999999999,4.590871,-1.849825,1001.17377,0,0
64.04,-8.281581,4.6433034000000015,-1.987125,1001.1812,0,0
64.08,-8.396322,4.733868599999999,-1.7835481,1001.18396,0,0
64.12,-8.229056,4.7338695999999985,-2.1386309,1001.22144,0,0
64.16,-8.248202000000001,4.6909714000000005,-1.8261625,1001.199,0,0
64.2,-8.214768,4.8530345,-1.7977583,1001.20386,0,0
64.24,-8.391645,4.7100387,-1.9350585,1001.2164,0,0
64.28,-8.300856,4.7529383,-1.9303267,1001.2013,0,0
64.32,-8.205289,4.772005,-1.8451098,1001.2088,0,0
64.36,-8.295094,4.776747,-1.8450172,1001.2038,0,0
64.4,-8.390674,4.738614,-1.8781568,1001.20636,0,0
64.44,-8.146889999999999,4.857778,-2.0107183,1001.20874,0,0
64.48,-8.390644,4.74338,-1.9254981,1001.2013,0,0
64.52,-8.208997,4.748146,-1.9965128,1001.2164,0,0
64.56,-8.323697,4.5813165,-1.8260726000000005,1001.21893,0,0
64.6,-8.338021000000001,4.8244099999999985,-1.8260713,1001.21906,0,0
64.64,-8.338006,4.8863754,-2.0059772,1001.2213,0,0
64.68,-8.275853,4.648047,-1.8781471,1001.2038,0,0
64.72,-8.433572,4.719545,-1.8828801,1001.2011,0,0
64.76,-8.218466000000001,4.7386107000000015,-1.8260658,1001.1786,0,0
64.8,-8.361844,4.795808999999998,-1.8876117,1001.1913,0,0
64.84,-8.309253,4.8625407,-1.963361,1001.18365,0,0
64.88,-8.361815,4.681411,-1.9728284,1001.2088,0,0
64.92,-8.280545,4.5860796,-1.7597787,1001.19867,0,0
64.96,-8.270968,4.7576747,-1.906544,1001.1987,0,0
65.0,-8.576861,4.6337447,-1.8781362,1001.2314,0,0
65.04,-8.514709,4.6432769999999985,-1.8686659,1001.2339,0,0
65.08,-7.9076595,4.833939,-1.7361012999999998,1001.20374,0,0
65.12,-8.356946,4.719541,-2.01543,1001.19354,0,0
65.16,-8.395168,4.7862725,-1.9538811000000005,1001.21375,0,0
65.2,-8.074907000000001,4.9721684,-1.887598,1001.2237,0,0
65.24,-8.127472000000001,4.919736,-1.7692366999999998,1001.21124,0,0
65.28,-8.332986,4.881603,-1.8875954,1001.21625,0,0
65.32,-8.156119,4.876836,-1.7976401999999998,1001.19867,0,0
65.36,-8.256259,4.9816937,-1.8402284,1001.2035,0,0
65.4,-8.275355000000001,4.8196306,-1.9112424,1001.18365,0,0
65.44,-8.284891,5.0484247,-1.8591619,1001.2264,0,0
65.48,-8.084118,4.919728,-1.7834091,1001.21625,0,0
65.52,-8.270503,4.9530926,-1.8496884,1001.21136,0,0
65.56,-8.017152000000001,4.9387919999999985,-1.8165456,1001.19604,0,0
65.6,-8.447312,4.7481294,-1.986982,1001.1862,0,0
65.64,-8.150938,4.852993,-1.9159635,1001.2164,0,0
65.68,-8.122238000000001,4.98169,-1.8686177,1001.2263,0,0
65.72,-8.122214,4.824393,-1.8402091,1001.20605,0,0
65.76,-8.327721,4.8100924,-1.887551,1001.1963,0,0
65.8,-8.299017,4.872057,-1.7975949,1001.20844,0,0
65.84,-8.423269,4.8863564,-1.8402025,1001.2188,0,0
65.88,-8.217713,4.8148575,-1.7739183999999997,1001.1933,0,0
65.92,-8.212911,4.867289,-1.7739164,1001.20605,0,0
65.96,-8.16031,5.0341177,-1.7786486,1001.2389,0,0
66.0,-8.365817,4.9864516,-1.8591315,1001.23627,0,0
66.04,-8.23674,5.000751,-1.7739098999999998,1001.2185,0,0
66.08,-8.217597,5.053182,-1.7975797999999998,1001.2038,0,0
66.12,-8.169775,5.005516,-1.7691712,1001.1708,0,0
66.16,-8.150631,4.9864492,-1.6224023,1001.18616,0,0
66.2,-8.260544,4.9626160000000015,-1.7360259999999998,1001.2114,0,0
66.24,-8.074107000000001,4.8815837,-1.7549616,1001.2013,0,0
66.28,-8.360871000000001,5.0055137,-1.7881002,1001.21387,0,0
66.32,-8.117077,5.005513,-2.0437558,1001.21387,0,0
66.36,-8.428211,4.771962599999998,-1.7123883999999998,1001.20404,0,0
66.4,-8.213116000000001,4.800562,-1.6981847,1001.1965,0,0
66.44,-8.055377,5.0484230000000005,-1.7407936999999998,1001.1913,0,0
66.48,-8.12229,5.1151547,-1.8070753,1001.2315,0,0
66.52,-8.150963,5.02459,-1.8212779,1001.2088,0,0
66.56,-8.327810000000001,4.8434606,-1.8070742,1001.2114,0,0
66.6,-8.141394,4.886359,-1.6981825000000002,1001.16864,0,0
66.64,-8.155728,4.891125700000001,-1.7313227999999998,1001.20654,0,0
66.68,-8.270437,4.9006586,-1.8449479,1001.20905,0,0
66.72,-8.084021,5.081788,-1.745525,1001.1737,0,0
66.76,-8.208291000000001,4.96739,-1.9443697,1001.18396,0,0
66.8,-8.150928500000001,4.9340243,-1.7313211,1001.2118,0,0
66.84,-8.203501,5.0531883,-1.7928677,1001.2239,0,0
66.88,-8.069662,5.1866517,-1.9491025,1001.2068,0,0
66.92,-8.432921,4.8005605000000005,-1.9301647,1001.1915,0,0
66.96,-8.284742,4.934024,-1.7502567999999998,1001.2091,0,0
67.0,-7.9979496,5.1628184,-1.7739281999999998,1001.232,0,0
67.04,-8.146119,4.9816895,-1.8070687,1001.22925,0,0
67.08,-8.361203999999999,4.8911242,-1.863881,1001.1817,0,0
67.12,-8.170007,5.005522,-1.9490998,1001.22687,0,0
67.16,-8.1556635,4.8291593,-1.7313168,1001.20184,0,0
67.2,-8.193896,4.8768244,-1.7313164,1001.20435,0,0
67.24,-8.265589,4.8434587,-1.8354728,1001.21674,0,0
67.28,-8.418536,4.9149566,-1.9206916,1001.2095,0,0
67.32,-8.303817,4.8577580000000005,-1.7928622,1001.2196,0,0
67.36,-8.371417,4.924506,-1.759784,1001.1817,0,0
67.4,-8.237606,4.781510400000001,-1.7739892,1001.1944,0,0
67.44,-8.228067999999999,4.829177,-1.9870394,1001.2247,0,0
67.48,-8.361925999999999,4.5956160000000015,-1.8402752,1001.1691,0,0
67.52,-8.433644000000001,4.600383,-1.920762,1001.217,0,0
67.56,-8.165998,4.972175,-1.8686856,1001.1894,0,0
67.6,-8.099103999999999,4.7433805,-1.9255005,1001.2147,0,0
67.64,-8.45283,4.505053,-1.82608,1001.18695,0,0
67.68,-8.290341999999999,4.5956187,-1.7455974,1001.2045,0,0
67.72,-8.328600999999999,4.7433825,-1.8923659,1001.2046,0,0
67.76,-8.495917,4.8053484000000015,-1.9018368000000003,1001.2072,0,0
67.8,-8.23305,4.767216,-1.7787442,1001.20734,0,0
67.84,-8.395586,4.7338505,-1.8497623,1001.1895,0,0
67.88,-8.362150999999999,4.5717883000000015,-1.7929516,1001.1995,0,0
67.92,-8.486449,4.6957192,-1.9397204,1001.20966,0,0
67.96,-8.276159,4.72432,-1.8118932,1001.1895,0,0
68.0,-8.352657,4.7481527,-1.8355674,1001.1644,0,0
68.04,-8.386139,4.676655,-1.901851,1001.2096,0,0
68.08,-8.261884,4.76722,-1.9207904,1001.20233,0,0
68.12,-8.242794,4.867318,-1.8403085,1001.21,0,0
68.16,-8.070745,4.7910542000000005,-1.7882322,1001.2124,0,0
68.2,-8.142458,4.7338557,-1.759827,1001.1999,0,0
68.24,-8.238083999999999,4.857787,-1.8024395,1001.2175,0,0
68.28,-8.118611,4.9626517,-1.8403169,1001.19495,0,0
68.32,-8.338503999999999,4.8387218,-1.9302725,1001.17975,0,0
68.36,-8.1759815,5.1676145,-1.5562537,1001.20245,0,0
68.4,-8.075627,5.162848,-1.7030221,1001.1974,0,0
68.44,-7.922695,5.3201447,-1.53732,1001.1799,0,0
68.48,-8.166487,5.162849,-1.5799316,1001.17487,0,0
68.52,-8.214299,5.3201456,-1.4521041,1001.2027,0,0
68.56,-8.180866,4.543197599999999,-1.669889,1001.1826,0,0
68.6,-8.845275,4.209539,-1.6225464,1001.1877,0,0
68.64,-8.964798,4.466933999999998,-2.0817862000000003,1001.2205,0,0
68.68,-8.635012,4.7672276,-2.114929,1001.1799,0,0
68.72,-8.300447,4.7529283,-2.1196654,1001.1952,0,0
68.76,-8.243106,4.824427,-1.6320231,1001.22296,0,0
68.8,-8.348289,4.7386300000000015,-1.0638971000000002,1001.23535,0,0
68.84,-8.477359,4.5050690000000015,-1.1396488,1001.19995,0,0
68.88,-9.375988,4.486003,-1.2580115,1001.2102,0,0
68.92,-8.67338,4.800596700000002,-0.86505777,1001.23285,0,0
68.96,-8.075918,5.110423,-0.61413574,1001.2055,0,0
69.0,-8.056827,5.320151999999998,-0.23065141,1001.2104,0,0
69.04,-7.8513160000000015,5.339219,-0.21645015,1001.2253,0,0
69.08,-7.607566999999999,5.76821,-0.9550192,1001.1952,0,0
69.12,-8.262421,5.6252136,-0.5478623,1001.2107,0,0
69.16,-7.8943963,5.8206430000000005,-0.09336132,1001.23834,0,0
69.2,-7.9087586,5.9207405999999985,0.20963849,1001.2205,0,0
69.24,-6.981497,6.2210345,1.1091735,1001.21533,0,0
69.28,-6.737742999999999,6.731056,0.6309971999999999,1001.203,0,0
69.32,-6.6278334,7.0122839999999975,0.36113375,1001.208,0,0
69.36,-6.560465,7.102837599999999,0.41325352,1001.20544,0,0
69.4,-6.283239,7.1076039999999985,0.3232996,1001.21295,0,0
69.44,-6.4505343,7.1171374000000025,0.2144081,1001.2432,0,0
69.48,-6.813802000000001,6.9741406,0.29015833,1001.1753,0,0
69.52,-7.6311507,6.5308514,1.1565542,1001.218,0,0
69.56,-7.052796400000001,6.416453400000001,0.7493951999999999,1001.1957,0,0
69.6,-6.527021,6.931242,-0.21168925,1001.1904,0,0
69.64,-6.9619856,7.102838,-0.85083413,1001.2155,0,0
69.68,-6.699098599999999,7.002740400000001,-0.15961124,1001.1932,0,0
69.72,-7.339595,6.6738477,-0.10753304,1001.2107,0,0
69.76,-6.880736,6.826378,0.2428127,1001.1955,0,0
69.8,-6.9524364,6.7405796,-0.14540872,1001.2206,0,0
69.84,-7.2535663,6.683381,-0.8792416999999999,1001.2333,0,0
69.88,-7.138853,6.673848,-0.3347854,1001.2583,0,0
69.92,-6.966783,6.6976814,0.05816999,1001.26324,0,0
69.96,-6.914208,6.8216114,-0.23536332,1001.1881,0,0
