Timestamp,Ax,Ay,Az,P,LPFRMSAcc,LPFPValue,Value,Type
0.0,-7.7227798,5.744779,0.58414155,998.0498,0.020042338959757232,3.59297928,0,0
0.02,-7.679767,5.773379,0.75457966,998.0368699999999,0.057710625780335735,10.3477337784,0,0
0.04,-7.6176369999999975,5.8734765,0.64568764,998.0316,0.11082437749534377,19.871896771584,0,0
0.06,-7.4790273,5.8210444,0.66462475,998.03937,0.17710342720975808,31.808850095983672,0,0
0.08,-7.545947999999999,5.9020762000000015,0.56993645,998.03723,0.2549768239681097,45.834764221077684,0,0
0.1,-7.698187,5.7209296,0.79251885,998.03937,0.3428707146789162,61.655998522814855,0,0
0.12,-7.6264660000000015,5.8067265,0.59367615,998.04395,0.4392606030935052,79.00663777714772,0,0
0.14,-7.4018025,5.778127,0.7025686,998.0216,0.542420818639411,97.64611648627847,0,0
0.16,-7.4400167,5.973555,0.541601,998.0314300000001,0.6514837007656388,117.35734700231585,0,0
0.18,-7.655084599999999,5.8925233,0.45164952,998.0359,0.7656068921742856,137.9446330770781,0,0
0.2,-7.7888947,5.88299,0.7073096,998.0487,0.884030940385145,159.23193369366055,0,0
0.22,-7.430385,5.8400903,0.6647021,998.0561,1.0051795236448835,181.0611595171756,0,0
0.24,-7.5546355,5.954487,0.7025796,998.063,1.1286540933863654,203.29067008057166,0,0
0.26,-7.5498323,5.849622,0.28121978,998.06793,1.2535526656755969,225.7938637500984,0,0
0.28,-7.535456699999999,5.8114886,1.228104,998.0113,1.3793431657365178,248.45766844699185,0,0
0.3,-7.2390842000000015,6.0402827000000014,0.7641346,998.04584,1.5051862417655988,271.1819236947576,0,0
0.32,-7.8938937000000005,5.959251,-0.1164625,998.0233,1.6315214020811986,293.87770458638244,0,0
0.34,-7.8317320000000015,5.7066225999999975,-0.12592913,998.0832,1.7574202464889157,316.4668363657111,0,0
0.36,-7.755231,5.587457700000001,1.8341167,998.0388,1.8825669845887256,338.8802522750094,0,0
0.38,-7.755231,5.587457700000001,1.8341167,998.0384,2.0065986332977093,361.05771590427526,0,0
0.4,-6.9330807,6.087946,1.100286,998.04584,2.128282309026955,382.94688001383935,0,0
0.42,-7.5878777999999985,5.992614,0.30964386,998.0327,2.2482468886354434,404.5024543730002,0,0
0.44,-7.664341999999999,5.8210177000000005,0.53689635,998.0376,2.3661886536362786,425.68568640101194,0,0
0.46,-7.602169,5.8114834,0.8256983,998.0079300000001,2.481846477139344,446.4635502979195,0,0
0.48,-7.621252,5.906814,0.60791904,998.04254,2.595188016828126,466.80855520015456,0,0
0.5,-7.616460000000001,5.916347,0.67420185,998.0202,2.7060882646070374,486.69776345304876,0,0
0.52,-7.6259837,5.8067150000000005,0.79256517,998.0307,2.814327989794573,506.11266643687514,0,0
0.54,-7.630750999999999,5.720917,0.835176,998.0409,2.9197354877134223,525.0386163542115,1,1
0.56,-7.6976330000000015,5.782881,0.65527195,998.02216,3.0224198847696018,543.4643264582946,1,1
0.58,-7.7119474000000015,5.773348,0.89199436,998.04,3.1223797553554262,561.3817563310126,1,1
0.6,-7.5977526,5.906823999999999,1.0055726,998.0348,3.2195751990353965,578.7855483237547,1,1
0.62,-7.310961200000001,5.9640226,0.8635405999999999,998.035,3.313558920883388,595.6728369545757,1,1
0.64,-7.6551050000000025,5.8257923,0.8114624,998.03,3.404739506175644,612.0429309757329,1,1
0.66,-7.5117087,5.835325,0.7215088000000001,998.0296,3.492876575525003,627.8970980613148,1,1
0.68,-7.755475,5.6208300000000015,1.1239336000000002,998.0345,3.578224554703953,643.2383347451142,1,1
0.7,-7.8271713000000025,5.7018614,1.1902153,998.04224,3.6610352611261208,658.071145537837,1,1
0.72,-7.530821,5.7209277,1.2233565,998.0651,3.7408476687404457,672.4013953903507,1,1
0.74,-7.3969827000000015,5.5493317000000015,0.6599626000000001,998.0278,3.8171716606603487,686.2358592166263,1,1
0.76,-7.5547147,5.4301677,0.58894664,998.0423,3.890245983406442,699.5824946403436,1,1
0.78,-7.530812299999999,5.654196,0.66943187,998.04974,3.960432179032493,712.450063784035,1,1
0.8,-7.851058,5.787659,1.2233573,998.02,4.02862281991849,724.8478996497782,1,1
0.82,-7.296597999999999,6.149916999999999,1.5310938,998.03,4.094460691459958,736.7860829820097,1,1
0.84,-7.1723194,6.154684,1.7678144,998.0394,4.157879296713114,748.2751737156343,1,1
0.86,-7.1723194,6.154684,1.7678144,998.035,4.218931931295005,759.3260696624885,1,1
0.88,-6.942885,5.3634353,1.1949518999999995,998.0545,4.276093127496389,769.9500636703441,1,1
0.9,-7.4782210000000005,5.4873660000000015,1.5642353999999998,998.0303,4.330757820256519,780.158513626472,1,1
0.92,-9.031654,5.8543905999999994,0.19125849,998.013,4.385843062549424,789.9629761586513,1,1
0.94,-7.788901299999999,6.1356173,0.09183634,998.02496,4.439336754630343,799.3752223939138,1,1
0.96,-8.214303,6.0355196,0.6552306,998.0376,4.491852159270146,808.4070677267737,1,1
0.98,-8.266876,6.0688853,0.85881037,998.0296,4.543474098442059,817.0702473790718,1,1
1.0,-8.0804615,5.8019586,0.465855,998.02,4.593429286918396,825.3764520292783,1,1
1.02,-7.0719204,5.225205,0.39957356,998.043,4.63932787451922,833.3374140308953,1,1
1.04,-6.7134333,4.815281,0.19599439999999999,998.0299,4.680358918454312,840.9646130050128,1,1
1.06,-6.656073599999999,4.672283999999999,0.11077523,998.038,4.716668797169737,848.269470211725,1,1
1.08,-7.234425999999999,4.924912,-0.31058642,998.03,4.7499736480571135,855.2631799468138,1,1
1.1,-8.047531,5.5731764,0.04917911,998.0602,4.782648064233332,861.9568911409294,1,1
1.12,-8.367796,6.7409835000000005,-1.3001279,998.0376,4.816798160361631,868.3613449039427,1,1
1.14,-9.309427000000001,6.907813000000001,-1.1060183000000001,998.0596,4.853836440151028,874.4872339672872,1,1
1.16,-9.648803,7.179507000000001,-0.1828102,998.0745,4.8940898442547285,880.3449837013762,1,1
1.18,-9.452849,7.0889425,1.7251531999999998,998.0483,4.936857768587605,885.944623305092,1,1
1.2,-8.429991000000001,6.3596597,1.6399322,998.0006,4.979086108408586,891.2958663750371,1,1
1.22,-8.047626,5.763841,1.4931638,998.04254,5.0192813717903935,896.4085127766905,1,1
1.24,-6.150072,5.458782,1.6872717000000002,998.0546,5.054176250807778,901.2919730511952,1,1
1.26,-6.7762356,5.3825173,1.9666008999999998,998.0573,5.085259589974866,905.9553537267636,1,1
1.28,-7.273364,5.678045,0.9344979999999999,998.0105,5.11369446311957,910.4073154182793,1,1
1.3,-7.660547,5.5970135,0.67410403,998.0561,5.140179096874395,914.6566043933966,1,1
1.32,-7.2160444,5.4063516,1.2943093,998.038,5.16400912264868,918.7114491559939,1,1
1.34,-6.5325513,5.5493484,1.4268708,998.0556,5.18453545326234,922.5799489312636,1,1
1.36,-5.9876723,5.7781444,1.729871,998.0335,5.2016728630002955,926.2697881165393,1,1
1.38,-5.9112050000000025,5.944974,1.6872604,998.0384,5.21586387133939,929.7884970234293,1,1
1.4,-6.9293320000000005,6.3262987,1.4410688,998.061,5.229356473780166,933.1434092242732,1,1
1.42,-6.642563000000001,7.131848,1.8150849999999998,998.0384,5.243058090925,936.3414316117313,1,1
1.44,-7.287855,6.9507184,2.0849442,998.076,5.257665900862206,939.3894486394867,1,1
1.46,-8.893889,6.850622,2.0802083,998.0415,5.275376614771577,942.2938238701096,1,1
1.48,-9.281062,6.4454645999999975,1.7203926999999999,998.02856,5.2957909797704525,945.0607748739557,1,1
1.5,-8.9082575,5.7733808,0.6598843000000001,998.0487,5.316870769070249,947.6964093114076,1,1
1.52,-8.850918,5.1870947,1.4457937,998.0384,5.337889535479143,950.206487066819,1,1
1.54,-8.205672999999999,4.805771,0.603067,998.0364400000001,5.35704991760746,952.5965796020599,1,1
1.56,-8.220022,5.0583987,0.51784694,998.0211,5.374784277781657,954.8719936396317,1,1
1.58,-8.511609,5.511222,0.797175,998.0289300000001,5.392245907692696,957.0379144541272,1,1
1.6,-6.5992727,5.9926343,0.57943034,998.0310699999999,5.406829730940126,959.0992974457803,1,1
1.62,-6.302926,5.8925366,0.8445568999999999,998.0310699999999,5.418270856437896,961.0608898384006,1,1
1.64,-5.9253225,5.2633505,1.5168423999999998,998.0563,5.425646122298559,962.9273363531016,1,1
1.66,-6.0543785,4.9582915000000005,1.8387817,998.03394,5.429338779579693,964.7029122666197,1,1
1.68,-6.699653,4.4911685,1.0860113,998.0295,5.429971569925507,966.3917868596452,1,1
1.7,-6.8526077,4.624633,0.8114156,998.0419,5.4282482819635165,967.9980168573476,1,1
1.72,-7.8085713000000005,6.5789203999999994,0.49894473,998.0646,5.428431509052962,969.5255213826308,1,1
1.74,-8.066680999999999,6.8839808000000025,0.39478779999999997,998.06647,5.431107863796905,970.9779717961937,1,1
1.76,-7.932848,7.565597500000001,0.7546024,998.0347,5.4367589852346345,972.3587612031515,1,1
1.78,-9.070443,6.869681,0.669383,998.0169,5.445870201940906,973.6711960228081,1,1
1.8,-9.046544,6.2929273,0.40425625,998.06396,5.457235832852086,974.9186773797743,1,1
1.82,-8.783657,5.134654,1.3937467,998.0636599999999,5.468976927061387,976.1042738442227,1,1
1.84,-7.8037987000000015,5.0774550000000005,0.4610688,998.01184,5.47903764294977,977.2307341183704,1,1
1.86,-8.625926,5.392048,0.83035225,998.0591,5.4894163259076425,978.3010565337806,1,1
1.88,-8.30568,5.701874299999999,1.1002133,998.0274,5.4998889961613004,979.3178082565156,1,1
1.9,-7.7368836,6.0593660000000025,1.2091045,998.0345,5.509922667740517,980.2835901690007,1,1
1.92,-7.789464,6.1546980000000024,2.0944380000000002,998.05444,5.520040907903653,981.2009301262643,1,1
1.94,-6.9004210000000015,6.245262,2.0755005,998.0144,5.528928516594059,982.072020204048,1,1
1.96,-5.5190586999999995,6.0784325999999975,0.9345087,998.0368699999999,5.534052226803538,982.8991888560428,1,1
1.98,-6.3220677000000025,5.668508999999999,1.114416,998.045,5.536456932711516,983.6845999970641,1,1
2.0,-5.399567,6.064133,1.3558704,998.03656,5.5357605777418915,984.4302563372804,1,1
2.02,-6.0830793,6.311994,1.4552928,998.0695,5.533685978853071,985.1382195566816,1,1
2.04,-6.3698697,6.998378,1.3511358,998.0419,5.531799995879239,985.8102291069406,1,1
2.06,-7.689097,6.645653,1.8529825,998.0445599999999,5.531690726151957,986.4480603367643,1,1
2.08,-7.689097,6.645653,1.8529825,998.0378,5.533151753620347,987.0533710742244,1,1
2.1,-7.5211770000000016,6.4740410000000015,2.283871,998.07245,5.535688736022488,987.6278923259764,1,1
2.12,-7.5211770000000016,6.4740410000000015,2.283871,998.0419,5.5391672990674445,988.1730297316516,1,1
2.14,-7.9322032999999985,6.1785144999999995,2.5111256,998.0052,5.543839835671745,988.690108956272,1,1
2.16,-7.5115566,6.1308484000000005,1.5026995,998.0174599999999,5.548403841100839,989.180578622904,1,1
2.18,-7.377686,5.9020524000000005,0.75940126,998.0122,5.552162947191938,989.6457514572977,1,1
2.2,-6.5411962999999975,5.6541904999999995,0.69312185,998.04205,5.553525188647578,990.0870048485216,1,1
2.22,-7.4541144,5.2823987,1.7157555,998.0626,5.5540570735045485,990.5056084875522,1,1
2.24,-8.214091999999999,5.344364,1.8435854999999999,998.04785,5.555257974424938,990.9026387324443,1,1
2.26,-8.467409,5.5588584,1.3228022,998.02325,5.5575517934313945,991.2790888573944,1,1
2.28,-8.926234,6.216643,0.35225245,998.04205,5.562192146589976,991.636066847914,1,1
2.3,-8.754138000000001,6.1975755999999995,-0.07857618,998.03046,5.568562428267523,991.9745124156842,1,1
2.32,-6.440675700000001,6.002146,0.20075698,998.0405,5.57244763358315,992.2954004746697,1,1
2.34,-6.249471700000001,5.9163475,0.70260495,998.0581699999999,5.573766035413415,992.59968313388,1,1
2.36,-6.325924400000001,5.6970854000000015,0.61738795,998.0779,5.5726061831417635,992.8882688722767,1,1
2.38,-7.6212273,5.6684856,0.5179676,998.0606,5.571290820342134,993.1618836227838,1,1
2.4,-7.6355424,5.935412,0.49903220000000004,998.0483,5.5701997134333325,993.4212407152896,1,1
2.42,-7.616411,6.2309384,0.9014576999999999,998.0503,5.56972150878203,993.6670732556528,1,1
2.44,-7.224443400000001,6.5502970000000005,0.8115062,998.0649,5.56958690939632,993.9001230645973,1,1
2.46,-7.6259229999999985,6.207104,0.94407177,998.0473,5.569948420861935,994.1209757127484,1,1
2.48,-7.7692809999999985,5.6637163,0.5558539,998.0350300000001,5.570232856385796,994.3302117080884,1,1
2.5,-7.731030499999999,5.6208167,1.2849532,998.0576,5.570476753694562,994.5285112314219,1,1
2.52,-7.1621857,5.9258747000000005,1.2376136999999998,998.0507,5.5701300969817416,994.7164085698064,1,1
2.54,-7.668820399999999,5.964007,1.0908494,998.04285,5.57009035318054,994.8944098471517,1,1
2.56,-7.788303999999999,5.916342,0.94881827,998.0282,5.570427005958297,995.0629734203636,1,1
2.58,-7.4393535,5.9592395,0.4611768,998.0085,5.570505726378348,995.222520089341,1,1
2.6,-7.324626400000001,5.8734410000000015,0.6221475999999999,998.03723,5.5700782819899,995.3736284817276,1,1
2.62,-7.827089,5.81149,1.237567,998.0607,5.57007317507531,995.5168213147059,1,1
2.64,-7.984823,5.7161593,0.97244024,998.0403,5.570526661654859,995.652431025193,1,1
2.66,-7.32043,5.973553,0.5558126,998.0298,5.570545521228771,995.7808142936883,1,1
2.68,-7.310869999999999,5.8496227,0.8351424999999999,998.0626,5.570046237783563,995.9024681782739,1,1
2.7,-7.4016867,5.568396,1.204426,998.07245,5.568966513451314,996.0177734852516,1,1
2.72,-7.549861,5.635128,1.7157418000000002,998.115,5.5678674300939015,996.1272072699504,1,1
2.74,-8.434125,5.749525,1.2470357,998.11475,5.568225429475003,996.2310581159384,1,1
2.76,-7.1483570000000025,6.040285,1.9003835,998.0606,5.568344687567032,996.329407074236,1,1
2.78,-7.009742699999999,6.1642160000000015,1.4932246,997.98425,5.568052216242196,996.4222656483203,1,1
2.8,-7.774511299999999,5.792424,0.57001585,998.0182,5.5679345113296685,996.5100608480476,1,1
2.82,-7.951364,5.596995400000001,0.2670139,998.0282,5.56800391432721,996.5931019874733,1,1
2.84,-7.984823,5.592229,0.23387308,998.01825,5.568287830059834,996.6716076711152,1,1
2.86,-7.9083457,5.663727,0.6315630999999999,998.04346,5.568753177285903,996.745913961565,1,1
2.88,-7.4972825,5.7304587,1.5453032,998.04285,5.568991472980597,996.8162399695447,1,1
2.9,-7.549861,5.8353230000000025,0.7688608,998.0477,5.569050791794834,996.8828132863057,1,1
2.92,-7.6454562999999975,5.8257904,0.8777521,998.04785,5.569116163102629,996.9458316011644,1,1
2.94,-7.5785394,5.8591557,1.0339875,998.0601,5.569151064429598,997.0055259504097,1,1
2.96,-7.6215577,5.7542915,1.0150498,998.0255,5.569093797631129,997.0619437839813,1,1
2.98,-7.6454562999999975,5.7542915,1.3275205,998.01825,5.569073638088443,997.1152372841028,1,1
3.0,-7.6263375,5.711393,0.92036176,998.0033599999999,5.568902722076142,997.1655246625872,1,1
3.02,-7.6932545,5.682793599999999,0.9250961,998.0355,5.568675931634459,997.2130905014308,1,1
3.04,-7.702814599999999,5.7685914,0.6410319,998.0174599999999,5.568474512382219,997.258015406828,0,0
3.06,-7.760172,5.9401875,0.7357199999999999,998.0507,5.5686197302704095,997.3005647177723,0,0
3.08,-7.549861,5.911588,1.0103155000000001,998.0405,5.568741517963438,997.3408250559387,0,0
3.1,-7.2343,5.897286,1.4080138999999998,998.05023,5.568420347964865,997.3789529485413,0,0
3.12,-7.4780674,5.949718,1.4979678,998.063,5.56819494560209,997.4151053238298,0,0
3.14,-7.210393400000001,5.8591533,0.9203709999999999,998.0405,5.567355417363268,997.4493009834692,0,0
3.16,-7.0335383,5.98785,0.87776154,998.0355,5.565856680934746,997.4816265847861,0,0
3.18,-7.7791815,5.9687843,0.8493556999999999,998.0528,5.564951366993546,997.5122457104044,0,0
3.2,-7.1817025999999995,6.1356134,0.96298176,998.0552,5.5638520367828646,997.5412554052432,0,0
3.22,-7.262958,6.1451464000000025,1.2233741000000002,998.0483,5.562787784956453,997.568713732144,0,0
3.24,-7.239055599999999,6.183279,0.9866541999999999,998.0385,5.561715011161399,997.5946671403576,0,0
3.26,-7.5927567,6.0450487,0.896701,998.03046,5.561002907642046,997.61916842615,0,0
3.28,-7.5210543,5.4301624,0.9487799000000001,998.0606,5.559735450171164,997.6424069159419,0,0
3.3,-7.683565,5.1012699999999995,1.0339993,998.03296,5.557889813434759,997.6643464366248,0,0
3.32,-8.338392,5.477828,0.80201405,998.0255,5.5570537683092915,997.6850323499284,0,0
3.34,-7.855628,6.173744999999999,1.0860788000000001,998.0286,5.557198497093437,997.7045472664636,0,0
3.36,-6.7323728,6.7218990000000005,0.783077,998.04785,5.557161002916208,997.7230265365547,0,0
3.38,-7.038276700000001,6.740965400000001,1.564254,998.0282,5.557637339637567,997.7404534440759,0,0
3.4,-6.961794,6.1928114999999995,0.9203754999999999,998.0507,5.557511234538636,997.7569687471628,0,0
3.42,-7.4875703,6.164212,1.0008607,998.0459,5.557657809052649,997.7726018214804,0,0
3.44,-8.156738,5.616058,1.2565188,998.04285,5.558528096523597,997.7873880993906,0,0
3.46,-7.248571000000001,5.997382,0.9677207,998.0350300000001,5.558943706148401,997.801344765394,0,0
3.48,-7.095613,6.2023435,1.3180668,998.0310699999999,5.559077357795774,997.814503886319,0,0
3.5,-6.913978599999999,6.230943,1.2612543,998.0632300000001,5.558704658465282,997.8270266995777,0,0
3.52,-6.9044137,6.383473,0.84462726,998.0507,5.557986817350901,997.8388970812546,0,0
3.54,-7.6022606,6.2500089999999995,1.0908165,998.068,5.557924412860067,997.8502105210118,0,0
3.56,-6.995222599999999,6.3501067,1.1570987,998.0335,5.557643923226975,997.8608669185055,0,0
3.58,-7.062137,6.278608,1.1665676,998.0507,5.557178261134398,997.8709663104244,0,0
3.6,-7.420619500000001,6.1689773,0.8446284,998.0438,5.556894722419349,997.8805123344065,0,0
3.62,-7.129112700000001,6.1689787,0.71679384,998.05835,5.556290919898183,997.8895874167932,0,0
3.64,-7.133891,6.1546793,0.6221059,998.04846,5.555380475936193,997.8981781008896,0,0
3.66,-7.6596675,6.188045,0.8446229999999999,998.02875,5.555118289162415,997.9062388881938,0,0
3.68,-6.9044576,6.4645057,1.1381563000000001,998.04846,5.55468893345167,997.9138733958583,0,0
3.7,-7.119548,6.331042,1.5595183000000001,998.04706,5.554378399208753,997.9210987186058,0,0
3.72,-7.1291065,6.26431,1.3133295,998.05585,5.554021442483768,997.9279681183984,0,0
3.74,-7.6405435,6.068881,1.9193333,998.05865,5.554380811516378,997.9345083748289,0,0
3.76,-7.2103595999999985,6.1451459999999996,1.1997042,998.0364400000001,5.55455067285439,997.9406542992613,0,0
3.78,-7.5784035,6.0974803,1.2044386,998.0386,5.555075644868215,997.9464374426123,0,0
3.8,-7.2772746,6.2071114000000005,1.1381569999999999,998.0537,5.555561722088361,997.9519335732844,0,0
3.82,-6.9618053,6.450205,0.85882723,998.04706,5.555797683398862,997.9571324094819,0,0
3.84,-7.0813003,6.4311395,0.9771873999999999,998.05646,5.555990902522821,997.9620836804722,0,0
3.86,-7.181674,6.2404766,0.98665637,998.03436,5.556041005205016,997.9667188182692,0,0
3.88,-7.1673345999999984,6.2261767,0.8304210999999999,998.0337,5.555891769594383,997.9710555582813,0,0
3.9,-7.105195,6.4359055,0.7972804,998.05865,5.555753049657593,997.9752028417461,0,0
3.92,-7.325064999999999,6.2118773,1.0624071000000002,998.0512,5.555713841240031,997.9791409711853,0,0
3.94,-7.406320599999999,6.0498147000000015,1.2328458999999998,998.0310699999999,5.555719749765191,997.9828076468613,0,0
3.96,-7.262925,6.111779,1.3133309,998.0291,5.55564171469895,997.9862141739598,0,0
3.98,-6.9856944000000025,6.2833757000000015,0.79254645,998.0242,5.555170572612346,997.989360930278,0,0
4.0,-7.377637400000001,6.1975775,0.85409385,998.06146,5.554860830361571,997.9924009608117,0,0
4.02,-7.2151229999999975,6.230943700000001,0.9487821,998.05206,5.5545019985314035,997.9953019043325,0,0
4.04,-7.248581,6.2500095,1.0197982,998.0495599999999,5.554194336377375,997.9980605071717,0,0
4.06,-7.4063125,6.340574299999999,0.9156414,998.04224,5.554280894901426,998.0006570548146,0,0
4.08,-7.4875684000000025,6.3739405,1.1476274,998.0299,5.554938504345532,998.0030566389144,0,0
4.1,-6.94267,6.2166443,1.1002834,998.04706,5.555025901121553,998.0053353235253,0,0
4.12,-7.192152,6.221433,1.0197133,998.03674,5.554983758158508,998.0074618260824,0,0
4.14,-7.2160864,6.0879707000000005,1.1096636,998.0044,5.554706714136392,998.009329781168,0,0
4.16,-7.273497,6.135637,1.2706286,998.0397300000001,5.55441866433398,998.0110897470696,0,0
4.18,-7.35001,6.1070385,0.84452885,998.0299,5.5541075782354925,998.0127125698508,0,0
4.2,-7.612934599999999,6.1499386,1.0481049999999998,998.0023,5.554295403438437,998.0141090108084,0,0
4.22,-7.2257880000000005,6.226204,0.99129045,998.054,5.5543974961547375,998.0154865136,0,0
4.24,-6.704842999999999,6.645662299999999,0.9581448,998.052,5.554214025453214,998.0168351236175,0,0
4.26,-6.853051700000001,6.340604,0.67881167,998.0224599999999,5.5535132179297815,998.0180470049844,0,0
4.28,-7.789929400000001,6.016479,0.92026305,998.03723,5.553448466640571,998.019186882142,0,0
4.3,-7.5318556,6.1213440000000015,0.8303062,998.0269,5.553645342636544,998.0202218448227,0,0
4.32,-7.1256075,6.2309756,0.8918501,998.0302,5.553587384930965,998.021172259206,0,0
4.34,-6.580727,6.292941000000001,0.62672186,998.02,5.552513113205223,998.0220078252215,0,0
4.36,-6.8149557000000005,6.207144,0.4941569000000001,998.05035,5.5507616854929305,998.0228481631824,0,0
4.38,-7.465062,6.2357445,0.9912645,998.03723,5.549552976981387,998.0236424604171,0,0
4.4,-7.2452087,6.2500443,1.0906854,998.0299,5.548523099923703,998.0243668285964,0,0
4.42,-6.905896,6.5169735,0.64091206,998.0221,5.547419111048523,998.0249987197363,0,0
4.44,-6.9871883000000015,6.4264092,0.38525096,998.0323,5.546220260806818,998.0255833433566,0,0
4.46,-7.3457092999999976,6.3024793,0.3852477,998.06995,5.545327664373874,998.0262596367514,0,0
4.48,-7.5273595,6.159483,0.54148144,998.045,5.544822767577668,998.0269246749028,0,0
4.5,-7.0398726,6.121352,0.87761927,998.0507,5.543890909720272,998.0275978937835,0,0
4.52,-7.1880646,6.1547184,0.8823521000000001,998.02576,5.542863354658786,998.0281861335692,0,0
4.54,-7.2454753,6.354915,0.9723009,998.0302,5.542133997787218,998.0287131521628,0,0
4.56,-6.963503,6.3787484,0.8160623,998.01764,5.541238855017582,998.0291389624443,0,0
4.58,-7.1021347000000015,6.373983,0.749779,998.07074,5.540395231138733,998.0296649721444,0,0
4.6,-7.34594,6.2691193,0.6645565,998.0704,5.5398243059800185,998.0302764004157,0,0
4.62,-7.1962504,6.1117854000000005,0.6883672,998.0282599999999,5.539052128407309,998.0308093993947,0,0
4.64,-7.444775,6.0116873,0.8588081,998.0383,5.5383979020001615,998.0313073234546,0,0
4.66,-7.573803999999999,6.221415,0.75938797,998.05286,5.5383145876615725,998.0318248787896,0,0
4.68,-7.243984700000001,6.331046,0.5842161,998.03723,5.538336078060119,998.0323016491195,0,0
4.7,-7.1483636,6.3262787000000005,0.4705927,998.0454,5.5382815732770485,998.0327700774468,0,0
4.72,-7.1435455999999995,6.1880474,0.54161227,998.0605,5.537971448309358,998.0332838084377,0,0
4.74,-7.243908999999999,6.140382,0.6268326999999999,998.045,5.537541234493023,998.0337799194307,0,0
4.76,-7.2725625,6.087949,0.72152317,998.0454,5.536995804431292,998.0342601153944,0,0
4.78,-7.4924088000000015,6.01645,0.74519753,998.0429,5.536612683318988,998.0347155201324,0,0
4.8,-7.325077,6.192812,0.44219908,998.0556,5.536300254603122,998.0351930998868,0,0
4.82,-7.258134,6.2357097,0.5368895,998.0561,5.536013457632643,998.0356903541976,0,0
4.84,-7.0812564,6.3691726,0.5084854,998.038,5.5356542837947895,998.0361380428316,0,0
4.86,-7.0812564,6.3691726,0.5084854,998.0454,5.5352324507827415,998.0365669635547,0,0
4.88,-7.133796,6.2595410000000005,0.6173801999999999,998.0454,5.53470057127895,998.0369777568367,0,0
4.9,-7.191141,6.235708,0.6505221999999999,998.0274699999999,5.534135085088789,998.037306505856,0,0
4.92,-7.3583965,6.25954,0.49429026,998.04785,5.5338180504438865,998.0376349450684,0,0
4.94,-7.1289525,6.3072047,0.49429142,998.0052,5.5334267656042,998.0378083881544,0,0
4.96,-7.1767259999999995,6.3215046,0.555841,998.0581,5.533072278324281,998.0380346922676,0,0
4.98,-7.081078999999999,6.2976704,0.7215498,998.0581,5.532593352743981,998.0383068896899,0,0
5.0,-7.081078999999999,6.2976704,0.7215498,998.0629,5.532006197613555,998.0386359385294,0,0
5.02,-7.2531137,6.26907,0.9014607,998.04785,5.531586085252181,998.0389598567053,0,0
5.04,-7.310433,6.311968,0.6363375,998.02325,5.531419152012059,998.0391895153211,0,0
5.06,-7.2721815,6.245236,0.7215579000000001,998.0360000000001,5.531338621098835,998.0393809594193,0,0
5.08,-7.100084,6.3500996,0.6552786999999999,998.0458,5.531199795060222,998.0395732279704,0,0
5.1,-7.100434,6.469272,0.6931218000000001,998.0433300000001,5.531181592659118,998.0397566408412,0,0
5.12,-7.0143924,6.5169377,0.5416213000000001,998.0429,5.531185417622044,998.039930020547,0,0
5.14,-7.210349000000001,6.3310413,0.9203751,998.0556,5.5313116761269665,998.0401396307808,0,0
5.16,-7.1721053,6.311975,0.87776595,998.0158,5.531451894552666,998.0402372197127,0,0
5.18,-7.1959940000000016,6.259543,0.7878130999999999,998.0458,5.531553431613599,998.0403434753024,0,0
5.2,-7.2007639999999995,6.37394,0.6552507,998.02856,5.531763534957993,998.04039494223,0,0
5.22,-7.2963495,6.3215075,0.6978613,998.0224599999999,5.5321524873043035,998.0403758526152,0,0
5.24,-6.9474089999999995,6.4073052000000015,1.0103334000000002,998.0229,5.532335728976233,998.0402960719624,0,0
5.26,-6.646275999999999,6.440671,0.95825547,998.045,5.531920246074042,998.040242511918,0,0
5.28,-7.191164,6.369172,0.6883953,998.0179400000001,5.531655537602607,998.0401148972203,0,0
5.3,-7.3775660000000025,6.235708,0.43747282,998.0331,5.531605863285034,998.0399768832433,0,0
5.32,-7.3918953,6.2452416,0.29544157,998.0556,5.531770702720624,998.0399111773137,0,0
5.34,-7.219817,6.2357078,0.51795906,998.0433300000001,5.531859506661338,998.0398654273157,0,0
5.36,-7.1481004,6.226173999999999,0.83990043,998.06793,5.531803198296696,998.0399260350792,0,0
5.38,-7.0859575,6.2309410000000005,0.85883856,998.0405,5.531532085013037,998.0399816543727,0,0
5.4,-7.4014144,6.1689754,0.7168073,998.0605,5.5314607553412545,998.0401046656247,0,0
5.42,-7.5065550000000005,5.9973792999999995,0.42801005,998.04083,5.531474480085434,998.0402159695708,0,0
5.44,-7.492205599999999,6.002145,0.49429262,998.06464,5.531552835843587,998.0404022442468,0,0
5.46,-7.410943,6.049811,0.6410596,998.0454,5.531637144202904,998.0405848284717,0,0
5.48,-7.473070599999999,6.0927095,0.7120766,998.0454,5.531892813604191,998.0407634945101,0,0
5.5,-6.9855149999999995,6.2214065000000005,0.6694684000000001,998.02496,5.531696228175717,998.0408644712413,0,0
5.52,-7.124125,6.1832733,0.6126560000000001,998.0447,5.531256348321903,998.0409675021846,0,0
5.54,-7.5017190000000005,5.8972796999999995,0.61739135,998.02496,5.53082972005979,998.0410009133182,0,0
5.56,-7.606864999999999,5.925879,0.4848289000000001,998.0274699999999,5.5306089251510135,998.0409817241078,0,0
5.58,-7.267483,6.1737394,0.51323676,998.0298,5.5303521007105525,998.0409245143147,0,0
5.6,-7.267483,6.1737394,0.51323676,998.0364400000001,5.530064365143878,998.0408578194902,0,0
5.62,-7.144088000000001,6.431155,0.8256269,998.0602,5.52995439739621,998.0408685197928,0,0
5.64,-6.995952000000001,6.502654,0.8777019,998.0151400000001,5.529885097831579,998.0407853519092,0,0
5.66,-7.211056,6.41209,0.86823195,998.01184,5.530053557028822,998.0406076615002,0,0
5.68,-7.4548764000000025,6.1737633,0.6599135,998.03674,5.530459145015682,998.0404367306734,0,0
5.7,-7.4548764000000025,6.1737633,0.6599135,998.03674,5.531072799884296,998.0402723879644,0,0
5.72,-7.1537743,6.292928,0.7498648,998.03723,5.5315673928977445,998.04011622215,0,0
5.74,-7.177698599999999,6.383493,0.8918947,998.0545,5.532141600236732,998.0400300156372,0,0
5.76,-7.063021000000001,6.4025607,0.79720306,998.0523,5.532616494066364,998.0399980155057,0,0
5.78,-7.316376700000001,6.1928325,0.9865769,998.0618,5.533146889644174,998.0400482273337,0,0
5.8,-7.325961,6.2357325999999995,0.74038565,998.0023,5.533751184389076,998.0399567008864,0,0
5.82,-7.4311557,6.326298,0.5462715,998.0562,5.534679730717905,998.0399343039944,0,0
5.84,-7.029677,6.412096,0.5652068,998.0242,5.535386339724554,998.0398578706064,0,0
5.86,-7.029677,6.412096,0.5652068,998.0663,5.5358943011209,998.0398855257305,0,0
5.88,-6.977137,6.278633599999999,0.71670425,998.0618,5.5359796591674995,998.0399888539056,0,0
5.9,-7.3930054000000025,6.126105,1.0102351999999999,998.0467,5.536191722090874,998.0401043148069,0,0
5.92,-7.421710000000001,6.159471,0.9060759,998.04346,5.536583276934105,998.040218416526,0,0
5.94,-7.1636130000000025,6.2405029999999995,0.89187145,998.04706,5.536830980991876,998.0403438665056,0,0
5.96,-7.130179400000001,6.321535,0.88713473,998.0397300000001,5.537008498308602,998.0404525041879,0,0
5.98,-7.1254125,6.4025669999999995,0.7829767,998.03894,5.537208869858897,998.0405430514293,0,0
6.0,-7.2449455,6.4597664,0.6409411,998.0515,5.5376706617908225,998.0406625039864,0,0
6.02,-7.135036,6.3358364,0.70722044,998.05334,5.538030355063382,998.0408136912516,0,0
6.04,-7.211538000000001,6.2929379999999995,0.87292224,998.01135,5.538387145170999,998.0408412110304,0,0
6.06,-7.1972229999999975,6.183308,0.8303103000000001,998.04846,5.538561236265316,998.0408929551476,0,0
6.08,-7.2402678,6.26434,0.7592918000000001,998.0286,5.538738121784379,998.0408944216107,0,0
6.1,-7.0682199999999975,6.32154,0.82083684,998.0411,5.538738085223737,998.04089645746,0,0
6.12,-7.349576,6.2214255,0.8208965,998.05835,5.5388852058386435,998.0409610890894,0,0
6.14,-7.3686940000000005,6.130861299999999,0.8777094999999999,998.06354,5.539082006155204,998.0410994816764,0,0
6.16,-7.1536016,6.2357254,0.7782871,998.0509599999999,5.539105821607295,998.0412572632324,0,0
6.18,-7.3830304,6.1642269999999995,0.9960699000000001,998.0205699999999,5.539283736249028,998.0413222048674,0,0
6.2,-7.3065524,6.1594605000000024,1.0008044,998.05835,5.5394707367395934,998.0414408873586,0,0
6.22,-7.3352304,6.221425,1.1333678999999999,998.0355,5.539823451711992,998.0415243680133,0,0
6.24,-7.182275,6.235725,1.1049615,998.0386,5.540094057940079,998.041587603795,0,0
6.26,-7.3065479999999985,6.2023587,0.8966478999999999,998.04535,5.540395984168249,998.0416570235581,0,0
6.28,-7.2157307,6.1975927,0.7546158000000001,998.0337,5.54054964553937,998.041689717576,0,0
6.3,-7.316106299999999,6.1499267,0.8019599000000001,998.04785,5.540674271969482,998.0417407830266,0,0
6.32,-7.4021415999999975,6.0688953,0.9297889000000001,998.05585,5.540826632659127,998.0418366976401,0,0
6.34,-7.296983999999999,6.3262897,1.0292116,998.0385,5.5412007503177625,998.041909435681,0,0
6.36,-6.9050384000000005,6.5264845000000005,0.90611726,998.0312,5.5414206643769175,998.0419351530456,0,0
6.38,-7.0245323000000015,6.469286,0.8208979999999999,998.0729,5.541587628622737,998.0420693503578,0,0
6.4,-7.2300625,6.1642265,0.9581959000000001,998.0528,5.541633344620987,998.0422265574416,0,0
6.42,-7.1918235,6.192826,1.0008056,998.0405,5.54155928546808,998.0423592500143,0,0
6.44,-7.2396210000000005,6.269091,0.88718,998.0385,5.541534306784028,998.0424626038713,0,0
6.46,-7.2635190000000005,6.31199,0.8114296999999999,998.0378,5.54163448450408,998.0425371419657,0,0
6.48,-6.9815087,6.3739552,0.6930696,998.0601,5.541474593806756,998.0426662301145,0,0
6.5,-7.191818,6.445453,0.5463033,998.0477,5.541488704050182,998.0427984139743,0,0
6.52,-7.163139,6.445453,0.7072731,998.0425,5.5416339471485125,998.0429141373427,0,0
6.54,-7.101000999999999,6.4740524000000015,0.8587741,998.0425,5.541864440803417,998.0430148996164,0,0
6.56,-6.957605,6.483585400000001,0.74514854,998.0646,5.541944689829034,998.0431816395227,0,0
6.58,-7.0101809999999976,6.3977876,0.77355516,998.0528,5.541856163706505,998.043363597002,0,0
6.6,-7.206152,6.42162,0.83036804,998.05725,5.541963174857528,998.0435743656813,0,0
6.62,-6.990797,6.364415,0.7783138000000001,998.0427,5.5418227895680525,998.0437574531699,0,0
6.64,-7.129405499999999,6.3787145999999995,0.75464225,998.0147,5.541693386042912,998.0438146224434,0,0
6.66,-6.952536,6.393014,1.1381305,998.03937,5.541402064377714,998.0438491365727,0,0
6.68,-6.909511599999999,6.4120800000000004,0.9629582,998.0419,5.540889876542433,998.0438726163657,0,0
6.7,-7.172389999999999,6.297683,1.0103033000000001,998.04205,5.540439507658113,998.0438868016918,0,0
6.72,-6.98118,6.5503097000000015,0.801991,998.0368699999999,5.5400629071995775,998.04387407536,0,0
6.74,-7.0433064,6.612274,0.6268191,998.04706,5.539907655405271,998.0438742997017,0,0
6.76,-6.8043046,6.712372,0.62682015,998.04395,5.539735317566093,998.0438747704512,0,0
6.78,-6.8043046,6.712372,0.62682015,998.0671,5.539548502913889,998.0439587972318,0,0
6.8,-7.086296000000001,6.5598415999999995,0.82566667,998.0419,5.5395848564658445,998.0440256316252,0,0
6.82,-6.9285570000000005,6.5455422,0.91562086,998.0316,5.539576470595564,998.0440399542211,0,0
6.84,-7.138851,6.440677,1.0671233999999998,998.01666,5.539733401053914,998.043954041832,0,0
6.86,-6.923754,6.536008,0.90141976,998.0621,5.539807450438552,998.043943455094,0,0
6.88,-7.024118400000001,6.655172,0.9582337,998.0483,5.5401396292403255,998.043949784214,0,0
6.9,-6.727753999999999,6.6647050000000005,0.8162031,998.0692,5.540244644061911,998.0440462774014,0,0
6.92,-7.2726398,6.354878,0.78306335,998.0323,5.5405320746371824,998.0440892521832,0,0
6.94,-7.1101155,6.388243,0.55107856,998.0462,5.540739926283028,998.0441348233924,0,0
6.96,-7.129228599999999,6.359644,0.6931111999999999,998.0384,5.540885861510594,998.0441544447486,0,0
6.98,-6.6751246,6.6122710000000025,0.5889564,998.0409,5.540634571352302,998.0441600661779,0,0
7.0,-6.660779499999999,6.712369,0.44692478,998.0566,5.540142766190207,998.0442098170346,0,0
7.02,-7.057486,6.640869599999999,0.91563237,998.0517,5.5399950996219935,998.0442807415504,0,0
7.04,-6.7611265,6.7457337,0.90143025,998.0517,5.539859822386073,998.0443701197826,0,0
7.06,-6.9953312999999975,6.6075034,0.98665,998.0438,5.5399017823619605,998.0444470419576,0,0
7.08,-7.200857000000001,6.4835730000000025,0.9913849,998.0487,5.5402398808812094,998.0445303210404,0,0
7.1,-6.89009,6.497871,0.74520326,998.0359,5.5403392492832975,998.044572837282,0,0
7.12,-7.066936,6.393006,0.6741878000000001,998.0307,5.540338110572847,998.0445604624193,0,0
7.14,-7.0573625999999985,6.383473,0.5463601,998.0605,5.540203186215591,998.0446069103253,0,0
7.16,-6.9952039999999975,6.5407686,0.7878166999999999,998.0184300000001,5.540111416543251,998.0445537148182,0,0
7.18,-6.7036223,6.7266639999999995,0.65525466,998.03314,5.539871295355855,998.0444656218947,0,0
7.2,-7.0238547,6.5455346,0.6599903,998.04254,5.539717915162155,998.0443808507488,0,0
7.22,-7.210260400000001,6.4073043,0.8162263000000001,998.0605,5.539759467457696,998.0443639759012,0,0
7.24,-7.095530999999999,6.3262725,0.7925555000000001,998.0528,5.539679913827407,998.0443794349733,0,0
7.26,-7.0333796,6.350105,0.87777615,998.0450400000001,5.539446335065239,998.0443954726428,0,0
7.28,-7.019019,6.5979652,0.65999544,998.05975,5.5393672375843925,998.0444649198266,0,0
7.3,-6.7752422999999995,6.68853,0.6647305,998.0405,5.5391918328075995,998.0445120096466,0,0
7.32,-6.980760000000001,6.493100599999999,0.80202943,998.0553,5.538981164891858,998.0445924549769,0,0
7.34,-7.195836999999999,6.321504,0.8683124,998.0401,5.538844192307353,998.0446473636329,0,0
7.36,-7.0428630000000005,6.678995,0.7499541999999999,998.06793,5.5390174726750105,998.0447796984121,0,0
7.38,-7.0093966,6.7838593,0.7878301,998.0473,5.539570711161174,998.0449057025087,0,0
7.4,-6.8038583,6.841058,0.82097155,998.0225,5.540243486888462,998.0449363791993,0,0
7.42,-6.607872,6.807691999999999,0.2765163,998.0124,5.540620407511688,998.044846354158,0,0
7.44,-6.545707,6.57413,0.6268648,998.0450400000001,5.540333379427422,998.0447675051568,0,0
7.46,-6.4118657,6.569363,0.42328605,998.0479,5.539234670241269,998.0447091111606,0,0
7.48,-7.167053699999999,6.1689715,1.0482295,998.0523699999999,5.538097679740701,998.0446850934254,0,0
7.5,-7.0714507,6.1403723,1.1665902,998.0364400000001,5.536771811636944,998.0446341890182,0,0
7.52,-7.0379710000000015,6.5550619999999995,1.1949985,998.04,5.535811806963708,998.0445725268036,0,0
7.54,-6.8419924,6.826755499999999,0.84938765,998.02496,5.535200935131446,998.0444474369742,0,0
7.56,-6.8706570000000005,7.0126505,0.7878417,998.06793,5.535205322320102,998.044421444828,0,0
7.58,-6.5790676999999995,6.979284,1.0529703000000001,998.03894,5.535337538445789,998.044378744966,0,0
7.6,-6.5790676999999995,6.979284,1.0529703000000001,998.0316,5.5355822282421805,998.0442950118864,0,0
7.62,-7.076244,6.412066,0.82097733,998.0669,5.535791260703455,998.0443024032941,0,0
7.64,-6.880261999999999,6.3644004,0.6031956,998.0246599999999,5.535567772865432,998.0442382216902,0,0
7.66,-7.291314999999999,6.269069,0.5842589,998.0414,5.535465274555942,998.0441712932268,0,0
7.68,-6.875462,6.216637,0.6316039000000001,998.06433,5.534757430807325,998.0441847265813,0,0
7.7,-6.9758330000000015,6.2643023,0.69788605,998.0464,5.533747788428936,998.0442045712773,0,0
7.72,-7.4059997000000015,6.297668,0.94407654,998.0345,5.5332351904535795,998.044187169594,0,0
7.74,-7.1956835,6.4787965,0.9535458,998.03656,5.533084864088369,998.044144335656,0,0
7.76,-6.6412163,6.631326,0.6978889,998.0419300000001,5.532593366839495,998.0440985159804,0,0
7.78,-6.8562970000000005,6.5693607000000025,0.80678105,998.0439,5.5320489647117554,998.0440573150572,0,0
7.8,-7.1335106,6.4501963,0.5937343,998.0414,5.531679745066298,998.0440113435874,0,0
7.82,-7.0474586,6.5455275,1.1571299,998.0385,5.531574749571584,998.0439508823596,0,0
7.84,-6.918394,6.5645929999999995,1.0387706,998.0237400000001,5.531508223128517,998.0438246996423,0,0
7.86,-7.229075999999999,6.545527,1.2423505,998.0487699999999,5.531969184781758,998.0437310076748,0,0
7.88,-7.272089500000001,6.559826400000001,1.2234133,998.0210000000001,5.532975226630273,998.0435663898244,0,0
7.9,-6.7463007,6.764788,0.5227224,998.0286,5.533832336702403,998.0433670544887,0,0
7.92,-6.937483,6.5455265,0.030345215,998.03394,5.534492250486623,998.0431569843896,0,0
7.94,-7.458472,6.173734,0.7831165,998.0606,5.5353408421872015,998.0430341613063,0,0
7.96,-6.63155,6.3214974,1.5264194,998.04834,5.5354683773234665,998.0429447358493,0,0
7.98,-7.1955614,6.5026264000000005,1.6116391,998.0537,5.536087690136611,998.0429044384664,0,0
8.0,-6.526374,6.7314205000000005,0.38069537,998.0328400000001,5.53620828607224,998.0428325997203,0,0
8.02,-6.846616,6.769553,0.32861736,998.0255,5.536408067605966,998.0427067256454,0,0
8.04,-7.4632,6.1642003,0.45171279999999997,998.0452,5.5367943125168395,998.0426044791003,0,0
8.06,-7.9124922999999985,5.992604,0.95829505,998.04095,5.537929174778202,998.0425081779283,0,0
8.08,-7.286327,5.6446447,1.5500966,998.0431,5.5384215418200125,998.0424252167724,0,0
8.1,-7.147703,6.335796,1.2470956,998.02295,5.538939288142894,998.0422818015145,0,0
8.12,-7.0091779999999995,6.7075887000000005,0.50852025,998.0403,5.539648588591479,998.0421479453073,0,0
8.14,-6.1918225,6.645623,0.5037866,998.0574,5.539240506676443,998.0420845773593,0,0
8.16,-6.1870400000000005,6.869652,0.7925856,998.0283,5.53822469155608,998.0419789609621,0,0
8.18,-6.947019,7.413039,0.6126792,998.04803,5.5385438709723545,998.041907422054,0,0
8.2,-6.4068947,7.4035053,1.0766514999999999,998.0497,5.539359650160702,998.0418722635553,0,0
8.22,-5.9767094000000025,7.1222787,1.3891222,998.04724,5.539678253358214,998.0418605213573,0,0
8.24,-6.473802,7.150878,1.5690302999999999,998.0476,5.540329249491495,998.041870808074,0,0
8.26,-6.512028,6.7028213,0.97723085,998.0423,5.5404889998238405,998.0418814425078,0,0
8.28,-7.319812,6.659922,0.97723114,998.0157,5.541353243322048,998.0417965859006,0,0
8.3,-6.3590617,7.2462087,0.37122828,998.0225,5.542220913051566,998.0416521388933,0,0
8.32,-6.3590617,7.2462087,0.37122828,998.0476,5.543088486588045,998.0415459178174,0,0
8.34,-6.703195,6.969747999999999,1.2234223,998.0468,5.544159031048012,998.0414709755706,0,0
8.36,-6.210872,7.0555460000000005,0.78312296,998.0377,5.544750731587032,998.0413911810896,0,0
8.38,-6.4833145,7.1222773,0.6694978,998.0452,5.54537885556555,998.0413343864341,0,0
8.4,-7.023426,7.012646000000001,0.85887456,998.06964,5.546676332398828,998.0413861028853,0,0
8.42,-6.4928617,7.1794753,1.7394744,998.01935,5.548296482012845,998.0413524695708,0,0
8.44,-5.890603,7.532201299999999,1.3417847999999999,998.0131,5.5498232932868,998.0412210422844,0,0
8.46,-6.2873173,6.8410497,0.4469831,998.0412,5.5505271888817305,998.0411048373813,0,0
8.48,-7.4153447,6.2309303,1.9383211999999999,998.0239,5.551697662982409,998.0409402213144,0,0
8.5,-6.779628,6.087934,1.8388988999999998,998.0514,5.552066286755881,998.0408324217614,0,0
8.52,-7.5013685,6.564589,1.16188,998.0398,5.553263276332487,998.0407334533577,0,0
8.54,-7.324511999999999,6.5884220000000004,1.1334739,998.0567,5.554940620991705,998.040703484444,0,0
8.56,-6.741366999999999,6.416826,1.9335891,998.0267,5.556182394622059,998.040626591368,0,0
8.58,-6.9899106,6.5407557,1.5169620000000001,998.0382699999999,5.557422525398526,998.0405501649172,0,0
8.6,-7.4296145000000005,6.292894,1.6732008000000005,998.0489,5.559045188554505,998.0405126939116,0,0
8.62,-7.4296145000000005,6.292894,1.6732008000000005,998.0366,5.561000015733656,998.0404654988328,0,0
8.64,-7.2718690000000015,6.7266506999999995,1.5359043,998.0637,5.5635428504315065,998.0405074414653,0,0
8.66,-7.042428,6.7266506999999995,1.005652,998.0309,5.566110230335027,998.0405099151864,0,0
8.68,-7.4104686,6.645618400000001,1.0387931000000001,998.0239,5.56914183288895,998.0404523052713,0,0
8.7,-6.812986,6.5312214000000015,0.90623045,998.0055,5.571478140224457,998.0402755728516,0,0
8.72,-6.7173777,6.6027190000000004,0.6411048,998.0110000000001,5.573107665434566,998.0400140200232,0,0
8.74,-7.1523323,6.3500915,1.1429524,998.0255,5.574505188268407,998.039730661472,0,0
8.76,-6.8607574000000024,6.4549556,1.0529995,998.01074,5.575372873732832,998.0393759194748,0,0
8.78,-6.836854,6.4978546999999995,1.1098126,998.0205,5.5758077301232625,998.038994516136,0,0
8.8,-6.822503,6.5598197,0.96304715,998.0255,5.575892342445707,998.0386089278876,0,0
8.82,-6.889417,6.5550527999999995,1.0103916,998.0412,5.575770509772216,998.0382775499708,0,0
8.84,-6.889417,6.5550527999999995,1.0103916,998.06085,5.575466700897943,998.038066005264,0,0
8.86,-7.090156599999999,6.65515,0.5653585,998.0405,5.575372211835941,998.0378878467418,0,0
8.88,-6.798578,6.5407524000000015,0.52274996,998.0405,5.574855853996164,998.0377398296234,0,0
8.9,-7.066242999999999,6.4263554,0.96304995,998.0461,5.5742830520511735,998.037639138311,0,0
8.92,-7.396038000000001,5.8925004,1.3039281,998.01526,5.573550172689005,998.0374696025693,0,0
8.94,-7.5537677,6.0068974000000015,0.9677857,998.0424,5.572997694719755,998.0373375502188,0,0
8.96,-6.8989233999999975,6.559818300000001,0.17714117,998.01807,5.572236666111431,998.0371515055812,0,0
8.98,-7.051873,6.550285,0.41859615,998.0399,5.571527675287378,998.0369970111192,0,0
9.0,-7.1665807,6.421588,1.3370713,998.0596300000001,5.5710363026308345,998.0369419785727,0,0
9.02,-6.980157000000001,6.230925,1.0814146,998.0454,5.5701232991776966,998.0369238006916,0,0
9.04,-7.5680614,6.2690573,0.92991465,998.04486,5.5697811119693625,998.0369363090332,0,0
9.06,-6.9801383,6.3119559999999995,1.2234483999999999,998.055,5.569152120995989,998.0370123906916,0,0
9.08,-6.9418960000000025,6.259524,1.2991993,998.01776,5.568162109574627,998.0370103078384,0,0
9.1,-7.109185000000001,6.3214893,0.9441193000000001,998.0350300000001,5.5671119843546295,998.0370013383208,0,0
9.12,-7.1375910000000005,6.2166185,1.4696631000000002,998.0369999999999,5.566051441048613,998.0369934080372,0,0
9.14,-7.362224,6.3548480000000005,0.9204738000000001,998.02167,5.5653810818469855,998.03693123657,0,0
9.16,-7.0754266,6.445412,1.0341004,998.0399,5.564762209607353,998.0368869894096,0,0
9.18,-6.998932400000001,6.4883102999999975,0.98202354,998.03894,5.564123283590803,998.0368552834567,0,0
9.2,-7.075382,6.4311112999999995,1.2897624,998.03937,5.5635808552798185,998.0368363210566,0,0
9.22,-7.3000240000000005,6.369146,1.1287934,998.03894,5.56334492053491,998.036827139124,0,0
9.24,-6.898494199999999,6.502609,1.4886106000000001,998.0537,5.563053956374638,998.0368797682672,0,0
9.26,-6.879366,6.3977437,1.5548928999999998,998.07385,5.562561627352114,998.0370593642126,0,0
9.28,-7.1995869999999975,6.454942,-0.054802145999999996,998.13495,5.562199502791466,998.0375704614787,0,0
9.3,-7.060954,6.445409,1.3986617000000001,998.0953400000001,5.561937957095751,998.0382300373616,0,0
9.32,-6.7884965,6.4358754000000005,2.3976219,997.9725300000001,5.561755050944545,998.0385763184777,0,0
9.34,-6.8267083,6.5836380000000005,1.1430072,998.0101,5.561426098836735,998.0387797777248,0,0
9.36,-6.8267083,6.5836380000000005,1.1430072,998.0659,5.560969284749256,998.039057187116,0,0
9.38,-7.309450599999999,6.62177,-0.12107734,998.0562,5.561047257877723,998.0393640201804,0,0
9.4,-7.448047,6.3119435,1.3891993999999999,997.9815,5.561592572023899,998.0394268274034,0,0
9.42,-7.108664,5.9830510000000015,2.501786,998.0314,5.562052283463192,998.0394534272873,0,0
9.44,-6.7979407000000025,6.7313994999999975,0.5180738,998.04846,5.562348459466857,998.039509354606,0,0
9.46,-7.6582875,6.0593143,1.2519082000000001,998.05334,5.563048988942387,998.0396085623083,0,0
9.48,-7.1372714,6.2452097,1.289785,998.04846,5.563534253472657,998.03972808741,0,0
9.5,-6.931722,6.4120383,1.1761609,998.05115,5.5637120820961234,998.0398748186748,0,0
9.52,-6.955603599999999,6.5264354,1.3134603999999999,998.01355,5.5638514401516606,998.0399097010733,0,0
9.54,-6.9794845999999975,6.4454036,1.1524922,998.0437,5.5638355583643895,998.0399541682367,0,0
9.56,-7.161108500000001,6.459703,0.90630394,998.0585,5.5639249806880535,998.0400602244168,0,0
9.58,-6.8838625,6.4835353,1.1714321,998.0411,5.563778886893396,998.0401576788496,1,2
9.6,-6.874294,6.5455003,1.0151976,998.0585,5.563461618546923,998.0403098219424,1,2
9.62,-7.194514,6.292872,1.1382947,998.0628,5.563159771529657,998.0405252202204,1,2
9.64,-6.9029274,6.574098599999999,1.1951091,998.0332599999999,5.562833785092797,998.040689391346,1,2
9.66,-6.764305,6.5502652999999995,1.0909531000000001,998.0308,5.562221332064314,998.0407988511437,1,2
9.68,-7.0701857000000015,6.3739023,1.2519252,998.04065,5.5616117214686085,998.0408950339568,1,2
9.7,-7.0128107,6.5264315999999996,0.89684653,998.0455300000001,5.561049708248709,998.0409967069679,1,2
9.72,-7.060590299999999,6.4025006,1.1809124,998.02094,5.560495056155983,998.041014341096,1,2
9.74,-7.266103999999999,6.3643684,1.190383,998.0234,5.560215474571701,998.0409665109836,1,2
9.76,-7.0605636,6.373901,1.4034319,998.0579,5.55993601614445,998.0409852088562,1,2
9.78,-7.4142423,6.040241,1.985766,998.02094,5.5599741217502805,998.0409295675447,1,2
9.8,-7.481142,5.9830422,1.2708726000000001,998.0288,5.5600766801198045,998.040836736439,1,2
9.82,-7.270813,5.7637800000000015,1.5502042,998.0356400000001,5.5597028159509625,998.0407360026227,1,2
9.84,-7.1895475000000015,5.773313,1.7727220000000001,998.04865,5.558873311712111,998.0406754846132,1,2
9.86,-6.912309599999999,5.792379,1.5786121000000002,998.0579,5.5571578256355965,998.0406840191553,1,2
9.88,-6.859697,5.649381,1.9100237,998.05255,5.554528439682053,998.0407342778076,1,2
9.9,-6.8556985999999975,5.473038,1.4791213,998.05334,5.550699236626036,998.0408240669528,1,2
9.92,-7.3766979999999975,5.5826693,1.5501373,998.0283,5.546829243267141,998.0408583180008,1,2
9.94,-7.572673299999999,5.9639935,0.9867428,998.0205699999999,5.543580577888418,998.0408155442816,1,2
9.96,-7.696951400000001,5.8686624000000025,0.89678895,998.0362,5.540956886421242,998.0407611334638,1,2
9.98,-7.4962,6.0831574999999996,1.2897444,998.0455300000001,5.538934681241436,998.0407302239847,1,2
10.0,-8.342229,6.0831574999999996,1.6542933999999998,998.0455300000001,5.538940713964366,998.0407201915629,1,2
10.02,-8.662478,7.050769,1.3891664,998.0579,5.54239954799998,998.0407731742254,1,2
10.04,-6.196102,7.322462599999999,0.19136176,998.0332599999999,5.545444098093383,998.0407929422785,1,2
10.06,-5.694225299999999,6.5788800000000025,0.3381281,998.0683,5.546268819508623,998.040909434738,1,2
10.08,-6.4398756,5.925861,0.86364686,998.0628,5.545308875831752,998.0410911735104,1,2
10.1,-6.960876,5.40154,1.3086808,998.05786,5.543011392521977,998.041312125665,1,2
10.12,-7.8260229999999975,5.26331,1.5169941999999998,998.0487699999999,5.540881002726463,998.0415342073364,1,2
10.14,-6.870064999999999,6.12129,1.2281954,998.0734,5.538346035991802,998.0418451555548,1,2
10.16,-6.927426,6.3691510000000005,0.8920524999999999,998.0505400000001,5.5358148907438425,998.0421512108403,1,2
10.18,-6.564161299999999,6.5407470000000005,0.9772716,998.04803,5.533016483046608,998.042442804932,1,2
10.2,-6.6693196,7.1556334,1.1051003000000001,998.0536,5.5310853018609665,998.0427406233732,1,2
10.22,-8.017228,8.070812,0.53223705,998.06354,5.533137491507425,998.043078653504,1,2
10.24,-7.701761999999999,8.299607,0.77369153,998.0459599999999,5.5386199109899685,998.0433877097748,1,2
10.26,-6.9083166,8.123244,1.3370855,998.04395,5.5458625315190755,998.0436628161406,1,2
10.28,-7.438878999999999,7.5226583,0.4564859000000001,998.0634,5.554306689509961,998.0439769539872,1,2
10.3,-7.295487,7.4273276,1.6164148,998.05115,5.563670597913505,998.0442803491542,1,2
10.32,-6.009723,6.2547545,1.5596017,998.06104,5.570233058893403,998.0446087638667,1,2
10.34,-5.957147,5.9592279999999995,2.4023254,998.0536,5.574190110120504,998.0449313195568,1,2
10.36,-5.7707370000000004,5.5969695999999995,3.15983,998.0579,5.575572855797068,998.0452630170143,1,2
10.38,-7.0326076,5.368175,3.1219547000000003,998.06354,5.576222658521613,998.0456219020264,1,2
10.4,-7.3009676999999975,5.2394953,2.6579196,998.0464,5.576200272120422,998.0459418139757,1,2
10.42,-7.0763474,5.6398864,2.236555,998.02155,5.575479967723264,998.0461366776436,1,2
10.44,-6.4119854000000025,6.0784106,2.3691153999999996,998.0571,5.573784112467686,998.0463483271412,1,2
10.46,-5.417832,6.71713,1.5500592,998.0291,5.570443693099797,998.0464732466597,1,2
10.48,-5.174092,6.7552633,2.0661066000000003,998.0437,5.5656382260073425,998.0465736418582,1,2
10.5,-5.393978,6.9983581999999975,2.624765,998.04865,5.560513930319249,998.0466698259448,1,2
10.52,-7.0573960000000024,7.155656,2.0566323,998.0388,5.5572904650034225,998.0467264828303,1,2
10.54,-8.003813000000001,7.212855,2.3454294,998.05115,5.55735445799425,998.0467924695165,1,2
10.56,-8.266731,7.713344599999999,2.6721005,998.0587,5.561551792599609,998.0468936424617,1,2
10.58,-8.348019,8.004105000000001,2.4495807000000003,998.01605,5.569810174374621,998.0468720017636,1,2
10.6,-8.467528999999999,7.770544,2.7099717,998.0118,5.581598033549828,998.046726620836,1,2
10.62,-5.9199395,7.0031289999999995,1.7252113999999998,998.0197,5.59131396216566,998.0465008664136,1,2
10.64,-4.696339599999999,6.097484,0.9677039000000001,998.0296,5.5958928908487255,998.0462405466867,1,2
10.66,-5.752707,5.4825992999999995,0.49899492,998.0242,5.596343379292562,998.0459311822084,1,2
10.68,-8.281253999999999,5.3491364,1.0434487,998.0296,5.5971998086471295,998.045599035499,1,2
10.7,-7.841557000000001,6.2118839999999995,0.37115905,998.0148300000001,5.598613600328423,998.0451947821389,1,2
10.72,-7.559564,6.3310485,0.049218133,998.0099,5.600202708166058,998.044710522654,1,2
10.74,-6.159112,6.087955,-0.27745858,998.04944,5.599455092659603,998.0442996570916,1,2
10.76,-5.3656955,5.711398,1.1049848999999998,998.06647,5.595085447457937,998.0440164295154,1,2
10.78,-5.934522,5.3825064000000005,2.018722,998.069,5.588254934538685,998.0438561104828,1,2
10.8,-6.7853727,5.5588694000000025,2.298048,998.0695,5.5809486536237625,998.0438067705876,1,2
10.82,-6.713706,6.2023554,2.2222946,998.04205,5.573952386775675,998.0437568494824,1,2
10.84,-7.1104455,6.536015,2.094464,998.0319999999999,5.5682447420169545,998.0436704145352,1,2
10.86,-7.320771700000001,6.7648100000000015,1.7062417,998.0115400000001,5.564174732007332,998.0434783711239,1,2
10.88,-7.3638353,7.012672,1.3274851,998.0267,5.561862143537052,998.0432482794296,1,2
10.9,-7.6984369999999975,7.0460386,1.8198618000000002,998.10175,5.561814433347113,998.0432555766026,1,2
10.92,-9.810201,7.007883500000001,3.3444233,998.07635,5.5677542437648215,998.0433811643088,1,2
10.94,-8.457512,7.5798697,3.4154396,998.0414400000001,5.577608377382206,998.0434851454145,1,2
10.96,-6.019806,7.9659615000000015,3.3775651,998.0364400000001,5.588144158217544,998.043551660596,1,2
10.98,-4.843968,7.7657657,2.8473125,998.055,5.5972589656396,998.043651647432,1,2
11.0,-5.4557730000000015,6.8744190000000005,3.121909,998.0437,5.6045235619263485,998.0437401698697,1,2
11.02,-6.0962634000000016,6.3119654999999995,3.0887682,998.04675,5.6101021985549115,998.0438292236844,1,2
11.04,-6.7319713000000005,5.8305435,2.8520486000000003,998.0273,5.614271653246644,998.0438484064293,1,2
11.06,-6.3639197,6.2166348,2.8662523999999996,997.9996,5.61717122599359,998.0437060620396,1,2
11.08,-5.771221,6.6837564,2.7573613999999997,998.03955,5.618739497855168,998.0435653247138,1,2
11.1,-4.619279,6.96975,2.0329983,998.0296,5.6177831842957335,998.0433906940435,1,2
11.12,-4.8104615,6.555059,3.434383,998.0562,5.615059374910366,998.0432825038847,1,2
11.14,-5.7903147000000015,7.0126479999999995,4.490156,998.07654,5.613518801227416,998.0433066340466,1,2
11.16,-5.847666,7.618001,3.3160239999999996,998.02655,5.613066000263568,998.043267631575,1,2
11.18,-7.3198395000000005,7.3224744999999976,3.1171796,998.0519400000001,5.614932739770199,998.0432643895172,1,2
11.2,-7.166879,7.260509,3.2970877,998.0242,5.618652591206692,998.0431928930327,1,2
11.22,-7.104735400000001,7.470237700000001,3.623762,998.0372,5.624424980725869,998.0431081443244,1,2
11.24,-7.1668696,7.565567999999999,3.6048248,998.05225,5.632196899692137,998.043066171046,1,2
11.26,-5.6086445,8.013625,2.781039,998.0273,5.63992419914276,998.0429723252417,1,2
11.28,-5.4270086,7.7657633000000015,2.3502085,998.0079300000001,5.6467367953335454,998.0427632507176,1,2
11.3,-5.2836050000000006,6.111768,0.7831216,998.0350300000001,5.649298736359826,998.042550672766,1,2
11.32,-7.587464,4.9010625,2.4922419999999996,998.0487699999999,5.650700658588407,998.0423852284656,1,2
11.34,-7.8073324999999985,5.0059266,2.6200716,998.0197,5.6516277307408425,998.0421573750592,1,2
11.36,-7.6926130000000015,5.44445,2.4070237,998.0126,5.652317961517763,998.0418496372397,1,2
11.38,-8.027192999999999,6.397760400000001,1.8530986,998.0399,5.6542594707502545,998.041570701408,1,2
11.4,-7.3764997,7.1031949999999995,2.2082376,998.0617699999999,5.6573933994637144,998.0413969511819,1,2
11.42,-6.7455339999999975,6.8362675,3.4675922,998.0567599999999,5.66101872699232,998.041298732458,1,2
11.44,-5.4692945,6.11175,5.3944980000000005,998.0319999999999,5.664245992916496,998.0411784709568,1,2
11.46,-5.6365557,6.178481,5.3518915,997.9971,5.667343577147727,998.0409135253988,1,2
11.48,-5.708221400000001,6.812433,3.8936973,998.0061599999999,5.669846083455621,998.0405543068119,1,2
11.5,-5.6412724999999995,7.2700210000000025,1.8058279,997.9854,5.671136693996466,998.0400383457643,1,2
11.52,-6.13356,6.7028003,1.3371247,998.0578,5.67094845477014,998.039646384538,1,2
11.54,-6.367739,6.8362630000000015,2.0851634,998.0399,5.670262534632347,998.039300960614,1,2
11.56,-5.8323693,6.8696284,2.4686532000000003,998.0350300000001,5.668663786537636,998.0389803685766,1,2
11.58,-5.975716,7.2557178,2.6059551,998.0224,5.667117795653763,998.0386374041252,1,2
11.6,-6.013939,7.360582000000001,2.482862,998.0255,5.665768856047162,998.0382870660817,1,2
11.62,-6.3437133,7.289083,1.5123122,997.9981,5.664508800991945,998.0378328339481,1,2
11.64,-6.5205507,6.8743916,0.8021529000000001,998.05225,5.662766965051228,998.0374833762326,1,2
11.66,-7.529057000000001,6.192774,1.4981133,998.0372,5.661342065250581,998.0371735752408,1,2
11.68,-8.002212,5.8448133,3.8558510000000004,998.0818,5.661802872200747,998.0370604902137,1,2
11.7,-7.9304814,6.2499704000000005,4.9352984000000015,998.0399,5.665187069916112,998.0369707905188,1,2
11.72,-6.9410467,7.0173855,3.4913063,998.0061599999999,5.669543182023539,998.0367806130223,1,2
11.74,-6.3961015,7.603670599999999,2.9752605,998.0356,5.674539655544758,998.03660832198,1,2
11.76,-5.722133,7.7323675000000005,2.7811513,998.05255,5.6793385474521605,998.0365134756556,1,2
11.78,-5.5452485000000005,7.8372307,2.3124483,998.0135,5.683658427134772,998.0363468209313,1,2
11.8,-5.722054,7.889662299999999,2.6580641,998.0255,5.688011282856344,998.0361605162612,1,2
11.82,-5.468709,7.9897589999999985,2.7006752,998.02765,5.692272691743841,998.0359652595962,1,2
11.84,-5.0098150000000015,7.808628999999999,2.7290845,998.0427,5.695645891168858,998.0358169758723,1,2
11.86,-4.5796022,7.989758,1.5928303999999998,998.02484,5.69754724126294,998.0356464352612,1,2
11.88,-4.4839582,7.584599000000001,1.4934121,998.02515,5.697290418343655,998.03545795841,1,2
11.9,-4.4035015,7.4320884000000005,1.1808683,998.02765,5.694675375378027,998.0352633116141,1,2
11.92,-4.6138144,7.007866,1.1051176999999999,998.04785,5.689453463366648,998.0351366337833,1,2
11.94,-4.98186,7.0984300000000005,2.2177026,998.062,5.682962169222338,998.0351214093704,1,2
11.96,-6.645233599999999,6.9268335999999975,2.0472639,998.0224,5.677167597731798,998.0350621600056,1,2
11.98,-8.915643,7.2080603000000005,1.4365257,998.02765,5.675625464493747,998.0349831234904,1,2
12.0,-9.278909,7.4749875,1.0198979,998.007,5.6786865598055485,998.0348125475812,1,2
12.02,-7.6298770000000005,7.5274205,0.57486373,998.02765,5.68325718716593,998.0346360415367,1,2
12.04,-7.3765483,7.274792999999999,0.13456403,998.0341,5.688371389341892,998.0344781510464,1,2
12.06,-7.1614580000000005,6.950667,-0.17790674,998.0591,5.693158273837844,998.0344272776648,1,2
12.08,-7.5773034,6.3214817000000005,0.75950515,998.0469400000001,5.6974634275757845,998.0344273717458,1,2
12.1,-7.3717732000000025,6.168952,0.82578665,998.0566,5.700809264430615,998.0345072763373,1,2
12.12,-7.3717732000000025,6.168952,0.82578665,998.0227,5.7032954038748525,998.0345353738394,1,2
12.14,-6.836436999999999,5.873425,0.22451714,998.04205,5.7036992528670964,998.0345872534464,1,2
12.16,-6.4444940000000015,6.0116553,0.13456337,998.0222,5.701842686835668,998.034588500155,1,2
12.18,-7.0037327000000005,6.25475,0.39968985,998.03894,5.699210241143082,998.034605267146,1,2
12.2,-6.846000699999999,6.211850599999999,1.0719752,998.0464,5.695709470811678,998.0346625434976,1,2
12.22,-6.8794594,6.3214817000000005,0.87786454,998.0444,5.691615834345003,998.0347482077252,1,2
12.24,-7.338322,6.397746,1.1003815000000001,998.02484,5.687872809068129,998.0347882310887,1,2
12.26,-6.1672720000000005,7.451156,-0.09742311,998.064,5.684193817611932,998.034928758101,1,2
12.28,-7.285747,6.9697337,0.6695504,998.0364400000001,5.681482458348613,998.03505836824,1,2
12.3,-7.285747,6.9697337,0.6695504,998.0685,5.679635859784273,998.0352932816327,1,2
12.32,-6.750412,6.431113,1.7537287,998.04395,5.6772758394748974,998.0355320152928,1,2
12.34,-6.898586999999999,6.3071823,1.6495718999999998,998.02405,5.674480435275256,998.0357016250999,1,2
12.36,-7.2092752,6.383447,1.8058071,998.0337,5.6719451569344015,998.0358442864753,1,2
12.38,-8.251273,6.9411345,-0.059548482,998.0587,5.671697382411617,998.036052622635,1,2
12.4,-7.257075,6.8744024999999995,0.23398456,998.0880000000001,5.671842588361037,998.0364237190242,1,2
12.42,-6.2058854000000006,5.9306335,3.2260947,998.0364,5.670612223706951,998.0367515344052,1,2
12.44,-6.8033686,6.159428,1.8483822,998.0160000000001,5.668568738431048,998.0369664865524,1,2
12.46,-7.5490336,6.2785926,0.94884396,998.0356400000001,5.666859306498751,998.0371516429176,1,2
12.48,-7.281387,6.0307319999999995,1.6779400000000002,998.0731,5.664906126007054,998.0374446611676,1,2
12.5,-7.190586,6.28336,0.82574594,998.04865,5.662708115139176,998.0377439113128,1,2
12.52,-7.0233,6.364392,1.6637349,998.0364,5.660381029666366,998.0380034906607,1,2
12.54,-6.37805,6.3262599999999996,1.4648879,998.0312,5.656865663192633,998.038208362406,1,2
12.56,-6.8894963,6.345326,1.2329012,998.0308,5.653030271123358,998.0383627169756,1,2
12.58,-7.759436,6.459724,0.6884433000000001,998.0332599999999,5.650324068664435,998.038480734892,1,2
12.6,-7.3722949999999985,6.0545672999999995,1.7205416,998.03815,5.647739781803013,998.0385838248773,1,2
12.62,-7.444,5.9497027000000005,1.9761986,998.0477,5.6453526266060985,998.0387077334187,1,2
12.64,-7.3388586,5.9544697,1.7110706999999998,998.0505400000001,5.642882201306536,998.0388598151656,1,2
12.66,-6.774857000000001,6.4215927000000015,1.3512545,998.03815,5.639988869769232,998.0389916392627,1,2
12.68,-7.0377617,6.1784989999999995,1.2944402,998.0505400000001,5.636778285885551,998.0391496931337,1,2
12.7,-7.6830583,5.902039,1.3181100000000001,998.02026,5.633971308485775,998.0392213466388,1,2
12.72,-7.5826892999999975,5.8257747,1.8152220000000001,998.07965,5.631438487994922,998.0394302028276,1,2
12.74,-7.6496296,6.4501934,-1.5178011999999999,998.1957,5.629962479065774,998.040177319426,1,2
12.76,-7.788252000000001,6.0688695999999975,0.6552899999999999,998.07153,5.628957458974536,998.0409503413024,1,2
12.78,-6.292196,6.2690660000000005,3.0130212000000003,997.9218,5.627299679495128,998.0412044422037,1,2
12.8,-6.9996220000000005,6.588425,0.7878498,997.9685699999999,5.625622990885769,998.0411674817682,1,2
12.82,-7.214721000000001,6.588425,0.26706457,998.0252,5.624204081307615,998.041077340593,1,2
12.84,-7.295985000000001,6.4120626,0.22918865,998.03705,5.622897291213479,998.0409831934244,1,2
12.86,-8.170703999999999,5.7638115999999995,1.6068991000000001,998.0325300000001,5.6225495685878935,998.04086957349,1,2
12.88,-7.2051992,5.83531,1.4364591,998.03546,5.6215020639762665,998.0407497044514,1,2
12.9,-7.2004350000000015,6.211869,0.9440796,998.0345,5.620201695227598,998.0406212892328,1,2
12.92,-7.172192999999999,6.178514,0.8209450999999999,998.05176,5.6185695360145855,998.0405479209044,1,2
12.94,-7.4112149999999986,6.0021515,1.2991171000000001,998.0395,5.616905589808782,998.0404793201344,1,2
12.96,-7.516417999999999,6.1165504,1.1239396000000001,998.0050699999999,5.615491125917251,998.0402912309413,1,2
12.98,-7.1292853,6.130851,1.0387175,998.0075699999999,5.613687929597956,998.0400072388987,1,2
13.0,-7.5260406,5.8496246,1.2091533,998.0043,5.611856043565661,998.0396277574704,1,2
13.02,-7.6885705,5.658963,1.2801679,998.0243,5.6100545927344045,998.0392372677527,1,2
13.04,-7.12938,6.12132,1.2659603000000001,998.0149,5.607973828370507,998.0388046168747,0,0
13.06,-7.258467,6.154687,0.9487521999999999,998.0316,5.605824476358416,998.0383963899382,0,0
13.08,-7.435335,6.107022,0.7120306,998.06116,5.6037976562216745,998.0381176296132,0,0
13.1,-7.4401474,6.1689873,1.0765768,998.0665,5.602045648071445,998.0379734935235,0,0
13.12,-6.9861130000000005,6.3787174,0.59839755,998.0310699999999,5.600031990104818,998.0378212822978,0,0
13.14,-7.3207309999999985,6.27862,0.6268011,998.0382699999999,5.5981803756950415,998.0376884038426,0,0
13.16,-7.272964999999999,6.4120846,1.2943492,998.04614,5.596722203183896,998.0376014181855,0,0
13.18,-6.7711015,6.3787193,0.80670416,998.0531599999999,5.594692939875994,998.0375805685536,0,0
13.2,-7.0818205,6.4454513,0.2575103,998.0263699999999,5.592669118565471,998.0375217877722,0,0
13.22,-7.3208423,6.25479,0.4942276,998.0481,5.590787051857693,998.0375079306376,0,0
13.24,-7.096239,6.030762999999999,0.46581683,998.0514,5.588377543342569,998.0375456979233,0,0
13.26,-7.2683277,5.7304699999999995,0.5794411,998.02856,5.58540549081904,998.0375467205844,0,0
13.28,-7.583842,5.7352386,1.2185813,998.0732,5.582596178662713,998.0376759760134,0,0
13.3,-7.320969,5.9735665000000004,1.4789722,998.0289,5.579894636583936,998.037758592597,0,0
13.32,-6.929057000000001,6.7123837,1.0339353,998.0236,5.577586033965135,998.0377806216768,0,0
13.34,-6.9434119999999995,7.0174437,1.0765433,998.0179,5.576106957920318,998.0377285163338,0,0
13.36,-6.8860865,7.041277,0.21487889,998.0308,5.5752011639523085,998.037657533394,0,0
13.38,-7.4501348,6.8172502999999995,0.835083,998.0345,5.575391031350255,998.0375834457479,0,0
13.4,-6.489425700000001,6.488358,0.86348647,998.0405,5.574645011187074,998.0375284814992,0,0
13.42,-7.8836627,5.873436,1.2376387,998.0489,5.574511826274524,998.0375208525556,0,0
13.44,-7.778492999999999,5.787637999999999,0.97724766,998.0310699999999,5.5745796179657985,998.0374908885519,0,0
13.46,-7.44866,5.992599,1.2849864,998.0384,5.5746198291614615,998.0374676851596,0,0
13.48,-6.822466,6.359623,0.56536055,998.05804,5.5740078836523175,998.0375212429753,0,0
13.5,-7.6780240000000015,6.164194,0.68845755,998.0486,5.573915825316197,998.0376084501868,0,0
13.52,-6.8558580000000005,6.4454199999999995,0.5606321999999999,998.0682400000001,5.573361178076573,998.037795780058,0,0
13.54,-7.008798,6.488318,0.6884624,998.0165400000001,5.572709869756387,998.0378847839239,0,0
13.56,-6.994432400000001,6.5121503,0.7547465,998.0204,5.571997659190222,998.037900482518,0,0
13.58,-7.032630999999999,6.373919,0.7689534,998.0433300000001,5.5711010874285165,998.0379339000584,0,0
13.6,-7.032630999999999,6.373919,0.7689534,998.0105,5.570044841772775,998.037864665757,0,0
13.62,-7.4149885,6.5836473,0.8115654,998.0341,5.5697382513787534,998.0377899375314,0,0
13.64,-6.8174734,6.39775,0.23397174,998.0218,5.568854500474488,998.0376663438964,0,0
13.66,-7.199831,6.1308226999999995,0.23870856,998.0567599999999,5.5676868770375165,998.0376258737224,0,0
13.68,-7.5057254,6.0831566,0.51803964,998.0384,5.566720972454626,998.037592901131,0,0
13.7,-7.3049464,6.454947,0.5606517,998.0260599999999,5.566122164693593,998.0375222481053,0,0
13.72,-6.9559809999999995,6.578877,0.88259494,998.0616,5.565539209067514,998.0375464989986,0,0
13.74,-7.314453,6.5550437000000015,1.1808636000000001,998.0685,5.565549627434842,998.0376793596917,0,0
13.76,-6.6834784,6.4978440000000015,1.1524608,998.05426,5.565044795757982,998.037856445705,0,0
13.78,-7.046717,6.4978432999999995,1.3891833999999998,998.0567599999999,5.564695403261983,998.038080971702,0,0
13.8,-6.917649000000001,6.540742,1.3844504,998.0624,5.5643493787801015,998.0383669113746,0,0
13.82,-6.735975999999999,6.7409368,1.1856091,998.01984,5.563971614281702,998.0385528707884,0,0
13.84,-7.05143,6.821967599999999,0.85420185,998.0316,5.5640771005214535,998.0386921541916,0,0
13.86,-7.309513000000001,6.698036,1.4886146,998.04443,5.564977032663691,998.0388358812517,0,0
13.88,-6.415663200000001,6.5884050000000025,0.8163315,998.03546,5.564927140980855,998.0389507253094,0,0
13.9,-6.8697314,6.6027045,0.7973951,998.0419300000001,5.564722792315576,998.0390629269076,0,0
13.92,-6.8791199999999995,6.392972,0.20087579,998.0268,5.564032685752356,998.039117921703,0,0
13.94,-7.2136745,6.2166084999999995,1.0057274999999999,998.0747,5.5632951930983685,998.0392946105859,0,0
13.96,-6.6974077,6.421569,1.1572328,998.02716,5.5620502373623015,998.0394070482847,0,0
13.98,-6.6639338000000015,6.421569,0.49915200000000004,998.0227699999999,5.560189753376175,998.0394465048621,0,0
14.0,-7.8253937,6.19754,0.8684385,998.06,5.559355333203176,998.0395553612758,0,0
14.02,-7.0462546,6.2547374000000024,1.0152079,998.039,5.55830068062295,998.0396495475026,0,0
14.04,-7.6867012999999975,6.183237999999999,0.9631339,998.02234,5.557960370287787,998.0396704560817,0,0
14.06,-7.514612,6.1832376,1.0909642,998.01685,5.558004234193428,998.03960677726,0,0
14.08,-6.9457835999999995,6.2356687000000015,1.2756089,998.0124,5.557615292916589,998.039452566255,0,0
14.1,-7.3424754,6.3167,1.1572516000000002,998.0378,5.557538727856388,998.0393103561728,0,0
14.12,-7.1560315999999995,6.3119326,0.6506733,998.05536,5.557342614551551,998.0392424780616,0,0
14.14,-7.079523,6.2070675,1.1714607,998.0419300000001,5.556883060257113,998.0391921760415,0,0
14.16,-7.4666553,5.9782720000000005,1.2330108,998.04486,5.556517355389086,998.0391681333427,0,0
14.18,-7.5813546,6.0545363,1.0720425,998.03754,5.556479305795048,998.0391410279344,0,0
14.2,-7.1893635,6.340529,1.0483749,998.0518,5.556485055410062,998.0391626498947,0,0
14.22,-7.5334783,6.3023953,1.2046132,998.02716,5.557054583886547,998.0391385455194,0,0
14.24,-7.117619,6.3166947,1.1525362,998.0378,5.5574763409958425,998.0391124281296,0,0
14.26,-7.294424,6.4120245,1.6401843,998.0431,5.558313916751226,998.0391037060623,0,0
14.28,-6.759053999999999,6.3262258000000005,1.5312957,998.0252,5.5585473888388215,998.039045945902,0,0
14.3,-7.289581,6.2213607,0.69330895,998.04803,5.558713884828867,998.0390272516192,0,0
14.32,-7.652798700000001,5.9210668,0.40924907,998.03046,5.5589787332513305,998.0389798912448,0,0
14.34,-7.652798700000001,5.9210668,0.40924907,998.0477,5.5593295324287615,998.03896943601,0,0
14.36,-7.160431,6.0259300000000025,0.61756724,998.04065,5.55911972597805,998.0389662477943,0,0
14.38,-7.255995299999999,6.1069603,1.2330427,998.0702,5.55879933806477,998.0390758721953,0,0
14.4,-7.4474115,5.930603,1.6780561999999999,998.0332599999999,5.558597152540694,998.039151799176,0,0
14.42,-7.174941499999999,6.392958999999999,1.5644325000000001,998.0346,5.558644244287429,998.0392025017792,0,0
14.44,-6.940709599999999,6.5407214000000025,1.4129336000000001,998.0185,5.55871339161213,998.0391727735927,0,0
14.46,-6.4674873,6.9792438,0.32402244,998.0259,5.55855147053612,998.0390987237822,0,0
14.48,-6.9311169999999995,6.8553133,0.68857265,998.03754,5.55871023075891,998.039027681964,0,0
14.5,-6.878507000000001,6.655117,0.38557366,998.0154,5.558748283674582,998.0388798497586,0,0
14.52,-7.1174764999999995,6.5550190000000015,0.92529774,998.0282599999999,5.558973537471443,998.0387109937628,0,0
14.54,-7.1174764999999995,6.5550190000000015,0.92529774,998.0411,5.559363391053256,998.0385703930272,0,0
14.56,-6.8975729999999995,6.431088,1.2614435,998.06085,5.559469776553091,998.0385263648022,0,0
14.58,-7.031396400000001,6.364356,1.5218366,998.0255,5.5595139028922524,998.0384405665494,0,0
14.6,-6.7015576,6.588383,0.8684917999999999,998.01074,5.559154727933427,998.0382650331737,0,0
14.62,-6.782781599999999,6.9363402999999995,0.81168187,998.0579,5.559059026928804,998.0381806177637,0,0
14.64,-6.782781599999999,6.9363402999999995,0.81168187,998.0473,5.559196476033728,998.038138858083,0,0
14.66,-6.725392,6.764744800000001,1.4555639999999999,998.0603,5.5593607648226975,998.0381817393404,0,0
14.68,-6.854436,6.655113,1.4176897,998.06085,5.559566728826195,998.0383012349575,0,0
14.7,-6.782706699999999,6.4644504000000005,0.9158457,998.04614,5.559301970410902,998.0384350408392,0,0
14.72,-7.117271400000001,6.3834176,1.247256,998.03815,5.559094099419893,998.0385522455693,0,0
14.74,-7.117261,6.359585,0.9489895,998.05585,5.558833616342996,998.0387180795843,0,0
14.76,-7.064650500000001,6.354817400000001,0.6033809,998.04846,5.558381510903971,998.038899681434,0,0
14.78,-7.294059,6.164155,1.1525738,998.0505400000001,5.557964937133434,998.0391020499749,0,0
14.8,-7.26059,6.126023,1.3324822,998.05585,5.557526224864786,998.0393411554376,0,0
14.82,-7.0167875,6.0926557,1.5928775,998.04065,5.556727857484773,998.0395571408653,0,0
14.84,-7.3370232999999985,6.059289,1.4461118999999998,998.0337,5.5560231176177215,998.0397268998815,0,0
14.86,-7.384789,6.1593857000000005,1.308817,998.0386,5.555570095475725,998.0398728421093,0,0
14.88,-7.0931997,6.0259222999999995,1.5644770000000001,998.0337,5.554785933294643,998.0399795744296,0,0
14.9,-7.4195423,5.978289,2.108813,998.04065,5.5543793653320455,998.0400762966403,0,0
14.92,-6.8937955,6.211850599999999,2.1561542,998.04803,5.5538255021544884,998.0401903937177,0,0
14.94,-7.2140746,6.2881165,1.6022258999999999,998.0411,5.55350987928425,998.0402944844777,0,0
14.96,-7.491335,6.2833510000000015,1.0861729,998.05115,5.5536856380112125,998.0404255389293,0,0
14.98,-7.3001585,6.32625,0.7973726999999999,998.0308,5.5539936891787365,998.0405066867024,0,0
15.0,-7.472278999999999,6.045024400000001,1.4933258,998.0339,5.5544879229041255,998.0405546048027,0,0
15.02,-7.472278999999999,6.045024400000001,1.4933258,998.0431,5.555144888296233,998.0406061086587,0,0
15.04,-7.3624066999999975,6.002127,1.6069459,998.0182,5.55575063348605,998.0405709554747,0,0
15.06,-7.195129400000001,6.168957,1.4885841999999998,998.0288,5.556225593378739,998.0404975186816,0,0
15.08,-7.190366,6.2356887,1.4696451000000001,998.0308,5.5566593126507575,998.040397718864,0,0
15.1,-7.0661383,6.4406524,1.1855766,998.0312,5.557062892502768,998.0402764239577,0,0
15.12,-7.2334785,6.2547574,1.3512764,998.0455300000001,5.557487219591888,998.0401881606515,0,0
15.14,-7.2334785,6.2547574,1.3512764,998.04803,5.557928351362198,998.0401384018164,0,0
15.16,-7.099692,6.2881246,1.199771,998.0139999999999,5.558178809214121,998.0400003366627,0,0
15.18,-7.1953197,6.2547593,1.1713616000000002,998.0411,5.558355445608144,998.0398823010812,0,0
15.2,-7.391323,6.021199,1.337063,998.0214,5.558510256878948,998.0397114685576,0,0
15.22,-7.443933,6.0307330000000015,1.289716,998.04846,5.558728286774738,998.0395920156523,0,0
15.24,-7.1237179999999976,6.1212983,1.5074958,998.01855,5.558681153437642,998.0394107158096,0,0
15.26,-7.104614,6.264295,1.5927135000000001,998.02094,5.558591616879896,998.0391840246913,0,0
15.28,-6.937369,6.4501919999999995,1.1003312,998.0288,5.5583225934958,998.0389463379305,0,0
15.3,-7.0138617,6.431126,1.1713457,998.0263,5.558002767274396,998.0386907910917,0,0
15.32,-7.573146,6.0355034000000005,1.1003252000000001,998.0362,5.557968683636839,998.0384560230568,0,0
15.34,-7.587501,6.0688695999999975,1.17134,998.0337,5.55827050523664,998.0382314603387,0,0
15.36,-7.0521946,6.1499014,1.3323067,998.0616,5.558171876609607,998.0381171634635,0,0
15.38,-7.128719,6.3882312999999975,1.2565520000000001,998.0455300000001,5.558141561982915,998.0380428569563,0,0
15.4,-7.014036,6.3786983,1.2565491000000002,998.0459599999999,5.557983140399107,998.0380057014412,0,0
15.42,-7.085764999999999,6.316733999999999,1.289687,998.0165,5.557745651341264,998.037895450303,0,0
15.44,-7.0666614,6.288135,1.1713254,998.0536,5.557338865729078,998.0378545687762,0,0
15.46,-7.229206,6.26907,1.1145096,998.0364,5.5569959142185095,998.0378132094116,0,0
15.48,-7.348717,6.230938,1.0150858,998.023,5.556823964691732,998.0377233367227,0,0
15.5,-7.219710000000001,6.259538,1.1429102,998.0634,5.556669589099803,998.0377363612033,0,0
15.52,-7.0429205999999995,6.3787036,1.2186549999999998,998.02386,5.556440753561142,998.0376979147336,0,0
15.54,-7.0668354,6.3596377,1.2802008,998.04803,5.556173872605089,998.03770113894,0,0
15.56,-7.272255,6.2881365,1.12871,998.01605,5.556055111638801,998.0376260437488,0,0
15.58,-7.339186,6.168973,1.3559601000000001,998.03815,5.5560739008705475,998.0375615758801,0,0
15.6,-7.2675157000000015,6.2023395999999975,1.2612698,998.0205699999999,5.556119286574629,998.0374434423981,0,0
15.62,-7.0285397,6.369169,1.1997212,998.05115,5.556028796358612,998.0373884032608,0,0
15.64,-7.124175999999999,6.316738,1.0671542,998.0505400000001,5.555860687825104,998.0373871164273,0,0
15.66,-7.0907300000000015,6.311972,0.9487929,998.05536,5.555540443239896,998.0374506817624,0,0
15.68,-7.167234,6.269074,1.1665729,998.0501,5.5551968312525215,998.0375523856378,0,0
15.7,-7.368026299999999,6.2071095000000005,1.0624122999999999,998.0403,5.555040009730789,998.037652142594,0,0
15.72,-7.277224,6.1689773,1.2896626,998.0501,5.554912466065068,998.0377851001268,0,0
15.74,-7.1529755999999995,6.178511,1.2849257,998.04065,5.554628258176129,998.0379128950427,0,0
15.76,-7.2103740000000025,6.3548746,1.2233747,998.0473,5.554518018932044,998.0380596082083,0,0
15.78,-7.2820845,6.340575,1.2328423000000002,998.04803,5.5546561700975525,998.0382251373717,0,0
15.8,-7.0956990000000015,6.2404785,1.2139022,998.0395,5.554583231787444,998.0383759884458,0,0
15.82,-7.372954400000001,6.1356150000000005,1.0576644,998.0501,5.55457968873475,998.0385514868964,0,0
15.84,-7.3442893,6.092716,1.1381481000000002,998.0174,5.554554411458403,998.0386304119747,0,0
15.86,-7.277412400000001,6.25478,1.1570818,998.05255,5.554625039925476,998.0387502606908,0,0
15.88,-7.215288,6.288146,1.2707065,998.00995,5.554757996654068,998.038752478078,0,0
15.9,-7.3395899999999985,6.216648999999999,1.3322513,998.0291,5.555060964283596,998.03871968844,0,0
15.92,-7.239255,6.059353,1.5310925,998.0350300000001,5.555208491305318,998.0386774326377,0,0
15.94,-7.425694,5.9497230000000005,1.2659633,998.0325300000001,5.555291458683653,998.038617964653,0,0
15.96,-7.588247999999999,5.8114934,0.5557989999999999,998.0395,5.55526516521306,998.0385685940693,0,0
15.98,-7.406641499999999,6.083188,0.9108769,998.0325300000001,5.555253841575307,998.0385032312823,0,0
16.0,-6.971692999999999,6.216653,0.75937474,998.0493,5.554723542461952,998.0384843450915,0,0
16.02,-7.072109700000001,6.454981299999999,1.4553285,998.0538,5.5543878894316485,998.038522793611,0,0
16.04,-7.072109700000001,6.454981299999999,1.4553285,998.0473,5.554225434031242,998.0385883646657,0,0
16.06,-6.5068097,6.8219743,0.5464403,998.02795,5.553714272047934,998.038608005137,0,0
16.08,-6.7983645999999975,6.5026150000000005,0.70741117,998.04486,5.552877641151702,998.0386478666388,0,0
16.1,-7.4914117,5.9353940000000005,0.8115704,998.0046,5.552084885039517,998.038560515942,0,0
16.12,-7.6825905,5.825762999999999,0.7642275,998.03705,5.551499578122928,998.0384778950087,0,0
16.14,-7.644325999999999,5.7494974,0.95834047,998.0596300000001,5.550977365344547,998.0384810387303,0,0
16.16,-7.4387693,5.954458,1.1855942,998.0596300000001,5.550489594946499,998.0385599527832,0,0
16.18,-7.3335886,6.264284,1.7584593999999998,998.0252,5.550453702976576,998.0385815854103,0,0
16.2,-6.559235,6.750472500000001,1.2992245,998.0395,5.550189062924726,998.038604006292,0,0
16.22,-6.669132,6.693273,0.9867573000000001,998.0112,5.549720025654745,998.0385251629604,0,0
16.24,-7.094522500000001,6.4883102999999975,1.3655108,998.0310699999999,5.549509619058217,998.038428658406,0,0
16.26,-7.089717,6.4120445,1.7916098000000005,998.0419300000001,5.549559853038181,998.0383559918117,0,0
16.28,-7.046686,6.507376,1.6827196,998.0289,5.549866371037699,998.038257742038,0,0
16.3,-6.8315573,6.750469,1.1714072,998.0366,5.5502674002880354,998.0381649606668,0,0
16.32,-6.745508,6.793367999999999,1.0009698,998.05426,5.550647382095463,998.038140921189,0,0
16.34,-7.142194,6.311945,1.1761462999999999,998.0366,5.550962135798339,998.0381141325901,0,0
16.36,-7.1565199999999995,6.1975474,1.1714129999999998,998.0682400000001,5.5510837788891925,998.0381989153065,0,0
16.38,-7.4623766000000025,6.1212807,1.3371218,998.0334,5.551459831544133,998.0382565532198,0,0
16.4,-7.4623766000000025,6.1212807,1.3371218,998.0307,5.552059326700343,998.0382802784883,0,0
16.42,-6.764488,6.421573,1.133546,998.0486,5.552130294194778,998.0383383931328,0,0
16.44,-7.232883,6.3500742999999975,1.540707,998.0134,5.552464923679973,998.0382999650177,0,0
16.46,-7.079903999999999,6.269042,1.0814721999999999,998.0282,5.552554867974488,998.0382296500612,0,0
16.48,-7.012949000000001,6.211842,1.4270871,998.0548,5.552341785884582,998.0382271730252,0,0
16.5,-7.017716,6.226141999999999,1.1004143999999998,998.0334,5.551797907951703,998.0382076064936,0,0
16.52,-7.414414,6.2404404000000016,0.92524374,998.0481599999999,5.551564947467263,998.0382261461226,0,0
16.54,-7.0941424,6.364371,1.0720125,998.0727,5.5513073392663,998.0383666336128,0,0
16.56,-7.0941424,6.364371,1.0720125,998.0454,5.55102887973254,998.038516088478,0,0
16.58,-6.8317943,6.435882,0.7878988,998.0454,5.550375845397331,998.0386729288788,0,0
16.6,-7.2619743,6.3929834,0.7500238,998.0400400000001,5.549987009300459,998.0388164345123,0,0
16.62,-7.371908,6.335785,1.0293537,998.0506,5.5499800264206245,998.0389856569265,0,0
16.64,-7.4244823,6.254753,1.4317783000000002,998.0422,5.5503898543699846,998.0391467534863,0,0
16.66,-7.338444,6.3786836,1.285012,998.0579,5.551155564475625,998.0393566100943,0,0
16.68,-6.932157000000001,6.578879,1.1477146999999999,998.0324,5.551854584253402,998.0395169955963,0,0
16.7,-7.309761,6.4358816,1.360763,998.0216,5.552924861231302,998.0395942110422,0,0
16.72,-7.0898886,6.3834496,1.3276222,998.03955,5.553899991730354,998.0396622794502,0,0
16.74,-7.3145356,6.3691497,1.6164212,998.045,5.555204389125345,998.0397416404896,0,0
16.76,-6.9321470000000005,6.6503770000000015,1.2944821000000002,998.04254,5.556505128203177,998.039821837998,0,0
16.78,-6.7887505999999975,6.4454150000000014,1.3134199,998.03265,5.557298335484741,998.0398668819,0,0
16.8,-7.089875999999999,6.3596167999999995,1.2613417,998.04175,5.557961536222564,998.0399134619169,0,0
16.82,-7.4196815,6.3214846,1.3844364,998.045,5.559001905587978,998.0399729315567,0,0
16.84,-6.836541,6.8362722000000025,1.5596097,998.03955,5.560263396708785,998.0400239563768,0,0
16.86,-6.9273562,6.845805,1.4554528999999998,998.0495599999999,5.561828577249758,998.040103371665,0,0
16.88,-6.8699965,6.526446,1.1571857,998.05725,5.563030445736125,998.0402352708755,0,0
16.9,-6.9225699999999994,6.5026129999999975,1.3370933999999999,998.0297,5.564000729381363,998.0403138900432,0,0
16.92,-6.89389,6.383449,1.1240454,998.0445,5.564494964878444,998.0403984279352,0,0
16.94,-7.309728999999999,6.2023196,1.0198888000000002,998.0518,5.5649370907446825,998.040514171276,0,0
16.96,-7.233250599999999,6.1737204000000006,1.2376715,998.06635,5.565226254370293,998.0407094510756,0,0
16.98,-7.4005413,6.1451215999999995,1.5359392,998.0568,5.565693506167562,998.0409399262824,0,0
17.0,-6.7887225,6.5693449999999975,1.4649235,998.0339,5.5659394652366485,998.0411182304404,0,0
17.02,-6.874758,6.5931770000000025,1.5785493999999998,998.0536,5.566187499361821,998.0413207143648,0,0
17.04,-7.0181512999999995,6.497846,1.5832838,998.054,5.566518017282243,998.0415452745892,0,0
17.06,-7.5681443,6.106996,1.0672046999999998,998.0484,5.567104611420713,998.0417683730144,0,0
17.08,-7.123633,6.2023273,1.0766726,998.0462,5.567340314326482,998.0419814566403,0,0
17.1,-7.1427574000000025,6.226161,1.3560021,998.0682,5.567401143613914,998.0422641240884,0,0
17.12,-7.109303999999999,6.2452273,1.4554241,998.061,5.567311634460915,998.0425813381984,0,0
17.14,-7.2431535999999985,6.3596244,1.2518433,998.03864,5.567392521652302,998.0428474397687,0,0
17.16,-6.765188,6.3882246,1.171357,998.0536,5.566913450698854,998.043121276333,0,0
17.18,-6.9277067,6.3310260000000005,1.3039199,998.073,5.5661426281621065,998.0434708017264,0,0
17.2,-6.9994187000000005,6.2213955,1.4459506000000002,998.04865,5.5651182344159285,998.0437982874776,0,0
17.22,-7.061561599999999,6.2309284000000025,1.5311694,998.061,5.564009677501924,998.0441495800528,0,0
17.24,-7.319681,6.254761,1.4506836,998.0534,5.563237171006002,998.0444932836839,0,0
17.26,-7.1284943,6.292894,1.2707758,998.06506,5.562466166381318,998.0448710203913,0,0
17.28,-7.095055599999999,6.1975636,1.6447919999999998,998.03864,5.561636783282179,998.0451823568724,0,0
17.3,-7.095055599999999,6.1975636,1.6447919999999998,998.04785,5.560758802742167,998.0454670573024,0,0
17.32,-7.2814784,6.207097,1.294445,998.07074,5.5600323171672965,998.0458096011956,0,0
17.34,-7.276708599999999,6.226163400000001,1.3607258999999998,998.0399,5.559479257415936,998.0460909984157,0,0
17.36,-7.095086,6.254762599999999,1.5927107,998.04486,5.5589122404396765,998.0463352094052,0,0
17.38,-7.099881,6.1165332999999995,1.4175363,998.05,5.558098487869148,998.0465641874816,0,0
17.4,-7.348441,6.1022339999999975,1.6021771,998.0419999999999,5.557500688690435,998.0467500814348,0,0
17.42,-7.358005499999999,6.0641017,1.5358951,998.0475,5.557038771728803,998.0469170370387,0,0
17.44,-7.3819149999999985,6.1689663,1.3275801999999999,998.0596300000001,5.556810047483412,998.0471103256772,0,0
17.46,-6.985201400000001,6.3405623,1.4459395,998.04443,5.556440106773661,998.0472714663454,0,0
17.48,-7.3293630000000025,6.1832660000000015,1.4317349,998.0621,5.5562617059011,998.0474672329608,0,0
17.5,-7.324588,6.1832666,1.2897024,998.0602,5.556204201615597,998.0476860503039,0,0
17.52,-7.343717,6.083169,1.0245748,998.0419,5.556085314477169,998.0478585675273,0,0
17.54,-7.099962,6.240465599999999,1.3275752,998.04443,5.5558181725189995,998.0479986609024,0,0
17.56,-7.0753155,6.26428,1.5785671000000001,998.0498,5.555494655381615,998.0481289322296,0,0
17.58,-6.802836,6.326245,1.5264915000000001,998.0616,5.5547763897799145,998.0482925358181,0,0
17.6,-6.802836,6.326245,1.5264915000000001,998.0582,5.553711910191312,998.04847276282,0,0
17.62,-7.5149965,6.164181,1.3418523999999998,998.0541400000001,5.553171569897337,998.0486524134527,0,0
17.64,-7.003537,6.2785779999999995,1.3560575000000001,998.0541400000001,5.5524545359622,998.0488309080632,0,0
17.66,-7.280736,6.235678,1.3418572,998.05164,5.551950661969942,998.0489987386322,0,0
17.68,-7.2090187000000014,6.1737123,1.4933598999999995,998.06396,5.551488392171613,998.0492008942641,0,0
17.7,-7.0178056,6.1737123,1.6306595,998.074,5.5508151442603495,998.0494687957606,0,0
17.72,-7.3045740000000015,6.164178400000001,1.427082,998.05084,5.550323312699863,998.0497104498584,0,0
17.74,-7.2328663,6.302408,1.3608011999999998,998.0565,5.5500468216002306,998.0499484177997,0,0
17.76,-7.208937,6.2595085999999975,1.4460232,998.06085,5.5498922732568445,998.0501979319687,0,0
17.78,-7.242385400000001,6.2976410000000005,1.4981025,998.05084,5.549965731050106,998.0504207141333,0,0
17.8,-7.022494,6.302407,1.5691205,998.0342400000001,5.549932182873514,998.0505593138828,0,0
17.82,-7.156308,6.3071730000000015,1.4933718,998.03174,5.549990788386683,998.0506140310918,0,0
17.84,-7.1132800000000005,6.2976394,1.5312481000000002,998.0711699999999,5.550063808736101,998.0507363807055,0,0
17.86,-7.2184051999999985,6.2118400000000005,1.5359855,998.04083,5.550197609303143,998.0508088258538,0,0
17.88,-7.194496000000001,6.2118400000000005,1.6259398,998.0605,5.5503781499941685,998.0509077266137,0,0
17.9,-7.1514573000000015,6.2833385,1.3513464,998.04114,5.550540889162028,998.0509599515093,0,0
17.92,-6.9793644,6.378669,1.5407243999999998,998.0805,5.550614001383966,998.0511124416016,0,0
17.94,-7.2374535,6.188006,1.4649758,998.0626,5.550720755096071,998.0512885370572,0,0
17.96,-7.1800755999999994,6.226138,1.5028528,998.0458,5.5508307873134015,998.0514243762688,0,0
17.98,-7.433375,6.1546389999999995,1.2756041,998.05804,5.551177940241884,998.0515682200412,0,0
18.0,-7.050959599999999,6.178471,1.6354218,998.0559,5.551280157917233,998.0517109148068,0,0
18.02,-7.050959599999999,6.178471,1.6354218,998.05585,5.551165582819283,998.0518519006076,0,0
18.04,-7.036589599999999,6.321467,1.2756097,998.05035,5.550918480332855,998.0519710688196,0,0
18.06,-7.1707582,6.3262415,1.3181888000000002,998.0553,5.550780036632774,998.0520883500037,0,0
18.08,-7.185088,6.202311,1.4886284,998.0577,5.550644374261272,998.0522121815981,0,0
18.1,-7.175525,6.230911,1.4886286,998.0376,5.550535252052062,998.0522689953411,0,0
18.12,-7.242436,6.249976,1.4507538999999998,998.0676,5.550567533530544,998.0523743875812,0,0
18.14,-7.041678,6.273809,0.96311086,998.0548,5.550318163149182,998.0524762443694,0,0
18.16,-7.2041850000000025,6.4978370000000005,1.4696927,998.0752,5.5505112554253,998.0526480505476,0,0
18.18,-7.218514999999999,6.359606299999999,1.5549128,998.072,5.550955089799713,998.0528695255043,0,0
18.2,-7.2376312999999985,6.288108,1.6874765,998.0577,5.55159774365127,998.0530826104848,0,0
18.22,-6.903038499999999,6.18801,1.322928,998.04443,5.551643553675442,998.0532397429756,0,0
18.24,-7.228055499999999,6.092679,1.6022587,998.0475,5.551626724925538,998.0533579221697,0,0
18.26,-7.3427677,6.040246499999999,1.6069934,998.06213,5.551668144676562,998.0534939247858,0,0
18.28,-7.237609,6.087912599999999,1.6543376,998.05396,5.551674398347694,998.053615774568,0,0
18.3,-7.5769625,6.15941,2.033091,998.05896,5.552424619678683,998.0537426802472,0,0
18.32,-7.3188496,6.2738074999999975,2.141983,998.0712,5.553623450421356,998.0539176604567,0,0
18.34,-6.577974,6.5979333,2.3881723999999998,998.04443,5.554680320632413,998.054038117392,0,0
18.36,-6.7356977,6.893459299999999,1.9857488,998.0567599999999,5.5560701175177405,998.0541543519173,0,0
18.38,-6.487141,6.8743929999999995,1.569122,998.04614,5.557210768277948,998.054228205077,0,0
18.4,-6.9459995999999995,6.6074657000000006,1.6732790000000002,998.0543,5.558439582117718,998.0542937201907,0,0
18.42,-6.9220915,6.602699,1.3750125,998.0414,5.559602167062244,998.0543051919524,0,0
18.44,-7.0415800000000015,6.507368,0.7642749,998.0414,5.5606063482639625,998.05426886971,0,0
18.46,-6.8025827,6.183242,0.82108825,998.0459599999999,5.5606584047252685,998.0542068634456,0,0
18.48,-7.4143953,6.140343,1.0814808999999999,998.0255,5.5608210164762735,998.054048730002,0,0
18.5,-7.734635000000001,6.2166076,1.0814815,998.04095,5.5616929489154385,998.0538618478636,0,0
18.52,-6.793008,6.326238,1.0530756000000001,998.0402,5.561858526374841,998.0536475361532,0,0
18.54,-6.7930044999999994,6.335771,1.5833291999999999,998.0459599999999,5.561567577626537,998.053430495196,0,0
18.56,-6.6209254,6.5026,1.7632371,998.0356,5.560922274779188,998.0531745280236,0,0
18.58,-6.8215027,6.588394,1.7679876,998.0139999999999,5.560383786306528,998.052807327129,0,0
18.6,-6.4534515999999975,6.907753,0.5086364000000001,998.05084,5.559567244761976,998.052475786041,0,0
18.62,-7.2134213,6.1880026,1.3324246000000002,998.0545699999999,5.558778054939761,998.052190375506,0,0
18.64,-7.342463499999999,6.1451035,1.6401621,998.0479,5.558259552745472,998.0519227414052,0,0
18.66,-7.2898726,6.483529,1.053097,998.05084,5.558186806142633,998.0516823620446,0,0
18.68,-6.3482389999999995,6.888685700000001,1.4176474,998.0476,5.557805181238214,998.0514552663384,0,0
18.7,-6.4533879999999995,6.7027902999999975,1.8863541000000001,998.0501,5.557192339586867,998.0512497256135,0,0
18.72,-6.7784023,6.7599883,0.99628717,998.0450400000001,5.556649710621964,998.0510457548168,0,0
18.74,-6.7975020000000015,6.454928400000001,1.3134940000000002,998.0656,5.555840164791506,998.0509179215036,0,0
18.76,-6.9074183000000025,6.5693254,1.0389001,998.04224,5.555054063772591,998.0507737274704,0,0
18.78,-6.510689,6.5407257,1.1335889,998.0366,5.553687066799282,998.050595292204,0,0
18.8,-7.313683,6.4215612,1.1335899999999999,998.0319,5.552851802807206,998.0503703237507,0,0
18.82,-7.375814,6.3262300000000025,0.9773553,998.0472,5.5524222029122114,998.0501601284598,0,0
18.84,-7.2897587,6.1546335,0.91580975,998.0324,5.5519744815935805,998.0499104634382,0,0
18.86,-7.5669804,6.1117344000000005,0.8447943000000001,998.0442,5.5518848455781695,998.0496693017567,0,0
18.88,-7.2515016,6.249964,0.769045,998.0463,5.551780498577376,998.0494440818086,0,0
18.9,-7.0029325,6.5454903,0.3666223,998.044,5.551639834736114,998.049225478768,0,0
18.92,-6.8690915,6.707553,0.32874766,998.0573,5.5514962590155745,998.0490613893976,0,0
18.94,-6.8738589999999995,6.469225,0.6128130999999999,998.0319,5.551044574330666,998.0488546190284,0,0
18.96,-6.6969867,6.6598864,0.80692536,998.03925,5.550363810133409,998.0486373401013,0,0
18.98,-7.313569,6.397725599999999,0.17725076,998.0492,5.549980645523847,998.0484473780168,0,0
19.0,-7.3470210000000025,6.35006,0.5465349,998.0515,5.549877861116358,998.0482905169588,0,0
19.02,-6.9024806,6.4692235,0.35242602,998.0366,5.549483744269381,998.0481098286664,0,0
19.04,-6.9024806,6.4692235,0.35242602,998.0336,5.548833624899519,998.047897937108,0,0
19.06,-6.9886875,6.6169910000000005,0.94894546,998.06104,5.548384021745568,998.0477580211535,0,0
19.08,-7.046039599999999,6.3357644,1.0057588,998.0484,5.547818038475188,998.04763670254,0,0
19.1,-7.089053,6.412028299999999,0.7501014,998.06354,5.547274257391992,998.047586757284,0,0
19.12,-7.0364723,6.3834290000000005,0.5465222,998.0589,5.546602715346177,998.0475833533296,0,0
19.14,-7.246776,6.269032,0.8305872,998.0414,5.546032260020344,998.0475580855234,0,0
19.16,-7.1224966,6.369129,0.7216963000000001,998.0631,5.5454785068501735,998.047591709782,0,0
19.18,-6.845263,6.454927400000001,0.63647753,998.0261,5.544625806521619,998.0475440500217,0,0
19.2,-7.385372999999999,6.445394,0.49918047,998.0434,5.544311992002955,998.0474870192774,0,0
19.22,-7.0938025,6.431093700000001,0.6885569,998.0401,5.544027878336077,998.0474100336422,0,0
19.24,-7.041222,6.3643627,0.5701970000000001,998.0361,5.543581104984894,998.047301293014,0,0
19.26,-6.9121594,6.4120274,0.631745,998.0356400000001,5.542869651432212,998.04716322914,0,0
19.28,-6.9121594,6.4120274,0.631745,998.0355,5.541926887686275,998.0469992482756,0,0
19.3,-7.4092517,6.2737975,0.45183828,998.0278300000001,5.54134378026705,998.0467853454908,0,0
19.32,-7.165477,6.4835258,0.513386,998.0328,5.540992911694041,998.046545993746,0,0
19.34,-6.9217020000000025,6.5597906,0.660153,998.02325,5.540603549958641,998.0462506369664,0,0
19.36,-7.1272254,6.3452954,0.6838258,998.0404699999999,5.540197999782452,998.0459688494237,0,0
19.38,-7.2371564,6.311929,0.5607316999999999,998.0331,5.539888322205565,998.0456735340924,0,0
19.4,-7.2514906,6.2594970000000005,0.54652894,998.025,5.539613935613817,998.0453381687433,0,0
19.42,-7.2323656000000005,6.397727,0.53706056,998.0549,5.539529481776628,998.0450762625132,0,0
19.44,-6.959915,6.4215599999999995,0.7595779,998.0281,5.539258348025751,998.0447837276233,0,0
19.46,-7.2466974,6.4549255,0.38082594,998.0352,5.539263753610529,998.0444907423747,0,0
19.48,-7.332731699999999,6.4263262999999995,0.38082618,998.0324,5.539608066515586,998.0441883339367,0,0
19.5,-7.1319729999999995,6.3691273,0.62701595,998.0527,5.539886528176129,998.0439517678392,0,0
19.52,-7.30882,6.2261305,0.70750123,998.04205,5.5401988667058175,998.0437358916707,0,0
19.54,-7.227558,6.3452945,0.371359,998.0249,5.540535065062139,998.0434773342782,0,0
19.56,-7.2123775,6.359573,0.6365626999999999,998.03955,5.54091590080931,998.0432347345627,0,0
19.58,-7.2458167,6.3691059999999995,0.7785965,998.047,5.541421518267764,998.0430339284101,0,0
19.6,-7.035448599999999,6.392937,0.49453753,998.0298,5.541704076587883,998.0428088539512,0,0
19.62,-7.2552813999999985,6.392936,0.6365731,998.0318599999999,5.542145813038509,998.0425705622847,0,0
19.64,-7.097529,6.3595695,0.6413091999999999,998.03723,5.5424367357929345,998.0423407817444,0,0
19.66,-7.2217660000000015,6.4167676,0.39512372,998.03723,5.542837164610419,998.0421193488447,0,0
19.68,-7.0066175,6.283303,0.6555211999999999,998.0538,5.542845183924934,998.0419657410788,0,0
19.7,-7.3220463,6.2308699999999995,0.84963524,998.0171,5.5429589963637875,998.0417404965884,0,0
19.72,-7.1547339999999995,6.3452663000000005,0.650792,998.0618,5.54302738294362,998.0416136847692,0,0
19.74,-7.1499166,6.3786316,0.51349777,998.0364400000001,5.543076599744748,998.0414830085808,0,0
19.76,-7.307612,6.2785325,0.62712693,998.0692,5.543232060345667,998.0414673242695,0,0
19.78,-7.0016475000000025,6.440594,0.6555386,998.05444,5.5432338578885,998.041500167245,0,0
19.8,-7.0016475000000025,6.440594,0.6555386,998.0438,5.5430998722820535,998.041537466696,0,0
19.82,-7.2405996,6.330962,0.56558836,998.05396,5.5430516503046885,998.0416151456106,0,0
19.84,-7.092349499999999,6.3786263,0.55139214,998.05444,5.542913130372944,998.0417299521756,0,0
19.86,-7.121009299999999,6.3118940000000014,0.7218324,998.0413,5.542671105806272,998.0418298474284,0,0
19.88,-7.264384700000001,6.2832947,0.7360374,998.0258,5.542525250707731,998.041860407423,0,0
19.9,-7.0492550000000005,6.4119905999999975,0.5750711,998.04395,5.542285382167484,998.0418949327676,0,0
19.92,-7.0540160000000025,6.307125,0.63188577,998.0635,5.541832453169866,998.042003217604,0,0
19.94,-7.3216276,6.3500233,0.62715656,998.061,5.541667597858219,998.042167286502,0,0
19.96,-7.1017,6.4310529999999995,0.5750833000000001,998.05145,5.541521181059483,998.0423456755493,0,0
19.98,-7.1112404000000025,6.397687,0.38570884,998.11035,5.541340152223,998.0427481156787,0,0
20.0,-7.4601088,6.2117900000000015,-0.45700994,998.1274400000001,5.541430805211818,998.0434086025612,0,0
20.02,-7.660842,6.1927233,0.59876406,998.00604,5.542074052839827,998.0438576818013,0,0
20.04,-6.508852,6.4358163,1.3089298999999999,998.0016,5.541909496525523,998.0441023605632,0,0
20.06,-7.356021000000001,6.450144,-0.06415208,998.0356,5.54214812431333,998.0442879502194,0,0
20.08,-7.1648335,6.4644437,-0.7885164000000001,998.0651,5.542531385284822,998.0445268606187,0,0
20.1,-8.082564,6.1641507,1.2472769,998.00854,5.544202665078634,998.0446084091493,0,0
20.12,-6.9784429999999995,6.407245,0.5560525,998.0184300000001,5.545444933089721,998.0445862231579,0,0
20.14,-7.379956,6.450145,-0.90214497,998.0341,5.547037009567137,998.0445288692126,0,0
20.16,-7.6524134,6.030688,0.90639687,998.0356,5.548812596145408,998.0444460473374,0,0
20.18,-7.231795,6.078354,1.2709457,998.03314,5.550217835346806,998.044332164158,0,0
20.2,-7.188790299999999,6.369114,0.45662677,998.01495,5.551463620127363,998.0441257611898,0,0
20.22,-7.16012,6.3977137000000015,0.36193785,998.0438,5.55255064451133,998.0439422107868,0,0
20.24,-7.293959,6.392947,0.6223297,998.0282,5.553722512946289,998.0437233536916,0,0
20.26,-7.1314545,6.2118177,0.67440736,998.0405,5.554471536007519,998.0435183674894,0,0
20.28,-7.3800135,6.269017,0.41874870000000003,998.02496,5.555282325842035,998.0432704315581,0,0
20.3,-7.040655999999999,6.283317,0.50396717,998.03754,5.555641442612162,998.0430307258156,0,0
20.32,-7.193614,6.2451844,0.38087225,998.03265,5.555774312559266,998.042781551208,0,0
20.34,-7.2462053,6.30715,0.5513096,998.07495,5.55589081898092,998.0426771869412,0,0
20.36,-7.1888520000000025,6.3357496,0.5418404,998.0302,5.555940900362098,998.0425400528012,0,0
20.38,-6.992889,6.383415,0.53237075,998.0351,5.555694315952351,998.0423920968857,0,0
20.4,-7.1601996,6.297618,0.5655099,998.05334,5.555330214816463,998.0423007754898,0,0
20.42,-7.121970699999999,6.459681,0.38086736,998.05286,5.555009566841441,998.0422580971124,0,0
20.44,-7.107640299999999,6.3977156,0.42347619999999997,998.0373,5.554623829422139,998.0422025373488,0,0
20.46,-7.141107000000001,6.383416,0.57024187,998.0651,5.554229672915331,998.042235875607,0,0
20.48,-7.026401,6.3977165000000005,0.3903337,998.0498699999999,5.553653791784525,998.0422928161399,0,0
20.5,-7.241501299999999,6.4167830000000015,0.61284995,998.05725,5.553302147640648,998.0423969746566,0,0
20.52,-7.064653,6.4358487,0.6223183000000001,998.05035,5.552904731454391,998.0425176400133,0,0
20.54,-6.906923299999999,6.5168815,0.32405043,998.03265,5.552311815668921,998.0425887364183,0,0
20.56,-6.9736633,6.4358444000000015,0.5560525,998.0373,5.5515571400348795,998.0426325177507,0,0
20.58,-6.8924080000000005,6.397712,0.43295786,998.052,5.550471341500321,998.042704925872,0,0
20.6,-6.6677575,6.3405137,0.6128651999999999,998.0405,5.548696833664605,998.0427609679547,0,0
20.62,-7.432528,6.121251999999999,0.3288007,998.02527,5.547178148146777,998.0427475192548,0,0
20.64,-7.2317777,6.421545,0.82117873,998.0405,5.546040232619907,998.042727544914,0,0
20.66,-7.303476299999999,6.6980057,0.19150276,998.02,5.545669994270768,998.0426280764248,0,0
20.68,-6.5482683,6.8076367,0.48977014,998.0422,5.545037605360626,998.0425386449924,0,0
20.7,-6.500471,6.483511,0.8117095999999999,998.0459,5.543673620271101,998.0424717242572,0,0
20.72,-6.9067554000000015,6.149852,0.7217558000000001,998.0429,5.541791060970045,998.0424141348877,0,0
20.74,-6.887637599999999,6.078353400000001,0.39981616,998.05286,5.539288379162589,998.0424008540357,0,0
20.76,-7.150529,6.4072455999999995,0.48976970000000003,998.0479,5.537117218367636,998.0424089160001,0,0
20.78,-7.150529,6.4072455999999995,0.48976970000000003,998.01245,5.535246805718193,998.0423081874542,0,0
20.8,-6.90676,6.51211,0.5371136,998.0397300000001,5.533428936465181,998.0422099022363,0,0
20.82,-6.5626163,6.3214483,0.68861437,998.03265,5.530895275140673,998.0420886417695,0,0
20.84,-6.8494062000000016,6.0545206,0.59392613,998.0381,5.5277861367059264,998.041967136911,0,0
20.86,-7.3608465,5.954423,0.47083148,998.0307,5.524841420812352,998.041819213525,0,0
20.88,-7.069279700000001,6.3071480000000015,0.35247126,998.0312,5.5220548008439145,998.0416502792523,0,0
20.9,-6.538723,6.38818,0.7501611,998.0577,5.518776892123162,998.0415587879236,0,0
20.92,-6.4765863,6.288082599999999,0.8022395,998.05286,5.514849083433403,998.0415186305493,0,0
20.94,-6.510046,6.08312,0.6791449,998.0282,5.5100974664558064,998.0414352004233,0,0
20.96,-7.074064,5.8638587,0.5749878,998.0381,5.505197733305721,998.0413494748424,0,0
20.98,-7.1075240000000015,5.9734898,0.24357939999999997,998.07294,5.500353452461266,998.0413874536097,0,0
21.0,-6.4526925,6.278549,0.5749876,998.0685,5.495022674372648,998.0415186168152,0,0
21.02,-6.4765925000000015,6.2213507,0.7264884,998.0388,5.489257151402022,998.0416247256031,0,0
21.04,-6.777722,5.8686256,0.5087056999999999,998.0208,5.483065602926676,998.0416435143162,0,0
21.06,-6.777722,5.8686256,0.5087056999999999,998.0735,5.476519907889877,998.0417747993716,0,0
21.08,-6.8151727,5.935338,0.5703251,998.0388,5.469841934620922,998.0418800935686,0,0
21.1,-6.5474887000000015,5.9448705,0.5939985,998.0685,5.4626725544176065,998.0420689631842,0,0
21.12,-6.6000229999999975,6.016368,0.5797992,998.0414400000001,5.455273209376099,998.0422335841092,0,0
21.14,-6.8198647,5.9687019999999995,0.43303534,998.0464,5.447954516106046,998.0423940422555,0,0
21.16,-6.791156299999999,6.035433,0.608211,998.05115,5.440801198831655,998.0425673445217,0,0
21.18,-6.5186787000000015,6.1450624000000005,0.49932235,998.0662,5.433542464207765,998.0428055519636,0,0
21.2,-6.681147999999999,5.978232,0.6602960999999999,998.0538,5.4262524353091255,998.0430556120724,0,0
21.22,-6.781510000000001,5.8972,0.6224221999999999,998.0489,5.419000293742667,998.0432976049808,0,0
21.24,-6.7384619999999975,5.9686980000000025,0.38097024,998.0268599999999,5.4118105181809195,998.0434522545372,0,0
21.26,-6.7001800000000005,6.035429,0.93963397,998.0587,5.404819515964627,998.0436437947684,0,0
21.28,-6.504194,6.1021605,0.73605597,998.0766,5.397784840364626,998.0439316820557,0,0
21.3,-6.5424175,6.1831913,0.40464896,998.0964,5.390866068237548,998.0443749452072,0,0
21.32,-6.594950999999999,5.9067300000000005,0.7218581000000001,998.0662,5.383808050845602,998.0448451827257,0,0
21.34,-6.7908945,5.906729,0.48040609999999995,998.0815,5.376923313520777,998.0453926419383,0,0
21.36,-6.805204400000001,5.9782267,0.49461198,998.08905,5.370338084226026,998.0460335433884,0,0
21.38,-6.604423,6.0830903,0.5514275,998.0872,5.3638838139958676,998.0467480431532,0,0
21.4,-6.633087599999999,6.0926230000000015,0.6129760999999999,998.0839,5.357633902538801,998.0475131221898,0,0
21.42,-6.504004,6.0163574,0.75027645,998.081,5.3513049578225,998.0483096987867,0,0
21.44,-6.785983,5.930559,0.32418272,998.1063,5.345191780450903,998.0492223189524,0,0
21.46,-6.628206,6.0115894999999995,0.7502831999999999,998.12103,5.339211469779034,998.0502872177824,0,0
21.48,-6.742892299999999,6.211784,0.3952055,998.11395,5.333779204098065,998.0514573484044,0,0
21.5,-6.828914,6.1879506,0.6129895000000001,998.1089999999999,5.328973961110561,998.052698429368,0,0
21.52,-6.7428484,6.1450510000000005,0.66033614,998.1038,5.324554980525012,998.0539790141617,0,0
21.54,-6.632869199999999,6.140283,0.61773056,998.1093,5.320312371218484,998.0553096944344,0,0
21.56,-6.791596000000001,6.064043,0.5844986999999999,998.1063,5.316373518527947,998.0566690486232,0,0
21.58,-6.944561,6.0592760000000006,0.73599863,998.1191,5.312971084003293,998.0580949254097,0,0
21.6,-6.9684772,6.3309703,0.69338745,998.1271,5.310459554204901,998.0596032484063,0,0
21.62,-6.5813246,6.378637,-0.1966817,998.1123,5.308176602951031,998.0611257109123,0,0
21.64,-7.398682000000001,6.1879745,-0.20615155,998.14136,5.307101878441009,998.062759802223,0,0
21.66,-6.433173,6.202274299999999,0.92063564,998.16364,5.305718333194626,998.0645668540171,0,0
21.68,-6.557453999999999,6.1307764,1.1668242,998.1536,5.304210554108847,998.0664840843083,0,0
21.7,-7.197959399999999,6.121243499999999,0.8732901,998.1263,5.303505830976729,998.0683934862897,0,0
21.72,-7.035457000000001,6.2880730000000025,0.48506787,998.13635,5.303428707248837,998.07032527733,0,0
21.74,-7.097606,6.5168686,0.7880688,998.1361699999999,5.304362392740956,998.0722692488946,0,0
21.76,-6.8347225000000025,6.469203,0.9016939,998.1487400000001,5.305741347757337,998.0742622368733,0,0
21.78,-6.763037,6.3023734000000005,0.6649725999999999,998.1561,5.307122854242752,998.0763178569985,0,0
21.8,-6.86821,6.087879,0.5229389,998.1610000000001,5.3083448405184015,998.0784390586557,0,0
21.82,-7.088086,5.949649,0.47559434,998.1563,5.309574319212157,998.0805936518292,0,0
21.84,-7.647335000000001,6.2308764000000005,0.35249877,998.1635,5.312061987937124,998.0827959132102,0,0
21.86,-6.700951,6.3214417,0.68390554,998.18335,5.31433641719337,998.0851038260793,0,0
21.88,-7.594786,6.526403,1.2709707000000001,998.1610000000001,5.318194604573828,998.0874163241162,0,0
21.9,-6.600598,6.4406056,0.29094788,998.1659,5.321635754074483,998.089742188615,0,0
21.92,-6.5384660000000006,6.316675,0.39510423,998.18616,5.324432234675956,998.0921444266072,0,0
21.94,-8.058455,6.149846,1.3893281000000002,998.1856,5.329001625940808,998.0946034841612,0,0
21.96,-6.748806,6.793331599999999,0.58447784,998.2033,5.333794677948039,998.097167614873,0,0
21.98,-6.3520937,6.712300999999999,0.40930378,998.2111,5.338054945150242,998.0998434373564,1,3
22.0,-7.6617770000000025,6.164147,0.8259299000000001,998.21515,5.3431130221029,998.102622897728,1,3
22.02,-7.4419119999999985,6.192746,0.7359756,998.2212,5.348527887475881,998.1055057064807,1,3
22.04,-7.2650704,6.3357434,0.7691155,998.2284,5.354157074100812,998.1084953757512,1,3
22.06,-7.2940807,6.607444999999999,0.79749155,998.2111,5.360378998299745,998.111506424166,1,3
22.08,-6.916488,6.721842999999999,0.5607701999999999,998.2452,5.36665939367883,998.1146482834184,1,3
22.1,-6.9404235,6.535948,0.8211591999999999,998.2279699999999,5.372777204890313,998.1178323884333,1,3
22.12,-7.1698785,6.202289599999999,0.40926373,998.2581,5.378563632423044,998.1211508270261,1,3
22.14,-7.5331674,6.345287,0.74540424,998.23724,5.38484388877694,998.1245009203894,1,3
22.16,-7.4567027,6.3643537000000014,0.8874353000000001,998.21515,5.391467064652076,998.127787399572,1,3
22.18,-6.8449116,6.574082400000001,0.25302288,998.2624,5.397642859675108,998.131175937939,1,3
22.2,-7.174742,6.6646475999999994,0.90636855,998.26526,5.404108750527903,998.1346527530636,1,3
22.22,-6.7780547,6.5597844,0.66017616,998.2827,5.410020344088818,998.1382578369968,1,3
22.24,-7.0552955000000015,6.354822599999999,1.0483962,998.2867,5.415623324156276,998.1419776809468,1,3
22.26,-7.1031175000000015,6.326224,1.0389252,998.2624,5.420965470939142,998.1456980554098,1,3
22.28,-7.165279400000001,6.4739876,1.1620176000000002,998.2722,5.426386384162941,998.1494407852856,1,3
22.3,-7.0314684000000005,6.5264206,0.6080899999999999,998.2923,5.431621094498608,998.1532621545767,1,3
22.32,-7.3326205999999985,6.316693,1.019981,998.29645,5.43691985408136,998.1571541927262,1,3
22.34,-7.002826,6.2976265,1.185684,998.29254,5.441758494183342,998.1610805865413,1,3
22.36,-6.7304015,6.6026864000000005,1.0957282,998.2869999999999,5.446171935521165,998.1650032580043,1,3
22.38,-7.084142999999999,6.65512,0.78798854,998.2916,5.4507340653022185,998.1689250787808,1,3
22.4,-6.845165,6.721852,0.6932993000000001,998.2919300000001,5.455134705162168,998.1728332173348,1,3
22.42,-7.437908,6.4787589999999975,1.0341719999999999,998.3042,5.459998757625135,998.1767593689788,1,3
22.44,-6.443733,6.707554300000001,0.49444777,998.33014,5.46400018997694,998.1807806868433,1,3
22.46,-6.443733,6.707554300000001,0.49444777,998.2968,5.467225006042056,998.1847515928357,1,3
22.48,-7.017358,6.559792,0.8211171999999999,998.3096,5.47043083577294,998.1887097396362,1,3
22.5,-7.017358,6.559792,0.8211171999999999,998.32434,5.473608348191863,998.1926954270863,1,3
22.52,-6.5394015,6.636057400000001,0.57492596,998.3288,5.476112255002189,998.1967071569801,1,3
22.54,-7.0843234,6.378664,0.7122215000000001,998.3460699999999,5.478479556162824,998.2007896277487,1,3
22.56,-7.5811660000000005,6.4072566,0.8590116,998.3664,5.481556853680448,998.2049930962604,1,3
22.58,-7.0171684999999995,6.8028812000000025,1.0531204,998.3417400000001,5.4849736213666445,998.2091995698904,1,3
22.6,-7.2179265,6.7552166,1.1998864,998.3358,5.488945065228101,998.2133721715387,1,3
22.62,-6.6730413,6.7599835000000015,0.80219525,998.34644,5.4925071581827245,998.2175381265373,1,3
22.64,-6.9216104000000005,6.5597887,1.0152417,998.3539,5.4958142696962735,998.2217100671184,1,3
22.66,-7.194072,6.4787574,0.28614226,998.3460699999999,5.499082643558888,998.2258440895745,1,3
22.68,-7.1606193,6.555022,0.48498666,998.3539,5.502376478424038,998.229957913094,1,3
22.7,-6.8212660000000005,6.5216565000000015,0.7311745,998.3818,5.505152093683376,998.2341395190688,1,3
22.72,-6.8451843,6.4310922999999995,0.6222814999999999,998.3829300000001,5.507350429917016,998.2383700318394,1,3
22.74,-7.1558905,6.216598,0.5607325,998.39496,5.5092027464868325,998.2426718368088,1,3
22.76,-7.1558905,6.216598,0.5607325,998.39496,5.510742651742039,998.2470211490677,1,3
22.78,-7.375774400000001,6.249964,0.825858,998.4125,5.512431723602519,998.2514599252428,1,3
22.8,-6.964723599999999,6.712320299999999,0.86373204,998.415,5.514263916819667,998.25597077214,1,3
22.82,-6.5823584,6.821951400000001,0.5181188,998.4301,5.515764277842915,998.2605834216788,1,3
22.84,-6.682740700000001,6.688488499999999,0.6270095,998.4032599999999,5.516928025055547,998.2651727944933,1,3
22.86,-7.2372174,6.173701,0.26719299999999996,998.4097,5.517874992551489,998.2697482622516,1,3
22.88,-7.4953384000000005,6.2309,0.5275840999999999,998.4426,5.519135819382376,998.2744134118193,1,3
22.9,-7.0269312999999975,6.431095,0.6222711,998.4296,5.52022175155573,998.2790942096943,1,3
22.92,-7.0269312999999975,6.431095,0.6222711,998.4367699999999,5.521149237453868,998.283797795542,1,3
22.94,-6.859657,6.4739947,0.80217665,998.4549,5.521767978631182,998.2885698519333,1,3
22.96,-6.936153,6.4501624,0.4612978,998.4568,5.52214641406001,998.2933920694933,1,3
22.98,-7.0652137,6.4549294,0.6790799,998.472,5.522541791489501,998.2982959694792,1,3
23.0,-7.199061,6.6360589999999995,0.66487545,998.4494,5.523407082908473,998.3031730300163,1,3
23.02,-6.7306523,6.8553205,0.5938583000000001,998.47687,5.524293562814821,998.3081077097992,1,3
23.04,-7.1178365,6.5454946,0.8353111999999999,998.49677,5.525362770999596,998.3131471771001,1,3
23.06,-7.1178365,6.5454946,0.8353111999999999,998.4744,5.5265895887417305,998.3181805605697,1,3
23.08,-6.9068173999999996,6.540711,0.7312189,998.4712,5.527607283248337,998.3231789281853,1,3
23.1,-6.8351054000000016,6.4787455000000005,0.5181720999999999,998.4834599999999,5.528211031131389,998.3281724976688,1,3
23.12,-7.236594,6.316682,0.7643625,998.49854,5.528871048838463,998.3331981386727,1,3
23.14,-7.274825,6.3309812999999995,0.8685200999999999,998.5133,5.5296758535040045,998.3382871617647,1,3
23.16,-6.921104,6.707539,0.88272476,998.5106,5.530596380079732,998.3434041487864,1,3
23.18,-6.925861,6.6598725000000005,0.39508316,998.5005,5.531487181176797,998.3484910635832,1,3
23.2,-7.0788074000000005,6.602674,0.4708343,998.53,5.532504486363258,998.3536392936688,1,3
23.22,-7.193492,6.3881783,0.8069798,998.53546,5.533552539065727,998.358842824315,1,3
23.24,-6.844550999999999,6.435843,0.94901335,998.5155,5.534184532528293,998.3640046298268,1,3
23.26,-6.844550999999999,6.435843,0.94901335,998.5227,5.534446620870018,998.3691369045093,1,3
23.28,-7.241252,6.264247,0.8543273000000001,998.535,5.534734074957063,998.3742688895627,1,3
23.3,-7.265143400000001,6.302379,1.0200323,998.5126,5.535165382403503,998.3793015035533,1,3
23.32,-7.097835000000001,6.574072999999999,0.7407037,998.51526,5.5357869968340845,998.3842377718628,1,3
23.34,-6.8397026,6.7123027,0.5844705,998.56476,5.536362611612213,998.3892493385623,1,3
23.36,-6.9878616,6.4263086,0.9206146000000001,998.56476,5.5367648696488665,998.394309397279,1,3
23.38,-7.093002,6.4549074,1.0105697,998.56476,5.5372316614225685,998.3993940873312,1,3
23.4,-7.102554,6.421541,0.9206167,998.5816699999999,5.537703323212322,998.4045431127464,1,3
23.42,-6.7440534,6.7361336,0.56080335,998.5694,5.53803036206062,998.4096862763976,1,3
23.44,-6.8683057000000005,6.369108,0.4140389,998.5793,5.537870208679348,998.4148413852048,1,3
23.46,-7.0212509999999995,6.383407,0.30514824,998.5688,5.537525593559325,998.4199506903602,1,3
23.48,-7.1741977,6.292843,0.39983705,998.5692,5.537138169535388,998.4250025699102,1,3
23.5,-6.839588000000001,6.9410940000000005,0.47558963,998.5816699999999,5.53714018462206,998.4300304134288,1,3
23.52,-6.91605,7.026891,0.10157304,998.59406,5.537701849998452,998.4350635224736,1,3
23.54,-6.7009362999999995,6.874361500000001,0.6365629,998.5913,5.538259388047342,998.4400732289447,1,3
23.56,-6.620051400000001,6.745673,0.6412633000000001,998.5932,5.5385038490199205,998.4450510619583,1,3
23.58,-7.174508,6.4263144,0.6507321,998.591,5.538846145244577,998.449974891386,1,3
23.6,-7.174508,6.4263144,0.6507321,998.6112699999999,5.539273656431559,998.4549062494592,1,3
23.62,-7.0167747,6.5216449999999995,0.32879257,998.61536,5.539632378655238,998.4598412309548,1,3
23.64,-6.9163985,6.5407114,0.39033982,998.62103,5.539808833185632,998.464782060173,1,3
23.66,-7.1649485,6.364349,0.69334173,998.6156,5.539992207229552,998.4696907214534,1,3
23.68,-7.0884714,6.3929480000000005,0.50396556,998.6026,5.540077806719699,998.4745064879636,1,3
23.7,-7.3895993,6.3023834,0.63652885,998.6223,5.540438833007144,998.4792937558952,1,3
23.72,-6.6248307,6.7266073,0.5891848000000001,998.6401400000001,5.540473526351393,998.4841028323184,1,3
23.74,-7.0072149999999995,6.502578700000001,0.42348066,998.6401400000001,5.540447070601496,998.4889138660492,1,3
23.76,-6.964197,6.588377,0.41874629999999996,998.62964,5.540422875424485,998.4936715095364,1,3
23.78,-6.9163985,6.5645440000000015,0.51816875,998.6469,5.540304819963518,998.4984269858876,1,3
23.8,-7.337021400000001,6.502578700000001,0.41401187,998.6541,5.540650483122501,998.5031893476418,1,3
23.82,-7.059792999999999,6.5502443,0.6507321,998.6546599999999,5.541071814114988,998.5079426648364,1,3
23.84,-6.8016834,6.6455755000000005,0.68860734,998.6377,5.5413126823744205,998.5126098223164,1,3
23.86,-7.1792880000000014,6.483512999999999,0.51343435,998.6665,5.54171124299637,998.5172877273053,1,3
23.88,-6.835141999999999,6.636042599999999,0.15361959,998.669,5.541916504222836,998.5219672883348,1,3
23.9,-7.083692,6.545478299999999,0.5939191999999999,998.6817599999999,5.54223126560154,998.5266774022227,1,3
23.92,-6.691748,6.512112,0.22463568,998.6838,5.541970399196462,998.531404900206,1,3
23.94,-7.236645699999999,6.4406137,0.24830769,998.6795,5.541930817879841,998.5361152597833,1,3
23.96,-6.9450774000000015,6.6741753,0.40927747,998.66864,5.541983048687529,998.5407544225708,1,3
23.98,-6.902059599999999,6.7885723,0.52290314,998.6917,5.5422291197592175,998.5453969908883,1,3
24.0,-6.7777850000000015,6.855303999999999,0.32879257,998.69604,5.542542964698083,998.5500414790863,1,3
24.02,-6.629610499999999,6.7266073,0.3666678,998.7231400000001,5.542511980301382,998.5547685035338,1,3
24.04,-7.1984070000000004,6.288084,0.25777649999999996,998.6983,5.542404897624378,998.5594620157226,1,3
24.06,-7.3512005999999985,6.483509,0.55605865,998.7261,5.542763117045618,998.5642090998359,1,3
24.08,-6.6820216,6.740903,0.27199495,998.7280000000001,5.542861570549157,998.5689932705992,1,3
24.1,-7.0166016,6.6265054,0.29566756,998.7156,5.543063058730185,998.5737483481114,1,3
24.12,-7.1121940000000015,6.5264072,0.35721514,998.72296,5.543362848176273,998.578487096548,1,3
24.14,-6.868415400000001,6.516875,0.38562244,998.73285,5.5433670134165025,998.5832299611193,1,3
24.16,-6.9974630000000015,6.569306399999999,0.42823264,998.7305,5.543383343279149,998.587950928394,1,3
24.18,-7.078717,6.5311737,0.3714201,998.7299,5.543475025418543,998.592633391736,1,3
24.2,-7.069147599999999,6.5645394,0.5607970999999999,998.72406,5.543684441419182,998.5972439521346,1,3
24.22,-6.9209710000000015,6.6026716,0.48978135,998.7294300000001,5.543819381688464,998.6017937130753,1,3
24.24,-6.8875055,6.569306,0.37615624,998.7471,5.543779229452512,998.6063369844752,1,3
24.26,-7.1503882,6.412008999999999,0.63654906,998.7466,5.543792032242035,998.6108563659401,1,3
24.28,-7.2220826,6.3738766,0.49925159999999996,998.7819,5.54389331225463,998.615465448485,1,3
24.3,-7.2268558,6.345276999999999,0.41876729999999995,998.76184,5.544032643715909,998.6200649822072,1,3
24.32,-6.9878564,6.6551029999999995,0.3335489,998.7442,5.5442661538386275,998.6245760162683,1,3
24.34,-6.82056,6.702769,0.30040833,998.7835699999999,5.544398837470687,998.6291343443061,1,3
24.36,-6.935269,6.497806,0.34301859999999995,998.8003,5.544322076967242,998.6337782793207,1,3
24.38,-7.179028999999999,6.4406075,0.35722268,998.7638,5.544354531353,998.638349738494,1,3
24.4,-6.9543724000000005,6.569304499999999,0.26726952,998.7609,5.54431501024202,998.642830260761,1,3
24.42,-7.016503999999999,6.388175,0.2293949,998.8091,5.544048722894512,998.6473878212973,1,3
24.44,-6.9639190000000015,6.3405094,0.36195879999999997,998.79285,5.543444198071643,998.6519385456306,1,3
24.46,-7.2268023,6.3262095,0.30514655,998.7901,5.542926419253873,998.6564569468873,1,3
24.48,-7.293712599999999,6.593136299999999,0.17731817,998.81256,5.542953069652894,998.6610113772286,1,3
24.5,-6.8969827000000015,6.7266,0.44717982,998.813,5.54306760753692,998.6655828309204,1,3
24.52,-6.9017589999999975,6.640801400000001,0.19152229,998.7978,5.543124861950981,998.6700981492113,1,3
24.54,-7.140740400000001,6.1832123,0.4377122000000001,998.8249,5.542873903388172,998.6746451711156,1,3
24.56,-7.1700729999999995,6.1069629999999995,0.34296420000000005,998.7973,5.542286416611608,998.6791044770545,1,3
24.58,-7.4329925,6.340525599999999,0.27667978,998.8445,5.542129653283523,998.6836401436644,1,3
24.6,-6.974152,6.7313833,0.19619305,998.8294,5.542189697618053,998.6881725941639,1,3
24.62,-6.8355474,6.7409167000000005,0.32875540000000003,998.88385,5.542256296601144,998.6928819060864,1,3
24.64,-6.9980910000000005,6.3452934999999995,0.13937648,998.8746,5.541999302448193,998.697697239239,1,3
24.66,-7.313578999999999,6.106966000000001,0.49918935,998.8691,5.541651836754227,998.7025691175514,1,3
24.68,-7.313578999999999,6.106966000000001,0.49918935,998.8318,5.541225681283112,998.7073391404052,1,3
24.7,-7.036390299999999,6.602689,0.20565256,998.8664,5.540960674998436,998.7121265516932,1,3
24.72,-7.012511999999999,6.6312884999999975,0.1725099,998.8810000000001,5.540842296743406,998.7169646527212,1,3
24.74,-7.1033382,6.521658,0.27666584,998.8831,5.540841726178106,998.7218376860396,1,3
24.76,-7.117698,6.3071632000000015,0.22458555,998.88043,5.5406660668685666,998.7267144306102,1,3
24.78,-7.2372336,6.4215620000000015,0.06834648,998.9031,5.5406749685725165,998.7316585101628,1,3
24.8,-7.2372336,6.4215620000000015,0.06834648,998.908,5.540846916341853,998.7366619282184,1,3
24.82,-7.1798964000000005,6.5121269999999996,0.13462628,998.9055,5.541200744025927,998.7416907654707,1,3
24.84,-7.1273284,6.578859,0.31926712,998.90356,5.5417360027379905,998.7467169753115,1,3
24.86,-6.8788089999999995,6.5788600000000015,0.30979556,998.9225,5.542052748878225,998.7517909532156,1,3
24.88,-7.1512785,6.4549303,0.24824643,998.9323,5.542411015551503,998.7569241526602,1,3
24.9,-7.165638,6.435864,0.21510375,998.9141,5.542798688344936,998.7620256807396,1,3
24.92,-6.936238,6.4882965,0.10147524,998.9018599999999,5.542929223576776,998.7670367945004,1,3
24.94,-7.0270649999999995,6.5216629999999975,0.12041193,998.92725,5.543017922174785,998.7720413821588,1,3
24.96,-7.1561494,6.3882008,0.4754895000000001,998.94214,5.54310392936323,998.777075790838,1,3
24.98,-7.4238386,6.407267,0.43761239999999996,998.9518400000001,5.54362735795829,998.7821533455,1,3
25.0,-6.8502827,6.7838254000000004,0.25296876,998.94934,5.544177900685325,998.7872417447555,1,3
25.02,-6.730797999999999,6.812425,0.33818709999999996,998.98425,5.544622480070058,998.7924470840566,1,3
25.04,-6.92679,6.588397500000001,0.2861068,998.9508,5.5449329791826045,998.7976165923603,1,3
25.06,-7.356484,6.1260295,0.5181372999999999,998.9837,5.545172215461962,998.8028542701652,1,3
25.08,-7.356484,6.1260295,0.5181372999999999,998.9656,5.54534762265131,998.8080681669007,1,3
25.1,-7.332585000000001,6.2404265,0.33349556,998.9657599999999,5.545564007872613,998.8132428566556,1,3
25.12,-6.983658999999999,6.712316,0.4897309,998.99854,5.545949730602603,998.8184822822387,1,3
