Timestamp,Ax,Ay,Az,P,Value,Type
0.0,4.0253553,6.1115464999999976,8.693157000000001,1002.903,0,0
0.04,2.8734276000000003,5.191600299999998,10.979875,1002.9684,0,0
0.08,3.131541,5.820786,9.010364,1002.961,0,0
0.12,2.1708038,5.925650599999999,9.190271,1002.89594,0,0
0.16,2.9018364,6.3403480000000005,9.483778,1002.9213,0,0
0.2,3.1455984,6.840836500000001,10.549019,1002.987,0,0
0.24,2.094034,5.611065,10.298096,1002.967,0,0
0.28,2.25654,6.2211843,9.067149,1002.9119,0,0
0.32,1.888488,6.0686550000000015,10.84255,1002.9142,0,0
0.36,4.001154,6.5357775999999985,14.156632,1002.9996,0,0
0.4,4.2401366,6.7169065,9.9998255,1002.91223,0,0
0.44,3.96768,6.111554,9.341742,1002.8645,0,0
0.48,1.8024218,4.8913160000000016,6.112877,1002.8246,0,0
0.52,-0.63528585,4.2907294999999985,0.10491696,1002.73413,0,0
0.56,-1.1371715,3.4422827000000007,0.5357472,1002.762,0,0
0.6,-5.725792,1.6786572,0.27061978,1002.80756,0,0
0.64,-7.604262400000001,0.84927666,-1.9924263,1002.81006,0,0
0.68,-9.076448,1.3020997,-3.7015474,1002.8076,0,0
0.72,-10.180591,2.1314807,-3.2754512000000005,1002.88074,0,0
0.76,-9.607021,2.660569,-1.8077868,1002.86084,0,0
0.8,-8.263905000000001,4.3669962999999985,-1.1828459999999998,1002.8784,0,0
0.84,-7.867189999999999,4.3288636,-0.32591942,1002.92896,0,0
0.88,-8.082288,4.4384947,-0.2927792,1002.8913,0,0
0.92,-8.235249000000001,4.910384,-0.96033096,1002.91144,0,0
0.96,-10.175856,3.9380066,1.3453233999999998,1002.8915,0,0
1.0,-8.937894,4.2764324999999985,-1.5805393,1002.8739,0,0
1.04,-8.378666,4.443262,-1.2254597,1002.8461,0,0
1.08,-8.302196499999999,4.7435555,-0.94613045,1002.8691,0,0
1.12,-7.910260000000001,5.0295489999999985,-0.7993646,1002.8718,0,0
1.16,-8.212867,4.95332,-1.0078138,1002.8592,0,0
1.2,-8.002614999999999,4.8436910000000015,-0.74269265,1002.89935,0,0
1.24,-9.298013,4.152542,-1.3108277,1002.90717,0,0
1.28,-9.360218,3.7664526,-0.74743974,1002.9047,0,0
1.32,-9.154749,3.6806564,-0.27400506,1002.89716,0,0
1.36,-8.968404,3.9618845,-0.29294878,1002.9124,0,0
1.4,-8.686459,3.9189873,-0.35450178,1002.87964,0,0
1.44,-8.949413999999997,3.971421,-0.9084334,1002.8804,0,0
1.48,-8.896904,3.9142241,-0.434999,1002.91046,0,0
1.52,-8.820495,4.00479,-0.042049564000000005,1002.91046,0,0
1.56,-8.681948,4.038158,-0.6149187,1002.9133,0,0
1.6,-8.801506,3.9952607,-1.0031457,1002.91833,0,0
1.64,-8.901947999999997,4.1811576,-1.0220895,1002.8932,0,0
1.68,-8.734717,4.1668596,-1.6849118000000003,1002.9058,0,0
1.72,-9.11717,4.109662,-1.3819162,1002.9137,0,0
1.76,-9.0072975,4.305092299999999,-0.90374696,1002.89343,0,0
1.8,-8.687118,4.386126,-1.3724591999999998,1002.9316,0,0
1.84,-8.691965,4.510058,-0.79960245,1002.8859,0,0
1.88,-8.758944999999999,4.5338926,-0.49187183,1002.90393,0,0
1.92,-8.257137,4.490995,-0.6102385,1002.8785,0,0
1.96,-8.969396000000003,4.176404,-0.8659024,1002.9217,0,0
2.0,-8.802164999999997,4.2717366,-0.6102505,1002.89386,0,0
2.04,-8.486765,4.4290347,-0.7712263,1002.8943,0,0
2.08,-8.553749,4.7293296,-1.3204235,1002.9345,0,0
2.12,-8.33872,4.657832,-0.84225434,1002.90936,0,0
2.16,-8.577564,4.7483935,-0.34039393,1002.9295,0,0
2.2,-8.529825,4.457635,-0.93693423,1002.90186,0,0
2.24,-8.620691,4.2479076,-0.50610816,1002.8868,0,0
2.28,-8.572952,4.4481044,-0.25519000000000003,1002.87427,0,0
2.32,-9.218287,4.433806,-0.26466453,1002.8842,0,0
2.36,-8.663885,4.462407,-1.1973473,1002.8795,0,0
2.4,-8.836017,4.271746,-1.0458516,1002.897,0,0
2.44,-8.764378,4.524375,-0.6718390000000001,1002.9101,0,0
2.48,-8.343809,4.5005435999999985,-1.14055,1002.8975,0,0
2.52,-8.807508,4.6149426,-0.98905444,1002.8876,0,0
2.56,-8.621155,4.5148462999999985,-0.89910614,1002.8925,0,0
2.6,-8.874542,4.362318,-0.61031276,1002.8924,0,0
2.64,-8.549571,4.376619,-0.57244253,1002.8877,0,0
2.68,-8.430133999999999,4.3289547,-0.8186369000000001,1002.89014,0,0
2.72,-8.511446000000001,4.419521,-0.6292656999999999,1002.92285,0,0
2.76,-8.683578,4.328957599999999,-0.95594496,1002.87756,0,0
2.8,-8.850925,4.281294,-1.0837789,1002.8954,0,0
2.84,-9.018276,4.257462,-0.81865764,1002.90533,0,0
2.88,-8.530797999999999,4.433826,-0.89914817,1002.88763,0,0
2.92,-8.602547,4.4576597,-0.5914165,1002.90027,0,0
2.96,-8.72688,4.3909297,-0.7003132,1002.88275,0,0
3.0,-9.15712,4.114471,-0.5630208000000001,1002.9007,0,0
3.04,-8.827373,4.21457,-0.690855,1002.8752,0,0
3.08,-8.588436,4.3146687,-0.8612985999999999,1002.90326,0,0
3.12,-8.813146000000003,4.4481335,-0.47781715,1002.89575,0,0
3.16,-8.540384,4.5672903,-0.43991336,1002.9133,0,0
3.2,-8.650360000000001,4.3623295,-0.34049448,1002.89044,0,0
3.24,-8.965873,4.2669997,-0.8186737,1002.9184,0,0
3.28,-8.626544,4.2527003,-0.78080183,1002.9161,0,0
3.32,-8.497533,4.343266000000002,-0.7476649000000001,1002.89343,0,0
3.36,-8.884739999999997,4.2860684,-0.6009023,1002.8883,0,0
3.4,-8.860882,4.3051357,-0.68612534,1002.9111,0,0
3.44,-8.564578,4.4433669999999985,-0.8281613999999999,1002.9111,0,0
3.48,-8.789274,4.352803700000001,-0.55357015,1002.9136,0,0
3.52,-8.865791,4.319439,-0.45888576,1002.9211,0,0
3.56,-8.612505,4.228875,-0.69087553,1002.924,0,0
3.6,-9.095307,4.04298,-0.33579913,1002.89343,0,0
3.64,-8.646046,4.076348,-0.6719456,1002.9215,0,0
3.68,-8.521814,4.295610400000001,-1.1548588,1002.9035,0,0
3.72,-8.679591,4.252712,-0.5157181,1002.9162,0,0
3.76,-8.818249,4.4862742,-0.28373614,1002.9186,0,0
3.8,-8.684458,4.8819,-0.37842822,1002.8936,0,0
3.84,-8.4072695,5.020131,-0.42104155,1002.8886,0,0
3.88,-8.326056,4.8151703,-0.8850171,1002.89343,0,0
3.92,-8.488613,4.452913,-1.1690855,1002.9215,0,0
3.96,-8.426513,4.3289833,-0.5630851,1002.9162,0,0
4.0,-8.679889,4.281318700000001,-0.87556,1002.88617,0,0
4.04,-9.114896,4.209821,-0.84242326,1002.924,0,0
4.08,-9.014558,4.295621,-0.73353547,1002.8859,0,0
4.12,-8.598758,4.3623533,-0.8992435999999999,1002.9113,0,0
4.16,-8.646596,4.4338527,-0.33111873,1002.9315,0,0
4.2,-8.721629,4.653078599999999,-0.22682956,1002.9213,0,0
4.24,-8.195834,4.7913084,-0.8375663000000001,1002.90894,0,0
4.28,-8.568644,4.648311,-0.733408,1002.89874,0,0
4.32,-8.678564999999999,4.5720462999999985,-0.34045106,1002.90375,0,0
4.36,-8.477797500000001,4.5196137,-0.88017184,1002.89386,0,0
4.4,-9.05136,4.4719477,-0.9227802,1002.9039,0,0
4.44,-8.798016,4.624477,-0.7476058000000001,1002.8884,0,0
4.48,-8.563791,4.653076,-0.4824778,1002.8911,0,0
4.52,-8.171831,4.7770066,-0.8659631999999999,1002.919,0,0
4.56,-8.506402,4.74364,-0.8564930000000001,1002.89136,0,0
4.6,-8.396452,4.5577440000000005,-0.5487553000000001,1002.8961,0,0
4.64,-8.55417,4.5672765,-0.6718485,1002.91156,0,0
4.68,-8.778806,4.467179,-0.9701146,1002.919,0,0
4.72,-8.6210575,4.586342299999999,-0.9133003,1002.9113,0,0
4.76,-8.554125,4.614941,-0.96537745,1002.9263,0,0
4.8,-8.56845,4.634007,-0.9606418,1002.924,0,0
4.84,-8.530197,4.5339093,-1.0742662,1002.8909,0,0
4.88,-8.644896000000001,4.5768075,-0.752325,1002.8961,0,0
4.92,-8.573185,4.6197066,-0.76179254,1002.8936,0,0
4.96,-8.472795,4.7150370000000015,-0.88962024,1002.9036,0,0
5.0,-8.745227,4.572039599999999,-0.70971125,1002.9138,0,0
5.04,-8.472764999999999,4.8151345,-1.0316497,1002.8961,0,0
5.08,-8.568344999999999,4.657837000000002,-0.9748353,1002.9113,0,0
5.12,-8.58745,4.6244707,-0.72391057,1002.901,0,0
5.16,-8.520517,4.5720387,-1.0269111,1002.9035,0,0
5.2,-8.522963,4.462468,-0.84249306,1002.8907,0,0
5.24,-8.652094,4.519668599999998,-0.76201516,1002.86536,0,0
5.28,-8.470542,4.5721025,-0.9987428,1002.9213,0,0
5.32,-8.848228,4.5816374,-0.8614526,1002.8884,0,0
5.36,-8.513722,4.605472,-1.0650394,1002.9009,0,0
5.4,-8.652417999999999,4.6293073,-0.9466867,1002.9111,0,0
5.44,-8.489985,4.638842,-0.8378028000000001,1002.90607,0,0
5.48,-8.117237,4.7055760000000015,-1.0035139000000002,1002.91595,0,0
5.52,-8.528381,4.5768805,-1.164491,1002.9033,0,0
5.56,-8.834366000000003,4.4910846,-0.8993715,1002.9135,0,0
5.6,-8.409042999999999,4.5339856,-0.9230509,1002.91583,0,0
5.64,-8.75327,4.538754,-0.8757143000000001,1002.8907,0,0
5.68,-8.863282,4.653153400000001,-0.8709869,1002.9083,0,0
5.72,-8.375824,4.6626887,-0.7668374,1002.90826,0,0
5.76,-8.6244545,4.4720283,-0.53485894,1002.91077,0,0
5.8,-8.466797,4.4720297,-0.91835266,1002.8856,0,0
5.84,-8.552914999999999,4.610262400000001,-1.1456116000000005,1002.9008,0,0
5.88,-8.806326,4.4863334,-1.0556653,1002.89557,0,0
5.92,-8.619994,4.634099,-1.1124855,1002.90814,0,0
5.96,-8.758685,4.438672,-0.79055303,1002.9008,0,0
6.0,-8.801784,4.6150365,-0.73848206,1002.893,0,0
6.04,4.0253553,6.1115464999999976,8.693157000000001,1002.903,0,0
6.08,2.8734276000000003,5.191600299999998,10.979875,1002.9684,0,0
6.12,3.131541,5.820786,9.010364,1002.961,0,0
6.16,2.1708038,5.925650599999999,9.190271,1002.89594,0,0
6.2,2.9018364,6.3403480000000005,9.483778,1002.9213,0,0
6.24,3.1455984,6.840836500000001,10.549019,1002.987,0,0
6.28,2.094034,5.611065,10.298096,1002.967,0,0
6.32,2.25654,6.2211843,9.067149,1002.9119,0,0
6.36,1.888488,6.0686550000000015,10.84255,1002.9142,0,0
6.4,4.001154,6.5357775999999985,14.156632,1002.9996,0,0
6.44,4.2401366,6.7169065,9.9998255,1002.91223,0,0
6.48,3.96768,6.111554,9.341742,1002.8645,0,0
6.52,1.8024218,4.8913160000000016,6.112877,1002.8246,0,0
6.56,-0.63528585,4.2907294999999985,0.10491696,1002.73413,0,0
6.6,-1.1371715,3.4422827000000007,0.5357472,1002.762,0,0
6.64,-5.725792,1.6786572,0.27061978,1002.80756,0,0
6.68,-7.604262400000001,0.84927666,-1.9924263,1002.81006,0,0
6.72,-9.076448,1.3020997,-3.7015474,1002.8076,0,0
6.76,-10.180591,2.1314807,-3.2754512000000005,1002.88074,0,0
6.8,-9.607021,2.660569,-1.8077868,1002.86084,0,0
6.84,-8.263905000000001,4.3669962999999985,-1.1828459999999998,1002.8784,0,0
6.88,-7.867189999999999,4.3288636,-0.32591942,1002.92896,0,0
6.92,-8.082288,4.4384947,-0.2927792,1002.8913,0,0
6.96,-8.235249000000001,4.910384,-0.96033096,1002.91144,0,0
7.0,-10.175856,3.9380066,1.3453233999999998,1002.8915,0,0
7.04,-8.937894,4.2764324999999985,-1.5805393,1002.8739,0,0
7.08,-8.378666,4.443262,-1.2254597,1002.8461,0,0
7.12,-8.302196499999999,4.7435555,-0.94613045,1002.8691,0,0
7.16,-7.910260000000001,5.0295489999999985,-0.7993646,1002.8718,0,0
7.2,-8.212867,4.95332,-1.0078138,1002.8592,0,0
7.24,-8.002614999999999,4.8436910000000015,-0.74269265,1002.89935,0,0
7.28,-9.298013,4.152542,-1.3108277,1002.90717,0,0
7.32,-9.360218,3.7664526,-0.74743974,1002.9047,0,0
7.36,-9.154749,3.6806564,-0.27400506,1002.89716,0,0
7.4,-8.968404,3.9618845,-0.29294878,1002.9124,0,0
7.44,-8.686459,3.9189873,-0.35450178,1002.87964,0,0
7.48,-8.949413999999997,3.971421,-0.9084334,1002.8804,0,0
7.52,-8.896904,3.9142241,-0.434999,1002.91046,0,0
7.56,-8.820495,4.00479,-0.042049564000000005,1002.91046,0,0
7.6,-8.681948,4.038158,-0.6149187,1002.9133,0,0
7.64,-8.801506,3.9952607,-1.0031457,1002.91833,0,0
7.68,-8.901947999999997,4.1811576,-1.0220895,1002.8932,0,0
7.72,-8.734717,4.1668596,-1.6849118000000003,1002.9058,0,0
7.76,-9.11717,4.109662,-1.3819162,1002.9137,0,0
7.8,-9.0072975,4.305092299999999,-0.90374696,1002.89343,0,0
7.84,-8.687118,4.386126,-1.3724591999999998,1002.9316,0,0
7.88,-8.691965,4.510058,-0.79960245,1002.8859,0,0
7.92,-8.758944999999999,4.5338926,-0.49187183,1002.90393,0,0
7.96,-8.257137,4.490995,-0.6102385,1002.8785,0,0
8.0,-8.969396000000003,4.176404,-0.8659024,1002.9217,0,0
8.04,-8.802164999999997,4.2717366,-0.6102505,1002.89386,0,0
8.08,-8.486765,4.4290347,-0.7712263,1002.8943,0,0
8.12,-8.553749,4.7293296,-1.3204235,1002.9345,0,0
8.16,-8.33872,4.657832,-0.84225434,1002.90936,0,0
8.2,-8.577564,4.7483935,-0.34039393,1002.9295,0,0
8.24,-8.529825,4.457635,-0.93693423,1002.90186,0,0
8.28,-8.620691,4.2479076,-0.50610816,1002.8868,0,0
8.32,-8.572952,4.4481044,-0.25519000000000003,1002.87427,0,0
8.36,-9.218287,4.433806,-0.26466453,1002.8842,0,0
8.4,-8.663885,4.462407,-1.1973473,1002.8795,0,0
8.44,-8.836017,4.271746,-1.0458516,1002.897,0,0
8.48,-8.764378,4.524375,-0.6718390000000001,1002.9101,0,0
8.52,-8.343809,4.5005435999999985,-1.14055,1002.8975,0,0
8.56,-8.807508,4.6149426,-0.98905444,1002.8876,0,0
8.6,-8.621155,4.5148462999999985,-0.89910614,1002.8925,0,0
8.64,-8.874542,4.362318,-0.61031276,1002.8924,0,0
8.68,-8.549571,4.376619,-0.57244253,1002.8877,0,0
8.72,-8.430133999999999,4.3289547,-0.8186369000000001,1002.89014,0,0
8.76,-8.511446000000001,4.419521,-0.6292656999999999,1002.92285,0,0
8.8,-8.683578,4.328957599999999,-0.95594496,1002.87756,0,0
8.84,-8.850925,4.281294,-1.0837789,1002.8954,0,0
8.88,-9.018276,4.257462,-0.81865764,1002.90533,0,0
8.92,-8.530797999999999,4.433826,-0.89914817,1002.88763,0,0
8.96,-8.602547,4.4576597,-0.5914165,1002.90027,0,0
9.0,-8.72688,4.3909297,-0.7003132,1002.88275,0,0
9.04,-9.15712,4.114471,-0.5630208000000001,1002.9007,0,0
9.08,-8.827373,4.21457,-0.690855,1002.8752,0,0
9.12,-8.588436,4.3146687,-0.8612985999999999,1002.90326,0,0
9.16,-8.813146000000003,4.4481335,-0.47781715,1002.89575,0,0
9.2,-8.540384,4.5672903,-0.43991336,1002.9133,0,0
9.24,-8.650360000000001,4.3623295,-0.34049448,1002.89044,0,0
9.28,-8.965873,4.2669997,-0.8186737,1002.9184,0,0
9.32,-8.626544,4.2527003,-0.78080183,1002.9161,0,0
9.36,-8.497533,4.343266000000002,-0.7476649000000001,1002.89343,0,0
9.4,-8.884739999999997,4.2860684,-0.6009023,1002.8883,0,0
9.44,-8.860882,4.3051357,-0.68612534,1002.9111,0,0
9.48,-8.564578,4.4433669999999985,-0.8281613999999999,1002.9111,0,0
9.52,-8.789274,4.352803700000001,-0.55357015,1002.9136,0,0
9.56,-8.865791,4.319439,-0.45888576,1002.9211,0,0
9.6,-8.612505,4.228875,-0.69087553,1002.924,0,0
9.64,-9.095307,4.04298,-0.33579913,1002.89343,0,0
9.68,-8.646046,4.076348,-0.6719456,1002.9215,0,0
9.72,-8.521814,4.295610400000001,-1.1548588,1002.9035,0,0
9.76,-8.679591,4.252712,-0.5157181,1002.9162,0,0
9.8,-8.818249,4.4862742,-0.28373614,1002.9186,0,0
9.84,-8.684458,4.8819,-0.37842822,1002.8936,0,0
9.88,-8.4072695,5.020131,-0.42104155,1002.8886,0,0
9.92,-8.326056,4.8151703,-0.8850171,1002.89343,0,0
9.96,-8.488613,4.452913,-1.1690855,1002.9215,0,0
10.0,-8.426513,4.3289833,-0.5630851,1002.9162,0,0
10.04,-8.679889,4.281318700000001,-0.87556,1002.88617,0,0
10.08,-9.114896,4.209821,-0.84242326,1002.924,0,0
10.12,-9.014558,4.295621,-0.73353547,1002.8859,0,0
10.16,-8.598758,4.3623533,-0.8992435999999999,1002.9113,0,0
10.2,-8.646596,4.4338527,-0.33111873,1002.9315,0,0
10.24,-8.721629,4.653078599999999,-0.22682956,1002.9213,0,0
10.28,-8.195834,4.7913084,-0.8375663000000001,1002.90894,0,0
10.32,-8.568644,4.648311,-0.733408,1002.89874,0,0
10.36,-8.678564999999999,4.5720462999999985,-0.34045106,1002.90375,0,0
10.4,-8.477797500000001,4.5196137,-0.88017184,1002.89386,0,0
10.44,-9.05136,4.4719477,-0.9227802,1002.9039,0,0
10.48,-8.798016,4.624477,-0.7476058000000001,1002.8884,0,0
10.52,-8.563791,4.653076,-0.4824778,1002.8911,0,0
10.56,-8.171831,4.7770066,-0.8659631999999999,1002.919,0,0
10.6,-8.506402,4.74364,-0.8564930000000001,1002.89136,0,0
10.64,-8.396452,4.5577440000000005,-0.5487553000000001,1002.8961,0,0
10.68,-8.55417,4.5672765,-0.6718485,1002.91156,0,0
10.72,-8.778806,4.467179,-0.9701146,1002.919,0,0
10.76,-8.6210575,4.586342299999999,-0.9133003,1002.9113,0,0
10.8,-8.554125,4.614941,-0.96537745,1002.9263,0,0
10.84,-8.56845,4.634007,-0.9606418,1002.924,0,0
10.88,-8.530197,4.5339093,-1.0742662,1002.8909,0,0
10.92,-8.644896000000001,4.5768075,-0.752325,1002.8961,0,0
10.96,-8.573185,4.6197066,-0.76179254,1002.8936,0,0
11.0,-8.472795,4.7150370000000015,-0.88962024,1002.9036,0,0
11.04,-8.745227,4.572039599999999,-0.70971125,1002.9138,0,0
11.08,-8.472764999999999,4.8151345,-1.0316497,1002.8961,0,0
11.12,-8.568344999999999,4.657837000000002,-0.9748353,1002.9113,0,0
11.16,-8.58745,4.6244707,-0.72391057,1002.901,0,0
11.2,-8.520517,4.5720387,-1.0269111,1002.9035,0,0
11.24,-8.522963,4.462468,-0.84249306,1002.8907,0,0
11.28,-8.652094,4.519668599999998,-0.76201516,1002.86536,0,0
11.32,-8.470542,4.5721025,-0.9987428,1002.9213,0,0
11.36,-8.848228,4.5816374,-0.8614526,1002.8884,0,0
11.4,-8.513722,4.605472,-1.0650394,1002.9009,0,0
11.44,-8.652417999999999,4.6293073,-0.9466867,1002.9111,0,0
11.48,-8.489985,4.638842,-0.8378028000000001,1002.90607,0,0
11.52,-8.117237,4.7055760000000015,-1.0035139000000002,1002.91595,0,0
11.56,-8.528381,4.5768805,-1.164491,1002.9033,0,0
11.6,-8.834366000000003,4.4910846,-0.8993715,1002.9135,0,0
11.64,-8.409042999999999,4.5339856,-0.9230509,1002.91583,0,0
11.68,-8.75327,4.538754,-0.8757143000000001,1002.8907,0,0
11.72,-8.863282,4.653153400000001,-0.8709869,1002.9083,0,0
11.76,-8.375824,4.6626887,-0.7668374,1002.90826,0,0
11.8,-8.6244545,4.4720283,-0.53485894,1002.91077,0,0
11.84,-8.466797,4.4720297,-0.91835266,1002.8856,0,0
11.88,-8.552914999999999,4.610262400000001,-1.1456116000000005,1002.9008,0,0
11.92,-8.806326,4.4863334,-1.0556653,1002.89557,0,0
11.96,-8.619994,4.634099,-1.1124855,1002.90814,0,0
12.0,-8.758685,4.438672,-0.79055303,1002.9008,0,0
12.04,-8.801784,4.6150365,-0.73848206,1002.893,0,0
12.08,-8.343003999999999,4.629338,-0.6580045999999999,1002.9057,0,0
12.12,-8.596415499999999,4.2527823,-0.72429365,1002.8954,0,0
12.16,-8.711205999999999,4.2527843,-1.1409283,1002.8929,0,0
12.2,-8.706508,4.276619,-1.1077948999999998,1002.903,0,0
12.24,-8.540973,4.4004755,-1.1595966999999998,1002.89514,0,0
12.28,-8.526595,4.405241,-1.4247199,1002.87756,0,0
12.32,-8.846801,4.328974700000002,-0.8660563,1002.89514,0,0
12.36,-8.612547,4.381406,-1.2495393,1002.87006,0,0
12.4,-8.574274,4.5196357,-0.9749405,1002.88257,0,0
12.44,-8.9040365,4.6244984,-0.55830896,1002.9027,0,0
12.48,-8.206145,4.8723583,-0.6529933000000001,1002.87256,0,0
12.52,-8.574149,4.7198277000000015,-0.66245836,1002.9127,0,0
12.56,-8.249088,4.7960916,-1.0080667,1002.8773,0,0
12.6,-8.550175,4.734125,-1.079079,1002.88763,0,0
12.64,-8.770004,4.6673927000000015,-0.72872937,1002.87994,0,0
12.68,-8.507074000000001,4.662625299999998,-1.306323,1002.86975,0,0
12.72,-8.659985,4.705523,-0.66717446,1002.905,0,0
12.76,-8.669507000000001,4.5863585,-0.4588572,1002.8924,0,0
12.8,-8.205826,4.6578555,-0.7145113000000001,1002.87726,0,0
12.84,-8.678986,4.5577574,-0.7855236999999999,1002.90515,0,0
12.88,-8.564236,4.653087,-0.5630034,1002.8799,0,0
12.92,-8.511616,4.581588,-0.5298588000000001,1002.90015,0,0
12.96,-8.6740885,4.6530848,-0.7334345,1002.89996,0,0
13.0,-8.39204,4.738882,-0.8375877,1002.89996,0,0
13.04,-8.482819000000001,4.7055154,-0.6008640000000001,1002.8901,0,0
13.08,-8.630951,4.734113,-0.6813452,1002.8975,0,0
13.12,-8.645247,4.6912136,-0.51090264,1002.90497,0,0
13.16,-8.559174,4.6101813,-0.6339937,1002.9203,0,0
13.2,-8.726426,4.3432527,-0.5582395,1002.895,0,0
13.24,-8.407239,4.505342,-0.80925995,1002.88715,0,0
13.28,-8.756166,4.448143,-0.64829034,1002.86957,0,0
13.32,-8.679692,4.4624434,-0.7335099,1002.892,0,0
13.36,-8.52196,4.557774,-0.90394866,1002.86945,0,0
13.4,-8.536303,4.538707700000002,-0.8518705,1002.8845,0,0
13.44,-8.827873,4.4624440000000005,-0.6293536999999999,1002.90967,0,0
13.48,-8.555427,4.5863733,-0.8755429,1002.90216,0,0
13.52,-8.512411,4.715071,-0.9939033000000002,1002.9097,0,0
13.56,-8.464616,4.5911403,-0.9844347,1002.89215,0,0
13.6,-8.502857,4.5196424,-0.9512941,1002.87445,0,0
13.64,-8.689272,4.333746400000001,-0.7524493,1002.9147,0,0
13.68,-8.751411000000001,4.2288823,-0.582011,1002.87933,0,0
13.72,-8.717955,4.357579,-0.82820034,1002.89966,0,0
13.76,-8.6653805,4.5005755,-0.62462115,1002.9172,0,0
13.8,-8.641483000000001,4.6578727,-0.6624965,1002.9046,0,0
13.84,-8.627147,4.6578727,-0.6198871,1002.8817,0,0
13.88,-8.521993,4.719837999999998,-0.79032594,1002.8993,0,0
13.92,-8.498096,4.610207599999999,-0.68143487,1002.9019,0,0
13.96,-8.727530499999999,4.624507,-0.6435598000000001,1002.8791,0,0
14.0,-8.679734,4.6292734000000015,-0.8424050999999999,1002.8791,0,0
14.04,-8.751434,4.600674,-0.8092645,1002.91693,0,0
14.08,-8.397731,4.5291758,-0.6530294,1002.8843,0,0
14.12,-8.306917,4.5816089999999985,-0.6530296,1002.92194,0,0
14.16,-8.689304,4.4481444,-0.4257784000000001,1002.8993,0,0
14.2,-8.526793,4.457678,-0.71457726,1002.92444,0,0
14.24,-8.995216000000003,4.209817,-0.5962174,1002.8968,0,0
14.28,-8.579377000000001,4.295615,-0.6672336999999999,1002.8893,0,0
14.32,-8.689314,4.4910440000000005,-0.66723394,1002.8968,0,0
14.36,-8.522022999999999,4.6483407,-0.85187596,1002.8841,0,0
14.4,-8.717998,4.681706,-0.57254636,1002.9169,0,0
14.44,-8.50291,4.6674066,-0.59148407,1002.8843,0,0
14.48,-8.674985000000001,4.5434766,-0.738251,1002.90424,0,0
14.52,-8.583453,4.390929,-0.76185745,1002.8813,0,0
14.56,-8.487836,4.3432627,-0.7571210999999999,1002.9169,0,0
14.6,-8.702910000000001,4.3337297,-0.8991519,1002.8963,0,0
14.64,-8.784147,4.4862585,-0.89914995,1002.92694,0,0
14.68,-8.396964,4.84375,-0.6718967,1002.91187,0,0
14.72,-8.277449,4.7913175,-0.8896776,1002.87354,0,0
14.76,-8.368246000000001,4.9200144,-0.7807844,1002.91144,0,0
14.8,-8.29175,4.805616400000001,-1.1690040000000002,1002.89655,0,0
14.84,-8.850969000000003,4.552988,-0.6198113000000001,1002.88385,0,0
14.88,-8.793591000000001,4.5291553,-0.9748899,1002.88885,0,0
14.92,-8.458984,4.543454,-1.0411695,1002.8915,0,0
14.96,-8.573682000000002,4.4862547,-0.8944014000000001,1002.90643,0,0
15.0,-8.511524,4.557753,-0.75236744,1002.9141,0,0
15.04,-8.54974,4.49102,-0.8233813,1002.92145,0,0
15.08,-8.607080999999999,4.6626163,-0.989084,1002.88104,0,0
15.12,-8.587945,4.6101837,-1.0222235,1002.88617,0,0
15.16,-8.65962,4.634016,-0.90859574,1002.8911,0,0
15.2,-8.549665,4.8389773,-0.6576704000000001,1002.90125,0,0
15.24,-8.368015,4.9629073,-1.2163286,1002.9392,0,0
15.28,-8.554407000000001,4.939074,-0.8849184000000001,1002.89624,0,0
15.32,-8.554389,4.6483135,-0.5203675999999999,1002.9086,0,0
15.36,-8.26758,4.6530795,-0.69553876,1002.8961,0,0
15.4,-8.869815,4.481483,-0.5582391,1002.9036,0,0
15.44,-8.630807,4.5291486,-0.6387223000000001,1002.9036,0,0
15.48,-8.473053,4.595879599999999,-0.75708044,1002.91113,0,0
15.52,-8.597866999999999,4.662625,-1.026991,1002.90125,0,0
15.56,-8.473596,4.7579556,-0.9180999,1002.8709,0,0
15.6,-8.401900999999999,4.657858,-0.9181001,1002.88855,0,0
15.64,-8.660012,4.5386940000000005,-0.79027146,1002.9036,0,0
15.68,-8.616997999999999,4.4481297,-0.63403636,1002.891,0,0
15.72,-8.894228,4.495795200000001,-0.6008956999999999,1002.8983,0,0
15.76,-8.487947,4.724591,-0.7666002,1002.89856,0,0
15.8,-8.425813,4.700757,-0.9985862,1002.8807,0,0
15.84,-8.564428999999999,4.7102904,-0.8802263000000001,1002.9058,0,0
15.88,-8.617009,4.667392,-0.77133524,1002.8907,0,0
15.92,-8.425819,4.829455,-0.6056313,1002.8932,0,0
15.96,-8.464061000000001,4.7150574,-0.6766476,1002.89575,0,0
16.0,-8.597897999999999,4.719824,-0.6151005999999999,1002.8909,0,0
16.04,-8.468845,4.6292589999999985,-0.72399205,1002.8806,0,0
16.08,-8.851233,4.505329,-0.7239923,1002.8678,0,0
16.12,-8.636144999999999,4.595894,-0.86129034,1002.8907,0,0
16.16,-8.483191999999999,4.78179,-0.84235287,1002.8907,0,0
16.2,-8.454516,4.6816916,-0.82815,1002.9234,0,0
16.24,-8.4354,4.6530924,-0.69085246,1002.9003,0,0
16.28,-8.884705,4.376632,-0.4920077000000001,1002.898,0,0
16.32,-8.765211,4.519629,-0.68611854,1002.8752,0,0
16.36,-8.521443,4.552995,-0.8565573000000001,1002.90326,0,0
16.4,-8.349373,4.619726999999999,-0.71925974,1002.9131,0,0
16.44,-8.392394,4.5482287,-0.8139481,1002.8854,0,0
16.48,-8.698305,4.3575664000000005,-0.81394833,1002.90546,0,0
16.52,-8.626706,4.4624333,-0.8423639,1002.90045,0,0
16.56,-8.67451,4.519632,-0.79975474,1002.8776,0,0
16.6,-8.59804,4.6006637,-0.88970906,1002.90015,0,0
16.64,-8.664962,4.7293606,-0.6813956999999999,1002.88776,0,0
16.68,-8.569372999999999,4.60543,-0.8707726,1002.90546,0,0
16.72,-8.645855000000001,4.5672984,-0.5535679,1002.9055,0,0
16.76,-8.555046,4.4243016,-0.7382103,1002.87256,0,0
16.8,-8.755805,4.395702,-0.66719484,1002.88495,0,0
16.84,-8.650655,4.3909364,-0.91811883,1002.88745,0,0
16.88,-8.770157000000001,4.552999,-0.76661855,1002.895,0,0
16.92,-8.54551,4.695996,-0.7145405,1002.87994,0,0
16.96,-8.559857000000001,4.8246927,-0.6387906999999999,1002.862,0,0
17.0,-8.44037,4.8008604,-0.44468075,1002.89215,0,0
17.04,-8.54553,4.5244,-0.6009166,1002.89734,0,0
17.08,-8.622014,4.586366,-0.8518406999999999,1002.88464,0,0
17.12,-8.459507,4.638798,-0.8187004,1002.8771,0,0
17.16,-8.512091,4.614965,-0.72401285,1002.882,0,0
17.2,-8.588573,4.533934,-0.75715435,1002.887,0,0
17.24,-8.550343,4.6340322,-0.8471085999999999,1002.89215,0,0
17.28,-8.708081,4.4767356,-0.6529984999999999,1002.887,0,0
17.32,-8.736766000000001,4.5863667,-0.4872949,1002.87427,0,0
17.36,-8.493003,4.614966000000001,-0.6387965,1002.8871,0,0
17.4,-8.363955,4.657865,-0.9228613,1002.89435,0,0
17.44,-8.593391,4.643565,-0.7003448,1002.9021,0,0
17.48,-8.569498,4.529169,-0.9986129,1002.8793,0,0
17.52,-8.745102000000001,4.457639,-0.9795609,1002.9071,0,0
17.56,-8.692484,4.4910045,-0.87066597,1002.86945,0,0
17.6,-8.300497,4.734098,-1.031632,1002.9019,0,0
17.64,-8.64938,4.529135,-0.9085334,1002.90186,0,0
17.68,-8.510725,4.7626953,-1.1026402,1002.88135,0,0
17.72,-8.486786,4.5624986,-1.3724976,1002.8767,0,0
17.76,-8.601458000000001,4.529132,-1.4009,1002.8764,0,0
17.8,-8.386322999999999,4.576796,-1.505053,1002.8868,0,0
17.84,-8.300241,4.686426,-1.2683287,1002.88666,1,1
17.88,-8.238063,4.672126,-1.2635905,1002.88916,1,1
17.92,-8.386192999999999,4.9724174,-1.2588522,1002.8992,1,1
17.96,-8.280994999999999,4.9581165,-1.3677393999999998,1002.8738,1,1
18.0,-8.366991,4.9295163,-1.1688908000000002,1002.90906,1,1
18.04,-8.472101,4.5863233,-1.2114962,1002.89136,1,1
18.08,-8.49596,4.500523599999998,-1.2209613,1002.8788,1,1
18.12,-8.591516,4.271728,-1.0694567,1002.8763,1,1
18.16,-8.677505499999999,4.2478943,-0.89427954,1002.89636,1,1
18.2,-8.586649000000001,4.004799,-0.6433524,1002.88635,1,1
18.24,-8.4193125,4.0715303,-0.33561215,1002.9014,1,1
18.28,-9.313093,3.8046017,-0.5960004,1002.8837,1,1
18.32,-10.116056,4.0095625,-0.48237076,1002.91394,1,1
18.36,-9.79577,4.4147186,0.028948642000000007,1002.9164,1,1
18.4,-9.054859,5.0057707,0.3082822,1002.8958,1,1
18.44,-9.093052,4.9104385000000015,-0.07993479,1002.8859,1,1
18.48,-8.65805,4.6768765,-0.7143413000000001,1002.88116,1,1
18.52,-7.9747224,4.057228,-0.46343467,1002.88367,1,1
18.56,-7.9699063,3.504307,-0.018397335,1002.90125,1,1
18.6,-7.52535,3.7617004,-0.16042635,1002.8984,1,1
18.64,-7.6065745,4.3289194,0.09050006,1002.90356,1,1
18.68,-7.9602460000000015,4.9581040000000005,0.77225745,1002.9085,1,1
18.72,-7.931534299999999,5.8208504,1.0894655,1002.92395,1,1
18.76,-8.495517,6.330871,1.1794223999999998,1002.8882,1,1
18.8,-8.892206,7.083986,1.454021,1002.8958,1,1
18.84,-8.519346,7.083985,0.61130005,1002.89075,1,1
18.88,-8.959055000000003,5.882812,-0.54862595,1002.8628,1,1
18.92,-9.480022,4.5624747,-1.3297999,1002.878,1,1
18.96,-8.810815,5.0105309999999985,-2.4707882000000003,1002.8553,1,1
19.0,-8.806001,4.715003500000001,-0.95577556,1002.8755,1,1
19.04,-8.805966,4.1001167,-0.33083102,1002.8726,1,1
19.08,-8.265817,3.5662617999999995,-0.50600106,1002.88513,1,1
19.12,-7.4914565,3.790289,-1.4244726,1002.86035,1,1
19.16,-7.0707994,3.8713195,-2.0825517,1002.88544,1,1
19.2,-7.854653999999999,4.25741,-1.3771223,1002.86536,1,1
19.24,-7.687328,4.471904,-1.6091052,1002.8802,1,1
19.28,-8.098355999999999,4.7102309999999985,-1.3487098,1002.8752,1,1
19.32,-8.040965,5.5872765,-1.4670668,1002.8777,1,1
19.36,-8.676644999999999,5.935234,-1.3913132,1002.8345,1,1
19.4,-9.866784,6.125896,-0.8989322,1002.86505,1,1
19.44,-10.588498,6.3022575,-0.13668970000000005,1002.9003,1,1
19.48,-10.320797,6.025796400000001,0.6255524,1002.8824,1,1
19.52,-8.523877,5.496716,0.48349392,1002.8824,1,1
19.56,-7.1568317,5.4776487000000005,0.5971218,1002.8851,1,1
19.6,-6.936939,5.6540112,0.6255301999999999,1002.89246,1,1
19.64,-7.175909,5.3108187,1.0184876,1002.8902,1,1
19.68,-7.5534919999999985,4.662566,1.1037089,1002.87476,1,1
19.72,-7.5008940000000015,4.996224400000001,2.0269196,1002.87976,1,1
19.76,-7.161505,5.401381,0.8101797,1002.87714,1,1
19.8,-7.9931693,5.5825095000000005,1.0563707,1002.8494,1,1
19.84,-6.8555546000000005,6.550120400000001,1.1415919,1002.87225,1,1
19.88,-5.0583290000000005,7.188838499999999,0.6160748,1002.8698,1,1
19.92,-6.8124943,6.654984,0.71076494,1002.85425,1,1
19.96,-9.32665,5.9685992999999975,0.9853624,1002.88965,1,1
20.0,-10.655415,6.392822,-0.5201765,1002.8467,1,1
20.04,-9.149756,7.141171000000001,-0.59119064,1002.8542,1,1
20.08,-8.925083,6.8599440000000005,0.32728586,1002.8821,1,1
20.12,-7.883066,5.5110072999999975,-1.1735184,1002.8846,1,1
20.16,-6.4204235,5.172581,-3.2187793,1002.8165,1,1
20.2,-8.542634,4.3146010000000015,-0.5154323000000001,1002.85394,1,1
20.24,-7.916459,4.6911583,-0.44914865,1002.8969,1,1
20.28,-6.635452000000001,4.900886,-2.4233935,1002.8542,1,1
20.32,-7.572272,4.667324,-1.3581504999999998,1002.8741,1,1
20.36,-7.371498599999999,4.610125,-0.6763942,1002.9044,1,1
20.4,-6.664067299999999,4.619658,-1.3060683000000002,1002.8738,1,1
20.44,-8.394333999999999,4.8103194,-1.5096457,1002.8384,1,1
20.48,-9.135182,5.205943,-0.25502646,1002.8788,1,1
20.52,-8.199247999999999,5.9590816,0.057361193,1002.9094,1,1
20.56,-9.6571045,6.888560000000001,1.1083976,1002.8762,1,1
20.6,-11.392188,6.9886584,2.5192487,1002.88116,1,1
20.64,-8.352247,6.888561,0.25146762,1002.8663,1,1
20.68,-7.836044999999999,6.626401,0.7722507,1002.8536,1,1
20.72,-7.649647,5.982916,1.8753656000000003,1002.90125,1,1
20.76,-6.497729,5.830386,0.48818374,1002.8483,1,1
20.8,-7.793072,5.2822328,0.73910576,1002.85596,1,1
20.84,-8.075094,5.0677385,1.0231688,1002.8533,1,1
20.88,-7.0856905,5.444297,0.6822902,1002.86847,1,1
20.92,-6.97099,5.711224,1.364043,1002.87335,1,1
20.96,-7.3820686,5.501496,0.9663516,1002.8886,1,1
21.0,-7.8074856,5.248869,0.64441085,1002.8886,1,1
21.04,-8.835156,5.3680334,0.73436326,1002.871,1,1
21.08,-9.375291,5.9114213,-0.72856927,1002.8631,1,1
21.12,-11.019556,5.711226,-0.9652907,1002.8302,1,1
21.16,-9.690786,6.5501404,-1.0221049999999998,1002.83514,1,1
21.2,-6.3688383,5.5968294,-1.9737217,1002.86804,1,1
21.24,-6.875514,3.966668,-0.87060696,1002.8528,1,1
21.28,-7.864947,3.8618033,-0.15571305,1002.8704,1,1
21.32,-8.615391,3.8618038,-0.5676076999999999,1002.87537,1,1
21.36,-9.298919,3.8046057,-1.1594098,1002.86304,1,1
21.4,-8.433788,3.9142373,-1.462413,1002.86053,1,1
21.44,-7.449165,4.6053877,-1.4150703000000002,1002.8425,1,1
21.48,-7.439619500000001,4.481457700000001,-1.0789287,1002.8653,1,1
21.52,-7.729732,4.2621603,-1.6137834,1002.8704,1,1
21.56,-8.088171,4.6291842,-1.5096222,1002.8552,1,1
21.6,-9.426476,4.7483473,-1.3107736,1002.8653,1,1
21.64,-9.851838,5.4585633,-1.3060353999999998,1002.90576,1,1
21.68,-8.924509,6.0972805,-1.0030293,1002.8424,1,1
21.72,-9.904329,5.444261599999999,0.60193753,1002.8851,1,1
21.76,-10.334471,4.6005797,0.80078626,1002.8798,1,1
21.8,-7.8441477,4.4766483,-0.1508249,1002.8499,1,1
21.84,-8.350764,4.6196437,0.7676536,1002.8522,1,1
21.88,-8.747446,4.919935700000001,1.2126913,1002.8723,1,1
21.92,-8.087791000000001,5.2106949999999985,-0.33545512,1002.8625,1,1
21.96,-7.614547999999999,5.1296625,-1.1355655,1002.8573,1,1
22.0,-7.485452,4.643472,0.14272739999999998,1002.85706,1,1
22.04,-7.1269217000000005,4.0619516,0.31317016,1002.8899,1,1
22.08,-7.886867,3.5852947,-0.13185991,1002.8698,1,1
22.12,-7.705194500000001,4.4242077,0.024379157,1002.84216,1,1
22.16,-7.733833,5.5443473,0.8623725,1002.85724,1,1
22.2,-8.235667999999999,6.1973650000000005,0.37946716,1002.8547,1,1
22.24,-8.928699499999997,6.826549000000001,-0.472722,1002.85443,1,1
22.28,-10.013669,6.354659,-0.49165544,1002.8799,1,1
22.32,-9.306217,6.0543647000000025,-1.4480015,1002.83936,1,1
22.36,-10.295592999999998,5.234516,-0.4253661,1002.86676,1,1
22.4,-8.168538999999999,4.8627234,-0.29279882,1002.8416,1,1
22.44,-6.825373,4.805524,-1.0739719,1002.857,1,1
22.48,-8.421783999999999,4.562428,-0.99348307,1002.8617,1,1
22.52,-9.995352,4.1763625,-0.9414974,1002.8667,1,1
22.56,-8.155128,4.524321,-1.5759075,1002.85675,1,1
22.6,-6.075911,4.848446400000001,-1.9783318,1002.86414,1,1
22.64,-6.415276,4.905645,-1.4244063,1002.8539,1,1
22.68,-6.649485,4.676851,-1.3202493,1002.8718,1,1
22.72,-7.5050690000000015,4.409923,-1.6895328,1002.8464,1,1
22.76,-8.083424,4.3908567000000005,-1.8268301,1002.8717,1,1
22.8,-8.408449000000001,4.7292824,-1.4007337,1002.83887,1,1
22.84,-8.102541,5.4347330000000005,-1.3770616000000002,1002.879,1,1
22.88,-9.096738,5.7493258,-1.3817959999999998,1002.8564,1,1
22.92,-9.698992,6.4929085,-1.14981,1002.85114,1,1
22.96,-10.588035,7.036296000000001,-0.1603193,1002.8688,1,1
23.0,-10.368163,6.7074037,0.014853805,1002.85895,1,1
23.04,-8.69045,6.2688804000000005,0.332059,1002.8816,1,1
23.08,-6.4535007,6.049618700000001,0.79129636,1002.8764,1,1
23.12,-6.6685905,6.059152,0.85757816,1002.89136,1,1
23.16,-7.318642999999999,5.820824,0.18055841,1002.86615,1,1
23.2,-7.696246,5.3680005,-0.12244337,1002.8738,1,1
23.24,-8.011711,5.8398900000000005,0.83864087,1002.8813,1,1
23.28,-7.1704655,6.4357095,0.5072327,1002.86115,1,1
23.32,-6.4200344000000005,6.616839,-0.40650728,1002.8584,1,1
23.36,-7.146564,6.2355137,-0.1839902,1002.86865,1,1
23.4,-7.8491936,5.420432599999999,0.057464562,1002.8634,1,1
23.44,-9.412188,4.95331,-0.27394366,1002.86316,1,1
23.48,-9.646398,5.0009755999999985,-0.7757904999999999,1002.8433,1,1
23.52,-8.140789,5.2631373,-0.9367629,1002.83545,1,1
23.56,-7.146590700000001,5.372768,-0.7095115,1002.8609,0,0
23.6,-7.046214599999999,5.02481,-1.0361854,1002.8354,0,0
23.64,-8.269844,4.405157,-0.68583953,1002.85046,0,0
23.68,-9.211465,4.2144949999999985,-0.5816826,1002.85803,0,0
23.72,-9.292722,4.5624533,-0.64322984,1002.85284,0,0
23.76,-8.719146,4.8532133,-0.9983102,1002.8381,0,0
23.8,-8.523173,4.877046,-0.86574686,1002.85297,0,0
23.84,-8.370219,4.629185,-0.77579325,1002.8779,0,0
23.88,-8.35588,4.376558,-1.0929984,1002.84296,0,0
23.92,-8.891219,4.2955265,-0.7426524,1002.85785,0,0
23.96,-8.86254,4.495722,-0.18872705,1002.8729,0,0
24.0,-8.222046,4.7388163,-0.95096624,1002.8728,0,0
24.04,-8.843421000000003,4.548154,-0.9462318,1002.82733,0,0
24.08,-8.60443,4.4146905,-1.5143603,1002.8526,0,0
24.12,-8.585311,4.2430944,-1.1640145,1002.8854,0,0
24.16,-8.848201,4.204962,-0.72844917,1002.8827,0,0
24.2,-8.480155,4.3574915,-0.97937256,1002.85,0,0
24.24,-8.331982,4.405157,-1.064592,1002.8776,0,0
24.28,-8.733485,4.4480557,-0.9651694,1002.86505,0,0
24.32,-9.144548,4.376558,-0.6621675,1002.8726,0,0
24.36,-8.245944999999999,4.500488,-1.1166705,1002.85504,0,0
24.4,-8.642669,4.3574915,-0.9367629,1002.8776,0,0
24.44,-8.322421,4.481422,-1.2113584,1002.8475,0,0
24.48,-8.594871000000001,4.3193593,-1.0172478,1002.86725,0,0
24.52,-8.493694999999999,4.209708,-1.0313779,1002.88495,0,0
24.56,-9.019444,4.166809,-0.82779586,1002.8773,0,0
24.6,-9.043311,4.185874,-0.9130122,1002.89246,0,0
24.64,-8.445803999999999,4.5528984,-1.0361038,1002.8748,0,0
24.68,-8.2737,4.691128,-0.9224752,1002.8598,0,0
24.72,-8.225871000000001,4.6625276,-0.9934884,1002.88495,0,0
24.76,-8.340557,4.462332,-1.3533006,1002.8598,0,0
24.8,-9.138753,4.233536,-1.0266237,1002.8773,0,0
24.84,-9.196079,4.009507,-0.89879197,1002.86224,0,0
24.88,-8.479076,4.3288655,-1.0171491,1002.90247,0,0
24.92,-8.627219,4.443262,-0.7520196,1002.84216,0,0
24.96,-8.435997,4.7244887,-0.894049,1002.85474,0,0
25.0,-8.369048,4.738787,-0.7662171999999999,1002.86725,0,0
25.04,-8.593669,4.576723,-0.82776177,1002.88745,0,0
25.08,-8.717913000000001,4.4575586,-0.8703684000000002,1002.8924,0,0
25.12,-8.713099,4.2811956,-1.1686329,1002.8698,0,0
25.16,-8.861241,4.4241915,-1.0029259,1002.8673,0,0
25.2,-8.684358999999999,4.428957,-0.9129694,1002.8847,0,0
25.24,-8.703448,4.6053185,-0.7662001,1002.87476,0,0
25.28,-8.335371,4.486154,-0.6951811999999999,1002.89996,0,0
25.32,-8.684265,4.433721,-0.19333135,1002.8698,0,0
25.36,-8.177577000000001,4.6053166,-0.8230044,1002.8971,0,0
25.4,-8.588608,4.4480195,-1.073925,1002.8849,0,0
25.44,-9.042655,4.2239904,-1.017109,1002.9125,0,0
25.48,-8.994826,4.51475,-0.68569785,1002.8873,0,0
25.52,-8.794015,4.538580400000002,-0.43003455,1002.89996,0,0
25.56,-8.220403999999998,4.8770056,-0.30220240000000004,1002.8996,0,0
25.6,-8.129553999999999,4.6482105,-0.51051325,1002.89746,0,0
25.64,-8.593162,4.567178,-0.813512,1002.88983,0,0
25.68,-8.755645,4.4337134,-0.9413382,1002.86194,0,0
25.72,-8.578758,4.581476,-1.4952606000000002,1002.8848,0,0
25.76,-8.607396000000001,4.624374,-1.2632709999999998,1002.9225,0,0
25.8,-8.674289,4.7340045,-0.9129227,1002.8895,0,0
25.84,-8.822432000000003,4.557641,-0.22169681,1002.9045,0,0
25.88,-8.597750999999999,4.6434383000000015,-0.26430362,1002.882,0,0
25.92,-8.922742999999997,4.4861407,-0.17434688,1002.887,0,0
25.96,-8.612024,4.762601,-0.47734576,1002.9021,0,0
26.0,-8.162692,4.8674645,-0.6951255999999999,1002.8871,0,0
26.04,-8.372962,4.762599,-1.0407333,1002.8845,0,0
26.08,-8.640606,4.5528693,-1.1401536,1002.87195,0,0
26.12,-8.855657,4.6482,-1.0833371,1002.8845,0,0
26.16,-8.458899,4.7053976,-1.0691307,1002.8819,0,0
26.2,-8.487553,4.7530627,-0.88922113,1002.8896,0,0
26.24,-8.195955,4.705396,-1.0123129000000002,1002.8519,0,0
26.28,-8.540059,4.5814650000000015,-0.8418704,1002.8668,0,0
26.32,-8.63563,4.4194010000000015,-1.0407132,1002.9122,0,0
26.36,-8.778983,4.2954697999999985,-0.7803171,1002.8919,0,0
26.4,-8.606887,4.181072,-0.44417232,1002.887,0,0
26.44,-8.286602,4.7292247000000005,-0.44416875,1002.877,0,0
26.48,-8.472980499999998,4.8340883,-0.42996252,1002.8993,0,0
26.52,-8.325928999999999,4.867482,-0.8040831,1002.88226,0,0
26.56,-8.875622,4.929447,-0.15073667,1002.8769,0,0
26.6,-8.517147999999999,4.9389806,-0.57209986,1002.89734,0,0
26.64,-8.665336,4.9771137,-0.17441103,1002.92975,0,0
26.68,-8.507615,4.996180000000002,-0.34011640000000004,1002.93726,0,0
26.72,-8.369012,5.000947,-0.28330454,1002.8871,0,0
26.76,-8.48852,4.6815877,-0.19808649,1002.8894,0,0
26.8,-8.168286,4.6053233,-0.7662163000000001,1002.85925,0,0
26.84,-8.765774,4.45756,-0.7756861999999999,1002.882,0,0
26.88,-8.732327,4.6768220000000005,-0.71414006,1002.8769,0,0
26.92,-8.469451,4.8150525,-0.79936045,1002.877,0,0
26.96,-8.383427000000001,4.9771160000000005,-0.7188767,1002.9122,0,0
27.0,-7.986715299999997,5.091514,-0.7567531,1002.86694,0,0
27.04,-8.240058,4.9008512,-0.6194566,1002.8921,0,0
27.08,-8.732389,4.7721550000000015,-0.6857393,1002.8519,0,0
27.12,-8.55077,4.8245873,-0.7993661999999999,1002.85187,0,0
27.16,-8.603361,4.7340225999999985,-0.94139946,1002.892,0,0
27.2,-8.6846285,4.724490599999998,-1.0124166,1002.9122,0,0
27.24,-8.402633999999999,4.834121700000002,-0.931933,1002.85443,0,0
27.28,-8.278369999999999,4.867488,-0.8088395,1002.9197,0,0
27.32,-8.455236,4.805523,-0.7756999,1002.8919,0,0
27.36,-8.063305999999999,4.8913207000000005,-1.031359,1002.8946,0,0
27.4,-8.751609,4.5910277000000015,-1.0266255,1002.8821,0,0
27.44,-9.067088,4.5862620000000005,-1.0408299,1002.8643,0,0
27.48,-8.589121,4.6100949999999985,-0.9035333,1002.8894,0,0
27.52,-8.325600999999999,4.538581,-1.0833831,1002.87726,0,0
27.56,-8.569358,4.352685,-0.90820885,1002.887,0,0
27.6,-8.421173,4.5957794000000005,-0.86559814,1002.8821,0,0
27.64,-8.488077,4.676810700000001,-1.0407699,1002.8846,0,0
27.68,-8.454606,4.7387753,-1.3153642,1002.8647,0,0
27.72,-8.445032000000001,4.8150406,-0.8608601999999999,1002.90967,0,0
27.76,-8.535836999999999,4.8388724000000005,-0.846656,1002.87726,0,0
27.8,-8.531044999999999,4.753074,-0.860858,1002.8873,0,0
27.84,-8.234685,4.753074,-0.6809495,1002.9024,0,0
27.88,-8.550138,4.6672754,-0.8750588,1002.8996,0,0
27.92,-8.569246000000001,4.5814776,-0.8608546,1002.90753,0,0
27.96,-8.612252,4.672042,-0.8655878,1002.86444,0,0
28.0,-8.650477,4.7626057,-0.8845242,1002.87476,0,0
28.04,-8.29676,4.8579364,-0.8655855,1002.86725,0,0
28.08,-8.325426,4.8722363,-0.86085004,1002.90247,0,0
28.12,-8.473586,4.776904599999999,-0.7803639,1002.8873,0,0
28.16,-8.397099,4.819803,-0.72828436,1002.87225,0,0
28.2,-8.502241,4.8341026,-0.7898305,1002.86475,0,0
28.24,-8.411412,4.805503,-0.8655798000000001,1002.86945,0,0
28.28,-8.526114999999999,4.7673697,-1.1070333,1002.8218,0,0
28.32,-8.593019,4.843635,-0.78509265,1002.88983,0,0
28.36,-8.334897999999999,4.8912997,-0.96973336,1002.8974,0,0
28.4,-8.463941,4.7578363,-1.1307018999999998,1002.8421,0,0
28.44,-8.607322,4.638672,-0.9886686,1002.8647,0,0
28.48,-8.330083,4.7101693,-0.9318546999999998,1002.8723,0,0
28.52,-8.469197,4.7530813,-0.9981822,1002.86975,0,0
28.56,-8.488323,4.8293467,-1.0502613,1002.86475,0,0
28.6,-8.5743685,4.857946,-0.90822995,1002.90247,0,0
28.64,-8.249349,4.967577,-1.1307476,1002.8246,0,0
28.68,-8.301934,4.924678299999999,-1.1070763,1002.8823,0,0
28.72,-8.306721000000001,4.958043599999999,-1.0597329,1002.88495,0,0
28.76,-8.383205,4.757849,-1.0313272,1002.85724,0,0
28.8,-8.540946,4.595786,-0.9887181,1002.84467,0,0
28.84,-8.569632,4.714950599999999,-1.0881413,1002.8674,0,0
28.88,-8.517062,4.795982,-0.8892971,1002.86725,0,0
28.92,-8.263739999999999,4.915146,-1.0171267,1002.8774,0,0
28.96,-8.325885000000001,4.9580449999999985,-1.1496906999999998,1002.8648,0,0
29.0,-8.249414999999999,4.915146400000001,-1.0455345,1002.89246,0,0
29.04,-8.698725999999999,4.738784,-1.0597383,1002.90027,0,0
29.08,-8.598355999999999,4.5957875,-1.059739,1002.8801,0,0
29.12,-8.574465,4.5671883,-1.0076611999999998,1002.88245,0,0
29.16,-8.416739,4.8293495,-1.2491167,1002.8773,0,0
29.2,-8.249454,4.977113,-1.0834132,1002.8648,0,0
29.24,-8.431092,4.8627152,-0.77094305,1002.86725,0,0
29.28,-8.584054,4.748318,-0.6667869000000001,1002.89777,0,0
29.32,-8.62708,4.762618,-0.6857251999999999,1002.8472,0,0
29.36,-8.368977000000001,4.8531830000000005,-0.8845708000000001,1002.84216,0,0
29.4,-8.383324,4.867483,-1.0928854,1002.8598,0,0
29.44,-8.397672,4.8055177,-1.0597451999999998,1002.9053,0,0
29.48,-8.502834,4.7483187,-1.1449652,1002.86005,0,0
29.52,-8.455912,4.7769403,-0.96987224,1002.8776,0,0
29.56,-8.379475,4.8293734000000015,-0.82310927,1002.8472,0,0
29.6,-8.412975999999999,4.762642400000002,-1.0124896,1002.85,0,0
29.64,-8.565971000000001,4.7721763,-1.0219622,1002.8751,0,0
29.68,-8.522994,4.843675599999999,-0.98409057,1002.86505,0,0
29.72,-8.307944,4.929474400000001,-1.3865187,1002.8799,0,0
29.76,-8.413138,4.8865767,-1.3202409,1002.84247,0,0
29.8,-8.293686,4.7960134000000005,-1.2397597,1002.8701,0,0
29.84,-8.389321,4.6291847000000015,-0.88941735,1002.89276,0,0
29.88,-8.556659,4.6768513,-0.5059345999999999,1002.90796,0,0
29.92,-8.274693,4.886581,-1.097739,1002.86755,0,0
29.96,-8.418125,4.9628468,-1.2066339,1002.8652,0,0
30.0,-8.203076,5.0915446,-1.3486699,1002.86755,0,0
30.04,-8.437327999999999,5.034347,-1.2965951999999998,1002.8552,0,0
30.08,-8.351335,5.024815599999998,-1.0740821000000005,1002.88525,0,0
30.12,-8.284455,4.8961190000000006,-1.0882889,1002.85,0,0
30.16,-8.337072000000001,4.8722873,-1.1451053999999998,1002.8651,0,0
30.2,-8.5665455,4.838922,-1.026749,1002.8652,0,0
30.24,-8.217661999999999,4.848456400000001,-0.97467446,1002.86273,0,0
30.28,-8.380215,4.838924,-0.9841468,1002.8728,0,0
30.32,-8.480635000000001,4.9771550000000016,-0.99361974,1002.8726,0,0
30.36,-8.275143,4.9008913,-1.3676412,1002.8751,0,0
30.4,-8.471156,4.824628,-1.2682227,1002.8802,0,0
30.44,-8.432960000000001,4.7817297,-1.145132,1002.8753,0,0
30.48,-8.47124,4.786497,-1.2256206,1002.86005,0,0
30.52,-8.359675,4.843656,-1.0360954,1002.86005,0,0
30.56,-8.531725,4.7530913,-1.0218902,1002.8979,0,0
30.6,-8.612960000000001,4.795989,-1.1544514,1002.8753,0,0
30.64,-8.369164999999999,4.8293550000000005,-1.1260427,1002.8623,0,0
30.68,-8.335681,4.857953500000002,-1.2207285,1002.8475,0,0
30.72,-8.455155,4.8102875,-1.1828511,1002.86755,0,0
30.76,-8.330855,4.915151,-1.2443961,1002.84216,0,0
30.8,-8.249577,4.919917,-1.3201447,1002.8397,0,0
30.84,-8.545899,4.8627176,-1.1260319,1002.85,0,0
30.88,-8.302107000000001,4.8770165,-0.94612235,1002.8651,0,0
30.92,-8.483713999999999,4.7864513,-0.8561663,1002.84503,0,0
30.96,-8.450233,4.753085,-0.9271803,1002.85754,0,0
31.0,-8.521905,4.734018,-1.0123974,1002.8651,0,0
31.04,-8.368929,4.7816834,-1.348538,1002.8724,0,0
31.08,-8.493178,4.714951,-1.2917229,1002.86224,0,0
31.12,-8.325861,4.772149,-1.1449542,1002.8699,0,0
31.16,-8.278041,4.8627129999999985,-1.2585777,1002.87006,0,0
31.2,-8.507447,4.791214,-1.2301692,1002.8749,0,0
31.24,-8.402267,4.7673807,-1.0881348,1002.84216,0,0
31.28,-8.569538,4.6768155,-1.1686176,1002.84503,0,0
31.32,-8.531272999999999,4.7816790000000005,-0.91769177,1002.8979,0,0
31.36,-8.32094,4.9771075,-0.9271585,1002.8372,0,0
31.4,-8.22532,4.9294410000000015,-1.2017518,1002.86005,0,0
31.44,-8.411710000000001,4.919908,-1.1638745,1002.85724,0,0
31.48,-8.593319000000001,4.6911125,-1.007637,1002.8623,0,0
31.52,-8.665088,4.6529813,-0.94609624,1002.8475,0,0
31.56,-8.392619,4.757845400000001,-1.1307362,1002.8801,0,0
31.6,-8.287443,4.848408999999998,-1.0265775,1002.8346,0,0
31.64,-8.187046,4.8627086,-0.9934348,1002.85974,0,0
31.68,-8.167909,4.924673599999998,-1.3011693000000002,1002.87225,0,0
31.72,-8.244365,4.943739,-1.4100589,1002.8271,0,0
31.76,-8.072271,4.8484073,-1.4716042,1002.8648,0,0
31.8,-8.196528,4.824574,-1.6941195,1002.8245,0,0
31.84,-8.339901,4.662511,-1.3674437,1002.88745,0,0
31.88,-9.138108,4.548113,-0.87506384,1002.8873,0,0
31.92,-8.277724000000001,4.9675694,-1.1496574,1002.8724,0,0
31.96,-8.158209,5.263096,-0.7661689,1002.85974,0,0
32.0,-8.7126465,4.9961677,-0.15542889,1002.8874,0,0
32.04,-8.521434,4.862704,-0.47736654,1002.89496,0,0
32.08,-8.63613,4.562410400000001,-0.80877316,1002.8522,0,0
32.12,-8.693468,4.795971,-0.8797874,1002.86475,0,0
32.16,-7.943017500000002,4.991399,-1.5946804,1002.83466,0,0
32.2,-8.024253999999999,4.9770994,-1.5946785,1002.84955,0,0
32.24,-8.344482000000001,4.9151335,-1.4195038999999998,1002.905,0,0
32.28,-8.736405,4.7864356,-1.125969,1002.8874,0,0
32.32,-8.707708,5.129626999999998,-0.8703094000000001,1002.89996,0,0
32.36,-8.291843,5.220192,-0.63832176,1002.88745,0,0
32.4,-7.928559,5.301223,-0.8797745000000001,1002.89734,0,0
32.44,-8.3874,5.2821555,-0.7282717,1002.88226,0,0
32.48,-7.799463999999999,5.305988,-0.98866206,1002.8847,0,0
32.52,-7.800020699999999,5.196371,-0.9981818,1002.89734,0,0
32.56,-8.182408,4.938977,-0.7661963,1002.90967,0,0
32.6,-8.120273,4.896078,-0.7046492,1002.8895,0,0
32.64,-8.646052000000001,5.139172599999998,-0.31169385,1002.8873,0,0
32.68,-8.29235,5.1773050000000005,-0.5957583000000001,1002.8693,0,0
32.72,-8.61738,5.382267,-0.7093843000000001,1002.8895,0,0
32.76,-8.0581455,5.4442325,-1.0739337,1002.8769,0,0
32.8,-7.8956347,5.4203997,-1.3343261,1002.86444,0,0
32.84,-8.206325,5.25357,-1.3627329,1002.8873,0,0
32.88,-8.168089,5.062908,-0.89876145,1002.85944,0,0
32.92,-8.211109,5.067674,-0.6620414000000001,1002.8946,0,0
32.96,-8.2780285,5.1058073,-0.7661986,1002.8791,0,0
33.0,-8.1967745,5.1534724,-0.5768226,1002.9122,0,0
33.04,-7.924328999999997,5.4204,-0.813543,1002.8665,0,0
33.08,-8.278036,5.2535706,-0.9461066,1002.8846,0,0
33.12,-8.569606,5.196372,-1.0218574,1002.8792,0,0
33.16,-8.144206,5.2249713,-1.050264,1002.8871,0,0
33.2,-8.249364,5.020009,-0.79460627,1002.8817,0,0
33.24,-8.235027,5.0581417,-0.3921822,1002.9296,0,0
33.28,-7.9339027,5.496665,-0.8750916,1002.89215,0,0
33.32,-8.072519,5.5109653,-0.93663913,1002.8993,0,0
33.36,-8.163339,5.263104,-0.93663937,1002.8971,0,0
33.4,-8.641321000000001,5.1916056,-0.32116702,1002.91974,0,0
33.44,-8.268498,5.3441358,-0.87035817,1002.8941,0,0
33.48,-7.905236200000001,5.630129,-0.9555777,1002.8796,0,0
33.52,-7.972157000000001,5.606296,-0.53895026,1002.8916,0,0
33.56,-7.7140493,5.7778926,-0.4916065,1002.884,0,0
33.6,-7.7140517000000015,5.7969589999999975,-0.5626228,1002.91174,0,0
33.64,-8.1203375,5.591997,-0.60523266,1002.88654,0,0
33.68,-8.139459,5.5586314,-0.43479434,1002.9091,0,0
33.72,-8.153802,5.496666,-0.65731156,1002.8762,0,0
33.76,-8.435812,5.4251676,-0.624171,1002.8963,0,0
33.8,-8.177705,5.282171,-0.6478432,1002.8888,0,0
33.84,-7.881360499999999,5.2249722,-0.6620465999999999,1002.9042,0,0
33.88,-8.349783,5.0200105000000015,-0.64784366,1002.9066,0,0
33.92,-8.378465,5.1630072999999985,-0.6525783000000001,1002.89154,0,0
33.96,-8.306769000000001,5.1391745,-0.7804075,1002.8938,0,0
34.0,-8.230295,5.3393703000000015,-0.9603151,1002.8938,0,0
34.04,-8.383251,5.0867424,-1.0076592,1002.87604,0,0
34.08,-8.426271,5.210673,-0.8372209999999999,1002.9192,0,0
34.12,-7.9482946,5.1963735,-0.83722126,1002.939,0,0
34.16,-7.9530773,5.158241,-1.2633178,1002.9088,0,0
34.2,-8.641371000000001,4.7530837,-0.5531574,1002.89374,0,0
34.24,-8.063018,5.0819764,-0.4205943,1002.89886,0,0
34.28,-8.172955,5.0962760000000005,-0.78514373,1002.88855,0,0
34.32,-8.483645,5.372736,-0.8040815,1002.8961,0,0
34.36,-7.8670535,5.4823675000000005,-0.7851442,1002.9339,0,0
34.4,-8.258999000000001,5.296471,-0.6667843000000001,1002.89636,0,0
34.44,-8.086928,5.21544,-0.8324886,1002.8835,0,0
34.48,-8.206425999999999,5.410869,-0.48214293,1002.8859,0,0
34.52,-7.923621000000002,5.5061803,-0.63357097,1002.89056,0,0
34.56,-7.990511,5.49188,-0.8229446,1002.8863,0,0
34.6,-8.186452000000001,5.210653,-0.75192565,1002.8755,0,0
34.64,-8.301142,5.2630844,-0.56728166,1002.8885,0,0
34.68,-7.7179766,5.69684,-0.8986873,1002.9133,0,0
34.72,-7.9234796,5.5776753,-0.7897933000000001,1002.8881,0,0
34.76,-7.999927,5.51571,-0.82766587,1002.8881,0,0
34.8,-8.205428999999999,5.267848000000001,-0.7471783000000001,1002.93115,0,0
34.84,-8.377473,5.1820498,-0.5388618000000001,1002.9111,0,0
34.88,-8.090655,5.339345,-0.6477504,1002.9262,0,0
34.92,-8.291379,5.2678456,-0.47257498,1002.9234,0,0
34.96,-8.042803,5.2535453,-0.71402705,1002.8881,0,0
35.0,-8.157487,5.2630777,-0.6477426,1002.8857,0,0
35.04,-8.558964,5.0199823,-0.6477400999999999,1002.9183,0,0
35.08,-7.932779300000001,5.182045,-0.9175985,1002.91565,0,0
35.12,-8.171742,5.1677446,-0.66193813,1002.90814,0,0
35.16,-8.568437,4.9723153,-0.48202813,1002.94104,0,0
35.2,-8.080866,5.124844,-0.34472752,1002.91815,0,0
35.24,-8.324603,5.2297072,-0.36366215,1002.91583,0,0
35.28,-8.119048,5.2773724,-0.7424124,1002.8579,0,0
35.32,-8.281531,5.229706,-0.5104239,1002.9006,0,0
35.36,-8.195469000000001,5.291671,-0.5246246,1002.88544,0,0
35.4,-8.138083,5.3202696,-0.5056845,1002.90283,0,0
35.44,-8.305346499999999,5.3012023,-0.46780655,1002.8855,0,0
35.48,-8.24318,5.301202,-0.42045984,1002.8904,0,0
35.52,-8.195352,5.1772704,-0.58616114,1002.9233,0,0
35.56,-8.343498,5.210636,-0.4677985,1002.89325,0,0
35.6,-8.013664,5.348865,-0.44412404,1002.91315,0,0
35.64,-8.281305999999999,5.291666,-0.40151185,1002.9332,0,0
35.68,-8.133101,5.2582994,-0.4867283,1002.91046,0,0
35.72,-8.17609,5.3822293,-0.40150633,1002.9077,0,0
35.76,-8.166504,5.267831,-0.66663057,1002.89514,0,0
35.8,-8.166472,5.391761,-0.4867203,1002.91284,0,0
35.84,-8.137768,5.3583937000000015,-0.5435308000000001,1002.90027,0,0
35.88,-8.195093,5.296428,-0.5293246,1002.915,0,0
35.92,-8.08991,5.363159,-0.45830607,1002.9153,0,0
35.96,-8.199817999999999,5.386991,-0.48197556,1002.88983,0,0
36.0,-8.281048,5.243994,-0.4677698,1002.8851,0,0
36.04,-7.9464297,5.4537215,-0.42515737,1002.9152,0,0
36.08,-8.123257,5.35839,-0.552984,1002.9099,0,0
36.12,-8.210331,5.1725197,-0.5625477,1002.8975,0,0
36.16,-8.282025,5.2726172999999985,-0.4536562,1002.90765,0,0
36.2,-8.133849,5.4203806,-0.5909536999999999,1002.8949,0,0
36.24,-7.9139757,5.5204782,-0.6951104,1002.89233,0,0
36.28,-8.019129,5.329816,-0.58148444,1002.9328,0,0
36.32,-8.138621,5.26785,-0.40157682,1002.9176,0,0
36.36,-8.286794,5.277384,-0.52940553,1002.90265,0,0
36.4,-8.186415,5.239251,-0.52467096,1002.9152,0,0
36.44,-8.138614,5.453746,-0.64303076,1002.90265,0,0
36.48,-7.995218799999999,5.5157113,-0.63356185,1002.91724,0,0
36.52,-7.8996205,5.591976,-0.6951089,1002.9047,0,0
36.56,-8.344138000000001,5.263083999999999,-0.4489196,1002.88464,0,0
36.6,-8.105146000000001,5.291683,-0.4205129,1002.8996,0,0
36.64,-8.281997,5.186818,-0.13644846,1002.9124,0,0
36.68,-8.0573435,5.4680457,-0.6430295,1002.935,0,0
36.72,-7.947406299999999,5.3679476,-0.5009971999999999,1002.892,0,0
36.76,-8.281989,5.382247,-0.52466893,1002.90967,0,0
36.8,-8.372803999999999,5.2487835999999986,-0.48679352,1002.9047,0,0
36.84,-8.353682000000001,5.134386,-0.3116203,1002.8971,0,0
36.88,-8.042993,5.0724206,-0.15538473,1002.8994,0,0
36.92,-8.234181,5.224951,-0.34002626,1002.90466,0,0
36.96,-8.038208000000001,5.177285,-0.50573033,1002.8844,0,0
37.0,-8.305874000000001,5.096254,0.019788876,1002.902,0,0
37.04,-8.052541999999999,5.1582184,0.024523523,1002.93463,1,2
37.08,-7.97587,5.3488760000000015,-0.16483483,1002.9122,1,2
37.12,-7.951962,5.415608,-0.16956834,1002.89435,1,2
37.16,-7.966292,5.6491685,0.019808698,1002.9122,1,2
37.2,-7.583897,5.8255315,-0.055940762000000005,1002.91174,1,2
37.24,-7.105908,6.14489,-0.50570846,1002.8768,1,2
37.28,-7.254073,6.0876913,-0.40155074,1002.8994,1,2
37.32,-7.636445,5.8922620000000006,-0.39681524,1002.8866,1,2
37.36,-7.234934,5.9494605000000025,-0.6619411999999999,1002.91425,1,2
37.4,-7.273163,5.663467,-1.163787,1002.91925,1,2
37.44,-7.612516,5.706366,-0.69508,1002.89404,1,2
37.48,-7.669864,6.5691123,-0.87972087,1002.89404,1,2
37.52,-9.376244,6.7264085000000025,-0.5104364,1002.9318,1,2
37.56,-9.490949,6.407049,-0.39207533,1002.90936,1,2
37.6,-8.601897,6.206853400000001,-0.8229055000000001,1002.9092,1,2
37.64,-8.224281,5.506169,-0.8087011,1002.90393,1,2
37.68,-7.832327999999999,4.924649,-1.4478447,1002.8893,1,2
37.72,-7.0675507,4.805485,-1.4904537,1002.90686,1,2
37.76,-6.790312299999999,4.552857,-1.5093905,1002.88135,1,2
37.8,-7.5502887,4.6577206,-0.7944941999999999,1002.9091,1,2
37.84,-7.722351,5.563367,-0.36839685,1002.9245,1,2
37.88,-7.923094,5.925625,-1.1874481,1002.9014,1,2
37.92,-8.706971000000001,5.868426,-1.8076543,1002.87885,1,2
37.96,-9.309217,6.3307815000000005,-1.9828262,1002.90393,1,2
38.0,-10.92956,7.765515,-0.37312767,1002.914,1,2
38.04,-7.937394,8.518631,-0.9033801,1002.9341,1,2
38.08,-7.1917973,6.993334,-1.1116986999999998,1002.8762,1,2
38.12,-8.076054,5.84936,1.4780214,1002.94403,1,2
38.16,-5.514071,5.649164,0.86728376,1002.9187,1,2
38.2,-6.6612163,5.0104456,0.71104914,1002.8913,1,2
38.24,-7.827481,5.2344737,1.146615,1002.9089,1,2
38.28,-7.4403095,5.263073,0.09557787,1002.9039,1,2
38.32,-6.914523,5.4728007000000005,-0.7424111,1002.9011,1,2
38.36,-7.2204229999999985,5.005678,-0.96966183,1002.8784,1,2
38.4,-7.2204156,5.968522,-1.1827092,1002.8859,1,2
38.44,-6.7280880000000005,6.259282,0.19026874,1002.8809,1,2
38.48,-7.7414,6.3450804000000005,0.42698964,1002.89343,1,2
38.52,-7.5501995,6.7502375,-0.25949836,1002.89343,1,2
38.56,-7.4259179999999985,7.126795,3.163477,1002.93616,1,2
38.6,-8.544383999999999,6.9551992,3.878373,1002.9689,1,2
38.64,-8.974559,6.387978,2.7989292000000003,1002.89575,1,2
38.68,-7.196464,6.2211485,2.145582,1002.89343,1,2
38.72,-6.4412475,6.0257196,-0.79921705,1002.8709,1,2
38.76,-8.496556,6.0924510000000005,-1.0927496,1002.86084,1,2
38.8,-9.729738,4.8436136,0.07191478,1002.9108,1,2
38.84,-8.964963000000003,4.433689,-1.4478285,1002.8755,1,2
38.88,-6.794923,4.6481843000000005,-1.2821236,1002.9035,1,2
38.92,-6.584604700000001,5.239237,0.019838355,1002.8831,1,2
38.96,-6.5463586,5.2344704,-0.51041424,1002.9057,1,2
39.0,-7.6026883,5.0724072,-1.0927454,1002.8755,1,2
39.04,-8.33399,5.4203660000000005,-0.7660708,1002.90607,1,2
39.08,-7.889398599999999,6.1782464999999975,-0.2784206,1002.9158,1,2
39.12,-7.760333,6.545271,-0.58615595,1002.89026,1,2
39.16,-9.2181635,6.9933270000000025,0.71107185,1002.9158,1,2
39.2,-9.844309,7.422317,1.932549,1002.9534,1,2
39.24,-8.558531,6.4261065,1.591673,1002.9007,1,2
39.28,-8.209594000000001,5.863652,2.3113034,1002.91327,1,2
39.32,-7.941916,6.0638475,1.9183487,1002.90576,1,2
39.36,-7.7650533,5.8779515999999985,0.19502623,1002.8882,1,2
39.4,-7.793721700000001,6.2783422,1.5017229,1002.86505,1,2
39.44,-5.5758834,7.1029563,0.95726717,1002.91077,1,2
39.48,-5.3321037,7.179220699999999,1.7621169,1002.893,1,2
39.52,-4.581663,7.5557789999999985,1.0708947,1002.90326,1,2
39.56,-5.5184965,7.627277,0.8909883,1002.8702,1,2
39.6,-6.4362080000000015,7.6940089999999985,2.0603871,1002.90814,1,2
39.64,-5.198229,7.674941499999999,1.7147765,1002.8904,1,2
39.68,-5.7813554000000025,7.751207000000001,2.249765,1002.8901,1,2
39.72,-7.220067,7.193519599999999,1.5254021,1002.88495,1,2
39.76,-8.214253999999999,6.9742570000000015,0.7158199000000001,1002.8979,1,2
39.8,-9.261023,6.802661,0.59272623,1002.8952,1,2
39.84,-7.9561259999999985,6.683497,-0.60034275,1002.8549,1,2
39.88,-6.5651927,6.230674,-0.9080782,1002.86755,1,2
39.92,-7.000144500000001,6.4308685999999975,-0.4914496,1002.88245,1,2
39.96,-8.262003,6.3117046,-0.008539446,1002.89246,1,2
40.0,-8.711295,6.3212376,0.28499448,1002.9128,1,2
40.04,-7.9082775,6.340303,0.10035372,1002.90784,1,2
40.08,-7.320069,6.940882000000001,0.6401026999999999,1002.90765,1,2
40.12,-7.731111,7.355572,0.6732454000000001,1002.90765,1,2
40.16,-6.693874,7.4175369999999985,0.36551097,1002.905,1,2
40.2,-6.588695,6.5881553,0.23294970000000004,1002.87225,1,2
40.24,-7.6641307,6.5214233,1.4828343000000002,1002.9125,1,2
40.28,-6.053315,6.564322,0.062514976,1002.87726,1,2
40.32,-5.331543,5.9208355,-0.99798965,1002.8847,1,2
40.36,-6.908857000000001,4.719663,-0.5671569000000001,1002.89734,1,2
40.4,-6.751103,4.586199,-0.74706244,1002.8897,1,2
40.44,-5.7425427,6.3307585999999985,-0.3730425,1002.91754,1,2
40.48,-7.5349493,7.2411704,0.8815765999999999,1002.9023,1,2
40.52,-7.4345512,8.2326145,0.92892265,1002.915,1,2
40.56,-7.9698687,7.6939926,1.6059445,1002.9123,1,2
40.6,-8.691597,6.9790077,2.0983245,1002.9047,1,2
40.64,-8.285294,7.1220045,0.78216183,1002.87714,1,2
40.68,-7.826411,7.6129593999999985,1.4875902,1002.89966,1,2
40.72,-6.856087700000002,7.689223299999999,1.7621877,1002.91504,1,2
40.76,-6.024383,7.660624,1.7953303,1002.9073,1,2
40.8,-5.82361,7.5795913,1.3076885,1002.8947,1,2
40.84,-6.9086018,6.826475,1.4260508,1002.9073,1,2
40.88,-7.290966,6.43085,1.6106945,1002.9123,1,2
40.92,-7.137992999999999,6.149623,2.112543,1002.9176,1,2
40.96,-6.464017,6.392717,1.828481,1002.9047,1,2
41.0,-7.0232353000000005,6.2926188,1.1704005,1002.8895,1,2
41.04,-7.8357787,5.963726,0.8247909999999999,1002.8796,1,2
41.08,-8.055912,5.672972,0.99520564,1002.9098,1,2
41.12,-7.7117553,5.801669,0.9952066,1002.8696,1,2
41.16,-8.294882000000001,6.0113974,0.12881136,1002.87964,1,2
41.2,-9.274732,6.1639269999999975,-0.6618333000000001,1002.85925,1,2
41.24,-7.4679565,6.664414999999999,-2.1484354,1002.84424,1,2
41.28,-7.6591377,6.578617,-1.8833078,1002.892,1,2
41.32,-8.916217,5.820734,-0.9743014,1002.9172,1,2
41.36,-8.820609,5.6348379999999985,-0.9458938,1002.8869,1,2
41.4,-7.8503003,5.944664,-1.0405811,1002.8966,1,2
41.44,-7.893308599999999,5.7826010000000005,-0.5434677,1002.8996,1,2
41.48,-7.1715484,5.925597,-1.2062834999999998,1002.89417,1,2
41.52,-7.085501700000001,5.468008,-1.6607853,1002.8921,1,2
41.56,-8.203965,4.6958246,-1.6134403,1002.9095,1,2
41.6,-8.184835000000001,4.5385284000000015,-1.7175964,1002.9247,1,2
41.64,-7.845461,4.8817205,-1.6087042,1002.9016,1,2
41.68,-7.931487599999999,5.0819160000000005,-1.5282185,1002.8916,1,2
41.72,-8.447696,5.148647,-1.3672476,1002.89166,1,2
41.76,-8.710574000000001,5.0294824,-1.1968082,1002.92706,0,0
41.8,-8.189568,5.3488417,-0.8227894,1002.89417,0,0
41.84,-7.396109,5.5442705000000005,-1.0500399,1002.89404,0,0
41.88,-7.577731,5.4680057,-1.1352582,1002.8817,0,0
41.92,-8.35683,4.829287,-0.605004,1002.9117,0,0
41.96,-8.782223,4.7434883,-0.6097375,1002.92175,0,0
42.0,-8.624477,4.8531184000000005,-1.0784426,1002.8918,0,0
42.04,-8.485853,5.019948,-1.0216289,1002.9218,0,0
42.08,-8.371035000000001,5.048545,-1.0831666000000002,1002.8966,0,0
42.12,-8.089013000000001,5.1677089999999986,-1.1021028999999998,1002.89655,0,0
42.16,-8.0651,4.9722795,-1.0121481,1002.90424,0,0
42.2,-8.662561,5.329771,-0.9695371,1002.88666,0,0
42.24,-9.36996,4.5861874,-0.6996749,1002.91156,0,0
42.28,-9.565918,4.3049602999999985,-0.4960942,1002.90906,0,0
42.32,-7.964668799999999,4.657685,-0.96479887,1002.90656,0,0
42.36,-7.869059599999999,4.4813223,-0.5955140999999999,1002.90924,0,0
42.4,-8.4713,4.4002905,-0.20255725,1002.9018,0,0
42.44,-8.519085,4.238226999999998,-0.48662034,1002.89655,0,0
42.48,-8.691145,4.762548000000002,-0.046319447,1002.90405,0,0
42.52,-8.581195,4.5957184,-0.6381188,1002.9194,0,0
42.56,-8.509484,4.552819,-1.0594794,1002.894,0,0
42.6,-8.29438,4.7005816,-0.84643006,1002.87646,0,0
42.64,-8.466438,4.548051999999998,-0.5008172000000001,1002.89655,0,0
42.68,-9.06868,4.285890599999999,-0.4771439,1002.90924,0,0
42.72,-8.781878,4.433653400000002,-0.47240824,1002.90656,0,0
42.76,-8.581112,4.695814,-0.25462437,1002.91156,0,0
42.8,-8.456822,4.843577,-0.24988869,1002.8964,0,0
42.84,-8.236939,4.9913397,-0.67124957,1002.8735,0,0
42.88,-8.518933,4.891242,-0.3303711,1002.8815,0,0
42.92,-8.356407,5.091437,-0.43926123,1002.9091,0,0
42.96,-8.227338,5.010405,-0.6475736999999999,1002.8735,0,0
43.0,-8.217765,5.1915336,-0.372977,1002.88904,0,0
43.04,-8.02178,5.158168,-0.72332174,1002.90656,0,0
43.08,-8.375941000000001,5.196311,-1.2583513000000002,1002.8865,0,0
43.12,-8.705753,5.2249103,-0.23572026,1002.8961,0,0
43.16,-8.165641,5.2916427000000015,-0.6192075,1002.8915,0,0
43.2,-7.888417,5.1724787,-0.24518996,1002.9088,0,0
43.24,-8.366402,5.11528,0.14303075,1002.8911,0,0
43.28,-8.289928999999999,5.243977,-0.18364362,1002.9113,0,0
43.32,-8.442889,5.067615,-0.20258167,1002.88104,0,0
43.36,-8.52893,5.1295805,-0.20258214,1002.88873,0,0
43.4,-8.213467999999999,5.019949400000002,-0.46770927,1002.8984,0,0
43.44,-8.352088,5.015183,-0.40142807,1002.89874,0,0
43.48,-8.294735000000001,4.8388205,-0.1552395,1002.9038,0,0
43.52,-8.505051,4.8912525,0.20930924,1002.9013,0,0
43.56,-8.543295,4.953218,0.20930876,1002.9062,0,0
43.6,-8.404686,5.0628495,-0.07949041,1002.9011,0,0
43.64,-8.328214,5.0819160000000005,-0.3162111,1002.88617,0,0
43.68,-8.395135,5.043783,-0.5292597,1002.89655,0,0
43.72,-8.667589,4.938919,-0.2783367,1002.89075,0,0
43.76,-8.352128,4.89602,-0.35408768,1002.8833,0,0
43.8,-8.261316,4.9246197,-0.4203698,1002.87836,0,0
43.84,-8.232642,5.072383,-0.19785327,1002.90375,0,0
43.88,-8.108372,5.053317,-0.36829224,1002.9009,0,0
43.92,-8.423844,5.067617,-0.38723037,1002.8883,0,0
43.96,-8.442967999999999,5.096216,-0.38249642,1002.9135,0,0
44.0,-8.242223,5.1772475,-0.49138814,1002.9084,0,0
44.04,-8.17053,5.205847,-0.69023365,1002.87836,0,0
44.08,-8.471160000000001,5.067605,-0.4250615,1002.8883,0,0
44.12,-8.232156,4.996106,-0.3161688,1002.9086,0,0
44.16,-8.303839,4.9770393,-0.30196428,1002.8808,0,0
44.2,-8.375521,5.0723699999999985,-0.37297896,1002.87836,0,0
44.24,-8.408965,5.201067,-0.33036804,1002.88824,0,0
44.28,-8.203419,5.263032,-0.6996503000000001,1002.8555,0,0
44.32,-7.935734299999999,5.248732,-1.1257452,1002.87317,0,0
44.36,-8.356341,4.9532045999999985,-0.8653514999999999,1002.87823,0,0
44.4,-8.50928,4.9818034,-0.83220935,1002.88293,0,0
44.44,-8.375432,5.0294695,-0.7043791,1002.883,0,0
44.48,-8.451894,5.1533989999999985,0.0010484997,1002.8656,0,0
44.52,-8.031253999999999,5.324995,-0.23567025,1002.8679,0,0
44.56,-8.036019999999999,5.4012594000000025,-0.34929463,1002.88293,0,0
44.6,-8.432730000000001,5.015168,-0.16465159,1002.8981,0,0
44.64,-8.389696,4.972269,-0.63335615,1002.8883,0,0
44.68,-8.327544,5.000868,-0.33982176,1002.8807,0,0
44.72,-8.327528,5.167697,-0.38716435,1002.8756,0,0
44.76,-8.246258000000001,5.1009645,-0.42977276,1002.8831,0,0
44.8,-8.394416,5.1438637,-0.20251994,1002.8881,0,0
44.84,-8.284464999999999,5.186762,-0.25933132,1002.89557,0,0
44.88,-8.375267,5.139096,-0.39189336,1002.9005,0,0
44.92,-8.136262,5.158162,-0.84639496,1002.8805,0,0
44.96,-8.485171000000001,5.0818970000000006,-0.5623291,1002.90814,0,0
45.0,-8.198367999999999,5.100962,-0.38242036,1002.89056,0,0
45.04,-8.327409,5.0771294000000005,-0.21198048,1002.9006,0,0
45.08,-8.222833,5.124809,-0.5718483,1002.90076,0,0
45.12,-8.280198,5.0866760000000015,-0.6049899000000001,1002.9031,0,0
45.16,-8.4475,5.1677089999999986,-0.5907875,1002.906,0,0
45.2,-8.218079,5.286873,-0.7848989000000001,1002.89276,0,0
45.24,-8.060353,5.339305,-0.3540688,1002.8981,0,0
45.28,-8.0986,5.196308599999999,-0.26885036,1002.92084,0,0
45.32,-8.313701,5.0676117,-0.3114608,1002.8954,0,0
45.36,-8.256352,5.077145,-0.29252395,1002.8881,0,0
45.4,-8.409314,5.034246,-0.43929136,1002.88776,0,0
45.44,-8.404542999999999,5.086678,-0.6428715,1002.888,0,0
45.48,-8.184681,5.272575,-0.78017,1002.88275,0,0
45.52,-8.232488,5.1057453,-0.5529195,1002.8778,0,0
45.56,-8.261175,5.1152782,-0.3919505,1002.90283,0,0
45.6,-8.179928,4.910317,-0.35881040000000003,1002.8982,0,0
45.64,-8.524080999999999,4.9150839999999985,-0.4487649,1002.89026,0,0
45.68,-8.151266,4.9293833,-0.46296892,1002.8675,0,0
45.72,-8.504980999999999,5.0247150000000005,-0.44403216,1002.8929,0,0
45.76,-8.452411,5.1391125,-0.71389395,1002.8675,0,0
45.8,-8.218208,5.329775,-0.4724401,1002.89777,0,0
45.84,-8.189539,5.25351,-0.20257981,1002.90283,0,0
45.88,-8.562372,5.1343465,0.14776523,1002.90533,0,0
45.92,-8.232574000000001,5.1915455,-0.07948696599999999,1002.87256,0,0
45.96,-8.113089,5.115280599999998,-0.22151989,1002.8803,0,0
46.0,-8.3903265,4.900786,-0.26413035,1002.8929,0,0
46.04,-8.581527000000001,4.876953,-0.49611697,1002.8954,0,0
46.08,-8.370692,5.024704,-0.40138096,1002.8929,0,0
46.12,-8.131689999999999,5.3011637,-0.42978632,1002.8851,0,0
46.16,-8.217710499999999,5.324996499999999,-0.19306469,1002.87,0,0
46.2,-8.294177000000001,5.324996,-0.117313266,1002.8753,0,0
46.24,-8.155552,5.0914345,-0.33982918,1002.8929,0,0
46.28,-8.781694,4.934138,-0.36350012,1002.86456,0,0
46.32,-8.666965,4.948437,-0.33509248,1002.87494,0,0
46.36,-8.059918,5.1295657,-0.3871698,1002.8753,0,0
46.4,-8.0216675,5.134332,-0.2072613,1002.8675,0,0
46.44,-8.174609,5.039000499999998,-0.31141713,1002.90045,0,0
46.48,-8.337107000000001,4.9961014000000015,-0.3019469,1002.89764,0,0
46.52,-8.499609,5.077132700000001,-0.35875875,1002.90015,0,0
46.56,-8.308406,5.1104980000000015,-0.6286188,1002.88763,0,0
46.6,-8.241477,5.1247973,-0.53866404,1002.90784,0,0
46.64,-8.337058,5.0246997,-0.4960531,1002.9003,0,0
46.68,-8.069376,5.086664,-0.6854279999999999,1002.8876,0,0
46.72,-8.389613,5.2868595,-0.5244573,1002.89514,0,0
46.76,-8.360922,5.491821,-0.51498735,1002.88214,0,0
46.8,-8.09324,5.3488235,-0.69489366,1002.9003,0,0
46.84,-8.2653,5.1581616,-0.54812586,1002.90515,0,0
46.88,-7.9641614,5.07713,-0.1788412,1002.8975,0,0
46.92,-8.102763000000001,4.8388014,-0.13149607,1002.8573,0,0
46.96,-8.752803,4.819735,0.39402404,1002.90796,0,0
47.0,-8.5138,4.795902,-0.21671298,1002.8975,0,0
47.04,-8.475549,5.0151629999999985,-0.08888289,1002.88495,0,0
47.08,-8.552014,5.2677903,-0.07467861,1002.8897,0,0
47.12,-7.8542476,5.4536877,-0.30193776,1002.88007,0,0
47.16,-8.389575,5.463221,0.124159634,1002.9201,0,0
47.2,-7.954604,5.320224,0.0010659061,1002.89764,0,0
47.24,-8.198367,5.2439589999999985,-0.046277538,1002.8925,0,0
47.28,-8.920107000000002,5.1772265,0.2235845,1002.89514,0,0
47.32,-8.222246,5.2344255,-0.055744503,1002.90015,0,0
47.36,-8.140981,5.239192,-0.24038552,1002.87964,0,0
47.4,-8.0788355,5.1533932999999985,-0.23091596,1002.9126,0,0
47.44,-8.102725999999999,5.1200269999999986,-0.27352476,1002.8979,0,0
47.48,-8.351266,5.0199294000000005,-0.3066648,1002.8897,0,0
47.52,-8.246103,5.100960700000001,-0.29719535,1002.9152,0,0
47.56,-8.1457205,5.26779,-0.33506992,1002.91003,0,0
47.6,-8.389479,5.3297553,-0.25931835,1002.8922,0,0
47.64,-8.212619,5.5061173,-0.48183474,1002.9202,0,0
47.68,-8.054877000000001,5.3726535,-0.4108179,1002.87964,0,0
47.72,-8.2412815,5.2868557,-0.47709873,1002.895,0,0
47.76,-8.121774,5.1915239999999985,-0.29719037,1002.89716,0,0
47.8,-8.355975,5.124792,-0.16936064,1002.8997,0,0
47.84,-8.442003,5.2963877,-0.27351677,1002.88214,0,0
47.88,-8.007033,5.329754,-0.69014364,1002.905,0,0
47.92,-8.159978,5.2725550000000005,-0.50550103,1002.9024,0,0
47.96,-8.026135,5.2296557,-0.33032724,1002.9024,0,0
48.0,-8.212539999999999,5.105725,-0.14568485,1002.8999,0,0
48.04,-8.384603,5.158157,-0.2356375,1002.8949,0,0
48.08,-8.102586,5.305919599999998,-0.46288815,1002.9075,0,0
48.12,-8.183833,5.391718,-0.6001850999999999,1002.872,0,0
48.16,-8.083449,5.315452,-0.7895605,1002.9024,0,0
48.2,-8.2220545,5.100957,-0.7138091999999999,1002.89996,0,0
48.24,-8.346321000000001,4.9674935,-0.47235373,1002.9023,0,0
48.28,-8.298513999999999,5.024692,-0.28297684,1002.8847,0,0
48.32,-8.652357,5.091427,-0.11728523,1002.88715,0,0
48.36,-8.389463000000001,5.23919,-0.22617617,1002.89716,0,0
48.4,-8.040534,5.3678875,-0.32559829999999995,1002.8848,0,0
48.44,-8.064428999999999,5.4203196,-0.08887768,1002.9098,0,0
48.48,-8.336874,5.37742,-0.23564386,1002.8647,0,0
48.52,-8.07398,5.172458,-0.41081646,1002.89233,0,0
48.56,-8.179132000000001,5.0056286,-0.46762893,1002.91473,0,0
48.6,-8.241266,4.872164700000001,-0.3918781,1002.9175,0,0
48.64,-8.045292,4.7720666,-0.780099,1002.8746,0,0
48.68,-8.862632000000003,4.857865,-0.7469577,1002.9223,0,0
48.72,-8.413326,5.5156493,-0.00365581,1002.91974,0,0
48.76,-7.4764814,5.9970717,-0.08414033,1002.8897,0,0
48.8,-7.839742,5.973239,-0.37767306,1002.88715,0,0
48.84,-7.7584815,5.968472,-0.18829651,1002.89984,0,0
48.88,-8.1934395,5.591914,-0.18356174,1002.90717,0,0
48.92,-8.32249,5.4012513,-0.3303279000000001,1002.8896,0,0
48.96,-7.9831210000000015,5.5585485,-0.37767157,1002.9325,0,0
49.0,-8.179088,5.4203176,-0.15515417,1002.9173,0,0
49.04,-8.002231,5.434617,-0.31138915,1002.91724,0,0
49.08,-7.9544296,5.3869514,-0.5102339,1002.9122,0,0
49.12,-8.174296,5.1676902999999985,-0.24984118,1002.892,0,0
49.16,-8.236429,5.143857499999998,-0.6569996,1002.9122,0,0
49.2,-8.446736,5.3106866,-0.14568353,1002.897,0,0
49.24,-8.0308895,5.482282,-0.21196485,1002.8769,0,0
49.28,-8.284215,5.258254,-0.28771490000000005,1002.8846,0,0
49.32,-8.385224000000001,5.2392035,-0.19781919,1002.8794,0,0
49.36,-8.1128,5.1772385000000005,-0.38246322,1002.892,0,0
49.4,-8.055464,5.153406,-0.107869714,1002.87195,0,0
49.44,-8.232338,5.3774357,-0.013183589,1002.9071,0,0
49.48,-8.084184,5.4870667,-0.43928188,1002.9222,0,0
49.52,-8.265839,5.5823984000000015,-0.25937647,1002.8817,0,0
49.56,-7.806998700000001,5.582399,-0.47242662,1002.8971,0,0
49.6,-8.084249,5.558567,-0.32566208,1002.91205,0,0
49.64,-8.304138,5.377438,0.07202622,1002.8971,0,0
49.68,-7.893099,5.3726715999999985,-0.29725945,1002.89966,0,0
49.72,-8.227706,5.2630415,-0.1741669,1002.882,0,0
49.76,-8.246845,5.177243700000001,-0.62867165,1002.877,0,0
49.8,-8.390262,5.3154745000000005,-0.5529231,1002.892,0,0
49.84,-8.237328999999999,5.3250084000000015,-0.5860659,1002.9272,0,0
49.88,-7.854964999999999,5.515671,-0.58133334,1002.90436,0,0
49.92,-8.170453,5.4441739999999985,-0.5860696999999999,1002.9071,0,0
49.96,-8.089219,5.4489402999999985,-0.718635,1002.91205,0,0
50.0,-8.399928,5.5061393,-0.13157083,1002.87445,0,0
50.04,-7.9028497,5.572872,-0.20732327,1002.9172,0,0
50.08,-7.754696400000001,5.6157713,-0.35409164,1002.8846,0,0
50.12,-8.132322,5.358378,-0.16471747,1002.8844,0,0
50.16,-8.223158,5.2153816,-0.3351579,1002.8921,0,0
50.2,-8.323555,5.177249400000001,-0.40144148,1002.8895,0,0
50.24,-8.414392999999999,5.2249155,-0.3872403,1002.9021,0,0
50.28,-7.993792999999997,5.5347424000000025,-0.56241524,1002.89465,0,0
50.32,-7.868875,5.591925,-0.5860284,1002.8971,0,0
50.36,-7.9118886,5.6157584,-0.48187107,1002.9349,0,0
50.4,-8.074397,5.4393954,-0.4487298,1002.877,0,0
50.44,-8.150869,5.339298,-0.22621234,1002.8996,0,0
50.48,-8.466331,5.310698,-0.26882148,1002.9272,0,0
50.52,-8.451986,5.4775276,-0.27355546,1002.89716,0,0
50.56,-8.002678999999999,5.5204263,-0.22147654,1002.9197,0,0
50.6,-7.625070599999999,5.544258599999999,-0.19780408,1002.877,0,0
50.64,-8.193862,5.305931,-0.122053124,1002.8971,0,0
50.68,-8.260774000000001,5.1915336,-0.20253752,1002.90466,0,0
50.72,-8.24165,5.301164,-0.15519305,1002.892,0,0
50.76,-8.208186,5.3154635,-0.28775588,1002.90717,0,0
50.8,-7.945292,5.4870595999999985,-0.40138113,1002.887,0,0
50.84,-8.045663000000001,5.549025,0.019981336,1002.8896,0,0
50.88,-7.973961,5.563324,-0.33983293,1002.8945,0,0
50.92,-8.069550999999999,5.3774285000000015,-0.1031123,1002.8946,0,0
50.96,-8.356335000000001,5.1772327,-0.27828482,1002.91974,0,0
51.0,-8.385009,5.3869615,-0.33036283,1002.8943,0,0
51.04,-7.9548225000000015,5.45846,-0.44398808,1002.9147,0,0
51.08,-8.13167,5.2868633,-0.2640803,1002.8794,0,0
51.12,-8.537948,5.072368,-0.3635023,1002.8992,0,0
51.16,-8.265494,4.972271,-0.31142342,1002.90936,0,0
51.2,-8.432782000000001,5.043769,-0.2167348,1002.8971,0,0
51.24,-8.241586,5.1105003,-0.27828163,1002.9349,0,0
51.28,-8.150764,5.3249955,-0.31142202,1002.8918,0,0
51.32,-8.074124000000001,5.3154580000000005,-0.35875112,1002.897,0,0
51.36,-8.059774,5.4012556,-0.47237584,1002.93225,0,0
51.4,-8.451706,5.210593,-0.661751,1002.8768,0,0
51.44,-8.198364,5.2058263,-0.557593,1002.92975,0,0
51.48,-8.121877,5.2248926,-0.25932452,1002.91943,0,0
51.52,-8.2700405,5.162927,-0.3682149,1002.902,0,0
51.56,-8.088396000000001,5.2916235999999985,-0.54812115,1002.91724,0,0
51.6,-7.978450299999999,5.2868567,-0.6049329999999999,1002.92944,0,0
51.64,-8.17919,5.515651,-0.7090888000000001,1002.8642,0,0
51.68,-8.016665,5.4584519999999985,-0.70908785,1002.9096,0,0
51.72,-8.074012,5.5013514,-0.3776785,1002.9272,0,0
51.76,-8.265191,5.3535876,-0.32086453,1002.9172,0,0
51.8,-8.078769,5.544249,-0.43922374,1002.89417,0,0
51.84,-7.8206479999999985,5.620514,-0.46289465,1002.91974,0,0
51.88,-7.9783716,5.634814,-0.2451111,1002.90436,0,0
51.92,-8.059617,5.477517,-0.5291743,1002.91425,0,0
51.96,-8.346394,5.372652,-0.098342404,1002.9194,0,0
52.0,-8.222107000000001,5.301154,0.03422192,1002.91425,0,0
52.04,-8.097821000000001,5.3774185,-0.33506063,1002.9345,0,0
52.08,-8.140827,5.3535852,-0.29244992,1002.86926,0,0
52.12,-8.026100999999999,5.2963862,-0.37766817,1002.91174,0,0
52.16,-8.250741,5.234421,-0.17882217,1002.90436,0,0
52.2,-8.092996000000001,5.4060169999999985,-0.2640404000000001,1002.8868,0,0
52.24,-8.346314,5.2630196,-0.14094487,1002.92444,0,0
52.28,-8.035616000000001,5.406016,-0.43447694,1002.90186,0,0
52.32,-8.083877000000001,5.506125,-0.10784536,1002.8893,0,0
52.36,-7.887911999999999,5.672955,-0.23094054,1002.9247,0,0
52.4,-8.212945,5.3964944,-0.20253472,1002.89435,0,0
52.44,-8.160376,5.5061255,-0.07470655400000001,1002.8793,0,0
52.48,-8.007429,5.649122,-0.30669305,1002.9021,0,0
52.52,-8.126930999999999,5.6586556,-0.27355292,1002.9293,0,0
52.56,-7.8783894,5.510893,-0.5055394,1002.9222,0,0
52.6,-7.864058,5.5204263,-0.47713363,1002.89886,0,0
52.64,-8.169972,5.3535967000000015,-0.19307008,1002.91675,0,0
52.68,-8.251236,5.4107957,-0.26882124,1002.8739,0,0
52.72,-8.198666000000001,5.4107957,-0.32090038,1002.8818,0,0
52.76,-8.093517,5.4918275,-0.4013859,1002.8688,0,0
52.8,-7.8975525,5.4060297,-0.38718334,1002.88135,0,0
52.84,-8.208249,5.386964,-0.30196482,1002.88135,0,0
52.88,-8.265613,5.2344339999999985,-0.013166803,1002.92725,0,0
52.92,-8.093548,5.4870614999999985,-0.2309501,1002.9345,0,0
52.96,-8.040977499999999,5.43463,-0.30670127,1002.89435,0,0
53.0,-8.055325,5.5728602,-0.41085887,1002.9368,0,0
53.04,-8.017093,5.4727625999999985,-0.2025457,1002.91943,0,0
53.08,-8.260871,5.4632297,-0.24989045,1002.8764,0,0
53.12,-8.131824,5.3917317,-0.3398448,1002.9014,0,0
53.16,-8.198749000000001,5.4107980000000016,-0.32090795,1002.8868,0,0
53.2,-7.8354907,5.367899,-0.22622052,1002.889,0,0
53.24,-8.256121,5.377433,-0.23568998,1002.91943,0,0
53.28,-8.2513485,5.2392025,-0.12206493,1002.884,0,0
53.32,-8.299123,5.3440657,-0.1267972,1002.90906,0,0
53.36,-7.9549837,5.382199,-0.21675141,1002.9019,0,0
53.4,-8.299135,5.5061290000000005,-0.1836112,1002.89685,0,0
53.44,-8.1270685,5.4441643,-0.38719112,1002.8818,0,0
53.48,-8.074497000000001,5.49183,-0.4440045999999999,1002.90155,0,0
53.52,-8.562042,5.2630352999999985,-0.36825466,1002.8989,0,0
53.56,-8.088849,5.301168,-0.49134976,1002.8739,0,0
53.6,-8.107974,5.272569,-0.24989569,1002.89685,0,0
53.64,-7.9454675,5.410799,-0.33038118,1002.91144,0,0
53.68,-7.9598125999999985,5.396499,-0.30670968,1002.87115,0,0
53.72,-8.18447,5.4965980000000005,-0.34458548,1002.9042,0,0
53.76,-8.208375,5.3822002,-0.46294615,1002.8915,0,0
53.8,-8.103226,5.2916360000000005,-0.27357057,1002.9316,0,0
53.84,-8.289643,5.220138,-0.22149268,1002.9014,0,0
53.88,-8.241853,5.0485415,-0.4771511,1002.8865,0,0
53.92,-8.461729,4.9961095,-0.3729948,1002.9019,0,0
53.96,-8.3900385,5.2201385,-0.44874582,1002.9091,0,0
54.0,-8.131935,5.310703,-0.37299588,1002.9014,0,0
54.04,-8.1893,5.3345356,-0.32565245,1002.91156,0,0
54.08,-8.198865,5.4060345000000005,-0.3303874,1002.92163,0,0
54.12,-8.050697,5.3154697,-0.47715455,1002.8986,0,0
54.16,-8.433088,5.1915393,-0.24516927,1002.91644,0,0
54.2,-8.03159,5.258271700000001,-0.5813126000000001,1002.88354,0,0
54.24,-8.490458,5.17724,-0.37299934,1002.90405,0,0
54.28,-8.294493,5.2773379999999985,-0.45821917,1002.92163,0,0
54.32,-8.045257000000001,5.4679837,-0.6096573000000001,1002.876,0,0
54.36,-8.050015,5.2963867,-0.50076413,1002.8964,0,0
54.4,-8.3798,5.177222,-0.39660528,1002.92664,0,0
54.44,-8.064312,5.1581554,-0.63805795,1002.9138,0,0
54.48,-8.408435,5.0866566,-0.27824104,1002.9239,0,0
54.52,-8.174205,5.215353,-0.49602184,1002.90894,0,0
54.56,-8.145505,5.3440495000000015,-0.46761352,1002.9164,0,0
54.6,-8.097686,5.320216,-0.63331574,1002.919,0,0
54.64,-8.212382,5.348815,-0.45340663,1002.9011,0,0
54.68,-8.140661999999999,5.3726473,-0.5338894000000001,1002.9091,0,0
54.72,-8.255355999999999,5.301149,-0.28296396,1002.90405,0,0
54.76,-8.212316,5.272549,-0.46286938,1002.91144,0,0
54.8,-8.202734,5.2534823,-0.41552335,1002.91144,0,0
54.84,-8.0593195,5.3440455999999985,-0.29242685,1002.9162,0,0
54.88,-7.868107000000001,5.3297462,-0.5954269,1002.8763,0,0
54.92,-7.978022599999999,5.2391806,-0.5291434,1002.89606,0,0
54.96,-8.107055,5.0008526,-0.3729061,1002.9166,1,3
55.0,-8.18351,4.9150540000000005,-0.34923205,1002.9164,1,3
55.04,-8.159592,4.9960847,-0.14091645,1002.90894,1,3
55.08,-7.858441,5.096182,-0.5007291,1002.8961,1,3
55.12,-7.9253364,5.0771155,-0.3871014,1002.9062,1,3
55.16,-7.7723627,5.13908,-0.48178765,1002.9315,1,3
55.2,-7.877497,4.8912187000000005,-0.47231683,1002.92096,1,3
55.24,-8.106907000000001,4.7911205,-0.2829388,1002.8961,1,3
55.28,-7.8870144,4.757754,-0.38709378,1002.90894,1,3
55.32,-8.040356,4.91506,-0.38712922,1002.924,1,3
55.36,-8.006892,5.0342236,-0.24036220000000005,1002.9315,1,3
55.4,-7.806135,5.1962867,-0.42500353,1002.89606,1,3
55.44,-7.8826075,5.158154,-0.19775169,1002.9135,1,3
55.48,-7.6866307,5.2344184,-0.13620393,1002.89594,1,3
55.52,-7.476314,5.16292,-0.23089159,1002.9262,1,3
55.56,-7.997308,4.967491000000001,-0.09359339,1002.9742,1,3
55.6,-7.8204494,4.9055257,-0.15514018,1002.94354,1,3
55.64,-7.7391887000000015,4.9198260000000005,-0.47234485,1002.92596,1,3
55.68,-7.763082000000002,4.8673935,-0.46760994,1002.9311,1,3
55.72,-7.7391787,4.943658,-0.5480944000000001,1002.9236,1,3
55.76,-7.6387973,5.000857,-0.38238978,1002.9282,1,3
55.8,-7.8538833,4.9388914,-0.42499894,1002.9363,1,3
55.84,-7.772622,4.867393,-0.11252779,1002.92847,1,3
55.88,-7.7056994,4.9055247,-0.2450907,1002.911,1,3
55.92,-7.820410000000001,4.867393,-0.027307624,1002.9561,1,3
55.96,-7.739148599999999,4.948424299999999,-0.06044799,1002.93854,1,3
56.0,-7.815621000000001,4.967489700000002,-0.16460444,1002.9056,1,3
56.04,-7.7582574000000015,4.9913225,-0.29243287,1002.9459,1,3
56.08,-7.782151,4.9293566,-0.42026135,1002.94366,1,3
56.12,-7.7343483,5.062821,-0.41552648,1002.95593,1,3
56.16,-7.581390400000001,5.000855400000002,-0.30190033,1002.961,1,3
56.2,-7.8394938,4.8959913,-0.26402462,1002.9432,1,3
56.24,-7.858608199999999,4.881691,-0.15513287,1002.9457,1,3
56.28,-7.5670357,4.938889499999998,-0.09358514,1002.95593,1,3
56.32,-7.59549,4.9817834,-0.21665911,1002.9534,1,3
56.36,-7.757988,4.9102845,-0.27347064,1002.9708,1,3
56.4,-7.714956799999999,4.8959845999999985,-0.33975103,1002.9558,1,3
56.44,-7.968273,4.876917400000001,-0.2782025,1002.9733,1,3
56.48,-7.791405,4.948416,-0.4581087,1002.9634,1,3
56.52,-7.6766777,5.043746499999999,-0.47231063,1002.9634,1,3
56.56,-7.949113,5.0056143,-0.38709018,1002.99585,1,3
56.6,-7.6240726,5.0485125,-0.4060265,1002.9684,1,3
56.64,-8.216753,4.910282,-0.13616411,1002.9811,1,3
56.68,-7.97297,5.0056129999999985,-0.30660146,1002.9634,1,3
56.72,-7.8247833,5.153375,-0.44389802,1003.00085,1,3
56.76,-7.925144,5.0580444,-0.46283424,1002.9784,1,3
56.8,-7.891671700000002,5.110476,-0.65220916,1002.99854,1,3
56.84,-8.216683999999999,4.929346,-0.2971276,1003.00867,1,3
56.88,-8.412643,5.0056114,-0.16456303,1003.0109,1,3
56.92,-7.8916309999999985,5.1581407,-0.33500034,1003.0109,1,3
56.96,-8.130608,5.1772065000000005,-0.18349816,1003.0261,1,3
57.0,-8.293107000000001,5.2153387,0.053223334,1003.036,1,3
57.04,-7.982407000000001,5.258238,-0.08880759,1003.02606,1,3
57.08,-8.192703,5.086641,-0.26397923,1003.0286,1,3
57.12,-8.011059,5.0866404,-0.27818128,1003.0336,1,3
57.16,-8.130541000000001,5.110473000000002,-0.31132093,1003.04346,1,3
57.2,-8.345616,5.105706,-0.44388288,1003.0334,1,3
57.24,-8.087494,5.2058034000000015,-0.69480515,1003.04095,1,3
57.28,-8.106598,5.1104717000000015,-0.31131697,1003.05347,1,3
57.32,-8.503717,4.948419,0.31358826,1003.06104,1,3
57.36,-8.140454,5.1581473,0.19049354,1003.07104,1,3
57.4,-8.140456,5.296377,-0.041492537,1003.0383,1,3
57.44,-8.226495,5.310678,-0.20719692,1003.0635,1,3
57.48,-8.326874,5.2534785,-0.23086917,1003.08374,1,3
57.52,-8.341216000000001,5.3011446,-0.623825,1003.05835,1,3
57.56,-8.360339,5.3392773,-0.37290183,1003.076,1,3
57.6,-8.054434,5.291611,-0.48179337,1003.08356,1,3
57.64,-8.293426,5.291611,-0.24507335,1003.0986,1,3
57.68,-8.183492999999999,5.186747,-0.21666715,1003.08307,1,3
57.72,-8.212173,5.1390815000000005,-0.40130913,1003.11365,1,3
57.76,-8.326891999999999,5.1486154000000015,-0.44865346,1003.1136,1,3
57.8,-8.393811999999999,5.2248800000000015,-0.57174826,1003.09827,1,3
57.84,-8.164384,5.196281,-0.46285707,1003.10345,1,3
57.88,-8.154826,4.9102874000000005,-0.36343485,1003.11365,1,3
57.92,-8.3986,4.772057,-0.5433425000000001,1003.13367,1,3
57.96,-8.503757,4.8101897000000005,-0.301888,1003.1083,1,3
58.0,-8.193073,4.9770193,-0.3302947,1003.12115,1,3
58.04,-8.322128999999999,5.11525,-0.32556054,1003.14124,1,3
58.08,-8.283895,5.2773128,-0.24507588,1003.13617,1,3
58.12,-8.159621000000001,5.3583440000000016,-0.548078,1003.1639,1,3
58.16,-8.417733,5.2153473,-0.46285892,1003.14594,1,3
58.2,-8.532451,5.243946599999999,-0.44392157,1003.1535,1,3
58.24,-8.183527999999999,5.210581,-0.27348325,1003.156,1,3
58.28,-8.035356,5.258247,-0.20720172,1003.15125,1,3
58.32,-8.321989,5.086646599999999,-0.19298439,1003.1763,1,3
58.36,-8.178592,5.2058105,-0.27346885,1003.1764,1,3
58.4,-8.465376,5.2201104,-0.5622672,1003.1814,1,3
58.44,-8.106886,5.282075,-0.53859484,1003.1709,1,3
58.48,-8.154681,5.1343117,-0.43443766,1003.18365,1,3
58.52,-8.1259985,5.0675797,-0.3918276,1003.1839,1,3
58.56,-8.192912,5.0103817,-0.27820152,1003.186,1,3
58.6,-8.274165,5.1533775,-0.15510675,1003.21375,1,3
58.64,-8.259822,5.19151,-0.37762344,1003.2015,1,3
58.68,-8.049506,5.3440404,-0.72796893,1003.22614,1,3
58.72,-8.178558,5.310674,-0.6096085,1003.19867,1,3
58.76,-8.384085,5.2868414,-0.57173294,1003.20123,1,3
58.8,-8.360183000000001,5.1676774000000005,-0.19771458,1003.19867,1,3
58.84,-8.546591000000001,5.2344089999999985,-0.29713672,1003.2238,1,3
58.88,-8.102066,5.472737,-0.65221673,1003.2211,1,3
58.92,-8.116402,5.4060044000000005,-0.5101843,1003.2309,1,3
58.96,-8.168975,5.305907,-0.35394856,1003.23846,1,3
59.0,-8.135512,5.1676769999999985,-0.28293213,1003.2364,1,3
59.04,-8.259785,5.0723453,-0.16930616,1003.25397,1,3
59.08,-8.178524000000001,5.067578299999999,-0.36815074,1003.24896,1,3
59.12,-8.326694,5.1343102,-0.41549444,1003.24115,1,3
59.16,-8.130718,5.2820735,-0.25452435,1003.27155,1,3
59.2,-8.001659,5.4155374000000025,-0.37761855,1003.26605,1,3
59.24,-7.9586377000000015,5.4155374000000025,-0.38708702,1003.2866,1,3
59.28,-8.321899,5.158143,-0.15510084,1003.2612,1,3
59.32,-8.35529,5.1629076,-0.2545172,1003.2686,1,3
59.36,-8.388742,5.1772075,-0.22137576,1003.28613,1,3
59.4,-8.31226,5.372636,-0.15035915,1003.2964,1,3
59.44,-8.202316999999999,5.3964686,-0.15035856,1003.2914,1,3
59.48,-8.350486,5.434601,-0.26871815,1003.29645,1,3
59.52,-8.092369999999999,5.4060016,-0.22137356,1003.30145,1,3
59.56,-8.187961,5.372635400000001,-0.31606105,1003.2889,1,3
59.6,-8.144936,5.2630050000000015,-0.22610675,1003.31903,1,3
59.64,-8.336122,5.148607,-0.26398152,1003.33405,1,3
59.68,-8.307436000000001,5.115241,-0.23084004,1003.3439,1,3
59.72,-8.297871,5.1295404000000016,-0.35866836,1003.3215,1,3
59.76,-8.073214,5.134307,-0.2497765,1003.3391,1,3
59.8,-8.183143,5.120007,-0.24977598,1003.33905,1,3
59.84,-8.211815,5.0723410000000015,-0.4012763,1003.3391,1,3
59.88,-8.321745,5.1009398,-0.40601018,1003.33636,1,3
59.92,-8.307399,5.148606,-0.45335367,1003.3566,1,3
59.96,-8.297833,5.210571,-0.51963484,1003.3941,1,3
60.0,-8.254809,5.2677693,-0.36339882,1003.36896,1,3
60.04,-8.269142,5.386933,-0.28764772,1003.3587,1,3
60.08,-8.293035,5.3106684999999985,-0.5480395,1003.36426,1,3
60.12,-8.350386,5.253469,-0.6001173000000001,1003.34106,1,3
60.16,-8.417297,5.081873000000001,-0.57644475,1003.3991,1,3
60.2,-8.2022,5.0723395,-0.52910006,1003.4067,1,3
60.24,-8.359928,5.124771,-0.2687073,1003.3863,1,3
60.28,-8.278664,5.191503,-0.16454986,1003.4117,1,3
60.32,-8.158658,5.196257599999999,-0.35861358,1003.42444,1,3
60.36,-7.933978999999999,5.267755,-0.4722367,1003.3813,1,3
60.4,-8.297219,5.229622,-0.42015597,1003.4167,1,3
60.44,-8.168139,5.229621400000001,-0.49116978,1003.439,1,3
60.48,-8.168113,5.3249516,-0.557449,1003.42926,1,3
60.52,-8.048591,5.3154182,-0.46275845,1003.434,1,3
60.56,-8.062903,5.329717,-0.32545832,1003.4393,1,3
60.6,-8.258849,5.2057858,-0.07453241,1003.4363,1,3
60.64,-8.397438000000001,5.110454,-0.09346773,1003.44653,1,3
60.68,-8.344833,5.291583,-0.21182543,1003.44885,1,3
60.72,-8.593356,5.3297143,-0.36805835,1003.45435,1,3
60.76,-7.9767375,5.701505,-0.47221294,1003.4365,1,3
60.8,-7.914573,5.48701,-0.4438041,1003.45404,1,3
60.84,-8.177436,5.3106465,-0.33491036,1003.4867,1,3
60.88,-8.2204275,5.105683999999999,-0.23075102,1003.49677,1,3
60.92,-8.359015,5.162881400000002,0.020174887,1003.5043,1,3
60.96,-8.143899000000001,5.1962470000000005,-0.33016878,1003.5018,1,3
61.0,-8.177332,5.253445,-0.22127505,1003.4862,1,3
61.04,-8.04347,5.4441066,-0.3585703,1003.494,1,3
61.08,-8.048223,5.27251,-0.25914538,1003.4963,1,3
61.12,-8.258510000000001,5.2725095999999985,-0.14551736,1003.5067,1,3
61.16,-8.201125,5.239143,-0.44851688,1003.5116,1,3
61.2,-8.330153,5.1962433,-0.4579834,1003.51385,1,3
61.24,-8.172395,5.2343755,-0.31594878,1003.5241,1,3
61.28,-8.325323,5.2439075,-0.2686025,1003.55695,1,3
61.32,-8.345267,5.2105618,-0.027223337,1003.5292,1,3
61.36,-8.221,5.3583254999999985,-0.31602272,1003.53937,1,3
61.4,-8.020256,5.329726,-0.32549223,1003.52136,1,3
61.44,-8.221015,5.3916917,-0.4769938,1003.55426,1,3
61.48,-8.254482000000001,5.1724305,-0.48646334,1003.53894,1,3
61.52,-8.388324,5.1104650000000005,-0.37283835,1003.51636,1,3
61.56,-8.1589,5.134298,-0.19293164,1003.57916,1,3
61.6,-8.259283,5.172431,0.09113204,1003.5919,1,3
61.64,-7.943824,5.2868285,-0.21660501,1003.57935,1,3
61.68,-8.130243,5.2534623,-0.3681066,1003.57465,1,3
61.72,-8.402699,5.0961666,-0.33023205,1003.5942,1,3
61.76,-8.249754,5.134299,-0.43912408,1003.5995,1,3
61.8,-8.221083,5.1676655,-0.26868623,1003.58185,1,3
61.84,-8.292786999999999,5.2200975,-0.25448364,1003.5995,1,3
61.88,-8.120721000000001,5.3106627,-0.14085865,1003.5867,1,3
61.92,-8.374058999999999,5.2963624000000005,-0.2592194,1003.57434,1,3
61.96,-8.27369,5.334495,-0.23081368,1003.59155,1,3
62.0,-8.450550999999999,5.2391644,-0.22134554,1003.61456,1,3
62.04,-8.292824000000001,5.296363,-0.42966002,1003.62683,1,3
62.08,-8.192457000000001,5.3630953,-0.3681135,1003.6246,1,3
62.12,-7.8913364,5.496559,-0.42492703,1003.64435,1,3
62.16,-8.221149,5.324963,-0.29709873,1003.61676,1,3
62.2,-8.178139999999999,5.215332,-0.28763065,1003.6369,1,3
62.24,-8.264183000000001,5.2343993,-0.21188082,1003.6394,1,3
62.28,-8.292869999999999,5.0866356,-0.06984942400000001,1003.6594,1,3
62.32,-8.021089,5.210582700000002,-0.3871157,1003.64716,1,3
62.36,-7.997225999999999,5.2582498,-0.42025983,1003.64166,1,3
62.4,-8.269707,5.215351,-0.35398108,1003.65717,1,3
62.44,-8.264963,5.277317,-0.46761012,1003.67487,1,3
62.48,-8.2410965,5.296384,-0.34925297,1003.67706,1,3
62.52,-8.422763,5.23442,-0.2261616,1003.66675,1,3
62.56,-8.279402000000001,5.3059187,-0.17882048,1003.6818,1,3
62.6,-8.21252,5.3106866,-0.19302703,1003.68713,1,3
62.64,-8.518460000000001,5.2010565,-0.1267483,1003.66425,1,3
62.68,-8.3751,5.205823400000001,-0.15515785,1003.6793,1,3
62.72,-8.155263,5.367888,-0.31139636,1003.6946,1,3
62.76,-8.566360000000001,5.186759,-0.26878986,1003.6998,1,3
62.8,-8.112311,5.310691,-0.33034006,1003.7049,1,3
62.84,-8.045425999999999,5.2201266,-0.3682182000000001,1003.7046,1,3
62.88,-8.131499,5.153395,-0.26879907,1003.6996,1,3
62.92,-8.141093,5.124797,-0.30667740000000004,1003.7197,1,3
62.96,-8.298859,5.072365799999999,-0.31141478,1003.7094,1,3
63.0,-8.404047,5.1438656,-0.28301126,1003.717,1,3
63.04,-8.160313,5.2010646,-0.43451557,1003.7222,1,3
63.08,-8.136448,5.324996,-0.26881456,1003.7222,1,3
63.12,-8.083902,5.3440629999999985,-0.2546143,1003.7145,1,3
63.16,-8.480659,5.301165,-0.32089886,1003.75507,1,3
63.2,-8.327741,5.224901,-0.41559026,1003.7622,1,3
63.24,-8.337333000000001,5.2439675,-0.39192122,1003.74207,1,3
63.28,-8.308688,5.2773347,-0.434534,1003.73706,1,3
63.32,-8.115352,5.36308,-0.2970399,1003.74457,1,3
63.36,-8.349511,5.2248483,-0.23075369,1003.75464,1,3
63.4,-8.15827,5.3297114,-0.14079544,1003.7747,1,3
63.44,-8.196451,5.2200794,-0.14079025,1003.7823,1,3
63.48,-8.440167,5.0818477,-0.46745926,1003.7747,1,3
63.52,-7.933456,5.305874299999998,-0.5100640999999999,1003.77765,1,3
63.56,-8.081579,5.1914760000000015,-0.25440162,1003.7848,1,3
63.6,-8.315736,5.077078,-0.25439677,1003.8003,1,3
63.64,-8.105371,5.2200727,-0.39642403,1003.8177,1,3
63.68,-8.181799,5.320169,-0.23071529,1003.8152,1,3
63.72,-8.191305,5.3487673,-0.19283515,1003.82043,1,3
63.76,-8.133894,5.4679303,-0.26384640000000004,1003.8103,1,3
63.8,-8.372831,5.310632,-0.24016945,1003.7953,1,3
63.84,-8.248503,5.3773627,-0.35379028,1003.8505,1,3
63.88,-8.143297,5.506058,-0.30170727,1003.8325,1,3
63.92,-8.23884,5.463158,-0.29696798,1003.8453,1,3
63.96,-8.138411,5.4154916,-0.25908786,1003.8229,1,3
64.0,-8.076222999999999,5.386891,-0.102847956,1003.8631,1,3
64.04,-8.329499,5.253425599999999,-0.1217807,1003.8679,1,3
64.08,-8.061777000000001,5.191459,-0.25907356,1003.85535,1,3
64.12,-8.19078,5.1104264000000015,-0.32535034,1003.85034,1,3
64.16,-8.219411000000001,5.2534220000000005,-0.31587726,1003.88544,1,3
64.2,-8.07596,5.3916507000000005,-0.23065282,1003.86566,1,3
64.24,-8.066351,5.4774475,-0.36321154,1003.8757,1,3
64.28,-8.066298,5.47268,-0.2921906,1003.8679,1,3
64.32,-8.22527,5.3821454000000015,-0.3491169,1003.9055,1,3
64.36,-8.201369999999999,5.344013,-0.15500621,1003.8955,1,3
64.4,-8.077094,5.353546,-0.26389742,1003.898,1,3
64.44,-8.421238,5.2010164,-0.33964774,1003.9031,1,3
64.48,-8.225265,5.2820477,-0.40119487,1003.9108,1,3
64.52,-8.34476,5.3297133,-0.28283468,1003.9159,1,3
64.56,-8.387775999999999,5.4250445,-0.32544425,1003.93604,1,3
64.6,-8.010171000000001,5.5108422999999975,-0.22602159,1003.888,1,3
64.64,-8.072307,5.3916783,-0.16447423,1003.9008,1,3
64.68,-8.029287,5.286814,-0.29703742,1003.93567,1,3
64.72,-8.2873955,5.134284,-0.19761483,1003.92596,1,3
64.76,-8.292173,5.2057824,-0.25442755,1003.9335,1,3
64.8,-7.943247299999999,5.363079,-0.45327246,1003.9511,1,3
64.84,-8.0962,5.329713,-0.36331865,1003.9742,1,3
64.88,-8.201353999999998,5.324947,-0.6284451999999999,1003.9714,1,3
64.92,-8.105757,5.258215,-0.29230234,1003.94867,1,3
64.96,-8.282608999999999,5.115218,-0.17867652,1003.9742,1,3
65.0,-8.416441,5.1962495,-0.24022366,1003.9661,1,3
65.04,-8.230027,5.2534480000000014,-0.27809876,1003.9867,1,3
65.08,-8.163110000000001,5.2820473,-0.33017716,1003.98895,1,3
65.12,-8.368639,5.3916783,-0.43433392,1003.9945,1,3
65.16,-8.268263000000001,5.3916783,-0.26389524,1003.9613,1,3
65.2,-8.296941,5.272514299999999,-0.07925336,1003.9917,1,3
65.24,-8.296939,5.258215,0.043841295,1004.0068,1,3
65.28,-8.129644,5.248681,-0.49588072,1003.99176,1,3
65.32,-8.240558,5.20104,-0.751628,1004.0043,1,3
65.36,-8.125879,5.162908,-0.7042874,1004.0045,1,3
65.4,-8.035099,5.267773,-0.48177367,1004.00476,1,3
65.44,-8.145072,5.1057115,-0.26872897,1004.0168,1,3
65.48,-8.207248,5.22011,-0.49598384,1004.0399,1,3
65.52,-8.369794,5.243942700000002,-0.24506345,1004.04474,1,3
65.56,-8.216878999999999,5.286844,-0.22612931,1004.0244,1,3
65.6,-8.049623500000001,5.2916102,-0.2829456,1004.0324,1,3
65.64,-8.503746000000001,5.291611,-0.36816862,1004.0244,1,3
65.68,-8.169194000000001,5.3678775000000005,-0.42025036,1004.04474,1,3
65.72,-8.413001,5.4441433,-0.2687527,1004.0548,1,3
65.76,-8.331781,5.434611,-0.33503783,1004.0624,1,3
65.8,-8.250564,5.3774133,-0.17407152,1004.045,1,3
65.84,-8.025949,5.3964805999999985,-0.31137255,1004.0754,1,3
65.88,-8.3127775,5.2773175000000005,-0.46761158,1004.08014,1,3
65.92,-8.069042,5.2248864,-0.50549006,1004.0804,1,3
65.96,-8.121655,5.167689,-0.37766442,1004.0779,1,3
66.0,-8.159933,5.143857,-0.249839,1004.07007,1,3
66.04,-7.997458,5.1676908,-0.2971865,1004.08545,1,3
66.08,-8.465917,5.2010574,-0.27825233,1004.0855,1,3
66.12,-8.231744,5.248724,-0.37294394,1004.08545,1,3
66.16,-8.1696415,5.3345227,-0.51971376,1004.10846,1,3
66.2,-8.217478,5.282091,-0.5102484,1004.08795,1,3
66.24,-7.940285,5.363124,-0.22618742,1004.10315,1,3
66.28,-8.217551,5.3011594,-0.2119877,1004.12354,1,3
66.32,-8.450795,5.291601999999999,-0.20243032,1004.126,1,3
66.36,-8.168783,5.3678675,-0.3728687,1004.12836,1,3
66.4,-8.603744,5.348800700000001,-0.46282214,1004.10583,1,3
66.44,-8.001486,5.52993,-0.50543153,1004.1159,1,3
66.48,-8.283491999999999,5.372634,-0.41547763,1004.11066,1,3
66.52,-8.202233,5.315435400000001,-0.42968062,1004.1312,1,3
66.56,-8.101854,5.282069,-0.1314129,1004.12616,1,3
66.6,-8.216566,5.067574,-0.20242873,1004.14124,1,3
66.64,-8.202226,5.172438,-0.28291336,1004.12616,1,3
66.68,-8.058828,5.215337,-0.44861734,1004.1136,1,3
66.72,-8.173541,5.315435,-0.54330516,1004.1415,1,3
66.76,-8.054044000000001,5.2773023,-0.4012728,1004.1493,1,3
66.8,-8.254793,5.22487,-0.5338359,1004.17694,1,3
66.84,-8.269131,5.215337,-0.36339712,1004.17664,1,3
66.88,-8.202210000000001,5.2677684000000005,-0.42967856,1004.17914,1,3
66.92,-8.307363,5.153371,-0.6474609,1004.18445,1,3
66.96,-8.488994,5.2058034000000015,-0.37759966,1004.17444,1,3
67.0,-8.312138000000001,5.3535666,-0.34445855,1004.1967,1,3
67.04,-8.312135000000001,5.4202986,-0.4154744000000001,1004.16174,1,3
67.08,-7.9106297,5.534696,-0.35866135,1004.18445,1,3
67.12,-8.163958000000001,5.3631,-0.5480373000000001,1004.1969,1,3
67.16,-8.321688,5.2725353,-0.39653614,1004.1969,1,3
67.2,-8.283447,5.21057,-0.292379,1004.2122,1,3
67.24,-8.336021,5.291601,-0.2781755,1004.1995,1,3
67.28,-8.054011000000001,5.506096,-0.48648915,1004.225,1,3
67.32,-7.991871400000001,5.5680614,-0.44861367,1004.2275,1,3
67.36,-8.369473,5.4631968,-0.36812854,1004.2124,1,3
67.4,-8.336012,5.3583326,-0.34445626,1004.23505,1,3
67.44,-8.460284,5.3964653,-0.24503358,1004.2429,1,3
67.48,-8.374246000000001,5.4202976,-0.35392463,1004.2479,1,3
67.52,-8.426821,5.5823603,-0.42020607,1004.2375,1,3
67.56,-8.40292,5.7730227,-0.52909714,1004.25574,1,3
67.6,-8.178267,5.8635874,-0.44387767,1004.26575,1,3
67.64,-8.426813000000001,5.62526,-0.36812696,1004.273,1,3
67.68,-8.4985075,5.5823603,-0.3349859000000001,1004.26044,1,3
67.72,-8.603661,5.577594,-0.46281457,1004.2984,1,3
67.76,-8.603658,5.5823603,-0.44387677,1004.27576,1,3
67.8,-8.388565,5.668158,-0.35865727,1004.2758,1,3
67.84,-8.431581,5.7205900000000005,-0.33025062,1004.2785,1,3
67.88,-8.512835,5.6633916,-0.4533449000000001,1004.2858,1,3
67.92,-8.57975,5.591893,-0.47228223,1004.29364,1,3
67.96,-8.799617999999997,5.5728269999999975,-0.41073477,1004.2885,1,3
68.0,-8.536727,5.6204925,-0.47228178,1004.3012,1,3
68.04,-8.64666,5.6824574,-0.09826363,1004.3112,1,3
68.08,-8.350308,5.7301235,-0.4296717000000001,1004.2834,1,3
68.12,-8.431563,5.763489,-0.55276597,1004.31354,1,3
68.16,-8.70401,5.6347914,-0.49121854,1004.32416,1,3
68.2,-8.742246000000002,5.6395583,-0.38706142,1004.32886,1,3
68.24,-8.613189,5.630025,-0.42493638,1004.3012,1,3
68.28,-8.813937,5.630025,-0.29710722,1004.32153,1,3
68.32,-8.365356,5.9208026,-0.3208453,1004.3417,1,3
68.36,-8.508778,5.9112706,-0.3113789,1004.324,1,3
68.4,-8.814708999999997,5.730142,-0.30664665,1004.32916,1,3
68.44,-8.623545,5.763508,-0.5386350999999999,1004.33405,1,3
68.48,-8.5184145,5.773042,-0.4202772,1004.3091,1,3
68.52,-8.6905155,5.5442475999999985,-0.39660782,1004.3392,1,3
68.56,-8.996448,5.3583527,-0.3966101,1004.3345,1,3
68.6,-8.843521,5.525183,-0.12201705,1004.342,1,3
68.64,-8.446824000000001,5.711079,-0.13148828,1004.3545,1,3
68.68,-8.36081,5.8111777,-0.36347625,1004.3369,1,3
68.72,-8.394297,5.7825794,-0.24038431,1004.3419,1,3
68.76,-8.504257,5.8016458,-0.37294993,1004.3549,0,0
68.8,-8.690699,5.6014514,-0.60020393,1004.3419,0,0
68.84,-8.72896,5.6395845,-0.34454823,1004.347,0,0
68.88,-8.451758,5.6014524,-0.2593314,1004.35474,0,0
68.92,-8.470903,5.658652,-0.08416082,1004.36224,0,0
68.96,-8.174583,5.796882599999999,-0.17885137,1004.3499,0,0
69.0,-8.59045,5.692019,-0.19779131,1004.3774,0,0
69.04,-8.437525,5.7492185,-0.44398293,1004.3497,0,0
69.08,-8.298936999999999,5.777818,-0.4392508,1004.3777,0,0
69.12,-8.447137,5.6491213,-0.43451884,1004.3576,0,0
69.16,-8.413703,5.6395893,-0.23094174,1004.3727,0,0
69.2,-8.39461,5.8493185,-0.20727214,1004.3497,0,0
69.24,-8.126966,5.94465,-0.5055419,1004.33746,0,0
69.28,-8.021839,5.773055,-0.24041784,1004.34503,0,0
69.32,-8.417992,5.4870470000000005,-0.21195918,1004.3704,0,0
69.36,-8.475352,5.382183,-0.15514657,1004.36804,0,0
69.4,-8.288942,5.4727483,-0.320851,1004.34247,0,0
69.44,-8.298505,5.6014447,-0.32085118,1004.3654,0,0
69.48,-7.8826646999999985,5.720609,-0.28297615,1004.3533,0,0
69.52,-8.112098,5.639578,-0.33505490000000004,1004.3759,0,0
69.56,-8.169457000000001,5.5776124000000005,-0.27350786,1004.3608,0,0
69.6,-8.131222,5.5108805,-0.37293056,1004.37335,0,0
69.64,-8.398893,5.38695,-0.25930512,1004.3731,0,0
69.68,-7.992612400000001,5.463215,-0.3161182,1004.3583,0,0
69.72,-8.308082,5.4679823,-0.34925923,1004.3734,0,0
69.76,-7.7679677,5.725376,-0.34452507,1004.3407,0,0
69.8,-7.9830613,5.7015433,-0.29244688,1004.36084,0,0
69.84,-8.011742,5.577613,-0.30665028,1004.3735,0,0
69.88,-8.260294,5.453682,-0.33979136,1004.3533,0,0
69.92,-8.069105,5.5299473,-0.41080767,1004.35077,0,0
69.96,-8.016529,5.4727488,-0.42501113,1004.35596,0,0
70.0,-8.045211,5.525181,-0.46288654,1004.3609,0,0
70.04,-7.978296799999999,5.4965816,-0.28297946,1004.38104,0,0
70.08,-8.212507,5.391718,-0.31138605,1004.37115,0,0
70.12,-8.054777,5.4250836,-0.21196379,1004.37366,0,0
70.16,-8.150376,5.4250836,-0.32085538,1004.36096,0,0
70.2,-8.1694975,5.463216,-0.4060748,1004.38354,0,0
70.24,-7.9305105,5.601446,-0.33505908,1004.3886,0,0
70.28,-8.073908,5.448916400000001,-0.6569988,1004.36847,0,0
70.32,-8.17539,5.463243,-0.27361333,1004.3936,0,0
70.36,-8.199327,5.5252094000000005,-0.39197698,1004.39404,0,0
70.4,-8.04165,5.7015734,-0.27362198,1004.3915,0,0
70.44,-7.9365320000000015,5.6300764,-0.12685886,1004.39154,0,0
70.48,-8.041732000000001,5.520447,-0.38252077,1004.3866,0,0
70.52,-8.180399000000001,5.382218,-0.27836865,1004.38385,0,0
70.56,-7.9988074,5.386985,-0.16948111,1004.38904,0,0
70.6,-8.209173,5.401286,-0.20262702,1004.3765,0,0
70.64,-7.865064,5.5871825,-0.2405055,1004.41174,0,0
70.68,-8.022852,5.615783,-0.24524501,1004.41693,0,0
70.72,-7.7552304,5.5347532999999975,-0.08427951,1004.3817,0,0
70.76,-8.075524,5.5061545,0.06721713,1004.37146,0,0
70.8,-8.338460000000001,5.372692,-0.51511896,1004.359,0,0
70.84,-8.1090765,5.506157,-0.48671678,1004.3893,0,0
70.88,-8.133022,5.4394264,-0.39676744,1004.3842,0,0
70.92,-8.204761999999999,5.5919576,-0.07956633,1004.37396,0,0
70.96,-7.7124869999999985,5.687289700000001,-0.17425841,1004.3993,0,0
71.0,-7.91806,5.653925,-0.19793423,1004.3891,0,0
71.04,-7.94678,5.5204625,-0.24054758,1004.37146,0,0
71.08,-8.195388000000001,5.468031400000001,-0.36364746,1004.39166,0,0
71.12,-8.176313,5.4537325,-0.4488708,1004.3714,0,0
71.16,-8.119005,5.453734,-0.34471843,1004.3717,0,0
71.2,-7.985214999999997,5.6014985999999976,-0.15061186,1004.3996,0,0
71.24,-7.808411599999999,5.72543,-0.15061644,1004.38666,0,0
71.28,-7.9948679999999985,5.6872989999999985,-0.19323012,1004.3742,0,0
71.32,-8.069747,5.553796,-0.3729912,1004.3792,0,0
71.36,-8.084067,5.406032,-0.112597205,1004.3792,0,0
71.4,-8.174864999999999,5.415565,-0.24515878,1004.3642,0,0
71.44,-8.131827000000001,5.3917317,-0.5197525,1004.3843,0,0
71.48,-8.088792,5.5585613,-0.35878113,1004.36945,0,0
71.52,-7.8784646999999985,5.6538916,-0.26409164,1004.3893,0,0
71.56,-7.873663400000001,5.7444553,-0.48187226,1004.3617,0,0
71.6,-8.031376,5.6634235,-0.51027685,1004.3896,0,0
71.64,-7.887964699999999,5.7539873,-0.36350867,1004.3994,0,0
71.68,-8.093475,5.5061255,-0.40138203,1004.3918,0,0
71.72,-8.160376,5.4727597,-0.3824428,1004.3843,0,0
71.76,-7.811430499999997,5.415561,-0.29248735,1004.3846,0,0
71.8,-7.997825,5.4489264,-0.2782825,1004.3668,0,0
71.84,-8.227236,5.4155602,-0.41557848,1004.39484,0,0
71.88,-7.959548,5.5251904000000005,-0.5812809,1004.37445,0,0
71.92,-8.122042,5.6157546,-0.23566763,1004.4049,0,0
71.96,-7.9738493,5.6729527000000015,-0.7185752,1004.37445,0,0
72.0,-7.897355,5.6777186,-0.43924367,1004.3894,0,0
72.04,-8.112428,5.5537877,-0.33981952,1004.4071,0,0
72.08,-8.117189,5.5204214999999985,-0.3256146,1004.36676,0,0
72.12,-7.9976745,5.496588,-0.2735343,1004.37195,0,0
72.16,-7.916399,5.5156535999999985,-0.51972175,1004.3718,0,0
72.2,-7.9689584,5.5013537,-0.41556302,1004.35925,0,0
72.24,-8.131454,5.482287,-0.5244528,1004.40216,0,0
72.28,-8.21269,5.410788,-0.41555965,1004.37427,0,0
72.32,-8.151732,5.5252147,-0.26890105,1004.37933,0,0
72.36,-7.9079976,5.5585814,-0.52929646,1004.3794,0,0
72.4,-7.7837515,5.701578,-0.2215628,1004.3845,0,0
72.44,-7.951072,5.5633492,-0.45355114,1004.3566,0,0
72.48,-8.132731,5.4537187000000005,-0.37306875,1004.37195,0,0
72.52,-8.161439,5.4060545,-0.5813851999999999,1004.37964,0,0
72.56,-8.156691,5.396521599999999,-0.4156839,1004.35925,0,0
72.6,-8.018104,5.4203553,-0.18843499,1004.3768,0,0
72.64,-8.1902075,5.3869896,-0.24525069,1004.3819,0,0
72.68,-8.080299,5.472789,-0.16003391,1004.38226,0,0
72.72,-8.209382000000002,5.5538206,-0.022738669,1004.3843,0,0
72.76,-7.6931925,5.806449400000001,-0.39202493,1004.38214,0,0
72.8,-8.061264999999999,5.649153,-0.29733930000000003,1004.37445,0,0
72.84,-7.965699000000001,5.6157885,-0.38256148,1004.3819,0,0
72.88,-7.9944057,5.5967226,-0.23579739,1004.38214,0,0
72.92,-8.018333,5.5156918,-0.2926129,1004.39484,0,0
72.96,-8.018360000000001,5.5204597,-0.47252277,1004.3871,0,0
73.0,-7.965812700000002,5.5585923,-0.28788367,1004.392,0,0
73.04,-8.075775,5.4680285,-0.34469903,1004.3894,0,0
73.08,-7.970649199999999,5.5824265,-0.36837375,1004.3946,0,0
73.12,-8.028037,5.5681276,-0.31629813,1004.387,0,0
73.16,-8.128442,5.4727974,-0.6997876000000001,1004.3794,0,0
73.2,-8.257525999999999,5.325035,-0.30683464,1004.3718,0,0
73.24,-8.066361,5.3917675,-0.4346661,1004.41504,0,0
73.28,-7.889538000000001,5.539531,-0.33998063,1004.3974,0,0
73.32,-8.01764,5.477542400000001,-0.04636044,1004.3894,0,0
73.36,-8.089328,5.4346432999999985,-0.27361095,1004.3718,0,0
73.4,-8.376106,5.3154793,-0.48665828,1004.392,0,0
73.44,-8.127545,5.448942,-0.5671421999999999,1004.3845,0,0
73.48,-7.8455276,5.639605,-0.41090593,1004.38965,0,0
73.52,-7.9506745,5.6491370000000005,-0.44404593,1004.36926,0,0
73.56,-8.041481,5.491841,-0.34935692,1004.39966,0,0
73.6,-8.218322,5.4060426,-0.12683889999999998,1004.3996,0,0
73.64,-8.065358,5.444175,-0.37302706,1004.3996,0,0
73.68,-8.074908,5.4203415,-0.41090137,1004.3919,0,0
73.72,-7.9888616,5.444175,-0.5339949,1004.39215,0,0
73.76,-8.127466,5.515672,-0.5150564999999999,1004.3845,0,0
73.8,-8.070098,5.577637,-0.54819626,1004.36444,0,0
73.84,-8.003171,5.4441739999999985,-0.48191378,1004.367,0,0
73.88,-8.00794,5.4823055,-0.45824087,1004.392,0,0
73.92,-8.003150999999999,5.4441733,-0.34934866,1004.3896,0,0
73.96,-8.189554,5.4966054,-0.44403583,1004.37964,0,0
74.0,-8.093948,5.5347370000000025,-0.42036292,1004.36676,0,0
74.04,-8.476322999999999,5.4298730000000015,-0.48664373,1004.37933,0,0
74.08,-8.237322,5.52997,-0.31146985,1004.3796,0,0
74.12,-8.03178,5.5776353,-0.27832803,1004.3896,0,0
74.16,-7.730643,5.6634335999999985,-0.12209173,1004.4096,0,0
74.2,-7.711513,5.6729655,0.15723910000000002,1004.37933,0,0
74.24,-7.9218163,5.5347357000000015,0.04361417,1004.39215,0,0
74.28,-7.9361453,5.444171,-0.26885563,1004.3541,0,0
74.32,-8.29025,5.3488493,-0.2878298,1004.36676,0,0
74.36,-8.266356,5.4203477,-0.06057892700000001,1004.4069,0,0
74.4,-7.845741,5.6777425,-0.52928555,1004.3569,0,0
74.44,-7.936563499999999,5.701575,-0.28783146,1004.392,0,0
74.48,-8.027386,5.591944,-0.20261277,1004.38684,0,0
74.52,-8.223365,5.3679166,-0.16947258,1004.3794,0,0
74.56,-8.21381,5.463248,-0.20261392,1004.3566,0,0
74.6,-7.869670399999999,5.596711,-0.28783375,1004.38934,0,0
74.64,-7.8314395,5.7158760000000015,-0.46300733,1004.40216,0,0
74.68,-7.831444999999999,5.6729765,-0.38725743,1004.382,0,0
74.72,-7.974844999999997,5.644377,-0.4724773,1004.3768,0,0
74.76,-8.156483999999999,5.525214,-0.55296266,1004.3794,0,0
74.8,-7.979637599999997,5.4680157,-0.30677426,1004.3847,0,0
74.84,-7.970085000000001,5.5109143,-0.33044687,1004.37445,0,0
74.88,-8.204301,5.5681129999999985,-0.4346043,1004.3566,0,0
74.92,-7.9031796,5.7254095000000005,-0.6145123,1004.38934,0,0
74.96,-7.7789116,5.6872773,-0.8512331,1004.40216,0,0
75.0,-7.798036,5.7969089999999985,-0.6997327,1004.3717,0,0
75.04,-7.974895,5.568114,-0.21208957,1004.3971,0,0
75.08,-8.261689,5.401284,-0.15527733,1004.4021,0,0
75.12,-8.2186775,5.4584837,-0.45354545,1004.38934,0,0
75.16,-7.941455,5.682512,-0.6003124,1004.377,0,0
75.2,-7.5973163,5.854108,-0.81809574,1004.37445,0,0
75.24,-7.8745503,5.7635435999999975,-0.64765763,1004.37933,0,0
75.28,-7.836317999999999,5.7444777,-0.62872064,1004.3919,0,0
75.32,-8.109689,5.6587024,-0.30686545,1004.3843,0,0
75.36,-7.703446,5.7969337,-0.5293861,1004.377,0,0
75.4,-7.7560697,5.8922653,-0.6950946,1004.3617,0,0
75.44,-7.684413,5.8350677000000015,-0.87974006,1004.3566,0,0
75.48,-7.999923700000001,5.7492704,-0.42997554,1004.4046,0,0
75.52,-7.942608,5.69684,-0.3636978,1004.3692,0,0
75.56,-7.7323375,5.801705,-0.41104552,1004.3968,0,0
75.6,-7.8853339999999985,5.7349744000000005,-0.510472,1004.387,0,0
75.64,-7.794561,5.754041,-0.60989845,1004.4097,0,0
75.68,-8.090952,5.572913,-0.57676154,1004.41455,0,0
75.72,-7.9571614,5.639646,-0.37318608,1004.3919,0,0
75.76,-7.899840400000001,5.725445,-0.34951752,1004.3843,0,0
75.8,-7.837746000000001,5.7588124,-0.6051793000000001,1004.39685,0,0
75.84,-7.9286056,5.725447,-0.53416723,1004.41974,0,0
75.88,-7.976447,5.7063823,-0.8229698000000001,1004.3843,0,0
75.92,-7.809197,5.7349825,-0.6335977,1004.3847,0,0
75.96,-7.8140173,5.9161124,-0.5531164000000001,1004.3794,0,0
76.0,-7.7519255,5.8017163,-0.5105109999999999,1004.3944,0,0
76.04,-7.9670606,5.763585,-0.44896767,1004.3894,0,0
76.08,-7.8284864,5.739753,-0.21225113,1004.36414,0,0
76.12,-7.8954444000000015,5.77312,-0.25486445,1004.36444,0,0
76.16,-7.603919,5.9685497000000005,-0.3542909,1004.3718,0,0
76.2,-7.5227056,5.9542519999999985,-0.6620312,1004.3792,0,0
76.24,-7.981607,5.768357,-0.931896,1004.3846,0,0
76.28,-7.9625309999999985,5.7302256,-0.7567269,1004.377,0,0
76.32,-7.893766999999999,5.6872807,-0.6476665,1004.3897,0,0
76.36,-7.9510894,5.606249,-0.49616238,1004.3894,0,0
76.4,-7.807664,5.744478,-0.56244123,1004.3717,0,0
76.44,-7.855428999999999,5.6253133,-0.42514044,1004.392,0,0
76.48,-7.869737599999999,5.672978,-0.2736367,1004.392,0,0
76.52,-7.879262400000001,5.692044,-0.6807923,1004.377,0,0
76.56,-7.941367999999999,5.7015753,-0.7518054,1004.3843,0,0
76.6,-7.941335,5.682509,-0.86542815,1004.3971,0,0
76.64,-8.003442,5.7397065000000005,-0.6760491999999999,1004.38184,0,0
76.68,-7.8504580000000015,5.7254057000000005,-0.5434829999999999,1004.3845,0,0
76.72,-7.8408628,5.658674,-0.52927655,1004.41974,0,0
76.76,-7.8790727,5.644373000000001,-0.5387428000000001,1004.392,0,0
76.8,-8.079789,5.6157727,-0.3730354,1004.39685,0,0
76.84,-8.003281,5.682504,-0.7517849,1004.3843,0,0
76.88,-7.6973410000000015,5.8112,-0.79912597,1004.3794,0,0
76.92,-7.845484299999999,5.730168,-0.8512016,1004.37445,0,0
76.96,-7.960164,5.5919366,-0.77071345,1004.37933,0,0
77.0,-7.9171133,5.682501,-0.54819345,1004.3745,0,0
77.04,-7.8214836,5.5728693,-0.5955345000000001,1004.3718,0,0
77.08,-7.907489999999999,5.6062346,-0.76123583,1004.3894,0,0
77.12,-7.826202,5.692032,-0.6381385,1004.37445,0,0
77.16,-7.902644,5.7110970000000005,-0.7233545,1004.37195,0,0
77.2,-7.959967999999999,5.711096,-0.7375547,1004.39716,0,0
77.24,-7.9933944000000015,5.858859,-0.56237876,1004.38684,0,0
77.28,-7.687456,5.854091,-0.62392324,1004.3819,0,0
77.32,-7.7073307,5.8827089999999975,-0.60032034,1004.4047,0,0
77.36,-7.802925599999999,5.711113,-0.59085137,1004.36926,0,0
77.4,-7.9988966,5.6205482,-0.50089765,1004.3771,0,0
77.44,-7.965436,5.553817,-0.56244475,1004.3945,0,0
77.48,-8.018011999999999,5.5871825,-0.5624446,1004.3593,0,0
77.52,-7.7025447,5.8112106,-0.5577101,1004.3819,0,0
77.56,-7.879396400000001,5.7826114,-0.66186684,1004.38214,0,0
77.6,-7.8937339999999985,5.6777472,-0.70447636,1004.3718,0,0
77.64,-7.9080725,5.7492449999999975,-0.6997419,1004.3845,0,0
77.68,-7.8459334,5.6634480000000025,-0.7328826,1004.36414,0,0
77.72,-8.1375,5.510917,-0.74708575,1004.36945,0,0
77.76,-7.702536999999999,5.7635446,-0.6713351,1004.382,0,0
77.8,-7.8841677,5.7683114999999985,-0.51983404,1004.38684,0,0
77.84,-7.879388,5.782611,-0.6476629,1004.387,0,0
77.88,-7.7981289999999985,5.777844,-0.6997412,1004.3843,0,0
77.92,-7.888944,5.773078,-0.5719122,1004.38934,0,0
77.96,-7.845925,5.7349453,-0.59084964,1004.3946,0,0
78.0,-7.8363633,5.796911,-0.7186785,1004.38684,0,0
78.04,-7.793344,5.720646,-0.58138055,1004.37445,0,0
78.08,-7.807682000000002,5.7683114999999985,-0.48195803,1004.3768,0,0
78.12,-7.826800299999999,5.792144,-0.53877074,1004.387,0,0
78.16,-7.8698172999999985,5.7444787,-0.60978675,1004.36694,0,0
78.2,-7.817239,5.9446735,-0.6902715,1004.3742,0,0
78.24,-7.7885585000000015,5.9446735,-0.69974023,1004.3717,0,0
78.28,-7.845915,5.801677,-0.59558314,1004.38184,0,0
78.32,-7.931698299999999,5.7063394,-0.42985582,1004.3692,0,0
78.36,-7.812192,5.6682067000000025,-0.42038602,1004.4019,0,0
78.4,-7.9507949999999985,5.682506,-0.6571052,1004.38684,0,0
78.44,-7.850408,5.8207364,-0.6855106,1004.38934,0,0
78.48,-7.7691407,5.954199299999999,-0.7612601,1004.3893,0,0
78.52,-7.697432000000001,5.8922339999999975,-0.73285264,1004.37427,0,0
78.56,-7.793016400000001,5.7587699999999975,-0.5671475,1004.37195,0,0
78.6,-8.008096,5.6062403,-0.67130315,1004.4071,0,0
78.64,-8.017645,5.625306,-0.61922383,1004.3718,0,0
78.68,-7.816882,5.7826023,-0.80386454,1004.36414,0,0
78.72,-7.9650445,5.782602,-0.7565195,1004.36664,0,0
78.76,-7.7595024000000015,5.8445663,-0.8133313,1004.3692,0,0
78.8,-7.7499304,5.7111025,-0.6665637,1004.382,0,0
78.84,-7.9697914,5.7111025,-0.5813435,1004.412,0,0
78.88,-7.812044999999999,5.653904,-0.7849218000000001,1004.3843,0,0
78.92,-7.9936669999999985,5.5824050000000005,-0.6854983,1004.36664,0,0
78.96,-7.9888762999999985,5.6110044000000014,-0.88434225,1004.3945,0,0
79.0,-7.9936440000000015,5.7349343,-0.89854443,1004.38184,0,0
79.04,-7.8359003,5.8493314000000005,-0.7754489999999999,1004.3918,0,0
79.08,-7.711614599999999,5.8969964999999975,-0.8511984,1004.36163,0,0
79.12,-7.835878,5.7635326,-0.5055859,1004.3996,0,0
79.16,-7.8884435,5.7206335,-0.4298342000000001,1004.377,0,0
79.2,-7.8215156000000015,5.777832,-0.35408273,1004.387,0,0
79.24,-7.854964,5.8064313,-0.6618181,1004.3896,0,0
79.28,-7.7975945000000015,5.8159637,-0.9269436,1004.382,0,0
79.32,-7.754974000000002,5.7206426,-0.8749016,1004.38666,0,0
79.36,-7.8027773,5.687277,-0.77074516,1004.364,0,0
79.4,-7.8458004,5.620545,-0.63344795,1004.3515,0,0
79.44,-7.879264,5.6443777000000015,-0.5908386999999999,1004.3893,0,0
79.48,-7.974864500000002,5.6110120000000006,-0.6192456000000001,1004.40186,0,0
79.52,-7.888833,5.720643,-0.57190204,1004.3717,0,0
79.56,-7.664188,5.854107,-0.80862266,1004.3717,0,0
79.6,-8.056136,5.6634449999999985,-0.75181025,1004.3794,0,0
79.64,-7.979664,5.6491446,-0.87490517,1004.3667,0,0
79.68,-7.96055,5.6586785000000015,-0.79915524,1004.3896,0,0
79.72,-7.821941000000002,5.6253129999999985,-0.510357,1004.3717,0,0
79.76,-7.841064500000001,5.6300792999999985,-0.2736372,1004.3717,0,0
79.8,-7.8267303,5.6300792999999985,-0.6145148,1004.38666,0,0
79.84,-8.027488,5.6205463,-0.7612818,1004.3692,0,0
79.88,-8.151767999999999,5.396518,-0.9837993,1004.3893,0,0
79.92,-8.19957,5.520449,-1.1873791,1004.4069,0,0
79.96,-7.8936687,5.5490484,-1.495116,1004.377,0,0
80.0,-7.989269,5.47755,-1.3530843,1004.3791,1,4
80.04,-7.970155,5.3822193,-1.2015837,1004.3565,1,4
80.08,-7.951040700000001,5.372686,-1.3625541,1004.3893,1,4
80.12,-8.276072000000001,5.1343584,-1.1589751,1004.3767,1,4
80.16,-7.898472,5.3869862999999985,-1.0642873,1004.3793,1,4
80.2,-7.702506,5.2821217,-1.0169439,1004.3817,1,4
80.24,-7.8698034,5.4060526,-0.8985841999999998,1004.3943,1,4
80.28,-7.7264149999999985,5.36792,-0.87017816,1004.37396,1,4
80.32,-7.878964999999999,5.6872690000000015,-1.054783,1004.3843,1,4
80.36,-7.639962700000001,5.958963,-1.0453132,1004.3893,1,4
80.4,-7.3483844,6.154392,-0.9458896,1004.3843,1,4
80.44,-8.839671000000003,5.8731647,-1.0169046,1004.3741,1,4
80.48,-9.585308,5.7587667,-0.1883828,1004.40186,1,4
80.52,-8.323428999999999,5.863631,0.15249538,1004.39166,1,4
80.56,-8.280401,5.744467,-0.041614313,1004.3716,1,4
80.6,-8.533717999999999,5.763532,-0.5387257,1004.36145,1,4
80.64,-7.716361999999997,5.8779297,-0.48191184,1004.37646,1,4
80.68,-7.2049108,5.54427,-0.6902246,1004.3765,1,4
80.72,-7.133203,5.11528,-0.8985373999999999,1004.3843,1,4
80.76,-6.559614,4.9007845,-0.29726684,1004.3968,1,4
80.8,-6.90375,5.4298720000000005,-0.30200028,1004.38666,1,4
80.84,-8.070011000000001,5.7635307000000005,0.21878520000000004,1004.3866,1,4
80.88,-9.045079,6.4308486,1.3408401,1004.4169,1,4
80.92,-8.495391,7.131532000000001,0.5833364000000001,1004.38403,1,4
80.96,-8.289844500000001,7.5652884999999985,-0.03213489,1004.3714,1,4
81.0,-8.557506,6.969469,-0.4440273,1004.39154,1,4
81.04,-7.276507400000002,6.659642,-1.2536094,1004.37897,1,4
81.08,-6.798516,5.6920314,-1.6134232,1004.3614,1,4
81.12,-8.461875,4.924615,-0.5481811,1004.4116,1,4
81.16,-7.2764735,5.458469,-0.63339937,1004.38654,1,4
81.2,-7.5871496,5.9541907,-0.96954113,1004.3738,1,4
81.24,-8.275428,6.0733542,-0.31145766,1004.39404,1,4
81.28,-7.5202103,5.944657,-0.82750696,1004.3741,1,4
81.32,-6.942628,5.4251213,-1.2536741000000002,1004.3767,1,4
81.36,-6.2352357000000005,5.177261,-1.3341608,1004.39154,1,4
81.4,-6.870971000000001,4.753038,-1.0264264,1004.37646,1,4
81.44,-7.597521,4.5528426,-2.020653,1004.3741,1,4
81.48,-8.677776,4.548076999999998,-1.6040274,1004.3639,1,4
81.52,-8.854648,5.7301835999999975,-1.1163856,1004.3815,1,4
81.56,-8.82121,7.212583500000001,-0.8323229999999999,1004.37396,1,4
81.6,-7.984764999999999,7.393713000000001,0.10035278,1004.38403,1,4
81.64,-7.320391000000001,6.6834965,0.3465401,1004.39154,1,4
81.68,-8.663536,4.9103379999999985,0.053005137,1004.3891,1,4
81.72,-9.595619,3.8664625,-0.53879744,1004.3563,1,4
81.76,-10.809708,3.466072,-0.4015014,1004.3815,1,4
81.8,-10.365206,4.204889,1.4496491000000002,1004.4267,1,4
81.84,-7.6885357,5.267831299999999,1.3360215,1004.3966,1,4
81.88,-7.373092999999999,5.363163,0.16662133,1004.36896,1,4
81.92,-7.755499,5.2916656,-0.02275681,1004.37146,1,4
81.96,-7.8654537,4.7768774,0.346525,1004.3686,1,4
82.0,-7.119824,4.548083,0.51696175,1004.35846,1,4
82.04,-6.6800985,4.514718,1.4259659,1004.3966,1,4
82.08,-7.1915565,5.3155,1.5395899,1004.3764,1,4
82.12,-7.607423299999999,6.144881,0.22342314,1004.37646,1,4
82.16,-9.122641,7.322221000000001,1.530117,1004.40924,1,4
82.2,-7.674383,7.203058,0.64004695,1004.37885,1,4
82.24,-8.008987,6.478542,-1.0832782,1004.3358,1,4
82.28,-10.604442,5.134373,-0.64771473,1004.38367,1,4
82.32,-10.641691,4.3335676,-1.3483161,1004.3459,1,4
82.36,-8.557677,3.9093435,-1.4998152,1004.37604,1,4
82.4,-9.418022,3.3993216,0.32293233,1004.394,1,4
82.44,-7.5777717,3.4946518,-0.69969666,1004.38855,1,4
82.48,-6.63135,3.771112000000002,-1.5613563,1004.3735,1,4
82.52,-6.5357404,3.999906,-0.87960094,1004.37146,1,4
82.56,-7.6733093,3.8807416,-0.49137747,1004.4062,1,4
82.6,-8.6579275,4.3287973,-1.6323671,1004.38885,1,4
82.64,-9.499152,5.1724772,-0.5434521,1004.3911,1,4
82.68,-9.996233,5.6443660000000015,-0.022665838,1004.4014,1,4
82.72,-9.59471,6.221119,-0.9174665,1004.3661,1,4
82.76,-9.6185875,6.1019545,-1.2630762,1004.38385,1,4
82.8,-10.115672,5.186775,-0.09841123,1004.38654,1,4
82.84,-8.256305000000001,5.0580773,-0.75175685,1004.37885,1,4
82.88,-8.643448,4.667219599999999,0.82480174,1004.3961,1,4
82.92,-8.313622,4.5861874,1.7858877,1004.4165,1,4
82.96,-7.567957400000001,4.7101172999999985,0.85794586,1004.37854,1,4
83.0,-7.9407573,4.4622564,-0.12207374,1004.3738,1,4
83.04,-7.792563,4.652918,-0.240432,1004.3738,1,4
83.08,-6.4733186,5.2344375,-0.20728943,1004.38654,1,4
83.12,-7.123357,5.220137599999998,0.06257302,1004.38904,1,4
83.16,-7.1089926,5.9541864,0.13359129999999994,1004.37604,1,4
83.2,-5.7801860000000005,7.555749400000002,-0.5386922,1004.38354,1,4
83.24,-6.3824263,7.889408,-0.79908305,1004.37885,1,4
83.28,-8.585892,7.946606,0.029439967,1004.38367,1,4
83.32,-8.897191000000003,7.007609,-1.3530623,1004.38104,1,4
83.36,-9.0883875,6.416556,-0.33516574,1004.38855,1,4
83.4,-8.089414999999999,6.0828977,-0.52454233,1004.3659,1,4
83.44,-7.654456,5.625308,-1.3862044,1004.37854,1,4
83.48,-9.002367,4.581432,-0.439324,1004.37854,1,4
83.52,-8.8016205,4.357404,-0.4440589,1004.41113,1,4
83.56,-6.416503,4.629098,-1.2962521,1004.35583,1,4
83.6,-6.545563,4.4813347000000014,-1.0690012,1004.37354,1,4
83.64,-6.2109823,5.0104227,-1.8880538,1004.36597,1,4
83.68,-7.1382685,5.0628552,-1.2157687,1004.40405,1,4
83.72,-8.022537,5.258284,-1.3578012,1004.386,1,4
83.76,-8.79209,5.7349396,-1.0074557,1004.35834,1,4
83.8,-9.327433,6.3641253,-1.1400195,1004.36346,1,4
83.84,-9.011971,6.583387400000001,-1.4382875,1004.3483,1,4
83.88,-10.049193,5.7206407,-0.47246936,1004.3709,1,4
83.92,-8.204195,5.701574,-0.19313997,1004.38855,1,4
83.96,-8.347594,5.7111073,0.45547298,1004.4062,1,4
84.0,-8.266341,5.5919433,0.30870602,1004.38635,1,4
84.04,-8.185089999999999,5.258285,0.0009692479,1004.37854,1,4
84.08,-7.855289,5.344083,0.23768902,1004.37604,1,4
84.12,-7.224360000000001,5.2344522000000016,0.048312373,1004.37354,1,4
84.16,-6.841981,5.1200547,0.043577507,1004.394,1,4
