Timestamp,Ax,Ay,Az,P,LPFRMSAcc,LPFPValue,Value,Detection,Type
0.0,1.5157774686813354,4.7111430168151855,9.05015754699707,986.76025390625,0.03713374993129388,3.552336755260667,0,0
0.0,1.5157774686813354,4.7111430168151855,9.05015754699707,986.7596435546875,0.03713374993129388,10.23072764094633,0,0
0.08,2.5004167556762695,4.846989154815674,8.60038948059082,986.7821655273438,0.10647353539308893,19.647338812262475,0,0
0.12,1.343704342842102,4.849372386932373,9.104602813720703,986.7769775390625,0.3328945195127745,31.449522936020436,0,0
0.12,1.343704342842102,4.849372386932373,9.104602813720703,986.7920532226562,0.3328945195127745,45.31716571609957,0,0
0.2,1.2552779912948608,4.82792329788208,8.964938163757324,986.8023681640625,0.4796987295790538,60.95996137145769,0,0
0.24,1.4751490354537964,4.775491237640381,9.41234016418457,986.7967529296875,0.6460535291263554,78.11494781577804,0,0
0.28,1.420181155204773,4.9018049240112305,9.691669464111328,986.7888793945312,0.8301504323041159,96.54431973361443,0,0
0.32,1.1883606910705566,4.680160045623779,9.189823150634766,986.78369140625,1.0272021684241661,116.03337422920359,0,0
0.36,0.5598165392875671,4.12723970413208,8.638264656066895,986.8133544921875,1.2321429676908866,136.38871043108992,0,0
0.4,0.9183018207550049,4.110556602478027,8.74242115020752,986.7833251953125,1.4437277606111318,157.43610582316313,0,0
0.44,1.0999342203140259,4.010458946228027,8.976774215698242,986.7626953125,1.6611023090730563,179.01915981557548,0,0
0.48,0.9159119129180908,3.8650786876678467,8.510435104370117,986.7701416015625,1.8810048397048598,200.9978495509383,0,0
0.52,1.0043383836746216,3.745914936065674,9.23006534576416,986.8001098632812,2.104581312963611,223.24710762340072,0,0
0.56,1.1883608102798462,3.8555455207824707,8.737687110900879,986.77978515625,2.32920399347461,245.65526937294314,0,0
0.6,0.9326412677764893,3.7935805320739746,8.754257202148438,986.7822265625,2.55380631372035,268.1231778111939,0,0
0.64,0.9565402269363403,3.686332941055298,8.697444915771484,986.7922973632812,2.777252183342735,290.5630302013949,0,0
0.68,0.7533985376358032,3.8221797943115234,8.157722473144531,986.7617797851562,2.9972355402590534,312.89719892936375,0,0
0.72,0.32082635164260864,3.815030097961426,7.487804412841797,986.7713623046875,3.2110980339828696,335.05761705711626,0,0
0.76,0.15831297636032104,4.043824672698975,7.60379695892334,986.8041381835938,3.4195161888973136,356.9848496368551,0,0
0.8,0.275418221950531,3.927043914794922,8.458356857299805,986.7736206054688,3.624950748371241,378.6269915605774,0,0
0.84,0.26585859060287476,3.6339006423950195,9.544902801513672,986.7962036132812,3.8302030408963597,399.93939696362855,0,0
0.88,0.35428494215011597,3.619601011276245,9.739013671875,986.77587890625,4.035200589637988,420.8836493440021,0,0
0.92,0.40208297967910767,3.5957682132720947,10.176946640014648,986.7504272460938,4.240693274720594,441.4271107746539,0,0
0.96,0.6697520017623901,3.6410508155822754,9.86210823059082,986.7472534179688,4.4449228263128475,461.5424654311194,0,0
1.0,0.993212103843689,3.8412845134735107,9.303304672241211,986.7576904296875,4.645788806648255,481.2071672345549,0,0
1.04,0.8235057592391968,3.6863718032836914,9.180208206176758,986.7799682617188,4.842286051865597,500.4029594471464,0,0
1.08,0.787634015083313,3.681605815887451,8.983728408813477,986.7775268554688,5.033545438713509,519.1153095008503,0,0
1.12,0.787610650062561,3.6935229301452637,9.111556053161621,986.7796020507812,5.219929018617193,537.3331330702841,0,0
1.16,0.33828580379486084,3.37416410446167,8.955317497253418,986.7796020507812,5.400298904518189,555.0484088703712,0,0
1.2,0.21637749671936035,3.4361298084259033,8.526851654052734,986.7666015625,5.573337196935626,572.2558116640117,0,0
1.24,0.2880513072013855,3.9032530784606934,8.543420791625977,986.7415161132812,5.739999931450374,588.952420908839,0,0
1.28,0.13029444217681885,3.9938182830810547,8.342205047607422,986.7589721679688,5.899898623072522,605.1376480199605,0,0
1.32,0.02511543035507202,3.9985852241516113,9.054731369018555,986.76123046875,6.05557955377566,620.8127591876832,0,0
1.36,0.3620683550834656,4.089150428771973,9.847742080688477,986.8014526367188,6.209747990444426,635.980846305215,0,0
1.4,0.49587953090667725,3.8651227951049805,10.624183654785156,986.7787475585938,6.3643547568479395,650.6462401180305,0,0
1.44,0.21623778343200684,3.579130172729492,10.385093688964844,986.7733154296875,6.5176056565141165,664.8146391514666,0,0
1.48,0.3763378858566284,4.141584396362305,9.118637084960938,986.7808227539062,6.665634579343351,678.4929143858628,0,0
1.52,0.3452458381652832,4.5658087730407715,8.524467468261719,986.7529296875,6.807271618690832,691.6887740238325,0,0
1.56,0.3667316436767578,4.42042875289917,9.357721328735352,986.7828369140625,6.945196637246533,704.4109738105006,0,0
1.6,0.6534966230392456,3.9604568481445312,10.501077651977539,986.7928466796875,7.0825360466605805,716.6688838669647,0,0
1.64,0.6200146675109863,3.0929441452026367,11.31775951385498,986.7623291015625,7.22068893557679,728.4723091769149,0,0
1.68,0.8733210563659668,2.9070491790771484,9.637044906616211,986.7598266601562,7.353139931940812,739.8316504236011,0,0
1.72,1.1672557592391968,3.340806245803833,7.617818355560303,986.7318725585938,7.473941173547199,750.7576047274786,0,0
1.76,1.1791818141937256,3.6125006675720215,7.1301727294921875,986.7802124023438,7.58286153130634,761.2614589154425,0,0
1.8,1.2723647356033325,3.7888636589050293,7.246163368225098,986.7621459960938,7.681596484726072,771.354466525736,0,0
1.84,1.0524704456329346,3.8079307079315186,7.5846710205078125,986.7720947265625,7.771971835287049,781.0481510869846,0,0
1.88,1.0596168041229248,4.155889987945557,7.8687334060668945,986.7791748046875,7.856110333179628,790.3541220249734,0,0
1.92,1.078712821006775,4.2321553230285645,9.073637008666992,986.80712890625,7.938425242282595,799.2841083439096,0,0
1.96,0.9902631044387817,3.943779468536377,9.82877254486084,986.76904296875,8.020872379267532,807.8495895924641,0,0
2.0,1.0362366437911987,4.182093143463135,9.592103958129883,986.776611328125,8.102702709637285,816.0621856736103,0,1
2.04,0.6036643981933594,4.1701765060424805,8.522128105163574,986.75341796875,8.180063152880725,823.9333235780845,0,1
2.08,0.1256839632987976,3.955681324005127,8.290142059326172,986.7814331054688,8.252041594464442,831.4745137949615,0,1
2.12,0.027697980403900146,3.984281063079834,8.48898696899414,986.7732543945312,8.319693517486487,838.6969845062602,0,1
2.16,-0.1802234947681427,3.9699811935424805,8.429807662963867,986.7509765625,8.383070405056715,845.6117535670395,0,1
2.2,-0.3355671167373657,4.051012992858887,8.384830474853516,986.76806640625,8.44243665483178,852.229805803637,0,1
2.24,-0.4383329153060913,4.003347396850586,9.05238151550293,986.7678833007812,8.50016798351021,858.5618534065924,0,1
2.28,-0.5195895433425903,3.927082061767578,9.29146957397461,986.77294921875,8.556941156255498,864.6184101806651,0,1
2.32,-0.40009447932243347,4.058162689208984,9.592103958129883,986.77294921875,8.61382344372849,870.4097396534526,0,1
2.36,-0.2949388027191162,4.096295356750488,9.899839401245117,986.7958374023438,8.671659314897967,875.9459478937115,0,1
2.4,-0.2423609495162964,4.053395748138428,9.679691314697266,986.755126953125,8.72933399904389,881.2366541051922,0,1
2.44,0.037257611751556396,4.3489227294921875,9.104459762573242,986.7526245117188,8.785193315851203,886.2913791724814,0,1
2.48,0.23800933361053467,4.594399929046631,8.957693099975586,986.7598266601562,8.83917600167221,891.1194202178652,0,1
2.52,0.06354650855064392,4.360838890075684,8.99083423614502,986.7774047851562,8.891028145311942,895.7298455946121,0,1
2.56,-0.17066389322280884,4.217842102050781,9.158905982971191,986.7596435546875,8.94114257462363,900.1313242944248,0,1
2.6,-0.38814496994018555,3.7888522148132324,9.237024307250977,986.7748413085938,8.989204715106105,904.3323870987678,0,1
2.64,-0.6701533794403076,3.238314628601074,9.854863166809082,986.7821044921875,9.036732950303001,908.3412647389343,0,1
2.68,-0.6032361388206482,3.707820415496826,8.621551513671875,986.7717895507812,9.080052541392941,912.1658584744571,0,1
2.72,-0.7514100670814514,3.9914307594299316,8.448745727539062,986.7819213867188,9.119389007200688,915.8138868887282,0,1
2.76,-0.5219794511795044,3.8817999362945557,9.629979133605957,986.8072509765625,9.158742592743234,919.292860469117,0,1
2.8,-0.44789251685142517,3.805534839630127,10.235982894897461,986.7891235351562,9.199890814761646,922.6098676343744,0,1
2.84,-0.5841169357299805,3.7912354469299316,9.573165893554688,986.7637329101562,9.2402569554404,925.7717286429577,0,1
2.88,-0.3977045714855194,3.912782669067383,9.132866859436035,986.7711181640625,9.278456890420872,928.7851463945765,0,1
2.92,-0.32122769951820374,4.089145183563232,8.496088981628418,986.7788696289062,9.312771728593127,931.6565792855112,0,1
2.96,-0.29559069871902466,4.012896537780762,9.06179141998291,986.7736206054688,9.34526025549294,934.3921982984692,0,1
3.0,-0.20480094850063324,4.003363609313965,9.073624610900879,986.7808837890625,9.376034929423056,936.9979900876865,0,1
3.04,0.05089205503463745,4.1153788566589355,9.35531997680664,986.7656860351562,9.406267910521985,939.4796309794899,0,1
3.08,-0.054290205240249634,3.986682415008545,9.078354835510254,986.7808837890625,9.434814272199281,941.8426929428861,0,1
3.12,0.11775624752044678,4.091547012329102,8.898445129394531,986.7501220703125,9.461333568817434,944.0923607997461,0,1
3.16,0.3184814453125,4.101080894470215,9.194342613220215,986.778076171875,9.486966388210563,946.2338354544121,0,1
3.2,0.42122071981430054,3.991450786590576,9.248785018920898,986.77294921875,9.5117580936398,948.2719828297043,0,1
3.24,0.6147761940956116,3.805555582046509,9.492605209350586,986.8003540039062,9.536305420717639,950.211591547493,0,1
3.28,0.655377984046936,3.583911418914795,9.490234375,986.805419921875,9.56026072964032,952.0571671533181,0,1
3.32,0.7700667381286621,3.633960723876953,8.84872055053711,986.77490234375,9.581559169800325,953.8129011658485,0,1
3.36,0.715072512626648,3.707843065261841,7.925509929656982,986.7571411132812,9.597489724926758,955.4828665635721,0,1
3.36,0.715072512626648,3.707843065261841,7.925509929656982,986.7822875976562,9.597489724926758,957.0711254650669,0,1
3.44,1.221678614616394,3.8579912185668945,8.316093444824219,986.7467041015625,9.620098485710695,958.5813426737801,0,1
3.44,1.221678614616394,3.8579912185668945,8.316093444824219,986.7698974609375,9.620098485710695,960.017248956808,0,1
3.52,1.274229884147644,3.8436920642852783,8.308989524841309,986.7518310546875,9.627502106583735,961.382259804144,0,1
3.56,1.4558359384536743,3.908041477203369,8.597785949707031,986.7769775390625,9.633785975332076,962.6798039327193,0,1
3.6,1.355433464050293,3.774578094482422,8.85580825805664,986.7697143554688,9.639654615477943,963.9130371622061,0,1
3.64,1.1044672727584839,3.7197635173797607,8.557538032531738,986.77197265625,9.643963584564306,965.0850137714501,0,1
3.68,1.0303536653518677,3.9437923431396484,8.63565444946289,986.7515869140625,9.647430295201193,966.1985715265249,0,1
3.72,1.0805152654647827,3.955709218978882,9.457070350646973,986.769287109375,9.652870909804452,967.256565294781,0,1
3.76,1.0948281288146973,3.684015989303589,10.389745712280273,986.7892456054688,9.662807942181095,968.2617257972477,0,1
3.8,1.116310715675354,3.588685989379883,10.496267318725586,986.7666015625,9.676937984283558,969.2165027296519,0,1
3.84,1.0206880569458008,3.71738338470459,9.412086486816406,986.7538452148438,9.691201709066274,970.1232776196955,0,1
3.88,0.7625521421432495,3.9008965492248535,8.06277847290039,986.7691040039062,9.701278158070265,970.984428447099,0,1
3.92,0.4590080976486206,3.7960331439971924,7.984658241271973,986.77392578125,9.707127844705614,971.802183068131,0,1
3.96,0.3131974935531616,3.950946807861328,8.181134223937988,986.7565307617188,9.710077127700757,972.5785862624701,0,1
4.0,0.03757816553115845,3.9724154472351074,8.536142349243164,986.7765502929688,9.71162178767836,973.3157283549566,0,1
4.04,-0.12021222710609436,3.8699357509613037,9.172914505004883,986.7714233398438,9.713868445403179,974.0155071692477,0,1
4.08,-0.24454393982887268,3.977184772491455,9.854663848876953,986.7714233398438,9.719150865401062,974.6797525871611,0,1
4.12,-0.4238434433937073,4.222663402557373,9.509048461914062,986.776123046875,9.726316603461827,975.3102263314446,0,1
4.16,-0.47647812962532043,4.537257671356201,9.189470291137695,986.763427734375,9.734568190055047,975.9085440162772,0,1
4.2,-0.5888603925704956,4.69932222366333,9.31019115447998,986.7658081054688,9.744418913390433,976.4763032326222,0,1
4.24,-0.8087881803512573,4.530110836029053,9.653430938720703,986.7732543945312,9.7565420276304,977.0150438596465,0,1
4.28,-1.0860737562179565,4.387115478515625,9.239165306091309,986.7888793945312,9.76915773121036,977.5262604448634,0,1
4.32,-0.8280210494995117,4.465764999389648,9.513755798339844,986.7481079101562,9.783088297731918,978.0111696296723,0,1
4.36,-0.6082069873809814,4.389501571655273,9.809650421142578,986.760498046875,9.79892915647864,978.4711325268846,0,1
4.4,-0.6154335141181946,4.017711639404297,9.60606575012207,986.7684326171875,9.815200123531211,978.907425582379,0,1
4.44,-0.29285359382629395,4.041545867919922,9.46876335144043,986.778076171875,9.831320211779595,979.321268027508,0,1
4.48,-0.053920239210128784,4.01056432723999,8.917200088500977,986.7808227539062,9.84537099015653,979.7137931681929,0,1
4.52,0.024889647960662842,3.8580360412597656,8.408246040344238,986.765380859375,9.855647035960727,980.0860136573298,0,1
4.56,0.32118064165115356,3.8985531330108643,8.58578109741211,986.7579345703125,9.863212289244315,980.4389261559432,0,1
4.6,0.46929776668548584,3.9962689876556396,8.209390640258789,986.76806640625,9.867302219917418,980.7735441037285,0,1
4.64,0.8325059413909912,4.325162887573242,8.498184204101562,986.7632446289062,9.86985224765894,981.0907750033783,0,1
4.68,1.2793608903884888,4.8900017738342285,8.76093864440918,986.7554321289062,9.872986147106113,981.3914725510456,0,1
4.72,0.7678649425506592,4.55396032333374,8.4887056350708,986.7679443359375,9.875001676538687,981.6765237616607,0,1
4.76,0.4021531343460083,4.258435249328613,8.450824737548828,986.7830200195312,9.875330581720986,981.9467779569455,0,1
4.8,0.6506460309028625,4.463398456573486,8.668601989746094,986.7654418945312,9.875248828852706,982.2029213131232,0,1
4.84,0.7892035245895386,4.632612705230713,8.7490816116333,986.7799072265625,9.875378308744516,982.4457262909665,0,1
4.88,0.9182013273239136,4.63023042678833,8.692262649536133,986.7573852539062,9.875549983853816,982.6757903006858,0,1
4.92,0.7890897989273071,4.6564483642578125,8.521820068359375,986.77783203125,9.875224591843653,982.8938417689221,0,1
4.96,0.7412348985671997,4.6612162590026855,8.872159957885742,986.76513671875,9.87556430814153,983.1004482670869,0,1
5.0,0.378071665763855,4.475318431854248,8.403464317321777,986.7697143554688,9.874614538096667,983.2962146857868,0,1
5.04,-0.05694091320037842,4.322789669036865,8.083887100219727,986.7499389648438,9.871228904962786,983.4816268597536,0,1
5.08,0.19394820928573608,4.770846843719482,7.830591678619385,986.7675170898438,9.865718399736691,983.6572858204887,0,1
5.12,0.47590601444244385,4.63738489151001,7.889766693115234,986.7777099609375,9.858323391510275,983.8237311640812,0,1
5.16,-0.07143199443817139,3.896186351776123,8.995245933532715,986.772216796875,9.851590179307667,983.9814163769336,0,1
5.2,-0.0858219563961029,4.2250800132751465,8.460253715515137,986.7725219726562,9.844220128939472,984.1307945701246,0,1
5.24,0.1292186677455902,4.518225193023682,8.545469284057617,986.7701416015625,9.837070926213965,984.2722863499063,0,1
5.28,-0.11221198737621307,4.229848861694336,8.836629867553711,986.77978515625,9.83061129027854,984.4063350411825,0,1
5.32,-0.40144068002700806,3.9986724853515625,9.423690795898438,986.772216796875,9.826394728830367,984.5332971980691,0,1
5.36,-0.5711742043495178,3.97007417678833,9.111215591430664,986.78271484375,9.823131941307594,984.6535784223668,0,1
5.4,-0.7910957932472229,4.101155757904053,8.535981178283691,986.7899780273438,9.819096704777733,984.7675495096768,0,1
5.44,-0.52347731590271,4.737492561340332,8.571483612060547,986.7847290039062,9.815489626377415,984.8755157675422,0,1
5.48,-0.34189528226852417,4.921005725860596,8.950231552124023,986.7775268554688,9.813757136192637,984.9777615518449,0,1
5.52,-0.5522571802139282,4.449118137359619,9.423667907714844,986.7699584960938,9.814465525812732,985.0745573947879,0,1
5.56,-0.700481653213501,4.158359527587891,9.970486640930176,986.7872314453125,9.818731474753072,985.1662513871222,0,1
5.6,-0.9251829981803894,4.217942237854004,9.435493469238281,986.7720947265625,9.824509486013831,985.2530527936977,0,1
5.64,-0.9443527460098267,4.503937244415283,8.51938247680664,986.80224609375,9.829104873910593,985.3353271713471,0,1
5.68,-1.154714584350586,4.327576160430908,8.303962707519531,986.7796020507812,9.83174616712412,985.4132237599237,0,1
5.72,-1.0065912008285522,4.284677982330322,8.251879692077637,986.789794921875,9.832353944462389,985.4870084006883,0,1
5.76,-1.135696530342102,4.229864120483398,8.23293685913086,986.7869262695312,9.831065884197793,985.5568837725089,0,1
5.8,-1.4249252080917358,4.11308479309082,8.46491813659668,986.7725219726562,9.828802678125703,985.6230015074829,0,1
5.84,-1.527741551399231,4.086869716644287,8.505156517028809,986.8023071289062,9.8258315596541,985.685668197249,0,1
5.88,-1.4369757175445557,4.036822319030762,9.146663665771484,986.78955078125,9.82419547154109,985.7450140205344,0,1
5.92,-1.5015536546707153,3.8699936866760254,9.589324951171875,986.7822265625,9.824999988679334,985.8011855140452,0,1
5.96,-1.3091752529144287,3.9366965293884277,9.492379188537598,986.7822265625,9.827634628461107,985.8543499523887,0,1
6.0,-1.1825103759765625,3.8723480701446533,9.321940422058105,986.8070678710938,9.83117086603415,985.9047553935134,0,1
6.04,-0.8096857070922852,4.265588760375977,9.104157447814941,986.7643432617188,9.835214494487468,985.9523877165187,0,1
6.08,-0.8455342650413513,4.30610466003418,9.018938064575195,986.777099609375,9.839488274822653,985.9974441588392,0,1
6.12,-1.1084234714508057,3.9057135581970215,9.589433670043945,986.7819213867188,9.845330930942863,986.0400797081907,0,1
6.16,-1.022386908531189,3.700751781463623,9.892436027526855,986.7924194335938,9.853251230528404,986.0804604615025,0,1
6.2,-0.8431443572044373,3.72935152053833,9.501848220825195,986.7691650390625,9.861650066799776,986.1186197905039,0,1
6.24,-0.5396267175674438,4.012961387634277,8.720670700073242,986.7971801757812,9.868182758879426,986.154779749887,0,1
6.28,-0.5945944786071777,3.9867453575134277,8.654389381408691,986.7844848632812,9.87279895818985,986.188997187297,0,1
6.32,-0.5205075740814209,4.00581169128418,8.479216575622559,986.7745971679688,9.875147891370439,986.2213394338145,0,1
6.36,-0.2289395034313202,4.222689628601074,8.34428596496582,986.7793579101562,9.875349833765828,986.2519254682421,0,1
6.4,-0.48465901613235474,4.341853618621826,8.150175094604492,986.78955078125,9.873267166442986,986.2808862982765,0,1
6.44,-0.451200395822525,4.310871601104736,8.528926849365234,986.7822265625,9.870324788169569,986.3082804715337,0,1
6.48,-0.5252873301506042,4.389519214630127,8.685163497924805,986.769287109375,9.867275732363971,986.3341451458089,0,1
6.52,-0.5515762567520142,4.475317478179932,9.011837005615234,986.77197265625,9.865336586034278,986.3585749099238,0,1
6.56,-0.7332088351249695,4.461018085479736,9.11836051940918,986.7847290039062,9.864747164764806,986.3816947631195,0,1
6.6,-0.6400026679039001,4.599247932434082,9.028406143188477,986.7921752929688,9.865262532017951,986.403600754194,0,1
6.64,-0.742768406867981,4.558732032775879,9.340877532958984,986.8047485351562,9.867716573570702,986.4244005787994,0,1
6.64,-0.742768406867981,4.558732032775879,9.340877532958984,986.7694702148438,9.867716573570702,986.4440211133956,0,1
6.72,-0.6901905536651611,4.341854095458984,9.345612525939941,986.78955078125,9.871542146002435,986.4626012834507,0,1
6.76,-0.632832944393158,4.2536725997924805,8.962125778198242,986.7743530273438,9.875170731971442,986.4801405868727,0,1
6.8,-0.5587459802627563,4.339470386505127,8.42950439453125,986.7920532226562,9.877016808135007,986.4967607597456,0,1
6.84,-0.5420166254043579,4.410968780517578,8.370325088500977,986.7971801757812,9.877207791946253,986.5125274132724,0,1
6.88,-0.6352227926254272,4.499150276184082,8.28747272491455,986.7847290039062,9.875843462088937,986.5274383129351,0,1
6.92,-0.5539661645889282,4.723178386688232,8.403465270996094,986.777099609375,9.873845601828956,986.5415119234251,0,1
6.96,-0.606544017791748,4.668363094329834,8.588107109069824,986.77685546875,9.871791862025338,986.5547941612979,0,1
7.0,-0.7929563522338867,4.399052619934082,8.891109466552734,986.766845703125,9.870264107768506,986.5672932911148,0,1
7.04,-0.7116997241973877,4.499150276184082,8.775115966796875,986.7821044921875,9.86897420332969,986.5791104014243,0,1
7.08,-0.7929563522338867,4.542048931121826,8.405832290649414,986.7589721679688,9.866820540596501,986.5901990613362,0,1
7.12,-0.957612156867981,4.542043209075928,8.204643249511719,986.7793579101562,9.86333325491683,986.6006775319698,0,1
7.16,-0.6421362161636353,4.7899041175842285,8.48870849609375,986.7694702148438,9.859908660926608,986.6105435211609,0,1
7.2,-0.6062787771224976,4.81611967086792,8.70885944366455,986.81494140625,9.857280082056299,986.6199965004702,0,1
7.24,-0.7424942255020142,4.563492298126221,8.95031452178955,986.7669067382812,9.855737552276961,986.6288775887244,0,1
7.28,-0.5441234707832336,4.649289608001709,8.952682495117188,986.7819213867188,9.855263266443403,986.6372754348566,0,1
7.32,-0.4891468286514282,4.7160210609436035,8.924277305603027,986.7593994140625,9.855745340654865,986.6451349769056,0,1
7.36,-0.4485096037387848,4.649289608001709,8.644948959350586,986.8223876953125,9.85606456574264,986.6527173369179,0,1
7.4,-0.34573492407798767,4.656438827514648,8.633112907409668,986.7744750976562,9.85619849701626,986.6598549970417,0,1
7.44,-0.43415239453315735,4.532508373260498,8.647316932678223,986.7869873046875,9.85601670851397,986.6666190687109,0,1
7.48,-0.44131314754486084,4.527741432189941,8.431901931762695,986.7669067382812,9.854865378594633,986.6729563969274,0,1
7.52,-0.3672172725200653,4.601623058319092,8.455575942993164,986.7996826171875,9.85305155959174,986.6790118334064,0,1
7.56,-0.38871750235557556,4.5587239265441895,8.592874526977539,986.781982421875,9.851023940658061,986.6847326700743,0,1
7.6,-0.498644083738327,4.5205912590026855,8.583405494689941,986.7744750976562,9.84873857259155,986.6901102329707,0,1
7.64,-0.5320937633514404,4.618305683135986,8.694665908813477,986.7744750976562,9.846757838746061,986.6951651199363,0,1
7.68,-0.5081859230995178,4.7136359214782715,8.386930465698242,986.7847900390625,9.844242339421504,986.6999538266438,0,1
7.72,-0.5942133665084839,4.6349873542785645,8.628384590148926,986.7694091796875,9.841905378727494,986.7044347260395,0,1
7.76,-0.6037641167640686,4.61830472946167,8.507658004760742,986.794677734375,9.839326517212744,986.7087184824497,0,1
7.8,-0.49142980575561523,4.59208869934082,8.706504821777344,986.7618408203125,9.837106261313572,986.7126944089092,0,1
7.84,-0.4292834997177124,4.451474666595459,8.720708847045898,986.7874145507812,9.835012816722717,986.7164760889148,0,1
7.88,-0.38386642932891846,4.363293170928955,8.70177173614502,986.7645263671875,9.83282818897651,986.7199901212481,0,1
7.92,-0.3503989279270172,4.313243865966797,8.723076820373535,986.7646484375,9.83055466882567,986.7232554490353,0,1
7.96,-0.31215155124664307,4.332310199737549,8.602350234985352,986.764892578125,9.82784805336782,986.7262901452117,0,1
8.0,-0.321702241897583,4.289410591125488,8.678102493286133,986.7696533203125,9.82494460451735,986.7291272690619,0,1
8.04,-0.156790092587471,4.430024147033691,8.860376358032227,986.7872314453125,9.822675841594643,986.731842885606,0,1
8.08,-0.1902398318052292,4.463389873504639,8.649697303771973,986.7900390625,9.82035646433694,986.7344514694962,0,1
8.12,-0.2647572457790375,4.4371843338012695,8.768017768859863,986.7395629882812,9.818343228241103,986.7367743745721,0,1
8.16,-0.5061461925506592,4.26082181930542,8.893478393554688,986.772705078125,9.816766309476154,986.738955802908,0,1
8.2,-0.628040075302124,4.160724639892578,8.569171905517578,986.7748413085938,9.814400190060658,986.7410120596837,0,1
8.24,-0.4511961340904236,4.294188022613525,9.021306037902832,986.8153076171875,9.812982607955318,986.743095991049,0,1
8.28,-0.45120498538017273,4.175024509429932,9.187009811401367,986.772705078125,9.812767846421279,986.7450435043942,0,1
8.32,-0.396246075630188,4.146425247192383,9.258025169372559,986.7772216796875,9.813798920702668,986.7468797274938,0,1
8.36,-0.2002829909324646,4.289422035217285,9.298267364501953,986.7649536132812,9.81625122788079,986.7485668390922,0,1
8.4,-0.27676868438720703,4.275123119354248,9.314835548400879,986.7801513671875,9.819989575458276,986.750170834078,0,1
8.44,-0.4201716482639313,4.315638542175293,8.756175994873047,986.7872314453125,9.823116312530647,986.7517211011229,0,1
8.48,-0.4225704073905945,4.434803009033203,8.798784255981445,986.7728881835938,9.826020097066193,986.753166677458,0,1
8.52,-0.6854684352874756,4.220308303833008,8.90294075012207,986.7854614257812,9.828767234512627,986.754559808677,0,1
8.56,-0.8025825023651123,3.993896961212158,9.035502433776855,986.757568359375,9.831492043442793,986.7558011690841,0,1
8.6,-0.8384398818016052,3.891416072845459,9.104150772094727,986.7853393554688,9.834277279416947,986.7570039314862,0,1
8.64,-0.7189536094665527,3.9033327102661133,9.09704875946045,986.7904663085938,9.837065559047637,986.7581867157769,0,1
8.68,-0.4728025496006012,4.110678195953369,9.082843780517578,986.7875366210938,9.840047245480857,986.75933704251,0,1
8.72,-0.3413667678833008,4.260825157165527,8.808247566223145,986.7777099609375,9.842503948241873,986.7604191725937,0,1
8.76,-0.49671924114227295,4.15357780456543,9.042600631713867,986.7730102539062,9.845109591519877,986.7614202295053,0,1
8.8,-0.6018838286399841,4.289424896240234,8.49104118347168,986.7854614257812,9.846284774239674,986.7623908705739,0,1
8.84,-0.8384929299354553,4.39667272567749,8.382148742675781,986.7730102539062,9.846084913461883,986.7632863176789,0,1
8.88,-0.9651665687561035,4.537286281585693,8.401086807250977,986.7875366210938,9.845010549304911,986.7641643947077,0,1
8.92,-1.0225330591201782,4.661217212677002,8.614133834838867,986.7882690429688,9.844070667651508,986.7650265991782,0,1
8.96,-1.2567522525787354,4.439571857452393,8.67331314086914,986.7526245117188,9.84316877396115,986.7657433544133,0,1
9.0,-1.3547471761703491,4.363307476043701,8.96211051940918,986.74755859375,9.843150590838892,986.7663107730817,0,1
9.04,-1.2687194347381592,4.399056911468506,8.680412292480469,986.7627563476562,9.843028901333401,986.7667989071647,0,1
9.08,-1.2711182832717896,4.456255912780762,8.69224739074707,986.7655639648438,9.842947678342318,986.7672253355269,0,1
9.12,-1.2448697090148926,4.558737277984619,8.623595237731934,986.8006591796875,9.84284197763766,986.7677220483401,0,1
9.16,-1.263999104499817,4.334709644317627,9.097034454345703,986.7607421875,9.843875785644006,986.7681353751623,0,1
9.2,-1.158853530883789,4.196479797363281,9.080463409423828,986.7807006835938,9.845603890981295,986.768545384729,0,1
9.24,-0.9294330477714539,4.272745132446289,9.262737274169922,986.7855224609375,9.848561369649254,986.7689683455321,0,1
9.28,-0.7836591005325317,4.377609729766846,8.805866241455078,986.7755126953125,9.851234254843003,986.7693651922339,0,1
9.32,-0.6952428817749023,4.251296043395996,8.99997615814209,986.7883911132812,9.854051640999707,986.7697838981701,0,1
9.36,-0.5924872159957886,4.175031661987305,8.779825210571289,986.7808227539062,9.856130430490289,986.7701931654918,0,1
9.4,-0.39174556732177734,4.56588888168335,8.112272262573242,986.7811279296875,9.856027008319195,986.7705937181242,0,1
9.44,-0.2603110671043396,4.799450874328613,8.034154891967773,986.7913208007812,9.854157717295747,986.7710218228018,0,1
9.48,-0.3296282887458801,4.730335712432861,8.249568939208984,986.7811279296875,9.851285965327593,986.771436036955,0,1
9.52,-0.5662386417388916,4.544440746307373,8.261404037475586,986.7608032226562,9.8472887747309,986.771763317328,0,1
9.56,-0.530400276184082,4.561123847961426,8.990501403808594,986.7833862304688,9.844649552001055,986.7720939036283,0,1
9.6,-0.7502813339233398,4.503925323486328,8.753780364990234,986.7658081054688,9.84241973915858,986.7723629396878,0,1
9.64,-0.7718005776405334,4.596873760223389,8.678030014038086,986.7684326171875,9.840479068918638,986.7725860696668,0,1
9.68,-0.7813702821731567,4.482476234436035,9.168039321899414,986.7579345703125,9.840184713557447,986.7727300407983,0,1
9.72,-0.8960957527160645,4.277514934539795,9.049677848815918,986.776123046875,9.840678929198974,986.7728690273889,0,1
9.76,-0.8387481570243835,4.327563762664795,8.992864608764648,986.7861938476562,9.84174365401859,986.7730393641687,0,1
9.8,-0.5256811380386353,4.5611252784729,8.860300064086914,986.8062744140625,9.843179407575622,986.7733090787989,0,1
9.84,-0.4683336019515991,4.4109787940979,8.988127708435059,986.7736206054688,9.84509574487352,986.773548079019,0,1
9.88,-0.2867111563682556,4.468177795410156,8.831892013549805,986.7811889648438,9.846993785724504,986.7737863256777,0,1
9.92,-0.1863453984260559,4.620707988739014,8.398693084716797,986.7659912109375,9.847737380274609,986.7739683368904,0,1
9.96,-0.3894971013069153,4.40144681930542,8.623576164245605,986.776123046875,9.847825522684595,986.7741364778304,0,1
10.0,-0.4349153935909271,4.289432525634766,8.727731704711914,986.7990112304688,9.847495649694466,986.7743741551473,0,1
10.04,-0.4181962013244629,4.313265323638916,8.557292938232422,986.7711181640625,9.846284374759248,986.7745720041335,0,1
10.04,-0.4181962013244629,4.313265323638916,8.557292938232422,986.7737426757812,9.846284374759248,986.7747433967922,0,1
10.12,-0.5491806268692017,4.289421558380127,8.732507705688477,986.7811889648438,9.843373405484595,986.774917602266,0,1
10.12,-0.5491806268692017,4.289421558380127,8.732507705688477,986.8040161132812,9.843373405484595,986.775175843734,0,1
10.2,-0.38904836773872375,4.3871355056762695,9.07101821899414,986.7537231445312,9.842862686914952,986.7753263550575,0,1
10.24,-0.37947991490364075,4.518215656280518,8.789321899414062,986.7889404296875,9.842580806909625,986.7755079164058,0,1
10.28,-0.3842508792877197,4.71126127243042,8.509992599487305,986.80419921875,9.841943218495642,986.7757711915731,0,1
10.32,-0.42009055614471436,4.637379169464111,8.910051345825195,986.766357421875,9.8421410719384,986.7759694908171,0,1
10.36,-0.5443565845489502,4.370452404022217,9.25092887878418,986.779052734375,9.843769141232418,986.7761553665814,0,1
10.4,-0.45592138171195984,4.346619129180908,9.217789649963379,986.7688598632812,9.846495178044181,986.7762929014718,0,1
10.44,-0.28144970536231995,4.503915309906006,8.798795700073242,986.7942504882812,9.849055270118992,986.7764786334866,0,1
10.48,-0.11175784468650818,4.618312358856201,8.453184127807617,986.791748046875,9.850540111941509,986.7766972750563,0,1
10.52,-0.08068028092384338,4.556346893310547,8.692272186279297,986.7892456054688,9.85172200106404,986.7769351996103,0,1
10.56,-0.0830613374710083,4.615928649902344,8.377435684204102,986.7688598632812,9.851735225030088,986.777115917412,0,1
10.6,-0.3722306191921234,4.4157328605651855,8.495796203613281,986.7714233398438,9.850776061710295,986.7772546652586,0,1
10.64,-0.5873129367828369,4.289418697357178,8.465023040771484,986.7816162109375,9.848694281855657,986.7773925232952,0,1
10.68,-0.4893181324005127,4.461015224456787,8.51473617553711,986.7971801757812,9.846049554097188,986.7775851290776,0,1
10.72,-0.5227679014205933,4.4371819496154785,8.569182395935059,986.7891845703125,9.843057263980102,986.7777966324087,0,1
10.76,-0.5179792642593384,4.4586310386657715,8.73962116241455,986.79931640625,9.840347907970484,986.7780605468095,0,1
10.8,-0.3435075879096985,4.651676654815674,8.782231330871582,986.7688598632812,9.838327162656107,986.7782601779893,0,1
10.84,-0.25985217094421387,4.696958541870117,8.884021759033203,986.77197265625,9.837313013208748,986.7784134958974,0,1
10.88,-0.32676059007644653,4.654059410095215,8.803537368774414,986.7797241210938,9.836870814459186,986.7785532447266,0,1
10.92,-0.3578204810619354,4.606393337249756,8.879289627075195,986.7997436523438,9.837101294567958,986.778752571131,0,1
10.96,-0.48925623297691345,4.556344509124756,8.794071197509766,986.777099609375,9.83759048056418,986.7789223041544,0,1
11.0,-0.5322656631469727,4.515828609466553,8.585758209228516,986.7846069335938,9.83758325421694,986.7790923037937,0,1
11.04,-0.6087336540222168,4.310866832733154,8.957408905029297,986.7642822265625,9.838015342610882,986.779188758074,0,1
11.08,-0.5179085731506348,4.444329738616943,8.571556091308594,986.7642822265625,9.837789106144223,986.77921988044,0,1
11.12,-0.4870489239692688,4.515833377838135,8.46738052368164,986.7694091796875,9.836764363250726,986.7792116205164,0,1
11.16,-0.5085580348968506,4.410969257354736,8.699365615844727,986.7872314453125,9.835607735896847,986.7792327522914,0,1
11.2,-0.4607599973678589,4.449100971221924,8.808258056640625,986.7998657226562,9.834741504634586,986.779325261893,0,0
11.24,-0.5276772379875183,4.401435852050781,8.831929206848145,986.7822875976562,9.834146252616073,986.7794172266599,0,0
11.28,-0.5252873301506042,4.401435852050781,8.884008407592773,986.766845703125,9.83395978613773,986.7794527881202,0,0
11.32,-0.49660852551460266,4.425268650054932,8.810625076293945,986.7947998046875,9.833932029069297,986.7795390183587,0,0
11.36,-0.44164079427719116,4.375219821929932,8.820093154907227,986.7799072265625,9.833985281676629,986.7796160958217,0,0
11.4,-0.31975579261779785,4.449100971221924,8.891109466552734,986.7925415039062,9.834440226880405,986.7797302918099,0,0
11.44,-0.15007275342941284,4.575415134429932,8.824827194213867,986.7874755859375,9.835227826076236,986.7798586373171,0,0
11.48,-0.2743476331233978,4.489616870880127,8.87453842163086,986.780029296875,9.83633454669176,986.7799722166562,0,0
11.52,-0.3723336160182953,4.389519214630127,8.874539375305176,986.7747192382812,9.837569618057868,986.7800532235134,0,0
11.56,-0.3938427269458771,4.451484203338623,8.79642105102539,986.7697143554688,9.838765076601687,986.7800871401237,0,0
11.6,-0.5922045707702637,4.325170993804932,8.566802978515625,986.7951049804688,9.839015768712976,986.7801707319381,0,0
11.64,-0.6423925161361694,4.246522426605225,8.741975784301758,986.7874145507812,9.838880848953444,986.7802702302865,0,0
11.68,-0.5563560724258423,4.341853618621826,8.718303680419922,986.7695922851562,9.838461507076161,986.7803192653008,0,0
11.72,-0.57547527551651,4.351387023925781,8.732507705688477,986.79248046875,9.837857318785622,986.7804059318445,0,0
11.76,-0.4105720520019531,4.53013277053833,8.822460174560547,986.8103637695312,9.83764094857126,986.7805899174876,0,0
11.8,-0.45598018169403076,4.55634880065918,8.846132278442383,986.7698974609375,9.837893990728308,986.7807135532341,0,0
11.84,-0.6161036491394043,4.470551013946533,9.227252006530762,986.7853393554688,9.839679235423539,986.780839009541,0,0
11.88,-0.6184935569763184,4.5634989738464355,9.300636291503906,986.7980346679688,9.843195843472422,986.7810113259753,0,0
11.92,-0.9220110177993774,4.360919952392578,8.950289726257324,986.7850952148438,9.846863182994577,986.7811778456497,0,0
11.96,-1.0677950382232666,4.313254356384277,8.607044219970703,986.7777099609375,9.849525826401578,986.7813120569233,0,0
12.0,-1.0630152225494385,4.394286155700684,8.609413146972656,986.7830200195312,9.8514276719578,986.7814363535435,0,0
12.04,-1.079744577407837,4.301337718963623,8.79405403137207,986.7855834960938,9.853099387663828,986.7815606706235,0,0
12.08,-1.1490516662597656,4.303720951080322,8.446075439453125,986.7545776367188,9.853480834185309,986.7815729371514,0,0
12.12,-0.9916335344314575,4.45387601852417,8.249568939208984,986.7929077148438,9.852283959325007,986.7816241399274,0,0
12.16,-1.0298845767974854,4.387144565582275,8.44131088256836,986.7601318359375,9.850206135440462,986.7815915692835,0,0
12.2,-1.039456844329834,4.422893524169922,8.384496688842773,986.8005981445312,9.847240334987879,986.7816307724047,0,0
12.24,-1.0442492961883545,4.329946041107178,8.957359313964844,986.7855834960938,9.84518285321376,986.7816792009612,0,0
12.28,-1.0825003385543823,4.34186315536499,8.786918640136719,986.7804565429688,9.843420741071965,986.7817171497393,0,0
12.32,-0.9343390464782715,4.470560550689697,8.741941452026367,986.7830810546875,9.84193452493974,986.7817551502111,0,0
12.36,-0.8459253311157227,4.692205429077148,8.531259536743164,986.7677612304688,9.840373732754696,986.7817379081933,0,0
12.4,-0.7957500219345093,4.923383712768555,8.173810005187988,986.7774658203125,9.838039919363258,986.7817068525048,0,0
12.44,-1.0132436752319336,4.971049785614014,8.270864486694336,986.7881469726562,9.835491055214842,986.7817021550045,0,0
12.48,-1.2187880277633667,4.9805827140808105,8.060182571411133,986.7551879882812,9.832221601942333,986.7816021121714,0,0
12.52,-1.2928876876831055,5.195078372955322,8.277963638305664,986.8107299804688,9.8294264084703,986.7816181335199,0,0
12.56,-1.5868581533432007,4.882869243621826,8.285064697265625,986.7857666015625,9.826659617960207,986.781646783342,0,0
12.6,-1.5462424755096436,4.62070894241333,8.675651550292969,986.7882690429688,9.824660032887193,986.7816954973325,0,0
12.64,-1.632291555404663,4.52061128616333,8.89816665649414,986.7957763671875,9.823932091631622,986.7817887910177,0,0
12.68,-1.5701667070388794,4.656458377838135,8.585695266723633,986.8109130859375,9.823535838364533,986.7819756316486,0,0
12.72,-1.41722571849823,4.947218894958496,8.121723175048828,986.7704467773438,9.822434538633004,986.7820987790298,0,0
12.76,-1.4722061157226562,4.897170543670654,8.230612754821777,986.7754516601562,9.820984021821296,986.7821832213023,0,0
12.8,-1.3598933219909668,4.921003818511963,7.6885223388671875,986.7857666015625,9.817572080577628,986.7822702935362,0,0
12.84,-1.3001585006713867,5.071150302886963,8.242446899414062,986.8033447265625,9.814366123712857,986.7824226573912,0,0
12.88,-1.5272117853164673,4.851889133453369,8.872121810913086,986.77587890625,9.813018152514024,986.7825332874637,0,0
12.92,-1.4435778856277466,4.99965238571167,8.734822273254395,986.7857666015625,9.81310312774103,986.7826422389993,0,0
12.96,-1.185481071472168,4.954370975494385,9.492324829101562,986.7957763671875,9.816633478286517,986.7827853503088,0,0
13.0,-1.1424754858016968,4.861423015594482,9.366863250732422,986.7783203125,9.822626771221413,986.7828952881996,0,0
13.04,-0.9799748659133911,5.085451602935791,9.087532043457031,986.79833984375,9.830215918295913,986.7830475885905,0,0
13.08,-1.118601679801941,5.123584270477295,8.817668914794922,986.805908203125,9.838466463009807,986.7832640182976,0,0
13.12,-1.3783161640167236,4.71364164352417,8.815374374389648,986.7933349609375,9.846665888535146,986.783491069851,0,0
13.16,-0.7927712798118591,4.890003204345703,9.414278030395508,986.8037109375,9.856760072170347,986.7837640429964,0,0
13.2,-0.42470741271972656,4.777988910675049,9.215435028076172,986.7660522460938,9.867595781053193,986.7839410384737,0,0
13.24,-0.735375702381134,4.041555404663086,9.537375450134277,986.7787475585938,9.879030827938847,986.7840782940231,0,0
13.28,-0.8237831592559814,4.2393670082092285,8.543153762817383,986.8060913085938,9.888031991502016,986.7842783787479,0,0
13.32,-0.3027656376361847,4.122586250305176,9.329065322875977,986.796142578125,9.89712241099658,986.7844974435988,0,0
13.36,-0.28601735830307007,2.7522003650665283,11.253602981567383,986.8067626953125,9.911244694798537,986.7847707230756,0,0
13.36,-0.28601735830307007,2.7522003650665283,11.253602981567383,986.7710571289062,9.911244694798537,986.784962382756,0,0
13.44,0.3855639696121216,2.630652666091919,10.114980697631836,986.7808837890625,9.925693535565768,986.785116609185,0,0
13.48,0.5313670039176941,3.2550711631774902,7.518160820007324,986.7808837890625,9.932283258843944,986.785237204378,0,0
13.52,0.830142617225647,4.046318531036377,6.022092819213867,986.8088989257812,9.9151906497663,986.7854285033557,0,0
13.52,0.830142617225647,4.046318531036377,6.022092819213867,986.7738037109375,9.9151906497663,986.7855552447533,0,0
13.6,1.0595921277999878,3.510080337524414,8.23779582977295,986.7939453125,9.900437846940953,986.7856969965666,0,0
13.64,0.7823823690414429,3.4147491455078125,7.759622573852539,986.7939453125,9.882410282439071,986.7858515012766,0,0
13.68,0.7250436544418335,4.153564929962158,6.301427841186523,986.7579956054688,9.85819942200767,986.7858872992896,0,0
13.72,0.8541172742843628,4.806582927703857,6.734627723693848,986.783935546875,9.831261733243247,986.7859114629777,0,0
13.76,0.5243297815322876,4.618303298950195,8.294615745544434,986.8088989257812,9.80629626780994,986.7860151277471,0,0
13.8,0.05592796206474304,4.1440300941467285,9.722040176391602,986.811767578125,9.786980879578076,986.7861989936264,0,0
13.84,-0.20933222770690918,3.9724340438842773,11.435896873474121,986.8119506835938,9.778269485367206,986.7864537224684,0,0
13.88,-0.1758546531200409,4.065381050109863,11.615806579589844,986.7991333007812,9.779678880727534,986.7867240062241,0,0
13.92,-0.38375720381736755,4.260809421539307,10.65709114074707,986.7762451171875,9.787058692655261,986.7869246638224,0,0
13.96,-0.7422235608100891,4.422872066497803,9.946931838989258,986.7940063476562,9.797626375611888,986.787127017808,0,0
14.0,-1.0361626148223877,4.606383800506592,9.66286849975586,986.8119506835938,9.810409417346682,986.7873947418533,0,0
14.04,-1.0026849508285522,3.74125337600708,10.557672500610352,986.7891235351562,9.826871719962018,986.7876370853459,0,0
14.08,-0.11840230226516724,3.104917526245117,10.046359062194824,986.7763061523438,9.843898258066663,986.7878099875693,0,0
14.12,-0.1279430091381073,3.1406662464141846,10.03925895690918,986.7560424804688,9.861376265557857,986.7878479598241,0,0
14.16,-0.8998624086380005,3.715035915374756,7.837762832641602,986.7867431640625,9.872711569840789,986.7878770937152,0,0
14.2,-1.102985143661499,4.780360698699951,7.522926330566406,986.7941284179688,9.87951817746021,986.7879249000591,0,0
14.24,-0.7014626264572144,3.822282314300537,8.976390838623047,986.784423828125,9.885179578631782,986.7879540967574,0,0
14.28,-0.020321667194366455,2.6997580528259277,11.502197265625,986.7872314453125,9.897128644231973,986.7879768522862,0,0
14.32,-0.048981547355651855,2.156369924545288,11.184993743896484,986.75634765625,9.913065013238036,986.7878826528421,0,0
14.36,0.5939210057258606,2.9905169010162354,8.207056045532227,986.7789306640625,9.9229776954001,986.787766749927,0,0
14.4,0.7660130262374878,3.9628939628601074,7.0021514892578125,986.7741088867188,9.925109620136377,986.7876147286778,0,0
14.44,0.4911930561065674,3.650684356689453,7.25307559967041,986.7542114257812,9.920548469519312,986.7873597096892,0,0
14.48,0.19762593507766724,3.541043758392334,7.738389015197754,986.7944946289062,9.911448846920065,986.7871596194917,0,0
14.52,0.27174288034439087,3.8389527797698975,9.161079406738281,986.7748413085938,9.903499097635313,986.7869380327487,0,0
14.56,0.7856017351150513,4.186910629272461,9.035621643066406,986.7944946289062,9.896784250968446,986.7867690013203,0,0
14.6,1.1656261682510376,3.9843313694000244,10.183716773986816,986.784423828125,9.894813038217725,986.7866107613997,0,0
14.64,0.7856618165969849,3.7007203102111816,11.17794418334961,986.7643432617188,9.89993284597886,986.7863903364834,0,0
14.68,0.8215404748916626,4.487202167510986,8.808377265930176,986.7793579101562,9.904527316328299,986.7861698111667,0,0
14.72,0.945845365524292,3.021484375,10.728180885314941,986.80224609375,9.913198880973496,986.7860323884847,0,0
14.76,1.3091404438018799,2.213552474975586,11.185054779052734,986.7667846679688,9.926490375989651,986.7858412288851,0,0
14.8,1.1633864641189575,2.9428348541259766,8.687658309936523,986.7620849609375,9.93578509505128,986.7855863565753,0,0
14.84,1.1753660440444946,4.139240264892578,5.572422981262207,986.756591796875,9.933574380657264,986.7852563298658,0,0
14.88,1.3522487878799438,4.065357685089111,5.387784004211426,986.809814453125,9.920641075800852,986.785052686379,0,0
14.92,1.1108986139297485,2.5686581134796143,8.836800575256348,986.7824096679688,9.906868612812747,986.784862791002,0,0
14.96,-0.038614094257354736,2.2111656665802,9.885473251342773,986.7540283203125,9.895501898047787,986.784583554231,0,0
15.0,-0.5093947649002075,3.8079614639282227,6.4625020027160645,986.7667846679688,9.876900134741488,986.7842723035064,0,0
15.04,-0.13176025450229645,5.435739994049072,6.071916580200195,986.7846069335938,9.854249047125121,986.7839980459091,0,0
15.08,-0.22971616685390472,5.15451192855835,9.537504196166992,986.809814453125,9.837796551685734,986.7838482098323,0,0
15.12,-0.564272403717041,4.186900615692139,11.308174133300781,986.7748413085938,9.83130078697678,986.7836829487057,0,0
15.16,-0.10299132764339447,4.041519641876221,12.131962776184082,986.8074951171875,9.836204687727738,986.7836222066511,0,0
15.2,0.33200085163116455,4.603972911834717,10.562511444091797,986.7774047851562,9.846624899911264,986.7835457111288,0,0
15.24,0.22209537029266357,4.718369007110596,8.803682327270508,986.7977294921875,9.856351418119784,986.7835287401685,0,0
15.28,0.1121898889541626,4.256012916564941,8.775278091430664,986.80224609375,9.864575680162062,986.7835806859714,0,0
15.32,-0.167398601770401,3.6935582160949707,8.529090881347656,986.792724609375,9.869795794187157,986.7836590622787,0,0
15.36,-0.6262297034263611,3.4957454204559326,9.267662048339844,986.7977294921875,9.874606352859397,986.7837785280022,0,0
15.4,0.07882136106491089,3.314615488052368,8.256868362426758,986.797607421875,9.875340034360928,986.783933430804,0,0
15.44,1.0778303146362305,2.8212761878967285,11.05253791809082,986.8104248046875,9.881684967198,986.7841652307338,0,0
15.48,1.1053012609481812,2.368482828140259,12.394630432128906,986.8053588867188,9.897319243055556,986.7844459051821,0,0
15.52,1.076603651046753,2.1134724617004395,10.13631820678711,986.7901000976562,9.912979800142086,986.7847138230883,0,0
15.56,0.9905482530593872,2.077723741531372,9.570554733276367,986.7471313476562,9.926567180711864,986.7848148173164,0,0
15.6,1.2199598550796509,2.0491249561309814,10.285449028015137,986.7699584960938,9.940847219973836,986.7848501319346,0,0
15.64,1.4111331701278687,2.001459836959839,9.348033905029297,986.7825317382812,9.952466541888361,986.7848725485871,0,0
15.68,1.743310570716858,2.721210479736328,9.026093482971191,986.7598266601562,9.96141842537291,986.7848017496196,0,0
15.72,1.2916001081466675,2.728360652923584,9.726783752441406,986.7825317382812,9.970131127394597,986.7847305784846,0,0
15.76,0.4120972156524658,2.3327369689941406,9.539772033691406,986.7979125976562,9.977323333221879,986.7847147058098,0,0
15.8,-0.3813691735267639,2.30652117729187,9.613155364990234,986.7874755859375,9.983376033111506,986.7847101787553,0,0
15.84,-0.312080979347229,2.9595398902893066,9.272275924682617,986.7623901367188,9.98784134476082,986.7846253853751,0,0
15.88,0.04877525568008423,3.612558603286743,9.636823654174805,986.7826538085938,9.99288117251851,986.7845429231415,0,0
15.92,0.2566778063774109,3.619709014892578,10.2262544631958,986.8029174804688,10.000423629974707,986.7845357667886,0,0
15.96,0.1634526252746582,3.4933958053588867,10.230986595153809,986.755126953125,10.010010527170357,986.7844231305837,0,0
16.0,-0.13291412591934204,3.252685070037842,9.85696792602539,986.7699584960938,10.019815728784875,986.7842710914247,0,0
16.04,0.04152974486351013,3.631627082824707,9.454540252685547,986.792724609375,10.028869488061833,986.7841667411608,0,0
16.08,-0.17597027122974396,3.419515609741211,9.357484817504883,986.7598266601562,10.036636808666003,986.7839864718535,0,0
16.12,-0.8451617360115051,3.1359057426452637,9.648648262023926,986.7652587890625,10.044018276115573,986.7837593251126,0,0
16.16,-1.0554921627044678,3.326568603515625,8.770414352416992,986.77001953125,10.04836353257148,986.7835087138709,0,0
16.2,-1.0722403526306152,3.562513828277588,8.44847297668457,986.7674560546875,10.049261763086074,986.7832290430817,0,0
16.24,-0.790250837802887,3.80084228515625,9.146796226501465,986.7703857421875,10.049649628138948,986.782935248966,0,0
16.28,-1.1439752578735352,3.6959781646728516,8.82485580444336,986.7601928710938,10.048502178552043,986.7825933388037,0,0
16.32,-1.4283925294876099,3.686445713043213,8.635477066040039,986.7525634765625,10.045504517836084,986.7821826783604,0,0
16.36,-0.9265321493148804,4.093986511230469,8.805913925170898,986.7877807617188,10.041810569804966,986.7818395307677,0,0
16.4,-0.6827811002731323,3.9200074672698975,8.950311660766602,986.780517578125,10.037657836383309,986.7815311254011,0,0
16.44,-0.19001451134681702,3.63877010345459,8.86039924621582,986.7855224609375,10.032342229036061,986.7812725461022,0,0
16.48,0.04897567629814148,3.510072946548462,8.933782577514648,986.7678833007812,10.026084324509247,986.7809954230282,0,0
16.52,0.5962632894515991,3.9748122692108154,9.045040130615234,986.7830810546875,10.020093188217464,986.7807576242294,0,0
16.56,0.8185240030288696,3.6173205375671387,10.481932640075684,986.7725219726562,10.018754466716187,986.7805174157421,0,0
16.6,0.9165101051330566,3.722184658050537,9.575294494628906,986.7652587890625,10.018634856343057,986.780249795345,0,0
16.64,1.1244314908981323,4.163091659545898,9.381183624267578,986.7373046875,10.019631496245575,986.7798582824568,0,0
16.68,1.1005325317382812,4.4943671226501465,8.713632583618164,986.7674560546875,10.019959039290372,986.7794672525275,0,0
16.72,0.753996729850769,4.5253496170043945,8.25202751159668,986.78564453125,10.018166254105115,986.7791435355615,0,0
16.72,0.753996729850769,4.5253496170043945,8.25202751159668,986.7627563476562,10.018166254105115,986.7787980642532,0,0
16.8,1.148330569267273,4.83279275894165,8.80358600616455,986.7780151367188,10.016906616611163,986.7784895461433,0,0
16.84,0.9619182348251343,4.899524211883545,7.996370315551758,986.780517578125,10.013670741047184,986.7782237993332,0,0
16.88,0.8663221597671509,4.847092151641846,8.753874778747559,986.765380859375,10.010919484332142,986.777942309747,0,0
16.92,0.8448131084442139,4.971022129058838,8.495849609375,986.7655029296875,10.008015306573396,986.7776483626595,0,0
16.96,0.9212898015975952,5.318981647491455,8.199949264526367,986.7503662109375,10.004762619281879,986.7772899741485,0,0
17.0,0.5412954688072205,5.063970565795898,8.038979530334473,986.7732543945312,10.000130457983595,986.7769583328521,0,0
17.04,0.37878215312957764,5.040137767791748,8.031877517700195,986.7630004882812,9.994200517091551,986.7766146052421,0,0
17.08,0.9332393407821655,5.426229000091553,8.476911544799805,986.7880859375,9.989370719760238,986.7763517431982,0,0
17.12,0.7061986923217773,5.156918048858643,9.168134689331055,986.7633056640625,9.987094868179243,986.7760720712912,0,0
17.16,0.6464511752128601,5.140235424041748,8.060284614562988,986.7551879882812,9.98362433684309,986.7757493293767,0,0
17.2,0.4241902828216553,5.357113838195801,7.9774322509765625,986.7478637695312,9.979243789166114,986.7753633254885,0,0
17.24,0.31186485290527344,5.48342752456665,7.714673042297363,986.7706909179688,9.973539953554456,986.7750049906651,0,0
17.28,0.28318607807159424,5.688389778137207,7.35722541809082,986.77294921875,9.96609014556508,986.7746805241155,0,0
17.32,0.2927457094192505,5.643106937408447,7.859071731567383,986.7785034179688,9.958476258035963,986.7744071467683,0,0
17.36,0.3501032590866089,5.716989040374756,8.28280258178711,986.7455444335938,9.952151261781998,986.7740612436603,0,0
17.4,0.3501032590866089,5.73367166519165,7.825931549072266,986.7808227539062,9.945683083309905,986.773779503989,0,0
17.44,0.11111313104629517,5.369029998779297,7.811727523803711,986.7755126953125,9.938289726476624,986.7735363571829,0,0
17.48,0.42170608043670654,5.369032382965088,7.567897796630859,986.7758178710938,9.929417939579624,986.7733292849937,0,0
17.52,0.31893646717071533,5.369032382965088,8.192838668823242,986.7655029296875,9.9211149096988,986.7731177000084,0,0
17.56,0.09428191184997559,5.373798847198486,7.395091533660889,986.7861328125,9.910973104908697,986.7729771567971,0,0
17.6,0.11339735984802246,5.43814754486084,7.380887985229492,986.7582397460938,9.899339374420105,986.7727994770182,0,0
17.64,0.06081575155258179,5.209352970123291,7.896937370300293,986.7656860351562,9.887480291672166,986.772616429655,0,0
17.68,0.0010644197463989258,4.966258525848389,7.4992475509643555,986.7658081054688,9.873787154745733,986.7724297379181,0,0
17.72,0.2854589819908142,5.054440021514893,8.301729202270508,986.7935791015625,9.861147065660576,986.7723404736842,0,0
17.76,0.9594074487686157,5.345200061798096,7.695723533630371,986.7760009765625,9.848386210220896,986.7722743364956,0,0
17.8,1.552099347114563,5.440531253814697,8.159695625305176,986.796142578125,9.837401645953243,986.7723013822205,0,0
17.84,1.7074390649795532,5.2427191734313965,8.04133415222168,986.7681884765625,9.827381405308845,986.7723100322416,0,0
17.88,1.7385040521621704,5.664559841156006,6.798553466796875,986.7581176757812,9.815614869082221,986.7722661417978,0,0
17.92,2.283398151397705,6.2699127197265625,6.879037857055664,986.7737426757812,9.804382978854388,986.7722322346023,0,0
17.96,2.223646640777588,6.129299640655518,7.930075645446777,986.7737426757812,9.79612174615334,986.772207270671,0,0
18.0,1.9655336141586304,5.895738124847412,7.877996444702148,986.778564453125,9.78967932541521,986.7722076572755,0,0
18.04,1.5568565130233765,5.740825176239014,8.178630828857422,986.7788696289062,9.785150415926896,986.7722315408546,0,0
18.08,0.90679931640625,5.390483379364014,7.525282859802246,986.7632446289062,9.779405895488352,986.7722198503818,0,0
18.12,0.3379988670349121,5.1378560066223145,8.036598205566406,986.7708129882812,9.773484605179677,986.7722040148552,0,0
18.16,0.3547244071960449,5.354733943939209,8.360904693603516,986.796630859375,9.76883391485139,986.7722775180987,0,0
18.2,-0.01571422815322876,5.2379536628723145,8.952705383300781,986.7911987304688,9.76689751242938,986.7724101408043,0,0
18.24,0.1802539825439453,5.183138370513916,9.473489761352539,986.7916259765625,9.768906408861229,986.7725960621103,0,0
18.28,0.4933273196220398,5.104490280151367,9.277009963989258,986.783935546875,9.773673759912713,986.7728007231972,0,0
18.32,-0.14956004917621613,4.551569938659668,9.546871185302734,986.7893676757812,9.780779689019155,986.7730407616374,0,0
18.36,0.02728891372680664,4.968643665313721,9.596583366394043,986.7890014648438,9.79075143208154,986.7733098770091,0,0
18.4,0.11093169450759888,4.315625190734863,11.693922996520996,986.8092651367188,9.809190986960148,986.7736766651575,0,0
18.44,0.08224904537200928,3.433812379837036,12.87278938293457,986.8220825195312,9.838134453833518,986.7741745791095,0,0
18.48,0.8879601955413818,3.805596351623535,11.705787658691406,986.7836303710938,9.87271866095124,986.7746481356024,0,0
18.52,1.8272005319595337,4.155938148498535,9.537431716918945,986.76904296875,9.905761613052933,986.775045950395,0,0
18.56,1.4113664627075195,4.015324115753174,8.886451721191406,986.7741088867188,9.934768820739334,986.7753936449922,0,0
18.6,0.8951565027236938,4.59684419631958,7.544248580932617,986.7708129882812,9.956601113561737,986.7756839364502,0,0
18.64,1.050508975982666,4.987701416015625,7.828313827514648,986.8020629882812,9.973677683826077,986.7760349614404,0,0
18.68,1.480700135231018,4.399031639099121,9.210761070251465,986.7738037109375,9.989992303642353,986.7763366534954,0,0
18.72,0.7446192502975464,2.8165345191955566,9.120807647705078,986.7763061523438,10.002913141335716,986.7766026776663,0,0
18.76,0.7900360822677612,3.0453290939331055,7.991652488708496,986.7537231445312,10.009238597266146,986.7767549291835,0,0
18.8,0.1853998899459839,3.2264575958251953,7.058976173400879,986.7941284179688,10.006743481268831,986.7769515620566,0,0
18.84,0.11610153317451477,3.660214424133301,7.61053466796875,986.8119506835938,9.998919257390453,986.7772508625707,0,0
18.88,-0.2160860151052475,4.003406047821045,8.524276733398438,986.7890014648438,9.98992182134567,986.777557185546,0,0
18.92,-0.0559537410736084,4.770822048187256,7.707592010498047,986.7740478515625,9.978641293545799,986.7778147778,0,0
18.96,0.6968742609024048,5.323741912841797,7.994024276733398,986.7991333007812,9.967417843698016,986.7781186918696,0,0
19.0,1.6456741094589233,5.206961154937744,9.655801773071289,986.7991943359375,9.961552983286214,986.7784626615312,0,0
19.04,0.9334921836853027,4.511043548583984,9.868850708007812,986.7588500976562,9.95971700470388,986.7786955467716,0,0
19.08,0.5367773175239563,4.358513355255127,9.388307571411133,986.8119506835938,9.959552335125686,986.7790206015317,0,0
19.12,1.1151424646377563,5.311824798583984,8.787039756774902,986.8095703125,9.960733851741324,986.7794173577461,0,0
19.16,1.3971596956253052,4.065370082855225,9.814407348632812,986.8020629882812,9.964491623612666,986.779849014677,0,0
19.2,0.4794461727142334,2.8665804862976074,10.78022575378418,986.7969970703125,9.972134331355798,986.7802917186117,0,0
19.24,0.10424047708511353,3.572030544281006,7.589238166809082,986.75341796875,9.97318631261889,986.7805857051861,0,0
19.28,-0.04153472185134888,4.108268737792969,6.351192474365234,986.7664794921875,9.965443517341669,986.7807942482322,0,0
19.32,0.4962019920349121,4.413327693939209,7.63184928894043,986.7919311523438,9.954514362418864,986.7810181685943,0,0
19.36,0.5201098918914795,4.5301079750061035,7.809390544891357,986.8068237304688,9.941576527042367,986.7813084835183,0,0
19.4,0.25961947441101074,4.86138391494751,7.309911727905273,986.7842407226562,9.925972582469061,986.7815751207187,0,0
19.44,0.4480286240577698,5.504878520965576,7.018709659576416,986.7791137695312,9.908603825913229,986.7818014193581,0,0
19.48,0.6941808462142944,5.7193732261657715,7.740705966949463,986.802001953125,9.892323789900617,986.7820736576273,0,0
19.52,0.5436095595359802,5.307066440582275,8.888797760009766,986.784423828125,9.879646972686052,986.7823222268482,0,0
19.56,0.8638488054275513,5.645492076873779,9.73862361907959,986.83251953125,9.873522127299001,986.7827221317725,0,0
19.6,0.8972998857498169,5.697924613952637,9.859350204467773,986.7918701171875,9.873687281634497,986.7831079793815,0,0
19.64,0.6272333860397339,5.690775394439697,9.563447952270508,986.8097534179688,9.878414270710877,986.7835443967754,0,0
19.68,0.40974462032318115,4.9638752937316895,9.324360847473145,986.8070678710938,9.885085298055152,986.7840142585598,0,0
19.72,0.18747621774673462,3.9771981239318848,10.68786907196045,986.7945556640625,9.896453048378552,986.7844669363615,0,0
19.76,-0.044351816177368164,3.450493812561035,10.290178298950195,986.7742919921875,9.909942489575,986.7848298515407,0,0
19.8,0.005828499794006348,3.066786289215088,10.851203918457031,986.774169921875,9.926780466059348,986.7851117065192,0,0
19.84,0.40971434116363525,2.9309396743774414,10.922219276428223,986.7765502929688,9.946659893043211,986.7853294913622,0,0
19.88,0.3738582134246826,3.116835594177246,9.42378044128418,986.7665405273438,9.9641757365607,986.7854538446536,0,0
19.92,0.10618165135383606,3.2217001914978027,8.495834350585938,986.764404296875,9.976494157800404,986.7854875037252,0,0
19.96,-0.018100768327713013,4.010565280914307,6.848261833190918,986.7462158203125,9.980033738113812,986.7853754256993,0,0
20.0,0.05836844444274902,4.267959117889404,7.120490074157715,986.7689819335938,9.977119747477689,986.7852169358597,0,0
20.0,0.05836844444274902,4.267959117889404,7.120490074157715,986.786865234375,9.977119747477689,986.7850823869852,0,0
20.08,0.37860774993896484,4.3871235847473145,8.259113311767578,986.8147583007812,9.972322069481088,986.7850698917578,0,0
20.12,-0.2499440461397171,3.6149415969848633,8.917195320129395,986.7869873046875,9.96683360357508,986.7850653125339,0,0
20.16,0.45267200469970703,4.313242435455322,8.893522262573242,986.799560546875,9.955327823814855,986.7851130080458,0,0
20.16,0.45267200469970703,4.313242435455322,8.893522262573242,986.7899169921875,9.955327823814855,986.7851720050146,0,0
20.24,0.1921650767326355,4.4157233238220215,8.11944580078125,986.7847290039062,9.947887910015751,986.7852220988046,0,0
20.28,-0.1950066238641739,4.072531700134277,8.663901329040527,986.7593994140625,9.939972748685229,986.7851729588891,0,0
20.32,0.15152156352996826,4.601619720458984,9.137340545654297,986.802001953125,9.934029331647627,986.7851896821091,0,0
20.36,0.1658533811569214,4.85901403427124,9.617883682250977,986.7647094726562,9.931811997687348,986.7851302888682,0,0
20.4,-0.056415051221847534,4.65881872177124,9.471115112304688,986.782470703125,9.93209653569679,986.7850677933652,0,0
20.44,0.15866857767105103,4.78036642074585,9.6439208984375,986.7745971679688,9.935345910472382,986.784974436962,0,0
20.48,0.4076176881790161,4.329916954040527,9.258102416992188,986.7747192382812,9.939273214415095,986.7848545874037,0,0
20.52,0.4147961139678955,3.767462730407715,9.295978546142578,986.7716674804688,9.943102307387404,986.7847007736245,0,0
20.56,0.8593267202377319,4.3037004470825195,8.566882133483887,986.7674560546875,9.945342601572342,986.7845023416573,0,0
20.6,0.7828587293624878,4.470529556274414,9.085299491882324,986.7615356445312,9.9480799263792,986.784243885939,0,0
20.64,0.45545101165771484,4.539644718170166,7.866191387176514,986.7593994140625,9.947422339289911,986.7839256332456,0,0
20.68,0.7757067680358887,5.116397380828857,7.357243537902832,986.7671508789062,9.943412220554297,986.7835835949277,0,0
20.72,0.7255276441574097,4.837553977966309,8.60949420928955,986.8001098632812,9.93972017394425,986.7833404233081,0,0
20.76,0.4602574110031128,4.208367824554443,8.618964195251465,986.7874755859375,9.935244022183491,986.7831400023244,0,0
20.8,0.21649622917175293,4.31799840927124,8.474565505981445,986.7344360351562,9.929771285055056,986.7827871349438,0,0
20.84,-0.1658792346715927,4.491978168487549,8.12421989440918,986.7725219726562,9.922613832878476,986.782437945619,0,0
20.88,-0.14436128735542297,4.553943157196045,9.111344337463379,986.7747192382812,9.917241446749177,986.7821011734618,0,0
20.92,-0.18498077988624573,4.839935779571533,8.716022491455078,986.7747192382812,9.912689269185892,986.7817765854937,0,0
20.96,0.008610129356384277,5.209343910217285,8.053207397460938,986.764892578125,9.907509668811771,986.7814285560171,0,0
21.0,0.19025146961212158,4.873301029205322,9.262847900390625,986.7776489257812,9.904951867040594,986.781106989379,0,0
21.04,0.054035961627960205,4.167850971221924,9.516139030456543,986.7901000976562,9.904434272543762,986.780854787162,0,0
21.08,0.48183727264404297,4.596840858459473,9.07347297668457,986.7598876953125,9.904979322624305,986.7805560186314,0,0
21.12,0.6563089489936829,4.937649250030518,8.065046310424805,986.78271484375,9.903928282428064,986.7802993574039,0,0
21.16,0.11858981847763062,4.506275653839111,8.005866050720215,986.784912109375,9.900421283305075,986.7800887363256,0,0
21.2,0.27872204780578613,4.432394027709961,8.124228477478027,986.7697143554688,9.895012952231964,986.7798648426474,0,0
21.24,0.09709841012954712,4.048685550689697,9.25338363647461,986.7849731445312,9.890975020977907,986.7796849589552,0,0
21.28,-0.23508910834789276,3.8723230361938477,9.213142395019531,986.7877807617188,9.887787374520927,986.7795547174893,0,0
21.32,0.04692816734313965,4.444309711456299,9.177635192871094,986.7874755859375,9.88608468481522,986.7794677101309,0,0
21.36,-0.05343890190124512,4.561089992523193,9.004830360412598,986.7950439453125,9.885329486937895,986.7794464637487,0,0
21.4,-0.13468670845031738,4.8518500328063965,8.088724136352539,986.764892578125,9.88303467341869,986.7793748553349,0,0
21.44,-0.6198279857635498,4.439542293548584,8.877002716064453,986.7900390625,9.88122857628367,986.7793495321602,0,0
21.48,-0.8351320028305054,3.99625825881958,9.09713363647461,986.7623901367188,9.879956698404472,986.7792656616574,0,0
21.52,-0.5244447588920593,4.084439277648926,9.575307846069336,986.7802124023438,9.88078872994756,986.7791945208232,0,0
21.56,-0.4097294807434082,4.4014153480529785,8.434316635131836,986.7623291015625,9.880234074173984,986.7790705041512,0,0
21.6,-0.41450929641723633,4.57301139831543,8.091073036193848,986.7500610351562,9.877666688914216,986.7788560478118,0,0
21.64,-0.7323662042617798,4.229819297790527,8.543208122253418,986.7598266601562,9.874258409366256,986.7785976072743,0,0
21.68,-0.6606691479682922,4.341833591461182,8.072134971618652,986.7701416015625,9.868781808198753,986.7783383664729,0,0
21.72,-1.1267000436782837,4.015324592590332,8.562145233154297,986.800537109375,9.862700716050767,986.7781887756486,0,0
21.76,-1.2103466987609863,4.158320903778076,8.282815933227539,986.7750244140625,9.855470012289947,986.7780447643714,0,0
21.8,-1.420657992362976,4.134488105773926,8.803600311279297,986.7877197265625,9.848986837775627,986.7779519047458,0,0
21.84,-1.8747392892837524,3.9938745498657227,9.532697677612305,986.790283203125,9.845617031470413,986.777913805529,0,0
21.88,-1.499524712562561,4.2512688636779785,9.2888765335083,986.7880859375,9.844365151324213,986.7779163196105,0,0
21.92,-1.7026664018630981,3.9485924243927,9.660528182983398,986.7928466796875,9.84588682574799,986.7779718492228,0,0
21.96,-1.8006525039672852,3.555351495742798,9.172883987426758,986.7852783203125,9.847790621371052,986.7780467773586,0,0
22.0,-1.6429189443588257,3.433804512023926,8.313589096069336,986.7728881835938,9.846937830713216,986.7780939717982,0,0
22.04,-1.1075809001922607,3.4719367027282715,8.370402336120605,986.7801513671875,9.843600922063683,986.7781426383036,0,0
22.08,-0.6965177059173584,3.645915985107422,10.434602737426758,986.7930297851562,9.845085973569057,986.7782387926296,0,0
22.12,-0.572242796421051,3.5410518646240234,11.284428596496582,986.8033447265625,9.853582775574123,986.7784136948255,0,0
22.16,-0.48859623074531555,3.3646891117095947,11.227615356445312,986.790283203125,9.867849683574054,986.7786105275087,0,0
22.2,-0.519665002822876,3.1501941680908203,10.557697296142578,986.7651977539062,9.884639308641354,986.7787357217594,0,0
22.24,-0.1922484040260315,3.188326358795166,10.216819763183594,986.7579956054688,9.902426026133002,986.778771237859,0,0
22.28,-0.5579034090042114,2.9142494201660156,9.419073104858398,986.7801513671875,9.918044983820138,986.7788071472253,0,0
22.32,-0.41928908228874207,3.047713279724121,8.765725135803223,986.7706909179688,9.92958457908989,986.7788092171927,0,0
22.36,-0.2806747853755951,3.226459264755249,8.159721374511719,986.7631225585938,9.935638657720306,986.7787541331229,0,0
22.4,-0.5818024277687073,3.0238800048828125,8.40591049194336,986.7855834960938,9.937447616037867,986.7787296054203,0,0
22.44,-0.5101053714752197,3.2312254905700684,7.762031078338623,986.7601928710938,9.933594684757953,986.7786407593771,0,0
22.48,-0.46890008449554443,3.5529541969299316,7.354925155639648,986.7579956054688,9.92388298285655,986.7784874913388,0,0
22.52,-0.6552897095680237,3.769831657409668,7.456716537475586,986.7579956054688,9.909747876206149,986.7782778517904,0,0
22.56,-0.9970229864120483,3.622067928314209,8.036684036254883,986.7655639648438,9.893520036017684,986.7780464031714,0,0
22.6,-0.9420324563980103,3.872311592102051,8.38229751586914,986.7904663085938,9.876977625090555,986.7778861657059,0,0
22.64,-0.8870419263839722,3.757913827896118,8.548003196716309,986.8134765625,9.860570229726866,986.7778722641808,0,0
22.68,-1.2287752628326416,3.0643789768218994,10.006202697753906,986.8057250976562,9.848507119826044,986.7779598098653,0,0
22.72,-1.3362979888916016,2.914232015609741,9.897313117980957,986.7782592773438,9.839846547191772,986.7780378021903,0,0
22.76,-0.5810662508010864,3.8317935466766357,9.442811965942383,986.7732543945312,9.833516541292132,986.7780890548174,0,0
22.8,-0.6742497086524963,4.153535842895508,9.260539054870605,986.76806640625,9.829140905925861,986.7780978189811,0,0
22.84,-0.37787914276123047,4.482427597045898,9.61325454711914,986.7883911132812,9.828098830636028,986.7781421777297,0,0
22.88,-0.22968250513076782,4.55869197845459,10.799224853515625,986.8163452148438,9.83400413807395,986.778318462923,0,0
22.92,0.5351088047027588,5.1378278732299805,10.10563850402832,986.7733154296875,9.844677276575794,986.778455776476,0,0
22.96,1.1660658121109009,5.581117153167725,9.684276580810547,986.787841796875,9.859124202610783,986.7786104552783,0,0
23.0,0.726346492767334,5.0115132331848145,10.008584976196289,986.7886352539062,9.876776816109986,986.7787827776165,0,0
23.04,0.08348560333251953,4.27984619140625,9.620366096496582,986.785888671875,9.89472534067629,986.7789601817273,0,0
23.08,-0.16504141688346863,4.027217864990234,9.565923690795898,986.7659301757812,9.912333066313957,986.7790695868549,0,0
23.12,-0.21042680740356445,3.917586326599121,9.056977272033691,986.7479248046875,9.927739523796795,986.7790536948899,0,0
23.16,-0.14348682761192322,4.055816173553467,8.131402969360352,986.7557373046875,9.938329247158814,986.778955272624,0,0
23.2,-0.012019515037536621,4.3155927658081055,8.09352970123291,986.7504272460938,9.944928346468801,986.7787651646948,0,0
23.24,-0.12193220853805542,4.337041854858398,7.937296390533447,986.77587890625,9.947522240450734,986.778586353675,0,0
23.28,-0.23423486948013306,4.084414005279541,8.780023574829102,986.7785034179688,9.94887411846268,986.7784276165658,0,0
23.32,0.16251158714294434,3.9700160026550293,9.677194595336914,986.7833862304688,9.951912804657704,986.7783047663416,0,0
23.36,0.21511220932006836,3.8556180000305176,9.658258438110352,986.7835083007812,9.956216784672385,986.7782145074831,0,0
23.36,0.21511220932006836,3.8556180000305176,9.658258438110352,986.7606201171875,9.956216784672385,986.7780709738295,0,0
23.44,0.32912492752075195,4.031998157501221,8.562179565429688,986.7785034179688,9.958347849974459,986.7779452631686,0,0
23.44,0.32912492752075195,4.031998157501221,8.562179565429688,986.7609252929688,9.958347849974459,986.777772472215,0,0
23.52,0.10207664966583252,3.977182388305664,8.765758514404297,986.7808837890625,9.957211023247282,986.7776305537453,0,0
23.56,0.29565107822418213,4.437155246734619,8.413044929504395,986.7608032226562,9.95461831518836,986.777444135073,0,0
23.6,0.1618090569972992,4.646884441375732,7.904095649719238,986.8012084960938,9.949503856566867,986.7773645261068,0,0
23.64,0.07337510585784912,4.830397129058838,8.010618209838867,986.7861938476562,9.942842982530268,986.777325528057,0,0
23.68,0.30518805980682373,5.10447359085083,9.092430114746094,986.7586669921875,9.938717437665893,986.7772234575305,0,0
23.72,0.45574426651000977,5.221254825592041,9.227359771728516,986.7510375976562,9.937495720315573,986.7770385577985,0,0
23.76,0.6588783264160156,5.056808948516846,9.326781272888184,986.7910766601562,9.93890877913805,986.7769252764386,0,0
23.8,0.5584948658943176,4.766048908233643,9.29837417602539,986.7659301757812,9.942046237658028,986.7767851575453,0,0
23.84,0.3027677536010742,4.797031879425049,8.507728576660156,986.7533569335938,9.944204970248899,986.7765765657657,0,0
23.88,-0.1322019398212433,4.79226541519165,8.410672187805176,986.7709350585938,9.945165057127367,986.7763715035218,0,0
23.92,-0.07246199250221252,4.8828301429748535,7.790464401245117,986.7786254882812,9.943310949518873,986.7761979837453,0,0
23.96,-0.35447800159454346,4.4824395179748535,8.810728073120117,986.7762451171875,9.94148705980936,986.7760443902288,0,0
24.0,-0.8252962827682495,3.9891011714935303,8.841501235961914,986.7409057617188,9.939131366265524,986.7757817348179,0,0
24.04,-0.6197723150253296,4.289394378662109,8.08399486541748,986.7659301757812,9.934289848804392,986.7755137457639,0,0
24.08,-0.808582067489624,4.074899673461914,8.782320022583008,986.7459716796875,9.929223646420557,986.7751701580809,0,0
24.12,-0.8755069375038147,4.594454288482666,8.100564956665039,986.7713623046875,9.922675832372505,986.7748524146111,0,0
24.16,-1.1599128246307373,5.183124542236328,7.260206699371338,986.7634887695312,9.913552698569665,986.7745303062395,0,0
24.2,-0.9496090412139893,5.216490745544434,8.803621292114258,986.768798828125,9.90680000003887,986.774224616841,0,0
24.24,-1.1192996501922607,5.011528491973877,7.856740951538086,986.7684936523438,9.898958360712244,986.773933437096,0,0
24.28,-0.5529005527496338,5.409536838531494,7.927755832672119,986.804443359375,9.891001593744994,986.7737855452677,0,0
24.32,-0.8946640491485596,4.8351664543151855,9.71735954284668,986.7684936523438,9.88756973697165,986.773635376113,0,0
24.36,-1.0046072006225586,4.511041164398193,8.718400001525879,986.7689819335938,9.884465397571303,986.773485493134,0,0
24.4,-0.7823538184165955,4.858999729156494,8.394092559814453,986.7765502929688,9.881168144834994,986.7733636486912,0,0
24.44,-0.5218621492385864,4.937648296356201,9.080581665039062,986.7796020507812,9.879940251873265,986.7732780040665,0,0
24.48,-0.7771790623664856,4.880439281463623,9.468839645385742,986.7564697265625,9.881738735244037,986.7731413775581,0,0
24.52,-0.7054731249809265,4.954321384429932,8.616645812988281,986.7587890625,9.883625507339325,986.7729685449222,0,0
24.56,-0.5644600987434387,5.04011869430542,9.182408332824707,986.7787475585938,9.887475248377845,986.7728361933322,0,0
24.6,-0.8703587055206299,4.899505138397217,8.325481414794922,986.7413940429688,9.890199424804933,986.7726056146098,0,0
24.64,-0.9253175854682922,4.885204792022705,7.674502372741699,986.7589721679688,9.88992150159124,986.7723523537243,0,0
24.68,-0.9229187965393066,4.935253620147705,8.562204360961914,986.77392578125,9.889804786730643,986.7721337956242,0,0
24.72,-1.1738497018814087,4.5491623878479,8.659259796142578,986.7413940429688,9.889564400717648,986.7718295734618,0,0
24.76,-0.827305018901825,5.066334247589111,8.110069274902344,986.748779296875,9.888303071301877,986.771477340647,0,0
24.8,-0.6384940147399902,5.347560405731201,8.817864418029785,986.78466796875,9.888787360840132,986.7712131528714,0,0
24.84,-0.9682916402816772,5.0019850730896,9.324446678161621,986.7567749023438,9.891867693967098,986.7709272977332,0,0
24.88,-0.7460218667984009,5.805149555206299,7.93253231048584,986.7589721679688,9.894467770009967,986.7706312365483,0,0
24.92,-1.2048742771148682,5.569204807281494,7.982244491577148,986.7745971679688,9.896451546290574,986.7703834731183,0,0
24.96,-1.4773141145706177,5.457190036773682,7.861517906188965,986.7440795898438,9.897437162353235,986.7700694142563,0,0
25.0,-0.2632351815700531,5.2951273918151855,7.4993367195129395,986.7465209960938,9.895740039562066,986.769706696425,0,0
25.04,-1.166609287261963,5.442890167236328,8.372835159301758,986.7818603515625,9.89481153299748,986.769429510987,0,0
25.04,-1.166609287261963,5.442890167236328,8.372835159301758,986.7694091796875,9.89481153299748,986.7691840756222,0,0
25.12,-1.240687370300293,4.139236927032471,9.26763916015625,986.7515869140625,9.895181732252297,986.7689034180361,0,0
25.16,-0.5619375705718994,5.211711406707764,6.831788539886475,986.7465209960938,9.885865986836443,986.7685744111587,0,0
25.16,-0.5619375705718994,5.211711406707764,6.831788539886475,986.764404296875,9.885865986836443,986.7682682471526,0,0
25.24,-0.7077127695083618,5.726499557495117,7.4827704429626465,986.757080078125,9.878267967782358,986.7679570021116,0,0
25.28,-1.1354963779449463,4.680240154266357,8.633232116699219,986.741455078125,9.87158104211261,986.7675861379532,0,0
25.32,-1.2047946453094482,4.775571346282959,7.2910284996032715,986.7796630859375,9.861810014080298,986.7673014782758,0,0
25.36,-0.8869287967681885,5.5644354820251465,8.136119842529297,986.7515869140625,9.853302180667121,986.7669929394382,0,0
25.4,-0.5475538969039917,5.883795261383057,8.597726821899414,986.7744750976562,9.847870234707248,986.7667468091717,0,0
25.44,-0.9777274131774902,5.0853962898254395,7.530118465423584,986.7647094726562,9.840518348383206,986.7665215529391,0,0
25.48,-0.6050022840499878,4.797022342681885,9.608512878417969,986.7694091796875,9.83731952993577,986.7663324708699,0,0
25.52,0.06884384155273438,5.373778343200684,8.074556350708008,986.7697143554688,9.833996972249272,986.7661771316193,0,0
25.56,0.25525617599487305,5.60972261428833,7.743147850036621,986.79736328125,9.830093003417163,986.766151702873,0,0
25.6,1.2183867692947388,6.126894474029541,8.152673721313477,986.7821044921875,9.828230007528619,986.766186222953,0,0
25.64,1.1634190082550049,6.02918004989624,9.194242477416992,986.75927734375,9.831004403950198,986.7661914118127,0,0
25.68,0.8431720733642578,5.745569705963135,7.731311798095703,986.7648315429688,9.83287378182822,986.7661906600426,0,0
25.72,0.8742407560348511,5.7813191413879395,7.6602959632873535,986.7850341796875,9.833819725498808,986.7662573913275,0,0
25.76,0.24808645248413086,5.371394634246826,7.804695129394531,986.7847290039062,9.833373506215453,986.7663824117739,0,0
25.8,0.10230246186256409,5.399994373321533,7.788125038146973,986.7872314453125,9.831698512892945,986.7665674952382,0,0
25.84,0.4966362714767456,5.786085605621338,7.814164161682129,986.815673828125,9.829873396596255,986.7669073766579,0,0
25.88,0.5516040325164795,5.8146843910217285,8.211854934692383,986.8232421875,9.829150992154846,986.7674100600696,0,0
25.92,0.45839786529541016,5.767019271850586,8.455676078796387,986.8080444335938,9.8300109702049,986.7680000737486,0,0
25.96,0.8264427185058594,6.038712978363037,7.717108726501465,986.80029296875,9.830784337703165,986.7686372231299,0,0
26.0,0.6710991263389587,5.855200290679932,7.968031883239746,986.830810546875,9.831755613683965,986.7694235911558,0,0
26.04,0.5970121622085571,5.6931376457214355,8.204752922058105,986.8030395507812,9.833235023012678,986.770239002269,0,0
26.08,0.7595254182815552,5.902865886688232,8.11953353881836,986.7574462890625,9.835384322202724,986.7709130046387,0,0
26.12,0.513365626335144,5.828984260559082,7.492224216461182,986.8284301757812,9.836099546551408,986.7717151738156,0,0
26.16,0.9626671075820923,6.155493259429932,7.546670436859131,986.7928466796875,9.836551756372174,986.7724996027929,0,0
26.2,0.6376405358314514,5.826601505279541,8.226058006286621,986.7699584960938,9.837902215504684,986.7731831351284,0,0
26.24,0.6687092781066895,5.7932353019714355,7.620053291320801,986.7572631835938,9.838222892497297,986.7737293513521,0,0
26.28,0.37236136198043823,5.886183261871338,7.31468391418457,986.7647094726562,9.83691530702942,986.7741790753207,0,0
26.32,0.29588449001312256,5.795618534088135,7.572709083557129,986.7749633789062,9.834693112674394,986.7745788337877,0,0
26.36,0.2504763603210449,5.864733695983887,7.5940141677856445,986.78271484375,9.831878473676635,986.7749609088793,0,0
26.4,0.10947218537330627,5.802768230438232,8.072188377380371,986.7825317382812,9.82978806637424,986.7753253242904,0,0
26.44,0.22657740116119385,5.82898473739624,8.12190055847168,986.7501220703125,9.82855260144509,986.7755561489128,0,0
26.48,0.5278774499893188,5.950527667999268,7.423591613769531,986.7648315429688,9.82638166415461,986.7757210558453,0,0
26.52,0.3464277982711792,5.8194427490234375,7.568007469177246,986.74462890625,9.823479406581507,986.7757543947536,0,0
26.56,0.4492075443267822,5.776543140411377,7.231865882873535,986.7928466796875,9.818910249549859,986.7758449441126,0,0
26.6,0.3607950210571289,5.7431769371032715,7.336024284362793,986.7955932617188,9.813090205338984,986.7759956063428,0,0
26.64,0.21741485595703125,5.49769926071167,8.003576278686523,986.7598266601562,9.807584844575484,986.7760700821618,0,0
26.68,0.35126328468322754,5.5167646408081055,7.73371696472168,986.7501220703125,9.801635435004677,986.7760420350335,0,0
26.72,0.4683823585510254,5.65737771987915,7.068533897399902,986.7701416015625,9.793729673124892,986.7759955699081,0,0
26.76,0.2533050775527954,5.5691962242126465,7.201098442077637,986.7828369140625,9.784271610407018,986.7759787010382,0,0
26.8,0.3393554091453552,5.631161212921143,7.889955520629883,986.7828369140625,9.775608585662226,986.7759880441474,0,0
26.84,0.26528239250183105,5.528679847717285,7.972808837890625,986.7701416015625,9.767702585184773,986.7759748114031,0,0
26.88,0.3895711898803711,5.659759998321533,8.195327758789062,986.7725219726562,9.761435565881614,986.7759502476081,0,0
26.92,0.5186397433280945,5.757473945617676,8.112476348876953,986.7930297851562,9.75661794508723,986.7759895882481,0,0
26.96,0.32029175758361816,5.473863124847412,7.8994293212890625,986.7678833007812,9.751854733889628,986.7759947258807,0,0
27.0,0.38722294569015503,5.442880630493164,7.648508071899414,986.7423706054688,9.746362915665337,986.7758777775414,0,0
27.04,0.35616815090179443,5.321333408355713,7.376280784606934,986.7450561523438,9.739191931472243,986.7756630430205,0,0
27.08,0.29165470600128174,5.297500133514404,7.283960819244385,986.7423706054688,9.730235459929528,986.7753530097057,0,0
27.12,0.2868887186050415,5.476245403289795,6.725302219390869,986.7852783203125,9.718532137127356,986.7751143542637,0,0
27.16,0.09093070030212402,5.364230632781982,6.886273384094238,986.7678833007812,9.70463052612529,986.7748770054021,0,0
27.2,0.031197071075439453,5.302265644073486,7.082752227783203,986.8108520507812,9.689261819324612,986.7747963529839,0,0
27.24,-0.1647610068321228,5.435728549957275,6.6566572189331055,986.7780151367188,9.671745060522245,986.7747362350058,0,0
27.28,-0.08827027678489685,5.671672821044922,7.007004737854004,986.790771484375,9.653903675821905,986.7747404005329,0,0
27.32,-0.18863223493099213,5.585874557495117,7.560931205749512,986.7933349609375,9.63723363607188,986.7748105804845,0,0
27.36,0.086220383644104,5.58349084854126,7.866301536560059,986.7958984375,9.622538564244529,986.7749480666487,0,0
27.4,0.27264660596847534,5.614473342895508,7.634316921234131,986.7930297851562,9.609042572515289,986.7751342024836,0,0
27.44,0.17945438623428345,5.5048418045043945,7.871038436889648,986.7782592773438,9.597109085787686,986.7753094812526,0,0
27.48,0.3801882266998291,5.547741413116455,7.927850246429443,986.7657470703125,9.58687614606554,986.7754294917714,0,0
27.52,0.31803107261657715,5.388062000274658,7.558564186096191,986.7957763671875,9.576757839809583,986.7756083406905,0,0
27.56,0.14118969440460205,5.307030200958252,7.4520416259765625,986.8186645507812,9.56627997432006,986.7759209328208,0,0
27.6,0.30610430240631104,5.430960655212402,7.333682060241699,986.79345703125,9.5554540825912,986.7762598280541,0,0
27.64,0.1244831383228302,5.368995189666748,7.281604766845703,986.8059692382812,9.544060902800831,986.7766657886294,0,0
27.68,0.2415996789932251,5.366611957550049,7.336050987243652,986.8037719726562,9.532368856101282,986.7771216365265,0,0
27.72,0.29418885707855225,5.330862045288086,7.378662109375,986.8262939453125,9.520508772253685,986.7777010029063,0,0
27.76,0.24879217147827148,5.314178943634033,7.321850776672363,986.8217163085938,9.508337234861823,986.7783709450063,0,0
27.8,0.38263797760009766,5.490540981292725,7.291077613830566,986.8163452148438,9.49623924226282,986.7790991720838,0,0
27.84,0.22013604640960693,5.461941719055176,7.48992395401001,986.8013916015625,9.48474417922447,986.7798224451441,0,0
27.88,0.31813347339630127,5.569188594818115,7.383400917053223,986.8394775390625,9.473755517586113,986.7806758464204,0,0
27.92,0.3587731122970581,5.60493803024292,7.81186580657959,986.8343505859375,9.46457707004328,986.7816226997128,0,0
27.96,0.07916593551635742,5.497690677642822,7.579880714416504,986.811279296875,9.456105097795907,986.7825656618969,0,0
28.0,0.2034522294998169,5.571571350097656,7.2721452713012695,986.8417358398438,9.44756552011435,986.7836114347834,0,0
28.04,-0.04269629716873169,5.347542762756348,7.61302375793457,986.8441162109375,9.439501513368715,986.784752855759,0,0
28.08,0.08636981248855591,5.442873477935791,7.47335958480835,986.841552734375,9.43167855821554,986.7859654537548,0,0
28.12,-0.013994753360748291,5.414273738861084,7.572783470153809,986.829345703125,9.424325345572075,986.7871926331013,0,0
28.16,-0.009203553199768066,5.581103324890137,7.513604164123535,986.83935546875,9.417595211166821,986.7884643138381,0,0
28.2,0.13898175954818726,5.633534908294678,7.835544586181641,986.8923950195312,9.412490580503583,986.7899616803263,0,0
28.24,0.30389630794525146,5.478621959686279,8.451018333435059,986.8570556640625,9.41036904186789,986.7915258505499,0,0
28.28,0.73170006275177,5.60731840133667,8.219033241271973,986.8623657226562,9.410532401983932,986.7931625337503,0,0
28.32,0.5835375785827637,5.440488815307617,8.389472961425781,986.8546752929688,9.412856863668026,986.7948297118112,0,0
28.36,0.6170076131820679,5.590634822845459,7.7858381271362305,986.8521728515625,9.4156023090977,986.7965088245006,0,0
28.4,0.6217987537384033,5.569185256958008,7.774003028869629,986.8648681640625,9.418631505628614,986.7982381409445,0,0
28.4,0.6217987537384033,5.569185256958008,7.774003028869629,986.8775634765625,9.418631505628614,986.8000512950088,0,0
28.48,0.4185605049133301,5.409508228302002,7.982307434082031,986.8927612304688,9.422147125720219,986.8019867125506,0,0
28.52,0.38738858699798584,5.419044017791748,7.996501922607422,986.8851318359375,9.426136718256094,986.8039957287779,0,0
28.56,0.3133041262626648,5.416660308837891,7.5396318435668945,986.9003295898438,9.429168011838781,986.8061172562558,0,0
28.6,0.5761958360671997,5.614471912384033,7.7929229736328125,986.9080810546875,9.432540852222385,986.8083584664471,0,0
28.64,0.6192166209220886,5.583489894866943,8.086456298828125,986.8983154296875,9.437010611725787,986.8106622036775,0,0
28.68,0.5642514228820801,5.650221347808838,7.809493064880371,986.9183959960938,9.441747186128698,986.8130851863805,0,0
28.72,0.6240013837814331,5.647838115692139,8.034378051757812,986.887939453125,9.447368522389576,986.8154951680943,0,0
28.76,0.5140684843063354,5.576340198516846,8.233222961425781,986.9284057617188,9.454170917754954,986.818030664904,0,0
28.8,0.5618690252304077,5.671670436859131,7.878142833709717,986.9337158203125,9.461151506508717,986.8206870552724,0,0
28.84,0.6574676632881165,5.745552062988281,8.320810317993164,986.9461669921875,9.469738529585229,986.8234855283995,0,0
28.88,0.4614982604980469,5.616855144500732,8.415498733520508,986.9464721679688,9.479696875706859,986.8264005699803,0,0
28.92,0.6981010437011719,5.852799892425537,7.89234733581543,986.9690551757812,9.489830849043633,986.82948941612,0,0
28.96,0.181884765625,5.466708660125732,8.304240226745605,986.9514770507812,9.500419373616392,986.8326574348735,0,0
29.0,0.4304370880126953,5.52390718460083,8.178778648376465,986.9664306640625,9.511137661393098,986.8359378386847,0,0
29.04,0.6742095947265625,5.740785598754883,7.916019439697266,986.97412109375,9.521654584357126,986.8393334220235,0,0
29.08,0.5547170639038086,5.590638637542725,8.13616943359375,986.9514770507812,9.532263930273531,986.8427370353404,0,0
29.12,0.5547195672988892,5.612088680267334,8.112497329711914,986.9817504882812,9.542890460909748,986.8462444753071,0,0
29.16,0.34202080965042114,5.519140243530273,7.949161052703857,986.9717407226562,9.55278567276479,986.8497949945615,0,0
29.2,0.2512071132659912,5.407125949859619,8.067522048950195,986.9613037109375,9.562113753823084,986.8533332235636,0,0
29.24,0.3515855073928833,5.564422130584717,8.04384994506836,986.969482421875,9.57116647084118,986.8568772986314,0,0
29.28,0.2942304015159607,5.4309587478637695,8.138538360595703,987.0020751953125,9.579948392045107,986.8605311145907,0,0
29.32,0.4686957597732544,5.609704494476318,8.08409309387207,987.0147094726562,9.58868366350032,986.8643142272591,0,0
29.36,0.3372536897659302,5.5000739097595215,8.330282211303711,987.0073852539062,9.59783932528882,986.8681716001062,0,0
29.4,0.5619069337844849,5.58587121963501,8.297141075134277,986.9895629882812,9.607441828186818,986.87201654255,0,0
29.44,0.5762489438056946,5.666903018951416,8.216655731201172,987.0197143554688,9.617332475152885,986.8759452046127,0,0
29.48,0.45007073879241943,5.650207996368408,8.133849143981934,987.0147094726562,9.627139762355013,986.8799156805683,0,0
29.52,0.5963708162307739,5.726460933685303,8.027371406555176,987.030029296875,9.636710727729175,986.8839639609297,0,0
29.56,0.4195597171783447,5.531030654907227,8.4061279296875,987.0579223632812,9.646732191433118,986.8881668304879,0,0
29.6,0.48412877321243286,5.514346599578857,8.207286834716797,987.030029296875,9.656497453949564,986.8923907496934,0,1
29.64,0.46983110904693604,5.664492130279541,8.03211784362793,987.0431518554688,9.665786009816737,986.8966653034659,0,1
29.68,0.3073594570159912,5.5238776206970215,8.37773323059082,987.0432739257812,9.675339200490457,986.9009696489994,0,1
29.72,0.5965791940689087,5.790803909301758,7.859319686889648,987.0731201171875,9.68415898205555,986.9053922691722,0,1
29.76,0.7854231595993042,6.06964635848999,8.792001724243164,987.0534057617188,9.695654018752723,986.9098325037054,0,1
29.8,1.1367803812026978,6.298440456390381,8.451128959655762,987.0835571289062,9.709070783818275,986.9143808623587,0,1
29.84,1.636311650276184,6.686913967132568,8.988487243652344,987.0508422851562,9.726731988940244,986.9188906119593,0,1
29.88,2.307915687561035,7.289882183074951,9.374345779418945,987.0585327148438,9.750871849025467,986.923377697047,0,1
29.92,3.352344512939453,8.190760612487793,9.447731971740723,987.0834350585938,9.783702547258903,986.9279182506972,0,1
29.96,2.9723920822143555,8.15977668762207,8.934052467346191,987.0858764648438,9.822343928042471,986.9324984922364,0,1
30.0,3.2616119384765625,7.461474895477295,11.168695449829102,987.0098876953125,9.870886702847052,986.9368237535652,0,1
30.04,1.5289744138717651,6.1316046714782715,6.6757493019104,987.0053100585938,9.911336492978823,986.940891663948,0,1
30.08,-4.754035949707031,2.6281843185424805,4.218596935272217,987.020263671875,9.936157358982202,986.9447713675629,0,1
30.12,-8.606515884399414,0.4308006763458252,2.554457426071167,987.0402221679688,9.954675467698884,986.948542655327,0,1
30.16,-11.792213439941406,-1.4019416570663452,1.3897978067398071,987.0330200195312,9.978243937084759,986.9521786424755,0,1
30.2,-15.661422729492188,-3.8829355239868164,-1.398762822151184,987.1979370117188,10.021453338724118,986.9562756895914,0,1
30.24,-3.8911147117614746,-3.835270881652832,2.919018268585205,987.5743408203125,10.045855814315981,986.962120433572,0,1
30.28,28.241159439086914,9.661234855651855,21.634122848510742,987.5081787109375,10.163962337485945,986.9692502178311,0,1
30.32,24.12578773498535,14.382508277893066,25.73175621032715,986.9340209960938,10.368863746365616,986.9754228287684,0,1
30.36,13.84925365447998,8.502959251403809,11.204237937927246,986.819580078125,10.5836479326353,986.9803154726752,0,1
30.4,5.761866092681885,1.953708291053772,0.8145903944969177,986.9365844726562,10.757428248224215,986.9844807400018,0,1
30.44,-12.475433349609375,-6.004059314727783,0.15887919068336487,986.9873657226562,10.922099217272509,986.9881711149135,0,1
30.48,-27.396072387695312,-11.209127426147461,-0.013970479369163513,987.0946044921875,11.13484471453693,986.9918146490918,0,1
30.52,-18.350805282592773,-9.383522987365723,6.3442888259887695,987.236083984375,11.360375465611508,986.9959130042234,0,1
30.56,4.632883071899414,-6.018334865570068,11.561601638793945,987.543701171875,11.568556230894059,987.0015059068933,0,1
30.6,42.64665985107422,18.879776000976562,28.219606399536133,987.315185546875,11.907100201201336,987.0075766010966,0,1
30.64,17.47860336303711,10.0115966796875,23.191667556762695,986.8472290039062,12.273956388422985,987.0123629739167,0,1
30.68,8.8080415725708,2.3827216625213623,4.112016677856445,986.9110717773438,12.58995442825559,987.0162271233987,0,1
30.72,-5.101187229156494,-5.3796162605285645,-3.349405527114868,987.18017578125,12.853133045784174,987.020231259775,0,1
30.76,-18.549165725708008,-10.262953758239746,7.480545520782471,987.26123046875,13.12033501977497,987.0246364705401,0,1
30.8,-21.687108993530273,-11.34972858428955,13.791507720947266,986.9976196289062,13.410344986578789,987.0284312128927,0,1
30.84,-18.647153854370117,-12.784462928771973,3.7806081771850586,986.9972534179688,13.700842392988788,987.0316715659254,0,1
30.88,-6.776508808135986,-15.105774879455566,-1.1550087928771973,987.3531494140625,13.967949798692782,987.0356916208146,0,1
30.92,25.88627815246582,-10.823023796081543,17.92227554321289,987.4371337890625,14.27353722696285,987.0406884917986,0,1
30.96,33.90440368652344,12.235194206237793,23.399982452392578,987.1016235351562,14.646876060759041,987.0453226518823,0,1
31.0,8.612070083618164,4.789833068847656,9.824075698852539,987.1652221679688,14.974122909014188,987.0498485927064,0,1
31.04,7.044294357299805,5.061526298522949,12.489545822143555,987.0558471679688,15.264113855379751,987.0538688676227,0,1
31.08,7.734975814819336,7.90001106262207,8.332737922668457,987.0966186523438,15.515239805547429,987.0575746404913,0,1
31.12,5.517147064208984,6.901417255401611,7.9587202072143555,987.205810546875,15.72408951601579,987.0613822693715,0,1
31.16,4.690240859985352,5.7026286125183105,10.778058052062988,987.2537841796875,15.899055101205198,987.0654388958282,0,1
31.2,2.9408326148986816,4.837498188018799,10.853808403015137,987.218505859375,16.040487592449136,987.0695739307386,0,1
31.24,1.1364563703536987,4.005733966827393,9.395612716674805,987.2792358398438,16.144708472468896,987.0739819891514,0,1
31.28,0.31433022022247314,4.048633098602295,10.0726318359375,987.2235717773438,16.217774501084463,987.0784150315023,0,1
31.32,-0.53886479139328,4.112981796264648,6.995269298553467,987.2008056640625,16.2532293645731,987.0827722327027,0,1
31.36,-1.0574735403060913,3.867504119873047,6.611782550811768,987.2313232421875,16.253882638699046,987.0871565980137,0,1
31.4,-0.10629254579544067,4.024800777435303,8.406122207641602,987.2694091796875,16.22949997576233,987.0916862911853,0,1
31.44,0.024783283472061157,4.062942028045654,8.015499114990234,987.2160034179688,16.181880479833808,987.0961358284234,0,1
31.48,-0.06642454862594604,4.470492362976074,6.7868852615356445,987.251708984375,16.11080707009379,987.100627061577,0,1
31.52,0.8464876413345337,5.087762355804443,8.75876235961914,987.23388671875,16.02660002224548,987.1050748086475,0,1
31.56,0.34696781635284424,5.285574436187744,7.726659297943115,987.2818603515625,15.928223617451716,987.1096408245946,0,1
31.6,0.01474115252494812,5.140195369720459,7.920766830444336,987.2774658203125,15.817949532913183,987.1142790849503,0,1
31.64,0.38036584854125977,5.45717191696167,8.687738418579102,987.3126220703125,15.700526334714567,987.1190910452207,0,1
31.68,-0.10959438979625702,5.366608619689941,8.138544082641602,987.2822265625,15.575346693050259,987.1239297398533,0,1
31.72,0.1078563928604126,5.709801197052002,7.655632019042969,987.3150634765625,15.443050414313227,987.1288928505517,0,1
31.76,0.2727292776107788,5.609704494476318,8.581205368041992,987.29736328125,15.307479107947769,987.1338843073848,0,1
31.76,0.2727292776107788,5.609704494476318,8.581205368041992,987.2846069335938,15.307479107947769,987.1388369187671,0,1
31.84,0.4686405658721924,5.850417137145996,7.018846035003662,987.2821655273438,15.021597731850761,987.1437285878446,0,1
31.84,0.4686405658721924,5.850417137145996,7.018846035003662,987.3302612304688,15.021597731850761,987.1487219428154,0,1
31.92,0.4614405632019043,6.012480735778809,8.013068199157715,987.3305053710938,14.874962769734589,987.1537880502678,0,1
31.96,0.1698421835899353,5.8265862464904785,8.124324798583984,987.3251953125,14.727843115169705,987.1588810876144,0,1
32.0,0.14113306999206543,5.8766350746154785,8.088812828063965,987.2822265625,14.580825005133839,987.1638248977863,0,1
32.04,0.04550659656524658,5.800370693206787,7.932575225830078,987.28759765625,14.433806429450124,987.168638389046,0,1
32.08,-0.15049563348293304,5.914769649505615,7.624836444854736,987.3328857421875,14.286683356619529,987.1734824390477,0,1
32.12,0.023936867713928223,5.736024379730225,7.7787017822265625,987.3455810546875,14.140047069709581,987.178381755295,0,1
32.16,-0.07407940924167633,5.662143230438232,7.425985336303711,987.3405151367188,13.993194256222084,987.1832940299532,0,1
32.2,0.2174583077430725,5.802757740020752,7.54671049118042,987.3275756835938,13.84733949424867,987.1881534884437,0,1
32.24,0.021456003189086914,5.566813945770264,8.022515296936035,987.3353881835938,13.703764952413632,987.1929769095154,0,1
32.28,-0.105239138007164,5.581114292144775,7.435445785522461,987.3379516601562,13.561040366141,987.1977603521221,0,1
32.32,0.11460155248641968,5.583498477935791,7.778687953948975,987.3533325195312,13.42058216992436,987.2025466204537,0,1
32.36,-0.014483511447906494,5.5572829246521,7.657958030700684,987.340576171875,13.282222118135625,987.2072722321792,0,1
32.4,0.15516924858093262,5.771778583526611,7.210554122924805,987.376220703125,13.145405819393007,987.2120555558307,0,1
32.44,0.04281353950500488,5.5692009925842285,8.531450271606445,987.3583374023438,13.013869708884162,987.2168082738935,0,1
32.48,0.2178993821144104,5.6740498542785645,8.138551712036133,987.3253784179688,12.886519518262746,987.2213981867334,0,1
32.52,0.3141583204269409,5.716932773590088,8.249870300292969,987.4041137695312,12.763752724487807,987.2261111684445,0,1
32.56,0.11820909380912781,5.650200366973877,8.879548072814941,987.3583374023438,12.647218093273604,987.2307511321595,0,1
32.6,0.3142038583755493,5.6192169189453125,8.818002700805664,987.3715209960938,12.536377526585744,987.2353573342383,0,1
32.64,0.25686895847320557,5.538184642791748,8.370603561401367,987.353271484375,12.429452353454408,987.2398514239674,0,1
32.68,0.6894639730453491,5.809877872467041,8.389543533325195,987.3810424804688,12.327048476922648,987.2443302480818,0,1
32.72,1.3849481344223022,6.336582183837891,8.567085266113281,987.376220703125,12.230870754380936,987.2487621013337,0,1
32.76,0.7444771528244019,5.931424140930176,8.389547348022461,987.3887939453125,12.138942316576934,987.2531817601283,0,1
32.8,0.374065101146698,5.666879653930664,8.036836624145508,987.3760375976562,12.049441552877537,987.2575288102782,0,1
32.84,0.16616636514663696,5.516732692718506,7.795384407043457,987.3584594726562,11.961365860896837,987.2617327728011,0,1
32.88,-0.05129200220108032,5.454766750335693,7.523158073425293,987.391357421875,11.873935122200885,987.2659136014429,0,1
32.92,0.2594180107116699,5.550097465515137,7.184650421142578,987.41943359375,11.786631808715274,987.2701600122174,0,1
32.96,0.5199400782585144,5.6001458168029785,7.729108810424805,987.376220703125,11.701470484069757,987.2742935178848,0,1
33.0,0.2761927843093872,5.590611934661865,7.9705657958984375,987.424560546875,11.619159446098497,987.2784864034079,0,1
33.04,0.4124399423599243,5.878988265991211,8.626283645629883,987.4320678710938,11.54221059404057,987.2827436889486,0,1
33.08,0.17347252368927002,5.771739959716797,8.230962753295898,987.4065551757812,11.468862620212782,987.2869507064161,0,1
33.12,0.05161029100418091,5.757439613342285,8.036853790283203,987.4143676757812,11.39835564231312,987.2911262867491,0,1
33.16,-0.3020724952220917,5.550094127655029,7.809603691101074,987.4522094726562,11.329529934940783,987.2953952876023,0,1
33.2,-0.3594073951244354,5.426163196563721,7.984779357910156,987.44970703125,11.262707747208964,987.2997224576341,0,1
33.24,-0.6413930654525757,5.399946212768555,7.942171573638916,987.4370727539062,11.19776945604419,987.3040399647418,0,1
33.28,-0.15861015021800995,5.6907057762146,7.421389102935791,987.467529296875,11.133750288707349,987.308443034213,0,1
33.32,-0.07255092263221741,5.526258945465088,8.027395248413086,987.427001953125,11.07218692874768,987.3127599571056,0,1
33.36,0.3433147072792053,5.735987186431885,7.8261847496032715,987.4398193359375,11.01288278965707,987.3170313625344,0,1
33.4,0.22623229026794434,5.738369464874268,7.783576965332031,987.4523315429688,10.955657550047311,987.3212922156148,0,1
33.44,0.05418211221694946,5.540556907653809,8.027400970458984,987.4574584960938,10.900767238020547,987.3255468625982,0,1
33.48,0.30236101150512695,5.635897159576416,8.3280029296875,987.475341796875,10.849240606972202,987.3298450890242,0,1
33.52,0.15140259265899658,5.421411991119385,8.964743614196777,987.4630126953125,10.802373963805213,987.3341219638652,0,1
33.56,0.26849889755249023,5.6573567390441895,8.114916801452637,987.4853515625,10.757699435369375,987.3384449956136,0,1
33.6,0.35213661193847656,5.662123680114746,8.346902847290039,987.4680786132812,10.715829563988857,987.3427310660751,0,1
33.64,0.03905060887336731,5.547726154327393,8.261682510375977,987.468017578125,10.67608208683159,987.3469688279624,0,1
33.68,0.2063348889350891,5.745538234710693,7.951577186584473,987.4884643554688,10.637851620290744,987.3512222568448,0,1
33.72,-0.06851264834403992,5.5262770652771,8.072304725646973,987.5234985351562,10.600993607985055,987.35560033978,0,1
33.76,0.40228915214538574,5.733623027801514,8.183562278747559,987.4807739257812,10.566263539832315,987.3599189973489,0,1
33.8,0.04140514135360718,5.5429606437683105,8.268780708312988,987.4757690429688,10.533374926388671,987.3641515819188,0,1
33.84,0.13699236512184143,5.64544153213501,8.157520294189453,987.4728393554688,10.502111566952202,987.368282328207,0,1
33.88,0.12742391228675842,5.743156433105469,8.050996780395508,987.4986572265625,10.47228484524267,987.3724011638337,0,1
33.92,0.16804343461990356,5.678807735443115,8.491294860839844,987.4984741210938,10.445009531339252,987.3764939882111,0,1
33.96,0.3329378366470337,5.790822505950928,8.34216022491455,987.5057373046875,10.419884887141272,987.3805752423393,0,1
34.0,0.10110849142074585,5.776523113250732,7.681710243225098,987.51123046875,10.394775719278012,987.3846513558693,0,1
34.04,0.14650779962539673,5.719324588775635,7.546778678894043,987.53369140625,10.36926103221871,987.3887891125282,0,1
34.08,0.19907677173614502,5.745541095733643,7.660403251647949,987.4859008789062,10.343866689772986,987.3927943952395,0,1
34.12,0.4213287830352783,5.876621723175049,6.815311431884766,987.5286254882812,10.316622442636756,987.3968220135395,0,1
34.16,0.4786776304244995,5.7646074295043945,7.951567649841309,987.5570068359375,10.290808265368605,987.4009570409853,0,1
34.2,-0.04710966348648071,5.409498691558838,9.087823867797852,987.55908203125,10.26902582692572,987.4051795597547,0,1
34.24,0.23727983236312866,5.740775108337402,8.254568099975586,987.5617065429688,10.24901689955532,987.4094736330304,0,1
34.28,0.2731195092201233,5.755074977874756,7.906588554382324,987.5388793945312,10.229659812647421,987.4137332954716,0,1
34.32,0.5216604471206665,5.600162029266357,8.301911354064941,987.5338134765625,10.2118289940829,987.4179289804099,0,1
34.36,0.3137301802635193,5.349917888641357,8.133838653564453,987.5516357421875,10.194377270813366,987.4221171905133,0,1
34.4,0.35434967279434204,5.46193265914917,7.615420341491699,987.5640258789062,10.17601912010853,987.4263283227851,0,1
34.44,0.3926863670349121,5.48337984085083,7.937369346618652,987.5490112304688,10.157923017190956,987.4304904962755,0,1
34.48,0.3641124367713928,5.514358997344971,7.603603363037109,987.5794067382812,10.139203915018678,987.4347038497845,0,1
34.52,0.35455286502838135,5.547725200653076,8.131488800048828,987.6151123046875,10.121622865246392,987.439075797917,0,1
34.56,0.54096519947052,5.774137020111084,7.840323448181152,987.6002807617188,10.104758058767557,987.4435187476913,0,1
34.6,0.43580949306488037,5.671656131744385,8.290091514587402,987.6052856445312,10.08967363862579,987.448026457473,0,1
34.64,0.5529146790504456,5.650206089019775,8.971845626831055,987.6328735351562,10.078244071209602,987.4526744778422,0,1
34.68,0.6246117353439331,5.707404613494873,8.342169761657715,987.612548828125,10.068320471125908,987.457356574829,0,1
34.72,0.3497730493545532,5.564408302307129,7.944479465484619,987.5745239257812,10.058246377244771,987.4619150367223,0,1
34.76,0.5457450151443481,5.63590669631958,7.908971786499023,987.60009765625,10.048152155172803,987.466439909609,0,1
34.8,0.1800900101661682,5.4905266761779785,8.190669059753418,987.6256103515625,10.038563903925924,987.4710106594049,0,1
34.84,0.2852456569671631,5.519125938415527,8.086511611938477,987.63525390625,10.02921337662159,987.4756402081324,0,1
34.88,0.3449931740760803,5.547725200653076,8.306661605834961,987.6378784179688,10.020827515718766,987.4803144934605,0,1
34.92,0.34260326623916626,5.5596418380737305,8.337435722351074,987.6357421875,10.013439823923555,987.4850037901908,0,1
34.96,0.502726674079895,5.6907219886779785,8.209606170654297,987.6256103515625,10.006869914285495,987.4896529949189,0,1
35.0,0.3187043070793152,5.638289928436279,7.93501091003418,987.6382446289062,10.000101914702576,987.4942955206119,0,1
35.04,0.4334195852279663,5.607306957244873,8.207239151000977,987.6459350585938,9.993938809509896,987.4989431171614,0,1
35.08,0.22549808025360107,5.464310169219971,7.9894561767578125,987.6256103515625,9.987370072381186,987.5035052940287,0,1
35.12,0.24700725078582764,5.447627544403076,8.273521423339844,987.64306640625,9.981283896607586,987.5080384120214,0,1
35.12,0.24700725078582764,5.447627544403076,8.273521423339844,987.6510620117188,9.981283896607586,987.5125583185447,0,1
35.2,0.4453691244125366,5.514358997344971,8.209607124328613,987.6357421875,9.970473284544518,987.5169951283843,0,1
35.2,0.4453691244125366,5.514358997344971,8.209607124328613,987.64306640625,9.970473284544518,987.5213689086643,0,1
35.28,0.29480528831481934,5.483376979827881,8.18356704711914,987.6788940429688,9.965449018296173,987.5258002299017,0,1
35.32,0.340213418006897,5.454777240753174,8.311396598815918,987.67138671875,9.960944394267662,987.5302394152053,0,1
35.36,0.3999609351158142,5.497676372528076,8.079410552978516,987.691162109375,9.956315076405671,987.5347407595324,0,1
35.4,0.44297921657562256,5.647822856903076,7.880565643310547,987.6936645507812,9.951321805679793,987.53928983152,0,1
35.44,0.19681930541992188,5.376129627227783,8.148059844970703,987.7014770507812,9.946234778719667,987.5438928240067,0,1
35.48,0.4020719528198242,5.566798686981201,7.527827262878418,987.69677734375,9.939669695180775,987.5485099709272,0,1
35.52,0.24165266752243042,5.5501227378845215,8.008340835571289,987.7066040039062,9.93317365263021,987.5531583789502,0,1
35.56,0.153203547000885,5.690737247467041,8.050949096679688,987.7247314453125,9.927171441324832,987.5578829337992,0,1
35.6,0.3228638172149658,5.7455525398254395,8.095924377441406,987.6890258789062,9.921887981036326,987.562529223551,0,1
35.64,0.15554797649383545,5.416660785675049,8.668785095214844,987.7166137695312,9.91830395720281,987.5671889480208,0,1
35.68,0.39929521083831787,5.614473342895508,7.932582855224609,987.7014770507812,9.91444713625615,987.5717892762127,0,1
35.72,0.3419148921966553,5.635922908782959,8.275825500488281,987.737060546875,9.91141374141141,987.5764486612513,0,1
35.76,0.1435302495956421,5.438111782073975,7.911273956298828,987.7628784179688,9.907616448951988,987.5812363994636,0,1
35.8,0.25344300270080566,5.430963039398193,8.477033615112305,987.724365234375,9.90484838160029,987.585981667226,0,1
35.84,0.294048547744751,5.478629112243652,8.152724266052246,987.7344970703125,9.90212204357125,987.5907087997414,0,1
35.88,0.1076134741306305,5.445263385772705,8.150355339050293,987.7548828125,9.899354730697155,987.5954762789429,0,1
35.92,0.1458292007446289,5.535829067230225,8.15035343170166,987.7597045898438,9.896745085199294,987.6002796039472,0,1
35.96,0.2700813412666321,5.640693187713623,8.048561096191406,987.7598266601562,9.894206385816881,987.6050977497845,0,1
36.0,0.19597160816192627,5.581112384796143,8.081700325012207,987.7649536132812,9.891708634164791,987.6099301030135,0,1
36.04,0.050164878368377686,5.430966377258301,8.16928482055664,987.7599487304688,9.889207286752471,987.6147395958438,0,1
36.08,0.20070594549179077,5.4762492179870605,8.389432907104492,987.7675170898438,9.88747006034195,987.6195388211427,0,1
36.12,-0.019187748432159424,5.4452667236328125,8.084060668945312,987.7903442382812,9.885429225965199,987.6243938745691,0,1
36.16,0.2771373391151428,5.516765594482422,8.41073226928711,987.7953491210938,9.88426304065252,987.6292987971125,0,1
36.2,0.21975696086883545,5.533449649810791,8.17637825012207,987.7827758789062,9.883200140091471,987.6341848626148,0,1
36.24,0.38941723108291626,5.490550994873047,8.088788986206055,987.7730102539062,9.881903771360943,987.6390015199502,0,1
36.28,0.08348703384399414,5.419053077697754,8.105358123779297,987.7730102539062,9.880284814877879,987.6437395082617,0,1
36.32,0.2149088978767395,5.354705333709717,7.58457088470459,987.7883911132812,9.876717777825489,987.6484462989562,0,1
36.36,-0.05278283357620239,5.185492992401123,8.034337043762207,987.8411254882812,9.872434998187487,987.6532984227301,0,1
36.4,0.028451085090637207,5.442887783050537,7.717130184173584,987.8335571289062,9.867106610081656,987.6582342490728,0,1
36.44,0.045157670974731445,5.469104290008545,8.5338134765625,987.8234252929688,9.863366567765967,987.6631897914209,0,1
36.48,0.3227555751800537,5.652607440948486,9.215601921081543,987.82080078125,9.863490943576329,987.6681354666356,0,1
36.52,0.6672945022583008,5.571566581726074,8.571757316589355,987.8034057617188,9.864974733062388,987.6729919967515,0,1
36.56,0.7700691223144531,5.4261860847473145,8.496007919311523,987.8158569335938,9.867169062545747,987.6777970989657,0,1
36.6,0.6864314079284668,5.378520488739014,8.451032638549805,987.84130859375,9.869733390142768,987.682631087089,0,1
36.64,0.48807835578918457,5.383286952972412,8.091218948364258,987.8234252929688,9.871498576003182,987.6874088165631,0,1
36.68,0.25387680530548096,5.149725437164307,8.313735961914062,987.851318359375,9.872738819529932,987.692220051102,0,1
36.72,0.35426151752471924,5.0615434646606445,8.443933486938477,987.8715209960938,9.873756897779414,987.6971162997594,0,1
36.76,0.5215635299682617,5.287954807281494,8.072282791137695,987.8486938476562,9.873901966094706,987.7019878626642,0,1
36.8,0.452265202999115,5.397585391998291,8.032041549682617,987.87158203125,9.873359934430644,987.7069024730673,0,1
36.84,0.25869202613830566,5.440484523773193,7.9586591720581055,987.8715209960938,9.872055166932721,987.7118372079145,0,1
36.88,0.29693925380706787,5.404735088348389,8.349247932434082,987.8411254882812,9.871184097018096,987.7166625358503,0,1
36.92,0.3734249472618103,5.45001745223999,8.280599594116211,987.8690185546875,9.87059089026087,987.7214742356923,0,1
36.96,0.2730579376220703,5.571564197540283,8.06281852722168,987.8486938476562,9.869828380854061,987.7261834026878,0,1
37.0,0.2013697624206543,5.540581226348877,7.91841983795166,987.889404296875,9.868422406478913,987.7309315762686,0,1
37.04,0.10578250885009766,5.509598255157471,8.226157188415527,987.8746337890625,9.867298584841098,987.7356439488162,0,1
37.08,-0.03282296657562256,5.483382225036621,8.036781311035156,987.9021606445312,9.865808616410288,987.7404068197037,0,1
37.12,-0.0806121677160263,5.423799991607666,8.245096206665039,987.9043579101562,9.864505125210972,987.7452050747434,0,1
37.16,-0.11645185947418213,5.297485828399658,8.301910400390625,987.8843383789062,9.86329677586388,987.749945251191,0,1
37.2,0.12015730142593384,5.414266109466553,7.956298828125,987.8995971679688,9.861369481567188,987.7546719763965,0,1
37.24,0.03412967920303345,5.37136697769165,8.271138191223145,987.9168701171875,9.859669781042726,987.759431982487,0,1
37.28,0.03891831636428833,5.42379903793335,8.117270469665527,987.902099609375,9.857818623419783,987.7641510857181,0,1
37.32,0.14886265993118286,5.50244665145874,8.126739501953125,987.9046630859375,9.856030393607378,987.7688262869252,0,1
37.36,0.09868359565734863,5.459547519683838,8.09360122680664,987.9254150390625,9.854116618494343,987.7735205726062,0,1
37.4,0.3591917157173157,5.547729015350342,8.462883949279785,987.917236328125,9.853402755045233,987.7781853785405,0,1
37.44,0.33769142627716064,5.480996608734131,8.514963150024414,987.9198608398438,9.853775380893438,987.7828167911097,0,1
37.48,0.3495069146156311,5.45001745223999,8.292434692382812,987.9299926757812,9.854376212739446,987.7874384988229,0,1
37.52,0.225089430809021,5.409505367279053,8.377639770507812,987.9198608398438,9.855340922501773,987.7919985185686,0,1
37.56,0.22269701957702637,5.3785223960876465,8.214303016662598,987.9174194335938,9.856069860477444,987.7964788256919,0,1
37.6,0.2991713285446167,5.3570733070373535,8.114880561828613,987.9454345703125,9.856253826819913,987.8009734241232,0,1
37.64,0.1987929344177246,5.28795862197876,8.140920639038086,987.9730834960938,9.855888473544544,987.8055640059268,0,1
37.68,0.2370288372039795,5.302258014678955,8.363436698913574,987.9326171875,9.855743929354471,987.8100771938377,0,1
37.72,0.18683838844299316,5.33800745010376,8.249810218811035,987.9453735351562,9.855516147481973,987.814551671877,0,1
37.76,0.35173916816711426,5.423805236816406,8.455757141113281,987.9503784179688,9.856021949773359,987.8189938553289,0,1
37.8,0.35890626907348633,5.3856730461120605,8.235607147216797,987.9553833007812,9.856435681060011,987.8234095289994,0,1
37.84,0.3302249312400818,5.4571709632873535,8.129081726074219,987.9630737304688,9.856585540134128,987.8278135677461,0,1
37.88,0.24657583236694336,5.514369964599609,7.835549354553223,987.9555053710938,9.855738869462064,987.8321642252411,0,1
37.92,0.28959155082702637,5.559652805328369,8.001253128051758,987.9707641601562,9.854601068096915,987.8365069843321,0,1
37.96,0.07210791110992432,5.3546905517578125,8.571748733520508,987.9808349609375,9.854504576779702,987.8408633853406,0,1
38.0,0.6241727471351624,5.590634822845459,7.937338829040527,987.98583984375,9.853966144828489,987.8452341748799,0,1
38.04,0.29914355278015137,5.276042461395264,8.5220365524292,987.9580688476562,9.854115186677134,987.8495019676999,0,1
38.08,0.35649871826171875,5.466704845428467,8.024924278259277,988.0087280273438,9.853751644513562,987.8538457616023,0,1
38.12,0.6815227270126343,5.781297206878662,8.07936954498291,987.9961547851562,9.853806127471346,987.8581958087319,0,1
38.16,0.5763645768165588,5.583485126495361,8.723248481750488,988.0084838867188,9.855723958536178,987.8625801058057,0,1
38.2,0.5333438515663147,5.4738545417785645,8.76822566986084,988.0188598632812,9.859199129493781,987.8670162361732,0,1
38.24,0.777111291885376,5.609701633453369,8.635662078857422,987.99365234375,9.863953936278513,987.871391449302,0,1
38.28,0.7317007780075073,5.435722827911377,8.737451553344727,987.9885864257812,9.869783634610883,987.8756788478865,0,1
38.32,0.8822618722915649,5.4500226974487305,8.756387710571289,988.0291137695312,9.876669262042531,987.8800191173349,0,1
38.32,0.8822618722915649,5.4500226974487305,8.756387710571289,987.9884643554688,9.876669262042531,987.8842441406231,0,1
38.4,0.7436450719833374,5.40712308883667,8.6759033203125,988.0189819335938,9.884097175491094,987.8884619855959,0,1
38.44,0.6193960905075073,5.309407711029053,8.820304870605469,988.0038452148438,9.899955751589468,987.8926038113812,0,1
38.44,0.6193960905075073,5.309407711029053,8.820304870605469,988.041748046875,9.899955751589468,987.8968000062279,0,1
38.52,0.6289858818054199,5.492919921875,8.365804672241211,988.0393676757812,9.90770147201498,987.9010205659388,0,1
38.56,0.4664725065231323,5.511986255645752,8.74929141998291,988.0286254882812,9.916142589045638,987.9052087885541,0,1
38.6,0.514270544052124,5.571568012237549,8.827409744262695,988.049560546875,9.92552777994338,987.9094287267169,0,1
38.64,0.6146464347839355,5.633533477783203,9.189590454101562,988.0469360351562,9.93695580494483,987.913652048717,0,1
38.68,0.6194262504577637,5.602550983428955,9.338724136352539,988.0570678710938,9.950549291479442,987.917899631323,0,1
38.72,0.60269695520401,5.523902416229248,9.55650806427002,988.0215454101562,9.966534977446738,987.9220254784481,0,1
38.76,0.48320186138153076,5.461937427520752,9.248770713806152,988.041748046875,9.983487682736868,987.9261016365407,0,1
38.8,0.47125232219696045,5.373755931854248,8.976543426513672,988.0469360351562,10.000228290352775,987.9301378919912,0,1
38.84,0.38760578632354736,5.304641246795654,8.898426055908203,988.0291748046875,10.016340101239946,987.9340604185197,0,1
38.88,0.5190503597259521,5.361839771270752,8.763494491577148,988.034423828125,10.031550029477062,987.9378872295604,0,1
38.92,0.45930278301239014,5.354689598083496,8.907894134521484,988.04443359375,10.046328783968827,987.94165172503,0,1
38.96,0.5931373834609985,5.504836559295654,9.04755973815918,988.0771484375,10.061406539049043,987.9454653797089,0,1
39.0,0.32785820960998535,5.502453327178955,8.763494491577148,988.0621337890625,10.07577875105846,987.9492546895749,0,1
39.04,0.6289858818054199,5.6073174476623535,9.028621673583984,988.0773315429688,10.090533589606304,987.9530635587594,0,1
39.08,0.36131685972213745,5.411888599395752,9.035722732543945,988.077392578125,10.105184218584714,987.956876218354,0,1
39.12,0.5907474160194397,5.554884910583496,8.839244842529297,988.052001953125,10.119394175259492,987.9605870953334,0,1
39.16,0.4903715252876282,5.6573662757873535,8.50546932220459,988.0873413085938,10.132337071006084,987.9643218997103,0,1
39.2,0.38282597064971924,5.540585517883301,8.649869918823242,988.077392578125,10.144302630544546,987.9680285856106,0,1
39.24,0.20597326755523682,5.430954456329346,9.000215530395508,988.0723266601562,10.156205855412034,987.9716788446509,0,1
39.28,0.31351882219314575,5.5072197914123535,8.68301010131836,988.0592651367188,10.167194409587504,987.9752190825022,0,1
39.32,0.3087390065193176,5.426187992095947,8.988378524780273,988.0697631835938,10.178115666386827,987.9786871537411,0,1
39.36,0.4138947129249573,5.576334476470947,8.77296257019043,988.0595703125,10.188576873220017,987.98204227917,0,1
39.4,0.41628456115722656,5.552502155303955,8.851080894470215,988.0597534179688,10.198786087105573,987.9852861864085,0,1
39.44,0.4855917692184448,5.540585041046143,8.801369667053223,988.0900268554688,10.208572481881916,987.9885291275579,0,1
39.48,0.3804360628128052,5.51675271987915,8.967073440551758,988.0773315429688,10.218395126430208,987.9917138373588,0,1
39.52,0.4905906319618225,5.516746997833252,8.959992408752441,988.0723266601562,10.228209132931157,987.994817611407,0,1
39.56,0.43824470043182373,5.469076156616211,8.995522499084473,988.0773315429688,10.237991390918726,987.9978567146144,0,1
39.6,0.5864355564117432,5.500058650970459,8.647544860839844,988.0723266601562,10.24673298479127,988.0008097163172,0,1
39.64,0.4573979377746582,5.397576808929443,8.725664138793945,988.052001953125,10.25454210423257,988.0036028389821,0,1
39.68,0.3116309642791748,5.323694705963135,8.420296669006348,988.084716796875,10.260406931824992,988.0063624107197,0,1
39.72,0.5028401613235474,5.347527027130127,8.391891479492188,988.0723266601562,10.264520477590361,988.0090377979087,0,1
39.76,0.3021054267883301,5.2641119956970215,8.26643180847168,988.102783203125,10.266500563534509,988.0117388117861,0,1
39.8,0.2925628423690796,5.309393882751465,8.306675910949707,988.0821533203125,10.266797077668473,988.0143784781798,0,1
39.84,0.12528669834136963,5.233129024505615,8.403732299804688,988.0824584960938,10.265741158492334,988.0169555337701,0,1
39.88,0.338005006313324,5.373741626739502,8.439241409301758,988.0849609375,10.26388964092747,988.0194769978426,0,1
39.92,0.24959570169448853,5.25934362411499,8.569438934326172,988.0974731445312,10.261511522365307,988.0219853079223,0,1
39.96,0.3380390405654907,5.276026248931885,8.439245223999023,988.0698852539062,10.258319345684384,988.024373648815,0,1
40.0,0.12057501077651978,5.185461044311523,8.17648696899414,988.09228515625,10.253427211478387,988.0267280265516,0,1
40.04,0.22813761234283447,5.3165411949157715,8.283013343811035,988.09521484375,10.247634534316846,988.0290544655577,0,1
40.08,0.14689794182777405,5.278408527374268,8.642827987670898,988.0723266601562,10.24208637202129,988.0312654452631,0,1
40.12,0.31420814990997314,5.3880391120910645,8.51263427734375,988.0800170898438,10.236598399320512,988.0333941311492,0,1
40.16,0.2473078966140747,5.228358745574951,9.040521621704102,988.1077880859375,10.232504620612131,988.0355424145285,0,1
40.2,0.4767554998397827,5.361822128295898,8.304323196411133,988.0595703125,10.227677282599153,988.0375266964554,0,1
40.24,0.3979058265686035,5.190225124359131,8.451091766357422,988.0800170898438,10.22232439712088,988.0394325316793,0,1
40.28,0.5174179077148438,5.235507488250732,8.633367538452148,988.0850219726562,10.217190427914836,988.0412802079667,0,1
40.32,0.5102652907371521,5.242656230926514,8.408485412597656,988.0877075195312,10.211591790453141,988.0430795113512,0,1
40.36,0.3597184419631958,5.135408878326416,8.59549617767334,988.0927124023438,10.20595222080384,988.0448476125235,0,1
