Timestamp,Ax,Ay,Az,P,Value,Type
0.0,1.9393767,5.4825434999999985,8.440750999999999,1004.61676,0,0
0.04,1.4852871,5.3395476,8.13775,1004.6171,0,0
0.08,0.9881814,5.3490806,8.208765,1004.5868,0,0
0.12,0.3995698,4.95824,8.767362,1004.61755,0,0
0.16,0.18444313,4.667481,9.240799,1004.62006,0,0
0.2,0.48075324,5.1965694,8.587447000000001,1004.5825,0,0
0.24,0.65758157,5.4682636,7.891486599999999,1004.5955,0,0
0.28,0.0027040690000000004,5.0535746,8.454877,1004.61597,0,0
0.32,-0.054689102,4.881979,8.147138,1004.6084,0,0
0.36,0.25596488,5.163207,7.749444500000001,1004.6117,0,0
0.4,0.42322475,5.515933,8.166069,1004.639,0,0
0.44,0.16029777,5.4158363,7.2570605,1004.58374,0,0
0.48,0.14114304,5.306206,7.9388112999999985,1004.6092,0,0
0.52,0.20802702,5.2347093000000005,8.535343,1004.6324,0,0
0.56,0.040698364,5.3491073,7.6500059999999985,1004.6224,0,0
0.6,0.035883054,5.239477,8.30335,1004.63043,0,0
0.64,-0.17446163,5.344342,7.721016,1004.5854,0,0
0.68,0.03581646,5.4492072999999985,7.9956083,1004.6054,0,0
0.72,-0.07893656,5.301444999999998,8.67736,1004.6382,0,0
0.76,-0.002495214,5.277613,8.331745,1004.6031,0,0
0.8,0.02137053,5.2871475,8.232318,1004.5706,0,0
0.84,0.30334347,5.253782299999999,8.289128999999999,1004.61615,0,0
0.88,0.36544764,5.1060195,8.317533000000001,1004.6138,0,0
0.92,0.07384403,5.377714,8.061871,1004.59155,0,0
0.96,0.11682676,5.806705,8.184961,1004.5737,0,0
1.0,-0.18433416,5.4968796,8.767291,1004.5916,0,0
1.04,-0.3851214000000001,5.325284,8.790958999999999,1004.6174,0,0
1.08,0.0063795,5.27763,8.861935,1004.5999,0,0
1.12,0.15928127,5.1012683,9.046572,1004.6224,0,0
1.16,0.24048595,5.148936,8.218046000000001,1004.5874,0,0
1.2,0.40295058,5.2490344,8.284324,1004.5777,0,0
1.24,0.59409404,5.330067,8.014459,1004.58026,0,0
1.28,0.30725378,5.296702,7.9387026,1004.5856,0,0
1.32,0.38367867,5.3777347,8.218027000000001,1004.5931,0,0
1.36,0.29281044,5.277639,7.8818808,1004.5931,0,0
1.4,0.28319883,5.3014727,8.483145,1004.59863,0,0
1.44,0.082398355,5.2013764,8.194343,1004.57855,0,0
1.48,-0.008469895,5.0965133,8.7719345,1004.5941,0,0
1.52,0.053618833,5.2252116,9.136479,1004.6065,0,0
1.56,0.015328437,5.301478,8.355298,1004.5864,0,0
1.6,0.06785753,5.1108165,8.904484,1004.5893,0,0
1.64,-0.12816961,4.696127400000001,9.126996,1004.602,0,0
1.68,0.3402024,4.800993,8.303205499999999,1004.59753,0,0
1.72,0.89938754,5.134653599999999,8.506780000000001,1004.5769,0,0
1.76,0.6651252,4.7914624,8.255852,1004.5896,0,0
1.8,0.4930002000000001,5.163255,7.361045,1004.572,0,0
1.84,0.36390007,5.5970125,7.564619500000001,1004.5922,0,0
1.88,0.08183962,5.249056,8.767154,1004.6058,0,0
1.92,0.16304107,5.1155934,9.439434,1004.6054,0,0
1.96,0.38286012,5.3777547,8.255828999999999,1004.60046,0,0
2.0,-0.05693058,4.910634,8.733998,1004.59283,0,0
2.04,-0.10955715,4.8868027000000005,7.8486604999999985,1004.56256,0,0
2.08,-0.014581591,5.1442120000000005,8.407264,1004.57324,0,0
2.12,-0.14848632,4.9392514,8.984853999999997,1004.60864,0,0
2.16,0.2959653,5.206180000000002,8.643971,1004.6188,0,0
2.2,0.4679587000000001,5.125150700000002,8.705511,1004.58105,0,0
2.24,0.10940321,5.0298214,8.606082,1004.58356,0,0
2.28,0.18103011,4.9011260000000005,8.767046,1004.6163,0,0
2.32,0.3769225,4.872528599999999,8.823851,1004.60614,0,0
2.36,0.40074664,4.9011297,8.828578,1004.5988,0,0
2.4,0.42458016,5.1728253,8.350397000000001,1004.5863,0,0
2.44,0.24765252,5.0536633,8.643925,1004.60187,0,0
2.48,-0.06789407,4.8630023,8.473478,1004.58936,0,0
2.52,0.056310624,4.7486067,8.8758955,1004.6047,0,0
2.56,0.18051536,4.7867413,9.202563,1004.59424,0,0
2.6,0.32383466,4.848708599999998,8.7433195,1004.5998,0,0
2.64,0.18992521,4.967874,8.066293,1004.5793,0,0
2.68,0.05601117,5.08704,8.108894,1004.58466,0,0
2.72,-0.058774292,5.0346093000000005,8.606001,1004.59247,0,0
2.76,-0.0062713330000000005,4.986946,8.55865,1004.62006,0,0
2.8,0.098814175,4.9488153,8.961068,1004.587,0,0
2.84,0.055721074,4.8773184,8.710137,1004.5925,0,0
2.88,0.02218759,5.025083,8.534958,1004.567,0,0
2.92,0.04123193,4.9726534,8.141995,1004.57745,0,0
2.96,-0.001861155,4.863024,8.714851,1004.5995,0,0
3.0,0.08888960000000001,4.8963923,8.516001,1004.58746,0,0
3.04,0.19874556,4.9249934999999985,8.852136999999997,1004.60004,0,0
3.08,0.30383104,5.087058,8.5396595,1004.60254,0,0
3.12,0.16702606,5.0679474,8.184744,1004.59,0,0
3.16,0.17180468,5.0107484000000015,8.961186999999997,1004.62756,0,0
3.2,0.09054667,4.9916825,8.530355,1004.60785,0,0
3.24,0.028407931,5.0298147,8.49248,1004.6054,0,0
3.28,-0.08152865,4.8296194,8.393058,1004.5704,0,0
3.32,0.14790060000000002,5.020282,8.643981,1004.56744,0,0
3.36,0.08576196400000001,4.95355,8.814419000000003,1004.58,0,0
3.4,0.004503712,4.996449,8.7528715,1004.5829,0,0
3.44,0.095318794,5.0441146,8.620308,1004.59283,0,0
3.48,0.17657422,5.0870132,8.648715,1004.5854,0,0
3.52,0.19091232,4.9058843,8.430932,1004.59784,0,0
3.56,0.13355343,4.8582196,8.582433,1004.5628,0,0
3.6,0.12877233,5.067948,8.132664,1004.5854,0,0
3.64,0.11921187,5.1108465,8.274696,1004.59503,0,0
3.68,0.100091085,5.029815,8.56823,1004.58795,0,0
3.72,0.17656676,4.9392510000000005,8.658183,1004.59045,0,0
3.76,0.17656587,5.0536485,8.369384,1004.5754,0,0
3.8,0.05228971,5.1585126,8.454603,1004.58344,0,0
3.84,0.06662746,5.067948,8.819153,1004.5628,0,0
3.88,0.12876363,5.0917807,8.535088,1004.5854,0,0
3.92,0.2530377,5.125146400000001,8.63451,1004.56537,0,0
3.96,0.31517363,4.920184,8.729198,1004.58826,0,0
4.0,0.26259452,4.9821496,8.317306,1004.56036,0,0
4.04,0.25303364,5.0584145,8.028506,1004.5729,0,0
4.08,0.3581881,5.13468,8.5208845,1004.56793,0,0
4.12,0.30560893,5.220478,8.506681,1004.6079,0,0
4.16,0.28170872,4.98215,8.94698,1004.58795,0,0
4.2,0.26258832,5.0441155,8.767074000000001,1004.59106,0,0
4.24,0.32472444,5.058415,8.345711,1004.5854,0,0
4.28,0.16220988,5.0012164000000014,8.340976,1004.59576,0,0
4.32,0.3008229,5.1156135,8.165803,1004.5829,0,0
4.36,0.28170252,5.0822477,8.771807,1004.59045,0,0
4.4,0.19088499,5.101314,8.648712,1004.6058,0,0
4.44,0.20044334,4.9344845,8.639242999999999,1004.6008,0,0
4.48,0.1383046,4.9773836,8.322038000000001,1004.58044,0,0
4.52,0.033147722000000004,4.9201846,8.326773,1004.58044,0,0
4.56,0.23867793,5.106081,8.629774000000001,1004.5883,0,0
4.6,0.13830082,4.9201846,8.847555999999997,1004.5984,0,0
4.64,0.19565733,4.9678507000000005,8.563492,1004.57794,0,0
4.68,0.23867424,5.0631814,8.374116,1004.59534,0,0
4.72,0.22433363,5.0012164000000014,8.890165,1004.60046,0,0
4.76,0.41074473,5.0393496,8.776541,1004.5729,0,0
4.8,0.300808,4.948785,8.492476,1004.59033,0,0
4.84,0.16219248,4.948785,8.255756,1004.55786,0,0
4.88,0.119172975,4.862986599999998,8.686585000000001,1004.5804,0,0
4.92,0.13351111,4.948785,8.558755999999999,1004.60046,0,0
4.96,0.36294055,4.9630847000000005,8.814414,1004.5854,0,0
5.0,0.3103615,4.8772864,8.984853,1004.60785,0,0
5.04,0.37727737,5.0774817,8.317302999999999,1004.59534,0,0
5.08,0.38564438,5.0584445,8.549178,1004.60284,0,0
5.12,0.22788541,5.063212,8.293519,1004.5704,0,0
5.16,0.32823747,4.9583483,8.478158,1004.6079,0,0
5.2,0.3186524000000001,5.1680775,8.426077000000001,1004.60034,0,0
5.24,0.39510387,5.182378,8.459214999999999,1004.59546,0,0
5.28,0.4094178,4.9249845,8.904247,1004.60284,0,0
5.32,0.58146536,5.129946,8.241427999999999,1004.60004,0,0
5.36,0.45716655,5.0441494,8.175144,1004.60284,0,0
5.4,0.20859136,4.848721,8.785881,1004.57495,0,0
5.44,0.46189553,5.149015,8.265094,1004.56744,0,0
5.48,0.5096697,5.0775166,8.880564999999997,1004.60754,0,0
5.52,0.45706326,5.039386,8.601232000000001,1004.57996,0,0
5.56,0.35188532,5.0393862999999985,8.326634,1004.5825,0,0
5.6,0.42355692,5.082285400000001,8.274553,1004.57745,0,0
5.64,0.6720829,5.096586,8.653303,1004.58746,0,0
5.68,0.7963339,5.1585517,8.298222,1004.60706,0,0
5.72,0.65291756,5.1490192000000015,8.29822,1004.577,0,0
5.76,0.39477956,4.867793,8.515999,1004.587,0,0
5.8,0.35173590000000005,5.044156,8.033087,1004.5846,0,0
5.84,0.21309768,4.867794,8.74798,1004.58246,0,0
5.88,0.079237744,4.667599,8.837933,1004.60004,0,0
5.92,0.25128365,4.9583597,8.416567,1004.60754,0,0
5.96,0.16522174,4.815364,8.667488,1004.60254,0,0
6.0,0.031364992,4.691433999999999,8.875799,1004.577,0,0
6.04,1.9393767,5.4825434999999985,8.440750999999999,1004.61676,0,0
6.08,1.4852871,5.3395476,8.13775,1004.6171,0,0
6.12,0.9881814,5.3490806,8.208765,1004.5868,0,0
6.16,0.3995698,4.95824,8.767362,1004.61755,0,0
6.2,0.18444313,4.667481,9.240799,1004.62006,0,0
6.24,0.48075324,5.1965694,8.587447000000001,1004.5825,0,0
6.28,0.65758157,5.4682636,7.891486599999999,1004.5955,0,0
6.32,0.0027040690000000004,5.0535746,8.454877,1004.61597,0,0
6.36,-0.054689102,4.881979,8.147138,1004.6084,0,0
6.4,0.25596488,5.163207,7.749444500000001,1004.6117,0,0
6.44,0.42322475,5.515933,8.166069,1004.639,0,0
6.48,0.16029777,5.4158363,7.2570605,1004.58374,0,0
6.52,0.14114304,5.306206,7.9388112999999985,1004.6092,0,0
6.56,0.20802702,5.2347093000000005,8.535343,1004.6324,0,0
6.6,0.040698364,5.3491073,7.6500059999999985,1004.6224,0,0
6.64,0.035883054,5.239477,8.30335,1004.63043,0,0
6.68,-0.17446163,5.344342,7.721016,1004.5854,0,0
6.72,0.03581646,5.4492072999999985,7.9956083,1004.6054,0,0
6.76,-0.07893656,5.301444999999998,8.67736,1004.6382,0,0
6.8,-0.002495214,5.277613,8.331745,1004.6031,0,0
6.84,0.02137053,5.2871475,8.232318,1004.5706,0,0
6.88,0.30334347,5.253782299999999,8.289128999999999,1004.61615,0,0
6.92,0.36544764,5.1060195,8.317533000000001,1004.6138,0,0
6.96,0.07384403,5.377714,8.061871,1004.59155,0,0
7.0,0.11682676,5.806705,8.184961,1004.5737,0,0
7.04,-0.18433416,5.4968796,8.767291,1004.5916,0,0
7.08,-0.3851214000000001,5.325284,8.790958999999999,1004.6174,0,0
7.12,0.0063795,5.27763,8.861935,1004.5999,0,0
7.16,0.15928127,5.1012683,9.046572,1004.6224,0,0
7.2,0.24048595,5.148936,8.218046000000001,1004.5874,0,0
7.24,0.40295058,5.2490344,8.284324,1004.5777,0,0
7.28,0.59409404,5.330067,8.014459,1004.58026,0,0
7.32,0.30725378,5.296702,7.9387026,1004.5856,0,0
7.36,0.38367867,5.3777347,8.218027000000001,1004.5931,0,0
7.4,0.29281044,5.277639,7.8818808,1004.5931,0,0
7.44,0.28319883,5.3014727,8.483145,1004.59863,0,0
7.48,0.082398355,5.2013764,8.194343,1004.57855,0,0
7.52,-0.008469895,5.0965133,8.7719345,1004.5941,0,0
7.56,0.053618833,5.2252116,9.136479,1004.6065,0,0
7.6,0.015328437,5.301478,8.355298,1004.5864,0,0
7.64,0.06785753,5.1108165,8.904484,1004.5893,0,0
7.68,-0.12816961,4.696127400000001,9.126996,1004.602,0,0
7.72,0.3402024,4.800993,8.303205499999999,1004.59753,0,0
7.76,0.89938754,5.134653599999999,8.506780000000001,1004.5769,0,0
7.8,0.6651252,4.7914624,8.255852,1004.5896,0,0
7.84,0.4930002000000001,5.163255,7.361045,1004.572,0,0
7.88,0.36390007,5.5970125,7.564619500000001,1004.5922,0,0
7.92,0.08183962,5.249056,8.767154,1004.6058,0,0
7.96,0.16304107,5.1155934,9.439434,1004.6054,0,0
8.0,0.38286012,5.3777547,8.255828999999999,1004.60046,0,0
8.04,-0.05693058,4.910634,8.733998,1004.59283,0,0
8.08,-0.10955715,4.8868027000000005,7.8486604999999985,1004.56256,0,0
8.12,-0.014581591,5.1442120000000005,8.407264,1004.57324,0,0
8.16,-0.14848632,4.9392514,8.984853999999997,1004.60864,0,0
8.2,0.2959653,5.206180000000002,8.643971,1004.6188,0,0
8.24,0.4679587000000001,5.125150700000002,8.705511,1004.58105,0,0
8.28,0.10940321,5.0298214,8.606082,1004.58356,0,0
8.32,0.18103011,4.9011260000000005,8.767046,1004.6163,0,0
8.36,0.3769225,4.872528599999999,8.823851,1004.60614,0,0
8.4,0.40074664,4.9011297,8.828578,1004.5988,0,0
8.44,0.42458016,5.1728253,8.350397000000001,1004.5863,0,0
8.48,0.24765252,5.0536633,8.643925,1004.60187,0,0
8.52,-0.06789407,4.8630023,8.473478,1004.58936,0,0
8.56,0.056310624,4.7486067,8.8758955,1004.6047,0,0
8.6,0.18051536,4.7867413,9.202563,1004.59424,0,0
8.64,0.32383466,4.848708599999998,8.7433195,1004.5998,0,0
8.68,0.18992521,4.967874,8.066293,1004.5793,0,0
8.72,0.05601117,5.08704,8.108894,1004.58466,0,0
8.76,-0.058774292,5.0346093000000005,8.606001,1004.59247,0,0
8.8,-0.0062713330000000005,4.986946,8.55865,1004.62006,0,0
8.84,0.098814175,4.9488153,8.961068,1004.587,0,0
8.88,0.055721074,4.8773184,8.710137,1004.5925,0,0
8.92,0.02218759,5.025083,8.534958,1004.567,0,0
8.96,0.04123193,4.9726534,8.141995,1004.57745,0,0
9.0,-0.001861155,4.863024,8.714851,1004.5995,0,0
9.04,0.08888960000000001,4.8963923,8.516001,1004.58746,0,0
9.08,0.19874556,4.9249934999999985,8.852136999999997,1004.60004,0,0
9.12,0.30383104,5.087058,8.5396595,1004.60254,0,0
9.16,0.16702606,5.0679474,8.184744,1004.59,0,0
9.2,0.17180468,5.0107484000000015,8.961186999999997,1004.62756,0,0
9.24,0.09054667,4.9916825,8.530355,1004.60785,0,0
9.28,0.028407931,5.0298147,8.49248,1004.6054,0,0
9.32,-0.08152865,4.8296194,8.393058,1004.5704,0,0
9.36,0.14790060000000002,5.020282,8.643981,1004.56744,0,0
9.4,0.08576196400000001,4.95355,8.814419000000003,1004.58,0,0
9.44,0.004503712,4.996449,8.7528715,1004.5829,0,0
9.48,0.095318794,5.0441146,8.620308,1004.59283,0,0
9.52,0.17657422,5.0870132,8.648715,1004.5854,0,0
9.56,0.19091232,4.9058843,8.430932,1004.59784,0,0
9.6,0.13355343,4.8582196,8.582433,1004.5628,0,0
9.64,0.12877233,5.067948,8.132664,1004.5854,0,0
9.68,0.11921187,5.1108465,8.274696,1004.59503,0,0
9.72,0.100091085,5.029815,8.56823,1004.58795,0,0
9.76,0.17656676,4.9392510000000005,8.658183,1004.59045,0,0
9.8,0.17656587,5.0536485,8.369384,1004.5754,0,0
9.84,0.05228971,5.1585126,8.454603,1004.58344,0,0
9.88,0.06662746,5.067948,8.819153,1004.5628,0,0
9.92,0.12876363,5.0917807,8.535088,1004.5854,0,0
9.96,0.2530377,5.125146400000001,8.63451,1004.56537,0,0
10.0,0.31517363,4.920184,8.729198,1004.58826,0,0
10.04,0.26259452,4.9821496,8.317306,1004.56036,0,0
10.08,0.25303364,5.0584145,8.028506,1004.5729,0,0
10.12,0.3581881,5.13468,8.5208845,1004.56793,0,0
10.16,0.30560893,5.220478,8.506681,1004.6079,0,0
10.2,0.28170872,4.98215,8.94698,1004.58795,0,0
10.24,0.26258832,5.0441155,8.767074000000001,1004.59106,0,0
10.28,0.32472444,5.058415,8.345711,1004.5854,0,0
10.32,0.16220988,5.0012164000000014,8.340976,1004.59576,0,0
10.36,0.3008229,5.1156135,8.165803,1004.5829,0,0
10.4,0.28170252,5.0822477,8.771807,1004.59045,0,0
10.44,0.19088499,5.101314,8.648712,1004.6058,0,0
10.48,0.20044334,4.9344845,8.639242999999999,1004.6008,0,0
10.52,0.1383046,4.9773836,8.322038000000001,1004.58044,0,0
10.56,0.033147722000000004,4.9201846,8.326773,1004.58044,0,0
10.6,0.23867793,5.106081,8.629774000000001,1004.5883,0,0
10.64,0.13830082,4.9201846,8.847555999999997,1004.5984,0,0
10.68,0.19565733,4.9678507000000005,8.563492,1004.57794,0,0
10.72,0.23867424,5.0631814,8.374116,1004.59534,0,0
10.76,0.22433363,5.0012164000000014,8.890165,1004.60046,0,0
10.8,0.41074473,5.0393496,8.776541,1004.5729,0,0
10.84,0.300808,4.948785,8.492476,1004.59033,0,0
10.88,0.16219248,4.948785,8.255756,1004.55786,0,0
10.92,0.119172975,4.862986599999998,8.686585000000001,1004.5804,0,0
10.96,0.13351111,4.948785,8.558755999999999,1004.60046,0,0
11.0,0.36294055,4.9630847000000005,8.814414,1004.5854,0,0
11.04,0.3103615,4.8772864,8.984853,1004.60785,0,0
11.08,0.37727737,5.0774817,8.317302999999999,1004.59534,0,0
11.12,0.38564438,5.0584445,8.549178,1004.60284,0,0
11.16,0.22788541,5.063212,8.293519,1004.5704,0,0
11.2,0.32823747,4.9583483,8.478158,1004.6079,0,0
11.24,0.3186524000000001,5.1680775,8.426077000000001,1004.60034,0,0
11.28,0.39510387,5.182378,8.459214999999999,1004.59546,0,0
11.32,0.4094178,4.9249845,8.904247,1004.60284,0,0
11.36,0.58146536,5.129946,8.241427999999999,1004.60004,0,0
11.4,0.45716655,5.0441494,8.175144,1004.60284,0,0
11.44,0.20859136,4.848721,8.785881,1004.57495,0,0
11.48,0.46189553,5.149015,8.265094,1004.56744,0,0
11.52,0.5096697,5.0775166,8.880564999999997,1004.60754,0,0
11.56,0.45706326,5.039386,8.601232000000001,1004.57996,0,0
11.6,0.35188532,5.0393862999999985,8.326634,1004.5825,0,0
11.64,0.42355692,5.082285400000001,8.274553,1004.57745,0,0
11.68,0.6720829,5.096586,8.653303,1004.58746,0,0
11.72,0.7963339,5.1585517,8.298222,1004.60706,0,0
11.76,0.65291756,5.1490192000000015,8.29822,1004.577,0,0
11.8,0.39477956,4.867793,8.515999,1004.587,0,0
11.84,0.35173590000000005,5.044156,8.033087,1004.5846,0,0
11.88,0.21309768,4.867794,8.74798,1004.58246,0,0
11.92,0.079237744,4.667599,8.837933,1004.60004,0,0
11.96,0.25128365,4.9583597,8.416567,1004.60754,0,0
12.0,0.16522174,4.815364,8.667488,1004.60254,0,0
12.04,0.031364992,4.691433999999999,8.875799,1004.577,0,0
12.08,0.13649528,4.8820963,8.639077,1004.60254,0,0
12.12,0.19948842,4.7915115,8.96583,1004.5796,0,0
12.16,0.11824258,4.777211,8.776455,1004.6221,0,0
12.2,0.37158233,4.982173,8.610750999999999,1004.5868,0,0
12.24,0.40983027,4.886842,8.885348,1004.58466,0,0
12.28,0.40505993,4.781977,9.055787,1004.58734,0,0
12.32,0.4528681,4.872542,8.544472,1004.5973,0,0
12.36,0.3286034,4.720011,8.629693,1004.5896,0,0
12.4,0.41464943,4.720011,8.757522999999999,1004.6093,0,0
12.44,0.3573019,4.7295440000000015,8.544475,1004.59467,0,0
12.48,0.40511,4.724777,8.7669935,1004.58716,0,0
12.52,0.38122052,4.791509,8.596556,1004.5997,0,0
12.56,0.40034986,4.810575,8.752791,1004.59186,0,0
12.6,0.37646043,4.7247763,8.890089999999997,1004.6196,0,0
12.64,0.3238933,4.7819753,8.572886,1004.61945,0,0
12.68,0.31912363,4.739076,8.700716,1004.5868,0,0
12.72,0.27611554,4.791508,8.700717,1004.58685,0,0
12.76,0.3239231,4.748608,8.620233,1004.58887,0,0
12.8,0.28569484,4.729542,8.624969,1004.59186,0,0
12.84,0.33350176,4.8058066,8.672313,1004.60913,0,0
12.88,0.29049683,4.724775,8.520814,1004.56866,0,0
12.92,0.37654018,4.7057085,8.719659,1004.5938,0,0
12.96,0.26661623,4.6961746,8.6628475,1004.58887,0,0
13.0,0.41479903,4.7867393,8.6533785,1004.5886,0,0
13.04,0.40047163,4.839171,8.553957,1004.5961,0,0
13.08,0.3957026,4.6628084,8.710195,1004.59357,0,0
13.12,0.41986376,4.7295337,8.724421000000001,1004.59894,0,0
13.16,0.38641918,4.743833,8.70075,1004.58093,0,0
13.2,0.42468423,4.724766000000002,8.615534,1004.5835,0,0
13.24,0.5011813,4.834396400000001,8.809647,1004.60864,0,0
13.28,0.4773026,4.7199984000000015,9.122119,1004.59326,0,0
13.32,0.54423755,4.843929,8.568195,1004.60864,0,0
13.36,0.5729367,4.7962627,8.771776,1004.6011,0,0
13.4,0.47735584,4.719997,8.82859,1004.5855,0,0
13.44,0.47738248,4.8439274,8.563466,1004.6083,0,0
13.48,0.47739643,4.753362,8.549263999999999,1004.61084,0,0
13.52,0.34358597,4.619898,8.866471,1004.5956,0,0
13.56,0.3961841,4.6723294,8.568206,1004.6106,0,0
13.6,0.49179918,4.7771930000000005,8.66763,1004.6157,0,0
13.64,0.48225355,4.8296247,8.88068,1004.61816,0,0
13.68,0.45838118,4.7628927,8.8144,1004.59796,0,0
13.72,0.4488418,4.767659,8.681839,1004.58295,0,0
13.76,0.4010628,4.743826,8.482996,1004.58496,0,0
13.8,0.3341658,4.862989,8.6108265,1004.6154,0,0
13.84,0.3580864,4.80579,8.83808,1004.5774,0,0
13.88,0.32464802,4.8105555,8.809676,1004.6229,0,0
13.92,0.367684,4.7342906,8.871225,1004.60724,0,0
13.96,0.31512523,4.7342900000000006,8.658178,1004.60254,0,0
14.0,0.34860408,4.805788,8.615571000000001,1004.5925,0,0
14.04,0.4012035,4.7390556,8.7339325,1004.6301,0,0
14.08,0.3916629,4.7628879999999985,8.724464,1004.582,0,0
14.12,0.4202054,4.7724247,8.648702,1004.61456,0,0
14.16,0.4584561,4.8629885,8.662907,1004.597,0,0
14.2,0.36765462,4.7914900000000005,8.601361,1004.5893,0,0
14.24,0.40590703,4.7724237,8.634502000000001,1004.5945,0,0
14.28,0.32944322,4.848688,8.591892999999999,1004.57153,0,0
14.32,0.35335618,4.6866245000000015,8.620302,1004.569,0,0
14.36,0.2912318,4.767656,8.691319,1004.5966,0,0
14.4,0.2673459,5.063182,8.454599,1004.59686,0,0
14.44,0.10006757,4.8725195,8.809682,1004.59174,0,0
14.48,0.19089781,4.767655,8.781277000000001,1004.6015,0,0
14.52,0.32474542,4.7390556,9.074811,1004.59894,0,0
14.56,0.54941016,5.0679474,8.819155,1004.5911,0,0
14.6,0.49684542,4.8343854,8.364653,1004.58356,0,0
14.64,0.47296035,4.7009215,8.932782000000003,1004.5966,0,0
14.68,0.53033197,4.7485867,8.454609,1004.60614,0,0
14.72,0.3391528,4.7724195,8.426203999999998,1004.6186,0,0
14.76,0.11929582,4.724753,8.58244,1004.56854,0,0
14.8,0.15754904,4.858217,8.885444999999997,1004.57574,0,0
14.84,0.1049843,4.8105507,8.430942,1004.5906,0,0
14.88,0.04286079,4.619888,8.790758,1004.6157,0,0
14.92,0.1528102,4.6246550000000015,8.610852000000001,1004.5981,0,0
14.96,0.25797898,4.843916,8.558774,1004.60077,0,0
15.0,0.3153497,4.8105493,8.506697,1004.61084,0,0
15.04,0.31058472,4.739051,9.018015,1004.63824,0,0
15.08,0.32015747,4.7724160000000015,8.473559,1004.6083,0,0
15.12,0.47799963,4.8296123,8.757633,1004.5832,0,0
15.16,0.44933742,4.829612,8.871261,1004.6429,0,0
15.2,0.46369356,4.8868103,8.501978999999999,1004.62573,0,0
15.24,0.43981332,4.915409,8.620339999999999,1004.60034,0,0
15.28,0.4207108,4.748579,8.563528999999999,1004.5925,0,0
15.32,0.3729306,4.8391433,8.549327,1004.60736,0,0
15.36,0.31559062,4.81531,8.435704,1004.5845,0,0
15.4,0.32994783,4.7295117,8.700830999999999,1004.6023,0,0
15.44,0.30606544,4.8677410000000005,8.653489,1004.5896,0,0
15.48,0.20092644,4.7771764,8.615616000000001,1004.5949,0,0
15.52,0.22962411,4.829608,8.539867,1004.6049,0,0
15.56,0.11492549,4.858207,8.468852,1004.5945,0,0
15.6,0.1579615,4.7247424,8.989638000000003,1004.6349,0,0
15.64,0.09106201,4.7628746,8.842874,1004.6016,0,0
15.68,0.21535467,4.824839599999999,8.786061,1004.6044,0,0
15.72,0.2153713,4.6627765,8.880752000000003,1004.5967,0,0
15.76,0.28708613,4.805773,8.62983,1004.60645,0,0
15.8,0.1532694,4.762873,8.397845,1004.62714,0,0
15.84,0.20586391,4.691375,8.795538,1004.5936,0,0
15.88,0.07682589,4.648475,8.78607,1004.609,0,0
15.92,0.01470618,4.567443,8.544617,1004.5931,0,0
15.96,0.11032115,4.596042,8.805011,1004.5836,0,0
16.0,0.1437953,4.734271499999998,8.724527,1004.596,0,0
16.04,0.20116962,4.786703,8.653513,1004.5886,0,0
16.08,0.24898653,4.7676370000000015,8.951782000000003,1004.6109,0,0
16.12,0.35806113,4.739058999999999,9.0558605,1004.6109,0,0
16.16,0.34848374,4.8010244,8.473527,1004.6033,0,0
16.2,0.2528699,4.605596,8.956434,1004.6031,0,0
16.24,0.2815321,4.677095,8.648696000000001,1004.6156,0,0
16.28,0.25761527,4.6961613,8.554008,1004.6054,0,0
16.32,0.22891875,4.7295275000000006,8.795461,1004.61035,0,0
16.36,0.09984626,4.705695,8.781255999999999,1004.60785,0,0
16.4,0.12850846,4.7438283,8.672362,1004.62256,0,0
16.44,0.02333501,4.662797,8.819127,1004.6027,0,0
16.48,0.109353766,4.810560700000001,8.629749,1004.61035,0,0
16.52,0.181033,4.8820596,8.762311,1004.62756,0,0
16.56,0.22403462,4.88206,8.639215,1004.6152,0,0
16.6,0.09018345,4.8200955,8.885403,1004.607,0,0
16.64,0.090165704,4.7390647,8.582399,1004.5998,0,0
16.68,0.07580744,4.734298,8.610804,1004.6145,0,0
16.72,0.11881010000000004,4.824863,8.317269,1004.5945,0,0
16.76,0.20960863,4.934494,8.596597000000001,1004.6245,1,1
16.8,0.36254346,4.9392614,8.7623005,1004.6148,1,1
16.84,0.68277264,5.0917916,8.59186,1004.627,1,1
16.88,1.0746953,5.110858,8.445091,1004.597,1,1
16.92,1.3232274,5.129925,8.388277,1004.6217,1,1
16.96,1.4235867,5.005995,8.340932,1004.6291,1,1
17.0,1.4187936,5.001229,7.9148335,1004.6041,1,1
17.04,1.2658176,4.948797,8.094739,1004.5891,1,1
17.08,1.0554885,5.12516,7.976377499999999,1004.6187,1,1
17.12,0.91324097,5.36346,8.255813,1004.60645,1,1
17.16,0.39705312,5.392059,8.487801,1004.6062,1,1
17.2,-0.34378365,5.2204614000000005,8.487803,1004.6013,1,1
17.24,-0.9364501,5.1394296,8.601433,1004.60596,1,1
17.28,-0.7691351,5.363457,9.07961,1004.6187,1,1
17.32,-0.60180736,5.949743,8.492546,1004.6262,1,1
17.36,-0.76429147,6.1737699999999975,7.7587156,1004.57825,1,1
17.4,-0.9889204,5.825811,8.719802,1004.6109,1,1
17.44,-0.8646181999999999,5.539817,9.482044,1004.6359,1,1
17.48,-0.5682321,5.6256137000000015,9.283203,1004.64575,1,1
17.52,-0.4056914,5.530282,8.662998,1004.6109,1,1
17.56,-0.4104439,5.2919535999999985,7.806073,1004.60803,1,1
17.6,-0.28136003,5.5064480000000025,7.143259,1004.60803,1,1
17.64,-0.028001234,5.6446776,7.8297505,1004.62054,1,1
17.68,-0.032751873,5.8544054,7.1432642999999985,1004.61536,1,1
17.72,-0.01838325,5.592243700000001,8.923403,1004.61505,1,1
17.76,-0.11872997,5.2490516,8.980217999999997,1004.6329,1,1
17.8,0.60782754,5.749539,8.885533,1004.60004,1,1
17.84,1.1336333,5.5493426,10.533108,1004.6173,1,1
17.88,1.0189489,4.5435987,10.035998,1004.6171,1,1
17.92,1.2579684,4.6055627,7.668799000000001,1004.5999,1,1
17.96,-0.09468877,4.0907745,7.8818502000000015,1004.6073,1,1
18.0,-0.37666985,4.0526414,7.0912070000000025,1004.6097,1,1
18.04,0.34988952,4.9106207,8.085434,1004.6047,1,1
18.08,0.3260197,4.9678187000000005,8.355298,1004.62726,1,1
18.12,0.07743588,4.972586,7.550446000000001,1004.60986,1,1
18.16,0.03444098,5.482606400000001,7.2474465,1004.61926,1,1
18.2,0.6271667,6.097492,7.5220447,1004.5816,1,1
18.24,0.5937313,6.188056,8.019159,1004.6368,1,1
18.28,0.21137531,6.4645157,8.213273,1004.6066,1,1
18.32,0.06800781,6.5550795,8.800341,1004.6366,1,1
18.36,-0.28567272,6.188054,9.865584,1004.6163,1,1
18.4,-0.59155357,5.978325,8.947111999999997,1004.6265,1,1
18.44,-0.056188866,5.511202,9.292726,1004.6237,1,1
18.48,-0.2760382,4.710419,10.410048,1004.6186,1,1
18.52,-0.5293395000000001,5.1155763,7.834534,1004.6163,1,1
18.56,-0.6296904000000001,5.434935,7.2332673,1004.6188,1,1
18.6,-0.54840374,5.2395053,7.110175,1004.60364,1,1
18.64,-0.1851137,5.1203413,8.696203,1004.6207,1,1
18.68,-0.55791175,4.901078,7.460526,1004.6186,1,1
18.72,-0.19940151,4.8820114000000014,7.825077499999999,1004.58795,1,1
18.76,0.46501786,5.4301650000000015,6.797714,1004.6011,1,1
18.8,0.6705744,5.2299690000000005,8.1991,1004.61835,1,1
18.84,-0.31881672,4.59125,8.374276,1004.61053,1,1
18.88,0.077931985,5.8496203,7.9292436,1004.62054,1,1
18.92,-0.13235274,5.882985,9.141253,1004.61816,1,1
18.96,-1.0643878,4.9344397,9.936636,1004.6102,1,1
19.0,0.29788125,5.6017575,7.531561,1004.59796,1,1
19.04,0.9001631,4.6961107,10.3438,1004.638,1,1
19.08,0.33139646,4.719943,8.218055,1004.6055,1,1
19.12,0.6184286,5.60175,6.949257000000001,1004.59265,1,1
19.16,0.6949388000000001,5.1918254,8.099721,1004.5899,1,1
19.2,0.06404014,4.758068,8.412194,1004.61804,1,1
19.24,0.14054807,5.05836,7.233330199999997,1004.6201,1,1
19.28,-0.31827313,5.4444504,7.0108169999999985,1004.6327,1,1
19.32,-0.074469835,5.8925056,6.636802,1004.5976,1,1
19.36,-0.46637827,5.4110823,8.73888,1004.6249,1,1
19.4,-0.7101126999999999,5.406315,7.659439999999999,1004.6274,1,1
19.44,-0.35637397,5.797172,9.3212185,1004.6221,1,1
19.48,-0.6765853000000001,5.492111,9.501129,1004.5967,1,1
19.52,-0.5379377,5.8496027,9.434852,1004.6221,1,1
19.56,-0.40407217,5.001155000000002,11.243398,1004.6271,1,1
19.6,-0.633465,4.5864635,9.600562,1004.6092,1,1
19.64,-0.9249953000000002,4.9916196,8.303339,1004.57654,1,1
19.68,-0.8437053,4.9105873,7.1150055,1004.5844,1,1
19.72,-0.15537585,4.4291644,8.970896,1004.61426,1,1
19.76,-0.25571847,4.1479363,9.032446,1004.6065,1,1
19.8,-0.17442854,4.6007586,7.640534,1004.6042,1,1
19.84,-0.6189147,4.6674894999999985,7.5269113,1004.614,1,1
19.88,-0.27951318,4.724687,7.498508,1004.6017,1,1
19.92,0.23196135,5.0392795,8.435925,1004.6343,1,1
19.96,0.24633624,4.934414,9.022993,1004.61127,1,1
20.0,0.122094646,4.93918,9.406483,1004.6288,1,1
20.04,-0.006924525,5.3014374,9.292861,1004.62885,1,1
20.08,-0.6569446,4.901046,10.197135,1004.6288,1,1
20.12,0.006165668000000001,4.224226,9.804062,1004.62085,1,1
20.16,0.8712924000000001,4.2242265,10.817224,1004.6081,1,1
20.2,0.5940460999999999,4.3386245,8.521035000000001,1004.59326,1,1
20.24,0.89037615,4.6627507,7.299556699999999,1004.61334,1,1
20.28,0.6513682,4.491155,8.705672999999999,1004.5881,1,1
20.32,0.25940877,4.710417,6.811910000000001,1004.5983,1,1
20.36,-0.16123167,5.0869756,6.8734555,1004.5756,1,1
20.4,-0.25684553,4.948746,7.616755499999999,1004.6028,1,1
20.44,-0.060890175,4.9773455,7.49366,1004.5902,1,1
20.48,-0.3907144,4.9678125,8.137537,1004.5947,1,1
20.52,-0.34293413,5.2061405,7.9670963000000015,1004.60474,1,1
20.56,0.62256855,6.2309513,8.402661,1004.58966,1,1
20.6,0.31186354,5.6494317,9.690417,1004.61206,1,1
20.64,-0.7779495,5.3634386,10.353231,1004.60736,1,1
20.68,-1.7721653000000002,5.0488462,10.537873,1004.6148,1,1
20.72,-1.5953305,4.7437873,9.822976,1004.6148,1,1
20.76,-0.9548521,4.491160400000001,10.277476,1004.59674,1,1
20.8,-1.2129805,3.8858082,9.699879,1004.5765,1,1
20.84,-0.84017783,3.7714112,8.781402,1004.5718,1,1
20.88,-0.9883673,3.4711182000000003,8.298491,1004.5889,1,1
20.92,-0.5343048,3.685614,8.994446,1004.5839,1,1
20.96,-0.49607968,3.957308,8.55888,1004.5815,1,1
21.0,-0.30490413,3.9716082,8.402643,1004.5838,1,1
21.04,-0.21889098,3.7761798,8.876081,1004.63904,1,1
21.08,-0.17588939,4.100306,8.762454,1004.57135,1,1
21.12,-0.4470048,4.424399,8.999297,1004.6163,1,1
21.16,-0.19840893,4.834322,8.137639,1004.5683,0,0
21.2,-0.8627649,4.3671985,9.193415,1004.6489,0,0
21.24,-1.1590806,4.057371,8.805197,1004.58826,0,0
21.28,0.002448604,5.1632113,8.625293,1004.57574,0,0
21.32,0.012045026,4.953482599999999,8.776796000000001,1004.5934,0,0
21.36,-0.08829634,4.8200183,7.915138199999999,1004.5682,0,0
21.4,-0.030901916,4.7723513,8.800475,1004.60565,0,0
21.44,-0.07867232,4.6484203,8.4738035,1004.57776,0,0
21.48,0.07910721,4.8486147000000015,8.611106,1004.5657,0,0
21.52,0.17474006,5.110774,8.317575999999999,1004.588,0,0
21.56,0.060059324,5.10124,8.530627,1004.60803,0,0
21.6,0.021857679,5.0249739999999985,8.800492,1004.5425,0,0
21.64,-0.4082902,4.6627154000000015,8.966199000000003,1004.61066,0,0
21.68,-0.22661854,4.9677734,8.383871000000001,1004.61536,0,0
21.72,0.24661656,5.2680664,8.918861,1004.58997,0,0
21.76,-0.09271269,5.015438,9.018289,1004.60803,0,0
21.8,-0.34600553,4.772342,8.473834,1004.60736,0,0
21.84,-0.47980547,4.839073,8.256056,1004.5849,0,0
21.88,-0.79045594,4.648410299999999,8.166103999999999,1004.57996,0,0
21.92,-0.40325505,4.848605,8.724768,1004.61005,0,0
21.96,-0.2502668,4.7675724000000015,8.677427,1004.5973,0,0
22.0,-0.03991861,4.800937,8.885745,1004.645,0,0
22.04,-0.020762622,4.696072,8.757918,1004.60004,0,0
22.08,-0.02550792,4.719904,8.843141000000003,1004.60443,0,0
22.12,-0.088428415,4.8295536,8.464317,1004.62976,0,0
22.16,0.13144587,4.7675886,9.24076,1004.6368,0,0
22.2,0.13622974,4.6770244000000005,8.994571,1004.60956,0,0
22.24,-0.102756634,4.557860400000001,9.226558,1004.6319,0,0
22.28,-0.08841367,4.495895,8.398036,1004.5892,0,0
22.32,0.10756208,4.4577627,9.193417,1004.6419,0,0
22.36,0.12190531,4.8152537,8.355428,1004.627,0,0
22.4,0.22706454,4.9296513,8.918821000000003,1004.61426,0,0
22.44,-0.050160035,4.6007586,8.672634,1004.6393,0,0
22.48,0.021540597,4.414863,9.207622,1004.6293,0,0
22.52,0.07890181,4.3910303,8.450117,1004.6214,0,0
22.56,0.44217092,4.5816919999999985,8.738916,1004.62646,0,0
22.6,0.25098187,4.500660400000001,8.918823,1004.6164,0,0
22.64,0.34180242,4.6531905999999985,8.222866,1004.59906,0,0
22.68,0.14105423,4.3242980000000015,9.004045,1004.63135,0,0
22.72,0.20797528,4.476827,8.696308,1004.6285,0,0
22.76,0.14106159,4.467294,8.592151,1004.6238,0,0
22.8,0.06936836,4.2670984,9.254969,1004.64636,0,0
22.84,0.035913542,4.529259,8.241806,1004.6363,0,0
22.88,-0.08357778,4.286165,9.411204,1004.6132,0,0
22.92,-0.054894917,4.452995,8.719982,1004.636,0,0
22.96,0.1697592,4.591224,9.060859,1004.6106,0,0
23.0,-0.016649336,4.290931,9.269174,1004.59827,0,0
23.04,0.040712103,4.3195305,8.809937,1004.6256,0,0
23.08,-0.021421537,4.167001,9.089267,1004.60004,0,0
23.12,-0.07717113,4.1860275,8.772209,1004.6355,0,0
23.16,0.1810068,4.3051895999999985,8.814824,1004.6181,0,0
23.2,0.02334176,4.1240587,8.9805355,1004.62585,0,0
23.24,0.009062275,4.1192910000000005,8.786430000000001,1004.60736,0,0
23.28,0.07605235,4.219387,9.013688,1004.5974,0,0
23.32,-0.000360265,4.228918,8.990022999999997,1004.6226,0,0
23.36,0.22436328,4.481544,9.05631,1004.58466,0,0
23.4,0.009336323,4.195549,9.454005,1004.64014,0,0
23.44,-0.019273981000000003,4.1240487,9.198355,1004.62225,0,0
23.48,-0.009650111,4.224145,8.857483,1004.61237,0,0
23.52,0.2772066,4.252743,8.994786999999997,1004.60223,0,0
23.56,-0.057311162,3.9381485,9.051606,1004.6198,0,0
23.6,-0.07158206,3.94768,9.089488,1004.6073,0,0
23.64,0.0527571,4.0620756,9.103697,1004.6249,0,0
23.68,0.038486183,4.062074,9.226798,1004.647,0,0
23.72,0.009871557,4.071605,9.17946,1004.61945,0,0
23.76,0.22981103,4.124036,9.259952,1004.622,0,0
23.8,-0.013894707,4.0096374,9.250487,1004.5991,0,0
23.84,0.2251683,4.1335654,9.056383,1004.6095,0,0
23.88,0.21567719,4.133564,9.080063,1004.61945,0,0
23.92,0.2492,4.0906634,9.108475,1004.61646,0,0
23.96,0.05329658,4.0000973,8.990121,1004.6198,0,0
24.0,0.21587415,4.2002907,9.113221,1004.6165,0,0
24.04,-0.037382662,4.1287910000000005,8.895445,1004.6191,0,0
24.08,-0.10423142,4.1240225,8.942796000000003,1004.6011,0,0
24.12,0.003632397,4.2766027,8.95681,1004.6066,0,0
24.16,-0.039402477000000005,4.1479063,8.923667,1004.614,0,0
24.2,-0.30709034,4.15744,8.710616,1004.6341,0,0
24.24,-0.24974933,4.295671,8.653802,1004.5913,0,0
24.28,-0.25454578,4.3957685999999985,8.885786999999997,1004.6312,0,0
24.32,-0.05381177400000002,4.4815674,8.791097,1004.6338,0,0
24.36,-0.17810443,4.5006337,8.360265,1004.59607,0,0
24.4,-0.34541422,4.2003407,8.918922,1004.63104,0,0
24.44,-0.3502118,4.5578330000000005,8.450215,1004.61066,0,0
24.48,-0.14947663,4.433903,9.368688,1004.62604,0,0
24.52,-0.058679238,4.4815693,8.776886,1004.5956,0,0
24.56,0.10859619,4.6007338,8.573305,1004.60565,0,0
24.6,0.051217467,4.362406299999999,9.43023,1004.63104,0,0
24.64,-0.09218998,4.333807,9.146165,1004.61804,0,0
24.68,0.09420572,4.6817665,8.653785000000001,1004.61566,0,0
24.72,-0.030086905,4.3004419999999985,9.273991,1004.6257,0,0
24.76,-0.03966871,4.5912027,8.615907,1004.6255,0,0
24.8,-0.18308055,4.419607,8.828952000000003,1004.628,0,0
24.84,-0.097060725,4.410074,9.11775,1004.62054,0,0
24.88,-0.14009342,4.4339075,9.013591,1004.60297,0,0
24.92,-0.05885671,4.605504,8.838417,1004.61804,0,0
24.96,-0.054095753,4.700835700000002,9.075136,1004.6254,0,0
25.0,-0.03499317,4.815233,8.734257000000001,1004.6051,0,0
25.04,0.008008391,4.8438334,8.904693,1004.6251,0,0
25.08,-0.1832026,4.615039,9.16982,1004.61804,0,0
25.12,-0.32550824,4.6960440000000006,7.981582,1004.6228,0,0
25.16,-0.30636236,4.738942,8.85745,1004.6078,0,0
25.2,-0.5214286,4.4243484,8.810108,1004.6278,0,0
25.24,-0.08643812,4.915303,8.521312,1004.61005,0,0
25.28,-0.3110639,4.676975,8.776972,1004.61487,0,0
25.32,-0.23456039,4.934368,8.331941,1004.60455,0,0
25.36,-0.25843444,4.805671,9.10365,1004.6174,0,0
25.4,-0.30142438,4.9581995,8.204117,1004.6299,0,0
25.44,-0.05284962,4.710338,9.0373745,1004.6198,0,0
25.48,-0.17709787,4.839034,8.010011,1004.617,0,0
25.52,0.014120922,4.8533335,8.952160000000003,1004.6067,0,0
25.56,-0.000191838,4.8676324,8.308283,1004.592,0,0
25.6,0.15278684,5.0153956,8.653897,1004.63745,0,0
25.64,-0.119635336,4.8008995,8.497664,1004.61426,0,0
25.68,-0.009674862,4.9915614,8.521338,1004.60425,0,0
25.72,-0.03832534,4.9343615,8.402982000000002,1004.6221,0,0
25.76,-0.057421297,4.9105287,8.639704,1004.6242,0,0
25.8,-0.12431022,4.8819284000000005,8.862223,1004.6239,0,0
25.84,-0.11472566,4.943893,8.497676,1004.59644,0,0
25.88,-0.2055153,4.8580947,8.379319,1004.6192,0,0
25.92,-0.3488828,4.8485603,8.871699000000003,1004.62396,0,0
25.96,-0.3297369,4.9391246,8.530824,1004.604,0,0
26.0,-0.38706788,4.8914585,8.843296,1004.6063,0,0
26.04,-0.3344651,4.867625,8.492954,1004.62146,0,0
26.08,-0.3487795,4.8151917,8.947458000000003,1004.60895,0,0
26.12,-0.2011151,5.0439997000000005,8.426627,1004.6163,0,0
26.16,-0.17243123,4.896236,8.582863,1004.60364,0,0
26.2,-0.124628425,4.9677343,8.436098,1004.6088,0,0
26.24,-0.24889791,4.920068700000002,8.530786,1004.61615,0,0
26.28,-0.09593943,4.9248347,8.50238,1004.62115,0,0
26.32,-0.095934376,5.0011,8.478708000000001,1004.58606,0,0
26.36,-0.100709096,5.0868980000000015,8.544991,1004.61365,0,0
26.4,-0.17240207,5.1583962,8.421897,1004.6363,0,0
26.44,-0.19151556,5.0582986,8.734368,1004.6285,0,0
26.48,-0.34446424,4.943900599999999,8.597071000000001,1004.63367,0,0
26.52,-0.33012003,4.9867997000000015,8.455038,1004.59607,0,0
26.56,-0.34923422,5.039232,8.540258,1004.6134,0,0
26.6,-0.27753237,5.0582976,8.639682,1004.6182,0,0
26.64,-0.35878396,5.0344644,8.180444999999999,1004.62115,0,0
26.68,-0.23450398,5.039231299999999,8.526056,1004.63855,0,0
26.72,-0.30141583,5.139329,8.5876045,1004.61053,0,0
26.76,-0.21059516,5.1679277,8.237258,1004.60065,0,0
26.8,-0.2536086,5.134562,8.421902000000001,1004.61053,0,0
26.84,-0.3683185,4.977266,8.587605,1004.63855,0,0
26.88,-0.38265288,4.939133,8.8243265,1004.623,0,0
26.92,-0.31573087,5.043997,8.170978999999999,1004.6076,0,0
26.96,-0.19623038,4.9629655,8.507122,1004.62067,0,0
27.0,-0.2774823,5.0582967000000005,8.44084,1004.6357,0,0
27.04,-0.3109358,4.9772654,8.336684,1004.60815,0,0
27.08,-0.36350888,4.9915642999999985,8.606545,1004.6306,0,0
27.12,-0.335452,5.0583114999999985,8.365034,1004.6302,0,0
27.16,-0.29723513,5.024946,8.701176,1004.6382,0,0
27.2,-0.20165937,5.120278,8.488125,1004.64514,0,0
27.24,-0.23035844,5.0678462999999985,8.649092999999999,1004.6452,0,0
27.28,-0.29251492,5.024947599999999,8.578074,1004.6152,0,0
27.32,-0.34033453,4.9486833,8.516525,1004.6352,0,0
27.36,-0.20651907,4.9868164,8.63015,1004.6151,0,0
27.4,-0.27345663,4.9582169999999985,8.483381,1004.5871,0,0
27.44,-0.24957785,4.939152,8.563864,1004.6101,0,0
27.48,-0.27349594,4.8485875,8.535456,1004.61694,0,0
27.52,-0.21615858,4.9868183,8.464438000000001,1004.6176,0,0
27.56,-0.2735365,4.905787,8.573328,1004.61194,0,0
27.6,-0.35959324,4.915321,8.573326,1004.6223,0,0
27.64,-0.2783531,5.0726175000000016,8.417089,1004.6196,0,0
27.68,-0.33095378,4.9248547999999985,8.8479185,1004.6326,0,0
27.72,-0.26405677,4.939155,8.743758999999999,1004.6196,0,0
27.76,-0.23539823,4.8819566,8.84318,1004.6294,0,0
27.8,-0.29277617,4.791393,8.757958,1004.6371,0,0
27.84,-0.006006971,4.967756,8.587519,1004.62445,0,0
27.88,-0.13030218,4.958223,8.544907,1004.61694,0,0
27.92,-0.22591734,4.862892,8.535436,1004.61444,0,0
27.96,-0.24505553,4.848593,8.69167,1004.619,0,0
28.0,-0.31677794,4.877193,8.421807000000001,1004.59406,0,0
28.04,-0.33590984,4.715131,8.743744,1004.61676,0,0
28.08,-0.33115290000000003,4.834295,8.265568,1004.60175,0,0
28.12,-0.17218088,4.9057627,8.781733000000001,1004.619,0,0
28.16,-0.014418781,4.9915605,8.800671000000003,1004.6115,0,0
28.2,-0.019170076,5.0916576,8.474,1004.6265,0,0
28.24,-0.19599237,4.9295936,8.758067,1004.6165,0,0
28.28,-0.24853975,4.872394,8.421927,1004.6243,0,0
28.32,-0.25807086,4.7770624,8.781744999999999,1004.6063,0,0
28.36,-0.31539994,4.8008943,8.587638,1004.619,0,0
28.4,-0.2819128,4.9486575,8.284637,1004.6065,0,0
28.44,-0.19584396,4.8342589999999985,8.729674000000001,1004.61115,0,0
28.48,-0.24838948,4.839025,8.653927000000001,1004.64154,0,0
28.52,-0.17666392,4.9438879999999985,8.265708,1004.621,0,0
28.56,-0.076257594,4.9677205,8.526102999999999,1004.63104,0,0
28.6,-0.28654042,4.8390226,8.871717,1004.6288,0,0
28.64,-0.15745525,4.9629526,8.521375,1004.62366,0,0
28.68,-0.21956229,4.8533206,8.601861999999999,1004.6335,0,0
28.72,-0.19085492,4.958183999999998,8.516645,1004.6335,0,0
28.76,-0.12868129,4.991549,8.810182000000003,1004.60364,0,0
28.8,-0.20513345,4.9438830000000005,8.8054495,1004.60583,0,0
28.84,-0.23855594,4.9391155,8.573466999999999,1004.5981,0,0
28.88,-0.20985237,4.8580837,8.620813,1004.61584,0,0
28.92,-0.12377975,4.915281299999998,8.502457000000001,1004.6232,0,0
28.96,-0.21456942,4.9152809999999985,8.682366,1004.6054,0,0
29.0,-0.14761794,5.0153775000000005,8.469322,1004.6079,0,0
29.04,-0.21929407,4.891446599999999,8.947497,1004.6254,0,0
29.08,-0.20014438,4.8342475999999985,8.663437,1004.6054,0,0
29.12,-0.10074422,5.0249333,8.331939,1004.6232,0,0
29.16,-0.10075121,4.8819366,8.246719,1004.60297,0,0
29.2,-0.1246597,4.853338,8.762769,1004.62036,0,0
29.24,-0.16769126,4.915303,8.473968,1004.6251,0,0
29.28,-0.09122394,4.9582024,8.852719,1004.59753,0,0
29.32,-0.21550897,4.9391365,8.734359,1004.61255,0,0
29.36,-0.08646188,4.9820356,8.478701,1004.60504,0,0
29.4,-0.0912537,5.0201683,8.421887,1004.63043,0,0
29.44,-0.23465794,4.9010050000000005,8.639667999999999,1004.6352,0,0
29.48,-0.24422708,4.862872599999998,8.511839,1004.6327,0,0
29.52,-0.14386135,5.0392356,8.459759,1004.62006,0,0
29.56,-0.28248579999999995,4.939138400000001,8.431352,1004.605,0,0
29.6,-0.2681565,4.8628736,9.037354,1004.6251,0,0
29.64,-0.21558884,4.986804,8.436085,1004.62006,0,0
29.68,-0.14868109,4.901006,8.251441999999999,1004.6002,0,0
29.72,0.0042624920000000005,4.996338,8.73435,1004.6173,0,0
29.76,-0.24429742,4.877174,8.492894,1004.6352,0,0
29.8,-0.19650891,5.0487704,8.393472000000001,1004.63257,0,0
29.84,-0.2108591,4.920073,8.696471,1004.6477,0,0
29.88,-0.15829074,5.015405,8.743814,1004.6223,0,0
29.92,-0.19175887,5.0440044,8.511828,1004.60455,0,0
29.96,-0.17264983,5.0106387,8.507092,1004.64734,0,0
30.0,-0.22523783,4.9296074,8.677531,1004.5946,0,0
30.04,-0.22524735,4.905775,8.568639,1004.6273,0,0
30.08,-0.22047767,4.8628764,8.483417999999999,1004.62756,0,0
30.12,-0.11932483,4.939122,8.682335,1004.6221,0,0
30.16,-0.19099894,4.8533235,8.403007,1004.6123,0,0
30.2,-0.0667052,4.9009886,8.549775,1004.61957,0,0
30.24,0.20576654,5.2537136,8.426682000000001,1004.61176,0,0
30.28,-0.09533951,5.024918,8.758092999999999,1004.597,0,0
30.32,-0.26261106,4.8199553,8.687078,1004.6246,0,0
30.36,-0.4729023,4.724624,8.549783,1004.632,0,0
30.4,-0.38684285,4.7627554000000005,8.5119095,1004.61707,0,0
30.44,-0.29600632,4.786588,8.672881,1004.63464,0,0
30.48,-0.2195093,4.877152,8.346210000000001,1004.62427,0,0
30.52,-0.16213004,4.8580856,8.696556,1004.6421,0,0
30.56,-0.23858534,4.910517,8.630278,1004.6346,0,0
30.6,-0.17164789,4.9105167000000005,8.691827,1004.6393,0,0
30.64,-0.08558984,4.929582,8.857532,1004.61426,0,0
30.68,-0.20506474,4.9009824,8.611345,1004.6271,0,0
30.72,-0.24328157,4.8580830000000015,8.649221,1004.61676,0,0
30.76,-0.26715767,4.877148,8.526131,1004.6496,0,0
30.8,-0.34839553,4.8437824,8.5024605,1004.6371,0,0
30.84,-0.47742856,4.7579837,8.862277,1004.6468,0,0
30.88,-0.43916726,4.7722826,8.653965,1004.6217,0,0
30.92,-0.31965196,4.8866796,8.781796,1004.62396,0,0
30.96,-0.35308897,4.791348,8.322560000000001,1004.6292,0,0
31.0,-0.36740685,4.8437800000000015,8.800737,1004.6264,0,0
31.04,-0.4008453,4.829479,8.6303005,1004.6164,0,0
31.08,-0.36258525,4.896211,8.635036,1004.64386,0,0
31.12,-0.24319468,4.905746,8.663434,1004.63116,0,0
31.16,-0.20972063,5.01061,8.743919,1004.6238,0,0
31.2,-0.40567613,4.848547,8.242075,1004.62366,0,0
31.24,-0.24792606,4.9200444,8.767596000000001,1004.63385,0,0
31.28,-0.4725604000000001,4.7007832999999986,8.592423,1004.64636,0,0
31.32,-0.2909134,4.767514,8.890692999999997,1004.63873,0,0
31.36,-0.22875944,4.958175700000001,8.369909,1004.62115,0,0
31.4,-0.30521882,4.9152765,8.483538000000001,1004.6138,0,0
31.44,-0.35778117,4.858078,8.786539,1004.6285,0,0
31.48,-0.43902135,4.7055473,8.796011,1004.63367,0,0
31.52,-0.3577482,4.800878,8.592433,1004.63367,0,0
31.56,-0.29081547,4.8390102,8.635043,1004.60846,0,0
31.6,-0.2525616,4.8104105000000015,8.677655,1004.6285,0,0
31.64,-0.30512193,4.915274,8.204216,1004.601,0,0
31.68,-0.37680352,4.729378700000002,8.810222,1004.6335,0,0
31.72,-0.39112648,4.7722764,8.620846,1004.61847,0,0
31.76,-0.4102292,4.757977,9.032742,1004.661,0,0
31.8,-0.40065312,4.805642,8.270503999999999,1004.5959,0,0
31.84,-0.35761940000000003,4.7865753,8.507225,1004.6335,0,0
31.88,-0.33848578,4.6721773,8.663463,1004.6381,0,0
31.92,-0.24287215,4.81994,8.474086999999999,1004.6079,0,0
31.96,-0.21417588,4.796107,8.810232000000003,1004.6206,0,0
32.0,-0.45315057,4.5339465,8.777092,1004.64557,0,0
32.04,-0.23326305,4.8437724,8.601921,1004.6156,0,0
32.08,-0.3097245,4.600676999999999,8.635062,1004.6081,0,0
32.12,-0.32398424,4.614975,9.15112,1004.6305,0,0
32.16,-0.28094822,4.6864724,9.16059,1004.6307,0,0
32.2,-0.23313232,4.691239,8.663480999999999,1004.628,0,0
32.24,-0.21877396,4.48151,9.165329,1004.62537,0,0
32.28,-0.3047902,4.5244083,8.568795,1004.5955,0,0
32.32,-0.19005713,4.400478,8.999627,1004.61273,0,0
32.36,-0.27607459999999995,4.462442,8.606672999999999,1004.62787,0,0
32.4,-0.16133675,4.4243093,9.12746,1004.6125,0,0
32.44,-0.12308406,4.443375,8.9286175,1004.6252,0,0
32.48,0.001208678,4.500573,8.687163,1004.64294,0,0
32.52,-0.08958866,4.4529076,8.639821000000001,1004.6302,0,0
32.56,0.12074174,4.6483360000000005,9.103795,1004.6302,0,0
32.6,-0.15168692,4.2574778,8.923888999999997,1004.63043,0,0
32.64,0.05386129,4.58637,8.696639,1004.6225,0,0
32.68,0.06822562,4.25271,9.113269,1004.63257,0,0
32.72,0.04912421,4.419539,8.739253,1004.6225,0,0
32.76,0.0061249880000000005,4.176444,9.051725,1004.6245,0,0
32.8,-0.0990129,4.171677,8.852881,1004.6225,0,0
32.84,0.19257413,4.3242064,8.781868,1004.592,0,0
32.88,0.23083039,4.3051395,9.108543,1004.6072,0,0
32.92,0.40292352,4.7245965,8.781872,1004.63257,0,0
32.96,-0.1897532,4.300372599999998,8.999656,1004.612,0,0
33.0,-0.022445813,4.4433690000000015,8.928641,1004.61755,0,0
33.04,-0.01764819,4.305138,9.0328,1004.62964,0,0
33.08,0.020608023,4.4815006,8.56883,1004.6147,0,0
33.12,0.23515613,4.3957157,9.028017,1004.60925,0,0
33.16,0.21603309,4.2717853,9.023281,1004.59674,0,0
33.2,0.19690959,4.424315,8.455152499999999,1004.61224,0,0
33.24,0.3068413,4.4100150000000005,8.909656,1004.5991,0,0
33.28,0.23991998,4.3099184,8.999609,1004.61176,0,0
33.32,0.27815455,4.5005803,8.630325,1004.6218,0,0
33.36,0.27815098,4.228886599999999,9.117969,1004.6145,0,0
33.4,0.33072529999999994,4.276552,9.33575,1004.627,0,0
33.44,0.34984046,4.605445,8.445683,1004.60175,0,0
33.48,0.37851572,4.414783,8.843372,1004.60175,0,0
33.52,0.16342072,4.1478557999999985,9.01381,1004.5891,0,0
33.56,0.20165537,4.2241206,8.54037,1004.6063,0,0
33.6,0.21121119,4.371884,8.601916000000001,1004.5917,0,0
33.64,0.3498217,4.5911455000000005,9.136904,1004.60925,0,0
33.68,0.20164417,4.6197453,9.335748,1004.6341,0,0
33.72,0.16818173,4.5196476,9.297873,1004.6264,0,0
33.76,0.14905916,4.510114700000001,8.545100999999999,1004.61414,0,0
33.8,-0.08515553,4.157389,9.217387,1004.6163,0,0
33.84,0.13949169,4.3575845,9.435169,1004.6114,0,0
33.88,0.5409915,4.6674113,9.174777,1004.60645,0,0
33.92,0.55532724,4.8437743,9.013806,1004.6264,0,0
33.96,0.6604791,4.610213,9.454105,1004.6343,0,0
34.0,0.7512919,4.9009730000000005,8.625585000000001,1004.6139,0,0
34.04,0.6078939,4.6149797,9.293135,1004.59644,0,0
34.08,0.019974247,4.71031,8.417271000000001,1004.6089,0,0
34.12,0.39858276,4.8628160000000005,8.677755,1004.6063,0,0
34.16,-0.29923186,4.1239986,7.962863,1004.6064,0,0
34.2,0.3556381,4.5672874000000006,8.336884,1004.61096,0,0
34.24,0.4608305,4.967677,8.360559,1004.63135,0,0
34.28,0.44652563,4.939076999999998,8.985503999999997,1004.59827,0,0
34.32,0.07851742,4.7150483,8.043361,1004.60333,0,0
34.36,-0.5953980999999999,4.595884,7.9392076,1004.63635,0,0
34.4,-0.5858041,4.3527884000000014,9.345328,1004.6108,0,0
34.44,-0.42803144,4.2336235,9.118081,1004.6161,0,0
34.48,-0.26070613,4.7055116,9.203302,1004.61847,0,0
34.52,-0.05513549,5.0201035,9.6152,1004.626,0,0
34.56,-0.75295234,4.791308,8.502618,1004.61835,0,0
34.6,-1.3934071,3.5996675,8.568903,1004.60596,0,0
34.64,-0.59992737,4.4242806,8.161747,1004.6108,0,0
34.68,-0.24618511,4.777005,8.308517,1004.62085,0,0
34.72,-0.53293425,4.8294362999999985,8.218566000000001,1004.60333,0,0
34.76,-0.7240943,4.6530733,8.327461,1004.63074,0,0
34.8,-0.82921314,4.8485010000000015,8.431622,1004.641,0,0
34.84,-0.90087336,4.7579355,8.209108,1004.60046,0,0
34.88,-0.61882824,4.614938,8.843521,1004.603,0,0
34.92,-1.125453,4.047717,9.227012,1004.6129,0,0
34.96,-0.52794075,5.072526,8.303806,1004.60583,0,0
35.0,-1.0154439,5.191689,8.010276,1004.6306,0,0
35.04,-1.3452137,5.3775835,8.8388,1004.61334,0,0
35.08,-1.8948544,5.0772895999999985,9.345386,1004.6156,0,0
35.12,-1.89114,4.943852,8.748753,1004.61835,0,0
35.16,-1.5947992,5.4109745,8.824503,1004.61035,0,0
35.2,-1.5995866,4.9629188,8.881314,1004.6129,0,0
35.24,-1.2315493,4.986752,8.848172,1004.6129,0,0
35.28,-0.7870351,5.1964803,8.194825,1004.6408,0,0
35.32,-0.916097,4.858055,8.190089,1004.6154,0,0
35.36,-0.5576198,5.167881,8.081197999999999,1004.6154,0,0
35.4,-0.8348551,4.853288,8.071728,1004.6329,0,0
35.44,-1.0021558000000002,4.843756,8.175884,1004.6254,0,0
35.48,-0.7153755999999999,4.8485227,8.308447,1004.6279,0,0
35.52,-0.39513594,5.077317,8.625651,1004.63043,0,0
35.56,-0.33300656,5.2155476,7.735582400000001,1004.595,0,0
35.6,-0.14182155,5.2155476,8.4220705,1004.6075,0,0
35.64,-0.14182869,5.0630183,8.838697,1004.62756,0,0
35.68,-0.01278156,5.287047,8.332115,1004.61005,0,0
35.72,0.15450393,5.425277,8.81029,1004.63794,0,0
35.76,0.106698796,5.3061132,8.687195,1004.6123,0,0
35.8,-0.12751968,5.1249843,8.062252,1004.6173,0,0
35.84,-0.15620567,4.9247894,8.625646000000001,1004.61005,0,0
35.88,-0.25658914,4.843758,8.194815,1004.60504,0,0
35.92,-0.017606094,4.9486227,8.739269,1004.60004,0,0
35.96,-0.08453096,4.9438559999999985,8.81502,1004.62006,0,0
36.0,0.001497924,4.9152565,8.384188,1004.6072,0,0
36.04,-0.1275644,4.8246921999999985,8.61144,1004.6072,0,0
36.08,-0.22316761,4.810393,8.478875,1004.6196,0,0
36.12,-0.103303686,4.915248,8.871865,1004.61975,0,0
36.16,-0.1176355,4.819917,8.521519999999999,1004.60754,0,0
36.2,-0.1702062,4.6912193,8.96182,1004.6271,0,0
36.24,-0.1893178,4.781784,8.388957000000001,1004.6072,0,0
36.28,-0.32314423,4.724585,8.990228,1004.63214,0,0
36.32,-0.4426322,4.581588,8.900275,1004.6097,0,0
36.36,-0.5860192,4.743651,8.668288,1004.63464,0,0
36.4,-0.528654,4.610187000000002,9.1843405,1004.61206,0,0
36.44,-0.4473896,4.700752,8.848198,1004.6142,0,0
36.48,-0.29920906,4.810382,8.597275,1004.61975,0,0
36.52,-0.27052075,4.6197195,8.777184,1004.6396,0,0
36.56,-0.16057712,4.5577545,8.734574,1004.61707,0,0
36.6,-0.21314931,4.4767227,8.909748,1004.61456,0,0
36.64,-0.37087566,4.433823599999998,8.971295,1004.6017,0,0
36.68,-0.35652718,4.5958866999999985,8.554669,1004.6291,0,0
36.72,-0.4282167000000001,4.519621400000001,9.577301,1004.6112,0,0
36.76,-0.54292387,4.4242897,8.909751,1004.624,0,0
36.8,-0.4473207,4.4052234000000015,8.985501,1004.6215,0,0
36.84,-0.33737952,4.557753,7.849245,1004.6015,0,0
36.88,-0.15095808,4.591119,8.620954,1004.5936,0,0
36.92,-0.12227212,4.4290557,8.691972,1004.6492,0,0
36.96,0.002010867,4.629251,8.587814,1004.60565,0,0
37.0,-0.026660368,4.6101839999999985,8.900286999999997,1004.6291,0,0
37.04,-0.06489119,4.686449,8.573613,1004.6062,0,0
37.08,-0.1365811,4.6006513,8.60202,1004.609,0,0
37.12,-0.24112856,4.419506500000002,8.777249000000001,1004.6237,0,0
37.16,-0.0451269,4.614935,8.971361,1004.624,0,0
37.2,-0.05943267,4.638767,8.829332,1004.6037,0,0
37.24,-0.22669607,4.4862366,8.881414,1004.62115,0,0
37.28,-0.10717129,4.5386677,8.824603999999997,1004.61316,0,0
37.32,-0.15015781,4.4910016,8.796201,1004.61066,0,0
37.36,-0.22660297,4.4528685,8.86722,1004.61316,0,0
37.4,-0.2122319,4.457634,8.92877,1004.60565,0,0
37.44,-0.006668611999999999,4.7150273,9.032929,1004.59576,0,0
37.48,-0.107014835,4.572030000000002,9.20337,1004.60065,0,0
37.52,-0.06396489,4.552963,8.83409,1004.6106,0,0
37.56,-0.11651106,4.47193,8.990329,1004.6357,0,0
37.6,-0.121261135,4.4528637,8.715735,1004.6108,0,0
37.64,-0.039972782000000005,4.471929,9.037678,1004.6432,0,0
37.68,-0.011264294,4.55296,8.550037,1004.583,0,0
37.72,0.027005836,4.5720253,9.02348,1004.6083,0,0
37.76,0.012698114,4.6149235,8.554777,1004.61584,0,0
37.8,0.055746093,4.8008184,8.71575,1004.6108,0,0
37.84,0.041438356,4.762685,8.772565,1004.6303,0,0
37.88,-0.17362311,4.815116400000001,8.815178,1004.6106,0,0
37.92,-0.16880964,4.800816,8.777306,1004.598,0,0
37.96,-0.15443856,4.653052,9.269687,1004.6081,0,0
38.0,-0.120948225,4.8055816,8.332277000000001,1004.6106,0,0
38.04,-0.16871855,4.676883,8.692095,1004.6006,0,0
38.08,-0.08742823,4.65305,8.980896000000003,1004.633,0,0
38.12,0.06432763,4.90094,8.175938,1004.6106,0,0
38.16,-0.42800993,4.710278,8.374782000000002,1004.57745,0,0
38.2,-0.68135625,4.843742400000001,8.521545,1004.6051,1,2
38.24,-0.6001184,4.9915059999999984,8.407919999999999,1004.6178,1,2
38.28,-0.3420257,4.8961754,8.734591499999999,1004.5953,1,2
38.32,0.06424102,4.967674,8.57362,1004.58234,1,2
38.36,0.18371718,5.129737400000002,8.156991,1004.638,1,2
38.4,-0.15088677,5.063006,8.0196905,1004.5977,1,2
38.44,0.178903,5.0010414,8.317957,1004.6152,1,2
38.48,0.30316013,4.8866444000000016,8.152251,1004.6152,1,2
38.52,0.48955584,5.1535720000000005,8.109639999999999,1004.62494,1,2
38.56,0.53255635,5.0963736,8.516797,1004.61456,1,2
38.6,0.86234623,5.6111617,8.114371,1004.63495,1,2
38.64,1.0678598999999998,5.4681654,8.502591,1004.5871,1,2
38.68,0.98658556,5.4872327000000025,8.242197,1004.6152,1,2
38.72,1.5553643999999998,5.496766,9.198545,1004.6323,1,2
38.76,1.1060449,5.115442,8.90501,1004.6452,1,2
38.8,1.1825052,5.282272,8.166442,1004.5971,1,2
38.84,1.579209,5.5825653,7.8681725999999985,1004.6246,1,2
38.88,1.4835973999999998,5.539667,8.043344,1004.5868,1,2
38.92,0.9195629,5.353772,9.217475,1004.6477,1,2
38.96,0.7426933000000001,4.848517,10.135948,1004.6396,1,2
39.0,-0.437936,4.991514,9.340566,1004.6268,1,2
39.04,0.07826617,5.277508,8.019665,1004.6049,1,2
39.08,0.47019124,3.7045445,11.059152,1004.63464,1,2
39.12,-0.23151302,3.4185283,9.156006,1004.61957,1,2
39.16,-0.44658393,3.6139567,9.1086645,1004.5992,1,2
39.2,-0.14543599999999998,3.9190164,8.261207,1004.6072,1,2
39.24,0.11269243,3.6711547,9.534764,1004.61176,1,2
39.28,-0.10237846,3.7140532,9.33592,1004.6271,1,2
39.32,0.002796263,4.0524783,8.455323,1004.61206,1,2
39.36,0.06017421,4.247906,8.152324,1004.6321,1,2
39.4,0.31830388,4.042944,8.43639,1004.6271,1,2
39.44,-0.14531806,4.1192083,8.592626,1004.6471,1,2
39.48,0.10325201,4.4433336,9.416414,1004.6296,1,2
39.52,-0.3364684,4.4147344,8.976117,1004.6014,1,2
39.56,-0.61845773,4.977187000000002,8.469538,1004.6142,1,2
39.6,-0.9625833,4.6482944,9.998752,1004.6318,1,2
39.64,-0.70445484,4.5338964000000015,10.732587,1004.6318,1,2
39.68,0.18938868,3.7855465,10.6379,1004.619,1,2
39.72,1.1931665,3.6616158,10.732591,1004.63684,1,2
39.76,1.0736917,4.4528637,6.892989599999999,1004.5818,1,2
39.8,0.6339714,4.4480963,6.5568485,1004.59906,1,2
39.84,0.81562155,4.062005,8.497957000000001,1004.63885,1,2
39.88,0.5288537,3.8808756,9.662622,1004.624,1,2
39.92,-0.47966462,4.3432307,7.442188000000002,1004.59424,1,2
39.96,-0.37448865,5.0057817,7.1439223,1004.59906,1,2
40.0,-0.5226423,5.2917747,7.3759103,1004.6039,1,2
40.04,-0.7233738000000001,5.001014700000002,8.2044325,1004.6214,1,2
40.08,-0.8332915000000001,5.2393417,8.639999000000001,1004.6137,1,2
40.12,-0.6422348000000001,6.173589700000001,7.991374,1004.604,1,2
40.16,-0.7664956999999999,5.30131,9.298071,1004.63116,1,2
40.2,-1.196665,4.7293224,9.899342,1004.61865,1,2
40.24,-1.3352654,5.329909,10.221282,1004.64136,1,2
40.28,-1.4069484,4.8341866,8.673133,1004.6012,1,2
40.32,-1.904035,3.2326229,10.708928,1004.6436,1,2
40.36,-2.4680378,3.294588,8.441149000000001,1004.60614,1,2
40.4,-1.8562092,3.642546700000002,9.222327,1004.6112,1,2
40.44,-1.6745626,3.0181267000000003,10.278101,1004.6463,1,2
40.48,-1.3638614,2.6844673,10.964591,1004.61346,1,2
40.52,-0.81895053,3.1849554,9.089767,1004.59863,1,2
40.56,0.06533049,3.4709487,10.012979,1004.60864,1,2
40.6,0.23741738,3.1372895,9.885151,1004.6256,1,2
40.64,0.47164083,3.5472126000000004,9.103975,1004.6084,1,2
40.68,0.91139585,4.066767,8.815178,1004.6112,1,2
40.72,0.40475148,4.1954637,8.606864999999999,1004.6139,1,2
40.76,0.2040128,4.4433246,8.043472,1004.57806,1,2
40.8,-0.44124764,5.0105443,8.218646000000001,1004.5932,1,2
40.84,-0.55116916,5.020077,8.322804,1004.60565,1,2
40.88,-0.34562370000000003,4.0238667,10.486429,1004.636,1,2
40.92,-0.29303533,3.56151,10.581119,1004.60815,1,2
40.96,-0.25956103,4.3384585,8.166574,1004.5906,1,2
41.0,-0.50809604,4.1334963,9.023501,1004.6159,1,2
41.04,-0.5415406999999999,3.9666662000000006,9.335974,1004.59283,1,2
41.08,-1.0434071,3.9952657,8.995097,1004.6081,1,2
41.12,-1.7756199,3.8046255,8.748827,1004.6259,1,2
41.16,-1.7087255,4.1668844,8.133351,1004.5959,1,2
41.2,-1.1160498,4.2431498,9.634155,1004.6177,1,2
41.24,-1.2212228,3.4757345,9.90875,1004.628,1,2
41.28,-0.8006284,2.9657135,9.776184,1004.6131,1,2
41.32,-0.007203817,2.9323483,10.207013,1004.64343,1,2
41.36,-0.031125627000000006,2.5081255,9.899275,1004.58997,1,2
41.4,-0.12674454,2.388962,9.780912,1004.6156,1,2
41.44,0.09788625,2.5557919,10.031834,1004.6331,1,2
41.48,0.18867968,3.4328387000000005,9.17017,1004.6081,1,2
41.52,-0.03599395,4.0000596,9.520514,1004.6131,1,2
41.56,-0.5904755,3.4805057,10.48633,1004.6354,1,2
41.6,-1.3122486999999998,2.932352,9.520509,1004.6206,1,2
41.64,-1.4747821,3.2231123,9.790368,1004.615,1,2
41.68,-1.7424738000000002,2.8227224,10.135978,1004.62537,1,2
41.72,-1.0972245,3.5472398000000003,10.036553,1004.6125,1,2
41.76,-0.71008044,3.7093034,10.188052,1004.61005,1,2
41.8,-0.0026922820000000003,3.5186415,11.740935,1004.6125,1,2
41.84,0.41790622,3.5329416,10.443706,1004.6581,1,2
41.88,0.96278244,4.214559,8.706178,1004.6102,1,2
41.92,0.91496307,4.5720519999999985,8.478924000000001,1004.5825,1,2
41.96,0.60903126,4.3813900000000015,8.346359,1004.61005,1,2
42.0,0.4799537,4.8342137,8.199589999999999,1004.5795,1,2
42.04,0.07364894400000001,5.0677757,7.285848,1004.62537,1,2
42.08,-0.7484986,5.039177,7.2195644,1004.6223,1,2
42.12,-0.9822589,5.4109573,6.8692594,1004.57745,1,2
42.16,-1.0730791000000002,5.5015215999999985,7.721452,1004.6302,1,2
42.2,-1.3933296,5.4633894,7.939234299999999,1004.5969,1,2
42.24,-0.6715829000000001,5.701717,8.341659,1004.6327,1,2
42.28,0.27003467,5.7827487,9.27907,1004.61,1,2
42.32,0.93920344,6.0782757000000025,8.7488165,1004.6177,1,2
42.36,0.71454906,5.291794,8.834035,1004.60504,1,2
42.4,0.47555506,5.2584276,9.643619,1004.6304,1,2
42.44,0.67630327,5.897146,8.228031,1004.605,1,2
42.48,1.7087366999999998,5.8399480000000015,8.876644,1004.5969,1,2
42.52,1.9811822,5.811349,8.942926,1004.6402,1,2
42.56,1.7708666000000002,5.468157,8.663594999999999,1004.6077,1,2
42.6,1.1064703000000002,4.8342047,9.047082,1004.6098,1,2
42.64,1.1829436000000002,5.101132,7.551009,1004.5975,0,0
42.68,1.1064627,5.3680596,7.716713,1004.6102,0,0
42.72,0.91048723,5.4157243,7.721447500000001,1004.59753,0,0
42.76,1.1924918,5.5396557,8.852969,1004.6225,0,0
42.8,0.9343787,5.8304157,7.7782598,1004.6019,0,0
42.84,0.81965977,6.0115447,7.5131320000000015,1004.6125,0,0
42.88,0.52808803,5.6731195,7.8445406,1004.62494,0,0
42.92,0.7001571,5.8304157,7.6456947,1004.5977,0,0
42.96,0.6427957,5.7160187,7.996041,1004.6025,0,0
43.0,0.5567555999999999,5.582555,8.469481,1004.6177,0,0
43.04,0.3368811,5.4872239999999985,8.067056,1004.59796,0,0
43.08,0.04530923,5.758918,7.4657865,1004.6231,0,0
43.12,0.13700454,5.8303947,7.9440413,1004.5981,0,0
43.16,0.098795876,5.8256273,8.232842999999999,1004.6152,0,0
43.2,0.37127638,5.8160934,7.9345789999999985,1004.5802,0,0
43.24,0.46690416,5.7207620000000015,7.8114867,1004.6102,0,0
43.28,0.5720896,5.715994,7.333315,1004.5852,0,0
43.32,0.45740604,5.620662,7.4800844,1004.6381,0,0
43.36,0.37617916,5.5729957,7.9061837,1004.6284,0,0
43.4,0.06552355,5.468131,8.583206,1004.6256,0,0
43.44,-0.12085906,5.439531,8.374895,1004.6206,0,0
43.48,0.27589840000000004,5.6921577,8.355960000000001,1004.6152,0,0
43.52,0.28548968,5.615892400000001,8.417511,1004.6307,0,0
43.56,0.32853574,5.7207556,7.797306,1004.61536,0,0
43.6,-0.06337651,5.4871936,8.303891,1004.6152,0,0
43.64,-0.278436,5.4585934,8.166595,1004.64056,0,0
43.68,-0.30230325,5.3298955,8.668446000000001,1004.61035,0,0
43.72,-0.20667547,5.4395256,8.696855000000001,1004.61554,0,0
43.76,-0.06802941,5.1916637,8.687388,1004.64056,0,0
43.8,0.05149539,5.3346596,7.9535584,1004.6184,0,0
43.84,0.30007690000000004,5.539621,8.1050625,1004.61554,0,0
43.88,0.17583175,5.272693,8.128737,1004.6256,0,0
43.92,0.36227387,5.2917585,8.412804,1004.6177,0,0
43.96,0.40532583,5.3298903,8.30865,1004.59796,0,0
44.0,0.53441024,5.3775544,8.772625,1004.6281,0,0
44.04,0.33847195,5.1582930000000005,8.635328999999999,1004.60565,0,0
44.08,0.31460464,5.434752,8.024595,1004.59033,0,0
44.12,0.3185345,5.420473,8.597381,1004.6156,0,0
44.16,0.18469642,5.12018,8.568974,1004.61554,0,0
44.2,0.34242618,5.515805,8.128674,1004.61273,0,0
44.24,0.11299156,5.477672,8.663661,1004.5956,0,0
44.28,0.031731322,5.205978400000001,9.009272,1004.6356,0,0
44.32,0.16556202,5.253644,8.739410000000001,1004.6305,0,0
44.36,0.0317242,5.253644,8.057656,1004.60864,0,0
44.4,0.041279495,5.3680415,8.119203,1004.6284,0,0
44.44,-0.011301667,5.2155123,8.502689,1004.6055,0,0
44.48,0.3471803,5.172613,8.701533999999999,1004.6131,0,0
44.52,0.31371737,5.2536445,8.351187,1004.6081,0,0
44.56,0.3662917,5.3489757,8.256499,1004.6309,0,0
44.6,0.15119644,5.3060775,7.8067303,1004.6309,0,0
44.64,0.33760524,5.5205720000000005,8.109733,1004.61816,0,0
44.68,0.13684966,5.3346767,8.346453,1004.6379,0,0
44.72,0.18942373,5.4109416,8.644719,1004.6159,0,0
44.76,0.35671306,5.1344814,9.250722,1004.6461,0,0
44.8,0.41884714,4.824655,9.350144,1004.6304,0,0
44.84,0.28022784,5.110649,7.697837,1004.60284,0,0
44.88,0.36626077,5.4681406,7.8919473,1004.62616,0,0
44.92,0.35669732,5.2488794,8.407998,1004.6227,0,0
44.96,0.46663004,5.4681406,8.180745,1004.6209,0,0
45.0,0.45706677,5.5205727,8.441137,1004.6055,0,0
45.04,0.3471263,5.3775764000000015,8.488481,1004.59283,0,0
45.08,0.13681210000000002,5.3108444000000015,8.346449,1004.6384,0,0
45.12,0.01319471,5.234564,8.299164999999999,1004.6156,0,0
45.16,0.22353034,5.2059636,8.531152,1004.5934,0,0
45.2,0.42908335,5.3966255,8.313372,1004.59564,0,0
45.24,0.39086348,5.387092,8.318109,1004.61804,0,0
45.28,0.28573626,5.344192,8.142939,1004.6281,0,0
45.32,0.2188404,5.368025,8.389128999999999,1004.6209,0,0
45.36,0.19496422,5.391857,8.289708000000001,1004.61285,0,0
45.4,0.22844566,5.3108244,8.550103,1004.636,0,0
45.44,0.4053213,5.320357,8.63059,1004.61346,0,0
45.48,0.4626946,5.3346567,8.535903,1004.6256,0,0
45.52,0.49140197,5.3918550000000005,8.043528,1004.62115,0,0
45.56,0.17595626,5.3108225,7.825746499999997,1004.6384,0,0
45.6,0.003907591,5.339421700000001,7.9109683,1004.6081,0,0
45.64,-0.024749845,5.2965217,8.786836,1004.61273,0,0
45.68,0.13778631,5.329887,8.649539,1004.6384,0,0
45.72,0.5536506999999999,5.4490504,8.5595875,1004.5981,0,0
45.76,0.39116013,5.3394194000000015,8.213979,1004.6059,0,0
45.8,0.3816234000000001,5.3298855000000005,7.6174455,1004.58545,0,0
45.84,0.36252695,5.3155856,7.8778396,1004.6055,0,0
45.88,0.44858485,5.4538150000000005,7.6411214,1004.5981,0,0
45.92,0.46294707,5.3870825999999985,8.943086,1004.63104,0,0
45.96,0.4581887,5.4919457000000005,8.966759,1004.593,0,0
46.0,0.41997302,5.606343,8.460179,1004.6006,0,0
46.04,0.14754705,5.4347463,8.351289999999999,1004.6084,0,0
46.08,-0.014943451000000003,5.086787,8.606950999999999,1004.6284,0,0
46.12,-0.06898167,5.22982,8.048158,1004.5925,0,0
46.16,0.41373944,5.344218,8.966628,1004.6331,0,0
46.2,0.43282413,5.253654,8.559466,1004.6256,0,0
46.24,0.50926423,5.3299203,8.3274765,1004.6059,0,0
46.28,0.37061316,5.3966527,7.967658,1004.61096,0,0
46.32,0.42793626,5.3489879999999985,8.313267,1004.6281,0,0
46.36,0.33708787,5.205992,8.26592,1004.5985,0,0
46.4,0.37528723,5.2393594000000006,8.654138,1004.6281,0,0
46.44,0.27965426,5.2298265,8.313257,1004.6411,0,0
46.48,0.29395694,5.3013263,8.497896,1004.6059,0,0
46.52,0.24134462,5.244128,8.242235,1004.6511,0,0
46.56,0.21262904,5.3918924000000015,7.9818387,1004.6031,0,0
46.6,0.16479419,5.320395,8.521558,1004.6284,0,0
46.64,0.2938121,5.234598,8.606773,1004.63617,0,0
46.68,0.42283237,5.463393,8.095454,1004.6081,0,0
46.72,0.33676136,5.210767,8.639908,1004.6034,0,0
46.76,0.4753366,5.3013325,8.237478999999999,1004.60284,0,0
46.8,0.37014645,5.4014305999999985,8.119117,1004.6331,0,0
46.84,0.073759496,5.277501,8.289552,1004.6409,0,0
46.88,0.049825996,5.310868,8.403174,1004.60815,0,0
46.92,0.16450681,5.396667,8.237468,1004.6307,0,0
46.96,0.25528628,5.372835,8.545199,1004.64343,0,0
47.0,0.37474465,5.2870383,8.79612,1004.64056,0,0
47.04,0.41294628,5.1678742999999985,8.332146,1004.61554,0,0
47.08,0.36033392,5.158343,7.7261380000000015,1004.6055,0,0
47.12,0.3660528,5.391881,7.9108663,1004.60284,0,0
47.16,0.2752391,5.234585,8.639963999999999,1004.5956,0,0
47.2,0.41385615,5.382348,8.753589999999999,1004.6686,0,0
47.24,0.58593136,5.5110445,8.597356,1004.6231,0,0
47.28,0.35172343,5.2774835,8.796201,1004.6485,0,0
47.32,0.30870754,5.26795,8.16179,1004.6156,0,0
47.36,0.19877474,5.3680477,7.9250703,1004.6031,0,0
47.4,0.22267596,5.2774835,8.497933,1004.62067,0,0
47.44,0.2465777,5.239351,8.68731,1004.6405,0,0
47.48,0.42821282,5.344215,8.431652,1004.5981,0,0
47.52,0.25136256,5.1583190000000005,8.61156,1004.6284,0,0
47.56,0.5238138,5.4919777000000005,8.048166,1004.6031,0,0
47.6,0.42822003,5.37758,8.213871000000001,1004.61273,0,0
47.64,0.54293776,5.40618,8.431653,1004.6231,0,0
47.68,0.5190415,5.339448,8.223339999999999,1004.6175,0,0
47.72,0.60986006,5.506277,7.854057000000001,1004.59753,0,0
47.76,0.18446021,5.344214,8.138121,1004.61816,0,0
47.8,0.23226066,5.3871129999999985,8.218606,1004.59283,0,0
47.84,0.22748338,5.4586115,8.39378,1004.61786,0,0
47.88,0.42823774,5.2774825,8.58789,1004.6106,0,0
47.92,0.30396515,5.3871129999999985,8.029231,1004.628,0,0
47.96,0.51427907,5.66834,8.175998,1004.58997,0,0
48.0,0.6003181,5.4252453,8.7820015,1004.6081,0,0
48.04,0.007624745,5.22505,7.996091000000002,1004.6331,0,0
48.08,-0.030611128,5.3108478,8.19967,1004.6225,0,0
48.12,-0.06900436,5.2393537000000014,8.119171000000001,1004.6404,0,0
48.16,0.031367958,5.425249,8.204391000000001,1004.6381,0,0
48.2,0.040923744,5.2393537000000014,8.370092999999999,1004.6379,0,0
48.24,-0.16939142,5.2870193,8.218592,1004.61273,0,0
48.28,-0.1741748,5.2727194000000015,8.256468,1004.6123,0,0
48.32,-0.35581112,4.9819593,8.597344,1004.62787,0,0
48.36,-0.045127228,5.2870197,8.313279,1004.6404,0,0
48.4,-0.0068928,5.12019,8.6162815,1004.61755,0,0
48.44,-0.10727226,5.186922,8.299076,1004.62494,0,0
48.48,0.19863115,5.139256,8.810391000000003,1004.62744,0,0
48.52,0.00743565,5.191689,8.194919,1004.6277,0,0
48.56,0.32767874,5.4347835,8.559466,1004.6177,0,0
48.6,0.050446287,5.1344905,8.729905,1004.6025,0,0
48.64,0.33723074,5.3823514,8.729905,1004.6352,0,0
48.68,0.16037439,5.1869226,8.786717,1004.6506,0,0
48.72,0.27986538,4.8913956,8.961889999999997,1004.6352,0,0
48.76,0.39457715,5.0963583,8.535793,1004.61755,0,0
48.8,0.16514276,4.972427400000001,8.365354,1004.62494,0,0
48.84,0.040863827,5.091592,7.8587728000000014,1004.6331,0,0
48.88,-0.02127698,5.2393550000000015,7.906116499999999,1004.6175,0,0
48.92,-0.1885741,5.148791,8.507385000000001,1004.63745,0,0
48.96,-0.1598991,5.1297245,8.79145,1004.6025,0,0
49.0,-0.030847952,5.0820594,9.165467,1004.6379,0,0
49.04,0.06474455,5.048693,8.606807,1004.62537,0,0
49.08,0.07907919599999999,5.2631884000000015,8.133366,1004.6098,0,0
49.12,0.13200112,5.244114,8.370117,1004.62744,0,0
49.16,0.15113108,5.1678486,8.71573,1004.6125,0,0
49.2,0.07944292,5.1487823,8.265963000000001,1004.61,0,0
49.24,0.14159049,5.139249,8.6825905,1004.61554,0,0
49.28,0.084243625,5.234579599999999,8.147604,1004.61475,0,0
49.32,0.12727205,5.2727118,8.384325,1004.62744,0,0
49.36,-0.08780967,5.287011,8.190215,1004.63995,0,0
49.4,-0.03522417,5.2393456,8.630517,1004.6202,0,0
49.44,-0.15470977,5.115414,8.843565,1004.643,0,0
49.48,0.06517199,5.4014077,8.336985,1004.6452,0,0
49.52,0.003046587,5.320376,8.886177,1004.62494,0,0
49.56,0.06997082,5.248878,8.843568,1004.6125,0,0
49.6,-0.025611952,5.453839,8.190221000000001,1004.57495,0,0
49.64,-0.17855681,5.3203754,8.166551,1004.6047,0,0
49.68,-0.3601792,5.1583123,8.521631,1004.62744,0,0
49.72,-0.44142509,5.148779,7.565283,1004.61755,0,0
49.76,-0.40795696,5.306075,7.920364,1004.6227,0,0
49.8,-0.55612135,5.034381,8.152351,1004.6125,0,0
49.84,-0.35057962,5.1726108,8.630527,1004.62494,0,0
49.88,-0.09246008,5.1964440000000005,8.791497,1004.63745,0,0
49.92,0.07962236,5.348973,8.445886999999999,1004.61194,0,0
49.96,0.35208136,5.320373,8.843577,1004.5944,0,0
50.0,0.23259638,5.196443,8.38434,1004.615,0,0
50.04,0.25650555,5.1869097,8.057668,1004.6073,0,0
50.08,0.060543105,5.053446,8.157091000000001,1004.5922,0,0
50.12,0.080147505,5.1296983,8.327575,1004.60205,0,0
50.16,0.2522478,5.344193,8.389124,1004.5944,0,0
50.2,0.4243499,5.3346589999999985,8.47908,1004.6175,0,0
50.24,0.2809831,5.368025,8.711069,1004.6243,0,0
50.28,0.25233525,5.3823233,8.431742,1004.62195,0,0
50.32,0.09940709,5.1868940000000014,8.734746000000001,1004.6221,0,0
50.36,0.03729880000000002,5.201193,8.284980000000001,1004.63995,0,0
50.4,0.094685614,5.220258,8.545375,1004.6073,0,0
50.44,0.2524501,5.363254,8.308658,1004.60693,0,0
50.48,0.08518438,5.329888,8.294457000000001,1004.61194,0,0
50.52,-0.015164182,5.348953,8.185569000000001,1004.61444,0,0
50.56,0.07090147,5.2345552,8.417557,1004.63495,0,0
50.6,-0.024667278,5.244087,8.232918,1004.6323,0,0
50.64,0.023159951,5.2869864,8.02934,1004.6269,0,0
50.68,0.46293104,5.301285,8.73477,1004.64233,0,0
50.72,0.639813,5.5014796,8.161909,1004.62195,0,0
50.76,0.6780805999999999,5.3537154000000005,8.086162,1004.6198,0,0
50.8,0.085415885,4.9819236,7.9914755999999985,1004.6469,0,0
50.84,0.21449797,5.406146,7.953603699999999,1004.61194,0,0
50.88,0.5586711,5.3298807,8.962034,1004.6471,0,0
50.92,0.5204582999999999,5.3251133,8.436518,1004.6446,0,0
50.96,0.28627884,5.415677,7.8021107,1004.62195,0,0
51.0,-0.038720436,5.072483999999998,8.602227000000001,1004.6294,0,0
51.04,0.09514324,5.3680105000000005,8.436525,1004.63214,0,0
51.08,0.12863286,5.3727765,8.905234,1004.6221,0,0
51.12,0.25699055,5.096332599999998,8.943047,1004.6269,0,0
51.16,0.38126552,5.277462,8.218682000000001,1004.61444,0,0
51.2,0.080137834,5.353726999999999,7.480115,1004.59937,0,0
51.24,-0.07759569,4.972402,8.63531,1004.61945,0,0
51.28,0.02756001,5.034367,8.914639999999997,1004.6065,0,0
51.32,0.5485585999999999,5.4299917,8.621106,1004.6269,0,0
51.36,0.3908251,5.2250304000000005,8.076651,1004.62195,0,0
51.4,0.46252215,5.4013925,7.716835,1004.6271,0,0
51.44,0.34302706,5.244096,8.341777,1004.6575,0,0
51.48,0.17095412,5.1868973,8.687388,1004.63434,0,0
51.52,0.061018616,5.043901,8.815217,1004.6269,0,0
51.56,0.26655018,5.277462,8.507482000000001,1004.60944,0,0
51.6,0.16617431,5.372793,8.289699,1004.60944,0,0
51.64,0.018000394,5.1630650000000005,8.318106,1004.614,0,0
51.68,-0.029797636,5.2107306,8.43173,1004.63184,0,0
51.72,-0.11583413,5.1868973,8.28023,1004.6594,0,0
51.76,0.05623883,5.229796,8.606902999999999,1004.62726,0,0
51.8,0.11837627,5.353726999999999,8.663717,1004.6065,0,0
51.84,0.02756001,5.234563,8.498013,1004.6069,0,0
51.88,-0.039357252,5.2011970000000005,8.5927,1004.63184,0,0
51.92,0.02756001,5.239330000000002,8.417527,1004.61444,0,0
51.96,-0.001118809,5.196431,8.341777,1004.6243,0,0
52.0,0.14705510000000002,5.2917614,8.464871,1004.6165,0,0
52.04,0.15183492,5.358494,8.4932785,1004.614,0,0
52.08,-0.039357252,5.172598000000002,8.4932785,1004.6218,0,0
52.12,0.08472964,5.2727,8.393838,1004.6218,0,0
52.16,-0.029993251,5.115404,8.426978,1004.62396,0,0
52.2,0.07515484,5.2536345,8.602151,1004.6069,0,0
52.24,0.065587625,5.2536345,8.204460000000001,1004.59656,0,0
52.28,-0.07781363,5.1154046,8.337022,1004.604,0,0
52.32,-0.04436259,5.210736,8.251802,1004.6015,0,0
52.36,-0.010911599,5.2536354,8.332286999999999,1004.6143,0,0
52.4,0.022539899,5.196437,8.464849000000001,1004.6065,0,0
52.44,-0.04438495,5.05344,8.564271000000002,1004.61163,0,0
52.48,0.07032321400000001,5.2202697,8.60688,1004.60895,0,0
52.52,0.02729693,5.1678376,8.384362,1004.6369,0,0
52.56,0.05118881,5.2441025,8.355955,1004.619,0,0
52.6,0.1706758,5.3585005,8.247063,1004.6394,0,0
52.64,0.11809085,5.334667700000002,8.266,1004.63684,0,0
52.68,-0.025310397,5.26317,8.483782000000001,1004.629,0,0
52.72,-0.006198809,5.182138,8.630548,1004.6265,0,0
52.76,-0.01576601,4.9438105000000006,8.294404,1004.6165,0,0
52.8,-0.044451967,5.1344733,8.337013,1004.614,0,0
52.84,0.08459513,5.3060694,8.370153,1004.6063,0,0
52.88,-0.006228715,5.0200763,8.782047,1004.619,0,0
52.92,0.008101165,5.1440067,8.796249000000003,1004.59644,0,0
52.96,-0.034924664,5.0820417,8.393824,1004.6065,0,0
53.0,0.051106587,5.02961,8.360682,1004.61163,0,0
53.04,0.29964828,5.0629754,8.535853999999999,1004.60895,0,0
53.08,0.17536436,5.0486765,8.611604,1004.614,0,0
53.12,0.13746633,5.082033999999998,8.474338000000001,1004.6265,0,0
53.16,0.14703234,5.0439014,8.341774000000001,1004.5936,0,0
53.2,0.15181844,5.2440963,8.223415,1004.5911,0,0
53.24,-0.077606186,5.0725,8.587966,1004.614,0,0
53.28,-0.10627867,5.148765,8.578496000000001,1004.62396,0,0
53.32,-0.08715513,5.1296988,8.436465,1004.629,0,0
53.36,-0.029789492,4.962869,8.763139,1004.60895,0,0
53.4,-0.029784344,4.910437,8.739467999999999,1004.5911,0,0
53.44,0.14707471,5.1106324,8.090856,1004.61145,0,0
53.48,0.065823615,4.9867015,8.843625,1004.6139,0,0
53.52,0.13274921,5.1010985,8.554829,1004.6215,0,0
53.56,-0.02497837,4.9295019999999985,8.469609,1004.58356,0,0
53.6,0.15666051,4.9914675000000015,8.810487,1004.6165,0,0
53.64,0.22836392,4.910436,8.644784,1004.6065,0,0
53.68,0.25704908,4.9295019999999985,8.526423,1004.6165,0,0
53.72,0.15667911,4.776972,8.52169,1004.6015,0,0
53.76,0.19014414,4.881836,8.318111,1004.60614,0,0
53.8,0.21882851,4.84847,8.44594,1004.614,0,0
53.84,0.32399088,5.029599,8.602178,1004.59155,0,0
53.88,0.40047413,4.9819330000000015,8.838898,1004.59357,0,0
53.92,0.35268247,4.924734,8.715803,1004.6215,0,0
53.96,0.31445032,4.948567400000001,8.611647,1004.5811,0,0
54.0,0.11848436,4.8484693,8.616383,1004.6065,0,0
54.04,0.09459166,4.8532352,8.531163000000001,1004.6015,0,0
54.08,0.042019755,4.7817373,8.753680000000001,1004.629,0,0
54.12,-0.01577267,4.8675456,8.706297,1004.604,0,0
54.16,-0.006225184,4.9628778,8.668421,1004.59644,0,0
54.2,0.022443682000000003,5.0486755,8.578466,1004.6038,0,0
54.24,-0.030147031,4.9628778,8.687357,1004.60895,0,0
54.28,-0.17355113,4.905679,8.772574,1004.6188,0,0
54.32,-0.025388628,4.9199796,8.5689945,1004.5788,0,0
54.36,-0.09231656,4.776983,8.971418,1004.59863,0,0
54.4,-0.063649155,5.005778,8.171302,1004.6143,0,0
54.44,0.08929245,5.0153112,8.791508,1004.62396,0,0
54.48,0.14663939,4.972412599999998,8.985617999999997,1004.6264,0,0
54.52,0.08449054,4.867548,8.777303,1004.6088,0,0
54.56,0.15139635,4.981946,8.384346,1004.5886,0,0
54.6,0.10358761,4.8723160000000005,8.488502,1004.5938,0,0
54.64,0.10835604,4.953347,8.199702,1004.609,0,0
54.68,0.1752619,5.015313,8.606860000000001,1004.6165,0,0
54.72,0.11789282,5.0677457000000015,8.488499000000001,1004.61615,0,0
54.76,0.13222085,4.9962472999999985,8.796234,1004.6065,0,0
54.8,0.027054459,5.024847,8.284917,1004.6061,0,0
54.84,0.041382432,5.062979,8.426948,1004.59863,0,0
54.88,0.036591202,5.005781,8.4080105,1004.62146,0,0
54.92,0.02224043,5.1440115,8.59265,1004.6061,0,0
54.96,0.0126701,5.101113,8.630525,1004.6088,0,0
55.0,0.031778663,5.134479,8.379601,1004.6188,0,0
55.04,-0.07816829,5.053448,8.621053999999999,1004.6186,0,0
55.08,-0.11163905,5.067748,8.502692999999999,1004.61365,0,0
55.12,-0.000959471,5.048663,8.573777,1004.6061,0,0
55.16,0.008620292,5.01053,8.242371,1004.62115,0,0
55.2,0.09945564,5.143994,8.464889999999999,1004.619,0,0
55.24,0.018215626,5.091561,8.180826,1004.6165,0,0
55.28,0.08037208,5.115393599999999,8.725285000000001,1004.5886,0,0
55.32,0.023033485,5.124926,8.431753,1004.62115,0,0
55.36,0.14732741,5.1916575,8.578522,1004.61365,0,0
55.4,0.04696937,5.1535244,8.360742,1004.6288,0,0
55.44,0.2573009,5.2345552,8.654276,1004.634,0,0
55.48,-0.034249224,5.072491599999998,8.190305,1004.6111,0,0
55.52,0.08048509,5.205955,8.535917999999999,1004.6086,0,0
55.56,-0.19194588,5.010525,8.606936,1004.6288,0,0
55.6,-0.11545001,5.1249227999999984,8.673221,1004.59357,0,0
55.64,-0.077192575,5.225020400000001,8.417564,1004.58307,0,0
55.68,-0.12975253,5.1439886,8.876802,1004.60077,0,0
55.72,-0.13929312,5.1249213,8.351285,1004.5884,0,0
55.76,-0.12015605,5.1153879999999985,8.4980545,1004.61615,0,0
55.8,-0.019759968,5.2345514,8.427039,1004.5956,0,0
55.84,0.047175124000000006,5.1964190000000015,8.663762,1004.59357,0,0
55.88,0.09499219,5.3584809999999985,8.199792,1004.5907,0,0
55.92,-0.06750207400000001,5.1773515,8.715843,1004.5584,0,0
55.96,-0.05792345,5.229783,8.507531,1004.5777,0,0
56.0,-0.062686585,5.3060474000000015,8.744253,1004.6034,0,0
56.04,0.061608493,5.2965136,8.900491,1004.63617,0,0
56.08,0.21935992,5.4252105,8.848413,1004.6031,0,0
56.12,0.07063994,5.4156904,8.744207000000001,1004.6131,0,0
56.16,0.10409497,5.4204574,8.602175,1004.5906,0,0
56.2,-0.101440385,5.2154956,8.663722,1004.6059,0,0
56.24,-0.12534297,5.368026,8.498016999999999,1004.59357,0,0
56.28,-0.17314482,5.325126,8.872035,1004.62866,0,0
56.32,-0.067992695,5.3632589999999984,9.137161,1004.59607,0,0
56.36,0.003700301,5.425224,8.966722,1004.61365,0,0
56.4,0.118411765,5.491956,8.763142,1004.5956,0,0
56.44,-0.058444522,5.3680263,8.801017,1004.6086,0,0
56.48,-0.020209894,5.4061584000000025,8.706328,1004.6061,0,0
56.52,-0.029773049,5.267928,8.867298,1004.5959,0,0
56.56,0.0514798,5.5491557,8.890969,1004.5934,1,3
56.6,0.022797406,5.429991,9.009329,1004.6061,1,3
56.64,0.027573422,5.458591,8.957251,1004.5856,1,3
56.68,-0.005889013,5.425225,9.175033,1004.5931,1,3
56.72,0.07536383,5.4728910000000015,8.933578,1004.5934,1,3
56.76,-0.015456006,5.3870926,8.980922,1004.5707,1,3
56.8,-0.029799454,5.3918599999999985,8.834154,1004.5782,1,3
56.84,-0.077601075,5.491957,8.658980999999999,1004.58826,1,3
56.88,-0.1684221,5.372793,9.283923,1004.5906,1,3
56.92,-0.04415077,5.496724,9.004592,1004.6061,1,3
56.96,-0.020255566000000003,5.4442925,9.118217,1004.5706,1,3
57.0,0.13269438,5.572989,8.84362,1004.5886,1,3
57.04,-0.03460162,5.472892,9.01406,1004.59607,1,3
57.08,-0.015486896000000003,5.5396233,8.914638,1004.5631,1,3
57.12,-0.08209399,5.4013852999999985,8.933602,1004.5578,1,3
57.16,-0.062963694,5.4967165,8.867322999999997,1004.57324,1,3
57.2,-0.039055824,5.47765,9.042496,1004.54315,1,3
57.24,-0.07250612,5.4871826,8.962013,1004.55023,1,3
57.28,0.018317372,5.558681,8.7963085,1004.5631,1,3
57.32,-0.024690323,5.5205480000000025,8.74423,1004.5408,1,3
57.36,0.008776575,5.4967155,9.11825,1004.54315,1,3
57.4,-0.13460861,5.43475,8.739498,1004.5377,1,3
57.44,-0.019884467,5.5539136,8.583263,1004.55096,1,3
57.48,-0.048556656,5.4538160000000016,8.962017,1004.53827,1,3
57.52,-0.12502241,5.4538155,8.881534,1004.5377,1,3
57.56,0.042279035,5.5300803,8.886268,1004.5431,1,3
57.6,0.01838781,5.4776483,8.706362,1004.5207,1,3
57.64,0.004058376,5.4681144,8.786847,1004.53314,1,3
57.68,-0.048511162,5.4824142,8.767911,1004.51764,1,3
57.72,-0.04372306,5.449048,8.914678,1004.5082,1,3
57.76,-0.019815162,5.4776473,8.872069,1004.4652,1,3
57.8,-0.000686526,5.4824133,8.606943,1004.4881,1,3
57.84,-0.07237527,5.3537164000000015,8.649552,1004.5031,1,3
57.88,-0.120164976,5.277451,8.507522,1004.5006,1,3
57.92,-0.038898863,5.234552,8.516992,1004.52576,1,3
57.96,-0.04845021,5.229785,8.57854,1004.46075,1,3
58.0,-0.034102462,5.2631507000000015,8.417571,1004.4652,1,3
58.04,-0.005414188,5.339416,8.479119,1004.46277,1,3
58.08,-0.04842411,5.205951,8.365492999999999,1004.45776,1,3
58.12,-0.039518498,5.1297026,8.535872,1004.4602,1,3
58.16,-0.02997443,5.2345676,8.507464,1004.46326,1,3
58.2,0.05604428,5.3203654,8.5264015,1004.4681,1,3
58.24,-0.006112054,5.287000000000001,8.51693,1004.44824,1,3
58.28,-0.05392675,5.287001,8.540600999999999,1004.4403,1,3
58.32,-0.09218294,5.353733,8.748914,1004.4402,1,3
58.36,-0.06830168,5.334667,8.630550999999999,1004.4128,1,3
58.4,-0.053980067,5.287001999999998,8.611611,1004.4406,1,3
58.44,-0.097014904,5.205971,8.559531,1004.4002,1,3
58.48,-0.06357295,5.234571,8.32281,1004.4153,1,3
58.52,-0.039691716,5.2298045,8.393825,1004.4328,1,3
58.56,-0.07794791,5.1487737000000005,8.436433000000001,1004.4127,1,3
58.6,-0.030167632000000007,5.205972,8.12396,1004.4128,1,3
58.64,-0.09710264,5.201206,8.398553999999999,1004.4158,1,3
58.68,-0.2261751,5.1201754,8.592663,1004.40826,1,3
58.72,-0.07801787,5.2584057,8.223378,1004.4153,1,3
58.76,-0.03979718,5.1487756,8.228111,1004.391,1,3
58.8,-0.04937458,5.2250414,8.228109,1004.38776,1,3
58.84,-0.054172136,5.29654,8.190230999999999,1004.3859,1,3
58.88,-0.17368391,5.2059755,8.687344,1004.40076,1,3
58.92,-0.11634402,5.368039,8.587919,1004.3882,1,3
58.96,-0.020763487,5.4300045999999975,8.715747,1004.38074,1,3
59.0,0.065253004,5.434772,8.351195,1004.3703,1,3
59.04,0.04611714,5.3680406,8.341725,1004.4056,1,3
59.08,-0.078175545,5.2965426,8.237566000000001,1004.3628,1,3
59.12,-0.04932504,5.2727056,8.199707,1004.37335,1,3
59.16,-0.15449023,5.129709,8.370144999999999,1004.32526,1,3
59.2,-0.025445685,5.310838,8.332269,1004.3603,1,3
59.24,-0.015896201000000002,5.310838,8.355939999999999,1004.35815,1,3
59.28,0.041451916,5.2965393,8.422221,1004.3503,1,3
59.32,0.031882167,5.2345742999999985,8.228109,1004.33777,1,3
59.36,-0.011145562,5.201208599999998,8.256515,1004.33325,1,3
59.4,-0.030274943,5.287007,8.270717,1004.3177,1,3
59.44,-0.13066097,5.2822404,8.284919,1004.3332,1,3
59.48,-0.06375384,5.2870073,8.374872,1004.31085,1,3
59.52,-0.13546108,5.248875599999999,8.753623,1004.3204,1,3
59.56,-0.030314244,5.33944,8.497964999999999,1004.3335,1,3
59.6,0.046152458,5.372806,8.800965,1004.31824,1,3
59.64,0.12261854,5.396639,8.322789,1004.29285,1,3
59.68,0.05569242,5.2965417,8.417477,1004.30566,1,3
59.72,-0.03991445,5.2012105,8.171288,1004.31354,1,3
59.76,-0.0972822,5.096347,8.161817,1004.2933,1,3
59.8,-0.05905328,5.2107444,7.934564999999999,1004.2828,1,3
59.84,-0.044724673,5.229810700000002,8.313317,1004.30316,1,3
59.88,-0.059072927,5.1249466,8.147611999999999,1004.3037,1,3
59.92,0.08431038,5.1726127,8.02925,1004.26526,1,3
59.96,-0.016075015,5.0629816,7.934561299999999,1004.26825,1,3
60.0,0.007813856,5.1583138,8.057655,1004.2629,1,3
60.04,-0.09735133,5.096349,8.104999000000001,1004.27527,1,3
60.08,0.007794201,5.277478,8.03398,1004.2782,1,3
60.12,-0.11158553,5.0820465,8.32279,1004.25037,1,3
60.16,-0.011214435,5.1964440000000005,8.100273,1004.24005,1,3
60.2,-0.06379732,5.1583114000000005,8.218633,1004.2403,1,3
60.24,-0.016004339,5.1630783,8.218633,1004.2302,1,3
60.28,-0.039908446,5.101113,8.024522,1004.2178,1,3
60.32,0.0031050440000000004,5.10588,7.9913797,1004.2658,1,3
60.36,-0.15941338,4.9962487,8.048192,1004.23785,1,3
60.4,-0.09728098,5.0629807,7.6978455000000015,1004.2153,1,3
60.44,-0.035148285,5.0629807,7.8966904000000016,1004.22034,1,3
60.48,-0.15464847,4.900918,8.133410000000001,1004.2004,1,3
60.52,0.007859767,5.0582147000000015,7.8730173,1004.23083,1,3
60.56,0.026973933,5.091581,7.7451878,1004.18585,1,3
60.6,-0.020830154,5.0963473,7.882485400000001,1004.19775,1,3
60.64,-0.10209189,5.029616000000001,7.532139,1004.1903,1,3
60.68,-0.13555558,4.9724174,7.9629699999999985,1004.2158,1,3
60.72,-0.15945967,5.001017,7.5747475999999985,1004.2008,1,3
60.76,-0.011289239,5.0200830000000005,7.3190894,1004.20276,1,3
60.8,-0.059092022,4.986717,8.076594,1004.17755,1,3
60.84,-0.1690326,5.077281500000002,7.90142,1004.1929,1,3
60.88,-0.1116813,5.0200834,8.100265,1004.1878,1,3
60.92,-0.04476782,5.0725155,7.944029,1004.1878,1,3
60.96,-0.02087392,5.0296164,7.7357144,1004.17786,1,3
61.0,-0.07823629,5.115414,7.664698,1004.1803,1,3
61.04,-0.073462844,5.001018,8.265967,1004.1778,1,3
61.08,-0.16906273,4.9342856,8.190215,1004.17035,1,3
61.12,-0.043657348,5.01529,7.570112700000001,1004.1603,1,3
61.16,-0.09141226,5.0200553,7.660070399999999,1004.1778,1,3
61.2,-0.043578707,5.0200543,7.612729499999999,1004.1903,1,3
61.24,-0.09611343,5.020053400000001,8.07197,1004.17816,1,3
61.28,0.061658114000000014,5.1344495000000006,7.726362700000001,1004.15784,1,3
61.32,-0.000438735,5.09155,8.152463000000001,1004.1857,1,3
61.36,-0.009960294,5.043883,8.266091000000001,1004.1954,1,3
61.4,-0.048158146,4.9962163,7.731108,1004.1553,1,3
61.44,-0.081573665,5.0629472999999985,7.9962387,1004.15515,1,3
61.48,-0.105437145,4.967615,8.275572,1004.18286,1,3
61.52,-0.043259136,5.1535096,7.7595253,1004.17816,1,3
61.56,-0.10535598,4.9485474,8.185625,1004.20276,1,3
61.6,-0.08141385,5.0295777,7.82108,1004.17816,1,3
61.64,-0.047917157,4.981911,8.327665,1004.1603,1,3
61.68,0.01904066,5.1153736,8.11462,1004.17035,1,3
61.72,0.16247283,5.182104,8.2187805,1004.16534,0,0
61.76,0.02867642,5.220236,7.806891,1004.18536,0,0
61.8,-0.014298722,5.2536010000000015,8.157241,1004.17816,0,0
61.84,-0.07639561,5.2726655,8.199855,1004.1728,0,0
61.88,-0.06679541,5.2440653,8.275609,1004.18536,0,0
61.92,-0.08109933,5.210699,8.356097,1004.1454,0,0
61.96,0.019319698,5.244063400000001,8.270882,1004.1653,0,0
62.0,0.048036575,5.406126,7.252988,1004.1525,0,0
62.04,-0.03317952,5.325093,7.9347463,1004.16034,0,0
62.08,-0.004462645,5.234528,8.668582,1004.1878,0,0
62.12,0.09469272,5.530084,8.128748,1004.19086,0,0
62.16,0.051665574000000006,5.506252,8.010387,1004.1778,0,0
62.2,0.104232684,5.434753400000001,8.2423725,1004.1703,0,0
62.24,-0.034391135,5.3346562,8.128745,1004.1778,0,0
62.28,-0.01050292,5.3537230000000005,8.176088,1004.1876,0,0
62.32,0.07074489,5.320357,8.535903,1004.15546,0,0
62.36,0.003817484,5.35849,8.303916000000001,1004.1454,0,0
62.4,0.19499947,5.463354,8.251837,1004.17035,0,0
62.44,0.018137217,5.2631593,8.4080715,1004.1753,0,0
62.48,-0.06790935,5.310825,8.242366,1004.15027,0,0
62.52,-0.07269930000000001,5.1868944,8.578507,1004.1624,0,0
62.56,0.11370288,5.3108252999999985,8.218691999999999,1004.15784,0,0
62.6,0.16627122,5.358491000000001,8.327582000000001,1004.1601,0,0
62.64,0.08500378,5.3870907,8.384394,1004.1703,0,0
62.68,0.14713113,5.363258,8.554832000000001,1004.1803,0,0
62.72,0.10410397,5.258394,8.5643,1004.1928,0,0
62.76,0.1710111,5.391858,8.417532000000001,1004.1803,0,0
62.8,0.05628568,5.124931,8.460141,1004.1801,0,0
62.84,0.070614934,5.2869945,8.029309,1004.16504,0,0
62.88,0.013247788,5.1344647000000005,8.318108,1004.14764,0,0
62.92,0.046696246,5.1916633,8.393857,1004.1778,0,0
62.96,0.23787828,5.253629,8.426996,1004.1753,0,0
63.0,0.34302384,5.3918599999999985,8.526418,1004.1728,0,0
63.04,0.20440002,5.368027,8.384383999999999,1004.1903,0,0
63.08,0.15659182,5.306062,8.157133,1004.1624,0,0
63.12,-0.02476795,5.1535254,8.606926,1004.1828,0,0
63.16,-0.000867635,5.205957,8.332331,1004.1678,0,0
63.2,0.08039030400000001,5.2965217,8.412815,1004.1778,0,0
63.24,0.008694425,5.182124,8.2991905,1004.1928,0,0
63.28,0.023035094,5.2869887,8.327597,1004.1853,0,0
63.32,0.075614125,5.253623,8.521707000000001,1004.1726,0,0
63.36,0.1616519,5.3537207,8.554849,1004.1525,0,0
63.4,0.08039646,5.291755,8.564318,1004.17737,0,0
63.44,0.13775538,5.272689,8.379676,1004.1678,0,0
63.48,0.13775657,5.3680205,7.9299073,1004.16254,0,0
63.52,-0.039094888,5.2011910000000015,8.564318,1004.1571,0,0
63.56,-0.04865326,5.325121,8.010392999999999,1004.1524,0,0
63.6,0.05650356400000001,5.3203545,8.393880000000001,1004.19525,0,0
63.64,0.061284706,5.3441873,8.365472,1004.15515,0,0
63.68,-0.05342932,5.3012886,8.327599000000001,1004.18787,0,0
63.72,0.051727623,5.3918532999999975,8.266051,1004.1726,0,0
63.76,-0.015188441,5.2917547,8.346536,1004.1628,0,0
63.8,-0.053425513,5.325121,8.31813,1004.1701,0,0
63.84,0.008713037,5.339421,8.341802000000001,1004.17236,0,0
63.88,0.15210845,5.420452,8.356005,1004.1878,0,0
63.92,0.08997223,5.2774553,8.464896000000001,1004.15497,0,0
63.96,0.032615885,5.3155875,8.540647,1004.18,0,0
64.0,0.042176753,5.344187000000002,8.180833,1004.1626,0,0
64.04,0.061297223,5.248856,8.356005999999999,1004.1701,0,0
64.08,-0.015178517,5.2393227,8.16663,1004.1899,0,0
64.12,0.027527928,5.3012958,8.318102,1004.16504,0,0
64.16,-0.07763988,5.253630599999998,8.426991000000001,1004.1751,0,0
64.2,-0.06809096,5.2297974,8.441194,1004.1951,0,0
64.24,-0.053762242,5.1916655999999985,8.455396,1004.16003,0,0
64.28,0.04660152,5.3346624,8.360707000000001,1004.1675,0,0
64.32,0.060930252,5.248865,8.521676,1004.15753,0,0
64.36,0.037016958,5.2583980000000015,8.51694,1004.1926,0,0
64.4,-0.049030215,5.101102,8.469596000000001,1004.19006,0,0
64.44,0.0035362690000000007,5.2488660000000005,8.327561,1004.1825,0,0
64.48,-0.04427035,5.196434,8.445922,1004.17004,0,0
64.52,-0.04906372,5.1678348,8.488529,1004.1851,0,0
64.56,0.041744024,5.277466,8.417513,1004.1753,0,0
64.6,0.05129221,5.0915704,8.644763000000001,1004.2125,0,0
64.64,0.14687477,5.172602,8.469589,1004.17487,0,0
64.68,0.051270127,5.0868044,8.218664,1004.16956,0,0
64.72,0.09427409,5.225035,8.100304,1004.16254,0,0
64.76,-0.06347013,5.1344705,8.47432,1004.16455,0,0
64.8,-0.09694087,5.1678367,8.767853,1004.1903,0,0
64.84,-0.09695228,5.196437,8.493257,1004.16956,0,0
64.88,-0.2212379,5.1106386,8.559536999999999,1004.1575,0,0
64.92,-0.14477171,5.1058726,8.635285000000001,1004.17255,0,0
64.96,-0.06352645,5.172604,8.313345,1004.15497,0,0
65.0,-0.24038985,5.086807,8.190249,1004.1521,0,0
65.04,-0.2069434,5.1583055999999985,8.531125,1004.1599,0,0
65.08,-0.21651368,5.082041,8.630548,1004.16254,0,0
65.12,-0.09649279,5.1249265999999984,8.469626,1004.18,0,0
65.16,-0.15384029,5.139226,8.422283,1004.1546,0,0
65.2,-0.14905097,5.2393236,8.412814,1004.1851,0,0
65.24,-0.096462965,5.1106267,8.431753,1004.1949,0,0
65.28,-0.04387562,5.124925599999999,8.569052000000001,1004.15753,0,0
65.32,-0.04386545,5.143992,8.294457000000001,1004.2052,0,0
65.36,-0.06775498,5.1868906,8.341803,1004.1846,0,0
65.4,-0.120322645,5.0820265,8.597462,1004.1751,0,0
65.44,-0.039055854,5.0915594,8.715822,1004.1899,0,0
65.48,0.003971934,5.105859,8.564322,1004.18506,0,0
65.52,0.090018526,5.253621599999999,8.341806,1004.172,0,0
65.56,0.18084432,5.2631545,8.436496,1004.1871,0,0
65.6,0.11871703,5.220255,8.4507,1004.19775,0,0
65.64,0.027910918,5.110624,8.313403,1004.18,0,0
65.68,-0.043776013,5.1296897,8.393888,1004.1471,0,0
65.72,-0.10112411,5.062958,8.403358,1004.17957,0,0
65.76,0.008822158,5.120157,8.507516,1004.18207,0,0
65.8,0.09486878,5.096323,8.403360000000001,1004.1525,0,0
65.84,0.20003332,5.1773543,8.502782,1004.1571,0,0
65.88,0.15224539,5.205953,8.455439,1004.16705,0,0
65.92,0.12835659,5.191653700000002,8.460175,1004.1876,0,0
65.96,0.161826,5.2202525,8.445973,1004.19006,0,0
66.0,0.047119588,5.1439879999999985,8.498053,1004.1871,0,0
66.04,0.08058901,5.148754,8.545397,1004.17706,0,0
66.08,0.11405592,5.072489,8.64482,1004.17505,0,0
66.12,0.07997793,5.167835,8.379638,1004.187,0,0
66.16,0.027384907000000003,5.077271,8.393839999999999,1004.16956,0,0
66.2,0.10862632,5.1392365,8.403306,1004.1745,0,0
66.24,0.10383226,5.1630697,8.516931,1004.1692,0,0
66.28,0.12771513,5.1773696,8.374897,1004.16205,0,0
66.32,0.13248067,5.1440043,8.606882,1004.14716,0,0
66.36,0.075109676,5.1106386,8.611614,1004.16705,0,0
66.4,0.06553392,5.1583047,8.497989,1004.17706,0,0
66.44,0.032060057,5.0629735,8.445908,1004.16205,0,0
66.48,0.10852264,5.134473000000002,8.426969,1004.19006,0,0
66.52,0.09894784,5.2059712,8.194983,1004.1742,0,0
66.56,0.1993085,5.201205,8.564263,1004.18756,0,0
66.6,0.07980007,5.110641,8.573732000000001,1004.18207,0,0
66.64,0.108462706,5.234572,8.460104,1004.18506,0,0
66.68,0.031971633,5.1344743,8.374884,1004.16205,0,0
66.72,0.06063424,5.19644,8.408023,1004.1595,0,0
66.76,-0.04931455,5.167841,8.441162,1004.17456,0,0
66.8,0.012806699,5.215507,8.294394500000001,1004.17255,0,0
66.84,0.055810705,5.258406,8.4743,1004.21765,0,0
66.88,-0.011122733,5.1583095000000005,8.654206,1004.17957,0,0
66.92,-0.09239366,5.0868106,8.502704,1004.1595,0,0
66.96,0.036645800000000006,5.1392436,8.445889999999999,1004.1521,0,0
67.0,0.16090648,5.1440105,8.422217,1004.16956,0,0
67.04,0.098753795,5.17261,8.370137,1004.1895,0,0
67.08,0.07962027,5.1154113,8.09554,1004.1521,0,0
67.12,0.2658276,5.353745,8.22335,1004.1821,0,0
67.16,0.21800818,5.3013134000000015,8.545287,1004.17206,0,0
67.2,0.117609486,5.272714,8.460067,1004.17706,0,0
67.24,0.12714769,5.2441154,8.502674,1004.1697,0,0
67.28,0.045866787,5.2012167,8.374844,1004.1747,0,0
67.32,0.02194637,5.215517500000002,8.431654,1004.1642,0,0
67.36,0.012365341,5.163086,8.336964,1004.1846,0,0
67.4,0.04101993,5.2012186,8.450586999999999,1004.162,0,0
67.44,0.09357634,5.2584176,8.455319,1004.16455,0,0
67.48,0.23694767,5.363282,8.507397000000001,1004.1846,0,0
67.52,0.23214643,5.282251400000002,8.336955,1004.15967,0,0
67.56,0.23690341,5.2393537000000014,8.398501,1004.14166,0,0
67.6,0.15084414,5.2250543,8.237528999999999,1004.1642,0,0
67.64,0.19383954,5.248888,8.32748,1004.16705,0,0
67.68,0.088661015,5.2536545,8.346416,1004.17957,0,0
67.72,0.045622826,5.19169,8.441102,1004.1546,0,0
67.76,0.064719215,5.263189,8.436366,1004.18207,0,0
67.8,0.031237796,5.139259,8.464771,1004.16455,0,0
67.84,0.16982923,5.2250576,8.450565,1004.17957,0,0
67.88,0.13634776,5.163093,8.336936999999999,1004.1566,0,0
67.92,0.2414821,5.229825,8.317998,1004.16144,0,0
67.96,0.20799918,5.129728,8.4174185,1004.15717,0,0
68.0,0.21753739,5.229826,8.512105,1004.1945,0,0
68.04,0.27230334,5.272671,9.014151,1004.1742,0,0
68.08,0.23413320000000004,5.1868715,8.517045,1004.1845,0,0
68.12,0.22940214,5.4633307,7.731138,1004.1617,0,0
68.16,0.1864359,5.0486393,8.753775,1004.1896,0,0
68.2,0.29164356,5.372764,7.735882000000001,1004.16455,0,0
68.24,0.4972239000000001,5.477627,7.783231,1004.182,0,0
68.28,0.29652417,5.3822947,7.90633,1004.1591,0,0
68.32,0.26310128,5.425193,8.199866,1004.18396,0,0
68.36,0.18191285,5.410891,8.464999,1004.1867,0,0
68.4,0.18672837,5.4394894,8.749067,1004.1722,0,0
68.44,0.11508007,5.3346243,8.6165085,1004.18463,0,0
68.48,0.07689692,5.3489227,8.356119999999999,1004.1845,0,0
68.52,-0.09989409,5.224991,8.270907000000001,1004.17163,0,0
68.56,0.081793696,5.3203206,8.256708999999999,1004.1722,0,0
68.6,0.22523658,5.4108834,8.1667595,1004.1845,0,0
68.64,0.2205088,5.4108825,8.242515,1004.1792,0,0
68.68,0.15364356,5.358449,8.450833,1004.1591,0,0
68.72,0.061107516,5.2393274000000005,8.606911,1004.19464,0,0
68.76,0.061088488,5.186896,8.663723,1004.1945,0,0
68.8,0.2665999,5.296526999999998,8.355984,1004.1821,0,0
68.84,0.39085817,5.3775587,8.261294,1004.1921,0,0
68.88,0.40039754,5.3108277,8.32284,1004.1941,0,0
68.92,0.34302318,5.387093,8.341776,1004.1946,0,0
68.96,0.25218552,5.2917624000000005,8.393853,1004.1816,0,0
69.0,0.22349007,5.3060627,8.308631,1004.17957,0,0
69.04,0.14699419,5.263164,8.242349,1004.1667,0,0
69.08,0.046599284000000005,5.2059655,8.355972,1004.17664,0,0
69.12,0.11827852,5.2345657,8.3938465,1004.17145,0,0
69.16,0.21863417,5.306064,8.408047999999999,1004.1892,0,0
69.2,0.30465287,5.358496700000001,8.360702,1004.187,0,0
69.24,0.29985517,5.310832,8.455388000000001,1004.1691,0,0
69.28,0.24247734,5.277467,8.365433,1004.1692,0,0
69.32,0.23289986,5.2584,8.346494,1004.162,0,0
69.36,0.17552324,5.2441015,8.450648,1004.15906,0,0
69.4,0.18028517,5.277467700000001,8.308614,1004.1896,0,0
69.44,0.17548634,5.3060675,8.337019999999999,1004.1363,0,0
69.48,0.046412632,5.1535378,8.554801,1004.197,0,0
69.52,0.103750035,5.2059703,8.337016,1004.199,0,0
69.56,0.089392826,5.1011066,8.516921,1004.17957,0,0
69.6,0.05113654,5.220271,8.199715,1004.17163,0,0
69.64,0.027217329,5.0486755,8.483778,1004.16705,0,0
69.68,0.132354,5.0868087,8.550056,1004.1995,0,0
69.72,0.0613015,4.996228,8.777368,1004.17163,0,0
69.76,0.185584,5.029594,8.630603,1004.1747,0,0
69.8,0.285967,5.167824,8.474366,1004.1821,0,0
69.84,0.27163476,5.1249247,8.237647,1004.17706,0,0
69.88,0.20472555,5.163057,8.379681,1004.1866,0,0
69.92,0.018319875,5.134457599999998,8.564323,1004.1742,0,0
69.96,-0.000791222,5.0867915,8.621136,1004.16895,0,0
70.0,-0.14895803,4.9342613,8.606933999999999,1004.189,0,0
70.04,-0.005556315,5.1392235999999984,8.445965,1004.14624,0,0
70.08,0.008790702,5.1487565,8.583263,1004.1821,0,0
70.12,-0.091577545,4.848463,8.80578,1004.1691,0,0
70.16,0.07572271,4.9437943,8.455436,1004.17413,0,0
70.2,0.113968715,4.8961287,8.682688,1004.14417,0,0
70.24,0.3577459,5.062958,8.900471000000003,1004.1517,0,0
70.28,0.4007722,5.0581913,8.900472,1004.1966,0,0
70.32,0.36732113,5.1058564,8.147702,1004.1767,0,0
70.36,0.10443954,5.0057589999999985,8.436502,1004.1792,0,0
70.4,-0.1536627,4.7769629999999985,8.289736,1004.1792,0,0
70.44,-0.010260984,4.791263,8.521722,1004.1841,0,0
70.48,0.10446145,4.9104269999999985,8.663755,1004.1591,0,0
70.52,0.19050552,5.0248237,8.744241,1004.1662,0,0
70.56,0.30044812,5.091556,8.66849,1004.1966,0,0
70.6,0.33391434,5.0152903,8.7016325,1004.1841,0,0
70.64,0.34348106,5.0963216,8.403366,1004.2021,0,0
70.68,0.22877343,4.9247260000000015,8.502788,1004.1562,0,0
70.72,0.13730524,4.9485745,8.474322,1004.1841,0,0
70.76,0.17074485,4.910442400000001,8.535867999999999,1004.14624,0,0
70.8,0.2711017,5.062972,8.654226,1004.1841,0,0
70.84,0.28064346,4.996241,8.512194000000001,1004.1662,0,0
70.88,0.32842135,5.062973,8.616348,1004.189,0,0
70.92,0.19934876,5.086807,8.50272,1004.1687,0,0
70.96,0.2758066,5.043908,8.564264999999999,1004.1841,0,0
71.0,0.14673407,5.053442,8.455372,1004.1642,0,0
71.04,0.21841215,5.1583066,8.3654175,1004.172,0,0
71.08,-0.01581733,5.0200768,8.587933999999999,1004.17645,0,0
71.12,0.03674151,5.19644,8.616338,1004.1591,0,0
71.16,0.04628329,5.0963426,8.5311165,1004.1667,0,0
71.2,0.0988421,5.0439110000000005,8.606864999999999,1004.16394,0,0
71.24,0.09882426,5.08681,8.4743,1004.15643,0,0
71.28,0.04144758,5.0248456,8.332267,1004.18396,0,0
71.32,0.003190175,4.9914804,8.4553585,1004.1642,0,0
71.36,-0.020727932,4.9867144,8.408013,1004.2046,0,0
71.4,0.06050971,5.2012095,8.322792,1004.2046,0,0
71.44,0.05571091,5.148778,8.711011,1004.194,0,0
71.48,0.1847478,5.167845,8.758353999999999,1004.1821,0,0
71.52,0.22774817,5.0868134000000005,8.46482,1004.1692,0,0
71.56,0.26596642,5.086814,8.497959,1004.16895,0,0
71.6,0.23726971,5.0629816,8.393801,1004.17664,0,0
71.64,0.2468115,5.039149299999999,8.280172,1004.17957,0,0
71.68,0.25157225,5.0772824,8.403266,1004.1792,0,0
71.72,0.2140357,5.134464,8.569035000000001,1004.17395,0,0
71.76,0.31920087,5.148763,8.621113000000001,1004.189,0,0
71.8,0.23795502,5.172596,8.654255000000001,1004.1616,0,0
71.84,0.20450841,5.0009995,8.753678,1004.1441,0,0
71.88,0.1662776,5.0200653,8.483819,1004.1841,0,0
71.92,0.056352258,5.015299,8.247099,1004.1821,0,0
71.96,0.018123299,4.9247336,8.436477,1004.16705,0,0
72.0,0.056371883,4.9676323,8.3938675,1004.1866,0,0
72.04,0.15676047,4.9819317000000005,8.824699,1004.1917,0,0
72.08,0.12809114,4.929499,8.819966,1004.1841,0,0
72.12,0.14243813,5.0248303,8.54537,1004.192,0,0
72.16,0.085093156,5.029597,8.355996000000001,1004.19507,0,0
72.2,0.13290073,5.0248300000000015,8.635326,1004.18396,0,0
72.24,0.12812914,4.948565,8.569046,1004.18896,0,0
72.28,0.18549820000000009,5.0152965,8.616391,1004.1996,0,0
72.32,0.09469204,4.948565,8.55011,1004.1566,0,0
72.36,0.18551911,4.9962296,8.455422,1004.1742,0,0
72.4,0.11383216,4.9104314,8.464891999999999,1004.177,0,0
72.44,0.14730097,4.891365,8.640066000000001,1004.1747,0,0
72.48,0.08517046,4.948564,8.668472999999999,1004.1821,0,0
72.52,0.1807792,5.0486608,8.583256,1004.182,0,0
72.56,0.17122908,5.000995,8.540647,1004.1466,0,0
72.6,0.104322,4.9056635,8.521709,1004.207,0,0
72.64,0.12823053,5.04866,8.417553999999999,1004.1692,0,0
72.68,0.08044261,4.981928,8.824714,1004.1747,0,0
72.72,0.10463674,4.967621,8.597489,1004.207,0,0
72.76,0.18591498,4.9866867,8.60696,1004.1617,0,0
72.8,0.16203623,4.9342537,8.356038,1004.17456,0,0
72.84,0.23375483,5.0343513,8.389180999999999,1004.1722,0,0
72.88,0.20509623,4.9342527,8.45073,1004.1945,0,0
72.92,0.14298172,4.958085,8.649577,1004.16455,0,0
72.96,0.16211976,5.015283599999999,8.663783,1004.16705,0,0
73.0,0.109564885,4.9247190000000005,8.654314999999999,1004.17706,0,0
73.04,0.16694413,4.9866834,8.526489,1004.1691,0,0
73.08,0.23388161,5.048648,8.535959,1004.1941,0,0
73.12,0.23390318,5.010515,8.436539,1004.1747,0,0
73.16,0.24826284,5.0200477,8.569104,1004.17957,0,0
73.2,0.14313005,5.010514,8.488622,1004.17914,0,0
73.24,0.16705064,5.043879,8.526499000000001,1004.17914,0,0
73.28,0.20052953,5.0343456,8.545438,1004.192,0,0
73.32,0.0953954,4.9628468,8.621189999999999,1004.1666,0,0
73.36,0.0428378,4.9390135000000015,8.606989,1004.17163,0,0
73.4,0.033299774,4.962846,8.341864999999999,1004.1867,0,0
73.44,0.24840982,5.06771,8.483899000000001,1004.1722,0,0
73.48,0.24843277,5.0677094,8.535979,1004.1841,0,0
73.52,0.28669274,5.172573000000001,8.322932000000002,1004.1867,0,0
73.56,0.17677887,5.2202377,8.649608,1004.2001,0,0
73.6,0.1863587,5.372767,8.266124000000001,1004.1871,1,4
73.64,0.16247989,5.1344385,8.479174,1004.16455,1,4
73.68,0.28199792,4.7864795,8.531253999999999,1004.1745,1,4
73.72,0.8065667,5.1440015,8.133453,1004.2071,1,4
73.76,1.1124496,5.2488660000000005,8.313358000000001,1004.18463,1,4
73.8,1.0837395,5.196435,8.171324,1004.17163,1,4
73.84,0.8638423000000001,5.0868044,8.332292,1004.19464,1,4
73.88,0.7252019000000001,5.020073,8.010349,1004.17957,1,4
73.92,0.32366872,5.1869035000000006,8.105034,1004.1616,1,4
73.96,0.122892514,5.086806299999999,8.753645,1004.1841,1,4
74.0,0.084624484,5.258403,8.280202000000001,1004.1622,1,4
74.04,0.10371752,5.5968290000000005,7.8162284,1004.17645,1,4
74.08,-0.26913506,5.2441044,9.582159,1004.2021,1,4
74.12,-0.5033734000000001,5.496733,8.379617999999999,1004.17395,1,4
74.16,-0.74717116,5.3203707,8.853055,1004.1638,1,4
74.2,-1.0961231000000002,5.5586996,7.503748,1004.17957,1,4
74.24,-1.3590401,5.5634665,7.896700999999997,1004.197,1,4
74.28,-1.3495066999999998,5.1821427,9.141847,1004.189,1,4
74.32,-1.2252598999999995,5.134478,8.943,1004.1941,1,4
74.36,-1.0818937,5.0534472,8.630526,1004.189,1,4
74.4,-0.7473334,4.943817,8.535835,1004.19464,1,4
74.44,-0.49403173,4.9295177,8.261237,1004.1816,1,4
74.48,-0.18815216,4.9676514,8.147609,1004.1566,1,4
74.52,-0.14038031,4.805589,9.07555,1004.19464,1,4
74.56,0.08902235,4.705492,8.909842999999997,1004.19714,1,4
74.6,0.48571646,4.538663,10.486397,1004.1941,1,4
74.64,0.77726007,5.3060794,9.378545,1004.1996,1,4
74.68,1.5324394,5.3775783,10.879348,1004.19714,1,4
74.72,1.11267,3.933291000000001,11.513836,1004.20166,1,4
74.76,0.8975869000000001,3.7616947,9.118229,1004.192,1,4
74.8,0.83067673,3.7998273,8.1476755,1004.1566,1,4
74.84,0.5916941,3.4900007000000004,8.374928,1004.1567,1,4
74.88,0.3622712,3.8379588,8.995136,1004.192,1,4
74.92,0.22844426,4.1001196,8.398601,1004.17413,1,4
74.96,0.32404798,4.7531376,7.5369406,1004.177,1,4
75.0,0.6299621,5.3966227,6.490638,1004.1747,1,4
75.04,0.47223663,5.2869916,7.967772999999997,1004.17914,1,4
75.08,-0.09655291,5.406155,7.536942999999999,1004.1945,1,4
75.12,0.28105968,5.8351455,8.303917,1004.1841,1,4
75.16,0.74948806,6.1402044,9.236595,1004.1892,1,4
75.2,0.74949527,6.3975987000000005,8.957267,1004.1841,1,4
75.24,-0.14432052,6.416664,8.01512,1004.17896,1,4
75.28,0.14247437,5.8303775999999985,8.796298,1004.2021,1,4
75.32,0.17116128,3.904689,12.176663,1004.23956,1,4
75.36,-0.23989469,4.681637,7.1771326,1004.1622,1,4
75.4,-0.18252943,5.1964254,7.650573700000002,1004.19714,1,4
75.44,-0.23987994,4.147783,8.090875,1004.1866,1,4
75.48,0.30024594,4.4004097,8.578519,1004.20416,1,4
75.52,0.54402363,4.9676300000000015,7.418589999999999,1004.1996,1,4
75.56,1.04591,5.2917557,7.9725160000000015,1004.17206,1,4
75.6,1.0793761999999998,5.3012886,7.915704300000002,1004.17957,1,4
75.64,0.9933489,4.7626667000000005,8.455427,1004.1812,1,4
75.68,0.49147427,4.738834400000001,7.8210169999999986,1004.1871,1,4
75.72,0.41038305,5.530079,6.3107567000000016,1004.17413,1,4
75.76,0.8692573,5.5634446,8.7016325,1004.16895,1,4
75.8,0.5777032,5.525312,10.088815,1004.2191,1,4
75.84,0.67331314,6.378525,9.468609,1004.1666,1,4
75.88,1.0748305,5.825604,9.648518,1004.1517,1,4
75.92,1.629301,5.1153865,10.325539,1004.2021,1,4
75.96,1.3377511999999998,5.406146,7.773696000000001,1004.17957,1,4
76.0,2.006937,5.8732685999999985,6.930973,1004.1666,1,4
76.04,2.1551204,5.253616,8.843674,1004.2045,1,4
76.08,0.88848716,5.0152874,6.2208147,1004.17706,1,4
76.12,0.3627227,5.463343599999999,5.5532650000000015,1004.1566,1,4
76.16,0.23846437,5.706438,6.552225599999999,1004.17706,1,4
76.2,0.24325468,5.839901,7.428091499999999,1004.17163,1,4
76.24,-0.10565449,6.040096,8.507538,1004.1917,1,4
76.28,0.343661,6.8075113,8.090911,1004.20966,1,4
76.32,0.8455544,6.540584,11.002572,1004.199,1,4
76.36,-0.3015846,6.674047,7.892069,1004.1888,1,4
76.4,0.5014364,5.9971957,9.705347,1004.18463,1,4
76.44,0.10472311,5.1678143,9.861583,1004.197,1,4
76.48,-0.36368543,5.0534167000000005,8.18087,1004.1591,1,4
76.52,-0.067319274,5.082016,7.996231,1004.1642,1,4
76.56,0.27205640000000003,5.062949,8.010435000000001,1004.17163,1,4
76.6,0.96036476,5.082015,8.147735,1004.1662,1,4
76.64,0.48239738,5.1487465,6.9593997000000005,1004.1616,1,4
76.68,0.43461072,5.215478,7.2103243,1004.1413,1,4
76.72,0.7877649,5.1058607,7.7594642999999985,1004.17914,1,4
76.76,0.5965633,5.0915613,7.8162766,1004.1617,1,4
76.8,0.86900324,5.787479,7.5369463,1004.1667,1,4
76.84,1.2561595,5.9114094,9.061423,1004.2145,1,4
76.88,1.112756,5.32989,10.131398,1004.1863,1,4
76.92,0.5917496,5.587284,9.7479105,1004.17664,1,4
76.96,0.81639093,5.706448,6.7084217000000015,1004.17163,1,4
77.0,0.9071985,4.138251,10.808416,1004.15356,1,4
77.04,0.6012826,5.177360500000002,7.839942999999999,1004.1871,1,4
77.08,1.996976,6.531063,6.9404054,1004.14215,1,4
77.12,1.4903083,4.9438,10.751601,1004.19464,1,4
77.16,0.32880770000000004,4.872301599999999,7.338094,1004.17914,1,4
77.2,0.54866934,5.916178,5.3875184,1004.1622,1,4
77.24,0.48652297,5.8494462999999985,6.911996,1004.1363,1,4
77.28,0.18060772,5.959077400000001,6.9451356,1004.1617,1,4
77.32,-0.15398794,5.9257116,9.023539,1004.192,1,4
77.36,-0.63197726,6.0258093,9.354946,1004.1966,1,4
77.4,0.5151679,6.2832040000000005,10.102982,1004.17664,1,4
77.44,0.08975592,6.068708999999999,9.468571,1004.18396,1,4
77.48,-0.6415624,6.326103,7.3949003,1004.16895,1,4
77.52,-0.26874655,5.592053400000001,9.326537,1004.15643,1,4
77.56,-0.43604857,5.163064,8.000902,1004.17914,1,4
77.6,-0.5459924,5.0772657,8.464872999999999,1004.1616,1,4
77.64,-0.5699008000000001,5.22503,6.7320805,1004.1697,1,4
77.68,0.20919944,5.21073,7.4990535,1004.1747,1,4
77.72,0.49635673,4.929494,8.692158000000001,1004.1712,1,4
77.76,0.20479502,4.8389297,7.598510000000001,1004.1747,1,4
77.8,0.3338561,4.996226,7.3901973,1004.1966,1,4
77.84,0.9695764,5.096323,7.442276,1004.1866,1,4
77.88,0.9887015,4.8341627,8.786847,1004.1841,1,4
77.92,0.66846013,5.053424400000001,7.399667,1004.1616,1,4
77.96,1.2516032,5.5872784000000015,8.810521000000003,1004.1616,1,4
78.0,0.84054625,5.401382,8.919412,1004.2121,1,4
78.04,0.60634214,5.3918495,9.866294,1004.17914,1,4
78.08,-0.005466819,5.5777445,8.838928999999998,1004.17413,1,4
78.12,1.3520038,4.7102309999999985,10.6664095,1004.2091,1,4
78.16,1.1847173,4.1811433,10.353939,1004.1941,1,4
78.2,1.4476129,4.8818264000000005,6.8031362999999985,1004.1415,1,4
78.24,1.873021,5.105855,7.4848914,1004.1591,1,4
78.28,1.4332858,4.438536599999999,8.573806,1004.1966,1,4
78.32,0.88361436,4.2621737,8.909948,1004.207,1,4
78.36,0.66374975,4.6530312999999985,7.4564867,1004.1742,1,4
78.4,1.1130571000000002,5.749339,6.7037168000000005,1004.1691,1,4
78.44,1.0461466,5.9638339999999985,7.1676892999999975,1004.1666,1,4
78.48,0.19056778,5.3060493,8.015148,1004.1513,1,4
78.52,-0.15835197,5.7398050000000005,7.745287400000001,1004.1867,1,4
78.56,0.5108269,5.9447675,9.217688,1004.17706,1,4
78.6,0.17146756,5.606342,9.766879,1004.2089,1,4
78.64,0.5251786999999999,6.173562,8.995172,1004.1816,1,4
78.68,0.21449773,5.9114010000000015,9.904179,1004.2046,1,4
78.72,-0.12960994,5.839902,8.024623,1004.1513,1,4
78.76,0.013791338,5.0057545,9.345523,1004.1613,1,4
78.8,-0.29210895,4.1811395,9.392868,1004.1613,1,4
78.84,-0.45461476,4.796025299999998,8.171391499999999,1004.1867,1,4
78.88,-0.54542387,5.0486526,8.195065,1004.1941,1,4
78.92,-0.14391226,5.306047,7.802109700000001,1004.1491,1,4
78.96,0.20502101,5.062952,8.853148,1004.17413,1,4
79.0,-0.0052827,4.600596,8.971509,1004.1841,1,4
79.04,0.26717323,4.6863933,8.673242,1004.17377,1,4
79.08,0.46793264,4.767425,8.606961,1004.1916,1,4
79.12,0.16681258,5.0438848,7.7879095,1004.16644,1,4
79.16,0.03298472,5.482408,8.27082,1004.1767,1,4
79.2,0.042552397,5.611105,8.483869,1004.1816,1,4
79.24,-0.06259566,5.501474,8.08618,1004.1566,1,4
79.28,0.042567655,5.8589654000000015,7.385488,1004.1337,1,4
79.32,-0.5692406,5.2488465,9.317126,1004.20154,1,4
79.36,-0.34458226,5.64447,7.5417247,1004.15125,1,4
79.4,0.11906637,5.9733624,7.906275,1004.17914,1,4
79.44,-0.16771425,5.620637,7.702696,1004.17377,1,4
79.48,0.10474171,5.7874665,7.8257910000000015,1004.1661,0,0
79.52,0.07129118,5.7874665,7.707432000000002,1004.17664,0,0
79.56,0.5779575,5.9542956,8.446,1004.1912,0,0
79.6,0.77393657,5.9495287,8.507547,1004.1812,0,0
79.64,0.85042113,6.011493700000001,7.4281039999999985,1004.17145,0,0
79.68,0.63533753,5.816065,7.787919,1004.1812,0,0
79.72,0.39141822,5.777936,7.432825,1004.18146,0,0
79.76,0.2002273,5.5729737,7.9536095,1004.17145,0,0
79.8,0.10463248,5.6301727,7.911000299999999,1004.1763,0,0
79.84,0.07117507,5.62064,8.360769,1004.1787,0,0
79.88,0.004259065,5.725504,8.147721,1004.1941,0,0
79.92,0.21457164,5.706437599999999,8.133517999999999,1004.16077,0,0
79.96,0.11897673,5.634939,7.669546,1004.1786,0,0
80.0,0.3531885,5.677838,8.256613,1004.18604,0,0
80.04,0.37230885,5.696904,8.280284,1004.17346,0,0
80.08,0.51092446,5.7588696,8.024627,1004.18097,0,0
80.12,0.31495368,5.5348415,8.114581,1004.1531,0,0
80.16,0.16200133,5.468108999999999,8.346567,1004.16046,0,0
80.2,0.15244295,5.496709,8.379708,1004.19104,0,0
80.24,0.3818751,5.539608,8.313426,1004.1635,0,0
80.28,0.3101793,5.482409,8.450725,1004.16296,0,0
80.32,0.46791404,5.596806,8.322894999999999,1004.1679,0,0
80.36,0.51571333,5.558674,8.488599,1004.1779,0,0
80.4,0.68778753,5.5825067000000015,8.161925,1004.17523,0,0
80.44,0.37232172,5.4490433,8.076706,1004.1754,0,0
80.48,0.50615716,5.7016706,7.48964,1004.1678,0,0
80.52,0.46792024,5.3441790000000005,8.49807,1004.1854,0,0
80.56,0.47270125,5.3441790000000005,8.483866,1004.17236,0,0
80.6,0.6638947,5.501475,8.545413,1004.1775,0,0
80.64,0.9698034,5.649238,8.142988,1004.16254,0,0
80.68,0.9554649,5.725503,8.019895,1004.1521,0,0
80.72,0.92241794,5.6635275,8.005728999999999,1004.16003,0,0
80.76,0.88419276,5.68736,8.147761000000001,1004.17725,0,0
80.8,0.60698193,5.5348305999999985,8.185639,1004.19995,0,0
80.84,0.5353059,5.4013658,8.195109,1004.17255,0,0
80.88,0.42060953,5.320334,8.294534,1004.167,0,0
80.92,0.5066636999999999,5.4108977,8.436568,1004.16724,0,0
80.96,0.40630448,5.1630363,8.375022,1004.1669,0,0
81.0,0.411102,5.458563,8.157241,1004.1768,0,0
81.04,0.36332178,5.4061303,8.147774,1004.15686,0,0
81.08,0.24384333,5.5109944,8.30401,1004.16644,0,0
81.12,0.090907305,5.4299620000000015,8.431841,1004.15393,0,0
81.16,0.033566326,5.353697,8.483922,1004.1868,0,0
81.2,0.09572151,5.3727627,8.474453,1004.17395,0,0
81.24,-0.057214446,5.2583647,8.341892,1004.15894,0,0
81.28,0.114876226,5.3965945,8.285081,1004.17395,0,0
81.32,0.11011417,5.325095,8.493397,1004.17896,0,0
81.36,0.33000183,5.4776254,7.9868164,1004.16394,0,0
81.4,0.25832134,5.5395904,8.502868,1004.1839,0,0
81.44,0.12450574,5.363226999999998,8.441322,1004.1639,0,0
81.48,0.20577903,5.2202296,8.597559,1004.1739,0,0
81.52,0.26315445,5.220229,8.412919,1004.1334,0,0
81.56,0.33008832,5.2964935,8.299294999999999,1004.1814,0,0
81.6,0.25362813,5.291727,8.318234,1004.17865,0,0
81.64,0.2871045,5.3965907,7.9962964,1004.1789,0,0
81.68,0.2010869,5.3393917,8.517082,1004.1859,0,0
81.72,0.46811074,5.5729685,8.460211,1004.1987,0,0
81.76,0.40596497,5.410906,8.829493,1004.14056,0,0
81.8,0.33425897,5.4442725,8.3749895,1004.1603,0,0
81.84,0.32469106,5.4204397,8.228223,1004.1789,0,0
81.88,0.19084822,5.2965093,8.1477375,1004.16296,0,0
81.92,0.11436249,5.1868787,8.048314,1004.18317,0,0
81.96,0.018757507,5.039116,7.9488907000000015,1004.1631,0,0
82.0,0.052207276,5.2202449999999985,8.119328,1004.1455,0,0
82.04,0.25295067,5.3918414000000014,8.573831,1004.1879,0,0
82.08,0.35809702,5.4347405,8.69219,1004.1527,0,0
82.12,0.5397206,5.539605,8.464936999999999,1004.1679,0,0
82.16,0.25292403,5.2250123,8.384452,1004.1703,0,0
82.2,0.45366699,5.372776,8.322904,1004.1902,0,0
82.24,0.34372312,5.244078599999999,8.2897625,1004.17236,0,0
82.28,0.4823286,5.2869787000000015,8.100386,1004.1574,0,0
82.32,0.39150345,5.2345467,8.427057000000001,1004.1474,0,0
82.36,0.46797138,5.377543,8.090914999999999,1004.15967,0,0
82.4,0.25765170000000004,5.22978,8.445994,1004.1553,0,0
82.44,0.43927538,5.344178,8.247148,1004.15967,0,0
82.48,0.24807431,5.215481,8.190334,1004.17236,0,0
82.52,0.391459,5.3346453,8.351303,1004.152,0,0
82.56,0.42968965,5.472875599999999,8.322896,1004.167,0,0
82.6,0.3149655,5.339412,8.261348,1004.1545,0,0
82.64,0.30061662,5.2869806,8.739522000000001,1004.1494,0,0
82.68,0.45834237,5.4585767,8.512271,1004.1594,0,0
82.72,0.32503372,5.367999,8.351348,1004.16986,0,0
82.76,0.27246857,5.248835,8.322942999999999,1004.157,0,0
82.8,0.21990342,5.306033,8.02941,1004.17944,0,0
82.84,0.33941042,5.3155660000000005,8.20932,1004.157,0,0
82.88,0.3107443,5.358464700000002,8.289806,1004.1541,0,0
82.92,0.34421563,5.468095,8.214057,1004.16156,0,0
82.96,0.3729071,5.4251957000000015,8.237729,1004.17194,0,0
83.0,0.4685151,5.401363,8.554935,1004.18445,0,0
83.04,0.39205092,5.3346305,8.370296000000002,1004.14124,0,0
83.08,0.32514632,5.339397,8.237733,1004.162,0,0
83.12,0.24868135,5.177333999999999,8.270875,1004.174,0,0
83.16,0.33473057,5.272664,8.351360000000001,1004.1516,0,0
83.2,0.29172415,5.3632282999999985,8.40344,1004.1609,0,0
83.24,0.23915981,5.3679953000000005,8.427114,1004.1564,0,0
83.28,0.25351107,5.491925,8.147785,1004.1511,0,0
83.32,0.10534985,5.3679943,8.299287,1004.14325,0,0
83.36,0.043224305,5.143966000000002,8.474461,1004.1586,0,0
83.4,-0.018900454,5.2011642,8.403446,1004.1683,0,0
83.44,0.024130464,5.258363,8.687512,1004.16364,0,0
83.48,0.2631325,5.3012614000000005,8.55495,1004.151,0,0
83.52,0.32050365,5.3775260000000005,8.337168,1004.1709,0,0
83.56,0.28705692,5.4013586,8.157262,1004.1561,0,0
83.6,0.2679512,5.2059293,8.573891999999999,1004.18115,0,0
83.64,0.20582561,5.2392949999999985,8.398719,1004.151,0,0
83.68,0.23929618,5.310793,8.398719999999999,1004.18616,0,0
83.72,0.19173022,5.2726545,8.44135,1004.18616,0,0
83.76,0.21565078,5.3727519999999975,8.3798065,1004.18115,0,0
83.8,0.15353484,5.3012533,8.266182,1004.1762,0,0
83.84,0.14877526,5.1868553,8.450826,1004.1485,0,0
83.88,0.21093293,5.2631197,8.327733,1004.1782,0,0
83.92,0.3734678,5.334617,8.270923,1004.16846,0,0
83.96,0.2731135,5.3536835,8.346675,1004.1631,0,0
84.0,0.17275913,5.2774177,8.162034,1004.15826,0,0
84.04,0.12976243,5.248818,8.488710000000001,1004.1631,0,0
84.08,0.14412339,5.348915,8.431899000000001,1004.1832,0,0
84.12,0.1728224,5.367981,8.479245,1004.1556,0,0
84.16,0.30189866,5.372747,8.375091000000001,1004.1756,0,0
84.2,0.1394069,5.2297497,8.507655,1004.1857,0,0
84.24,0.16810726,5.2726474,8.332484,1004.168,0,0
84.28,0.19203182,5.215449,8.488723,1004.1855,0,0
84.32,0.23985143,5.325079,8.337223,1004.1652,0,0
84.36,0.36892098,5.4108768,8.166786,1004.1603,0,0
84.4,0.28768986,5.36321,8.403509,1004.17053,0,0
84.44,0.20645611,5.291712,8.398776,1004.1703,0,0
84.48,0.20647763,5.3679760000000005,8.422450999999999,1004.1881,0,0
84.52,0.33077276,5.463307,8.308826,1004.1703,0,0
84.56,0.21607228,5.2202115,8.640236999999999,1004.17535,0,0
84.6,0.15873615,5.2869434,8.408253,1004.16284,0,0
84.64,0.17788099,5.1963778,8.3893175,1004.16534,0,0
84.68,0.16833751,5.2726419999999985,8.247287,1004.1651,0,0
84.72,0.19672816,5.2726492999999985,8.171510000000001,1004.15515,0,0
84.76,0.21107645,5.3870463,8.228324,1004.1877,0,0
84.8,0.12982921,5.4251785,8.498185000000001,1004.19037,0,0
84.84,0.21109425,5.510977,8.228325,1004.18036,0,0
84.88,0.17764448,5.510977,8.289873,1004.14984,0,0
84.92,0.17765279,5.3679795,8.450844,1004.16205,0,0
84.96,0.19678088,5.3632126,8.389297500000001,1004.1625,0,0
85.0,0.20634939,5.377512,8.252001,1004.1546,0,0
85.04,0.20635773,5.429944,8.053156,1004.16,0,0
85.08,0.2493843,5.377512,8.124172999999999,1004.16205,0,0
85.12,0.23027451,5.4347105,8.038955,1004.1697,0,0
85.16,0.3163193,5.4204106,8.545536,1004.18195,0,0
85.2,0.23985074,5.43471,8.327755,1004.175,0,0
85.24,0.34501535,5.5157413,8.2235985,1004.1949,0,0
85.28,0.25898772,5.391810400000002,8.152584,1004.1846,0,0
85.32,0.2542168,5.4061103,8.403507000000001,1004.1594,0,0
85.36,0.15863020000000005,5.4108763,8.185725999999999,1004.16205,0,0
85.4,0.27813363,5.40611,8.308821,1004.17957,0,0
85.44,0.19210552,5.401342400000001,8.15732,1004.1444,0,0
85.48,0.16343497,5.4061093,8.285150999999999,1004.184,0,0
85.52,0.19212268,5.34891,8.308824000000001,1004.14655,0,0
85.56,0.32596666,5.3965755,8.209402,1004.1765,0,0
85.6,0.24949811,5.415641,8.3040905,1004.15393,0,0
85.64,0.27818584,5.415641,8.394045,1004.169,0,0
85.68,0.2542951,5.449007,8.3230295,1004.16156,0,0
85.72,0.21065615,5.4490223,8.261426,1004.16205,0,0
85.76,0.35881257,5.5157547,8.304034,1004.18933,0,0
85.8,0.20106356,5.42519,8.554955999999999,1004.1815,0,0
85.84,0.25362492,5.444257,8.38925,1004.1669,0,0
85.88,0.24404885,5.4299574,8.199872000000001,1004.16156,0,0
85.92,0.2966112,5.4633236,8.256684,1004.16156,0,0
85.96,0.3109331,5.5157566,8.043633,1004.15436,0,0
86.0,0.25833982,5.4013596,8.375041,1004.17896,0,0
86.04,0.36347902,5.4585589999999975,8.403446,1004.1688,0,0
86.08,0.5928931,5.6158557,8.3561,1004.1664,0,0
86.12,0.37778753,5.472859,8.076769,1004.1815,0,0
86.16,0.46380645,5.5777235,8.147783,1004.1838,0,0
86.2,0.29171705,5.5729574999999985,8.09097,1004.18896,0,0
86.24,0.3681785,5.5681915,8.247203,1004.1788,0,0
86.28,0.1913092,5.444261,8.133576,1004.1684,0,0
86.32,0.18173315,5.6063247,8.161980999999999,1004.1663,0,0
86.36,0.06222257,5.4347286,8.304012,1004.1663,0,0
86.4,0.11956374,5.468095,8.474447999999999,1004.1534,0,0
86.44,0.20080389,5.4347296,8.190382000000001,1004.1609,0,0
86.48,0.2772653,5.501462,8.180913,1004.1559,0,0
86.52,0.34894687,5.544361,8.076755,1004.15576,0,0
86.56,0.35848904,5.5157623,8.247191,1004.1559,0,0
86.6,0.22941782,5.47763,8.275597,1004.15857,0,0
86.64,0.14814470000000002,5.4013658,8.289798,1004.1609,0,0
86.68,0.25328588,5.5395965999999985,8.2140465,1004.1809,0,0
86.72,0.2202818,5.4633203,8.289839,1004.1959,0,0
86.76,0.30154085,5.5348186,8.460277,1004.1534,0,0
86.8,0.24896573,5.539585,8.261432000000001,1004.1713,0,0
86.84,0.32066512,5.510986,8.1194,1004.15326,0,0
86.88,0.30632824,5.4394870000000015,8.242496000000001,1004.1734,0,0
86.92,0.28721142,5.496686,8.019978,1004.1557,0,0
86.96,0.16293903,5.3489223,8.304044000000001,1004.1835,0,0
87.0,0.25853765,5.3775214999999985,8.360856,1004.17816,0,0
87.04,0.26331985,5.444253400000001,8.446075,1004.17316,0,0
87.08,0.33979928,5.5395846,8.403464999999999,1004.16064,0,0
87.12,0.22986646,5.468086,8.195153,1004.1811,0,0
87.16,0.2824465,5.4394865,8.304045,1004.17065,0,0
87.2,0.3493663,5.363221599999998,8.337185,1004.153,0,0
87.24,0.44018513,5.4823856,8.010511,1004.1907,0,0
87.28,0.4545269,5.510985,8.204622,1004.1603,0,0
87.32,0.39717197,5.510985,8.304046000000001,1004.17804,0,0
87.36,0.50233006,5.5443506,8.233028,1004.15576,0,0
87.4,0.41629612,5.4776187000000025,8.446077,1004.14996,0,0
87.44,0.26334488,5.3441553,8.228295,1004.17065,0,0
87.48,0.2920261,5.391821,8.0389185,1004.17053,0,0
87.52,0.26334983,5.315556,8.42714,1004.17566,0,0
