Timestamp,Ax,Ay,Az,P,Value,Type
0.0,1.3989829,6.442857,7.7648625,991.9487,0,0
0.04,0.5528764,5.866105,7.897419,991.9664300000001,0,0
0.08,0.5528764,5.866105,7.897419,991.96136,0,0
0.12,0.7057693,5.9757370000000005,8.200416,991.951,0,0
0.16,0.3424636,5.727876999999999,7.930550599999999,991.954,0,0
0.2,0.28984517,5.7755446,7.835858999999999,991.9839,0,0
0.24,0.44753808,5.86611,8.266686,991.9889,0,0
0.28,0.47141683,5.9280753,8.295091000000001,991.96106,0,0
0.32,0.38531953,5.8470454000000025,7.8121753,991.9639,0,0
0.36,0.31358176,6.013876,7.760092999999999,991.99176,0,0
0.4,0.19884624,6.0281763,7.5991216,991.93896,0,0
0.44,0.20834495,6.271272,8.271401,991.9943,0,0
0.48,0.2048304,6.180676,8.318861,991.9842,0,0
0.52,-0.23967424,5.789818299999999,7.518747999999999,991.9513,0,0
0.56,0.16662054,6.0710444,7.996924000000001,991.94885,0,0
0.6,0.11405410000000002,6.190208999999999,7.7744083,991.9666,0,0
0.64,0.0949406,5.999546,7.9827228,991.9639,0,0
0.68,0.013689622,5.9614134000000005,7.8880353,991.9942599999999,0,0
0.72,0.07583852,6.009079,7.864364,991.9717,0,0
0.76,0.07107009,6.0710435,7.518753500000001,991.94885,0,0
0.8,0.10454585,6.0472107,7.722335,992.0069,0,0
0.84,-0.0053782165000000005,5.899447,7.9921966,991.9488,0,0
0.88,0.09022927,6.0710425,7.708133,991.97144,0,0
0.92,0.08067538,6.109175,7.514023299999999,991.9513,0,0
0.96,0.114151135,6.152074,7.8549023,991.9641,0,0
1.0,0.12371646,6.2807703,7.6229167,991.95654,0,0
1.04,-0.03877975,6.12824,7.660793300000001,991.97925,0,0
1.08,0.0042441934,6.1234730000000015,7.670263,991.9440300000001,0,0
1.12,0.31494856,6.1902050000000015,7.2157617,991.949,0,0
1.16,0.43922913,6.3665676,7.433545,991.9437,0,0
1.2,0.17157157,6.361800700000001,6.5245404,991.97406,0,0
1.24,-0.23469463,5.6944823,7.88805,991.9692,0,0
1.28,-0.13431306,5.9137435,7.954332400000001,991.9742,0,0
1.32,-0.014812231,6.1425385000000015,7.5850490000000015,991.96686,0,0
1.36,-0.2872382,5.770746,8.356758000000001,991.9466,0,0
1.4,-0.2872382,5.770746,8.356758000000001,991.9843,0,0
1.44,-0.21074425,5.7993455,8.441980000000001,991.9516,0,0
1.48,-0.15338086,5.761213,8.541404,991.9566699999999,0,0
1.52,-0.18844599,5.823217,8.314005,991.96924,0,0
1.56,0.18432672,6.2379089999999975,8.190906,991.9843,0,0
1.6,0.002642244,6.0996804000000004,8.219308,991.9717,0,0
1.64,-0.39415938,6.2045464999999975,7.7790003,991.9716,0,0
1.68,-0.4467892,5.9376206,8.034654,991.9741,0,0
1.72,-0.5902353,5.0510416,9.256125,991.9996,0,0
1.76,-0.41343457,5.332269999999999,9.114089,991.96924,0,0
1.8,-0.30833083,6.0281887,7.253462299999999,991.9641,0,0
1.84,-0.24624532,6.309417,7.442833999999999,991.9541,0,0
1.88,-0.3657924,6.309418,7.561189,991.9666,0,0
1.92,-0.41361642,6.0281915999999995,7.7884383,991.95917,0,0
1.96,-0.5475029,5.4085410000000005,8.683236,991.9618,0,0
2.0,-0.35158285,5.522939,7.887850999999999,991.98193,0,0
2.04,-0.060066782,5.6421046,8.119833,991.97675,0,0
2.08,0.0068244636,5.6754713,8.025142,991.95917,0,0
2.12,-0.012346685,5.627807,7.911511999999999,991.9744,0,0
2.16,-0.20359083,5.6087418,7.977788,991.9566699999999,0,0
2.2,-0.10326688,5.8899703,7.3528423,991.9516,0,0
2.24,-0.09853904,5.4895806,8.612188,991.9845,0,0
2.28,0.24555488,5.370418,8.422808,991.97186,0,0
2.32,0.8381985999999999,5.584914,8.247630000000001,991.977,0,0
2.36,0.36014032,5.5181847,7.3670240000000025,991.9566699999999,0,0
2.4,0.29795086,5.9328765999999975,7.3528160000000025,991.9868,0,0
2.44,-0.3091362,5.670717,7.556390299999999,991.977,0,0
2.48,-0.39041877,5.7612824,7.66528,991.9844400000001,0,0
2.52,-0.010764778000000001,5.8327303,8.588676,991.97186,0,0
2.56,-0.0011594444999999999,5.3036413,8.939026,991.9794300000001,0,0
2.6,0.089672044,5.4752374,8.768589,991.9619,0,0
2.64,0.27611488,6.0233903,8.138916,991.9619,0,0
2.68,0.4864567,6.1044207,7.6796820000000015,991.9341,0,0
2.72,0.3956557,5.937591,7.424025,991.9645,0,0
2.76,0.13759197,5.4514008,7.935345,991.9468,0,0
2.8,0.20452447,5.532432,7.764908,991.97186,0,0
2.84,0.39096737,5.5848637000000005,8.224147,991.9491,0,0
2.88,0.3193159,5.7612247000000005,7.192051400000001,991.9596,0,0
2.92,0.18074732,5.789823,8.162609,991.9747,0,0
2.96,-0.23984498,5.5276623,7.5518737000000025,991.9693599999999,0,0
3.0,-0.37364899999999995,5.665891,8.470350999999999,991.9619,0,0
3.04,-0.29237708,5.7659883,8.749682,991.9545,0,0
3.08,-0.03901702,5.727855,9.213657000000001,991.9646,0,0
3.12,0.17134003,5.365596,9.317817999999999,991.9596,0,0
3.16,0.10923307,5.584857,7.7270603000000015,991.9545,0,0
3.2,0.23352323,5.6944875999999995,7.4098570000000015,991.9545,0,0
3.24,-0.13449122,5.3083954,8.16263,991.9545,0,0
3.28,-0.40690958,5.0319347,7.580301299999999,991.95215,0,0
3.32,0.21927516,5.4752235,8.266792,991.9496,0,0
3.36,0.24318947,5.3798914,8.664484,991.9572,0,0
3.4,0.15240364,5.294093,8.181578,991.9596,0,0
3.44,0.3388465,5.4227896,8.22419,991.9469,0,0
3.48,0.34794545,5.4656997,8.067912,991.957,0,0
3.52,0.37184959999999995,5.4895325,7.6465507,991.95215,0,0
3.56,0.27148384,5.3417687,8.399322,991.98505,0,0
3.6,0.3001728,5.418033599999999,7.940086,991.9572,0,0
3.64,0.24760513,5.394201,8.583965,991.9772,0,0
3.68,0.118565604,5.427565599999999,8.015838,991.9671,0,0
3.72,0.16636874,5.4895309999999995,7.845401,991.9597,0,0
3.76,0.4914106,5.665893,8.555562,991.9775,0,0
3.8,0.52965915,5.4609312999999995,8.389859,991.9646,0,0
3.84,0.5392239000000001,5.484763,8.176811,991.95465,0,0
3.88,0.38150559999999994,5.484763,8.39933,991.9471,0,0
3.92,0.2811398,5.5419617,8.172080000000001,991.9243,0,0
3.96,0.13297604,5.499063,8.12947,991.95984,0,0
4.0,0.02304563,5.499063,8.347254,991.9648,0,0
4.04,-0.19203538,5.2702675,8.366192,991.9498,0,0
4.08,-0.07253015,5.422797,8.063189999999999,991.922,0,0
4.12,0.1234469,5.6468253,8.233630999999999,991.96246,0,0
4.16,-0.04861083,5.251200700000001,8.522428999999999,991.9599,0,0
4.2,0.099573225,5.346531400000001,8.143678999999999,991.9574,0,0
4.24,0.24297245,5.441862599999999,8.134211,991.9624,0,0
4.28,0.24298261,5.336998,8.546105,991.9295699999999,0,0
4.32,0.15696129999999994,5.422796,8.262042,991.96515,0,0
4.36,0.17130582,5.494293700000001,8.328324,991.9599,0,0
4.4,-0.015096396000000003,5.2511997,8.323591,991.9523300000001,0,0
4.44,0.21913429,5.389429,8.347264,991.94995,0,0
4.48,0.19069035,5.1892276,8.494052,991.9523300000001,0,0
4.52,0.19069035,5.1892276,8.494052,991.9523300000001,0,0
4.56,0.31498432,5.246425599999999,7.963800999999999,991.9474,0,0
4.6,0.5205444,5.4037213,8.181586,991.9652,0,0
4.64,0.50143474,5.3703556,8.290479,991.955,0,0
4.68,0.63051796,5.613449,8.058494999999999,991.9576400000001,0,0
4.72,0.62097734,5.675414,8.361499,991.935,0,0
4.76,0.5110515,5.5991483,8.134248,991.935,0,0
4.8,0.5062906,5.794576599999999,8.143719,991.96277,0,0
4.84,0.042678192000000004,5.5800815,8.839678999999997,991.9299,0,0
4.88,0.08092615,5.646813,8.806539,991.9326,0,0
4.92,-0.21540268,5.446617,8.707118,991.9808,0,0
4.96,-0.47349309999999994,5.0795918,8.224211,991.9377,0,0
5.0,-0.12453884,5.6515775,7.585068,991.94775,0,0
5.04,0.03799352,5.870839,8.072714,991.9452,0,0
5.08,0.05234247400000002,5.82794,8.11059,991.9301,0,0
5.12,0.39172757,5.7421412000000025,8.318906,991.9655,0,0
5.16,0.34872836,5.532412,7.6939660000000005,991.938,0,0
5.2,0.32963765,6.0567327,6.756557000000001,991.9149,0,0
5.24,0.19582220000000009,5.6706414,7.925956200000001,991.98096,0,0
5.28,0.200621,5.4942779999999996,8.465679,991.9506,0,0
5.32,0.4635293,6.0328984000000005,8.191087,991.9683,0,0
5.36,0.29146582,6.1186967,8.342587,991.9431,0,0
5.4,-0.023982212000000003,5.966166,8.233699,991.96826,0,0
5.44,-0.07177071,5.603907599999999,8.513029,991.9102,0,0
5.48,-0.09087089,5.4418440000000015,8.0822,991.9482,0,0
5.52,0.2238094,5.7040239999999995,8.082127999999999,991.9356,0,0
5.56,0.2190169,5.7516904,7.637092599999999,991.9229,0,0
5.6,0.21901058,5.7802896,7.750717999999999,991.9128400000001,0,0
5.64,0.2572363,5.9661856,7.8548737000000015,991.9482,0,0
5.68,0.056471884000000014,5.713558,8.22889,991.9532,0,0
5.72,-0.10127430000000001,5.746925,8.181545,991.93567,0,0
5.76,-0.10606682,5.8136563,8.167341,991.9331699999999,0,0
5.8,-0.024829157,5.8184233,7.864337400000001,991.9432400000001,0,0
5.84,-0.0917591,5.870856,7.9164147,991.951,0,0
5.88,-0.077438705,5.885155999999999,7.613411,991.93835,0,0
5.92,-0.12524313,5.818423999999999,7.8880057,991.946,0,0
5.96,-0.12524313,5.818423999999999,7.8880057,991.9585,0,0
6.0,-0.16828036,5.7612267,7.679690400000001,991.94354,0,0
6.04,1.3989829,6.442857,7.7648625,991.9487,0,0
6.08,0.5528764,5.866105,7.897419,991.9664300000001,0,0
6.12,0.5528764,5.866105,7.897419,991.96136,0,0
6.16,0.7057693,5.9757370000000005,8.200416,991.951,0,0
6.2,0.3424636,5.727876999999999,7.930550599999999,991.954,0,0
6.24,0.28984517,5.7755446,7.835858999999999,991.9839,0,0
6.28,0.44753808,5.86611,8.266686,991.9889,0,0
6.32,0.47141683,5.9280753,8.295091000000001,991.96106,0,0
6.36,0.38531953,5.8470454000000025,7.8121753,991.9639,0,0
6.4,0.31358176,6.013876,7.760092999999999,991.99176,0,0
6.44,0.19884624,6.0281763,7.5991216,991.93896,0,0
6.48,0.20834495,6.271272,8.271401,991.9943,0,0
6.52,0.2048304,6.180676,8.318861,991.9842,0,0
6.56,-0.23967424,5.789818299999999,7.518747999999999,991.9513,0,0
6.6,0.16662054,6.0710444,7.996924000000001,991.94885,0,0
6.64,0.11405410000000002,6.190208999999999,7.7744083,991.9666,0,0
6.68,0.0949406,5.999546,7.9827228,991.9639,0,0
6.72,0.013689622,5.9614134000000005,7.8880353,991.9942599999999,0,0
6.76,0.07583852,6.009079,7.864364,991.9717,0,0
6.8,0.07107009,6.0710435,7.518753500000001,991.94885,0,0
6.84,0.10454585,6.0472107,7.722335,992.0069,0,0
6.88,-0.0053782165000000005,5.899447,7.9921966,991.9488,0,0
6.92,0.09022927,6.0710425,7.708133,991.97144,0,0
6.96,0.08067538,6.109175,7.514023299999999,991.9513,0,0
7.0,0.114151135,6.152074,7.8549023,991.9641,0,0
7.04,0.12371646,6.2807703,7.6229167,991.95654,0,0
7.08,-0.03877975,6.12824,7.660793300000001,991.97925,0,0
7.12,0.0042441934,6.1234730000000015,7.670263,991.9440300000001,0,0
7.16,0.31494856,6.1902050000000015,7.2157617,991.949,0,0
7.2,0.43922913,6.3665676,7.433545,991.9437,0,0
7.24,0.17157157,6.361800700000001,6.5245404,991.97406,0,0
7.28,-0.23469463,5.6944823,7.88805,991.9692,0,0
7.32,-0.13431306,5.9137435,7.954332400000001,991.9742,0,0
7.36,-0.014812231,6.1425385000000015,7.5850490000000015,991.96686,0,0
7.4,-0.2872382,5.770746,8.356758000000001,991.9466,0,0
7.44,-0.2872382,5.770746,8.356758000000001,991.9843,0,0
7.48,-0.21074425,5.7993455,8.441980000000001,991.9516,0,0
7.52,-0.15338086,5.761213,8.541404,991.9566699999999,0,0
7.56,-0.18844599,5.823217,8.314005,991.96924,0,0
7.6,0.18432672,6.2379089999999975,8.190906,991.9843,0,0
7.64,0.002642244,6.0996804000000004,8.219308,991.9717,0,0
7.68,-0.39415938,6.2045464999999975,7.7790003,991.9716,0,0
7.72,-0.4467892,5.9376206,8.034654,991.9741,0,0
7.76,-0.5902353,5.0510416,9.256125,991.9996,0,0
7.8,-0.41343457,5.332269999999999,9.114089,991.96924,0,0
7.84,-0.30833083,6.0281887,7.253462299999999,991.9641,0,0
7.88,-0.24624532,6.309417,7.442833999999999,991.9541,0,0
7.92,-0.3657924,6.309418,7.561189,991.9666,0,0
7.96,-0.41361642,6.0281915999999995,7.7884383,991.95917,0,0
8.0,-0.5475029,5.4085410000000005,8.683236,991.9618,0,0
8.04,-0.35158285,5.522939,7.887850999999999,991.98193,0,0
8.08,-0.060066782,5.6421046,8.119833,991.97675,0,0
8.12,0.0068244636,5.6754713,8.025142,991.95917,0,0
8.16,-0.012346685,5.627807,7.911511999999999,991.9744,0,0
8.2,-0.20359083,5.6087418,7.977788,991.9566699999999,0,0
8.24,-0.10326688,5.8899703,7.3528423,991.9516,0,0
8.28,-0.09853904,5.4895806,8.612188,991.9845,0,0
8.32,0.24555488,5.370418,8.422808,991.97186,0,0
8.36,0.8381985999999999,5.584914,8.247630000000001,991.977,0,0
8.4,0.36014032,5.5181847,7.3670240000000025,991.9566699999999,0,0
8.44,0.29795086,5.9328765999999975,7.3528160000000025,991.9868,0,0
8.48,-0.3091362,5.670717,7.556390299999999,991.977,0,0
8.52,-0.39041877,5.7612824,7.66528,991.9844400000001,0,0
8.56,-0.010764778000000001,5.8327303,8.588676,991.97186,0,0
8.6,-0.0011594444999999999,5.3036413,8.939026,991.9794300000001,0,0
8.64,0.089672044,5.4752374,8.768589,991.9619,0,0
8.68,0.27611488,6.0233903,8.138916,991.9619,0,0
8.72,0.4864567,6.1044207,7.6796820000000015,991.9341,0,0
8.76,0.3956557,5.937591,7.424025,991.9645,0,0
8.8,0.13759197,5.4514008,7.935345,991.9468,0,0
8.84,0.20452447,5.532432,7.764908,991.97186,0,0
8.88,0.39096737,5.5848637000000005,8.224147,991.9491,0,0
8.92,0.3193159,5.7612247000000005,7.192051400000001,991.9596,0,0
8.96,0.18074732,5.789823,8.162609,991.9747,0,0
9.0,-0.23984498,5.5276623,7.5518737000000025,991.9693599999999,0,0
9.04,-0.37364899999999995,5.665891,8.470350999999999,991.9619,0,0
9.08,-0.29237708,5.7659883,8.749682,991.9545,0,0
9.12,-0.03901702,5.727855,9.213657000000001,991.9646,0,0
9.16,0.17134003,5.365596,9.317817999999999,991.9596,0,0
9.2,0.10923307,5.584857,7.7270603000000015,991.9545,0,0
9.24,0.23352323,5.6944875999999995,7.4098570000000015,991.9545,0,0
9.28,-0.13449122,5.3083954,8.16263,991.9545,0,0
9.32,-0.40690958,5.0319347,7.580301299999999,991.95215,0,0
9.36,0.21927516,5.4752235,8.266792,991.9496,0,0
9.4,0.24318947,5.3798914,8.664484,991.9572,0,0
9.44,0.15240364,5.294093,8.181578,991.9596,0,0
9.48,0.3388465,5.4227896,8.22419,991.9469,0,0
9.52,0.34794545,5.4656997,8.067912,991.957,0,0
9.56,0.37184959999999995,5.4895325,7.6465507,991.95215,0,0
9.6,0.27148384,5.3417687,8.399322,991.98505,0,0
9.64,0.3001728,5.418033599999999,7.940086,991.9572,0,0
9.68,0.24760513,5.394201,8.583965,991.9772,0,0
9.72,0.118565604,5.427565599999999,8.015838,991.9671,0,0
9.76,0.16636874,5.4895309999999995,7.845401,991.9597,0,0
9.8,0.4914106,5.665893,8.555562,991.9775,0,0
9.84,0.52965915,5.4609312999999995,8.389859,991.9646,0,0
9.88,0.5392239000000001,5.484763,8.176811,991.95465,0,0
9.92,0.38150559999999994,5.484763,8.39933,991.9471,0,0
9.96,0.2811398,5.5419617,8.172080000000001,991.9243,0,0
10.0,0.13297604,5.499063,8.12947,991.95984,0,0
10.04,0.02304563,5.499063,8.347254,991.9648,0,0
10.08,-0.19203538,5.2702675,8.366192,991.9498,0,0
10.12,-0.07253015,5.422797,8.063189999999999,991.922,0,0
10.16,0.1234469,5.6468253,8.233630999999999,991.96246,0,0
10.2,-0.04861083,5.251200700000001,8.522428999999999,991.9599,0,0
10.24,0.099573225,5.346531400000001,8.143678999999999,991.9574,0,0
10.28,0.24297245,5.441862599999999,8.134211,991.9624,0,0
10.32,0.24298261,5.336998,8.546105,991.9295699999999,0,0
10.36,0.15696129999999994,5.422796,8.262042,991.96515,0,0
10.4,0.17130582,5.494293700000001,8.328324,991.9599,0,0
10.44,-0.015096396000000003,5.2511997,8.323591,991.9523300000001,0,0
10.48,0.21913429,5.389429,8.347264,991.94995,0,0
10.52,0.19069035,5.1892276,8.494052,991.9523300000001,0,0
10.56,0.19069035,5.1892276,8.494052,991.9523300000001,0,0
10.6,0.31498432,5.246425599999999,7.963800999999999,991.9474,0,0
10.64,0.5205444,5.4037213,8.181586,991.9652,0,0
10.68,0.50143474,5.3703556,8.290479,991.955,0,0
10.72,0.63051796,5.613449,8.058494999999999,991.9576400000001,0,0
10.76,0.62097734,5.675414,8.361499,991.935,0,0
10.8,0.5110515,5.5991483,8.134248,991.935,0,0
10.84,0.5062906,5.794576599999999,8.143719,991.96277,0,0
10.88,0.042678192000000004,5.5800815,8.839678999999997,991.9299,0,0
10.92,0.08092615,5.646813,8.806539,991.9326,0,0
10.96,-0.21540268,5.446617,8.707118,991.9808,0,0
11.0,-0.47349309999999994,5.0795918,8.224211,991.9377,0,0
11.04,-0.12453884,5.6515775,7.585068,991.94775,0,0
11.08,0.03799352,5.870839,8.072714,991.9452,0,0
11.12,0.05234247400000002,5.82794,8.11059,991.9301,0,0
11.16,0.39172757,5.7421412000000025,8.318906,991.9655,0,0
11.2,0.34872836,5.532412,7.6939660000000005,991.938,0,0
11.24,0.32963765,6.0567327,6.756557000000001,991.9149,0,0
11.28,0.19582220000000009,5.6706414,7.925956200000001,991.98096,0,0
11.32,0.200621,5.4942779999999996,8.465679,991.9506,0,0
11.36,0.4635293,6.0328984000000005,8.191087,991.9683,0,0
11.4,0.29146582,6.1186967,8.342587,991.9431,0,0
11.44,-0.023982212000000003,5.966166,8.233699,991.96826,0,0
11.48,-0.07177071,5.603907599999999,8.513029,991.9102,0,0
11.52,-0.09087089,5.4418440000000015,8.0822,991.9482,0,0
11.56,0.2238094,5.7040239999999995,8.082127999999999,991.9356,0,0
11.6,0.2190169,5.7516904,7.637092599999999,991.9229,0,0
11.64,0.21901058,5.7802896,7.750717999999999,991.9128400000001,0,0
11.68,0.2572363,5.9661856,7.8548737000000015,991.9482,0,0
11.72,0.056471884000000014,5.713558,8.22889,991.9532,0,0
11.76,-0.10127430000000001,5.746925,8.181545,991.93567,0,0
11.8,-0.10606682,5.8136563,8.167341,991.9331699999999,0,0
11.84,-0.024829157,5.8184233,7.864337400000001,991.9432400000001,0,0
11.88,-0.0917591,5.870856,7.9164147,991.951,0,0
11.92,-0.077438705,5.885155999999999,7.613411,991.93835,0,0
11.96,-0.12524313,5.818423999999999,7.8880057,991.946,0,0
12.0,-0.12524313,5.818423999999999,7.8880057,991.9585,0,0
12.04,-0.16828036,5.7612267,7.679690400000001,991.94354,0,0
12.08,-0.08703639999999999,5.808892299999999,8.115254,991.9613,0,0
12.12,0.09936328,5.970956,8.039503,991.9535,0,0
12.16,0.018093958,5.9089904,8.14366,991.936,0,0
12.2,0.0037418157,5.837493,7.7933119999999985,991.95374,0,0
12.24,0.13755731,6.0662875,7.8927320000000005,991.9613,0,0
12.28,0.07063374,5.9804892999999995,8.162592,991.94104,0,0
12.32,-0.22573313,5.8279605000000005,7.722291499999999,991.95636,0,0
12.36,-0.21617985,5.813661,7.992151299999999,991.94354,0,0
12.4,-0.311795,5.8327279999999995,7.7175546000000015,991.96655,0,0
12.44,-0.34526628,5.9328255999999975,7.840648,991.9540400000001,0,0
12.48,-0.29269478,5.8994599999999995,7.959007700000001,991.97644,0,0
12.52,-0.20667735,5.751697,7.883255,991.94135,0,0
12.56,-0.20667735,5.751697,7.883255,991.95905,0,0
12.6,-0.0011648238,5.851795,7.973207,991.94147,0,0
12.64,0.12310372,5.980492,8.077363,991.9667,0,0
12.68,0.027482301,5.847029,7.959001,991.98926,0,0
12.72,-0.005982667,5.8851624000000005,7.925860000000001,991.9717400000001,0,0
12.76,-0.10637121,5.804131,8.030016,991.9364,0,0
12.8,-0.19720021,5.918529,8.030014,991.9392,0,0
12.84,-0.37884545,5.7278660000000015,8.072622,991.9264,0,0
12.88,-0.3406133,5.6897345,8.110497,991.9719,0,0
12.92,-0.30238757,5.7231007000000025,7.996869999999999,991.9341,0,0
12.96,-0.10643463,5.889931,7.8785086,991.93933,0,0
13.0,-0.053869485999999994,5.908997,8.148369,991.95166,0,0
13.04,-0.11123349,5.8279657,8.266728,991.9341,0,0
13.08,-0.06823424,5.9423637000000005,7.774348299999999,991.9444,0,0
13.12,-0.13993764,5.8613324,7.9637246,991.94934,0,0
13.16,-0.17341529999999994,5.880399,7.8074865,991.9469,0,0
13.2,-0.15908222,5.746936,8.32827,991.957,0,0
13.24,-0.37255433,5.7087636,8.139042,991.9722,0,0
13.28,-0.29606459999999996,5.746896,7.959136999999999,991.9367,0,0
13.32,-0.15741159999999998,5.7611947,8.124844,991.952,0,0
13.36,-0.15261889999999995,5.78026,7.7887024999999985,991.9671,0,0
13.4,0.005153239,6.0042872,7.665611699999999,991.9596,0,0
13.44,-0.04261905,5.870823400000001,8.044366,991.9471,0,0
13.48,-0.109510496,5.7993239999999995,7.765039,991.9471,0,0
13.52,-0.042580396,5.8469896,7.9970255,991.9243,0,0
13.56,-0.08555999,5.856521599999999,7.9165444,991.9597,0,0
13.6,-0.0807544,5.842221299999999,7.8502655,991.9622,0,0
13.64,-0.01860407,5.875587,7.646686999999999,991.9522,0,0
13.68,-0.10460189,5.808854,8.030177,991.92706,0,0
13.72,-0.09024958,5.8326864,7.944959,991.9471,0,0
13.76,-0.11888979,5.7897870000000005,7.9023533,991.9399,0,0
13.8,-0.14277592,5.7754864999999995,8.181683999999999,991.9474,0,0
13.84,-0.17142896,5.6753883,8.011248,991.92725,0,0
13.88,-0.1427244,5.7278199999999995,8.247971000000001,991.94745,0,0
13.92,-0.023190632000000003,5.804084,7.959175599999999,991.9348,0,0
13.96,-0.056636408,5.8136168,8.00652,991.9449,0,0
14.0,-0.03749142,5.889881,7.637239,991.955,0,0
14.04,-0.15697362,5.694452,7.84082,991.9198,0,0
14.08,-0.05655913,5.746883,7.836089,991.955,0,0
14.12,-0.11867077,5.7278160000000025,8.432625999999999,991.9526,0,0
14.16,-0.18556225,5.780247,7.845563,991.9526,0,0
14.2,-0.104279816,5.842212,8.347412,991.96014,0,0
14.24,-0.15684481,5.742114,8.418428,991.9323,0,0
14.28,-0.07604875,5.7659583,8.091713,991.9554,0,0
14.32,-0.08560518,5.7754910000000015,8.115386,991.9427,0,0
14.36,-0.12861706,5.689693,8.020698,991.95795,0,0
14.4,-0.06168711,5.656327,7.9591517000000005,991.96265,0,0
14.44,-0.06168711,5.656327,7.9591517000000005,991.9677,0,0
14.48,-0.056901,5.7421246,7.7082289999999976,991.9680000000001,0,0
14.52,-0.19072594,5.7039919999999995,8.2479515,991.9579,0,0
14.56,-0.2480804,5.7468910000000015,7.836059,991.9706,0,0
14.6,-0.11901939,5.8422220000000005,8.134327,991.9580000000001,0,0
14.64,-0.24328472,5.6753919999999995,8.229014999999999,991.9605,0,0
14.68,-0.2576178,5.6372595,8.167469,991.9429,0,0
14.72,-0.28151047,5.637258999999999,8.12486,991.9403699999999,0,0
14.76,-0.28151047,5.637258999999999,8.12486,991.953,0,0
14.8,-0.32451916,5.618193,8.001767,991.9655,0,0
14.84,-0.22891678,5.708758,7.916548,991.9580699999999,0,0
14.88,-0.19545181,5.6944574999999995,8.375786,991.9580699999999,0,0
14.92,-0.22412110000000002,5.6944574999999995,8.082253999999999,991.9506,0,0
14.96,-0.22889456,5.642025,8.134333,991.943,0,0
15.0,-0.2623468,5.746889,7.9591603000000015,991.9457,0,0
15.04,-0.26712346,5.6896900000000015,8.068052,991.98114,0,0
15.08,-0.32447475,5.642025,8.300038,991.93066,0,0
15.12,-0.25755113,5.684923599999999,7.765051,991.9658,0,0
15.16,-0.34836107,5.527627,8.318977,991.9433,0,0
15.2,-0.10936136,5.7993207,7.954428,991.96075,0,0
15.24,-0.07040219,5.770703299999999,8.19595,991.9583,0,0
15.28,-0.23764208,5.6944375,8.200688000000001,991.9432,0,0
15.32,-0.23760661,5.6849035999999975,8.006581,991.9435,0,0
15.36,-0.2614879,5.684903,8.006582,991.96375,0,0
15.4,-0.24711302,5.718268,7.945039299999999,991.956,0,0
15.44,-0.28055388,5.7182674,7.8361490000000025,991.91583,0,0
15.48,-0.31873906,5.742099,7.973452,991.9309,0,0
15.52,-0.3139416,5.7134995,7.935578299999999,991.96106,0,0
15.56,-0.35692433,5.6705995000000025,8.087082,991.9511,0,0
15.6,-0.36643076,5.7087307,8.120228,991.9462,0,0
15.64,-0.34729376,5.7325625,7.8503685,991.9311,0,0
15.68,-0.25644198,5.8040605,8.257530000000001,991.94855,0,0
15.72,-0.4189021,5.770693,7.6752033,991.95374,0,0
15.76,-0.39496762,5.6753607000000015,8.181788000000001,991.9513,0,0
15.8,-0.3566937,5.794524,7.978212400000001,991.9739,0,0
15.84,-0.38055724,5.765924,8.039763,991.9714,0,0
15.88,-0.24668723,5.9518185,8.025563,991.9259599999999,0,0
15.92,-0.3422656,5.827888,8.233879,991.95636,0,0
15.96,-0.47130257,5.71349,8.068175,991.9638699999999,0,0
16.0,-0.33743256,5.885085,7.964022,991.95886,0,0
16.04,-0.36127838,5.7420874,7.940355,991.9386599999999,0,0
16.08,-0.389904,5.7134867,7.7746559999999985,991.96136,0,0
16.12,-0.37076706,5.68012,8.115534,991.9264,0,0
16.16,-0.27513546,5.7849835999999994,7.926162,991.92896,0,0
16.2,-0.2512187,5.8421817,7.7178493,991.94635,0,0
16.24,-0.32286254,5.6610518,8.072934,991.9518,0,0
16.28,-0.21816356,5.8660245,7.665734,991.954,0,0
16.32,-0.30416703,5.7182603,8.04449,991.9518,0,0
16.36,-0.30416703,5.7182603,8.04449,991.94653,0,0
16.4,-0.19897835,5.746859,8.063429,991.9415,0,0
16.44,-0.18940224,5.8088235999999975,7.8929925,991.9595,0,0
16.48,-0.2610828,5.684893,7.9782142999999985,991.95435,0,0
16.52,-0.2658461,5.689659,7.907199,991.93427,0,0
16.56,-0.30407628,5.627693,8.139186,991.952,0,0
16.6,-0.28493226,5.74209,7.949811500000001,991.9418300000001,0,0
16.64,-0.20844719,5.8088217,8.101314,991.9292,0,0
16.68,-0.25623697,5.713491,8.319097,991.9418,0,0
16.72,-0.12715751,5.7945212999999995,7.9829564,991.96185,0,0
16.76,-0.24185625,5.641991,8.072911999999999,991.9418,0,0
16.8,-0.2035931,5.6324577000000025,8.200743,991.9342,0,0
16.84,-0.2035931,5.6324577000000025,8.200743,991.9468400000001,0,0
16.88,-0.16532993,5.823119,7.755711,991.94714,0,0
16.92,-0.16532993,5.823119,7.755711,991.95984,0,0
16.96,-0.2752489,5.589557599999999,8.52742,991.9721,0,0
17.0,-0.27521586,5.7134870000000015,8.091858,991.9522,0,0
17.04,-0.41381369999999995,5.6038559999999995,7.864608299999999,991.9396,0,0
17.08,-0.4185853,5.5657234,8.125001,991.96246,0,0
17.12,-0.34209186,5.632455,8.205488,991.9473,0,0
17.16,-0.28470948,5.6610537,8.120272,991.9574,0,0
17.2,-0.21778396,5.699185400000001,8.191286999999999,991.9524,0,0
17.24,-0.20342809,5.684886,8.077662,991.9548300000001,0,0
17.28,-0.14579637,5.7468443,8.233924,991.96246,0,0
17.32,-0.25569192,5.684878,8.039817,991.9599599999999,0,0
17.36,-0.30346334,5.6324453000000005,7.9546,991.96246,0,0
17.4,-0.34645492,5.6515102,8.091901,991.9448,0,0
17.44,-0.17435534,5.7992735,8.186591,991.98004,0,0
17.48,-0.21258043,5.727774,8.300218,991.9446,0,0
17.52,-0.25079224,5.6801080000000015,8.087172,991.93475,0,0
17.56,-0.27467793,5.6896415000000005,7.7273583,991.93976,0,0
17.6,-0.31288975,5.699174,7.9877534,991.9501,0,0
17.64,-0.34632173,5.613375,7.9120050000000015,991.96265,0,0
17.68,-0.16466255,5.889835,7.8836007,991.9350599999999,0,0
17.72,-0.18375511,5.751604,8.153464,991.9372599999999,0,0
17.76,-0.12157773,5.8374014,7.803122,991.9351,0,0
17.8,-0.19802797,5.8278669999999995,8.001969,991.9529,0,0
17.84,-0.13109739,5.842166400000001,7.921486,991.96277,0,0
17.88,-0.26487863,5.7420672999999995,7.9783034,991.9451,0,0
17.92,-0.26487863,5.7420672999999995,7.9783034,991.9175,0,0
17.96,-0.34609532,5.5418709999999995,8.1487465,991.9579,0,0
18.0,-0.40821946,5.5323377,8.072997,991.98315,0,0
18.04,-0.20263463,5.8230963,8.106142,991.9755,0,0
18.08,-0.20263463,5.8230963,8.106142,991.92755,0,0
18.12,-0.08308627,5.7992625,7.978318700000001,991.9532,0,0
18.16,-0.08308627,5.7992625,7.978318700000001,991.9554,0,0
18.2,-0.09261921,5.808795,7.978320599999999,991.9580699999999,0,0
18.24,-0.20730792,5.6991634000000015,8.030401,991.9607,0,0
18.28,-0.2359601,5.7182283,8.115623,991.9707599999999,0,0
18.32,-0.37454778,5.63243,8.1440325,991.9506,0,0
18.36,-0.26457232,5.7706589999999975,8.082489,992.0061599999999,0,0
18.4,-0.2932245,5.6991606,8.148773,991.9580699999999,0,0
18.44,-0.22283579999999997,5.8231230000000025,7.911933,991.95825,0,0
18.48,-0.36146826,5.694426,8.181792,991.95074,0,0
18.52,-0.37581673,5.7277923,7.826711,991.9580699999999,0,0
18.56,-0.35672474,5.7420926,8.025554,991.9405,0,0
18.6,-0.34239435,5.770692299999999,7.798300999999999,991.9709,0,0
18.64,-0.22769722,5.846957700000001,8.257537,991.9506,0,0
18.68,-0.44280648,5.575264499999999,7.8835172999999985,991.9909,0,0
18.72,-0.17993547,5.9089236,7.722545599999999,991.9632,0,0
18.76,-0.41895282,5.6944294,8.035013000000001,991.9861,0,0
18.8,-0.33771428,5.808827,8.158108,991.9938,0,0
18.84,-0.33771428,5.808827,8.158108,991.97845,0,0
18.88,-0.3042829,5.8231273,8.001868,992.0011599999999,0,0
18.92,-0.38076875,5.7754626,7.9734615999999985,991.98615,0,0
18.96,-0.34733737,5.7659297,7.807755499999999,991.95605,0,0
19.0,-0.3473555,5.6991982000000005,7.765143400000001,991.9530599999999,0,0
19.04,-0.34737363,5.5943346,8.087081,991.99615,0,0
19.08,-0.44297879999999995,5.527603,8.385348,991.98096,0,0
19.12,-0.38085946,5.6420010000000005,8.139157,991.9889,0,0
19.16,-0.23272182,5.8803296,7.949778599999999,991.9635599999999,0,0
19.2,-0.24707028,5.7897654,8.172295,991.9635599999999,0,0
19.24,-0.35223505,5.718267,8.191231,992.0091,0,0
19.28,-0.54345447,5.4990063,8.352199,992.0091,0,0
19.32,-0.5386928000000001,5.5895715,7.930835000000001,991.99396,0,0
19.36,-0.50525224,5.6992025,7.968708,991.9714,0,0
19.4,-0.29018828,5.794534,8.290646,991.9939,0,0
19.44,-0.31686503,5.7134540000000005,8.276626,992.0015,0,0
19.48,-0.31683459999999997,5.70392,8.144065,991.99646,0,0
19.52,-0.46491724,5.599053,7.874212299999999,991.9838,0,0
19.56,-0.46491724,5.599053,7.874212299999999,991.9889999999999,0,0
19.6,-0.32621157,5.537086,8.252972,991.9915,0,0
19.64,-0.2162152,5.7611127,8.2009,991.9764,0,0
19.68,-0.23527357,5.737278,8.077810000000001,992.0193,0,0
19.72,-0.28304112,5.6753125,8.153564,991.9991,0,0
19.76,-0.32596803,5.784941000000001,7.9499936,991.9942599999999,0,0
19.8,-0.3689254,5.7372737,7.978405499999999,991.9996,0,0
19.84,-0.5027294,5.6467085,8.087299,991.99457,0,0
19.88,-0.5217573,5.5323085999999995,8.191464,991.9892,0,0
19.92,-0.47870868,5.537075,8.234077000000001,992.0144,0,0
19.96,-0.26352617,5.761101,7.8411300000000015,992.0119,0,0
20.0,-0.27783513,5.7658667999999995,7.793789,991.9995,0,0
20.04,-0.3781501,5.6895995,8.077858,992.0171,0,0
20.08,-0.2633435,5.684831,8.163086,992.01715,0,0
20.12,-0.277622,5.660996400000001,8.281452,992.0275,0,0
20.16,-0.18674485,5.703894,8.040003,991.98456,0,0
20.2,-0.10545778,5.73726,8.044741,992.0021,0,0
20.24,-0.091057464,5.7944565,7.8222284,991.99725,0,0
20.28,-0.22002086,5.613325,8.172583,991.9693599999999,0,0
20.32,-0.22002086,5.613325,8.172583,992.0094,0,0
20.36,-0.26769713,5.7181864000000004,8.305158,991.9870599999999,0,0
20.4,-0.28678590000000004,5.660987,8.172597,992.0073,0,0
20.44,-0.13060638,5.6181264,8.054094000000001,991.9820599999999,0,0
20.48,-0.03501217,5.6848583,8.153516999999999,992.0149,0,0
20.52,0.04145895,5.8278550000000005,7.817373299999999,991.992,0,0
20.56,-0.063700534,5.7658895999999995,8.091969,991.9872,0,0
20.6,-0.30269647,5.537095,8.125109,991.9997599999999,0,0
20.64,-0.30269647,5.537095,8.125109,991.977,0,0
20.68,-0.20710605,5.6562589999999995,8.200858,991.9772,0,0
20.72,-0.23100701,5.6181273,8.409172,992.0098,0,0
20.76,-0.22145116,5.689625299999999,7.6706047,992.00006,0,0
20.8,-0.18321466,5.703925,7.897856,992.0024400000001,0,0
20.84,-0.14498386,5.6467266,8.167716,992.0101,0,0
20.88,-0.16410494,5.651493,8.196122,992.0098,0,0
20.92,-0.11631262,5.7563577000000015,7.9309949999999985,991.9798,0,0
20.96,-0.11631262,5.7563577000000015,7.9309949999999985,992.0227699999999,0,0
21.0,-0.19279520000000008,5.6419606,8.413905,991.98474,0,0
21.04,-0.27405563,5.651493,7.9783387,992.0024,0,0
21.08,-0.24060082,5.6133614000000005,8.23873,992.0303,0,0
21.12,-0.23582484,5.722992400000001,8.073025999999999,992.00995,0,0
21.16,-0.19281231,5.7515917000000005,7.8031645,991.98236,0,0
21.2,-0.19281231,5.7515917000000005,7.8031645,992.0152,0,0
21.24,-0.34577173,5.637194,7.992539999999999,991.98755,0,0
21.28,-0.3170967,5.5418629999999975,8.342885,992.0002,0,0
21.32,-0.1450295,5.7897243,7.9972734,992.0177,0,0
21.36,-0.08289586,5.722993,8.082493,991.98755,0,0
21.4,-0.08767754,5.7563585999999995,7.949928999999999,992.0129,0,0
21.44,-0.12537484,5.7468123,8.0967455,992.00775,0,0
21.48,-0.24486104,5.7039127,8.073074,992.028,0,0
21.52,-0.28785267,5.837376,8.073076,992.02045,0,0
21.56,-0.4599167,5.5847483,7.9783893,991.9953,0,0
21.6,-0.4503482,5.5323157,7.9831243,992.0052,0,0
21.64,-0.23045948,5.708678,8.451832000000001,991.97504,0,0
21.68,-0.07747914,5.966071,8.025738,992.0003,0,0
21.72,-0.10136926,5.880273000000001,8.035208,991.9901,0,0
21.76,-0.2065072,5.7754087,7.703800999999999,992.0106,0,0
21.8,-0.32597563,5.661010299999999,7.883710400000001,992.0057,0,0
21.84,-0.2590495,5.7944736,7.708538499999999,992.0002,0,0
21.88,-0.25425196,5.732508,8.144105999999999,991.9930400000001,0,0
21.92,-0.17774847,5.8373723,7.9594655,992.0256,0,0
21.96,-0.25898737,5.732507,8.305079,992.0208,0,0
22.0,-0.12513506,5.8326044,7.770093400000001,992.02576,0,0
22.04,-0.11555773,5.8278375,7.8979240000000015,991.99036,0,0
22.08,-0.09642961,5.8278370000000015,8.058894,991.99054,0,0
22.12,-0.23501733,5.727739,8.167788,992.0308,0,0
22.16,-0.3019168,5.67054,8.058898,991.9853,0,0
22.2,-0.24454139999999996,5.7992363,7.8363833,992.0360000000001,0,0
22.24,-0.28754187,5.7134376,8.063636,992.0031,0,0
22.28,-0.28754187,5.7134376,8.063636,992.0106,0,0
22.32,-0.23971719,5.727737,8.144124,992.003,0,0
22.36,-0.21579152,5.7706347000000004,8.07311,992.0359,0,0
22.4,-0.21579152,5.7706347000000004,8.07311,992.0358,0,0
22.44,-0.18208647,5.72773,8.011585,992.0234,0,0
22.48,-0.24897707,5.7467957,8.073134,992.02576,0,0
22.52,-0.24895042,5.7372622,7.8742924,991.9981,0,0
22.56,-0.34451985,5.608564,8.158358999999999,992.0360000000001,0,0
22.6,-0.31103462,5.670529,8.063673,991.9981,0,0
22.64,-0.22497149,5.880257,7.9405813,992.02576,0,0
22.68,-0.33966017,5.641928,8.224647500000001,992.01575,0,0
22.72,-0.25358373,5.780157,8.106292,992.0360000000001,0,0
22.76,-0.23445120000000005,5.722958,8.0447445,992.0007,0,0
22.8,-0.24876396,5.632393,8.058950999999999,992.01074,0,0
22.84,-0.33955359999999996,5.689591,7.8790460000000015,992.0487,0,0
22.88,-0.44944912,5.603791999999999,8.229396000000001,992.02856,0,0
22.92,-0.41119742,5.7038894,8.058958,991.9859,0,0
22.96,-0.30602843,5.823053,7.9074583,992.0310000000001,0,0
23.0,-0.23908449999999998,5.737254599999999,8.324089,991.9934699999999,0,0
23.04,-0.33943373,5.689588,7.9406047000000015,992.01105,0,0
23.08,-0.41110414,5.5704236,7.826981,992.0237400000001,0,0
23.12,-0.21988539999999998,5.7277192999999995,8.153657,991.9934699999999,0,0
23.16,-0.29155582,5.7324853,7.9974240000000005,992.0260599999999,0,0
23.2,-0.3871119,5.808749,7.7038949999999975,992.0136,0,0
23.24,-0.44923604,5.8230486,7.9548197,992.01624,0,0
23.28,-0.59260356,5.4274235,8.683921,992.0311,0,0
23.32,-0.40138470000000004,5.4989214,7.826996,992.0339,0,0
23.36,0.004938513,5.641916999999999,7.9879690000000005,992.0314300000001,0,0
23.4,0.009731635,5.660983,7.973767,992.0289,0,0
23.44,-0.018889263,5.751546,8.201024,992.0236,0,0
23.48,-0.10010409,5.751545,8.347795,992.0238,0,0
23.52,-0.30082795,5.708646,8.3714695,992.0186,0,0
23.56,-0.31991923,5.808742,8.144219999999999,992.0188,0,0
23.6,-0.40592784,5.7467766,8.054269,992.0415,0,0
23.64,-0.22426738,5.894539,8.063741,992.0464,0,0
23.68,-0.26249185,5.765842,8.059008,992.02625,0,0
23.72,-0.2768033,5.7372417,7.9690557,992.0188,0,0
23.76,-0.3150139,5.8039727,7.827026400000001,992.02875,0,0
23.8,-0.2958668,5.703874,7.746544,992.02625,0,0
23.84,-0.20980236,5.7038736,8.205784,992.00104,0,0
23.88,-0.24324705,5.69434,8.201051,992.0088,0,0
23.92,-0.13806349,5.823036699999999,7.7086754,992.01624,0,0
23.96,-0.09023751,5.9755654,7.997476,992.02655,0,0
24.0,-0.14275958,5.756302400000001,7.72762,992.0316,0,0
24.04,-0.02325052,5.832567,7.803372,992.01904,0,0
24.08,-0.07100669,5.775368,7.6566095,992.0264,0,0
24.12,-0.07100669,5.775368,7.6566095,992.02655,0,0
24.16,-0.061391264,5.846864,7.9122725,992.03174,0,0
24.2,-0.09960182,5.7848988,8.442528999999999,992.0266,0,0
24.24,-0.10914746,5.7610655,8.380982000000001,992.0341,0,0
24.28,-0.10914746,5.7610655,8.380982000000001,992.0292,0,0
24.32,0.05340774400000002,5.9183607,8.295767,992.0442,0,0
24.36,-0.10906376,5.7181644,7.8649397,992.0268,0,0
24.4,-0.16161367,5.6752650000000004,8.139538,992.0368699999999,0,0
24.44,-0.2380766,5.560867,8.044851,992.0268,0,0
24.48,-0.07090777,5.7038665,8.276826,992.0419,0,0
24.52,-0.15214293,5.6752667,7.9974979999999976,992.0141,0,0
24.56,-0.10432337,5.7038655,7.9880314,992.0216,0,0
24.6,-0.17121908,5.6419,8.068518,992.0218,0,0
24.64,-0.28113306,5.5894675000000005,7.860206,992.0191699999999,0,0
24.68,-0.20463468,5.7133975,7.9122863,992.0394,0,0
24.72,-0.20462392,5.7610626,7.850739999999999,992.0093,0,0
24.76,-0.28585905,5.6180654,8.205822999999999,991.98645,0,0
24.8,-0.20458087,5.789661,7.9075565,992.0292400000001,0,0
24.84,-0.1615411,5.8087263,8.347858,992.0292400000001,0,0
24.88,-0.18542938,5.7610607000000025,8.149014,992.0244,0,0
24.92,-0.31444097,5.7515264,8.006986,992.0195,0,0
24.96,-0.34787816,5.6990940000000005,8.049598,992.0043300000001,0,0
25.0,-0.31440872,5.6275954000000015,8.442554,992.0169,0,0
25.04,-0.30481687,5.7705913,7.784475299999999,992.0246,0,0
25.08,-0.28568685,5.7467585,8.201103,991.9739400000001,0,0
25.12,-0.21875885,5.6895595000000005,8.556185000000001,991.9892,0,0
25.16,-0.13746987,5.8039559999999994,7.543025,992.0092,0,0
25.2,-0.07054188,5.8420877,7.675589599999999,992.0118,0,0
25.24,-0.15655681,5.703857,8.002265,992.0094,0,0
25.28,-0.26168022,5.7086234000000005,8.087487,992.0269,0,0
25.32,-0.23775965,5.770588,7.983332000000001,992.0144,0,0
25.36,-0.27118596,5.6943226,8.18218,992.01935,0,0
25.4,-0.18034819,5.799186,8.016478999999999,991.99695,0,0
25.44,-0.18034819,5.799186,8.016478999999999,992.00684,0,0
25.48,-0.10998182,5.7324862,7.869590299999999,991.99945,0,0
25.52,-0.13869116,5.823052,8.167855,992.007,0,0
25.56,-0.11480737,5.7992196,8.158384,991.98926,0,0
25.6,-0.20563889,5.6800559999999995,8.030553999999999,992.0246,0,0
25.64,-0.26780683,5.632391,8.125239,992.0119,0,0
25.68,-0.16744621,5.746789,8.1536455,991.98926,0,0
25.72,-0.172287,5.808755400000001,8.030544,992.0247,0,0
25.76,-0.21054065,5.808756,8.011605,992.0246599999999,0,0
25.8,-0.3778643,5.6991260000000015,7.9689937,991.9971,0,0
25.84,-0.31097758,5.5418305,8.442430499999999,991.9943,0,0
25.88,-0.16761395,5.761093,7.879034,991.98694,0,0
25.92,-0.033825174,5.808758999999999,7.893233,992.0095,0,0
25.96,-0.10553746,5.680063,8.082607000000001,992.00464,0,0
26.0,-0.0769044,5.842127,7.959509,992.0021,0,0
26.04,-0.13905707,5.808761,8.0778675,992.00464,0,0
26.08,-0.20602009,5.718198,8.063661,992.007,0,0
26.12,-0.22993436,5.7277309999999995,8.006845,991.9996,0,0
26.16,-0.29688212,5.6419344,7.9594994,992.01215,0,0
26.2,-0.20131652,5.665767,7.9831686,992.00964,0,0
26.24,-0.20612684,5.6991343,8.319309,991.99445,0,0
26.28,-0.1726987,5.794466000000001,8.011569,991.9995,0,0
26.32,-0.12969571,5.8802642999999994,8.021036,992.0273,0,0
26.36,-0.25401634,5.7658687,7.9784229999999985,991.9893,0,0
26.4,-0.27794588,5.6753044,7.8837314,992.0322,0,0
26.44,-0.29230055,5.6038065,8.058904,992.01984,0,0
26.48,-0.19530624,5.761069,8.130048,991.9921,0,0
26.52,-0.11880401,5.8039675000000015,7.921736,992.01215,0,0
26.56,-0.1474701,5.7277017,8.134786,992.0048,0,0
26.6,-0.09963405,5.856398,8.035366,992.02,0,0
26.64,-0.18086532,5.6705017,8.130056,991.9948,0,0
26.68,-0.23343049999999999,5.613302,8.253152,992.0151,0,0
26.72,-0.26205862,5.713399,8.077983999999999,992.0024,0,0
26.76,-0.22858727,5.6895657,8.144267,992.0201400000001,0,0
26.8,-0.19510329,5.76583,8.125332,991.9897,0,0
26.84,-0.18550561,5.7562957,7.883880599999999,991.99475,0,0
26.88,-0.18071313,5.7324624,8.068524,991.9745,0,0
26.92,-0.18546759,5.765828,8.016448,991.99475,0,0
26.96,-0.12329207,5.856392,7.8128720000000005,992.0048,0,0
27.0,-0.16151781,5.7991934,7.8838887,992.02,0,0
27.04,-0.24274914,5.799192400000001,8.044861000000001,991.9847,0,0
27.08,-0.27619508,5.7610598,8.059064999999999,992.02515,0,0
27.12,-0.24271105,5.7705917,7.8223476,992.02515,0,0
27.16,-0.26658475,5.818257,8.115882000000001,992.02515,0,0
27.2,-0.22832093,5.7801237,7.6187725,992.0049,0,0
27.24,-0.29042035,5.784889700000001,8.153764,992.0050699999999,0,0
27.28,-0.23303735,5.9135860000000005,7.637716,992.0051,0,0
27.32,-0.22824484,5.899286,8.068548,992.0075699999999,0,0
27.36,-0.26645792,5.7848883,7.8697050000000015,992.0126300000001,0,0
27.4,-0.20428239999999998,5.7896532999999994,8.238992999999999,991.9848,0,0
27.44,-0.16096891,5.875444,7.883939,991.9722,0,0
27.48,-0.26128963,5.8897433,7.9454913000000005,992.0101,0,0
27.52,-0.25649142,5.8420762999999996,7.9786344,992.0227,0,0
27.56,-0.28513345,5.7944097999999995,8.03545,991.9775,0,0
27.6,-0.35681212,5.7944097999999995,7.997576,992.0102,0,0
27.64,-0.30417907,5.7944083,7.8981595,991.98236,0,0
27.68,-0.28982129999999995,5.813473999999999,7.822410599999999,991.9976,0,0
27.72,-0.17027101,5.80394,7.9455094,991.98505,0,0
27.76,-0.16069299,5.8754373,8.149092,992.0229,0,0
27.8,-0.10328019999999999,5.918335400000001,7.8934380000000015,991.9976,0,0
27.84,-0.2753163,5.856369,8.026005,992.0079,0,0
27.88,-0.27527952,5.8182354000000025,7.7750845,992.0028699999999,0,0
27.92,-0.36129759999999994,5.7038374,7.926587599999999,991.99506,0,0
27.96,-0.3373618,5.680004,8.120702,992.0026,0,0
28.0,-0.14133468,5.7896338,7.912392599999999,992.00006,0,0
28.04,-0.11741723,5.8182325,7.955004,991.98755,0,0
28.08,-0.21295816,5.780099,7.798774000000001,992.0053,0,0
28.12,-0.12688491,5.808697,8.092311,991.96765,0,0
28.16,-0.19374695,5.794396,8.026033,991.9926,0,0
28.2,-0.17460935,5.803929,8.011830999999999,992.01025,0,0
28.24,-0.17457257,5.8515935,8.191742,991.98755,0,0
28.28,-0.2844897,5.775328,8.02604,991.98755,0,0
28.32,-0.32267290000000004,5.7371940000000015,7.9550285,991.9952,0,0
28.36,-0.22226027,5.751493,7.926626,991.9903,0,0
28.4,-0.27122223,5.775355,8.025942,991.9826,0,0
28.44,-0.27122223,5.775355,8.025942,991.98755,0,0
28.48,-0.19475809,5.827787,7.784486999999999,991.9904,0,0
28.52,-0.19477075,5.675257,8.314738,991.9752,0,0
28.56,-0.15654498,5.8897533,7.912313,992.01807,0,0
28.6,-0.33341676,5.7515235,7.931248700000001,992.013,0,0
28.64,-0.38600728,5.699091,8.324203500000001,991.998,0,0
28.68,-0.40991902,5.7229247,7.8176208,991.98535,0,0
28.72,-0.32866865,5.77059,7.9312460000000025,991.99554,0,0
28.76,-0.33346748,5.7372246,7.670851700000001,991.98785,0,0
28.8,-0.30479503,5.7372246,7.8602276,991.98785,0,0
28.84,-0.24267659,5.7515254,8.096947,992.0283,0,0
28.88,-0.28570753,5.775358,8.300524000000001,992.01825,0,0
28.92,-0.26660100000000003,5.8373237,7.883895,991.98553,0,0
28.96,-0.28094673,5.7848916,7.8460197,991.9880400000001,0,0
29.0,-0.3096446,5.756292299999999,7.9217679999999975,992.0007,0,0
29.04,-0.35266915,5.6990943,7.7797356,991.9931,0,0
29.08,-0.4243726,5.6371293,7.921767,991.9981,0,0
29.12,-0.33357529999999996,5.6609625999999995,8.134813000000001,991.9930400000001,0,0
29.16,-0.27623034,5.780126,7.8696856,991.99817,0,0
29.2,-0.20931941,5.9040574999999995,7.940701,991.99817,0,0
29.24,-0.28580898,5.737228400000001,8.082732,992.0133,0,0
29.28,-0.29060146,5.6800294000000005,8.063792999999999,991.9880400000001,0,0
29.32,-0.29061420000000004,5.7705946,8.054324000000001,991.9981,0,0
29.36,-0.31930566,5.7276955,7.9406967,991.9930400000001,0,0
29.4,-0.31932464,5.6847980000000025,8.021179,992.0082,0,0
29.44,-0.23276098,5.7515163000000005,8.035430999999999,991.97815,0,0
29.48,-0.25187573,5.7133837,8.134853999999999,991.9932,0,0
29.52,-0.2327432,5.761049,7.959682499999999,991.95776,0,0
29.56,-0.28053677,5.70385,8.163262,991.9906,0,0
29.6,-0.32355058,5.7229166,7.978621,992.0059,0,0
29.64,-0.28051904,5.699083,8.371578,992.0059,0,0
29.68,-0.30918458,5.746748999999999,7.9502169999999985,992.0033599999999,0,0
29.72,-0.29483625,5.680016,7.921811,991.9932,0,0
29.76,-0.21357068,5.727681,8.025969,991.9984,0,0
29.8,-0.27569926,5.713382,8.120658,991.9831,0,0
29.84,-0.30915349999999997,5.6895489999999995,7.6756244,992.0134,0,0
29.88,-0.18008545,5.7181478,8.262692,991.9984,0,0
29.92,-0.14184257,5.8087125,7.8839393,992.01605,0,0
29.96,-0.15616865,5.713381,8.224817,992.0058,0,0
30.0,-0.20396225,5.7038474,8.087521,991.99335,0,0
30.04,-0.11791246400000001,5.7467464999999995,8.002303,992.0110000000001,0,0
30.08,-0.18482529,5.6037498,8.115929,991.97815,0,0
30.12,-0.19915582,5.632349,7.9549600000000025,992.0060000000001,0,0
30.16,-0.031853788,5.9088087,7.7750535,991.98065,0,0
30.2,-0.20869320000000002,5.570382599999999,8.319511,991.97833,0,0
30.24,-0.19434938,5.627581,7.9218210000000004,991.9882,0,0
30.28,-0.03182272,5.737212,8.224824,991.9706,0,0
30.32,-0.03182272,5.737212,8.224824,992.0112,0,0
30.36,-0.15607984,5.7324443,7.926558999999999,991.9808300000001,0,0
30.4,-0.16563505,5.675246,8.002310000000001,992.0060000000001,0,0
30.44,-0.18965173,5.6561832,8.0401745,992.0061599999999,0,0
30.48,-0.11317107,5.7181478,8.0401745,992.00354,0,0
30.52,-0.12272875,5.7276807000000005,7.9360175,991.9681,0,0
30.56,-0.20397976,5.6132836,8.319505,991.98584,0,0
30.6,-0.12271927,5.856378,7.9928308,991.97833,0,0
30.64,-0.17051351,5.7562795,8.234286,992.0137300000001,0,0
30.68,-0.28522497,5.6371160000000025,8.049644,991.9658,0,0
30.72,-0.15138665,5.8039455,7.973895,991.9985,0,0
30.76,-0.22308183,5.7086143,8.153803,991.99365,0,0
30.8,-0.2852155,5.5656176,8.101725,991.99866,0,0
30.84,-0.13703777,5.8039455,7.9028797000000015,991.9886,0,0
30.88,-0.18483007,5.6943145,8.1396,991.9963,0,0
30.92,-0.18482815,5.761046,7.973896000000001,991.9985,0,0
30.96,-0.28998005,5.7229137,8.291102,991.9887,0,0
31.0,-0.29475415,5.7801123,7.831865,991.9761,0,0
31.04,-0.29475415,5.7801123,7.831865,992.0013,0,0
31.08,-0.34732628,5.6371150000000005,8.163274000000001,991.9786,0,0
31.12,-0.15612651,5.8039445999999995,7.737178299999999,991.9685,0,0
31.16,-0.18958324,5.7896447,7.8176630000000005,991.9663,0,0
31.2,-0.18958324,5.7896447,7.8176630000000005,991.9963,0,0
31.24,-0.19913906,5.675247,8.158541,991.9912,0,0
31.28,-0.23736987,5.813477,7.9833684000000025,991.9887,0,0
31.32,-0.37598035,5.575149,8.310042999999999,991.9886,0,0
31.36,-0.33774003,5.6228147,8.125401,991.966,0,0
31.4,-0.24214014,5.708613,8.040183,991.9764,0,0
31.44,-0.093143374,5.8801885,7.6899114,991.98114,0,0
31.48,-0.33687657,5.6704593,8.120747,992.0087,0,0
31.52,-0.20300528,5.7800894,8.258047,992.0013,0,0
31.56,-0.23642711,5.7657886,8.045002,991.99365,0,0
31.6,-0.26986733,5.6942900000000005,8.120754,991.9911,0,0
31.64,-0.24589476,5.761019999999999,8.101824,991.98114,0,0
31.68,-0.22675715,5.732419999999999,8.191778999999999,992.0038,0,0
31.72,-0.27931659999999997,5.7419524000000015,7.950326,991.9811,0,0
31.76,-0.19802319,5.751485,8.243862,992.00146,0,0
31.8,-0.31270164,5.7610173,7.917191499999999,992.0038,0,0
31.84,-0.30786672,5.7562489999999995,7.869852499999999,991.9764,0,0
31.88,-0.2887107,5.765781,8.030826,992.0039999999999,0,0
31.92,-0.34125173,5.6466165,8.18233,991.98395,0,0
31.96,-0.2886371,5.789613,7.8035808000000015,991.9864,0,0
32.0,-0.24560046,5.808678,8.073443,991.99896,0,0
32.04,-0.33637995,5.703812999999999,7.992961999999999,992.01666,0,0
32.08,-0.33156335,5.7181115,7.699432400000001,991.9713,0,0
32.12,-0.23113233,5.818208,8.097127,991.98395,0,0
32.16,-0.17851768,5.8372736,7.860411,991.9789,0,0
32.2,-0.082884796,5.894471,8.182352999999999,991.9714,0,0
32.24,-0.29793924,5.6227765,7.936167699999999,991.9612400000001,0,0
32.28,-0.20708615,5.6561413,7.98825,991.9762,0,0
32.32,-0.058893852000000003,5.8372707,7.803610000000001,991.99896,0,0
32.36,-0.31216824,5.5512752999999995,8.135023,991.9789,0,0
32.4,-0.3025903,5.6227735999999995,8.267589,992.0066,0,0
32.44,-0.015783653,5.76577,8.187104,991.97864,0,0
32.48,-0.25214994,5.6800239999999995,8.3478775,991.9864,0,0
32.52,-0.18525675,5.6228266,8.404688,991.9839999999999,0,0
32.56,-0.35737795,5.608528,7.779742,991.9965,0,0
32.6,-0.21403196,5.713393,8.106411999999999,991.9916400000001,0,0
32.64,-0.14238316,5.8039594,8.035391,991.9939999999999,0,0
32.68,-0.25239092,5.603766,8.040119,991.9739400000001,0,0
32.72,-0.25239092,5.603766,8.040119,991.9789999999999,0,0
32.76,-0.17596225,5.9183593,7.902817,992.0014,0,0
32.8,0.12033741,5.6419004999999975,8.15847,992.0092,0,0
32.84,0.39749372,5.9898605000000025,8.021166000000001,991.98914,0,0
32.88,0.6077569,6.1280923,7.7939105,991.9942,0,0
32.92,-0.071047574,5.4846087,8.783394,991.98914,0,0
32.96,-0.34830029999999995,5.3368459999999995,8.144247,992.0194,0,0
33.0,-0.51564157,5.9374332,7.490895,991.98914,0,0
33.04,-1.0080338,5.1271205,8.5655985,991.9967,0,0
33.08,-0.6782754,5.637143,8.125295,991.9916400000001,0,0
33.12,-0.6782754,5.637143,8.125295,992.0018,0,0
33.16,-0.52536994,5.980336,7.557161,992.01685,0,0
33.2,-0.6019190999999999,5.551348,8.409348,992.0017,0,0
33.24,-0.45376927,5.4560175000000015,8.37147,992.0043,0,0
33.28,-0.15268984,5.8897752999999975,7.5287414,992.03705,0,0
33.32,-0.09538039599999999,5.880244,8.30518,992.0068,0,0
33.36,0.071864545,6.099507,7.827000000000001,992.0093400000001,0,0
33.4,-0.34883052,5.99941,8.021104,991.98914,0,0
33.44,-0.4895932,5.7038193,8.267534,991.9993,0,0
33.48,-0.97226393,5.6704516,7.974009,991.9817,0,0
33.52,-0.74758327,5.4797883,8.286483,991.98926,0,0
33.56,0.112840965,6.089906,7.945611,992.0068,0,0
33.6,0.15113900000000002,5.9802737,7.524255,991.98926,0,0
33.64,0.28025335,6.175701,7.3585553,991.99176,0,0
33.68,-0.08292235,5.732409,8.523227,992.0397300000001,0,0
33.72,0.0031737090000000003,6.085133,8.002448,991.9942599999999,0,0
33.76,-0.19754823,5.9135356,7.9124975000000015,991.9791,0,0
33.8,0.074990004,6.2805586,7.865162,992.02216,0,0
33.84,-0.063594475,6.480753400000001,7.159738000000001,992.0498699999999,0,0
33.88,-0.26425683,6.042228,7.524295299999999,991.9614,0,0
33.92,-0.030016646,6.3949523,7.3538594,992.0044,0,0
33.96,-0.5413960999999999,5.7800650000000005,8.34809,992.0498,0,0
34.0,-0.479199,6.0612907,6.989321,991.9664300000001,0,0
34.04,-0.69426036,5.7466974,7.8320475000000025,991.97925,0,0
34.08,-0.6703018,6.018389,7.031939,992.0121,0,0
34.12,-0.31172702,6.1089515999999975,8.494878,992.0273,0,0
34.16,-0.49332976,5.9516544,8.296037,992.0197,0,0
34.2,-0.34503663,6.03745,8.064061,991.9942599999999,0,0
34.24,-0.56009793,5.8134212,8.059330000000001,992.01715,0,0
34.28,-0.2445415,6.1518445,7.4912085999999976,992.007,0,0
34.32,-0.34010774,6.175676,7.5858994000000015,992.0374,0,0
34.36,-0.18709445,6.1232424000000005,7.8983765,992.0197,0,0
34.4,-0.50725186,5.83248,7.7516174,991.9742,1,1
34.44,-0.29349333,6.008876,7.8367147,991.9918,1,1
34.48,-0.34128883,6.0231752,7.5337133000000005,992.0424,1,1
34.52,-0.30782264,6.047008,7.850919,992.0348,1,1
34.56,-0.24568003,6.166172,7.6189337,992.0197,1,1
34.6,-0.24568003,6.166172,7.6189337,992.0247,1,1
34.64,-0.29347047,6.0708404,7.671013,991.98474,1,1
34.68,-0.25044972,6.023175,7.6094656,992.0272,1,1
34.72,-0.11182779,6.1471050000000025,7.405887599999999,992.01465,1,1
34.76,-0.22175822,5.9516764,7.5999985,992.045,1,1
34.8,-0.3077896,5.875411,7.694686999999999,992.01984,1,1
34.84,-0.28866783,5.861111,7.462700999999999,992.0399,1,1
34.88,-0.1930667,6.047007,7.6284056,991.9868,1,1
34.92,-0.0066467375,6.4378642999999975,7.5100465,992.0349,1,1
34.96,-0.2934299,6.3282332000000014,7.9740186,992.0272,1,1
35.0,-0.5993323,6.2948675000000005,7.7609710000000005,992.01465,1,1
35.04,-0.78574204,6.3520660000000015,7.5810633,992.0325,1,1
35.08,-1.2206992,5.551285,7.263859299999999,992.0373,1,1
35.12,-0.91956645,5.2986565,8.717321,992.045,1,1
35.16,-0.7522681999999999,5.708581,8.357507,992.0071,1,1
35.2,-0.79050153,6.113738,6.7336073,992.0247,1,1
35.24,-0.55628616,6.1423373,6.7146697,992.0323,1,1
35.28,-0.2933944000000001,6.2043029999999995,6.8093585999999995,992.0071,1,1
35.32,-0.5849573,6.0279393,7.022407,992.0373,1,1
35.36,-1.2302258,5.5036182,8.485338,992.0347,1,1
35.4,-1.3305966,5.451185700000001,8.300697,992.0272,1,1
35.44,-0.7239965,6.4045076,8.864052000000003,992.0247,1,1
35.48,-0.6188471999999999,6.356841999999999,9.219130999999999,992.0425,1,1
35.52,-0.20302328,5.3368,11.458503,992.0423,1,1
35.56,-0.26994687,5.270068,10.061852,992.0045,1,1
35.6,0.7481323000000001,6.1757145,7.5005383000000005,992.0323,1,1
35.64,0.6955482,5.4130654,8.168089,992.0425,1,1
35.68,0.34182996,4.65995,9.389564,992.0221,1,1
35.72,0.8628094999999999,4.740982,9.072357,992.0296599999999,1,1
35.76,0.9344875,5.4368997000000014,5.6020365,992.0119,1,1
35.8,0.9583803,5.8706565,5.9287105,992.0121,1,1
35.84,0.26050985,4.6361184,8.949259,992.0221,1,1
35.88,-0.6285463000000001,4.9793115,7.1549179999999994,992.0246599999999,1,1
35.92,-0.47559893,5.6609287,6.3974123,992.0095,1,1
35.96,-0.33699095,5.918323,6.8708525,992.0069,1,1
36.0,0.40385962,6.695272,8.972926,992.0498699999999,1,1
36.04,0.12662463,6.5475087,10.132854,992.02716,1,1
36.08,-0.21275413,6.2376830000000005,10.033431,992.04974,1,1
36.12,-0.15540916,6.385447,11.245438,992.02716,1,1
36.16,-0.7194451,6.466479,8.447402,992.012,1,1
36.2,-0.7433504,6.337782,7.727772,992.0346,1,1
36.24,-0.6286478,4.521724,9.720956,992.0043,1,1
36.28,-1.8570765,4.8458505,6.340589,991.9941,1,1
36.32,-1.5368358999999998,5.637099,6.454214,992.0044,1,1
36.36,-1.1210057,5.675232,7.131232700000001,992.0196,1,1
36.4,-0.6478241,4.955482,7.1359660000000025,992.00183,1,1
36.44,-0.30847073,4.9793153,6.8850408,992.0019,1,1
36.48,-0.21288097,5.079413,6.714602,991.9993,1,1
36.52,0.06911479,5.079413400000001,6.9134464000000015,992.0143400000001,1,1
36.56,0.14564979999999994,5.651398,7.491048299999999,992.0295,1,1
36.6,0.116965994,6.147121,8.310101,992.0219,1,1
36.64,0.39896446,7.124264999999999,9.403747000000001,992.0144,1,1
36.68,0.47543138,7.2672625,9.100744,991.9839999999999,1,1
36.72,0.4993254,7.0480003,9.223838,992.0344,1,1
36.76,0.80522287,6.6380773,9.474761,991.9965,1,1
36.8,1.2736287,6.061324,7.4247619999999985,992.0065300000001,1,1
36.84,1.6990261999999998,5.6704669999999995,8.428455,991.98914,1,1
36.88,1.4074483,5.227176999999998,7.320603399999999,992.0041,1,1
36.92,0.4275785,5.689533,6.98446,991.9865,1,1
36.96,-0.27506256,5.522703599999999,3.9686432000000003,991.9992,1,1
37.0,0.035609707000000004,5.12708,8.4142475,991.98914,1,1
37.04,-0.37545836,5.1842785000000005,7.358475,991.9738,1,1
37.08,-1.1593611000000001,5.9183292000000005,6.492078,992.0066,1,1
37.12,-0.6479271,6.504616,7.173832000000001,992.0269999999999,1,1
37.16,0.24587627,6.7381773,9.853502,992.0469400000001,1,1
37.2,0.24587627,6.7381773,9.853502,992.02185,1,1
37.24,0.10725199,7.1767015,8.376368,992.0143,1,1
37.28,0.06900361,6.857342,7.4342203,992.02435,1,1
37.32,-0.9252104999999999,6.0946927,9.474748,992.0039999999999,1,1
37.36,-0.9443347,6.762011,7.7845645,991.9864,1,1
37.4,-0.21303466,6.5713490000000006,7.49103,992.00397,1,1
37.44,-0.18437079,5.041285,7.5715137000000015,991.956,1,1
37.48,-0.17003636,5.842067,5.507313,991.9915,1,1
37.52,-0.7292834,6.3568544000000005,5.88133,991.9763,1,1
37.56,0.37014568,5.6275697000000005,5.928681,992.03937,1,1
37.6,1.1970485,5.8563647,7.623597,992.02185,1,1
37.64,1.5172889999999999,5.217646,9.2474985,991.98395,1,1
37.68,0.65691805,4.679025,8.177521,991.9814,1,1
37.72,0.32232547,5.1604480000000015,8.343225,991.9686,1,1
37.76,1.0536290000000001,5.6323370000000015,7.827174,992.0039999999999,1,1
37.8,1.0297269,5.8277660000000004,8.385834,992.0065,1,1
37.84,0.8958828999999999,6.161425,7.566781,992.00903,1,1
37.88,0.0020500124,6.23769,9.441606,992.0319,1,1
37.92,-0.012292549,6.047028,9.886638,992.0143,1,1
37.96,0.6903323,6.0660940000000005,9.91031,991.9736300000001,1,1
38.0,1.0153558,5.527474,9.6215105,991.9888,1,1
38.04,1.5984823000000001,4.9554870000000015,9.327976,991.9309,1,1
38.08,0.49912113,5.088951,6.974977,991.9384,1,1
38.12,-0.42816716,4.8744559999999995,6.4683948,991.9634,1,1
38.16,-0.18440351,5.1604495,6.662505,991.9561,1,1
38.2,0.025904685,5.0746512,7.6519957,992.00385,1,1
38.24,-0.74843305,4.7457595,8.049685,991.99146,1,1
38.28,-0.40429354,5.7133703,7.112272,991.9888,1,1
38.32,0.3365698,6.44742,7.1880217,991.9786,1,1
38.36,0.47518092,6.3520894,8.115964,991.9787,1,1
38.4,-0.0123654455,5.6800045999999975,8.726703,992.0092,1,1
38.44,-0.17966491,6.299658,7.7656174,992.0038,1,1
38.48,-0.16532868,6.5427523,8.092292,991.9991,1,1
38.52,-0.69589955,6.0327306,8.655683999999999,991.9764,1,1
38.56,-0.67678356,6.49032,7.9786644,991.9558,1,1
38.6,-0.8488694,4.4979,10.151753999999999,992.0063,1,1
38.64,-0.8488694,4.4979,10.151753999999999,991.9635,1,1
38.68,-1.3937701,4.259572,9.124389,991.9558,1,1
38.72,-1.6710113999999998,4.9173574,6.572543,991.98615,1,1
38.76,-1.0353009,4.9411902,6.7761226,991.9912,1,1
38.8,-0.04589089,4.516967,9.361107,991.99866,1,1
38.84,-0.1271507,4.126109,10.222767,991.99603,1,1
38.88,0.030576468,4.4264019999999995,9.517342,991.9886,1,1
38.92,0.84791344,5.384481,8.52785,991.9988,1,1
38.96,0.93394667,5.317749,8.774038000000001,992.0216,1,1
39.0,0.84312415,5.069888,9.285354,991.9634,1,1
39.04,0.6471458000000001,5.6514077,8.201174,991.9583,1,1
39.08,0.23607312,6.390225,9.313758,992.0087,1,1
39.12,0.5515339,5.846837,9.451056,991.9887,1,1
39.16,0.5228519,5.3272824,9.612024,991.9784,1,1
39.2,0.37467158,4.3978043,10.232232000000002,991.9938,1,1
39.24,-0.33752555,3.3062633999999997,9.896088,991.9633,1,1
39.28,0.37465566,5.184286,7.230617,991.9962,1,1
39.32,0.37465566,5.184286,7.230617,991.9937,1,1
39.36,-0.06509259999999999,4.7505302,6.998631,991.9683,1,1
39.4,-0.007744476,4.6313663,8.078074,991.99866,1,1
39.44,-0.19416001,4.883994,8.452091000000001,991.9633,1,1
39.48,0.04482065,5.7181416,7.4010534,991.9963,1,1
39.52,0.666192,5.9326367,8.390543,991.9886,1,1
39.56,0.80957663,5.78964,8.920796000000003,991.98096,1,1
39.6,0.76296514,6.5093613,7.1407685,991.9887,1,1
39.64,0.6960884,6.0422378,9.607397,991.9887,1,1
39.68,-0.09253873,5.536982,9.228648,991.9887,1,1
39.72,0.05089596,6.4092603,7.3585625,992.0013,1,1
39.76,-0.66603404,4.3787065,9.839394,991.9685,1,1
39.8,-0.7329108,4.335806400000001,8.835704,992.0115,1,1
39.84,-0.7329108,4.335806400000001,8.835704,991.9634,1,1
39.88,-0.058897562,6.0517650000000005,6.5773990000000015,991.9887,1,1
39.92,-0.29308772,5.7991376,6.245992,992.00385,1,1
39.96,-0.10183473,4.2261724,9.039297,991.9988,1,1
40.0,0.59605724,4.2404704,8.419093,992.0013,1,1
40.04,0.85896665,4.4311323,8.0829525,991.9533,1,1
40.08,0.7777708999999999,4.898254,7.2686405,991.9685,1,1
40.12,0.6105183000000001,5.4273405,6.927767,991.9811,1,1
40.16,0.14213805,5.446406,8.726844999999999,992.00385,1,1
40.2,0.027443036,5.637067299999999,8.963567,991.9963,1,1
40.24,0.31905162,6.0040913,8.916226,991.9784,1,1
40.28,-0.11584968,5.8706264,9.209764,991.98364,1,1
40.32,-0.12058893,5.6799626,9.844178,991.98096,1,1
40.36,-0.53161156,5.246205000000002,8.296032,991.98615,1,1
40.4,0.61082244,5.1604056,8.565899,991.9912,1,1
40.44,0.56306493,4.8076797,8.916248,991.9761,1,1
40.48,0.5391862,4.874411,7.727914299999999,991.9988,1,1
40.52,0.45319033,5.055539,8.679534,991.9761,1,1
40.56,0.27159828,5.055537999999999,7.3823104000000015,991.9736,1,1
40.6,0.050292,4.712381,8.655735,991.96375,1,1
40.64,-0.26997262,4.526486,9.039219000000001,992.0266,1,1
40.68,-0.14570658,4.578918,9.025015,991.9887,1,1
40.72,0.9297226000000001,5.5417633,8.5279,991.9736,1,1
40.76,0.9297226000000001,5.5417633,8.5279,991.9786,1,1
40.8,0.69069695,5.3225026,7.7183137,991.9634,1,1
40.84,0.69069695,5.3225026,7.7183137,992.00385,1,1
40.88,0.456451,5.251005,8.911381,991.9911,1,1
40.92,0.313048,5.1413746,8.788285,992.0037,1,1
40.96,1.2450831,5.9040246,8.139669,992.0115,1,1
41.0,1.1016711000000001,5.6513968,8.674655,991.9966,1,1
41.04,0.9056904,5.637098,9.096017,991.98096,1,1
41.08,0.4420228,6.137587,7.467378599999999,991.99365,1,1
41.12,0.4420228,6.137587,7.467378599999999,992.0014,1,1
41.16,0.43720746,5.3654056,9.62153,991.9912,1,1
41.2,0.30335522,4.9745483,8.878227,991.971,1,1
41.24,0.39894240000000003,5.203343,7.751436999999999,991.95074,1,1
41.28,0.48496115,5.517936,8.049703,991.9988,1,1
41.32,0.29853988,5.2367099999999995,8.324297999999999,991.9657599999999,1,1
41.36,-0.10777894,4.8601529999999995,8.485265,992.0039999999999,1,1
41.4,-0.10777894,4.8601529999999995,8.485265,991.9764,1,1
41.44,-0.41849285,5.1080146,7.5620537,991.9561,1,1
41.48,-0.15084158,5.522705,7.287455599999999,991.9708,1,1
41.52,0.12159835,5.522705,7.5715194000000015,991.9784,1,1
41.56,0.27930522,5.0984826,9.039183,991.9814,1,1
41.6,0.15049244,5.06511,8.769344,991.9786,1,1
41.64,-0.20322448,5.298672,7.732508,991.98096,1,1
41.68,0.3703444,6.0851545,7.699366,991.9962,1,1
41.72,0.05008991,6.390214,8.740935,991.9688,1,1
41.76,-0.0741888,6.352082,8.409527,991.9634,1,1
41.8,-0.117218435,5.131843,9.195436500000001,992.0089999999999,1,1
41.84,-0.4518085,4.3834940000000016,9.986081,991.9988,1,1
41.88,-0.28931043,5.670465,7.012873599999999,991.9659,1,1
41.92,-0.28931043,5.670465,7.012873599999999,991.98364,1,1
41.96,0.059607655,5.575133999999999,8.267491,991.99365,1,1
42.0,0.17909138,5.4226046,8.456866,991.98364,1,1
42.04,-0.10292471,5.394006,8.347973,992.0923,1,1
42.08,-0.46141762,5.312974,8.20594,992.0342,1,1
42.12,-0.24633023,5.241475599999999,8.864023,991.9078400000001,1,1
42.16,0.11692347,5.7896300000000025,7.5904669999999985,991.92804,1,1
42.2,-0.026478268,5.727665,8.092314,991.9508,1,1
42.24,-0.10295896,5.813463,7.741967,991.94824,1,1
42.28,-0.079071335,6.2948856,7.8319187,991.9608,1,1
42.32,-0.5809583,4.9602494,9.389538,991.9582,1,1
42.36,-0.67177844,4.9554834,8.726722,991.9382300000001,1,1
42.4,-0.074310556,5.813464,7.6662135,991.9814,1,1
42.44,0.24592866,5.8849620000000025,7.6094,991.9683,1,1
42.48,0.28415573,5.894496,8.049698,991.94824,1,1
42.52,0.20289524,5.9898267,7.917135000000001,991.9688,1,1
42.56,-0.4232667000000001,5.7657989999999995,8.163322,992.0037,1,1
42.6,-0.15983671,5.9612145,8.092357000000002,991.9611,1,1
42.64,0.045701846,5.9659805,8.26753,991.98645,0,0
42.68,0.036156207,5.8229837,8.324344,991.9583,0,0
42.72,-0.37010622,5.727652,7.491091,991.98096,0,0
42.76,-0.50871354,5.5941887,7.7988276,991.971,0,0
42.8,-0.5086996,5.6561537,7.642594,991.94824,0,0
42.84,-0.24101663,5.613254,8.040285,991.9814,0,0
42.88,-0.14541356,5.694286,8.092364,991.9713,0,0
42.92,-0.15495224,5.8182154000000015,8.06396,991.966,0,0
42.96,-0.35091025,5.684751,8.078164,991.95074,0,0
43.0,-0.27441943,5.8229809999999995,8.007149,991.9887,0,0
43.04,-0.22660047,5.627551599999999,8.163386000000001,992.0089999999999,0,0
43.08,-0.13577022,5.870646,7.9787464,991.9583,0,0
43.12,-0.3604071,5.6513839999999975,7.959810000000001,991.9583,0,0
43.16,-0.47511542,5.541753,8.082906,991.9685,0,0
43.2,-0.2647901,5.7991467000000005,8.063969,991.9609,0,0
43.24,-0.24565688,5.803913,8.357502,991.98364,0,0
43.28,0.26102328,6.075606,8.111316,991.9708,0,0
43.32,0.22279179999999996,6.142338,7.9361434000000015,991.94824,0,0
43.36,0.060292438,5.9469085,7.6284084000000005,991.9685,0,0
43.4,0.04596001,5.9707413,7.794113,991.9761,0,0
43.44,-0.20256887,5.6942806,7.9976949999999984,991.9633,0,0
43.48,-0.37941465,5.6132483,7.8698664,991.9384,0,0
43.52,-0.26468542,5.937374,7.334879400000001,991.98364,0,0
43.56,-0.17863499,5.8325095000000005,7.9787607000000005,991.9659,0,0
43.6,-0.27067503,5.7896410000000005,7.803475,991.9761,0,0
43.64,-0.046059802000000004,6.3044294999999995,8.054396,991.9938,0,0
43.68,-0.18470964,6.209099299999999,7.9549694,991.9912,0,0
43.72,-0.21344176,6.013672,7.9739027,991.95844,0,0
43.76,-0.10832165,6.0422720000000005,8.48048,991.9456,0,0
43.8,-0.31866854,5.670482,8.186944,991.9912,0,0
43.84,-0.27088827,5.546551,8.759806,991.9708,0,0
43.88,-0.16576815,5.374956,8.262691,991.966,0,0
43.92,0.09708552,5.7562814000000015,7.415228,991.9558,0,0
43.96,-0.17539886,5.71815,7.2163796,991.9734,0,0
44.0,0.13047309,6.161441,7.4720345,991.9657,0,0
44.04,0.24993266,6.3092055,7.959675,991.9736,0,0
44.08,0.13519953,6.1328425000000015,8.641427,991.98096,0,0
44.12,0.33111823,6.4045377,7.5051656000000015,991.9658,0,0
44.16,0.04429443,6.34734,7.154816,991.99097,0,0
44.2,0.0968367,6.213877,7.192688,991.9709,0,0
44.24,-0.12305201,6.199578,7.363125,991.9757699999999,0,0
44.28,-0.23780283,6.361642400000001,7.107464,991.9682,0,0
44.32,-0.5294241999999999,5.9374194000000005,7.7655410000000025,991.9734,0,0
44.36,-0.41472673,6.066117,7.5051475000000005,991.9657,0,0
44.4,-0.051497154,6.39501,7.6045669999999985,991.99084,0,0
44.44,-0.061092272,6.371178,7.282624,992.0086699999999,0,0
44.48,-0.15672392,6.318747,7.396246400000001,991.9882,0,0
44.52,-0.5009231,6.0232224,7.28735,991.9554400000001,0,0
44.56,-0.15681279,6.3187489999999995,7.263675,991.99854,0,0
44.6,-0.4425072,6.066095,8.115967999999999,991.9655,0,0
44.64,-0.31822345,6.2710567,7.7798257,991.9756,0,0
44.68,-0.23695791,6.456951999999999,7.9076557,991.9932,0,0
44.72,-0.06487609,6.40452,7.917125,991.97833,0,0
44.76,-0.24649978,6.0660940000000005,7.874516499999999,992.01105,0,0
44.8,-0.21781649,6.1471257,7.647265400000001,991.9833,0,0
44.84,-0.07919333,6.309189,7.6520009999999985,991.9706,0,0
44.88,-0.22735839,6.0946927,7.812971000000001,991.9831,0,0
44.92,-0.18433122,6.1280584000000005,7.8603163,991.9831,0,0
44.96,-0.12696472,6.190024,7.448424,991.98834,0,0
45.0,-0.25123078,5.956462,7.552582000000001,991.9580000000001,0,0
45.04,-0.25121742,6.299654,7.652005,992.0160000000001,0,0
45.08,-0.16517651,6.3044205,7.694615400000001,991.96796,0,0
45.12,-0.32768095,6.1947894,8.078103,991.9706,0,0
45.16,-0.34678686,6.104223999999999,7.5999293,991.99084,0,0
45.2,-0.3515578,6.0994577,7.656743,991.9604,0,0
45.24,-0.2846361,6.204322299999999,7.4389606,991.9731,0,0
45.28,-0.37066370000000004,6.1280565000000005,7.585728,991.9906,0,0
45.32,-0.23682031,6.1280565000000005,7.6094007,991.9756,0,0
45.36,-0.27982965,6.194788,7.457901,991.9780000000001,0,0
45.4,-0.30849963,6.023192,8.06864,991.9931,0,0
45.44,-0.2606971,6.0851574,7.6709504,991.9829,0,0
45.48,-0.24156901,6.242453,7.3821520000000005,992.01324,0,0
45.52,-0.24156015,6.1137559999999995,7.860328,991.9602,0,0
45.56,-0.24155125,6.266285,7.3111377000000015,991.97046,0,0
45.6,-0.26524463,6.0851517,7.6615024000000025,991.9753400000001,0,0
45.64,-0.29390702,6.2567472,7.3774395,991.9678,0,0
45.68,-0.41816545,6.0660844,7.7419906,991.9804,0,0
45.72,-0.31777304,6.2376795,7.6662415999999975,991.9780000000001,0,0
45.76,-0.35122347,6.1614146,8.030791,991.9906599999999,0,0
45.8,-0.174346,6.2043133,7.8461523,991.9580000000001,0,0
45.84,-0.23168717,6.1852465,7.827215700000001,991.9779699999999,0,0
45.88,-0.23167071,5.9802839999999975,7.8556237000000015,991.9780000000001,0,0
45.92,-0.35114932,5.9135519999999975,7.42006,992.0057400000001,0,0
45.96,-0.30334303,5.956451,7.38692,991.998,0,0
46.0,-0.31766596,5.937384,7.5762978,991.99054,0,0
46.04,-0.41323733,6.0327150000000005,7.8508954,991.9753400000001,0,0
46.08,-0.4514510000000001,6.1375785,8.087617999999999,991.9830300000001,0,0
46.12,-0.4514510000000001,6.1375785,8.087617999999999,991.99036,0,0
46.16,-0.47055382,6.123278,7.893509,991.99817,0,0
46.2,-0.36537343,6.104211299999999,8.220185,991.98535,0,0
46.24,-0.33189827,6.0327125,8.0592165,991.97546,0,0
46.28,-0.33189827,6.0327125,8.0592165,991.9828,0,0
46.32,-0.42268986,5.8563495,7.727810400000001,991.9625,0,0
46.36,-0.5421603,5.7896175,7.5431714,991.9703400000001,0,0
46.4,-0.5086934000000001,5.8563485,7.4910929999999984,991.9677,0,0
46.44,-0.556475,5.975512,7.926660000000001,991.9929,0,0
46.48,-0.65683436,5.8754144,7.841442599999999,991.9928,0,0
46.52,-0.27921337,6.2805705000000005,7.9882100000000005,991.98285,0,0
46.56,-0.53336364,5.746737,7.779821000000001,991.9929,0,0
46.6,-0.24180444,5.9278655,7.9834003,992.0005,0,0
46.64,-0.27528969999999997,6.099463,7.476816,991.98505,0,0
46.68,-0.32787645,6.142362,7.3584557,991.9803,0,0
46.72,-0.11758281,6.1185300000000025,7.538361,991.99036,0,0
46.76,-0.38048977,5.765805,8.286394999999999,991.99554,0,0
46.8,-0.6147090999999999,5.6275744,8.201176,991.96765,0,0
46.84,0.19783096,6.428357,7.5194187,991.96,0,0
46.88,-0.39488247,5.9469357,8.068608,991.95245,0,0
46.92,-0.61476237,5.656175599999999,7.7845429999999975,991.96014,0,0
46.96,-0.5669909000000001,5.7705736,7.571492,991.9778,0,0
47.0,-0.7151736999999999,5.713375,7.675648,991.9752,0,0
47.04,-0.47621018,5.899271,8.414213,991.9776,0,0
47.08,-0.39019144,6.1042337,8.101741,991.9725300000001,0,0
47.12,-0.46189737,6.0375023,8.030724000000001,991.9725,0,0
47.16,-0.49538273,6.0565690000000005,7.827142,991.9803,0,0
47.2,-0.56708854,6.104235,7.8886886,991.9702,0,0
47.24,-0.64836305,6.2472324,7.7371855,991.98285,0,0
47.28,-0.5527847,6.075637,8.840301,991.9825400000001,0,0
47.32,-0.8252424,5.7658105000000015,8.830832000000003,992.0053,0,0
47.36,-0.61972857,6.0232053,7.552540299999999,991.9725300000001,0,0
47.4,-0.21825172,6.0661044,7.713507000000001,991.9725300000001,0,0
47.44,-0.47638774,5.6132827,7.9549600000000025,991.9751,0,0
47.48,-0.47638774,5.6132827,7.9549600000000025,991.9878,0,0
47.52,-0.30912128,5.6514153,7.2826714999999975,991.9776,0,0
47.56,-0.3330469,5.6561832,7.4625770000000005,991.9374,0,0
47.6,-0.30916572,5.670483,7.8460617,991.9903,0,0
47.64,-0.32351393,5.589452,8.314766,991.9826,0,0
47.68,0.3121733,5.8516129999999995,7.7561054,992.0005,0,0
47.72,0.21178858,5.8277807,7.888667599999999,991.9649699999999,0,0
47.76,-0.0798061,5.622819,7.727695,991.96515,0,0
47.8,-0.20886967,5.537021,7.713491,991.96,0,0
47.84,-0.22801554,5.551322,8.26268,991.9903,0,0
47.88,-0.22801554,5.551322,8.26268,991.96515,0,0
47.92,-0.051189445,5.9660125,7.997550500000001,991.9751,0,0
47.96,-0.13245496,5.9946127,7.9644084,991.95984,0,0
48.0,-0.29022402,6.285373,8.125376,991.9699,0,0
48.04,-0.19941661,6.323506,8.414173,991.98755,0,0
48.08,0.22595929,6.1995754000000005,8.764516,991.9929,0,0
48.12,0.22595929,6.1995754000000005,8.764516,991.98285,0,0
48.16,0.35498738,5.9135833,7.817633,991.96765,0,0
48.2,0.35498738,5.9135833,7.817633,991.9599599999999,0,0
48.24,-0.40980792,5.498893700000001,7.3015814,991.96,0,0
48.28,-0.5914581999999999,5.6132913,7.685065700000001,991.9878,0,0
48.32,-0.27601779,6.0089164,8.66982,991.98755,0,0
48.36,-0.19427979999999997,5.875440599999999,8.442613,991.9751,0,0
48.4,-0.21818528,5.8230085,8.158547,991.9825400000001,0,0
48.44,-0.19428946,5.875440599999999,7.9975770000000015,991.9778,0,0
48.48,-0.19907573,6.008905,7.6093554,991.9775,0,0
48.52,-0.38071787,5.5322495,8.016514,992.00037,0,0
48.56,-0.18953219,5.589448,8.12067,991.9700300000001,0,0
48.6,-0.20387483,5.598981,8.15381,991.955,0,0
48.64,-0.09872559,5.7848773,7.7229785999999985,991.9727,0,0
48.68,-0.09873201,5.646647,8.471014,991.998,0,0
48.72,0.19760938,6.0947037,7.8081975,991.9702,0,0
48.76,0.07810785,5.880209,7.954962700000001,991.9903,0,0
48.8,0.12111963,6.1900353,8.120667,991.9725300000001,0,0
48.84,0.05897899,6.170969,7.869743,991.96234,0,0
48.88,0.092424735,5.7038465,8.617778,991.9852,0,0
48.92,0.16411857,5.7515125,8.660386,991.9449,0,0
48.96,0.035054207000000004,5.417854,7.9644284,991.98035,0,0
49.0,0.29315716,6.2377014000000015,6.1416825999999975,991.96265,0,0
49.04,0.3744074,6.619026,7.1075,991.96765,0,0
49.08,0.3744074,6.619026,7.1075,992.0005,0,0
49.12,0.27879846,6.0041410000000015,8.613039,991.98285,0,0
49.16,0.3839509,5.9993744000000016,7.931285000000001,991.98785,0,0
49.2,-0.20397465,5.422621299999999,8.660382,991.9652,0,0
49.24,-0.24221626,5.7610470000000005,7.6140789999999985,991.9625,0,0
49.28,0.087583765,5.980308,7.434170699999999,991.9828,0,0
49.32,-0.2613516,5.8754444,7.997564,991.9929,0,0
49.36,-0.43760340000000003,5.9040294,7.670945,991.9702,0,0
49.4,-0.6526857,5.8134646,8.078105,991.9727,0,0
49.44,-0.6813467,5.398773,8.002355999999999,991.9753,0,0
49.48,-0.20812845,6.194788,6.9607887,991.98535,0,0
49.52,0.4037131,6.561812400000001,8.073376,991.9878,0,0
49.56,0.121722385,6.5570455,8.362177,991.9677,0,0
49.6,-0.25108457,6.113755,8.078114,991.9678,0,0
49.64,-0.54263484,6.142354,7.8035197,991.9499,0,0
49.68,-0.09331553,6.027956,7.216455499999999,991.9652,0,0
49.72,0.0022983104,5.808694,7.363223,991.96,0,0
49.76,-0.31793076,5.565599,7.978698,991.9929,0,0
49.8,-0.38005936,5.7467284,7.609414599999999,991.9830300000001,0,0
49.84,-0.29399627,6.0899199999999984,8.016575999999999,991.9602,0,0
49.88,-0.48517954,6.1042190000000005,8.068655999999999,991.99036,0,0
49.92,-0.7862806,5.7991589999999995,7.9645009999999985,991.9549599999999,0,0
49.96,-0.7623726,5.9040227,7.6520314,991.9652,0,0
50.0,-0.5329243,5.6084957000000015,8.03552,991.97284,0,0
50.04,-0.64284205,5.627561,7.9834429999999985,991.9830300000001,0,0
50.08,-0.0979178,5.9898190000000024,8.4994955,991.9804,0,0
50.12,-0.0979178,5.9898190000000024,8.4994955,991.9501300000001,0,0
50.16,0.10285173,6.3091784,7.585757000000001,991.9830300000001,0,0
50.2,-0.37510198,6.094682700000001,7.893495599999999,991.9753400000001,0,0
50.24,-0.20302022,5.679991200000001,8.215436,991.9753,0,0
50.28,0.040785298,6.02795,7.694655,991.9602,0,0
50.32,0.040785298,6.02795,7.694655,991.9501,0,0
50.36,-0.18862751,5.7228900000000005,7.756203699999999,991.97546,0,0
50.4,0.029925168,6.0184484000000005,7.836567999999999,991.98553,0,0
50.44,0.096808165,5.7086234000000005,8.3810215,991.9753400000001,0,0
50.48,0.04897587,5.5417943,7.8365617,991.9753400000001,0,0
50.52,0.22103171,5.832555,7.230556,991.9577,0,0
50.56,0.025025517,6.1471480000000005,7.779743700000001,991.9730000000001,0,0
50.6,0.25438756,6.1137843,8.68401,991.9931,0,0
50.64,0.13965516,5.8849897,8.949133999999997,991.9653300000001,0,0
50.68,-0.23796645,5.88499,8.357331,991.9653300000001,0,0
50.72,-0.037248947000000004,5.9231234000000015,7.7418559999999985,991.9831,0,0
50.76,0.26382732,6.237717,7.1500505999999975,991.9580000000001,0,0
50.8,0.05349885,5.9707913,7.685036999999999,991.97546,0,0
50.84,-0.07559012,5.8945265,7.864941,991.9653,0,0
50.88,-0.051725388,6.1471550000000015,7.5761395,991.9730000000001,0,0
50.92,-0.17127186,6.0232263,7.845996,991.95526,0,0
50.96,-0.09959191,6.1805224,7.51932,991.9681,0,0
51.0,-0.080506936,6.1376247,8.1774,991.9806,0,0
51.04,-0.21435854,6.004161,8.163195,991.97546,0,0
51.08,0.16795723,6.3235225999999995,7.893327,991.9829,0,0
51.12,-0.14276427,5.9564980000000025,7.4766965,991.9831,0,0
51.16,-0.09020353,6.03753,7.4340854000000025,991.96796,0,0
51.2,-0.15239236,6.1948276,6.965375,991.9706,0,0
51.24,-0.2671248,6.0565977,7.30625,991.9806,0,0
51.28,-0.32451665,5.918369,8.139503,991.9756,0,0
51.32,-0.29109228,5.7229410000000005,7.902778599999999,991.9881,0,0
51.36,-0.45323157,5.603768,7.841265700000001,991.9678,0,0
51.4,-0.3719838,5.7419980000000015,7.718170599999999,991.9681,0,0
51.44,-0.2286163,5.718166,8.229484,991.9881,0,0
51.48,-0.05178131,5.6991,7.9880276,991.9780000000001,0,0
51.52,0.35449314,6.0613585,8.15373,991.9604,0,0
51.56,-0.09961484400000001,5.6800346,7.9690866,991.9554,0,0
51.6,0.21105464,6.0136943,8.144258500000001,991.9858,0,0
51.64,0.29708225,6.0994925,8.343102,991.9655,0,0
51.68,-0.06620949,5.9946294,8.125316999999999,991.9756,0,0
51.72,-0.027979925,5.9946294,8.220004,991.98834,0,0
51.76,-0.21441004,5.9278975,7.3678102,991.9984,0,0
51.8,-0.14751054,5.8325667,7.954874,992.0011599999999,0,0
51.84,0.0006456077,5.8039684000000005,8.243671,991.97833,0,0
51.88,-0.08062884,6.089962,7.4908996,991.98065,0,0
51.92,-0.7307088,5.7324705,7.637664,991.95557,0,0
51.96,-0.38658953,5.885001,8.712371000000001,991.9630000000001,0,0
52.0,-0.33880925,6.070897,7.798629300000001,991.9554400000001,0,0
52.04,-0.39617574,5.9517336,8.1631775,992.0060000000001,0,0
52.08,-0.29581767,5.899302,8.480381,991.9504,0,0
52.12,0.17258535,6.1233306,7.7418127000000005,991.9706,0,0
52.16,0.28728288,5.9755673,8.34308,991.9731400000001,0,0
52.2,0.28728288,5.9755673,8.34308,991.9532,0,0
52.24,0.5118981,6.256796,7.580837700000001,991.9580699999999,0,0
52.28,0.25855082,6.128099,7.680258999999999,991.93567,0,0
52.32,0.11036797,5.8897714999999975,7.595038400000001,991.9658,0,0
52.36,0.20740531,5.7038400000000005,7.5951705,991.96075,0,0
52.4,0.21220542,5.7133727,7.4957504,991.96075,0,0
52.44,0.39387858,5.9040339999999984,7.779818,991.95825,0,0
52.48,0.14536934,5.946932299999999,7.386866,991.9659,0,0
52.52,-0.16525704,5.656171,8.163314,991.95825,0,0
52.56,-0.12697801,5.842066,7.9360657,991.98065,0,0
52.6,0.1455114,6.4426510000000015,7.618864500000001,991.9406,0,0
52.64,0.41322106,6.6666775,7.9502770000000025,991.9734,0,0
52.68,0.29374617,6.5618134,8.272217999999999,991.99084,0,0
52.72,0.01179868,6.17572,8.115988,991.95825,0,0
52.76,0.01181899,6.123287,8.253287,991.9734,0,0
52.8,-0.012059763000000001,6.00889,8.078117,991.9659,0,0
52.84,-0.29878715,5.9945889999999995,7.5762753,991.9735,0,0
52.88,-0.44214064,6.1566505,7.2543397,991.9329,0,0
52.92,-0.48035878,6.1900163,7.027089999999999,991.9811,0,0
52.96,-0.39426142,6.0756172999999984,8.201229,992.0037,0,0
53.0,-0.15045083,6.1042156,7.675712599999999,991.9834599999999,0,0
53.04,-0.045254573,6.0803814,7.5810285,991.9381,0,0
53.08,0.10773976,6.2043114,7.543157000000001,991.9685,0,0
53.12,0.012184277,6.1614113,7.211753,991.9331699999999,0,0
53.16,-0.04989229,5.942148,7.491088,991.971,0,0
53.2,0.0791827,6.108976999999999,7.467417200000001,991.9634,0,0
53.24,0.11744143,6.3139386,7.202292999999999,991.9231,0,0
53.28,-0.1788455,6.313937,7.571582,991.9558,0,0
53.32,-0.33175862,6.175706,7.8414470000000005,991.9811,0,0
53.36,-0.31785533,5.9850544999999995,8.078127,991.9634,0,0
53.4,-0.26525593,6.1280503,7.382172,991.95105,0,0
53.44,-0.24612594,6.1280503,7.401110000000001,991.95355,0,0
53.48,-0.29388085,5.93262,7.604693400000001,991.9583,0,0
53.52,-0.29388085,5.93262,7.604693400000001,991.9558,0,0
53.56,-0.07398834,6.0756164,7.879291,991.9586,0,0
53.6,-0.29383773,5.9945846,7.5289470000000005,991.99146,0,0
53.64,0.055109545999999995,6.1947794,8.125483500000001,991.9764,0,0
53.68,-0.18384832,5.9516839999999975,7.7988133,991.9988,0,0
53.72,-0.18383753,5.9707503,7.9692526,991.9534,0,0
53.76,-0.38456774,5.9659830000000005,7.623642999999999,991.9737,0,0
53.8,-0.2602713,5.951683,7.8366933,991.99896,0,0
53.84,-0.21244090000000002,5.89925,7.888775,991.9787,0,0
53.88,-0.03078676,5.980281,8.243857,991.99146,0,0
53.92,-0.09291345,5.8897166,8.201248,991.9739,0,0
53.96,-0.20759639,5.794384,8.002407,991.96625,0,0
54.0,-0.14543734,5.8229823,8.059221,991.9687,0,0
54.04,-0.26013112,5.842048999999999,7.9692698,991.9736300000001,0,0
54.08,-0.32703757,5.7657833,7.9740043000000025,991.96606,0,0
54.12,-0.3413662,5.7371836,8.187054,991.9613,0,0
54.16,-0.21705899,5.7228837,8.130244,991.9586,0,0
54.2,-0.19313839,5.7705480000000025,8.291216,991.9814,0,0
54.24,-0.35564095,5.6132517,8.172857,991.946,0,0
54.28,-0.06404056400000001,5.7896137,8.224938,991.9664,0,0
54.32,-0.33168800000000004,5.651383,7.671015,991.97864,0,0
54.36,-0.32689738,5.5751176,7.926674,991.95844,0,0
54.4,-0.16982292,5.556068,8.125459,991.98895,0,0
54.44,-0.016874224,5.7085977,8.239082000000002,991.9864,0,0
54.48,0.06437734,5.794395400000001,7.9928940000000015,991.97144,0,0
54.52,-0.02644398,5.651399,8.149128999999999,991.9864,0,0
54.56,0.13606422,5.8134627,8.059175,991.9638,0,0
54.6,0.1695178,5.746731,8.343238000000001,991.9588,0,0
54.64,0.15517588,5.7657967,8.267488499999999,991.9741,0,0
54.68,-0.012122348,5.7800970000000005,7.8177185,991.9613,0,0
54.72,0.035673156,5.77533,7.955016599999999,991.9916400000001,0,0
54.76,-0.021692097,5.694299,7.902937400000001,991.9664300000001,0,0
54.8,0.045220107,5.6990657,7.8555923,991.9589,0,0
54.84,0.0021942258,5.646634,8.092313,991.9716,0,0
54.88,0.12168424,5.718132,8.120719,991.9716,0,0
54.92,0.016520962,5.618035,7.874528999999999,991.95636,0,0
54.96,0.0021790266,5.6799994000000025,7.9455442,991.9614,0,0
55.0,0.026075497000000003,5.8039303,7.8697940000000015,991.9716,0,0
55.04,0.083428085,5.7610316,8.229608,991.9613,0,0
55.08,-0.031294838,5.675234,7.7798386,991.95636,0,0
55.12,0.05473657,5.6323347,8.191730999999999,991.9993,0,0
55.16,0.04039207,5.7324324,8.191730499999998,991.9338,0,0
55.2,0.04039207,5.7324324,8.191730499999998,991.9766,0,0
55.24,-0.045654543,5.656168,8.111246000000001,991.97406,0,0
55.28,-0.11735411,5.608502400000001,8.03076,991.9791,0,0
55.32,-0.02176565,5.703833599999999,8.229605000000001,991.9742,0,0
55.36,-0.020709664,5.6752085999999995,7.974042999999999,991.9995,0,0
55.4,0.041446224,5.6370754000000005,8.149218,991.9892,0,0
55.44,0.09885903,5.679973,8.082941,991.98413,0,0
55.48,0.022400572999999997,5.679973,7.978786,991.9791,0,0
55.52,-0.140076,5.675205,7.8604293000000025,991.9892,0,0
55.56,-0.24997470000000002,5.6609050000000005,8.253387,991.9791,0,0
55.6,-0.33121294,5.5846395,8.187108,991.95135,0,0
55.64,-0.3885338,5.5322065,8.291269,991.9765,0,0
55.68,-0.26422215,5.618004,8.040349,991.9616,0,0
55.72,-0.23548812,5.584636,8.172917,992.0045,0,0
55.76,-0.18289188,5.6084685,8.035621,991.9515,0,0
55.8,-0.058543414,5.6513658,8.215534,991.9868,0,0
55.84,-0.08720386,5.5989330000000015,7.9314723,991.9741,0,0
55.88,-0.015488401,5.6322985,7.443830499999999,991.95135,0,0
55.92,0.118401244,5.494067,7.240256299999999,991.9566,0,0
55.96,0.10409860000000001,5.594164,7.7326374000000015,991.9918,0,0
56.0,-0.70843124,5.6132292999999995,8.37652,991.98193,0,0
56.04,-0.70843124,5.6132292999999995,8.37652,991.9893,0,0
56.08,-0.44070703,6.042218,8.797887,992.002,0,0
56.12,-0.27335873,4.9459085,8.348124,991.9667400000001,0,0
56.16,-0.27335873,4.9459085,8.348124,992.01965,0,0
56.2,0.061282724000000004,4.9030085,8.906789,991.9716,0,0
56.24,-0.12509285,5.055537,7.8983636,991.96405,0,0
56.28,0.04223706,5.3462963,8.376542,992.01965,0,0
56.32,0.061393067,5.4273267,9.110377,991.97925,0,0
56.36,0.023191437000000002,5.341528,8.76477,991.9695,0,0
56.4,-0.10104669,5.2128305,8.362349,991.98456,0,0
56.44,-0.2157436,5.0650663,7.9788632,991.9822,0,0
56.48,-0.2156884,4.9411345,8.296075,991.9716,0,0
56.52,-0.13437657,5.127029,8.357626,991.9895,0,0
56.56,0.013834134,5.4845195,8.537537,992.0024,0,0
56.6,-0.21555966,5.1413264000000005,8.911557,992.01465,0,0
56.64,-0.21555966,5.1413264000000005,8.911557,992.0097,0,0
56.68,-0.28718317,4.9411297,8.248747999999999,992.00714,0,0
56.72,-0.23456849999999999,4.9983273,8.992053,992.0019,0,0
56.76,-0.18673370000000009,5.246187,8.769539,991.9642,0,0
56.8,-0.1723575,5.2652529999999995,8.329243,991.9923,0,0
56.84,-0.24403617,5.227119999999998,8.315042,991.98724,0,0
56.88,-0.25835717,5.2223525,7.9220877000000005,992.00714,0,0
56.92,-0.3634761,5.1174874,7.931559599999999,991.9694,0,0
56.96,-0.43035656,5.0030894,8.532833,992.0098,0,0
57.0,-0.44943893,5.1174855,8.315053,991.977,0,0
57.04,-0.45896178,5.074586,8.840575999999997,991.9669,0,0
57.08,-0.45894343,5.065052,8.736421,992.0073,0,0
57.12,-0.2890942,5.332033999999998,8.466356,991.9921,0,0
57.16,-0.17917460000000002,5.446432,8.3764,992.0147,0,0
57.2,-0.25088757,5.10324,8.594183000000001,991.9870599999999,0,0
57.24,-0.29392967,5.093707599999999,8.319583999999999,991.9645,0,0
57.28,-0.23657997,5.1747394,8.210691,991.9897,0,0
57.32,-0.10754119599999999,5.346335400000001,8.376395,991.982,0,0
57.36,-0.42303209999999997,4.984078,8.494753,991.9920699999999,0,0
57.4,-0.34179136,5.141375,8.859301,992.0073,0,0
57.44,-0.50432056,5.21764,8.556297,991.98956,0,0
57.48,-0.44697088,5.3987690000000015,8.168076,992.0098,0,0
57.52,-0.35617056,5.441669,8.262762,991.9795,0,0
57.56,-0.39920467,5.355871,8.395324,991.98975,0,0
57.6,-0.23669928,5.279607,8.329041499999999,991.9823,0,0
57.64,-0.27018976,5.7514962999999995,6.7856229999999975,992.00226,0,0
57.68,-0.27018976,5.7514962999999995,6.7856229999999975,991.9795,0,0
57.72,-0.30366433,5.4702697,8.376381,992.02,0,0
57.76,-0.2893408,5.489336499999999,8.381114,992.00494,0,0
57.8,-0.41363162,5.3558736,8.418987,992.01996,0,0
57.84,-0.26069380000000003,5.4559712,8.404783,991.9495,0,0
57.88,-0.016955614,5.5608363,8.153857,991.9925,0,0
57.92,-0.016955614,5.5608363,8.153857,991.9721699999999,0,0
57.96,-0.11734739,5.3987737000000005,8.329028,991.9671,0,0
58.0,0.06426130000000001,5.556071,8.627294000000001,991.9975,0,0
58.04,-0.169965,5.298677,8.305352000000001,991.9823,0,0
58.08,-0.06003746400000001,5.351108999999999,8.243803999999999,991.9823,0,0
58.12,-0.05446025,5.3367900000000015,8.281754,991.9873699999999,0,0
58.16,-0.04488416,5.3796883,8.258080999999999,991.99994,0,0
58.2,-0.11657293,5.3796883,8.253347999999999,992.0075699999999,0,0
58.24,-0.18347372,5.3320227,8.319632,991.9898699999999,0,0
58.28,-0.23125528,5.3844543,8.376446000000001,992.00256,0,0
58.32,-0.33161467,5.260524,8.319633999999999,991.97974,0,0
58.36,-0.21210307,5.284356,8.248621,991.99994,0,0
58.4,-0.3220303,5.174725,8.068713,991.9823,0,0
58.44,-0.38415125,5.1461253,8.385921000000002,991.9646,0,0
58.48,-0.14036483,5.48455,8.343312,991.97504,0,0
58.52,-0.09254202,5.384452,8.471144,991.9775400000001,0,0
58.56,-0.09730536,5.198556,8.546896,991.97473,0,0
58.6,-0.11162826,5.236688,8.092395,992.00256,0,0
58.64,-0.0016762763,5.465482,7.8982854000000025,991.9975,0,0
58.68,-0.09248431,5.403517,8.224959,991.9823,0,0
58.72,-0.23108217,5.1222897000000005,8.135008000000001,991.9774,0,0
58.76,-0.28841504,4.9745254999999995,8.172886,991.985,0,0
58.8,-0.17369153,5.112756,8.172886,991.9876,0,0
58.84,0.11790125,5.2652845,8.71261,991.99005,0,0
58.88,0.2135138,5.293883999999999,8.395406,991.9976,0,0
58.92,0.25176054,5.274817,8.603721,991.9848599999999,0,0
58.96,0.14184149,5.141353,8.423816,991.9799,0,0
59.0,0.07494074,5.098454,8.324394,992.0026,0,0
59.04,0.10363601,5.1079870000000005,8.812039,991.99,0,0
59.08,0.008056462,5.1032195,8.338600999999999,991.99255,0,0
59.12,0.15608858,5.250986599999999,8.56584,991.9930400000001,0,0
59.16,0.12264009,5.241453,8.52323,992.0079,0,0
59.2,0.07963200000000001,5.1032224,8.840436,992.0077,0,0
59.24,0.10354118,5.250986,8.295981,991.985,0,0
59.28,0.079652295,5.2319192999999995,8.527967,991.98236,0,0
59.32,-0.19278127,5.1699532999999995,8.314919,991.96515,0,0
59.36,-0.19278127,5.1699532999999995,8.314919,992.0132,0,0
59.4,-0.22144486,5.0698557,8.40961,991.9649,0,0
59.44,-0.0015637428,5.231918299999999,8.248642,991.9753,0,0
59.48,-0.18318611,5.050788400000001,8.830975,992.0002,0,0
59.52,-0.08757986,5.4273467,8.480628999999999,991.9775,0,0
59.56,-0.05889599,5.556043,8.442753999999999,992.0031,0,0
59.6,-0.1401476,5.4845448,8.5989895,991.98785,0,0
59.64,-0.25006276,5.4082794000000005,7.936175,991.9752,0,0
59.68,-0.49382263,5.112753,8.291257,992.00037,0,0
59.72,-0.36954266,5.2462163,8.348069,991.9828,0,0
59.76,-0.21657366,5.3892126,8.262853,991.9926,0,0
59.8,-0.32650405,5.2223825,8.210773,991.9752,0,0
59.84,-0.17353512,5.2462153,8.338605000000001,991.98,0,0
59.88,-0.37906158,5.1318173,8.01193,991.9904,0,0
59.92,-0.12093696,5.4893093,8.376481,992.00543,0,0
59.96,-0.23086739,5.4940752999999996,8.324404,992.0081,0,0
60.0,-0.23085721,5.479776,8.362279,991.9930400000001,0,0
60.04,-0.17348942,5.551273999999999,8.24392,991.98535,0,0
60.08,-0.3551118,5.5322074999999975,7.7420744999999975,991.9904,0,0
60.12,-0.5077604,5.551266,8.296028,991.97504,0,0
60.16,-0.39781415,5.7895937,8.120855,991.9775400000001,0,0
60.2,-0.38823295,5.8038926,8.755268,991.98035,0,0
60.24,-0.2495971,5.794359,8.220283,992.0157,0,0
60.28,-0.13486028,5.455933,7.798922,991.9978,0,0
60.32,-0.3116914,4.874413,8.319709,991.9852,0,0
60.36,-0.05834028,5.651361,7.751581699999999,991.9978,0,0
60.4,-0.2064926,6.1041837,8.002507000000001,992.0079300000001,0,0
60.44,-0.6653321999999999,5.699025,8.243963,991.98773,0,0
60.48,-0.51235694,6.0279174000000015,8.528029,991.9675,0,0
60.52,-0.63183045,5.8849196,8.229764999999999,991.9675,0,0
60.56,-0.7560945,5.6322927000000025,7.988311299999999,992.0028699999999,0,0
60.6,-0.9042360999999999,5.2319007000000015,8.002517,991.9953,0,0
60.64,-0.5122599,5.489294,8.149286,992.0079300000001,0,0
60.68,-0.44055206,5.465461299999999,8.101942999999999,992.0057,0,0
60.72,0.013561636,5.765753299999999,8.111415,991.9780000000001,0,0
60.76,-0.22540697,5.470226,8.258183500000001,992.013,0,0
60.8,-0.33533168,5.5131254,8.002527,992.00037,0,0
60.84,-0.35920918,5.465459,7.9125757,992.0032,0,0
60.88,-0.20623384,5.5464897,8.262922999999999,992.0028699999999,0,0
60.92,-0.21578267,5.494057700000001,8.234518,992.01074,0,0
60.96,-0.23966014,5.3510599999999995,8.845259,991.9831,0,0
61.0,0.123626515,5.7943489999999995,8.045145,992.0031,0,0
61.04,-0.24915507,5.6227519999999975,8.20612,991.9880400000001,0,0
61.08,-0.24915507,5.6227519999999975,8.20612,992.01074,0,0
61.12,-0.04838174,5.684717,8.471248,991.9930400000001,0,0
61.16,-0.048349418,5.4892874,8.163515,992.01074,0,0
61.2,-0.19173273,5.227126599999999,8.064093,992.0033599999999,0,0
61.24,-0.21083035,4.9840317,7.964672599999999,991.99554,0,0
61.28,0.09988920400000001,5.87061,7.6948146999999985,992.0084,0,0
61.32,0.04254237,5.9707074,7.817909700000001,991.9981,0,0
61.36,-0.07769078,6.013625,7.926733500000001,991.9930400000001,0,0
61.4,0.027463406,6.0755906,7.7941704,991.99817,0,0
61.44,0.40028352,5.894461,8.570611999999999,992.01575,0,0
61.48,0.113493785,5.475004,8.4664545,991.9731,0,0
61.52,-0.14939849,5.389206,7.372807000000001,991.9957,0,0
61.56,0.44807398,6.066057,8.073499,992.0336,0,0
61.6,0.24732064,5.8658624,8.509064,992.0234,0,0
61.64,-0.18286625,5.1842445999999995,7.7847,991.9755,0,0
61.68,-0.020354435,5.3844400000000014,7.533776,991.9808,0,0
61.72,0.2568696,5.7228655999999996,8.030889,992.0009,0,0
61.76,0.30466609999999994,5.8277297,8.523266,991.9956,0,0
61.8,0.14692958,5.8658624,8.17292,992.0007300000001,0,0
61.84,-0.1733234,5.2795760000000005,8.092435,991.98035,0,0
61.88,-0.1733234,5.2795760000000005,8.092435,992.0110000000001,0,0
61.92,0.21861596,5.6323013,8.314950999999999,991.9805,0,0
61.96,0.02742076,5.6561346,8.07823,991.9932,0,0
62.0,0.017859608,5.594169,7.974073,992.0312,0,0
62.04,-0.08729906400000001,5.55127,8.177653,992.0007300000001,0,0
62.08,-0.17333862,5.6037019999999975,8.291279,991.99835,0,0
62.12,-0.14466279999999998,5.646601,8.2013235,992.0034,0,0
62.16,-0.22114274,5.465472,8.466451,991.99835,0,0
62.2,-0.14945178,5.465472,7.8415084,992.0135,0,0
62.24,-0.09687697,5.536971,8.168181,991.9680000000001,0,0
62.28,-0.1685771,5.5512705,7.8462429999999985,992.0009,0,0
62.32,-0.13034017,5.5560374,7.940931,992.0208,0,0
62.36,-0.23061106,5.4797697,8.087705999999999,992.0108,0,0
62.4,-0.22105019,5.4511704000000005,8.120847999999999,991.9884599999999,0,0
62.44,-0.25928795,5.4702363,8.348099000000001,992.00323,0,0
62.48,-0.11111215,5.637066,8.319693,992.0160000000001,0,0
62.52,-0.16846855,5.5179024000000005,8.371771,992.0135,0,0
62.56,-0.12544964,5.5274353,8.367038,991.97833,0,0
62.6,-0.09676954,5.460704,8.191864,991.99585,0,0
62.64,-0.1302263,5.4273370000000005,7.912534700000001,992.0211,0,0
62.68,-0.10154617,5.379671599999999,8.66057,991.9934,0,0
62.72,-0.14456376,5.4464035000000015,8.627429,992.0161,0,0
62.76,-0.111103915,5.403505,8.646367,992.0110000000001,0,0
62.8,-0.063303925,5.4273370000000005,8.172927,992.0210599999999,0,0
62.84,-0.12066032,5.2414412000000015,8.433319000000001,992.0187400000001,0,0
62.88,-0.12066032,5.2414412000000015,8.433319000000001,992.0210599999999,0,0
62.92,-0.19713529999999999,5.1985426,8.371773,992.0087,0,0
62.96,-0.25927085,5.098445,8.651102999999999,991.9934,0,0
63.0,-0.26882982,5.1508769999999995,8.651102999999999,992.0034,0,0
63.04,-0.24970995,5.203309,8.50907,992.0087,0,0
63.08,-0.2736077,5.098445,8.513803999999999,992.0161,0,0
63.12,-0.2305876000000001,5.0841449999999995,8.428586,991.9757699999999,0,0
63.16,-0.14454919,5.1556435,8.348101,992.00604,0,0
63.2,-0.14454919,5.1556435,8.348101,992.00104,0,0
63.24,-0.17800589,5.2462077,8.622698,992.03656,0,0
63.28,-0.17800529999999998,5.2319083,8.5422125,992.0263,0,0
63.32,-0.17800403,5.203309,8.385977,992.0086699999999,0,0
63.36,-0.31114036,5.0316954,8.291352999999999,992.0288,0,0
63.4,-0.2920066,5.088894,8.229807000000001,992.0388,0,0
63.44,-0.16290812,5.2271230000000015,8.613296499999999,992.0062,0,0
63.48,-0.21067698,5.2271222999999996,8.352908,992.0011599999999,0,0
63.52,-0.21063325,5.1985220000000005,8.4712715,992.00854,0,0
63.56,-0.21063325,5.1985220000000005,8.4712715,992.0161,0,0
63.6,-0.2249435,5.2557197,8.404992,991.99854,0,0
63.64,-0.1723365,5.2747855,8.442871,992.0161,0,0
63.68,-0.26312357,5.2318854,8.248763,991.9985,0,0
63.72,-0.3013183,5.2318845000000005,8.494956,992.0237400000001,0,0
63.76,-0.35386693,5.2175839999999996,8.352926,992.01355,0,0
63.8,-0.26302147,5.2652493,8.405007000000001,992.0161,0,0
63.84,-0.31557012,5.2223487,8.258244,992.00854,0,0
63.88,-0.2534181,5.322446299999998,8.2109,992.0188,0,0
63.92,-0.31074655,5.270014,8.395546000000001,992.00366,0,0
63.96,-0.23902036,5.3415117,8.542314999999999,992.0086699999999,0,0
64.0,-0.3106882,5.303378599999999,8.452364,992.02386,0,0
64.04,-0.22938779999999998,5.331976999999998,8.376617,992.0389,0,0
64.08,-0.35363352,5.2700105000000015,8.149367999999999,992.0038,0,0
64.12,-0.34883913,5.3605747,8.2109165,992.0188,0,0
64.16,-0.37748876,5.36534,8.570734,992.0239,0,0
64.2,-0.35356063,5.3653393,8.542330999999999,992.0288,0,0
64.24,-0.16232468,5.522635,8.215661,992.01135,0,0
64.28,-0.18620910000000002,5.479735400000001,8.3150835,992.0011599999999,0,0
64.32,-0.3678125,5.3701042999999995,8.040492,992.0189999999999,0,0
64.36,-0.5016324000000001,5.2461734,7.817976,992.0165,0,0
64.4,-0.35413662,5.4177856,8.177729,992.0165,0,0
64.44,-0.37325454,5.5131172999999984,8.215603999999999,992.0088,0,0
64.48,-0.3493536,5.565549400000001,8.154057,992.0112,0,0
64.52,-0.31589437,5.5417166,8.073572,992.0112,0,0
64.56,-0.38281035,5.4177856,7.997822,992.00885,0,0
64.6,-0.45450616,5.4320855,8.225073,992.0314300000001,0,0
64.64,-0.38758695,5.408253,8.315027,992.0165,0,0
64.68,-0.35890758,5.4559182999999996,8.281887,992.0342400000001,0,0
64.72,-0.19161248,5.584615,8.030963,991.99115,0,0
64.76,-0.3158861,5.3891864,8.049901,991.9989,0,0
64.8,-0.26330703,5.432085,8.371841,992.0165,0,0
64.84,-0.26330640000000005,5.4749846,8.258215,992.01404,0,0
64.88,-0.27286409999999994,5.4940505,8.078307,992.0191699999999,0,0
64.92,-0.17248696,5.50835,8.504404,992.0063,0,0
64.96,-0.253743,5.432085,8.210871000000001,992.02905,0,0
65.0,-0.29197952,5.422552,8.248747,992.0367,0,0
65.04,-0.29197952,5.422552,8.248747,992.0342400000001,0,0
65.08,-0.23940039,5.4273185999999995,8.400249,991.9963,0,0
65.12,-0.41147143,5.3605865999999995,8.244013,992.01404,0,0
65.16,-0.25373662,5.441618,8.286622,992.0214,0,0
65.2,-0.21071713,5.4273185999999995,8.348169,992.01166,0,0
65.24,-0.26329369999999996,5.484516999999999,7.9552145,992.0214,0,0
65.28,-0.2728514,5.436852,8.428656,992.03174,0,0
65.32,-0.2728514,5.436852,8.428656,992.0216,0,0
65.36,-0.37800515,5.3748865,8.19667,992.0165,0,0
65.4,-0.22504959,5.4463844,8.225076,992.05176,0,0
65.44,-0.36844245,5.2938547,8.258217,992.01886,0,0
65.48,-0.34454274,5.35582,8.196671,992.0115400000001,0,0
65.52,-0.13900929999999995,5.565548400000001,8.215607,992.0165400000001,0,0
65.56,-0.18202624,5.536949,8.381311,992.0038,0,0
65.6,-0.15812597,5.5893809999999995,8.262952,992.0416,0,0
65.64,-0.15812597,5.5893809999999995,8.262952,992.0039999999999,0,0
65.68,-0.31107777,5.3653526,8.277156,992.0139999999999,0,0
65.72,-0.34453517,5.4034853,8.1872015,992.0243,0,0
65.76,-0.32063484,5.4320846,8.225077,992.0165400000001,0,0
65.8,-0.24415672,5.4702168,8.040435,992.0292,0,0
65.84,-0.24893528,5.536949,8.234546,991.9888,0,0
65.88,-0.28717306,5.551248999999999,8.12092,992.01666,0,0
65.92,-0.44012487,5.3415203,8.258218,992.0141,0,0
65.96,-0.44968385,5.331987000000002,7.9599509999999984,992.00903,0,0
66.0,-0.22025138,5.5131164,8.172999,992.0191,0,0
66.04,-0.18201229,5.5798483,8.087779,992.0039999999999,0,0
66.08,-0.16289183,5.532182,8.059372999999999,992.0039999999999,0,0
66.12,-0.26804623,5.4130187,8.428658,991.99896,0,0
66.16,-0.25370556,5.508349,8.296094,991.9889,0,0
66.2,-0.23936422,5.5274152999999995,8.120921000000001,992.0191699999999,0,0
66.24,-0.33495903,5.5226489999999995,8.262953,992.01166,0,0
66.28,-0.3636366,5.379652,8.433392999999999,992.0191699999999,0,0
66.32,-0.38753498,5.3748856,8.404985,991.9889,0,0
66.36,-0.30602702,5.436845,8.15882,992.0091,0,0
66.4,-0.32990888,5.4654435999999995,8.149352,992.0039999999999,0,0
66.44,-0.28688496,5.4940430000000005,8.168289999999999,992.0065,0,0
66.48,-0.2916534,5.4988093000000005,8.120948,992.00146,0,0
66.52,-0.32988036,5.417777,8.442888,992.0091,0,0
66.56,-0.39678618,5.408244,8.106747,992.0242,0,0
66.6,-0.3250777,5.4320765,8.362406,992.01166,0,0
66.64,-0.30595282,5.4273095,8.158827,992.03436,0,0
66.68,-0.26770297,5.489275,8.423954,991.99896,0,0
66.72,-0.29158488,5.3987099999999995,8.149361,992.0141,0,0
66.76,-0.28679937,5.3176785,8.452363,992.00903,0,0
66.8,-0.29634184,5.446375,8.215644000000001,992.0042,0,0
66.84,-0.27243137,5.4368415,8.315066999999999,992.0091,0,0
66.88,-0.17682388,5.5131063,8.343474,992.02936,0,0
66.92,-0.25806344,5.403474299999999,8.035739999999999,992.0368699999999,0,0
66.96,-0.25806344,5.403474299999999,8.035739999999999,992.03436,0,0
67.0,-0.2293675000000001,5.4225407,8.371885,992.0269,0,0
67.04,-0.39664918,5.336742,8.466574000000001,991.99646,0,0
67.08,-0.39664918,5.336742,8.466574000000001,992.0495,0,0
67.12,-0.26757166,5.3939404,8.490248,992.0091,0,0
67.16,-0.37272164,5.3558080000000015,8.154106,992.0219999999999,0,0
67.2,-0.28667378,5.398706400000001,8.362421000000001,992.0169,0,0
67.24,-0.2436441000000001,5.360574,8.234592999999998,991.98914,0,0
67.28,-0.23884717,5.4034724,8.405033,992.00684,0,0
67.32,-0.21972226,5.408239,8.324549000000001,991.9991,0,0
67.36,-0.21971655,5.403472,8.244064,992.0068,0,0
67.4,-0.37689877,5.3414936,8.286724000000001,992.01685,0,0
67.44,-0.42468100000000003,5.3081274,8.263053999999999,992.0191699999999,0,0
67.48,-0.3625118,5.3319592,8.409823,992.0043,0,0
67.52,-0.20474657,5.389157,8.348279,992.0245,0,0
67.56,-0.10433899,5.4082227,8.319875,991.9965,0,0
67.6,-0.08040825,5.503553,8.187315,992.0143,0,0
67.64,-0.20463558,5.308123,8.33882,992.02185,0,0
67.68,-0.30499566,5.303356,8.064225,992.0066,0,0
67.72,-0.33365858,5.3653207,8.073696,992.0119,0,0
67.76,-0.4339869000000001,5.2270894,8.476125,992.0119,0,0
67.8,-0.16627033,5.4177504,8.286753,992.0269,0,0
67.84,-0.20927270000000006,5.40345,8.201536,992.0195,0,0
67.88,-0.18056215,5.4225163,8.192069,992.0219999999999,0,0
67.92,-0.30958515,5.284285,8.395652,992.0093400000001,0,0
67.96,-0.36214718,5.279518,8.371982000000001,992.0219999999999,0,0
68.0,-0.36209962,5.28905,8.300969,992.00183,0,0
68.04,-0.3190496,5.322415,8.371989,992.0143,0,0
68.08,-0.24254107,5.3796124,8.357788000000001,992.01184,0,0
68.12,-0.28076363,5.3462462,8.168414,992.0095,0,0
68.16,-0.2615969,5.2985796999999994,8.206292999999999,992.0319,0,0
68.2,-0.18986812,5.3700779999999995,8.428813,992.02435,0,0
68.24,-0.24243009999999998,5.289046,8.5566435,992.0144,0,0
68.28,-0.32843482,5.3605433,8.002721000000001,992.0093400000001,0,0
68.32,-0.3522863,5.217544999999999,8.608728,992.0196,0,0
68.36,-0.3538677,5.241417,8.215629,991.9968,0,0
68.4,-0.20094697,5.303383,8.381330499999999,992.0194,0,0
68.44,-0.2822531,5.2318854,8.404997,992.0016,0,0
68.48,-0.2631504000000001,5.217587,8.296104,992.0219999999999,0,0
68.52,-0.22014862,5.2604856,8.395526,991.9942599999999,0,0
68.56,-0.14848453,5.3701177000000015,8.362381,992.03723,0,0
68.6,-0.3110308,5.255721,8.509145,992.0168,0,0
68.64,-0.20114484,5.3796525,8.315029,992.0168,0,0
68.68,-0.27285835,5.2890887000000015,8.513874000000001,992.0222,0,0
68.72,-0.39238644,5.174691999999999,8.177728,992.0458,0,0
68.76,-0.31117922,5.203293,8.196661,992.04785,0,0
68.8,-0.32555163,5.1603947,8.409706,992.0452,0,0
68.84,-0.30166909999999997,5.217593,8.376563,992.0174,0,0
68.88,-0.22522523,5.341525,8.41917,992.01965,0,0
68.92,-0.26351315,5.2795606,8.386025,992.0045,0,0
68.96,-0.23964706,5.1937633000000005,8.409694,992.0247,0,0
69.0,-0.24922316,5.227130000000002,8.461771,992.0273,0,0
69.04,-0.25405246,5.279563,8.305531,992.03705,0,0
69.08,-0.2971037,5.1794662,8.447559,992.0045,0,0
69.12,-0.28756058,5.2032995,8.494903,992.0273,0,0
69.16,-0.32103565,5.1937666,8.47123,992.0296599999999,0,0
69.2,-0.30672926,5.250966,8.281851,992.0298,0,0
69.24,-0.22074224,5.236668,8.570642999999999,992.0319,0,0
69.28,-0.28289616,5.212836,8.475955,992.0247,0,0
69.32,-0.14909463,5.3177004,8.272371000000001,992.00964,0,0
69.36,-0.24826005,5.2557054,8.215671,992.0523,0,0
69.4,-0.2625906,5.212806700000002,8.423985,992.0143400000001,0,0
69.44,-0.3581689,5.1699066,8.267750999999999,992.0272,0,0
69.48,-0.30557334,5.184206,8.381378,992.01465,0,0
69.52,-0.29121614,5.1889725,8.438191999999999,992.00964,0,0
69.56,-0.2720703,5.0793405,8.343506,992.0071,0,0
69.6,-0.13820915,5.3224344000000015,8.343509,992.02216,0,0
69.64,-0.24812688,5.1556044000000005,8.698592,992.0346,0,0
69.68,-0.24812688,5.1556044000000005,8.698592,992.0222,0,0
69.72,-0.17163227,5.241402,8.490279,992.0071,0,0
69.76,-0.2098529,5.193736,8.334045,992.0324,0,0
69.8,-0.26717505,5.1889687,8.523425,992.01715,0,0
69.84,-0.27672577,5.2032680000000004,8.286705,992.0324,0,0
69.88,-0.2528179,5.2271004,8.305644000000001,992.0348,0,0
69.92,-0.24323165,5.265232599999999,8.305647,992.0399,0,0
69.96,-0.22888339,5.2461660000000006,8.263038,992.01465,0,0
70.0,-0.26232424,5.222333,8.400338,992.0146,0,0
70.04,-0.3101045,5.3081307,8.334057000000001,992.0222,0,0
70.08,-0.33876556,5.1889663,8.476091,992.0071,0,0
70.12,-0.40087634,5.1555995999999995,8.480827,992.0171,0,0
70.16,-0.38652807,5.146066,8.163624,992.0222,0,0
70.2,-0.2287768,5.317662,8.286719,992.0323,0,0
70.24,-0.2622177,5.2604623,8.409816000000001,992.0323,0,0
70.28,-0.36257583,5.188964,8.267786,992.0121,0,0
70.32,-0.22871467,5.274761,8.665478,992.01984,0,0
70.36,-0.2724454,5.241413,8.48077,992.0172,0,0
70.4,-0.2820165,5.146082,8.386082,991.9893,0,0
70.44,-0.21989045,5.222347,8.35294,992.00964,0,0
70.48,-0.21034797,5.250947,8.461829,992.012,0,0
70.52,-0.21034797,5.250947,8.461829,992.0374,0,0
70.56,-0.21035935,5.2271147000000004,8.338734,992.01465,0,0
70.6,-0.20081688,5.2747803,8.622796000000001,992.0399,0,0
70.64,-0.20560811,5.2700143,8.409747,992.0045,0,0
70.68,-0.18172049999999998,5.2032824,8.476028,991.9895,0,0
70.72,-0.13393389,5.227115599999999,8.191962,992.007,0,0
70.76,-0.16740392,5.2747817,8.163554,992.02234,0,0
70.8,-0.11483748,5.217583,8.603854,992.0297,0,0
70.84,-0.20088536,5.2223496,8.338726,992.0272,0,0
70.88,-0.15309304,5.284315,8.10674,992.01965,0,0
70.92,-0.110091954,5.2128177,8.476022,992.0021,0,0
70.96,-0.08141881,5.279548999999999,8.4050045,992.02216,0,0
71.0,-0.047977335999999995,5.2509502999999995,8.27244,992.0146,0,0
71.04,-0.05755405,5.2557173,8.315047999999999,992.007,0,0
71.08,-0.062339537,5.217585,8.376595,992.0249,0,0
71.12,-0.00021924077999999997,5.3748817,8.220358000000001,992.0249,0,0
71.16,-0.08626138400000001,5.2652516,8.3481865,992.0450400000001,0,0
71.2,-0.16274971,5.169919999999999,8.390794999999999,992.0274,0,0
71.24,-0.1675352,5.208053,8.461811,992.0121,0,0
71.28,-0.07195625,5.246186,8.357650999999999,992.0398,0,0
71.32,-0.13409941,5.2509527,8.338714,992.0272,0,0
71.36,-0.22855118,5.246157599999999,8.305677000000001,992.05,0,0
71.4,-0.19981909,5.2461567,8.390902,992.0272,0,0
71.44,-0.09462785,5.3224206,8.248874,992.0048,0,0
71.48,-0.22364706,5.260454,8.4998,992.02765,0,0
71.52,-0.23317112,5.284286499999999,8.182597999999999,991.9999,0,0
71.56,-0.21403417,5.284286,8.338835000000001,992.0324,0,0
71.6,-0.30479723,5.2509190000000014,8.334105000000001,992.00745,0,0
71.64,-0.20438576,5.2795177,8.390922,992.025,0,0
71.68,-0.24260643,5.3271823,8.485612,992.0098,0,0
71.72,-0.30947036,5.2795157,8.400397,992.0224599999999,0,0
71.76,-0.33335167,5.2318489999999995,8.518759,992.00226,0,0
71.8,-0.34287578,5.312880000000002,8.471417,992.00745,0,0
71.84,-0.32372105,5.365311,8.263106,992.0478,0,0
71.88,-0.28544712,5.389143499999999,8.277314,992.00964,0,0
71.92,-0.39056724,5.22708,8.390941999999999,992.025,0,0
71.96,-0.35227558,5.3176427,8.192102,991.9999,0,0
72.0,-0.35227558,5.3176427,8.192102,992.01495,0,0
72.04,-0.2757632,5.3271747000000005,8.447763,992.0023,0,0
72.08,-0.34264493,5.3653064000000015,8.338875,992.0098,0,0
72.12,-0.46208674,5.3414730000000015,8.215786,992.0175,0,0
72.16,-0.4381522,5.360538,8.329414,992.0224599999999,0,0
72.2,-0.6340887,5.2175403,8.400433999999999,992.0274699999999,0,0
72.24,-0.6197315,5.246139,8.457249000000001,992.0376,0,0
72.28,-0.5814398000000001,5.317636,8.476191499999999,992.02765,0,0
72.32,-0.5431835999999999,5.2604370000000005,8.424114,992.0123,0,0
72.36,-0.4392442,5.3367314000000015,8.348252,992.0098,0,0
72.4,-0.4201327,5.3367314000000015,8.15414,992.0224599999999,0,0
72.44,-0.319772,5.4511294,8.229891,992.01245,0,0
72.48,-0.45363694,5.3033676,8.315106,991.9999,0,0
72.52,-0.47276378,5.317667,8.381388000000001,992.0378,0,0
72.56,-0.5062300000000001,5.308134,8.348246000000001,992.04254,0,0
72.6,-0.32939250000000003,5.4558973,8.291432,991.9999,0,0
72.64,-0.40110475,5.3986993,8.281961,992.0049,0,0
72.68,-0.31986332,5.3939333,8.229882,992.0098,0,0
72.72,-0.44416106,5.3081355000000014,8.305631,992.0123,0,0
72.76,-0.33901298,5.3844012999999995,8.272489,992.0175,0,0
72.8,-0.33424842,5.3748684,8.395581,992.02765,0,0
72.84,-0.4059683,5.374869,8.244079,992.0098,0,0
72.88,-0.41076332,5.3319707,8.381375,992.02,0,0
72.92,-0.34863353,5.3939357,8.381374000000001,992.0174,0,0
72.96,-0.43946499999999994,5.303372,8.116246,992.0047599999999,0,0
73.0,-0.37256294,5.4130025,8.182527,992.01495,0,0
73.04,-0.40602922,5.3558044,8.30562,992.02,0,0
73.08,-0.5016480999999999,5.3605714,8.106774,992.0047599999999,0,0
73.12,-0.48732394,5.3415055,8.158851,992.025,0,0
73.16,-0.5733756,5.2557073,8.42871,992.00995,0,0
73.2,-0.59251004,5.2271085,8.476053,992.01495,0,0
73.24,-0.38700134,5.2986073,8.206189,991.9999,0,0
73.28,-0.43480694,5.2557087,8.438175,992.0299699999999,0,0
73.32,-0.48739243,5.227109400000002,8.352955,992.01245,0,0
73.36,-0.32489434,5.3319745,8.509189,992.0099,0,0
73.4,-0.3483558,5.3414965,8.272509,992.00726,0,0
73.44,-0.54910505,5.0173707,8.641791,992.0099,0,0
73.48,-0.5634431,5.055503400000001,8.54237,991.9997599999999,0,0
73.52,-0.56822044,5.065036,8.2583065,992.0274699999999,0,0
73.56,-0.42004275,5.222332499999999,8.708075,992.025,0,0
73.6,-0.42482,5.3128967000000005,8.4713545,992.00726,0,0
73.64,-0.39613986,5.2652316,8.452416,992.0225,0,0
73.68,-0.41047680000000003,5.203266,8.693872,992.01245,0,0
73.72,-0.47739023,5.1699,8.608653,992.0123,0,0
73.76,-0.54908603,5.103168,8.509231,992.0047599999999,0,0
73.8,-0.57298243,5.0984015,8.310386,992.0225,0,0
73.84,-0.54430115,5.007837,8.774359,991.99725,0,0
73.88,-0.49649799999999994,5.1556,8.3672,992.0050699999999,0,0
73.92,-0.49649799999999994,5.1556,8.3672,992.0403,0,0
73.96,-0.49649543,5.1698995000000005,8.196761,992.01245,0,0
74.0,-0.49171185,5.098401,8.641795,992.0174599999999,0,0
74.04,-0.4725914000000001,5.093635,8.324591,992.0098,0,0
74.08,-0.34353417,5.1413,8.428747999999999,992.0148300000001,0,0
74.12,-0.27661434,5.2223315,8.215699,992.0174599999999,0,0
74.16,-0.32918835,5.2604637,8.087871,992.0403,0,0
74.2,-0.36264578,5.2366314,8.2157,992.0225,0,0
74.24,-0.45345820000000003,5.165133,8.414546000000001,992.02515,0,0
74.28,-0.501255,5.0936346,8.471358,992.0453,0,0
74.32,-0.27182057,5.355795400000001,8.286717,992.0275,0,0
74.36,-0.27127203,5.2795167,8.211017,992.0225,0,0
74.4,-0.33816516,5.2127843,8.405128999999999,992.0376,0,0
74.44,-0.3572724,5.2032504,8.44774,992.0402,0,0
74.48,-0.37159970000000003,5.1889505,8.556633,992.0074,0,0
74.52,-0.3333131,5.341480000000002,8.357792,992.0402,0,0
74.56,-0.39065868,5.322413,8.135277,992.0351,0,0
74.6,-0.44800425,5.255681,8.27731,992.0428,0,0
74.64,-0.53401667,5.098383999999999,8.424078,992.03015,0,0
74.68,-0.43361664,5.193714,8.495096,992.01495,0,0
74.72,-0.35710368,5.222313,8.348333,992.01495,0,0
74.76,-0.23758447,5.3557760000000005,8.400414,992.03015,0,0
74.8,-0.35705549999999997,5.2366114,8.319932000000001,992.0123,0,0
74.84,-0.35703140000000005,5.274743,8.372012,992.0174599999999,0,0
74.88,-0.40958512,5.2556763,8.495109,992.0401,0,0
74.92,-0.5242763,5.1698775,8.144766,992.0126,0,0
74.96,-0.5242763,5.1698775,8.144766,992.0051,0,0
75.0,-0.44775122,5.188943,8.334146,992.02,0,0
75.04,-0.44772714,5.1603427,8.381492999999999,992.02,0,0
75.08,-0.41425649999999997,5.184175,8.424103,992.02026,0,0
75.12,-0.40945256,5.1317425000000005,8.414636999999999,992.03,0,0
75.16,-0.42375582,5.1889405,8.192122,992.0328,0,0
75.2,-0.34725484,5.198473,8.533002,992.0352,0,0
75.24,-0.37592159999999997,5.193706,8.362564,992.0049,0,0
75.28,-0.3615702,5.2366047,8.44305,992.0174599999999,0,0
75.32,-0.40934414,5.179405,8.376771000000002,992.02,0,0
75.36,-0.41546726,5.198505,8.348241,992.03265,0,0
75.4,-0.45850134,5.1508392999999995,8.362442999999999,991.9898699999999,0,0
75.44,-0.47287250000000003,5.136541,8.296159,992.03265,0,0
75.48,-0.3964432000000001,5.165141,8.513937,992.0152,0,0
75.52,-0.39169508,5.198508,8.570746,992.0101,0,0
75.56,-0.35826820000000004,5.2652407,8.485525,992.0151400000001,0,0
75.6,-0.34875613,5.1794434,8.476051,992.0102,0,0
75.64,-0.3774508,5.1937437000000015,8.362424,992.01776,0,0
75.68,-0.415721,5.0984135,8.319811999999999,992.0102,0,0
75.72,-0.2771542,5.3081427,8.25826,992.0124,0,0
75.76,-0.30586475,5.2461785999999995,8.405024000000001,992.0227699999999,0,0
75.8,-0.30586475,5.2461785999999995,8.405024000000001,991.9997599999999,0,0
75.84,-0.31069209999999997,5.2890787,8.343472,992.01495,0,0
75.88,-0.32506323,5.1699150000000005,8.409751,992.0377,0,0
75.92,-0.31551948,5.1842155,8.277186,992.0227699999999,0,0
75.96,-0.2916522,5.3558125,8.073604,992.0277,0,0
76.0,-0.35382137,5.34628,8.130413,992.0102,0,0
76.04,-0.3729564,5.298615,8.480758,992.0225,0,0
76.08,-0.4494967000000001,5.2461843,8.42394,992.0201400000001,0,0
76.12,-0.4160698000000001,5.193753,8.206155,992.0201400000001,0,0
76.16,-0.35396403,5.117488400000001,8.258230000000001,992.0328,0,0
76.2,-0.28228286,5.2461863,8.210884,992.0302,0,0
76.24,-0.124581024,5.3987169999999995,8.352914,992.0152,0,0
76.28,-0.24890349999999997,5.150857,8.6133,992.0127,0,0
76.32,-0.28237796,5.146091,8.348173,992.0127,0,0
76.36,-0.26738337,5.188974,8.36717,992.0126300000001,0,0
76.4,-0.30084777,5.131775,8.556546,992.0076,0,0
76.44,-0.315189,5.088876,8.532875,992.02026,0,0
76.48,-0.21959674,5.103176,8.390841499999999,992.01776,0,0
76.52,-0.14790349,5.112709,8.48553,991.99994,0,0
76.56,-0.100107364,5.241406400000002,8.580217999999999,992.0051,0,0
76.6,-0.042755462,5.336737,8.419247,992.0050699999999,0,0
76.64,0.019380122,5.331971599999998,8.490263,992.0227,0,0
76.68,-0.11446008,5.1079435,8.362432499999999,991.9976,0,0
76.72,-0.10968223,5.098409999999999,8.272478999999999,992.0227699999999,0,0
76.76,-0.124025434,4.9887795,8.584949499999999,991.9975599999999,0,0
76.8,-0.085792676,5.079344,8.386105,992.0204,0,0
76.84,-0.09057438400000001,5.0221457,8.438183,991.9873699999999,0,0
76.88,-0.047559977,5.060278,8.561277,992.0050699999999,0,0
76.92,-0.03322626,5.088877,8.234602,991.99255,0,0
76.96,-0.023670465,5.12701,8.490260000000001,992.0129,0,0
77.0,0.0002266615600000001,5.2080410000000015,8.438182000000001,992.01526,0,0
77.04,-0.18619141,4.941115,8.509196000000001,992.0002,0,0
77.08,-0.1622943,4.974480000000002,8.334023,992.02026,0,0
77.12,-0.033245288,5.0793447,8.319819,991.9976,0,0
77.16,-0.033245288,5.0793447,8.319819,991.9978,0,0
77.2,-0.13840857,5.007846400000001,8.532867999999999,992.0328400000001,0,0
77.24,-0.10495187,5.0221467,8.627555000000001,992.0102,0,0
77.28,0.047996163,5.041213,8.570742,991.9976,0,0
77.32,0.07667117,5.107945,8.5470705,992.0050699999999,0,0
77.36,-0.027790337999999998,4.9792304000000005,8.343554,991.9976,0,0
77.4,-0.12814215,4.9410977,8.774386999999999,992.0027,0,0
77.44,-0.18548775,4.907731,8.603949,992.02026,0,0
77.48,-0.2093506,4.821932299999999,8.442983,992.02026,0,0
77.52,-0.11373039999999998,4.902963,8.509266,992.0001,0,0
77.56,-0.07070012,4.89343,8.551877000000001,992.0278300000001,0,0
77.6,0.0058008283,5.031659599999999,8.47613,992.0027,0,0
77.64,-0.056312524,4.9935265,8.727055,992.0102,0,0
77.68,-0.06584803,4.9792260000000015,8.622900999999999,991.9826,0,0
77.72,-0.19009882,4.8791275,8.5471525,991.995,0,0
77.76,-0.13270505,4.9124928,8.679718,992.0102,0,0
77.8,-0.13747278,4.907726,8.5945015,992.03796,0,0
77.84,-0.10399004,4.945858,8.357782,992.03796,0,0
77.88,-0.06572752,4.8838916,8.717599,992.02545,0,0
77.92,-0.046584234,5.007821599999999,8.532960000000001,992.0179,0,0
77.96,-0.06567932,4.950623,8.646587,992.0126300000001,0,0
78.0,-0.02263698,4.960155,8.6939335,992.02295,0,0
78.04,-0.04173211,4.9649215,8.599248,992.0102,0,0
78.08,-0.13729204,4.82669,8.532969,992.01526,0,0
78.12,-0.13729204,4.82669,8.532969,991.995,0,0
78.16,-0.036879994,4.8791212999999996,8.514036,992.0204,0,0
78.2,-0.07032655,4.898187,8.447755,992.0179,0,0
78.24,-0.09896925,4.8695865,8.722353,991.99994,0,0
78.28,-0.11806434,4.9220185,8.561386,991.99994,0,0
78.32,-0.094141215,4.917251599999998,8.461966499999999,992.0179,0,0
78.36,-0.11403005,5.0841,8.400348,992.0079,0,0
78.4,-0.1522723,5.074567,8.603928,992.01044,0,0
78.44,-0.19051453,4.984001999999999,8.869053,991.9928,0,0
78.48,-0.094929874,5.069801,8.589723,992.0003,0,0
78.52,-0.14751533,5.045968,8.509236999999999,992.00256,0,0
78.56,-0.07104609,5.0936337,8.584987,991.99994,0,0
78.6,-0.10451613,5.060268,8.618127000000001,992.0050699999999,0,0
78.64,-0.10451613,5.060268,8.618127000000001,992.01526,0,0
78.68,-0.08062468,5.1412997,8.442953,992.0229,0,0
78.72,-0.08063231400000001,5.0745683,8.400343,991.96967,0,0
78.76,-0.20491484,5.065035,8.575515,992.0054,0,0
78.8,-0.11410617,5.136533999999998,8.362466,992.02545,0,0
78.84,-0.13800898,5.127001,8.513966,992.0102,0,0
78.88,-0.17147906,5.088868,8.348261,992.0155,0,0
78.92,-0.12368862,5.0698028,8.513964999999999,992.0052,0,0
78.96,-0.07111837,5.1842,8.343525,992.01526,0,0
79.0,-0.13804324,5.1270013,8.210961,991.9823,0,0
79.04,-0.19063252,5.1937337,8.334055000000001,992.0179,0,0
79.08,-0.20497572,5.2032666,8.244102,992.0079,0,0
79.12,-0.29579959999999994,5.1508346,8.480821,991.9902,0,0
79.16,-0.29581103,5.1365356,8.272506,992.0126300000001,0,0
79.2,-0.31493402,5.1079370000000015,8.225161,992.0129400000001,0,0
79.24,-0.19545037,5.155602,8.173081,991.9902,0,0
79.28,-0.14287629999999998,5.2032676,8.357722,992.0155,0,0
79.32,-0.11898109,5.2032676,8.608647,991.99994,0,0
79.36,-0.19546558,5.2557,8.263034,992.0227,0,0
79.4,-0.25741807,5.1412983,8.641803,992.0101,0,0
79.44,-0.35779396,5.0555005,8.400349,992.023,0,0
79.48,-0.36735356,5.0745664,8.59446,992.023,0,0
79.52,-0.42949104,5.0602665,8.537646,992.0281,0,0
79.56,-0.3338949,5.1555976999999995,8.409818,992.0050699999999,0,0
79.6,-0.4199314,5.012601,8.641803,991.99786,0,0
79.64,-0.42471123,4.9983015,8.532912,992.0003,0,0
79.68,-0.30521613,5.0936327000000015,8.409818,992.0104,0,0
79.72,-0.32433528,5.050733599999999,8.353003999999999,992.0205,0,0
79.76,-0.27653727,5.079333,8.471364999999999,992.023,0,0
79.8,-0.29087670000000004,5.1460648,8.386146,992.0028699999999,0,0
79.84,-0.17616138,5.2127967,8.400349,992.0328,0,0
79.88,-0.26219788,5.0269010000000005,8.54238,992.0028699999999,0,0
79.92,-0.28609687,5.122232,8.457162,992.0028,0,0
79.96,-0.185721,5.1317650000000015,8.490302999999999,992.0231,0,0
80.0,-0.1809412,5.1031656,8.532912,992.0104,0,0
80.04,-0.12836336,5.0555005,8.27252,992.0205,0,0
80.08,-0.114023924,5.0030684,8.50924,992.023,0,0
80.12,-0.04232689,5.122232,8.3624735,992.023,0,0
80.16,0.005471155,5.1412983,8.310395,992.0155,0,0
80.2,-0.018427864,5.1698976,8.376677,992.0054,0,0
80.24,-0.051886477,5.236629499999999,8.495036,992.0307,0,0
80.28,-0.09012492,5.1698976,8.428756,992.0205,0,0
80.32,-0.07578552,5.0078344,8.400349,992.0129400000001,0,0
80.36,-0.061030515,5.088856,8.3293705,992.028,0,0
80.4,-0.06580209,5.107922,8.490341,992.0029,0,0
80.44,-0.02276735,5.1937194,8.362514,992.0205,0,0
80.48,-0.12790656,5.2270856,8.618172999999999,992.0227,0,0
80.52,-0.21391827,5.093621,8.566097000000001,992.01807,0,0
80.56,-0.2617081,5.031656,8.760208,992.0282,0,0
80.6,-0.32860059999999996,5.022122,8.324646000000001,992.008,0,0
80.64,-0.32860059999999996,5.022122,8.324646000000001,992.04083,0,0
80.68,-0.14694329,5.174650700000001,8.443007000000001,992.03076,0,0
80.72,-0.25208253,5.103152,8.4004,992.01807,0,0
80.76,-0.2759733,5.107918700000001,8.338854,992.0155,0,0
80.8,-0.28072837,5.0364194000000015,8.656061,992.0232,0,0
80.84,-0.2329138,5.193715599999999,8.381467,992.01544,0,0
80.88,-0.3141622,5.126983,8.490358,992.008,0,0
80.92,-0.30936593,5.0793175999999995,8.390937,992.0433,0,0
80.96,-0.23764417,5.0554843,8.438283,992.0231,0,0
81.0,-0.25675514,5.0840836,8.334127,992.0155599999999,0,0
81.04,-0.12767571,5.117449,8.367271,992.0332599999999,0,0
81.08,-0.15634628,5.112682,8.372005,992.03076,0,0
81.12,-0.08462444,5.107915,8.703416,992.03815,0,0
81.16,-0.25190938,4.9458513,8.49037,992.023,0,0
81.2,-0.18018755,5.0983806,8.187369,992.0205699999999,0,0
81.24,-0.09890619,5.250910299999998,8.343606,992.0029,0,0
81.28,0.0062577575,5.336708,8.618203,992.04083,0,0
81.32,-0.1753583,5.1222124,8.7128935,992.0155599999999,0,0
81.36,-0.23326936,5.0793266,8.495059,992.0207,0,0
81.4,-0.15202221,5.041195,8.353026,992.0257,0,0
81.44,-0.16636798,4.964930000000002,8.457183,992.0332599999999,0,0
81.48,-0.13769233,5.022128599999999,8.362494,992.013,0,0
81.52,-0.06600478,5.0840945,8.495056,992.0332599999999,0,0
81.56,0.015245557,5.2270913,8.518728999999999,992.0257,0,0
81.6,-0.04211525,5.1841917,8.38143,991.99536,0,0
81.64,-0.15683693,5.1079273,8.537664999999999,992.0205699999999,0,0
81.68,-0.23332012,5.1508265,8.528195,992.0157,0,0
81.72,-0.34804493,4.974464,8.599211,992.0205699999999,0,0
81.76,-0.28591064,4.969698,8.537663,991.998,0,0
81.8,-0.19510070000000002,4.9744644000000005,8.395631,991.99536,0,0
81.84,-0.14252602,5.0221300000000015,8.376693,992.0105,0,0
81.88,-0.08995452,5.0983953,8.698630999999999,992.01825,0,0
81.92,-0.109083265,5.0983953,8.480847,992.0132,0,0
81.96,-0.12342584,5.050729799999999,8.461910000000001,992.0028699999999,0,0
82.0,-0.14733122,4.974465,8.499785000000001,992.0205699999999,0,0
82.04,-0.20947501,4.9410996,8.551863,992.0257,0,0
82.08,-0.14256407,5.041197299999999,8.674956,992.02325,0,0
82.12,-0.20948768,4.931566,8.48558,992.0332599999999,0,0
82.16,-0.07088289,5.0125980000000006,8.547127,992.0234,0,0
82.2,-0.008751765,5.026898,8.622876,992.0484,0,0
82.24,-0.07089558,5.074564,8.182575,992.04083,0,0
82.28,-0.08045832,5.0125985,8.400358,992.0205699999999,0,0
82.32,-0.07568809,4.979233,8.4477005,992.0258,0,0
82.36,-0.04701245,5.0125985,8.466639,992.0309,0,0
82.4,0.048870965999999995,5.031658599999999,8.480868,992.0358,0,0
82.44,-0.056279637,4.9696927,8.547151,992.0129400000001,0,0
82.48,-0.09929536,4.9172606,8.55662,992.0333,0,0
82.52,-0.00368914,5.0125910000000005,8.622902999999999,992.0307,0,0
82.56,-0.00368914,5.0125910000000005,8.622902999999999,992.0155,0,0
82.6,0.053671032,5.060257,8.575559,992.01807,0,0
82.64,-0.022795662,4.9887586,8.225213,992.00323,0,0
82.68,-0.061029002,4.9315596,8.551886999999999,992.03577,0,0
82.72,-0.013228431,4.9220266,8.821749,992.00824,0,0
82.76,-0.027560234,4.936325599999999,8.651311,992.0157,0,0
82.8,-0.022777915,4.922026,8.62764,992.0183,0,0
82.84,-0.0084334165,5.007823999999999,8.532952,992.0283,0,0
82.88,-0.013210653999999999,4.9839907,8.67025,992.0332599999999,0,0
82.92,-0.022762686,4.9696913,8.618172,992.0205699999999,0,0
82.96,-0.12313348,4.922025700000002,8.31517,992.0155,0,0
83.0,-0.13268548,4.9124928,8.5945015,992.04346,0,0
83.04,-0.15180217,4.8886595,8.741268,992.0333,0,0
83.08,-0.14701474,4.950625,8.52822,992.01324,0,0
83.12,-0.0036155432,5.007823,8.542424,992.0310000000001,0,0
83.16,-0.0036155432,5.007823,8.542424,992.0282,0,0
83.2,-0.1278803,4.936324,8.585034,992.0307,0,0
83.24,-0.16611622,4.888659,8.589769,992.0309,0,0
83.28,-0.08485193,4.936324,8.613441,992.0233,0,0
83.32,-0.07051001,4.941091,8.608708,992.0459,0,0
83.36,-0.07051001,4.941091,8.608708,992.0585,0,0
83.4,-0.075121135,4.9649196,8.248908,992.0157,0,0
83.44,-0.094223216,4.8934207,8.89279,992.0382699999999,0,0
83.48,-0.1420098,4.8886538,8.551912,992.01807,0,0
83.52,-0.08942625,4.9744515,8.38621,992.061,0,0
83.56,-0.07507544,4.898186,8.6181965,992.03864,0,0
83.6,-0.027265996,5.007817299999999,8.428822,992.0282,0,0
83.64,-0.13240457,4.9124856,8.788638,992.03577,0,0
83.68,-0.10849981,4.936318,8.599261,992.01074,0,0
83.72,-0.12282211,4.8695855,8.651342,992.0233,0,0
83.76,-0.16105482,4.8648195,8.518778999999999,992.03314,0,0
83.8,-0.03676279,4.936317,8.632406,992.0210000000001,0,0
83.84,-0.06543593,4.922016999999999,8.637141999999999,992.01324,0,0
83.88,-0.12277645,4.926783599999999,8.7034235,992.0210000000001,0,0
83.92,-0.12277645,4.926783599999999,8.7034235,992.0335,0,0
