Timestamp,Ax,Ay,Az,P,LPFRMSAcc,LPFPValue,Value,Type
0.0,0.87041396,4.0780096,9.888246,991.54175,0.022305013521919118,3.5695502999999995,0,0
0.02,0.8751988000000002,4.411668,9.500025,991.55444,0.06377994491342548,10.280350547999998,0,0
0.04,0.8130664000000001,4.378302,9.021851,991.5897,0.12110905252180375,19.742727305159995,0,0
0.06,0.813074,4.4974656,8.695178,991.582,0.1917461071092849,31.602304789487988,0,0
0.08,0.62188447,4.2114725,8.865617,991.58215,0.2739118769433012,45.537354897398046,0,0
0.1,0.44981652,4.0637093,9.002913000000003,991.5897,0.3660788665650634,61.25615361511675,0,0
0.12,0.62667435,4.4498,8.832477,991.5847,0.4667970721726129,78.49446692907856,0,0
0.14,0.38768923,4.1542735,9.192291,991.5695,0.5750930132556221,97.01331069235054,0,0
0.16,0.29209822,4.092308,9.291715,991.5845,0.6898242708838239,116.5970173230852,0,0
0.18,0.5645521,4.3306355000000005,8.628898,991.577,0.8088185356435906,137.05110843963922,0,0
0.2,0.6075754,4.2019386,9.2680435,991.55927,0.9322384040073698,158.20057273184366,0,0
0.22,0.68883973,4.4259663,8.524742,991.5719,1.0579515051731945,179.88837615860092,0,0
0.24,0.54335654,4.373585,8.434598,991.5795,1.1850028848973315,201.97380731231254,0,0
0.26,0.6579932,4.583316,9.149485,991.5695,1.3143128536290059,224.33103877340787,0,0
0.28,0.5241194,4.5213519999999985,9.073731,991.5719,1.4449388017645175,246.84795559284746,0,0
0.30000000000000004,0.2850505,4.5928516,8.619222,991.5643,1.5754661230171216,269.42488213437,0,0
0.32,0.5621613,5.3126050000000005,8.278334,991.5871,1.705606301933963,291.97363841077555,0,0
0.34,0.5143239000000001,5.388871,8.496112,991.592,1.8353966965948727,314.4163455583287,0,0
0.36000000000000004,-0.16930598,5.0027833,8.074739,991.5994,1.9632183062595576,336.6845805898967,0,0
0.38,-0.22670293,4.8693194,8.08894,991.5843,2.088723262984649,358.71843205366656,0,0
0.4,-0.50879,4.4498644,8.401402000000001,991.5969,2.21188844098608,380.4659056916604,0,0
0.42,-0.4801898,4.378369,8.391927,991.59955,2.332453241258744,401.8820545177017,0,0
0.44,0.04073018,4.807361,8.70439,991.5667,2.4512552281630082,422.9282283441282,0,0
0.46,0.61422807,5.5414124000000005,7.975285,991.5844,2.5676293642973262,443.5717897551197,0,0
0.48,0.77666277,5.760676,8.737516000000001,991.5666,2.6830263204825138,463.78522193475334,0,0
0.5,0.2794845,5.4270185999999985,8.126771000000002,991.5843,2.795651728699778,483.54588728971254,0,0
0.52,0.0021379888,5.012331,8.860594,991.5893,2.9062620475951824,502.8353674831117,0,0
0.54,0.20285045,5.069531,9.09731,991.5717,3.0151849579315955,521.6390029790597,0,0
0.56,0.21707194,5.017102,8.145684,991.5616,3.120463894254585,539.9456166525548,0,0
0.5800000000000001,0.45598352,5.141033599999999,8.401335000000001,991.5969,3.2227484205237613,557.747285114506,0,0
0.6,0.42722607,4.921774,8.9126425,991.60693,3.3227052095395195,575.0387340890737,0,0
0.62,0.31247145,4.9074754999999985,8.424995,991.57916,3.4193408329095965,591.8170039362811,0,0
0.64,0.40798897,5.1362724,8.193003,991.5715,3.512534793395,608.081399359103,0,0
0.66,0.47008705,5.1076739999999985,8.486532,991.5891,3.602846235820471,623.8332468770158,0,0
0.68,0.33613459999999995,4.907481,8.865274000000003,991.6069,3.690747682785235,639.0755644950859,0,0
0.7000000000000001,0.36951464,5.0314136,8.917345,991.59894,3.7764256256962003,653.8127604942307,0,0
0.72,0.73748094,5.3412422999999984,9.1493225,991.5666,3.8606086275802562,668.0504607012956,0,0
0.74,0.6657446,5.322177,8.884192,991.56903,3.942664280933701,681.7955594537335,0,0
0.76,0.44714808,5.13625,8.24043,991.5713,4.021178485072231,695.0559213773543,0,0
0.78,0.5283793000000001,5.6272054,7.468721,991.5815,4.095544753901301,707.840269256107,0,0
0.8,0.2893638,5.612907,7.582344,991.5716,4.1661278438738885,720.157951832451,0,0
0.8200000000000001,-0.16952276,5.417478599999999,8.155205,991.5939,4.233849495189845,732.0190255703118,0,0
0.84,0.0120844245,5.4651446,8.586033,991.5864,4.299600678933139,743.4339128730322,0,0
0.86,-0.20304483,5.093354,8.467669500000001,991.5737,4.362762471981633,754.4134105273732,0,0
0.88,-0.1839383,4.9312916,8.4629345,991.5813,4.4232280701449715,764.9686990568505,0,0
0.9,0.078912854,5.102888,8.23568,991.5737,4.480869566266623,775.1111300048918,0,0
0.92,-0.07883336,5.0885887,7.7575035,991.5713,4.534954145580519,784.8522386025634,0,0
0.94,0.32742459999999995,5.527113,8.017894,991.58887,4.586669677794147,794.2037340324968,0,0
0.96,0.43733478,5.469915,8.453456,991.57135,4.636800866389891,803.1772388118691,0,0
0.98,0.7814552,5.765442,8.841675,991.604,4.686403238518394,811.7845639751996,0,0
1.0,0.95828265,5.789275599999999,8.614421,991.5788,4.735024974345237,820.0372557392078,0,0
1.02,0.65712965,5.4127183,9.225157,991.56854,4.783213857785976,827.9468468052243,0,0
1.04,0.34163713,5.488983599999999,7.9137244,991.5738,4.828604213066282,835.5248185026576,0,0
1.06,-0.15548785,5.2268233,7.700674,991.58124,4.870675070555907,842.7825174119001,0,0
1.08,-0.09815557,4.7549353,7.9563293,991.5888,4.90958058584196,849.7311227854242,0,0
1.1,0.045213163,4.259214,8.808519,991.5737,4.946619340223983,856.381543771442,0,0
1.12,0.53271514,4.9789650000000005,8.770641,991.5587,4.982530177199703,862.7444935171104,0,0
1.14,0.31761128,5.3507566,8.249855,991.5838,5.01677234685181,868.8306174157215,0,0
1.16,-0.017013073,5.7845144,7.9799914,991.58386,5.0494537034241205,874.6502281658376,0,0
1.18,-0.5236976999999999,4.8407364,8.922135,991.58386,5.081278862856167,880.2133972992433,0,0
1.2,-0.55238914,4.57381,9.016822,991.5688,5.112152652204083,885.5298929952429,0,0
1.22,-0.6766894,4.5452113,8.443957000000001,991.57886,5.1410100384770105,890.6093248734454,0,0
1.24,-0.3851151,4.9932675,8.183565,991.57104,5.167942294477675,895.460973055481,0,0
1.26,-0.44726455,4.9694347,8.088877,991.5836,5.192888653778018,900.0939308461278,0,0
1.28,-0.9157095,4.778773,8.339798,991.5864,5.216305302587753,904.5169852388973,0,0
1.3,-0.55724823,5.1219660000000005,8.4202795,991.6065,5.238735045617896,908.7387183534884,0,0
1.32,-0.36608016,5.236364,9.665426,991.56604,5.262555132895768,912.7672200914684,0,0
1.34,-0.47126,5.031402,9.490252,991.56116,5.287004634788237,916.6104624108182,0,0
1.36,-0.55255276,4.964671599999999,8.178818,991.5735,5.309494239921358,920.2762182595168,0,0
1.38,-0.6147022,4.959905,7.6959076,991.5761,5.329324573622923,923.7719597016928,0,0
1.4,-0.48568368,5.2316,7.8142643,991.5685,5.347232670890438,927.1048643850728,0,0
1.42,-0.3184147,5.39843,8.121999,991.5559,5.36408707675191,930.2818426915217,0,0
1.44,-0.43315405,5.188701999999998,8.585968,991.56616,5.380539510456221,933.3096442654103,0,0
1.46,-0.5000954000000001,4.7883115,8.42026,991.5685,5.3958668101640574,936.1947416167427,0,0
1.48,-0.41407102,4.793079,8.46287,991.56354,5.410218175943147,938.9433413105597,0,0
1.5,-0.017371371,5.0123405,8.297164,991.5761,5.4235701239639855,941.5614819312983,0,0
1.52,0.05430156,4.959909,8.3871155,991.6015,5.436095770191458,944.0550150488306,0,0
1.54,-0.074789256,5.1029067,8.3492365,991.5534,5.4479321589860845,946.4292950973061,0,0
1.56,0.24543346,5.264971,8.486532,991.59894,5.459542194858616,948.6898196697888,0,0
1.58,0.22629018,5.188706400000001,8.552811,991.5737,5.4709440103105935,950.8416011512232,0,0
1.6,0.011186972,5.0075774000000015,8.032026,991.5486,5.480996237487888,952.8894604640744,0,0
1.62,0.14977719,5.388902,8.794263,991.57104,5.491586379229498,954.8382026392387,0,0
1.64,-0.6245871999999999,4.445125,8.42971,991.55597,5.501024154948912,956.6922951877133,0,0
1.66,-0.73931456,4.2306300000000014,8.628553,991.58356,5.509592507939434,958.4561799168688,0,0
1.68,-0.78714865,4.4546595,8.39183,991.5507,5.517143846572017,960.1338887358504,0,0
1.7,-0.5673018,4.7358866,8.344483,991.5634,5.523931610225066,961.7294584888533,0,0
1.72,-0.47171783,4.831218,8.301872999999999,991.576,5.530031423250513,963.246751472047,0,0
1.74,-0.48606145,4.616723,9.030972,991.5459,5.536618322246153,964.6893084866974,0,0
1.76,-0.49085265,4.7597203000000015,8.784781,991.5811,5.5432983815587376,966.0607623142903,0,0
1.78,-0.5147745,4.607190599999999,8.5812,991.58356,5.549517002936448,967.3644609880204,0,0
1.8,-0.16109192,4.7883205,9.43339,991.5232,5.557024262317091,968.603380596571,0,0
1.82,0.0013985782999999998,5.093381,9.030964,991.53815,5.5652024158260085,969.7806551325388,0,0
1.84,0.22124673,5.241145,9.163527,991.54065,5.574340008495425,970.8992308940428,0,0
1.86,0.058710605,5.0457163000000005,9.045163,991.5532,5.583874007526417,971.961958725689,0,0
1.88,0.025229141,4.9789853,8.675877,991.5434,5.592987330965341,972.9714782263193,0,0
1.9,-0.16120610000000002,5.0028186,7.994121000000002,991.5182,5.6005088806452035,973.9302578554613,0,0
1.92,-0.25204515,4.9551535000000015,8.699546,991.56854,5.607808767473173,974.8409333514917,0,0
1.94,-0.3954621,4.9074883,8.623794,991.55347,5.614710450928506,975.7057713517186,0,0
1.96,-0.36201483,4.9027224,8.576448,991.5486,5.621142456357892,976.5269763918527,0,0
1.98,-0.48153287,4.631029,8.746883,991.56354,5.627184921896509,977.306724794305,0,0
2.0,-0.2664645,4.750193,8.869976,991.5509,5.633186671646862,978.046989513452,0,0
2.02,-0.137444,4.850292,8.893646,991.57117,5.639267644254235,978.7497744690421,0,0
2.04,-0.20915249,4.9027247,8.685331,991.5509,5.645073618554712,979.4168393077127,0,0
2.06,-0.59633946,4.9074917000000005,8.278171,991.55585,5.6499219303290085,980.0499582376546,0,0
2.08,-0.23309717,5.2745166,8.060386,991.5863,5.653893386827166,980.6509129544954,0,0
2.1,-0.49600923,4.702531,8.600104,991.5811,5.65744730845222,981.22126521566,0,0
2.12,-0.94533354,4.1257777,8.912574000000003,991.5687,5.6607280733189365,981.7624792388484,0,0
2.14,-0.59165096,4.712064700000001,8.955182,991.5961,5.6643166820527275,982.2760969844777,0,0
2.16,-0.08023476,5.1267559999999985,8.926772,991.5788,5.668492812962867,982.763419355372,0,0
2.18,-0.16151428,5.4699483,8.647441,991.53827,5.673046212131371,983.2256068646144,0,0
2.2,-0.5009146,4.969461,7.7526350000000015,991.571,5.675814706079081,983.6640391630687,0,0
2.22,-0.5009146,4.969461,7.7526350000000015,991.5562,5.676996091195482,984.079849720996,0,0
2.24,-1.0410668,4.1019487,8.898358,991.54095,5.6780827990877505,984.4741198909848,0,0
2.26,-0.7686407,4.783567,8.159789,991.5811,5.678326004581143,984.8480821415793,0,0
2.28,-0.4723271,5.179192,8.912556,991.55865,5.6795464669909475,985.2026732304947,0,0
2.3,-0.48190957,5.1982584,8.836803,991.5838,5.6815111674182175,985.538961973031,0,0
2.32,-0.5488381999999999,5.1648927,8.775256,991.5534,5.683988174883987,985.8577586828328,0,0
2.34,-0.49629456,4.816935,8.5858755,991.55865,5.686202521508948,986.1599706643556,0,0
2.36,-0.43416858,4.8026357000000015,8.382296,991.55115,5.687788344737728,986.4464134168376,0,0
2.38,0.16327266,5.174428,8.098228,991.6013,5.6886908544972,986.71807182463,0,0
2.4,0.07243356,5.0314317000000015,9.068779,991.5561,5.690565311223048,986.9755260951863,0,0
2.42,0.029403925,4.907501,9.130325,991.5815,5.693280201688969,987.2195941947076,0,0
2.44,-0.027988002,4.7978716,8.491178,991.55853,5.695454441409634,987.4508729363437,0,0
2.46,-0.30897337,4.64055,8.325567,991.5562,5.696693250527821,987.6700100098824,0,0
2.48,-0.026958793,5.021875,8.226144,991.5738,5.697311796158672,987.8776931720256,0,0
2.5,-0.08431338,5.0647730000000015,8.273489,991.58386,5.697511197631662,988.074544214676,0,0
2.52,-0.5383886,4.650083,8.680649,991.55365,5.6976749479605076,988.2610065767892,0,0
2.54,-0.60530275,4.592884,8.718523,991.5587,5.697828388793634,988.437636416276,0,0
2.56,-0.33762762,4.936076,8.3161,991.55365,5.697564197662658,988.6049241913478,0,0
2.58,-0.22768599,5.121971599999998,8.562289999999999,991.58386,5.697562447365677,988.7634638383124,0,0
2.6,-0.42843157,5.074306,8.292428999999998,991.51825,5.697275623170454,988.9134667005524,0,0
2.62,-0.13207762,4.9599085,8.4534,991.54596,5.69688495132726,989.0554862055056,0,0
2.64,-0.23244739,4.540451,8.789543,991.55096,5.696598890136979,989.1899583457423,0,0
2.66,-0.28023928,4.6548485999999984,8.548089,991.5484,5.696077071322514,989.317268318811,0,0
2.68,0.19296743,5.284033999999999,8.704325,991.54865,5.696278147970227,989.4377923850667,0,0
2.7,0.16907458,5.2459016,8.188275,991.5232,5.696164419240612,989.551794917424,0,0
2.72,-0.02211146,5.217302,8.372917999999999,991.5158,5.6960626242094,989.6595979733121,0,0
2.74,-0.031664953,5.322166,8.576497,991.536,5.696446211551637,989.7616078007907,0,0
2.76,-0.37102485,5.0933714000000005,8.595436,991.5537,5.697058562843107,989.8581952162683,0,0
2.78,-0.5669907,4.8741093,8.53389,991.5486,5.697550739231375,989.9496253138057,0,0
2.8,-0.2610771,4.964674,8.368185,991.5183,5.697705319329313,990.0360601768599,0,0
2.82,-0.07465861,5.0218725,8.249825999999999,991.5208,5.697404743996843,990.1177790852181,0,0
2.84,0.054402202,5.1315026,8.638047,991.5208,5.6975117191174425,990.1950367879364,0,0
2.86,0.044848755,5.212534400000001,8.410797,991.5537,5.6976618872924885,990.2681928816218,0,0
2.88,0.1308883,5.288799299999999,8.230889,991.5186,5.697619654435707,990.3373350716284,0,0
2.9,0.049637735,5.212534400000001,8.581237,991.5388,5.697939587165326,990.4027543844604,0,0
2.92,-0.031606622,4.9932723,8.751676,991.51324,5.698652251788496,990.4645566374944,0,0
2.94,-0.22279263,4.959906,8.585973,991.536,5.699381253292082,990.5230223043808,0,0
2.96,-0.32268137,4.9884934,8.017888000000001,991.51605,5.699146137150987,990.5782574673452,0,0
2.98,-0.26531103,5.0838246,8.145719,991.5259,5.698386418991484,990.6304747704587,0,0
3.0,-0.12667137,4.940827,8.306691,991.51605,5.6972910625740845,990.6798020503155,0,0
3.02,-0.21744958,5.064756,8.491336,991.5186,5.696367857059432,990.7264073074164,0,0
3.04,-0.16962616,5.0695224,8.316165,991.5208,5.6952915139898295,990.770447526284,0,0
3.06,-0.164821,4.9837235999999985,8.794342,991.55615,5.694849930502155,990.8121899925806,0,0
3.08,-0.06921222,4.983723,8.9221735,991.57886,5.695200063634101,990.851833647827,0,0
3.1,-0.1791097,5.021855,8.320907,991.5489,5.695210452312285,990.8893722204705,0,0
3.12,-0.179097,4.998022,8.37772,991.5539,5.694996358473407,990.9249336032648,0,0
3.14,-0.33201265,4.840724,8.832227,991.56146,5.69525038014962,990.9586471361298,0,0
3.16,-0.25552312,4.845491,8.808556,991.5412,5.695874134382117,990.9905336040796,0,0
3.18,-0.27939677,4.9169884,8.496087,991.5412,5.696331251194349,991.0206908861846,0,0
3.2,-0.241133,4.850256,8.718606,991.5539,5.696971076329571,991.049257413463,0,0
3.22,-0.4227401,4.6738925,8.510295,991.5513,5.697226837797992,991.0763061502776,0,0
3.24,-0.394036,4.6071606,8.53397,991.5412,5.6971167183396085,991.1018800319856,0,0
3.26,-0.37968388,4.630993,8.713878,991.5564,5.6970352617475095,991.1261133857485,0,0
3.28,-0.2601634,4.7167907,8.548177,991.5539,5.696753526247207,991.1490660089439,0,0
3.3,-0.45131755,4.7167897000000005,8.676009,991.5666,5.696543088728544,991.1708500691676,0,0
3.32,-0.32223743,4.764454,8.486635,991.5363,5.696089450612282,991.191414084532,0,0
3.34,-0.48950517,4.5737915000000005,9.031094,991.559,5.696248061762242,991.2109077578036,0,0
3.36,-0.5659694000000001,4.468927,9.021626,991.5565,5.696840331516013,991.2293764995784,0,0
3.38,-0.5802834,4.383128,8.723361,991.57916,5.697182083118237,991.2469547004124,0,0
3.4,-0.69496065,4.4641585,9.059507,991.5363,5.698015611490897,991.2635284417474,0,0
3.42,-0.4798568,4.611922,8.969555,991.5538,5.699225851373402,991.2792179772008,0,0
3.44,-0.4224738,4.4927573,8.756509,991.5389,5.700252672205483,991.2940161060096,0,0
3.46,-0.41398227,4.511849400000001,8.988397,991.5564,5.701560342763777,991.3080363146436,0,0
3.48,-0.46656966,4.540449,8.600175,991.52856,5.702426792076722,991.3212184562597,0,0
3.5,-0.48570788,4.5118504,8.590703999999999,991.5563,5.702857147558211,991.333712490149,0,0
3.52,-0.54307514,4.3926864000000005,9.083081,991.5717,5.7037081166363635,991.3456089735292,0,0
3.54,-0.5478834,4.3831544000000005,8.922108999999997,991.5766,5.7046192473378925,991.3569522739392,0,0
3.56,-0.43796694,4.3068895,9.352939,991.56146,5.706308810431597,991.3677114419952,0,0
3.58,-0.5096831000000001,4.359322,8.671183000000001,991.5263,5.7074589085608896,991.3777891616983,0,0
3.6,-0.3471888,4.3783894,8.500742,991.57416,5.707815738963959,991.3874007698461,0,0
3.62,-0.6005374,4.149595,9.073604,991.549,5.708358159788393,991.3964753440337,0,0
3.64,-0.49540073,4.3307242,9.135148,991.54395,5.709325190300465,991.4050245465477,0,0
3.66,-0.5814563,4.1734285,8.955239,991.554,5.710196751801512,991.413114933521,0,0
3.68,-0.4428705,4.278293,8.85108,991.54395,5.710863894830421,991.4207346056903,0,0
3.7,-0.31861466,4.359325,8.898422,991.5389,5.7115001080050485,991.4278927434384,0,0
3.72,-0.371202,4.3736253,8.794265,991.5591,5.711929661426938,991.4346900200765,0,0
3.74,-0.5863218000000001,4.235396,8.993107,991.5717,5.712443223586549,991.4411893296416,0,0
3.76,-0.5767715999999999,4.2735286,8.893683,991.549,5.712875704318567,991.4473202379864,0,0
3.78,-0.7393135000000001,4.21633,8.822664,991.5616,5.71307349333091,991.4531489157432,0,0
3.8,-0.58159906,4.225864,9.012039,991.54645,5.713404715428206,991.4586350193124,0,0
3.82,-0.4621135,4.3831606,8.988366000000003,991.5692,5.713936209573375,991.4638805743567,0,0
3.84,-0.42867386,4.335495,8.964692999999997,991.5717,5.714552199844428,991.4689036967261,0,0
3.86,-0.48605055,4.349796,8.5954075,991.53894,5.714572147267965,991.4735942583436,0,0
3.88,-0.43349177,4.3831615,8.959954,991.5717,5.7147687235561335,991.4780920192584,0,0
3.9,-0.49563873,4.4498940000000005,8.619077,991.54895,5.714556629086431,991.4823213295336,0,0
3.92,-0.65340084,4.297365,9.258218,991.5388,5.715055001863653,991.4862616713064,0,0
3.94,-0.67730933,4.2830653,9.20614,991.55396,5.716072139806912,991.4899870712802,0,0
3.96,-0.5195949000000001,4.4784945999999985,8.817917,991.559,5.716977401461003,991.4935272812404,0,0
3.98,-0.6429574,4.411741,9.040517,991.55646,5.718147202969918,991.4968819685488,0,0
4.0,-0.52821547,4.5452037,8.974236999999997,991.5718,5.719532825949348,991.5001158751677,0,0
4.02,-0.38959226,4.6596007,8.907958,991.55164,5.721077378108982,991.5031588419057,0,0
4.039999999999999,-0.36566663,4.640534,8.26408,991.5592,5.721560255693678,991.5060493554843,0,0
4.06,-0.37042868,4.611934,8.799069,991.5894,5.722052051657318,991.5089034756026,0,0
4.079999999999999,-0.41343808,4.5452023,8.846414999999997,991.56903,5.722576919060312,991.511641831627,0,0
4.1,-0.36084244,4.731097,8.685447,991.54913,5.723009929200745,991.5141964004164,0,0
4.119999999999999,-0.46597153,4.669131299999999,8.742262,991.55896,5.723412083847718,991.516614766357,0,0
4.14,-0.46595383,4.702497,8.311433000000001,991.5667,5.723035069139638,991.5189319413432,0,0
4.159999999999998,-0.6475685999999999,4.478468,8.600232,991.57666,5.722297548489761,991.5211872181723,0,0
4.18,-0.45157886,4.7596946,8.188341000000001,991.5465,5.720753485542439,991.5232711067932,0,0
4.199999999999998,-0.41333157,4.8264265,8.415594,991.5667,5.718976654389698,991.525268774794,0,0
4.22,-0.56148773,4.5880980000000005,9.059475,991.5515,5.717957412614077,991.5271283466504,0,0
4.239999999999998,-0.41807592,4.7501607,8.723333,991.554,5.717135385425975,991.5288682022948,0,0
4.26,-0.441966,4.773993,8.666521000000001,991.5667,5.7164130317483615,991.5305417332138,0,0
4.2799999999999985,-0.38936156,4.8264246,8.462944,991.5643,5.715461189632161,991.5321419948942,0,0
4.3,-0.25550932,4.726326,8.642853,991.5616,5.714525745140714,991.5336620349333,0,0
4.3199999999999985,-0.35108766,4.597629,8.751745,991.56177,5.713687327081598,991.5351063309863,0,0
4.34,-0.26980436,4.645293700000002,8.604981,991.5615,5.712709764532541,991.5364775281872,0,0
4.3599999999999985,-0.46575862,4.4736977,8.51503,991.57434,5.711295785981367,991.5378254229324,0,0
4.38,-0.5278871999999999,4.4450980000000015,8.439280499999999,991.5692,5.7093411811269235,991.5391293712064,0,0
4.4,-0.46573198,4.4641633,8.879581,991.5718,5.707740118616445,991.5403991541654,0,0
4.42,-0.60431963,4.5547276,8.55291,991.5641,5.705957154598856,991.5416064574324,0,0
4.44,-0.46568763,4.630992,9.28201,991.5615,5.705422140369295,991.5427448473528,0,0
4.46,-0.48530024,4.5499730000000005,8.922151,991.5692,5.705250798866889,991.543845967236,0,0
4.48,-0.48530024,4.5499730000000005,8.922151,991.5716,5.705401415415598,991.5449188312823,0,0
4.5,-0.48530406,4.5070739999999985,8.775383,991.5643,5.705524167065637,991.5459365861617,0,0
4.52,-0.47096592,4.4594083,8.694898,991.54926,5.705426570717153,991.5468478386624,0,0
4.539999999999999,-0.39927143,4.52614,8.941087,991.577,5.705646467019397,991.5477615691533,0,0
4.56,-0.56178725,4.416509,8.889008500000003,991.57434,5.705963690491734,991.5486646237656,0,0
4.579999999999999,-0.4518543,4.3259454,9.102056,991.5666,5.706669792582092,991.5495271301758,0,0
4.6,-0.40883863,4.454642,8.770647,991.5894,5.707213324468121,991.5504327831712,0,0
4.619999999999999,-0.43751997,4.435576,8.870069500000003,991.5666,5.7077803527853765,991.5512912201384,0,0
4.64,-0.5665772,4.292579,8.82746,991.5542,5.708169122503241,991.5520602066499,0,0
4.659999999999998,-0.5044436,4.392677,8.903210000000003,991.5793,5.708624556844988,991.5528377463879,0,0
4.68,-0.56658226,4.368844,9.106789,991.5994,5.709502459446982,991.5536924046132,0,0
4.699999999999998,-0.52356786,4.3116455,8.477114,991.5769,5.709521333010649,991.5545311279643,0,0
4.72,-0.509231,4.3307123,8.893742,991.5693,5.709571309200647,991.5553253918573,0,0
4.739999999999998,-0.5618101,4.368844,8.77538,991.5769,5.709469098124592,991.5561048720218,0,0
4.76,-0.5952713000000001,4.306878599999999,9.04524,991.5568,5.70968398724231,991.556796123156,0,0
4.7799999999999985,-0.58571416,4.3450117,8.675957,991.59467,5.709523354010488,991.5575432586148,0,0
4.8,-0.4949004,4.335478299999999,8.889006,991.56177,5.709408697448961,991.5582186437754,0,0
4.8199999999999985,-0.4375453,4.3688445,8.889006,991.5517,5.709359931095421,991.5587919469856,0,0
4.84,-0.33717328,4.5118413,8.884269999999997,991.55927,5.709485375318248,991.5593002386928,0,0
4.8599999999999985,-0.4471100000000001,4.43081,9.007364,991.5821,5.709926682818142,991.5598314443864,0,0
4.88,-0.48535097,4.4308105000000015,8.955287,991.5542,5.710552230179642,991.560280544537,0,0
4.9,-0.6144095,4.187716,8.893739,991.55676,5.711018820108224,991.56066469547,0,0
4.92,-0.61441076,4.2306147,8.945816,991.5618,5.711478952488916,991.5610082183307,0,0
4.94,-0.60485494,4.225848,8.614408000000001,991.5567,5.711306813602159,991.5612962455444,0,0
4.96,-0.6238818,4.20678,8.694901,991.5367,5.710711912834912,991.561462199906,0,0
4.98,-0.52828455,4.378376,8.860606,991.582,5.710199167879728,991.5616827732608,0,0
5.0,-0.5378421999999999,4.3688426,8.898480000000003,991.5391,5.709823703252665,991.561796373893,0,0
5.02,-0.51394194,4.3354764,8.836933,991.60223,5.709423063353486,991.5620423124658,0,0
5.039999999999999,-0.4804827,4.34501,8.789589999999999,991.5417,5.708918685319648,991.5621863914638,0,0
5.06,-0.51872045,4.364076,8.7043705,991.5794,5.708187800821338,991.5623756686572,0,0
5.079999999999999,-0.4900397,4.373609,8.99317,991.5644,5.707802643243396,991.5625502015781,0,0
5.1,-0.48047954,4.321177,9.031045,991.5669,5.70774692024778,991.5627200781412,0,0
5.119999999999999,-0.4900372,4.4212747000000014,8.732778,991.59216,5.707519689485356,991.5629761647913,0,0
5.14,-0.50915515,4.387909,8.619152,991.5819,5.70690211189636,991.5632705687616,0,0
5.159999999999998,-0.5617317,4.34501,8.633355,991.5694,5.7059339812195375,991.5635527700628,0,0
5.18,-0.5665109,4.4689407,8.55287,991.5746,5.70462891492061,991.56384189316,0,0
5.199999999999998,-0.61430764,4.211546,8.79906,991.5568,5.703254702678867,991.5640720115132,0,0
5.22,-0.5904074,4.3068767,9.215687,991.5719,5.702687285782328,991.5643035248488,0,0
5.239999999999998,-0.4661306,4.5023055,8.964765,991.572,5.702529521321805,991.5645357973427,0,0
5.26,-0.571285,4.2925773000000005,8.964765,991.5719,5.7025539277215875,991.5647675444476,0,0
5.2799999999999985,-0.49002767,4.3450093,9.1494055,991.5668,5.703123046667563,991.5649796330298,0,0
5.3,-0.46134764,4.445107,8.751717,991.54175,5.703519125080272,991.5650834078219,0,0
5.3199999999999985,-0.5856206,4.3879085,8.7185755,991.5444,5.7036597252716685,991.5651006429604,0,0
5.34,-0.74813265,4.2592115,8.661762,991.5694,5.703372896058442,991.5651313496138,0,0
5.3599999999999985,-0.74813265,4.2592115,8.661762,991.582,5.70270942280846,991.5652192091542,0,0
5.38,-0.51869893,4.297344,8.926889,991.58716,5.702213763992883,991.565375828691,0,0
5.4,-0.51869893,4.297344,8.926889,991.5945,5.70186817038328,991.5656190647304,0,0
5.42,-0.29404622,4.583337,9.083126,991.56934,5.702191158101808,991.565847383462,0,0
5.44,-0.3036052,4.5404377,8.969501,991.58215,5.702853443603503,991.5661078153128,0,0
5.46,-0.5660484,4.406964,8.784899000000001,991.5794,5.703369988152431,991.5663857847608,0,0
5.48,-0.5660484,4.406964,8.784899000000001,991.55695,5.7037558964351165,991.56659742974,0,0
5.5,-0.6281382,4.240133,8.619199,991.5419,5.703571060985968,991.5666955284967,0,0
5.52,-0.6281382,4.240133,8.619199,991.58466,5.702882581782992,991.5668468806557,0,0
5.539999999999999,-0.58988076,4.3545300000000005,8.955344,991.5621,5.7024772887913695,991.5669635266527,0,0
5.56,-0.4655773,4.4498596,8.855922999999997,991.5771,5.702212670171902,991.5671030863596,0,0
5.579999999999999,-0.4655773,4.4498596,8.855922999999997,991.5419,5.702073304054703,991.567135670206,0,0
5.6,-0.46076894,4.3735943,8.765972,991.5444,5.701806761823951,991.5670826128796,0,0
5.619999999999999,-0.45596057,4.416493,8.595537,991.5444,5.701152877638825,991.5669540740199,0,0
5.64,-0.35078585,4.5022907,8.950619,991.5618,5.700888213474691,991.5668219424167,0,0
5.6599999999999975,-0.4511522,4.4021926,9.097386,991.5419,5.7011580834501885,991.5666154719397,0,0
5.68,-0.50848126,4.359293,8.912746,991.56714,5.701521337759197,991.5664349229272,0,0
5.6999999999999975,-0.4750036,4.406958,8.590809,991.56195,5.701409101514093,991.5662592440973,0,0
5.72,-0.40806735,4.364058999999999,8.718639,991.5571,5.701067291725752,991.5660710410043,0,0
5.7399999999999975,-0.3984887,4.5118212999999985,8.945892,991.55194,5.701082525456912,991.5658538730037,0,0
5.76,-0.45105696,4.4450892999999985,8.822799,991.5545,5.701127222335312,991.5656211094156,0,0
5.7799999999999985,-0.52752435,4.3735905,8.666565,991.5645,5.7008493107356415,991.5654114035153,0,0
5.8,-0.54183525,4.3211575,8.922226,991.54926,5.700716375417818,991.5651679623293,0,0
5.8199999999999985,-0.4127615,4.487986599999998,8.85121,991.55707,5.700720832331519,991.5649237050328,0,0
5.84,-0.38885292,4.507053,8.945899,991.55725,5.7010380435416845,991.5646802539472,0,0
5.8599999999999985,-0.49876934,4.31639,9.03112,991.52686,5.70162499639352,991.564328987654,0,0
5.88,-0.41270435,4.449853,8.628698,991.54956,5.701814809553977,991.5639654404016,0,0
5.9,-0.5512996,4.3545213,8.874889999999997,991.55206,5.702034801359824,991.5636013504643,0,0
5.92,-0.54173046,4.387887,9.007454,991.5472,5.70255714811818,991.5632205957337,0,0
5.94,-0.5847296999999999,4.316388,8.718657499999999,991.53705,5.70274655104656,991.562789946709,0,0
5.96,-0.42288297,4.3974357,8.633377000000001,991.532,5.702540962783452,991.5622985814227,0,0
5.98,-0.4754653,4.345004,8.732797999999999,991.5193,5.702127570068072,991.5617096161627,0,0
6.0,-0.5232722,4.449868,8.855893,991.5522,5.70186298044842,991.5611549718408,0,0
6.02,-0.4611436,4.349771,9.064206,991.5394,5.702021032080737,991.5605865702196,0,0
6.039999999999999,-0.50895053,4.402203599999999,8.780141,991.547,5.702075294009062,991.5600354188938,0,0
6.06,-0.50418407,4.3211718,8.642841,991.5394,5.701707005657588,991.5594741340744,0,0
6.079999999999999,-0.43249142,4.4355699999999985,8.732795,991.53217,5.7012331621798324,991.5588798879255,0,0
6.1,-0.39903724,4.521368,8.926905,991.55963,5.701104929631707,991.5583575124318,0,0
6.119999999999999,-0.40861458,4.5213685,8.680715,991.5799,5.700828560717647,991.5579734944008,0,0
6.14,-0.40861458,4.5213685,8.680715,991.55963,5.70042229343874,991.5576401394884,0,0
6.1599999999999975,-0.54724216,4.387905,8.718588,991.55707,5.699860488075732,991.557343534586,0,0
6.18,-0.48033834,4.4594035000000005,8.898494,991.56726,5.6995563357576025,991.5571171537697,0,0
6.1999999999999975,-0.48033834,4.4594035000000005,8.898494,991.54205,5.699480940618273,991.5568628819265,0,0
6.22,-0.64764476,4.3688392999999985,8.675976,991.5599,5.69913091874104,991.5566491409512,0,0
6.2399999999999975,-0.55205303,4.4308047,8.718585000000001,991.55225,5.698664194285223,991.556444442518,0,0
6.26,-0.50426835,4.473704,8.784865,991.5295,5.698253675470258,991.5561665709893,0,0
6.2799999999999985,-0.49950182,4.4260387,8.78013,991.5297,5.697840307125994,991.5558257640507,0,0
6.3,-0.48994666,4.416506299999999,8.756458,991.54974,5.697372123998827,991.5555027182896,0,0
6.3199999999999985,-0.55687726,4.4784713,8.742253,991.5397,5.6968965954389015,991.555160385269,0,0
6.34,-0.5329871,4.41174,8.926894,991.54956,5.696693605084997,991.5548377384252,0,0
6.3599999999999985,-0.6046885000000001,4.3831406,8.851142999999997,991.5322,5.696573491431832,991.5544711518156,0,0
6.38,-0.5568994,4.4832387,8.718579,991.5599,5.696369206029087,991.5541667797407,0,0
6.4,-0.46609205,4.4546394,8.917423,991.54974,5.6964228412421445,991.5538819001683,0,0
6.42,-0.561697,4.4260397000000005,9.106798,991.5269,5.697040703817582,991.5535330457376,0,0
6.44,-0.63340294,4.45464,8.429779,991.5522,5.6969378833324535,991.553219998998,0,0
6.46,-0.5511176,4.3259177000000015,8.586108,991.5573,5.696353811440519,991.5529580789024,0,0
6.48,-0.65146047,4.4164815000000015,9.002738,991.5522,5.696216954463845,991.5527239172217,0,0
6.5,-0.5367123,4.4498467,8.728147,991.55255,5.695982912694138,991.5525163858588,0,0
6.52,-0.6227322,4.3974137,8.647663,991.56494,5.695476285721549,991.5523777361577,0,0
6.539999999999999,-0.58922416,4.3211474,9.007482,991.5525,5.6953255472691335,991.5522556654312,0,0
6.56,-0.61787,4.3545127,8.827577999999997,991.5349,5.6951880853818615,991.552085323342,0,0
6.579999999999999,-0.5843784000000001,4.373578,9.106911,991.54724,5.695597059078798,991.5519173659076,0,0
6.6,-0.45529068,4.497508,8.732895,991.54987,5.6958928882418025,991.5517615882015,0,0
6.619999999999999,-0.50783557,4.454608,8.605069,991.53723,5.695816421640277,991.551571629303,0,0
6.64,-0.47434396,4.368809,9.050106,991.55005,5.696154505904031,991.5513983037547,0,0
6.6599999999999975,-0.63206095,4.259178,8.969624000000003,991.54474,5.696626906200555,991.5512211834067,0,0
6.68,-0.5937730999999999,4.240110400000002,8.979097,991.54474,5.697212216977094,991.5510413476068,0,0
6.6999999999999975,-0.7275911,4.221044,8.865473,991.56244,5.697683907184732,991.5509234798427,0,0
6.72,-0.5698081,4.33544,8.988571,991.5752,5.698364818444071,991.550906727359,0,0
6.7399999999999975,-0.5698081,4.33544,8.988571,991.54755,5.699228146144159,991.5508798406456,0,0
6.76,-0.5171808,4.359271499999998,8.761325,991.5575,5.699841781492554,991.5508799161197,0,0
6.7799999999999985,-0.43589115,4.3497376,8.912828,991.56757,5.700497796434494,991.5509400671104,0,0
6.8,-0.5171314,4.3259044,8.993314999999997,991.555,5.701325775734763,991.5510078322842,0,0
6.8199999999999985,-0.43106186,4.516566,8.624035000000001,991.5701,5.701786582388331,991.5511364413956,0,0
6.84,-0.550524,4.3116035,9.092743,991.545,5.702614553618058,991.5512279892172,0,0
6.8599999999999985,-0.6413073,4.268703,8.652447,991.5349,5.702914276214077,991.5512501001114,0,0
6.88,-0.52655905,4.373566599999998,8.945983,991.56006,5.703374529862645,991.551301352937,0,0
6.9,-0.59344333,4.259169,8.927048,991.5323,5.7038441748930575,991.5512782350634,0,0
6.92,-0.5599516999999999,4.3926315,8.870238,991.56006,5.704331436598054,991.5512894224637,0,0
6.94,-0.54078305,4.3640313,9.021744,991.5702,5.705086628204919,991.5513673857297,0,0
6.96,-0.5317227,4.411708999999999,8.889134,991.55,5.705871219570082,991.551431351483,0,0
6.98,-0.5221517,4.3783426,8.879667,991.56256,5.706629589236287,991.5515279347572,0,0
7.0,-0.5794921999999999,4.387875,8.841793,991.5348,5.707307011461952,991.5515530551734,0,0
7.02,-0.5986001,4.2782445,9.050108,991.52466,5.708202639483662,991.5514784365744,0,0
7.039999999999999,-0.5699155,4.2687106,8.822857,991.5701,5.70885043304145,991.5514795412088,0,0
7.06,-0.4551888,4.473673000000002,8.614545,991.5525,5.709068569561426,991.5514841909152,0,0
7.079999999999999,-0.48385614,4.464139,8.908078999999997,991.55505,5.709442972783853,991.5515011363084,0,0
7.1,-0.62723315,4.397407,8.860737,991.55505,5.709821036802548,991.5515288851673,0,0
7.119999999999999,-0.6081082,4.3449745,8.908081,991.5626,5.710238605322387,991.5515932600723,0,0
7.14,-0.6702342,4.2591763,8.993300999999997,991.5426,5.710780090030048,991.5516177660022,0,0
7.1599999999999975,-0.50770956,4.435539,8.657160000000001,991.5651,5.710945077802387,991.551687955484,0,0
7.18,-0.43600106,4.4689045,8.690301,991.54,5.710862433971582,991.5517078982707,0,0
7.1999999999999975,-0.48379338,4.449838,8.728177,991.5628,5.7106178977241635,991.5517654512828,0,0
7.22,-0.56025314,4.4403048,8.652429,991.5704,5.710090704099352,991.5518833895,0,0
7.239999999999997,-0.6176050999999999,4.344973,8.832336,991.5729,5.7095675264716075,991.5520632595067,0,0
7.26,-0.689285,4.330673,8.808665,991.5375,5.70900252386978,991.55216976491,0,0
7.2799999999999985,-0.49808145,4.5070357,8.609822,991.5527,5.708176182444802,991.5522657819307,0,0
7.3,-0.48851043,4.497502,8.8938875,991.535,5.707636196919077,991.5522884657556,0,0
7.3199999999999985,-0.48371917,4.578533,8.737653,991.57275,5.707139313794812,991.5523821707062,0,0
7.34,-0.47893375,4.602366,8.856013,991.5527,5.706922553809421,991.5524661125861,0,0
7.3599999999999985,-0.6366558000000001,4.4212365,8.784999000000001,991.5501,5.7066701636218715,991.5525317656261,0,0
7.38,-0.6701087,4.4212365,8.638232,991.54254,5.706120425165862,991.5525538062956,0,0
7.399999999999999,-0.7752472,4.3449707,8.884422,991.52747,5.705711638977776,991.5524829797287,0,0
7.42,-0.7369916999999999,4.3354373,9.002785000000003,991.5804,5.705634902388456,991.5525208986473,0,0
7.439999999999999,-0.7369916999999999,4.3354373,9.002785000000003,991.5503,5.705851841076325,991.5525464085684,0,0
7.46,-0.6891822,4.392636,8.775535000000001,991.50995,5.7059497260023795,991.552415602064,0,0
7.479999999999999,-0.6465026999999999,4.4450765,8.799175,991.535,5.706028704083074,991.5522373252693,0,0
7.5,-0.69908303,4.344978299999998,8.83705,991.54504,5.706075839044195,991.5520538895222,0,0
7.52,-0.5461318000000001,4.511808,8.676081,991.53503,5.7059327633052765,991.551830519694,0,0
7.539999999999999,-0.59393245,4.368811599999999,8.870191,991.5299,5.7058532447210375,991.5515542002428,0,0
7.56,-0.574817,4.478442,8.766033,991.52765,5.705736651914227,991.5512239892547,0,0
7.579999999999999,-0.60349834,4.402178,8.742362,991.5428,5.705475918165509,991.5509018884646,0,0
7.6,-0.62739867,4.335446,8.832315,991.5377,5.7051973280405495,991.550569753408,0,0
7.619999999999999,-0.6990982,4.402178,8.87019,991.5655,5.7050456359341535,991.5503300277594,0,0
7.64,-0.6226239,4.3831115,8.879659,991.53265,5.7049960924459375,991.5500545580768,0,0
7.659999999999997,-0.6321886,4.3497458,8.818111,991.55536,5.704893134067228,991.5498302526556,0,0
7.68,-0.5461545999999999,4.430777,8.832314,991.5503,5.704833942174468,991.5496337474764,0,0
7.699999999999997,-0.5604954000000001,4.402178,8.983814,991.53265,5.7050706077954665,991.5493989740088,0,0
7.72,-0.5604965999999999,4.3831115,8.81811,991.5452,5.705241976493037,991.5491764118663,0,0
7.739999999999997,-0.66565603,4.2687144,8.775501,991.5352,5.705184641706906,991.5489294408748,0,0
7.76,-0.5318254,4.3688126,8.993282,991.55786,5.7054057327516565,991.5487433673196,0,0
7.7799999999999985,-0.5318254,4.3688126,8.993282,991.5478,5.705872044932812,991.5485755566037,0,0
7.8,-0.5652879,4.3974113,9.007485,991.5452,5.7066096481542505,991.5484151270513,0,0
7.8199999999999985,-0.5127126000000001,4.3783455,8.908063,991.54755,5.707375700172638,991.5482702570413,0,0
7.84,-0.41233927,4.359279,8.998016,991.5705,5.708304938814704,991.5482222769754,0,0
7.8599999999999985,-0.47447795,4.3449792999999985,8.983812,991.53503,5.709341267942499,991.548132389592,0,0
7.88,-0.48404008,4.4117117,8.614529,991.5528,5.7098448604130905,991.5480697684973,0,0
7.899999999999999,-0.5796399999999999,4.349746700000002,8.974343,991.53265,5.710497699323398,991.5479589253316,0,0
7.92,-0.5605233000000001,4.3449800000000005,8.666607,991.5151,5.710700647031777,991.5477426921792,0,0
7.939999999999999,-0.57008415,4.311614499999999,8.936467,991.5376,5.710978408862332,991.5475151148737,0,0
7.96,-0.5605271,4.354513,8.87492,991.53015,5.7112442482782635,991.5472515131532,0,0
7.979999999999999,-0.6166034,4.373548,8.936585000000003,991.53503,5.7116377696140965,991.5469745972257,0,0
8.0,-0.5974607,4.3449483,8.865571000000003,991.5303,5.7119818570099925,991.5466698857616,0,0
8.02,-0.6021701,4.3449464,8.785092,991.5528,5.712131827525429,991.5464227111237,0,0
8.04,-0.5925871,4.321113,8.94133,991.5478,5.7123780172012655,991.5462092658532,0,0
8.059999999999999,-0.5303793000000001,4.440275,8.827711,991.55023,5.712598915230978,991.5460351402556,0,0
8.08,-0.56381446,4.425975,8.832447,991.56287,5.712795980946388,991.5459418883723,0,0
8.1,-0.6067858,4.3640089999999985,8.789843,991.53015,5.712840092378228,991.54580264021,0,0
8.12,-0.5780601,4.38784,8.8040495,991.5528,5.712793710847392,991.5457047910294,0,0
8.139999999999999,-0.5732099,4.3973713,8.666758999999999,991.5252,5.712421334880933,991.5455445142453,0,0
8.16,-0.61142486,4.3497057,8.718838,991.55286,5.711819148404768,991.5454292294278,0,0
8.18,-0.5922588000000001,4.4116693,8.903485,991.5427,5.711413876072023,991.545317538537,0,0
8.2,-0.53487766,4.4069023000000005,8.927158,991.53265,5.711216957100596,991.5451732453273,0,0
8.219999999999999,-0.55872977,4.3592353,8.908225999999997,991.53015,5.711128675416645,991.5449916641638,0,0
8.24,-0.5060816,4.411666,8.723591,991.57043,5.710836176213353,991.5449227970568,0,0
8.26,-0.5681956,4.3449335,8.770937,991.52264,5.710397239591828,991.5447817280118,0,0
8.28,-0.54900604,4.473629,8.690458,991.5325,5.709799537983932,991.5446128651828,0,0
8.299999999999999,-0.56332195,4.38783,8.704663,991.5427,5.709010845582608,991.5444567716722,0,0
8.32,-0.53935266,4.3925953,8.860906,991.5252,5.708347879038488,991.5442495230684,0,0
8.34,-0.53452593,4.392594,8.837236,991.5278,5.707753843118822,991.5440071799188,0,0
8.36,-0.4723416,4.483157599999998,8.662068,991.5504,5.706976998264506,991.5438160596643,0,0
8.379999999999999,-0.6156653,4.3210926,8.82778,991.55023,5.70621387873,991.5436702759928,0,0
8.4,-0.6156653,4.3210926,8.82778,991.55035,5.705465634118407,991.5435655085467,0,0
8.42,-0.48656368,4.4497886,8.860925,991.52277,5.704898531103628,991.5433980722008,0,0
8.44,-0.5199520000000001,4.416421,8.813587,991.5303,5.7043781662432815,991.5432029723855,0,0
8.459999999999999,-0.5008093,4.411654,8.969825,991.5252,5.704185010548557,991.5429657714882,0,0
8.48,-0.5597930999999999,4.4116936,8.699815,991.5303,5.703786930295283,991.542710583998,0,0
8.5,-0.5215832,4.3497295,8.903392,991.5303,5.703525771598014,991.5424404222293,0,0
8.52,-0.50247353,4.3592625,8.898655999999997,991.52496,5.703384352456919,991.5421387777703,0,0
8.54,-0.37821764,4.5022597,8.8039665,991.5451,5.703294862571883,991.5418829051264,0,0
8.559999999999999,-0.64112586,4.330664,8.832371,991.53784,5.7031730066681625,991.5416422615996,0,0
8.58,-0.5503286000000001,4.464128,8.803963000000003,991.53784,5.703082425302043,991.541415940838,0,0
8.6,-0.61248505,4.3068323,9.021743,991.5451,5.703288692470405,991.5412292264257,0,0
8.62,-0.55514646,4.387864,8.628785,991.5353,5.703092409946415,991.5410429003559,0,0
8.639999999999999,-0.49780786,4.44983,8.822894999999997,991.5303,5.702952244085032,991.5408395881993,0,0
8.66,-0.48826724,4.4164650000000005,8.837096,991.5657,5.702856448327662,991.5407494390604,0,0
8.68,-0.5074055000000001,4.502263,8.865501,991.53754,5.702934990999106,991.5406582293007,0,0
8.7,-0.46439683,4.502263,8.832359,991.5429,5.703101605653338,991.5405857067312,0,0
8.719999999999999,-0.5600214,4.454599,8.822887,991.51764,5.703293417591376,991.5404390212448,0,0
8.74,-0.5074531,4.492731,8.723464,991.5252,5.703353018975188,991.5402545494724,0,0
8.76,-0.7082334,4.3449683,8.851291,991.52277,5.703420509675803,991.5400286058364,0,0
8.78,-0.68435335,4.378335,8.704523,991.5277,5.7032494983132125,991.5397845790584,0,0
8.799999999999997,-0.63656485,4.3640356,8.818147999999997,991.51776,5.703059282029951,991.5394896685127,0,0
8.82,-0.5887859000000001,4.387869,8.732925999999999,991.52527,5.702710445052732,991.5391778947479,0,0
8.84,-0.5888049,4.416468599999999,8.837081,991.54285,5.702442487439897,991.5389156310284,0,0
8.86,-0.5266865,4.5260997000000005,8.666641,991.5403,5.702028195880916,991.5386888785339,0,0
8.879999999999997,-0.6844485,4.4307694,8.912827499999997,991.53296,5.7018714389774585,991.5384678960672,0,0
8.9,-0.67490786,4.4164705,8.652434,991.53784,5.701445890262092,991.538270375534,0,0
8.92,-0.63189924,4.368805,8.827606,991.543,5.701058604207102,991.5381128730386,0,0
8.94,-0.6462576999999999,4.4498367,8.964902,991.5252,5.701038231099213,991.5379272174907,0,0
8.959999999999997,-0.5785835,4.473651,8.714047,991.54803,5.700891153976557,991.5377995422656,0,0
8.98,-0.6072496000000001,4.430752,8.922363,991.5328,5.700981911636496,991.5376687300846,0,0
9.0,-0.65981483,4.3830857000000005,8.74719,991.52783,5.700920222664303,991.5375177250132,0,0
9.02,-0.64546907,4.430752,8.841878999999997,991.5429,5.700941933450983,991.5374036731224,0,0
9.04,-0.5068357,4.535615,8.756662,991.55554,5.700961706306952,991.537368187648,0,0
9.06,-0.55462104,4.5165486,8.936571,991.54285,5.701299385611807,991.5373565672072,0,0
9.08,-0.7410207,4.3592515,8.851353,991.5454,5.701638151261492,991.537375255744,0,0
9.1,-0.6884302,4.425983,8.756666000000001,991.52545,5.701854860757782,991.5373488380144,0,0
9.12,-0.750555,4.349718,8.699854,991.543,5.701796206551298,991.5373458394915,0,0
9.14,-0.6979645000000001,4.368784,8.908169000000003,991.5454,5.701890911706751,991.5373721849746,0,0
9.16,-0.62625474,4.5165467,8.6430435,991.5456,5.701758677287433,991.5374250839776,0,0
9.18,-0.52108634,4.5117803,8.922375,991.53796,5.701924673381318,991.5374737512344,0,0
9.2,-0.5927771,4.421215,8.964985,991.5478,5.702357015030245,991.537553928118,0,0
9.22,-0.602324,4.402149,8.714063000000001,991.5327,5.702540891891693,991.5376072982707,0,0
9.24,-0.5545133000000001,4.48318,8.751939,991.5481,5.702644982805176,991.5376922298643,0,0
9.26,-0.5592804,4.4593472,8.770878,991.5581,5.702691285113341,991.5378407433927,0,0
9.28,-0.6214052,4.5022454000000005,8.822956,991.5506,5.702830740686003,991.5380179032704,0,0
9.3,-0.6978693,4.3401823,8.785084,991.53784,5.702841613910286,991.5381738012863,0,0
9.32,-0.5449029000000001,4.5022449999999985,9.045476,991.53046,5.703352281370523,991.5382837830887,0,0
9.34,-0.6452661999999999,4.4402795,8.647787,991.55035,5.703520883771643,991.5384244013902,0,0
9.36,-0.5639968000000001,4.4641113,8.709335000000001,991.55817,5.703512348011162,991.5386197358763,0,0
9.38,-0.5974428,4.4212127,8.785089,991.5681,5.703451262536527,991.5388984623793,0,0
9.4,-0.64522815,4.3973794,8.808761,991.53046,5.703371967794094,991.5391143666524,0,0
9.42,-0.54483956,4.468878,8.964997,991.53046,5.703620663452361,991.5392739839484,0,0
9.44,-0.57350576,4.4974766,8.661996,991.5252,5.703628133391218,991.5393643554488,0,0
9.46,-0.49761063,4.5117908,8.846585000000003,991.56824,5.7037680910894295,991.5395481600267,0,0
9.48,-0.55975384,4.4784245,8.785036999999999,991.5632,5.703886242105348,991.539795716376,0,0
9.5,-0.6505871999999999,4.3926272000000015,9.021756,991.533,5.704356349414373,991.5399899925873,0,0
9.52,-0.65537274,4.4545927,8.90813,991.5431,5.704981935358392,991.5401728510741,0,0
9.54,-0.52155536,4.3926277,8.912861999999997,991.55054,5.705677852407089,991.5403717465692,0,0
9.56,-0.47854286,4.5022583,8.737689,991.58075,5.706206592016913,991.540692852341,0,0
9.58,-0.4928937,4.4974922999999984,8.576718,991.54803,5.706286135424854,991.5410029951324,0,0
9.6,-0.55504256,4.4116945,8.770828,991.55554,5.706252422719965,991.5413293705208,0,0
9.62,-0.63153654,4.4450607,8.794497999999999,991.55554,5.706203346052034,991.5416689140798,0,0
9.64,-0.5359519,4.478427,8.93653,991.5303,5.7064235654612805,991.5419280066775,0,0
9.66,-0.57419604,4.4212284,8.832372,991.5406,5.706638953878112,991.5421521600734,0,0
9.68,-0.41647398,4.5880585,8.647729,991.5306,5.7066507831054905,991.5423086342377,0,0
9.7,-0.5120929,4.53086,8.633524000000001,991.5556,5.7064106374699115,991.5424947437256,0,0
9.72,-0.5120929,4.53086,8.633524000000001,991.54285,5.7059487113697145,991.542660468992,0,0
9.74,-0.59336674,4.430763,8.827633,991.5454,5.7055654909356415,991.5428167661487,0,0
9.76,-0.5360205,4.4736624,8.874976,991.5582,5.705374177431433,991.5430102499588,0,0
9.78,-0.56948483,4.4879620000000005,8.846569,991.543,5.705317771725867,991.543181175353,0,0
9.8,-0.5455972,4.502262,8.633519,991.5154,5.704998385089373,991.5432321928002,0,0
9.82,-0.5742932,4.4259973,8.794488000000001,991.54565,5.704676304363524,991.5432859759223,0,0
9.84,-0.54562575,4.530862,8.747143,991.53546,5.704361077505907,991.5433053251759,0,0
9.86,-0.57431036,4.4498305,8.84183,991.5204,5.704154946838533,991.5432399630057,0,0
9.88,-0.60300624,4.278235,8.927047,991.5405,5.704051226827531,991.5431723451253,0,0
9.9,-0.6077975,4.5403957,8.628778,991.5406,5.7037302316148795,991.5431033375237,0,0
9.92,-0.5695705,4.5451627,8.761341999999999,991.5355,5.703461996235777,991.5430149903917,0,0
9.94,-0.6269395999999999,4.440299,8.903373,991.5405,5.7034125306919465,991.5429278729007,0,0
9.96,-0.61260587,4.3926334,9.130625,991.52545,5.703934588276365,991.5427879755432,0,0
9.98,-0.5112681,4.5213065000000014,8.82771,991.5406,5.704503674705506,991.542656485526,0,0
10.0,-0.587705,4.3354096,8.751963,991.5708,5.704807176438558,991.5426416175987,0,0
10.02,-0.4729764,4.402142,8.524713,991.5229,5.704503530554296,991.5425574104753,0,0
10.04,-0.37257385,4.483173000000002,8.581529,991.55566,5.703837607623522,991.5425301743828,0,0
10.06,-0.3677541,4.6118684000000005,8.822987,991.538,5.703421869316645,991.542489799944,0,0
10.08,-0.40597928,4.549903,8.860863,991.5431,5.703242420044004,991.54245632181,0,0
10.1,-0.4489842000000001,4.559436,8.898738999999997,991.55334,5.703355244112347,991.5424659217723,0,0
10.12,-0.36292106,4.6356997,8.709366000000001,991.56573,5.703443328104001,991.5425581549803,0,0
10.14,-0.5349674,4.421204,8.93662,991.5833,5.703741799051597,991.5427863228856,0,0
10.16,-0.4967023,4.4450364,8.572073,991.5559,5.703568259839343,991.5430351412836,0,0
10.18,-0.47754318,4.4688683,8.733046,991.5483,5.703296003210348,991.543273950712,0,0
10.2,-0.4201722,4.5070004,8.728313,991.5584,5.702959509468478,991.5435394165004,0,0
10.22,-0.32932937,4.6452300000000015,8.875082,991.561,5.7029632355929065,991.5438368401713,0,0
10.24,-0.33886233,4.5498977,8.832475,991.518,5.70309841897938,991.5440066311024,0,0
10.26,-0.36751452,4.5260644,8.751992,991.53296,5.7031801365376245,991.544116890497,0,0
10.28,-0.3866071,4.506997599999999,8.789871,991.5935,5.703267647252043,991.5443920948924,0,0
10.3,-0.44870466,4.459331,8.85142,991.5207,5.7034344955635845,991.5445499739543,0,0
10.32,-0.38654056,4.5260620000000005,8.79461,991.5356,5.703623153387163,991.5446572559875,0,0
10.34,-0.39606026,4.4974620000000005,8.865631,991.5659,5.70393550403275,991.5448285242703,0,0
10.36,-0.39606026,4.4974620000000005,8.865631,991.5384,5.704356025193543,991.544956714238,0,0
10.38,-0.44381833,4.52606,8.747273,991.5559,5.704683156770352,991.5451093787216,0,0
10.4,-0.31951684,4.6309239999999985,8.534228,991.5582,5.704627531860262,991.5452913992964,0,0
10.42,-0.4628843,4.449794,8.988733,991.58093,5.704910572990875,991.5455805316383,0,0
10.44,-0.4580912,4.4783926,8.789889,991.58105,5.705149094053737,991.5459636990622,0,0
10.46,-0.44372517,4.502225,8.704673,991.53827,5.7052112448189805,991.5462745684813,0,0
10.48,-0.41550398,4.5260690000000015,8.804053,991.5486,5.705320879026992,991.5465576242532,0,0
10.5,-0.3820377,4.5737348,8.804053999999997,991.5433,5.705514727994725,991.546796004886,0,0
10.52,-0.5206444,4.46887,8.965025,991.54846,5.705994433361355,991.5470126283957,0,0
10.54,-0.34378028,4.750097,8.519992,991.52075,5.70616401952072,991.5471094914664,0,0
10.56,-0.41547352,4.6118665,8.671493,991.5358,5.706203773603545,991.5471543655065,0,0
10.58,-0.35810822,4.6070995,8.747244,991.54333,5.706258406691233,991.5471802484924,0,0
10.6,-0.49671495,4.6261663,8.742511,991.55597,5.706348222714442,991.5472347618044,0,0
10.62,-0.5301621999999999,4.483169,8.832465,991.5534,5.70650158766863,991.5473051246244,0,0
10.64,-0.4775768,4.568967,8.685699000000001,991.5459,5.70651608476928,991.5473622387633,0,0
10.66,-0.47757298,4.6213984,8.543667,991.58124,5.7061988989987125,991.5475346647568,0,0
10.68,-0.38196924,4.707196700000001,8.870341999999997,991.5458,5.706263202873646,991.5476807755716,0,0
10.7,-0.52535576,4.6547647,8.600481,991.5256,5.706132718784143,991.5477303882956,0,0
10.72,-0.4632107,4.7882276,8.709373,991.5283,5.706155234521232,991.5477042767008,0,0
10.74,-0.5731385999999999,4.502234,8.685702000000001,991.56866,5.7060018899963545,991.5477566450992,0,0
10.76,-0.5826944000000001,4.559433,8.733046,991.5458,5.7058367921474575,991.5477958738936,0,0
10.78,-0.49186665,4.549899,8.496326,991.56604,5.70520797040459,991.5478962153109,0,0
10.8,-0.30066687,4.7167287,8.567345,991.561,5.704450390730858,991.5480320506116,0,0
10.82,-0.3102227,4.6928954,8.7614565,991.57355,5.703913134434925,991.5482439393013,0,0
10.84,-0.41059107,4.6452300000000015,8.823003,991.5409,5.703646506641962,991.5484047259656,0,0
10.86,-0.28630468,4.688129,8.695175,991.51807,5.703418470388793,991.5484375920493,0,0
10.88,-0.2719577,4.6785955,8.534206,991.5409,5.7029212280820145,991.5484394971892,0,0
10.9,-0.23371163,4.7167277,8.657302,991.5662,5.7024482847912425,991.5485051183807,0,0
10.92,-0.28628188,4.7405605,8.865617,991.5587,5.7024057748707815,991.5485998028397,0,0
10.94,-0.28149825,4.821592,8.894022999999997,991.55115,5.702875244523589,991.5486926467372,0,0
10.96,-0.3008582,4.7643986,8.884532,991.55365,5.7037228190907685,991.5487925300768,0,0
10.98,-0.56375,4.640468599999998,8.330605499999999,991.5411,5.703792886048943,991.5488530938874,0,0
11.0,-0.60677075,4.645235,8.14123,991.5763,5.702843856287488,991.5490054169323,0,0
11.02,-0.6736905,4.573737,9.154392,991.5486,5.70279076706602,991.5491385500743,0,0
11.04,-0.6211151999999999,4.7834654,8.590999,991.54614,5.7026919352187635,991.5492453917379,0,0
11.06,-0.65935624,4.6786013,8.827717999999997,991.5359,5.702885767364094,991.5492917536217,0,0
11.08,-0.68325645,4.7024339999999984,8.605201,991.54596,5.702957952694813,991.5493207246692,0,0
11.1,-0.74061793,4.640468599999998,8.553122,991.5765,5.702774817298421,991.549444168878,0,0
11.12,-0.67848176,4.6452355,8.524714999999999,991.55865,5.702310323872004,991.5495863851727,0,0
11.14,-0.6306876,4.7643995000000015,8.501042,991.5334,5.701668790299362,991.5496537765043,0,0
11.16,-0.54943216,4.9073962999999985,8.685685000000001,991.58136,5.7013423947493225,991.5498274658894,0,0
11.18,-0.73584706,4.8406644,8.733028,991.54346,5.701338620641326,991.5499580149527,0,0
11.2,-0.7788691,4.688134,8.846654,991.5637,5.701683071475466,991.5501228392516,0,0
11.22,-0.8410091000000001,4.6500025,8.652543,991.5359,5.701952540495259,991.5502172757804,0,0
11.24,-0.8410091000000001,4.6500025,8.652543,991.5386,5.702154785495423,991.5502588977043,0,0
11.26,-0.716738,4.6786017,8.486838,991.5387,5.702003137940003,991.5502540628047,0,0
11.28,-0.5446688000000001,4.778699,8.699887,991.5763,5.702003616662125,991.5503435560615,0,0
11.3,-0.5685690999999999,4.921696,8.946075,991.5589,5.702731935190535,991.5504534355013,0,0
11.32,-0.6593866999999999,4.8549643,8.751964,991.57886,5.703692755510619,991.5506527886064,0,0
11.34,-0.5207748999999999,4.9073970000000005,8.553119,991.5638,5.704532610048725,991.5508762669713,0,0
11.36,-0.48731875,4.9026303,8.344805000000001,991.54114,5.704880061997592,991.5510386818933,0,0
11.38,-0.4490829000000001,4.8311315000000015,8.723557000000001,991.5587,5.705396869383487,991.5512097724634,0,0
11.4,-0.53034216,4.845432,8.600462,991.5942,5.70586117070696,991.5515157129103,0,0
11.42,-0.5160053,4.9169297,8.122288000000001,991.5638,5.705493640954982,991.5518302653227,0,0
11.44,-0.4347511,4.8311315000000015,8.690415,991.54364,5.705314986568202,991.5520787188794,0,0
11.46,-0.49689108,4.7929997,8.491571,991.5916,5.704911110355695,991.5524405290539,0,0
11.48,-0.3298957,4.9264708,8.354246,991.5311,5.704186459902978,991.5526833986197,0,0
11.5,-0.39682686,4.8359065,8.685653,991.5538,5.703689845088122,991.5529020179326,0,0
11.52,-0.4876501,4.831139599999998,8.576761,991.5437,5.703202832735911,991.5530620626931,0,0
11.54,-0.47810453,4.9169383,8.671448,991.531,5.702983860261298,991.553124054818,0,0
11.56,-0.36340314,4.826374,8.832417,991.52625,5.703193104224937,991.553082084462,0,0
11.58,-0.34430486,4.8692730000000015,8.392114999999999,991.5161,5.703025341018868,991.5529118639514,0,0
11.6,-0.3729906,4.835908,8.250082,991.5337,5.702237528877029,991.5526922943981,0,0
11.62,-0.631121,4.75011,8.557816,991.5462,5.70139903629579,991.5524749104808,0,0
11.64,-0.5737703000000001,4.797775700000001,8.448924,991.5538,5.7003628635513,991.552287600374,0,0
11.66,-0.64548135,4.716745,8.732986,991.5211,5.6995990425764615,991.552009817802,0,0
11.68,-0.4017322,4.9407735,8.709313,991.56647,5.699234279542862,991.5518164257776,0,0
11.7,-0.4399916,4.831143,8.695108,991.5589,5.699089611418227,991.5516710454517,0,0
11.72,-0.4399916,4.831143,8.695108,991.5338,5.699139939960397,991.5514782516319,0,0
11.74,-0.55950755,4.7739453,8.287947,991.5641,5.698581035679712,991.5513533373073,0,0
11.76,-0.43046683,4.916942,8.628822999999999,991.5666,5.69823372523949,991.5512978509956,0,0
11.78,-0.50217086,4.85021,8.756652,991.57654,5.698245110482353,991.5513396950273,0,0
11.8,-0.37313706,4.8978769999999985,8.775588,991.5868,5.698644169743592,991.5515043255114,0,0
11.82,-0.50698555,4.816845400000001,8.78032,991.5389,5.699323664919258,991.551604417435,0,0
11.84,-0.59780884,4.697682,8.709304,991.5665,5.7000113334423705,991.551746482756,0,0
11.86,-0.34449315,4.835912,8.52466,991.5538,5.700482097105447,991.551879404336,0,0
11.88,-0.564385,4.7358155,8.27847,991.54877,5.7002340127829685,991.5519856599884,0,0
11.9,-0.34930784,4.854979,8.728237,991.56635,5.700265573929157,991.5521312591068,0,0
11.92,-0.44491082,4.7310495,9.135395,991.58154,5.701175226068398,991.5523657819552,0,0
11.94,-0.4544844,4.7405825,8.529389,991.5666,5.701758908056878,991.5526242495288,0,0
11.96,-0.28604847,4.94075,8.496353,991.6093,5.702185080001245,991.5530566641786,0,0
11.98,-0.36249232,4.8263516,8.794623,991.55145,5.70289830428402,991.5534329617723,0,0
12.0,-0.37678224,4.8740163,8.363797,991.59174,5.703133535429803,991.5539033636634,0,0
12.02,-0.58707714,4.816817,8.207564,991.5941,5.702627605469768,991.5544637186653,0,0
12.04,-0.44365,4.764384,8.624195,991.5967,5.702150350577076,991.555110898958,0,0
12.06,-0.3910557,4.854948,8.903526,991.569,5.702294594807018,991.555732748228,0,0
12.08,-0.54875624,4.7405505,8.657341,991.574,5.702440455943626,991.5563479763497,0,0
12.1,-0.3670742,4.883545400000001,8.624205,991.559,5.702654094839637,991.5569011392028,0,0
12.12,-0.5056555,4.7548475,8.908272,991.5741,5.70332752547719,991.5574518297988,0,0
12.14,-0.54865724,4.7357809999999985,8.8609295,991.564,5.704304154241862,991.5579619934224,0,0
12.16,-0.3669917,4.8740106,8.430100999999999,991.5866,5.704885383056014,991.5585158708237,0,0
12.18,-0.5151162,4.7310123,8.681028999999999,991.5567,5.705437932193237,991.5589987397605,0,0
12.2,-0.56766105,4.6928797,8.808861,991.60944,5.706165106033787,991.5596069912897,0,0
12.22,-0.5867638000000001,4.6213803,8.586345,991.58417,5.706569226296133,991.5602328691724,0,0
12.24,-0.53894925,4.5975475,8.652629,991.592,5.706778693610523,991.5609002565407,0,0
12.26,-0.37159008,5.017003,8.4017105,991.5919,5.706773137803142,991.5616015590956,0,0
12.28,-0.39545614,4.8740053,9.050327,991.5845,5.707604808011254,991.5623036644204,0,0
12.3,-0.6392097,4.8406386,8.747327,991.57153,5.708613878376633,991.5629572594936,0,0
12.32,-0.7825707,4.697641,8.600563000000001,991.5668,5.709387977680635,991.563548609966,0,0
12.34,-0.68216187,4.568943,8.865694,991.59674,5.710296664392782,991.5641906162475,0,0
12.36,-0.57219344,4.7453055,8.557960000000001,991.55145,5.7109160958276695,991.5647120267794,0,0
12.38,-0.4956836,4.707172,8.647917,991.5716,5.711394594552326,991.5651975418288,0,0
12.4,-0.4956506,4.640439,8.557965,991.55896,5.711516637798936,991.565604087776,0,0
12.42,-0.38090235,4.821568,8.591109,991.5719,5.711554549089593,991.565985977059,0,0
12.44,-0.36175013,4.788201,8.572175,991.59174,5.711448312895536,991.566416128912,0,0
12.46,-0.4095152,4.6738024000000005,9.092962,991.5844,5.712060068270322,991.5668609530252,0,0
12.48,-0.14614636,4.9264183,8.487002,991.59924,5.712435804093754,991.5673705641806,0,0
12.5,-0.25605708,4.8072542999999985,8.643239999999999,991.59424,5.712766237980871,991.5679175865663,0,0
12.52,-0.42330068,4.6642566,8.406525,991.55646,5.712493497520514,991.5683596882353,0,0
12.54,-0.33241022,4.8024845,8.742675,991.57935,5.712431434293142,991.5687898943919,0,0
12.56,-0.31804603,4.8263164000000005,8.709536,991.5643,5.712518414994638,991.569153860932,0,0
12.58,-0.384889,4.864447599999999,8.558041000000001,991.5818,5.712506057965123,991.5695209878676,0,0
12.6,-0.384889,4.864447599999999,8.558041000000001,991.58185,5.712405970601793,991.5698897656717,0,0
12.62,-0.42785776,4.8406134000000005,8.387608,991.56934,5.711900714852795,991.5702136385828,0,0
12.64,-0.52340436,4.7738805,8.572253,991.55676,5.711314082518805,991.570451379588,0,0
12.66,-0.6045866999999999,4.907342,8.946278999999997,991.5893,5.7114804372230195,991.570729302574,0,0
12.68,-0.40376073,4.807243,8.728502,991.5868,5.711794446748836,991.571032729835,0,0
12.7,-0.40376073,4.807243,8.728502,991.5718,5.712237793640727,991.5713036003357,0,0
12.72,-0.52320635,4.6165794999999985,8.401834,991.54926,5.712020584007144,991.5714635845484,0,0
12.74,-0.5135725,4.6928425,8.600684,991.602,5.711657436446843,991.5717148776944,0,0
12.76,-0.3414501,4.935935,8.993644999999997,991.56177,5.712109535501496,991.5719011187587,0,0
12.78,-0.35573990000000005,4.9216347,8.889493,991.5693,5.7130775615326765,991.5720563173356,0,0
12.8,-0.22185591,4.9264,8.572292,991.54926,5.713920834691157,991.5721113840557,0,0
12.82,-0.2935282,4.7691026,8.586497,991.5592,5.714519655616825,991.572113560027,0,0
12.84,-0.43209302,4.7357354,8.614908,991.57184,5.7149290800500285,991.5721144978993,0,0
12.86,-0.47025728,4.811999,8.6954,991.56177,5.715396113796494,991.5720780864103,0,0
12.88,-0.6470604999999999,4.7976980000000005,8.506029,991.5593,5.715575654895643,991.571999912108,0,0
12.9,-0.5561699000000001,4.645166400000001,9.126243,991.5894,5.716473874112765,991.5719934776108,0,0
12.92,-0.5561699000000001,4.645166400000001,9.126243,991.5795,5.718003883725741,991.5720148155696,0,0
12.94,-0.39836222,4.8072276,8.207775999999999,991.54663,5.718558515022365,991.571942284454,0,0
12.96,-0.40432817,4.7548246,8.193463000000001,991.58185,5.718169343465028,991.571913863736,0,0
12.98,-0.35653007,4.7357580000000015,8.359166,991.57434,5.717222512905388,991.5718974852803,0,0
13.0,-0.49514437,4.711925,8.775795,991.57184,5.716532514296619,991.5718828063301,0,0
13.02,-0.49514437,4.711925,8.775795,991.5795,5.716071936394638,991.5718972579064,0,0
13.04,-0.35653007,4.7309914000000015,8.723716,991.5517,5.715727035527626,991.571837317191,0,0
13.06,-0.20835617,4.716692,8.501199,991.5467,5.7150571316835626,991.5716938592328,0,0
13.08,-0.09364089,4.959786,8.387573,991.5618,5.71414502541124,991.571531481888,0,0
13.1,-0.21313599,4.7977233,8.61009,991.5669,5.713259433008188,991.5713713319313,0,0
13.12,-0.40432817,4.6547265,8.960436,991.5746,5.712912896249992,991.5712414466344,0,0
13.14,-0.26093403,4.831089,8.61009,991.5593,5.712567698819716,991.5710836907783,0,0
13.16,-0.26093403,4.840622,8.704778,991.5568,5.712406344698082,991.5708928764168,0,0
13.18,-0.40910798,4.688092,8.6527,991.5693,5.712171136776939,991.5707185384924,0,0
13.2,-0.2657138,4.5879946,8.837341,991.56195,5.712102766625207,991.5705329267633,0,0
13.22,-0.14621873,4.7548246,8.818404,991.5645,5.7123042984670045,991.5703472017032,0,0
13.24,-0.04584284,4.888287999999998,8.969906,991.55426,5.713150618417082,991.570125181114,0,0
13.26,-0.3613099,4.869221,8.13665,991.5617,5.713054017922503,991.5698986730696,0,0
13.28,-0.3613099,4.869221,8.13665,991.55945,5.7121246006848025,991.5696609153384,0,0
13.3,-0.4664656,4.78819,8.756857,991.54944,5.7115063316783585,991.5693780373116,0,0
13.32,-0.6194193,4.673792400000001,8.676372,991.54913,5.710922547774848,991.5690551933528,0,0
13.34,-0.2657138,5.1266155,8.288151,991.53644,5.710110656116419,991.5686525137352,0,0
13.36,-0.04584284,5.1790476,8.397041999999999,991.567,5.7093426495636,991.5682907569752,0,0
13.38,-0.71501535,4.645193,8.510667999999999,991.55444,5.708317550463067,991.5679212459773,0,0
13.4,-0.7054557,4.63566,8.6527,991.54926,5.707317120177456,991.567527565574,0,0
13.42,-0.2991724,4.7357580000000015,8.766326,991.58215,5.7066053513689825,991.5672323503334,0,0
13.44,-0.28961286,4.759590599999999,8.600621,991.5545,5.7058723127382,991.5669256616857,0,0
13.46,-0.23675153,4.7452846,8.813696,991.582,5.705494554168714,991.5667089392143,0,0
13.48,-0.4566111,4.64042,8.913119,991.5721,5.705528452558881,991.5665368510575,0,0
13.5,-0.60955334,4.468824,8.780557,991.5495,5.705535357711209,991.5663234612987,0,0
13.52,-0.4183498,4.2733946,9.301342,991.5821,5.706294538314942,991.5661917056468,0,0
13.54,-0.1506751,4.4449906,9.32975,991.55194,5.70790485650106,991.5660239802124,0,0
13.56,-0.059847414,4.607053,8.794763,991.5721,5.709415408101617,991.5658976516901,0,0
13.58,-0.22712915,4.764349,8.666935,991.5796,5.710757916993581,991.5658353562613,0,0
13.6,-0.68597317,4.6451845,8.567515,991.5596,5.71169174958956,991.565757864738,0,0
13.62,-0.77677804,4.664251,8.524905,991.55707,5.712216603851446,991.5656581169153,0,0
13.64,-0.7194147,4.80248,8.865784,991.5618,5.713126685387228,991.5655560905176,0,0
13.66,-0.6572658,4.5879855,9.140379,991.5769,5.7146643180606285,991.5655067780673,0,0
13.68,-0.62379575,4.578452,9.0741005,991.552,5.716614856417565,991.565414581185,0,0
13.7,-0.7767438,4.4449883,8.321328999999999,991.56464,5.717433317375473,991.5653303275276,0,0
13.72,-0.49472392,4.7452807,8.273986,991.56964,5.717425095868268,991.5652713958168,0,0
13.74,-0.13143602,4.921643,8.520178,991.582,5.717287967856652,991.565279546732,0,0
13.76,-0.2509197,4.716681,8.785306,991.57214,5.717316277112293,991.5653114465124,0,0
13.78,-0.23179477,4.5832169999999985,8.83265,991.55963,5.717447242781644,991.5653191799513,0,0
13.8,0.055010572,5.0503387,8.600665,991.55963,5.717710693419707,991.5653055321696,0,0
13.82,-0.0071211755,4.9216419999999985,8.259788499999999,991.53186,5.717343959106341,991.5651730690739,0,0
13.84,-0.18873657,4.6928473,8.756903999999999,991.55945,5.717090914741178,991.5650354216342,0,0
13.86,-0.20785013,4.659480599999998,8.993624,991.54956,5.717342898149191,991.5648580848384,0,0
13.88,-0.06444454,4.9502406,8.595936,991.54944,5.717600689621383,991.5646458849403,0,0
13.9,-0.40379357,4.859676,8.359216,991.57733,5.7173596309752055,991.5645040479246,0,0
13.92,-0.3846629,4.7786436,8.657485000000001,991.5621,5.7171330729250505,991.5643700661647,0,0
13.94,-0.2986207,4.8692083,8.69536,991.55206,5.717074166539776,991.5642073636438,0,0
13.96,-0.4804281,4.8835120000000005,8.846846000000003,991.5744,5.717467668623784,991.5641002931868,0,0
13.98,-0.4804281,4.8835120000000005,8.846846000000003,991.60974,5.7182595022237495,991.564169988676,0,0
14.0,-0.5664608,5.1790379999999985,7.587494,991.5974,5.717503560031072,991.5643511996507,0,0
14.02,-0.47085905,4.8406129999999985,8.344999000000001,991.5317,5.716328017569038,991.5643937733493,0,0
14.04,-0.50909555,4.873978599999999,8.070404,991.5897,5.714334794782308,991.5645224938852,0,0
14.06,-0.29878032,4.940710500000002,10.05412,991.6454,5.715294211457418,991.5649273903728,0,0
14.08,-0.9583894,5.0455747,7.568558,991.5621,5.714577643182085,991.5652749783039,0,0
14.1,-0.18405747,5.2839026,8.491767,991.5444,5.7141632231880735,991.5655069570779,0,0
14.12,-0.662034,4.993142,6.919945200000001,991.5445,5.711015469968238,991.5656363084773,0,0
14.14,-0.3370036,4.9168773,8.761629,991.56964,5.708568461375544,991.5657650166632,0,0
14.16,-0.35133922,4.783414,9.306086,991.55206,5.707615616743863,991.5658294051564,0,0
14.18,-0.42781222,4.845379,8.652739,991.5445,5.706857608427643,991.5658095129704,0,0
14.2,-0.112341374,4.883511,8.520176,991.57733,5.706055991362799,991.5658334099878,0,0
14.22,-0.23661247,4.7166815,8.790037,991.5344,5.705545528581946,991.5657413651164,0,0
14.24,-0.05497612,4.9073434,8.269252999999999,991.5495,5.704540798433124,991.565601565354,0,0
14.26,-0.37521726,4.5879846,8.662208999999999,991.5545,5.7035051193042525,991.5654380726484,0,0
14.28,-0.43735278,4.535552,8.387613,991.55707,5.70189710525187,991.565263485432,1,1
14.3,-0.33697504,4.5593853,8.496505,991.5722,5.700003313403053,991.5651341916204,1,1
14.32,-0.23659533,4.62135,8.695350999999999,991.53687,5.6982827329102745,991.5649181965184,1,1
14.34,-0.06929649,4.854911,8.548585000000001,991.5747,5.6966824575383885,991.564762557739,1,1
14.36,-0.026274458,4.8501444000000005,9.045696,991.56464,5.696093671265443,991.5646245941057,1,1
14.38,-0.34173772,4.659482,8.633803,991.57733,5.695471376276902,991.5645484289003,1,1
14.4,-0.27481475,4.645182599999999,8.624336,991.55457,5.694785932711773,991.5644452069807,1,1
14.42,-0.31783107,4.630882700000001,8.359209,991.5545,5.6935522699773395,991.5643181973476,1,1
14.44,-0.2987061,4.6404157,8.605399,991.5747,5.692295653138852,991.5642433461252,1,1
14.46,-0.21266782,4.707147,8.534384,991.5546,5.690955443230871,991.5641424915393,1,1
14.48,-0.19832265,4.5307846,8.6811495,991.54956,5.689641011398172,991.5640008794574,1,1
14.5,-0.15530252,4.3973207,8.520182,991.5445,5.687927789830482,991.5638055478557,1,1
14.52,0.12670971,4.649948,8.719026,991.56726,5.6864773834350375,991.5636453888803,1,1
14.54,0.06457795,4.907342,8.018334,991.54456,5.6842642139529955,991.5634351650098,1,1
14.56,0.16495575,5.00744,8.487041,991.56476,5.682329646895763,991.5632541806036,1,1
14.58,-0.15512164,4.6451774000000015,9.306108,991.58734,5.681784405150987,991.5631809717322,1,1
14.6,-0.1264336,4.9216375,8.969967,991.5596,5.682115524638344,991.5631033928752,1,1
14.62,-0.09775017,4.9931355,8.472854,991.55707,5.682394465196077,991.5630131239827,1,1
14.64,-0.6856522,4.354417,9.585441,991.5495,5.684112990934818,991.5628847151428,1,1
14.66,-1.139729,4.4878800000000005,9.031515,991.55963,5.6862635996552005,991.5627595361176,1,1
14.68,-1.8471308,4.873971,8.065698,991.56976,5.687653369374018,991.5626741296006,1,1
14.7,-2.0000706000000004,5.088466,9.618584,991.54694,5.691401706178354,991.5625420215359,1,1
14.72,-1.0441006,5.77485,8.837407,991.55206,5.696273899506553,991.5623875555724,1,1
14.74,-1.4742738000000002,4.6690083,9.646992,991.5621,5.702557986220403,991.5622500342469,1,1
14.76,-1.536402,4.0541224,9.244568,991.5445,5.708803946309848,991.5620646202804,1,1
14.78,-1.3834437,4.0922550000000015,8.496533,991.54193,5.713582256484193,991.5618283038664,1,1
14.8,-1.1635635,4.4259133,6.929446,991.53687,5.714495439918988,991.5615296447894,1,1
14.82,-1.1253159,4.1685195,6.9436502,991.5822,5.711724937632457,991.5613401629075,1,1
14.84,-0.7094636999999999,4.7405057,7.1851053,991.55206,5.706666824881822,991.5611393281304,1,1
14.86,-0.8863025999999999,4.711906,6.2098193,991.5797,5.697959720319803,991.5610286889398,1,1
14.88,-0.90541714,4.759572,8.577022999999999,991.5822,5.69022800994906,991.5610071448708,1,1
14.9,-1.0057839,4.893035,11.214087,991.605,5.688427395527118,991.56114648281,1,1
14.92,-0.79068345,5.560353,11.076789,991.5898,5.692170976271767,991.561372754475,1,1
14.94,-0.6568444,5.4602547,11.199884,991.57465,5.700920587433269,991.561620486202,1,1
14.96,-0.23621243,5.2600594,10.271941,991.55707,5.71211973954749,991.5618230002057,1,1
14.98,1.0591282,4.592741,8.482339,991.557,5.721620794805423,991.5619845787784,1,1
15.0,0.6337303000000001,3.8586915,8.619636999999999,991.5847,5.729091058256531,991.5622091251216,1,1
15.02,0.35652012,4.6880713,7.0194097000000015,991.56213,5.732626942495854,991.5624072494203,1,1
15.04,0.67199177,5.0884624,6.9768,991.5847,5.7331161639535795,991.5626625659528,1,1
15.06,0.88709205,5.0598626,9.779568,991.6075,5.735869310647306,991.5630495784034,1,1
15.08,0.5915267,4.487857,10.068439,991.5419,5.740597435323577,991.5633154041224,1,1
15.1,-0.35003382,4.702350599999999,6.9342685,991.5495,5.741538249515292,991.5635005522728,1,1
15.12,-0.12058292,4.8930116,7.194662599999999,991.5495,5.739786122004305,991.5636137471904,1,1
15.14,0.45303416,5.279102,7.043164999999999,991.5495,5.735893528387972,991.5636629567296,1,1
15.16,-0.07270370400000001,4.964508,8.132082,991.5924,5.7316083483602345,991.5638098916344,1,1
15.18,0.3001616,5.464996,8.965342,991.5621,5.729020289601817,991.563933567706,1,1
15.2,0.31932133,6.146612,8.482435,991.5924,5.7278916862263305,991.5641453270397,1,1
15.22,-0.4645056,5.479293,9.935904,991.58734,5.729877216065327,991.5644159384093,1,1
15.24,-0.6174390000000001,5.6508884,8.643413,991.55206,5.732506085891943,991.5646105692372,1,1
15.26,-0.44054568,4.912071,8.061085,991.59247,5.733833511959295,991.5648828389873,1,1
15.28,0.085253015,4.554579,9.718128,991.6251,5.7366723767675705,991.5653401983184,1,1
15.3,-0.7607114,3.9921238,9.282568,991.56464,5.7395902440732485,991.5657418003093,1,1
15.32,-1.0044409,4.2256837,8.165253,991.5545,5.740728807477073,991.5660561853473,1,1
15.34,-0.2587508,4.8787017,7.5450497,991.56464,5.739750849237199,991.5663288776996,1,1
15.36,0.14277302,4.950199,7.5355824999999985,991.59717,5.7369655161557755,991.5666808567024,1,1
15.38,-0.65061355,3.7156596,8.155795,991.56226,5.732528164435916,991.5669759502651,1,1
15.4,-0.038758077,4.4068093,7.990094999999997,991.55963,5.7269358865278255,991.5672102495164,1,1
15.42,0.20503218,4.745234,7.7060323,991.5646,5.720192212663032,991.567407879436,1,1
15.44,-0.0195577,4.163713,7.5261307,991.57983,5.711517934881848,991.5676272248676,1,1
15.46,-0.0004181713,4.5545697,8.562967,991.57983,5.703450647270879,991.5678649684813,1,1
15.48,0.10479836,5.283851599999998,9.92648,991.6024,5.699163654098281,991.5681993648517,1,1
15.5,-0.05767438,5.4268475,10.035376,991.5747,5.6985716103920225,991.5685182397713,1,1
15.52,-0.40177965,4.769062,10.892307,991.5899,5.702261869742472,991.5688769719867,1,1
15.54,0.10969992,5.3076816,9.301551,991.5369,5.7072545891908,991.5690788306732,1,1
15.56,1.0848205,4.287637,9.74659,991.5822,5.713366047561688,991.5693044292184,1,1
15.58,1.1039598999999998,3.5917194,11.290007,991.56726,5.722929379793531,991.5694964081475,1,1
15.6,0.840043,3.3867831,11.091067,991.5193,5.734943314614557,991.5694853336599,1,1
15.62,1.2224258999999995,4.0445676,7.3556222999999985,991.5067,5.7425442168269285,991.5692495210416,1,1
15.64,1.1459478,4.8834815,4.8842620000000005,991.5696,5.743139054788407,991.5690424187364,1,1
15.66,1.1555063,4.7738504,6.882181,991.5975,5.7405630149418405,991.568961870432,1,1
15.68,0.48633242,4.054101,9.050538,991.5621,5.738257780803946,991.5688659952167,1,1
15.7,-0.31189734,5.279106,7.5686693,991.54443,5.7347538826200495,991.5686933102936,1,1
15.72,0.07048635,5.712863,7.4408402,991.56433,5.73051128875484,991.5685250179783,1,1
15.74,0.68707913,5.7080965,9.102616,991.6025,5.728509915090574,991.5684986248241,1,1
15.76,0.04658416,5.5317335,9.737026,991.60974,5.729395022920826,991.5686237727837,1,1
15.78,0.10394116,5.469768,9.8127775,991.5974,5.732902286330504,991.5688379479384,1,1
15.8,-0.288004,4.807217,11.753883,991.5824,5.741763896250749,991.5690760164928,1,1
15.82,-0.9476188,4.997879,9.694416,991.54706,5.751678633936077,991.5692071162081,1,1
15.84,0.04657969,5.10751,8.581831,991.5571,5.760490476730043,991.569279370298,1,1
15.86,-0.07769646,3.7824075,10.925361,991.54956,5.77156968955871,991.5692722242787,1,1
15.88,-0.90938294,3.4106162,9.6234,991.5068,5.7818865260036105,991.569041010049,1,1
15.9,-1.148375,4.711886,5.845345,991.5444,5.785974240964662,991.5687480015193,1,1
15.92,-1.0575594,4.5879555,6.3519263,991.56464,5.785190252249997,991.5684743103767,1,1
15.94,-0.3788298,3.8729722,9.779635,991.6023,5.7855475313118925,991.568354249366,1,1
15.96,-0.48398614,3.9873698,9.003193,991.58215,5.7855258461401675,991.5682978281592,1,1
15.98,-0.46008837,4.239997,8.26936,991.5974,5.7840175920734325,991.5683527421994,1,1
16.0,-0.34537375,4.3925269999999985,8.127327000000001,991.53436,5.781077469384442,991.5682788903732,1,1
16.02,-0.4266323,4.535524,7.3698225000000015,991.577,5.775675769487673,991.5682450308948,1,1
16.04,-0.46487135,4.630854599999998,8.207811999999999,991.58234,5.76972176132421,991.568265854548,1,1
16.06,-0.861597,5.026479,9.249381,991.582,5.765642805771782,991.5683336972515,1,1
16.08,-0.57480943,5.388737,8.889566,991.6025,5.762921618408033,991.5685166417543,1,1
16.099999999999998,-0.95768934,4.3353405,11.829587,991.55206,5.7660326923028125,991.568619047607,1,1
16.12,-0.9815986,4.0588803,10.925314,991.5193,5.772333964636598,991.5685319848468,1,1
16.14,-0.6183538000000001,4.7500315,8.420812,991.5468,5.7772572702773175,991.5683768210464,1,1
16.16,-0.19298166,3.5822265,9.580739,991.5723,5.782072769009888,991.5682538417566,1,1
16.18,-0.049607866,3.877753,8.927388,991.53186,5.785742625330462,991.5680141594258,1,1
16.2,-0.01615937,4.3687086,8.089397,991.537,5.787265394849548,991.5676907251443,1,1
16.22,-0.3268568,4.497406,7.35083,991.52924,5.7857007819636985,991.5672665160029,1,1
16.24,-0.33166707,4.702368700000001,7.175654400000001,991.5596,5.781334573029,991.5668640853478,1,1
16.259999999999998,-0.6662836999999999,3.8968215,9.386619,991.56726,5.777833272832153,991.5665099229136,1,1
16.28,-1.373715,4.12085,8.198281,991.5722,5.773223175854543,991.5662174692644,1,1
16.3,-0.86706597,4.9168650000000005,7.525995,991.5395,5.767137707903702,991.5658628743307,1,1
16.32,-0.37954625,5.6747484,7.2324595,991.55963,5.760122461252225,991.5655271158996,1,1
16.34,-0.63768613,5.2791247000000014,9.220907,991.55457,5.755311091467355,991.5651909941324,1,1
16.36,-0.8958056000000001,5.36969,8.255087,991.56714,5.750893513582487,991.5649010133604,1,1
16.38,-0.7763309,5.5126870000000014,8.993652,991.5571,5.748271323094655,991.564616702702,1,1
16.4,-0.70465416,5.293425599999999,10.556004,991.56464,5.749848527207272,991.5643655696742,1,1
16.419999999999998,-1.3499479,4.9836,10.584409,991.55676,5.755019896566081,991.5641162884802,1,1
16.44,-1.3164996,5.3363256,9.751152,991.5395,5.7621365058130625,991.5638074049788,1,1
16.46,-0.82900006,3.7633631,11.034172,991.5744,5.771973546466175,991.563572608859,1,1
16.48,-0.82900006,3.7633631,11.034172,991.5118,5.784178946963388,991.5631787616156,1,1
16.5,-0.59005046,5.293428400000002,6.7684703,991.5545,5.7920420127552585,991.5627995146492,1,1
16.52,-0.5613816999999999,4.9836019999999985,7.1140814,991.577,5.796229626701151,991.5625155337773,1,1
16.54,-0.3319816,4.3448844000000015,9.211419,991.56976,5.800243134933399,991.5622906883573,1,1
16.56,-0.31765234,4.2686195,9.15934,991.56464,5.803922187947028,991.562100472466,1,1
16.58,-0.5614325,4.1351566,8.690633,991.51416,5.806316561292888,991.5617598120036,1,1
16.599999999999998,-0.183137,4.5021644,7.4692197,991.5395,5.805660088150664,991.561378669096,1,1
16.62,0.34264904,4.778624,8.449242,991.5871,5.804367741104459,991.5611344880141,1,1
16.64,-0.28349763,4.783391,9.055247,991.547,5.803623797466758,991.5608678454528,1,1
16.66,-0.068402626,5.24098,8.558133999999999,991.56226,5.80293210348971,991.5606372518423,1,1
16.68,0.031980827,5.0074190000000005,10.2057085,991.56464,5.805058341565091,991.5604479092217,1,1
16.7,0.3044411,5.164715,8.738044,991.51685,5.807145273451082,991.5601236536086,1,1
16.72,0.4000448,4.8691883,8.401902,991.56213,5.8082843423553445,991.559844364196,1,1
16.74,0.3092323,4.8739550000000005,8.813794999999997,991.547,5.809324425495371,991.5595513443598,1,1
16.759999999999998,-0.33125,3.7776468,9.320377,991.5723,5.810243961272144,991.5593383271927,1,1
16.78,-0.72319007,3.6823153,9.628114,991.56464,5.811617542954652,991.5591691912462,1,1
16.8,-0.17350507,4.2638345,7.6586027,991.5394,5.8101317930044125,991.5589485736352,1,1
16.82,-0.18783304,5.603237,6.8632240000000015,991.52435,5.8063218715532425,991.558629081049,1,1
16.84,-0.5032962999999999,5.4602404,7.554447,991.52936,5.801454540153217,991.5582414087082,1,1
16.86,-0.9095758,5.0121837,8.212529,991.55707,5.7963549970535535,991.5578946443563,1,1
16.88,-1.3110678999999998,5.3172435999999985,10.2767315,991.5419,5.795185587660624,991.5575306626556,1,1
16.9,-0.36465532,5.941662,7.5544496,991.53436,5.793280278414455,991.5571256340393,1,1
16.919999999999998,-0.12566134,5.5794034,7.767498,991.55457,5.79062036701848,991.5567585504712,1,1
16.94,-0.16867578,5.2600440000000015,8.387706,991.5495,5.788004811324247,991.5564080646487,1,1
16.96,-0.17822401,5.5412707,6.654914999999999,991.53687,5.782859929346361,991.5560280383432,1,1
16.98,-0.3120547,5.817731,6.498679599999999,991.56714,5.7756362118356845,991.5557322501616,1,1
17.0,-0.43632197,5.574636,9.107337,991.56476,5.770673417185678,991.555503391624,1,1
17.02,-1.5069866000000005,5.441172,9.083667,991.52686,5.76774372105412,991.55519805601,1,1
17.04,-0.80434406,5.0598474,10.196252,991.57465,5.768108633357023,991.55499828846,1,1
17.06,-0.59880483,4.6260910000000015,9.315654,991.547,5.769319880744134,991.5547929800142,1,1
17.08,-0.5848384,4.807229,9.187791,991.5193,5.77120728227412,991.5544837947436,1,1
17.099999999999998,-1.2540187,5.031257599999999,8.013658,991.52167,5.771937315065474,991.5540924689774,1,1
17.12,-1.1249752,5.3267837,7.241948599999999,991.51416,5.7706345309033615,991.553602936642,1,1
17.14,-0.48448533,5.3649163,7.9994535,991.54956,5.7687539536227534,991.5531558312987,1,1
17.16,-0.58964866,4.2686085999999985,10.00684,991.57465,5.768970025343164,991.5528381480244,1,1
17.18,-0.9624809,4.1685114,8.4113455,991.5445,5.768006718268721,991.5525274257508,1,1
17.2,-0.93858945,4.5355363,7.402916,991.5345,5.764540715553772,991.5521879728168,1,1
17.22,-0.9529327,4.564136,7.3224306,991.54956,5.758768646969918,991.5518785715021,1,1
17.24,-0.6183541,4.5736690000000015,7.9947157,991.54193,5.752123708038676,991.5515693696433,1,1
17.259999999999998,-0.61358184,4.8739624,7.9189644,991.5294,5.744913574846787,991.5512163491496,1,1
17.28,0.012564823,5.7081103,8.056261,991.56714,5.738382698785144,991.5509617453847,1,1
17.3,-0.38895017,5.4316497,9.76538,991.5748,5.735193295689562,991.550822595215,1,1
17.32,-0.25989926,5.546047,10.376119,991.5522,5.736188143402524,991.5507046007821,1,1
17.34,-1.0868168,4.7500324,9.145172,991.53186,5.737954638700107,991.550532500338,1,1
17.36,-1.0629214,4.831064,8.179354,991.54193,5.738726486883789,991.5503494633847,1,1
17.38,-0.25514224,4.6022696,9.306141,991.5822,5.7403340957256175,991.5503023938644,1,1
17.4,-0.14521438,4.106548,10.418725,991.5069,5.7443676429846215,991.5501045546184,1,1
17.419999999999998,-0.1595614,4.306743599999999,7.431315,991.5244,5.745107132321454,991.5498372074644,1,1
17.44,-0.15956900000000002,4.7405005,7.3366265,991.5422,5.743236331942327,991.5495734855716,1,1
17.46,-0.37944758,4.421141,8.046786,991.5472,5.740007016978519,991.5493319163593,1,1
17.48,-0.32209754,4.425908,8.889510000000003,991.5144,5.7371402891199175,991.5489927109044,1,1
17.5,-0.65669143,4.6833019999999985,8.52496,991.5194,5.734216086579429,991.5485864552053,1,1
17.52,-0.8144286999999999,4.807233,8.089394,991.5345,5.7306204831299565,991.5481767764309,1,1
17.54,-0.040111937,6.022705,7.8100634000000015,991.5573,5.72731228721528,991.5478476278703,1,1
17.56,-0.10225319,5.8177433,8.392394,991.5245,5.724996484002272,991.547472740742,1,1
17.58,-0.72785634,5.22191,8.132052,991.5673,5.722484002315872,991.5472128686087,1,1
17.599999999999994,-0.3741433,5.49837,8.098913,991.5422,5.720023935141975,991.5469651992653,1,1
17.62,0.25202620000000003,5.7319309999999986,8.269353,991.54205,5.718177484391746,991.5467286639156,1,1
17.64,-0.22593135,5.4745370000000015,9.69441,991.57745,5.719105580686527,991.5466302580903,1,1
17.66,-0.41711587,5.31724,9.443488,991.5245,5.7218789703653545,991.5464636377743,1,1
17.68,-0.785138,5.617532700000001,7.270398599999999,991.5447,5.722896821925037,991.5463100629672,1,1
17.7,-1.09581,4.8596497,9.088411,991.5546,5.724735308825491,991.5462042080403,1,1
17.72,-0.871144,4.8501163,8.340377,991.5598,5.725885490969637,991.5461596194783,1,1
17.74,-0.6990635000000001,4.7595515,8.974788,991.5321,5.727453097721965,991.546069606395,1,1
17.759999999999994,-0.7850695,4.549822,8.454005,991.5346,5.7282404336485495,991.5459487802516,1,1
17.78,-0.83763975,4.840582,8.217286,991.527,5.728213121056945,991.5457738026621,1,1
17.8,-1.2486876,5.031244,7.630221400000001,991.53955,5.726740354334116,991.5455967867746,1,1
17.82,-0.8232698,4.8024483,8.468212,991.5573,5.725129209394697,991.545482507104,1,1
17.84,-0.58905196,4.6546855,9.154701,991.54224,5.724476189875934,991.5453698565616,1,1
17.86,-0.39783692,4.4068236,9.168907,991.5245,5.724451313475512,991.5451951870584,1,1
17.88,-0.5077648,4.3829910000000005,8.155745,991.5472,5.723094437507172,991.545048066412,1,1
17.9,-0.41215354,4.912078,7.232537700000001,991.5143,5.719484296512218,991.5448073775699,1,1
17.919999999999995,-0.33566147,5.426866,7.9332304,991.53687,5.71569419622414,991.5445661303496,1,1
17.94,0.123214915,6.022685,8.179421000000001,991.5419,5.712882372624332,991.5443433662366,1,1
17.96,-0.5363828,5.102739,9.547666,991.54205,5.712359874293893,991.544138275748,1,1
17.98,-0.52680796,5.2028365,8.818569,991.5548,5.712643164626366,991.5439954399994,1,1
18.0,-0.6510676999999999,5.407799,8.373536,991.65045,5.713090144328255,991.544252466748,1,1
18.02,-0.7179696999999999,5.4077983,7.535547699999999,991.5797,5.7122537184287845,991.5446071867027,1,1
18.04,-0.23041448,5.755756,8.226772,991.44116,5.711824496398883,991.5445482073826,1,1
18.06,-1.3488657,5.0360055,7.1189237000000025,991.4918,5.7092226407883215,991.5443061997087,1,1
18.08,-0.29343470000000005,5.3744535,8.903711,991.51935,5.707995117958182,991.5440025194092,1,1
18.1,-0.4129514,5.450719,8.14147,991.5598,5.706743801478356,991.5437910584268,1,1
18.12,-0.40341341,5.7605457000000015,8.283501,991.53174,5.706081481607198,991.543560827692,1,1
18.14,-0.40341341,5.7605457000000015,8.283501,991.57245,5.705941983490992,991.5434613968351,1,1
18.16,-0.38432652,5.536518599999999,8.458671,991.5596,5.706304728133258,991.5434316387016,1,1
18.18,-0.4799441,5.3982887,7.956821400000001,991.5646,5.7060923002963575,991.5434815505156,1,1
18.2,-0.46561557,5.3124905,8.297698,991.557,5.705863831320405,991.5435743190125,1,1
18.22,-0.45607752,5.3029585,8.543885000000001,991.53705,5.706042943192031,991.5436328017076,1,1
18.24,-0.5373557,5.093230200000002,8.553351,991.53174,5.706380525468641,991.5436416629308,1,1
18.26,-0.6520925999999999,5.078931,8.345036,991.54205,5.706485705385119,991.5436437627214,1,1
18.28,-0.4991712,5.117064,8.193532000000001,991.54456,5.706140306239942,991.5436489165504,1,1
18.3,-0.5613195,5.0979980000000005,8.520205,991.54724,5.7059628338294965,991.5436663983742,0,0
18.32,-0.19807595,5.3792253,8.236138,991.5397,5.705714884006622,991.5436675662796,0,0
18.34,-0.40840894,5.188564,8.288215,991.55475,5.705296815044931,991.543708495002,0,0
18.36,-0.31284514,5.1742654,8.785325,991.517,5.705589949795935,991.5436485090393,0,0
18.38,-0.43713087,5.0169687000000005,8.832668,991.5398,5.706441492200477,991.54358165081,0,0
18.4,-0.1981838,5.5126915,8.051487,991.5346,5.706936279797429,991.5434902409356,0,0
18.42,-0.25555223,5.46026,8.169847,991.5245,5.707259483703692,991.5433411063036,0,0
18.44,-0.29381222,5.1695004,8.363955,991.54974,5.707444672188744,991.5432323669597,0,0
18.46,-0.33685207,5.1027694000000015,8.605408,991.5447,5.707867383222776,991.5431415683544,0,0
18.48,-0.08354404,5.3363314000000015,8.169839999999999,991.5346,5.707975375994033,991.5430305890608,0,0
18.5,-0.1791617,5.345865,8.311871,991.5472,5.708066027932749,991.5429475376365,0,0
18.52,-0.48509067,5.026506,8.586463,991.55725,5.7083013600059225,991.5429256422624,0,0
18.54,-0.4325236,5.1170707,8.36868,991.53705,5.7083671383311225,991.5428851431972,0,0
18.56,-0.15053679,5.1409044,8.58646,991.5347,5.708678326874888,991.5428198917084,0,0
18.58,-0.24137464,5.0169744000000005,8.790039,991.55225,5.709444154205707,991.5427961838825,0,0
18.6,-0.06805109,5.002644,8.056321,991.5271,5.7092777729699735,991.5427187293852,0,0
18.62,-0.020239145,5.0550756,8.231494,991.5347,5.708654871103405,991.542621423166,0,0
18.64,0.0036877692,5.355368,7.8716817,991.5624,5.707341679818184,991.5426066462672,0,0
18.66,-0.2543798,5.341068,8.633925,991.5748,5.706742949156648,991.5427094854728,0,0
18.68,-0.41209942,5.3553667,8.643394,991.5372,5.706820776174313,991.5427805200474,0,0
18.7,-0.45508975,5.1837697,8.657601,991.56476,5.707339773491162,991.5429224123246,0,0
18.72,-0.4550619000000001,4.840577,9.462452,991.5545,5.70936350489779,991.5430894676573,0,0
18.74,-0.10132849,4.997873,9.230469,991.5397,5.71241592169373,991.543224875665,0,0
18.76,0.2476251,5.055071,8.458764,991.54956,5.7150362884474335,991.5433673286284,0,0
18.78,0.25722653,5.012171,7.9095764000000015,991.53705,5.716247426686399,991.5434704576841,0,0
18.8,0.1855434,4.9502053,8.274125999999999,991.56213,5.7167830623284255,991.5436287568697,0,0
18.82,0.4245615,5.1551665999999985,8.354614,991.5346,5.717099448367269,991.5437361265056,0,0
18.84,0.38633698,5.1694655,8.785446,991.53467,5.717999451465865,991.5437983602603,0,0
18.86,0.090017036,5.0979667,8.420899,991.542,5.7186707485664225,991.5438468759088,0,0
18.88,0.094824746,5.088433,8.79492,991.56744,5.71979653107322,991.5439746795828,0,0
18.9,-0.3974672,4.840571400000001,8.529796000000001,991.54443,5.720601402384697,991.5440892460628,0,0
18.92,-0.39264554,4.974034,8.113173,991.52686,5.720515013429733,991.5441284517184,0,0
18.94,-0.23489809,4.9692669999999985,8.18419,991.5345,5.719751421811041,991.5441284314096,0,0
18.96,-0.13927412,5.0979633,8.714446,991.5545,5.719471908562709,991.5441657511118,0,0
18.98,-0.14880586,5.2123604000000014,8.103710000000001,991.54205,5.718663794482567,991.5441911100966,0,0
19.0,-0.30651143,5.126561,8.454058999999999,991.53705,5.7179221686184025,991.5441878092993,0,0
19.02,-0.44509792,5.00263,9.031658,991.5621,5.718161536872293,991.5442493766012,0,0
19.04,-0.36381334,4.9168315,8.837549000000003,991.54694,5.718821220373952,991.5443134637133,0,0
19.06,-0.10564816,4.935896400000002,8.463538,991.532,5.719181641278781,991.5443257626164,0,0
19.08,-0.26003563,4.7452693,8.709596000000001,991.5546,5.7195331446696125,991.5443736171812,0,0
19.1,-0.37478137,4.702371599999998,8.240886999999999,991.51666,5.718989490006392,991.5443161324533,0,0
19.12,-0.43694925,4.6594725,8.468135,991.5472,5.718030433099903,991.5442757208708,0,0
19.14,-0.20754911,4.9407,8.482336,991.5825,5.717005541316112,991.5443776206014,0,0
19.16,0.15092091,5.140896,8.936836999999997,991.55725,5.716949931892025,991.5445139997693,0,0
19.18,0.4424585,5.279127,8.884755,991.5472,5.717819927151107,991.5446441740024,0,0
19.2,0.39461488,5.226696,8.42078,991.5369,5.718620448161294,991.5447313169287,0,0
19.22,-0.1025152,4.869205,8.40184,991.53955,5.718925445016706,991.5447896636776,0,0
19.24,-0.31284177,4.8692055,8.292947,991.5671,5.718605448818723,991.5449215360754,0,0
19.26,-0.7095959,4.516480400000002,7.989942599999999,991.54694,5.71686900137257,991.5450453249963,0,0
19.28,-0.8386811,4.859674,8.42077,991.55725,5.715036701224421,991.5451986417168,0,0
19.3,-0.5997213,5.0026712,8.875271000000003,991.5345,5.714055749489982,991.5452955972607,0,0
19.32,-0.27950495,5.140902,8.7663765,991.5573,5.713748913348564,991.5454244830294,0,0
19.34,-0.1887191,5.1266026,8.212448,991.5497,5.713034193493932,991.5455537583556,0,0
19.36,-0.02145642,5.2457676,8.207711,991.55225,5.7120818164010005,991.5456920925037,0,0
19.38,-0.121862754,5.250535500000002,8.060941999999999,991.5422,5.71067347121083,991.545801753024,0,0
19.4,-0.25572765,5.0932393,8.52491,991.55475,5.709517668488523,991.5459308627487,0,0
19.42,-0.38481283,5.007442500000002,8.728487,991.5447,5.7088726674840675,991.5460405129958,0,0
19.44,-0.4565251,4.9883760000000015,8.468093,991.55475,5.70820025111213,991.5461687541072,0,0
19.46,-0.38010907,4.9693117,8.704807,991.5546,5.707904718089052,991.5463124204384,0,0
19.48,-0.198507,5.0980089999999985,8.581711,991.5623,5.707845921231426,991.5464969192952,0,0
19.5,-0.198507,5.0980089999999985,8.581711,991.5321,5.7079965161182775,991.5466081135756,0,0
19.52,-0.09817678,5.0980105,8.397065,991.53217,5.707999496942811,991.5466543876328,0,0
19.54,-0.16990426,4.969314,8.595907,991.55963,5.708093252333094,991.5467419875943,0,0
19.56,-0.21773273,5.0122137,8.458607,991.5447,5.708067618777517,991.546812039765,0,0
19.58,-0.3372431,4.9550157,8.586433999999999,991.58997,5.708112829606407,991.5470293065198,0,0
19.6,-0.34635353,4.978838,8.392364,991.5043,5.707898182527362,991.5470674579207,0,0
19.62,-0.3750495,5.012203,8.638553,991.5245,5.707932995623523,991.5470199256504,0,0
19.64,-0.28424466,5.036037,8.629082,991.55225,5.7081897784515085,991.5469967544037,0,0
19.66,-0.26513684,4.9740720000000005,8.666955999999999,991.54694,5.7086442953227055,991.5469760759744,0,0
19.68,-0.23646374,4.9550056,8.430236,991.55963,5.7088251607540546,991.5470033586407,0,0
19.7,-0.08352715,4.9788394,8.420765,991.56226,5.708766575426973,991.5470823895135,0,0
19.72,-0.06441362,4.9883723,8.420765,991.5397,5.708506413107688,991.5471256445903,0,0
19.74,-0.15046728,4.983606,8.629077,991.5596,5.7084397257107495,991.5472087724561,0,0
19.76,-0.16959219,4.9740730000000015,8.624342,991.5698,5.708526445714381,991.547363552657,0,0
19.78,-0.13135946,5.0026730000000015,8.482308999999999,991.55707,5.708522163123454,991.5475352596533,0,0
19.8,-0.11225738,4.878742,8.728497,991.56964,5.708752452873108,991.5477665570204,0,0
19.82,-0.18875134,5.026506,8.255054,991.5271,5.70849652508639,991.5478965317683,0,0
19.84,0.06456680599999999,5.064639,8.666946000000001,991.5345,5.708584348228547,991.5479631499416,0,0
19.86,-0.01192148,5.0932384000000015,8.226645,991.54456,5.708221581652631,991.5480097624196,0,0
19.88,-0.06929053,5.183803,7.6490474000000015,991.55225,5.706557203393582,991.5480662140603,0,0
19.9,-0.23180959,5.1266045999999985,7.7342668,991.56964,5.703835134544674,991.5481937603596,0,0
19.92,-0.0979922,5.0932393,9.485995,991.56714,5.703275524764254,991.5483746667323,0,0
19.94,-0.16969498,5.0551076,9.272945,991.5346,5.704203400386668,991.548484926803,0,0
19.96,0.107522234,5.159971700000002,9.031489,991.5346,5.706108595611683,991.548532366865,0,0
19.98,0.16964824,4.9597760000000015,8.984145,991.532,5.70858268258644,991.548514768383,0,0
20.0,0.24610795,4.812014,8.344999000000001,991.56726,5.710246214187237,991.5485667011984,0,0
20.02,0.09314284,4.659484,7.8762919999999985,991.56964,5.710180883340565,991.5486884529092,0,0
20.04,0.035779476,4.6022854,8.340263,991.5321,5.709365665586567,991.5487363142907,0,0
20.06,-0.0263694,4.7691154,8.392341,991.54456,5.708154590466236,991.548763569876,0,0
20.08,0.11351387,5.198074299999999,8.600769999999999,991.5445,5.707424033625706,991.5487723040596,0,0
20.1,0.094414935,5.226673,8.771211,991.50934,5.7074546107015705,991.5486380652897,0,0
20.12,-0.0059001,5.0407763,8.487152,991.5624,5.707451761213868,991.5485689948773,0,0
20.14,-0.03931815,5.026475,8.430344,991.5344,5.707302879075142,991.5484569558794,0,0
20.16,-0.072736226,4.9835753,8.558176,991.5345,5.707209534013567,991.5483077131796,0,0
20.18,-0.21133025,4.935909,8.482427000000001,991.5546,5.7069838625543765,991.5481984945627,0,0
20.2,-0.51719713,4.931142,8.013724,991.56714,5.705825812774544,991.5481701784123,0,0
20.22,-0.09651351,5.207600599999999,8.861189,991.51935,5.705625202535138,991.54804140562,0,0
20.24,-0.20640847,4.8548737,9.15946,991.55707,5.7064584475215145,991.5479601249199,0,0
20.26,-0.27808523,4.7643094,9.16893,991.5394,5.7081356673321215,991.547857488844,0,0
20.28,0.018303186000000003,4.978803599999999,8.894339,991.51685,5.710254208403808,991.5476551726473,0,0
20.3,-0.35446063,4.9502025000000005,7.701274400000001,991.532,5.710611815431387,991.5474200474343,0,0
20.32,-0.4595961,4.8501043,7.848043,991.53705,5.709568827863009,991.5471749586252,0,0
20.34,-0.35917956,4.916835,8.098969,991.56714,5.707799585072711,991.5470302723027,0,0
20.36,-0.19182561,4.8119693,8.610291499999999,991.5546,5.706193352507375,991.546929678488,0,0
20.38,0.06634462,5.14086,8.165263000000001,991.552,5.704286984386097,991.5468590469504,0,0
20.4,0.18586002,5.221891,8.269422,991.5345,5.702398430824445,991.5467521443547,0,0
20.42,-0.0244108,5.1265593,8.439864,991.5673,5.700725650086127,991.5467316575017,0,0
20.44,0.032987416,5.0741260000000015,8.444602,991.5447,5.699201675201249,991.5467062413513,0,0
20.46,0.05690673,5.0169272000000005,8.520354,991.5344,5.697889438634628,991.5466394811721,0,0
20.48,-0.1390044,4.94066,8.231562,991.53705,5.696173806693762,991.5465459697454,0,0
20.5,-0.10552548,4.935893,8.420939,991.52936,5.69444049284134,991.5464014735576,0,0
20.52,-0.052907065,4.8882265,8.733414,991.55963,5.693211228108388,991.5463214194212,0,0
20.54,0.023610353,4.883458999999998,8.719214,991.53705,5.69240094052634,991.5462173064765,0,0
20.56,0.10012777,4.9787893,8.676608,991.56476,5.691985445744457,991.5461920659752,0,0
20.58,0.14318661,5.078886,8.865989,991.5244,5.692366286900523,991.5460913120306,0,0
20.6,0.0428513,5.3029137,8.643474000000001,991.52435,5.693287182753531,991.545924017122,0,0
20.62,0.210185,5.574606,8.141631,991.51685,5.694118374029777,991.545671528879,0,0
20.64,0.36317933,5.565072,7.819696,991.5497,5.694316907801838,991.5454629327637,0,0
20.66,-0.047843300000000005,5.250478299999998,8.420967999999998,991.55457,5.6946190963749626,991.5453114026781,0,0
20.68,-0.09198682,5.145642,8.444538,991.5244,5.69493980171892,991.5451022296447,0,0
20.7,-0.44091088,4.921613,7.923753299999999,991.54205,5.694130540667545,991.5449064163257,0,0
20.72,-0.25449747,5.0884423,8.520288,991.55725,5.693550221720005,991.5447778325785,0,0
20.74,0.013172656,5.05031,9.012667,991.552,5.694013694990527,991.544690215782,0,0
20.76,0.013173714,4.945446,9.003198,991.5219,5.6952748431410765,991.544530752804,0,0
20.78,0.08009152,5.1265755,8.55343,991.55725,5.696613510282152,991.5444356406064,0,0
20.8,0.3190828,5.274338200000001,7.937957000000001,991.5522,5.697108350967777,991.5443795511624,0,0
20.82,-0.2592724,4.5641212,8.529758000000001,991.53705,5.69715043592955,991.5443036041452,0,0
20.84,0.18047117,5.0455437000000005,8.283569,991.5522,5.6968408371780885,991.5442649243864,0,0
20.86,0.08965546,4.935912,8.63865,991.5372,5.696738817210774,991.5442053132233,0,0
20.88,0.046638265,4.878714,9.017402,991.5573,5.697450219700492,991.5441997816721,0,0
20.9,0.2330517000000001,4.9502125,8.766478999999999,991.5748,5.698498629746451,991.5443050547792,0,0
20.92,0.17569514,4.8596477999999985,8.307241000000001,991.5522,5.6989173968193825,991.5444264958998,0,0
20.94,0.24261348,4.835815,8.738071000000001,991.54205,5.6995349080883075,991.5445252458886,0,0
20.96,0.13267906,4.6022534,8.657588,991.527,5.699943024356825,991.5445494104936,0,0
20.98,0.16613878,4.5450550000000005,8.553431,991.55725,5.699918787105992,991.5446164844606,0,0
21.0,0.24739651,4.6689854,8.652854,991.57745,5.699819885724539,991.5447939516736,0,0
21.02,0.31431538,4.7643166,9.097888,991.54205,5.700568668630445,991.5449408834774,0,0
21.04,0.3621145,4.7833830000000015,8.984262,991.5699,5.701876821860634,991.5451605652388,0,0
21.06,0.2856387,4.683285,8.742807,991.5648,5.703128998336222,991.5454253780078,0,0
21.08,0.12312703,4.635619,8.695463,991.55225,5.704186775718013,991.5456839352099,0,0
21.1,0.12312703,4.635619,8.695463,991.54456,5.705068974061942,991.5459083501868,0,0
21.12,0.075330585,4.530755,9.192576,991.55194,5.7066118623104645,991.5461283572,0,0
21.14,-0.025044769,4.3114940000000015,9.363014,991.5422,5.7088562094571405,991.5463086133107,0,0
21.16,0.07055241,4.7071176,8.714402,991.5522,5.710873928285395,991.5464890966023,0,0
21.18,0.5958177,5.198086,8.662276,991.53687,5.713131224221987,991.5466139428908,0,0
21.2,0.0748,4.3973045,8.591258,991.53217,5.714618780018095,991.5466722588773,0,0
21.22,-0.00646618,4.282907,8.416084,991.54694,5.71498785488553,991.5467247507506,0,0
21.24,-0.059063032,4.578434,8.487099,991.5624,5.714783576459932,991.5468275634672,0,0
21.26,-0.10688008,4.730965,8.974739999999997,991.5573,5.7151177250602805,991.5469561095554,0,0
21.28,-0.0065137595,4.6928325,9.410305,991.5372,5.71669469223829,991.5470345708844,0,0
21.3,0.28024596,4.8739624,8.482358,991.55963,5.717849798882643,991.5471492428592,0,0
21.32,0.351924,4.716666,8.335591,991.5596,5.718206141160318,991.5472953897424,0,0
21.34,0.2897675,4.7023673,8.629122,991.53436,5.7183698074640406,991.5473779577247,0,0
21.36,0.16069378,4.974061,7.918959599999999,991.54724,5.717367961308007,991.5474504181464,0,0
21.38,-0.25039786,4.487873,9.140433,991.5621,5.717071064229543,991.5475671826697,0,0
21.4,-0.059224777,4.6976023,8.614912,991.5245,5.716622436077604,991.5475873139447,0,0
21.42,0.13195787,4.7548013,8.742741,991.5196,5.716332990411072,991.5475043476092,0,0
21.44,0.2609936,4.7119019999999985,8.524957,991.54456,5.715750907167362,991.5474204389036,0,0
21.46,0.31355238,4.893032,8.619643,991.54694,5.715271074870981,991.5473445675916,0,0
21.48,0.2322767000000001,4.873966,8.648047,991.5621,5.714910536862528,991.5473306472568,0,0
21.5,0.14623071,4.6833043,8.85636,991.5372,5.714843370675231,991.5472818769188,0,0
21.52,-0.14057657,4.502176,8.719061,991.55963,5.7146082613894205,991.5472832366913,0,0
21.54,0.112734035,4.702372,8.558089,991.55475,5.7141252363549935,991.547311318534,0,0
21.56,0.09359579,4.540309,9.17356,991.522,5.714402880923432,991.5472450109037,0,0
21.58,0.5141899999999999,4.9168677,8.737992,991.55225,5.714943161763964,991.5472044394425,0,0
21.6,0.3946759,4.8692026,8.610163,991.55725,5.71542245241664,991.5472047545168,0,0
21.62,0.38032693,4.8072376,8.444457,991.5698,5.715482120399412,991.5472863758006,0,0
21.64,0.18910621,4.8024716,8.984177,991.5549,5.7161364656325375,991.547385905414,0,0
21.66,0.21777554,4.8120055,8.524938,991.5649,5.71648822030146,991.5475369005208,0,0
21.68,0.14251636,4.506916,8.728629,991.5345,5.7166395940269865,991.5476233869554,0,0
21.7,0.15691663,4.7452416,8.406694,991.5395,5.716260492953235,991.5476705621761,0,0
21.72,0.013537765,4.6403775000000005,8.667089,991.5546,5.715780665015916,991.5477371921768,0,0
21.74,0.3864081,4.9978676,8.790188,991.537,5.715811952124323,991.547757412554,0,0
21.76,0.3864081,4.9978676,8.790188,991.5246,5.716294747853548,991.547691912594,0,0
21.78,0.41513264,4.993100599999999,8.903817,991.53973,5.717377736614566,991.547605373944,0,0
21.8,0.34823054,4.9549675,8.903818,991.53723,5.718943331911293,991.5474915570468,0,0
21.82,0.051928385999999986,4.678506400000002,8.468258,991.54956,5.719847271440398,991.5473984348308,0,0
21.84,0.06628302,4.673739,8.477727999999999,991.5599,5.7201759447526745,991.5473611576754,0,0
21.86,0.41525435,4.935899,8.41145,991.5548,5.720162745628719,991.5473549994133,0,0
21.88,0.48220205,5.0026297999999985,8.581892,991.53723,5.7202292792338625,991.5473131079747,0,0
21.9,0.391401,4.9454303,8.520346,991.5448,5.720187515932121,991.5472670455114,0,0
21.92,0.24805252,4.9120636,8.610304,991.52216,5.720167976428533,991.5471359593547,0,0
21.94,0.119028226,4.826265,8.49668,991.54724,5.7198697405549455,991.547020506173,0,0
21.96,0.16684152,4.8453307,8.690793,991.5599,5.719698763744347,991.5469648579193,0,0
21.98,0.25770342,5.002626,8.520358,991.56744,5.719499831539742,991.546989397634,0,0
22.0,0.38677335,5.0836573,8.274171,991.5574,5.718934001845501,991.5470485590944,0,0
22.02,0.3629048,5.06459,8.510894,991.53467,5.718444363092581,991.547056271348,0,0
22.04,0.3151372,5.012157,8.619788,991.54224,5.718160170052855,991.5470457473184,0,0
22.06,0.37251008,5.0216904000000016,8.335725,991.54724,5.717564993221616,991.5470371475957,0,0
22.08,0.30563850000000004,4.8977585,8.33573,991.5372,5.716560697796867,991.5469941351492,0,0
22.1,0.29131424,4.873925,8.515637,991.54724,5.715496092430836,991.5469570144652,0,0
22.12,0.18618901,4.8977575,8.927533,991.54724,5.715147655925442,991.5469252333763,0,0
22.14,0.2579165,5.0073870000000005,8.491972,991.5623,5.714762499991608,991.5469525007665,0,0
22.16,0.22450356,4.8786893,8.416225,991.54474,5.714073733207376,991.5469686292292,0,0
22.18,0.1715305,4.7690682,8.49194,991.54474,5.71314069753029,991.5469748572735,0,0
22.2,0.30060613,4.9406633,8.690786,991.5497,5.712536716853005,991.5469901708876,0,0
22.22,0.3436383,5.069360700000002,8.435129,991.5749,5.711904987152183,991.547104177382,0,0
22.24,0.38667053,4.988329,8.91804,991.55225,5.7120375939756665,991.5472234384816,0,0
22.26,0.27674198,4.883464,8.903837,991.5321,5.712706293956263,991.5472743732106,0,0
22.28,0.2528569,4.921596,8.477742999999998,991.5345,5.713112859474776,991.5472733913936,0,0
22.3,0.22897883,4.9025292,8.671856,991.5525,5.71361541114179,991.5472913396512,0,0
22.32,0.14773615,4.9644947,8.529824000000001,991.54456,5.714005810955179,991.5472973659088,0,0
22.34,-0.06256129,4.7547655,8.581903,991.5298,5.714172662472649,991.5472397001927,0,0
22.36,-0.00041685998,4.759532,8.548764,991.54736,5.714085567326008,991.5471891798453,0,0
22.38,0.12865876,4.959727,8.600843,991.56256,5.714075454282215,991.5471998750188,0,0
22.4,0.20514263,4.9740257,8.430407,991.5348,5.713845113041584,991.5471646857242,0,0
22.42,0.36289012,5.0312247,8.591377,991.56506,5.713778957593254,991.5471980155947,0,0
22.44,0.13348044,4.873928,8.74288,991.56506,5.713957418256581,991.5472917690124,0,0
22.46,0.12871459999999998,4.892993499999998,8.534568,991.5799,5.713993873852237,991.5474919991636,0,0
22.48,0.30080146,4.9930910000000015,8.506163,991.5546,5.71396583708969,991.5476945113282,0,0
22.5,0.23867102,4.916826,8.544039,991.555,5.7138657972821525,991.547899750836,0,0
22.52,0.13352926,4.7928953000000005,8.529836999999999,991.54486,5.713545392528566,991.5480701573624,0,0
22.54,0.2434857,4.8119607,8.671871000000001,991.58514,5.7133128158280275,991.5483541800024,0,0
22.56,0.26739168,4.84056,8.638731,991.53217,5.713128761609517,991.5485468793588,0,0
22.58,0.4442584,5.0121555,8.52984,991.54736,5.7129826883778465,991.548712875745,0,0
22.6,0.3964743,5.0216885,8.586654,991.55237,5.712978288088273,991.5488727157988,0,0
22.62,0.3343578,4.8739247,8.652938,991.56244,5.713060958282537,991.5490627926937,0,0
22.64,0.28179390000000004,4.8357915999999985,8.477767,991.5399,5.712861198911384,991.549197758584,0,0
22.66,0.28179390000000004,4.8357915999999985,8.477767,991.5247,5.712412603909957,991.549228822514,0,0
22.68,0.4629963,4.969266,8.44932,991.5272,5.711847902109839,991.5491769668413,0,0
22.7,0.57292986,5.0502973,8.586617,991.545,5.711525502124891,991.5491161100883,0,0
22.72,0.4868915,4.993099,8.676572,991.54974,5.711510564222393,991.5490645830652,0,0
22.74,0.3673926,4.873935,8.515601,991.55225,5.71134358586853,991.5490305212883,0,0
22.76,0.2717908,4.9787993,8.482460000000001,991.56494,5.711086084186338,991.5490576984256,0,0
22.78,0.24788989,4.9406667,8.856478,991.56494,5.711383384026674,991.54913888843,0,0
22.8,0.20964767,5.0216985,8.534538000000001,991.5448,5.711671280396692,991.5491950079196,0,0
22.82,0.16184582,4.916834400000001,8.742852000000001,991.5573,5.712214551056392,991.5492737730716,0,0
22.84,0.17139973,4.878702,8.387771,991.54736,5.712301946593738,991.5493364803774,0,0
22.86,0.15227668,4.835803,8.5818815,991.5448,5.7122913486220765,991.5493755572232,0,0
22.88,0.18573336,4.859636,8.610288,991.55237,5.712271141720035,991.5494208655181,0,0
22.9,0.18094791,5.055064700000001,8.3356905,991.5674,5.711954921406071,991.5495256248115,0,0
22.92,0.14270563,4.9025354000000005,8.847007000000003,991.58264,5.712137288297878,991.5497374018744,0,0
22.94,0.08534612,4.797671299999998,8.903819,991.5222,5.712757308052884,991.5498253934396,0,0
22.96,0.2956537,5.055065,8.5440035,991.55756,5.713382135665443,991.5499309873708,0,0
22.98,0.24307205,4.9835668,8.255203999999999,991.5525,5.713414687370813,991.5500335386138,0,0
23.0,0.1952702000000001,4.826271,8.562941,991.5324,5.713309185591543,991.550060672153,0,0
23.02,0.17136927,4.864403,8.686035,991.55255,5.713342988409804,991.5500936089284,0,0
23.04,0.35777587,4.9168353,8.345158,991.55005,5.712950345372577,991.5501225548712,0,0
23.06,0.18569915,4.7357063,8.823332,991.545,5.712853853967513,991.5501296903084,0,0
23.08,0.15701653,4.764305599999998,8.695503,991.56,5.712813175410295,991.550171528296,0,0
23.1,0.16179441,4.8072050000000015,8.548737,991.555,5.712598709048616,991.5502258788396,0,0
23.12,0.40077895,4.9025364,8.70497,991.57776,5.712625549781842,991.5503730258164,0,0
23.14,0.3529752,4.907303,8.544001,991.55255,5.712576023594027,991.5505108819921,0,0
23.16,0.2717166,4.8644037,8.548736,991.5651,5.7124181510501515,991.5506852125336,0,0
23.18,0.22432984,4.88346,8.624524000000001,991.56006,5.712319132685147,991.550873000235,0,0
23.2,0.06660904,4.7738285000000005,8.752353999999999,991.5727,5.712389200544043,991.5511175066472,0,0
23.22,0.05228229,4.6737304,8.922792999999997,991.5627,5.712822579986162,991.551375249489,0,0
23.24,0.15745066,4.7976613,8.487228,991.55,5.7129057204287275,991.5515980401656,0,0
23.26,0.27695840000000005,4.8929915,8.5156355,991.5424,5.712833971401433,991.5517617850634,0,0
23.28,0.28175086,4.873925,8.420949,991.5525,5.712435700177281,991.5519091276283,0,0
23.3,0.29132318,4.7785935,8.738155,991.5576,5.712228166173775,991.5520598066597,0,0
23.32,0.20051323,4.64513,8.865986,991.5349,5.712288554513509,991.5521311713474,0,0
23.34,0.057131782,4.6689625,8.529844,991.56006,5.711989114250172,991.5522227729688,0,0
23.36,0.21488433,4.8786907,8.193703,991.56006,5.710986940643393,991.5523319261788,0,0
23.38,0.28181422,4.945421700000002,8.648207000000001,991.58276,5.710256533100238,991.5525379150207,0,0
23.4,0.133653,4.7833586,9.154789,991.57513,5.710524687497489,991.5528012582678,0,0
23.42,0.1623445,4.792892,8.709756,991.57513,5.710869330627083,991.5531143318308,0,0
23.44,0.25316710000000003,4.8596234,8.742898,991.55756,5.711411627715265,991.5534069680366,0,0
23.46,0.16236986,4.7118597,8.26946,991.56006,5.711114654321678,991.5536894923033,0,0
23.48,0.24841265,4.7547584,8.188974,991.58527,5.709980509540497,991.5540528205728,0,0
23.5,0.13371004,4.6880264,8.785511,991.5626,5.709121737027818,991.5544046272777,0,0
23.52,0.23410492,4.8167230000000005,8.610339,991.5727,5.708322039832398,991.5547813470238,0,0
23.54,0.2388974,4.831022,8.7144985,991.5804,5.707781200813294,991.5552064437422,0,0
23.56,0.27236235,4.826256,8.572466,991.56494,5.707210368977248,991.5556171000052,0,0
23.58,0.21979718,4.90252,8.572467,991.53754,5.706690569678239,991.5559148783193,0,0
23.6,-0.06218585400000001,4.564094,9.022238,991.5549,5.706702844809227,991.5561743416754,0,0
23.62,0.00473772,4.621292,8.856535000000003,991.54004,5.7069328111349815,991.5563455198668,0,0
23.64,0.15292425,4.783355,8.66716,991.56,5.707169235438308,991.5565099290454,0,0
23.66,0.21029462,4.7547555,8.662426,991.535,5.707375428010986,991.5565777652513,0,0
23.68,0.16224883,4.7166295,8.6482,991.5475,5.707488316509704,991.5566050253673,0,0
23.7,0.2530676,4.7928944000000016,8.671873,991.5804,5.707641712874675,991.5567147743146,0,0
23.72,0.14313470000000006,4.778594,8.837576,991.53503,5.708113694850334,991.556733683297,0,0
23.74,0.02364339,4.7881274000000005,8.58192,991.5602,5.70840721459382,991.556762870014,0,0
23.76,-0.12930904,4.716629,8.577186,991.5349,5.708463090521271,991.5567099530651,0,0
23.78,-0.16276643,4.678496400000001,8.534575,991.5475,5.70819405855762,991.556630039818,0,0
23.8,0.04277022,4.65943,8.662405,991.5576,5.707850847589457,991.5565629203296,0,0
23.82,0.15270822,4.7452283,8.510904,991.5651,5.707255095657747,991.5565343470364,0,0
23.84,0.13359029999999994,4.792894,8.562983000000001,991.5602,5.7065805615616325,991.5565222960253,0,0
23.86,0.19095175,4.8262596,8.686078,991.5272,5.706097994442298,991.5564060874859,0,0
23.88,0.13359664,4.7595269999999985,8.700282000000001,991.5626,5.70574372989822,991.5563257037056,0,0
23.9,0.14793862,4.7785935,8.733422000000001,991.5601,5.7055839714174565,991.556268264064,0,0
23.92,0.12404086,4.7928934000000005,8.5677185,991.5348,5.705309024632659,991.556140224646,0,0
23.94,0.004549578,4.6689625,8.932267,991.5829,5.705475610677652,991.5561234242076,0,0
23.96,-0.02890782,4.6355963,8.832844999999997,991.5903,5.705816587456321,991.5562316150133,0,0
23.98,0.06669080000000001,4.688029,8.723953999999999,991.53754,5.706162035446495,991.5562599225948,0,0
24.0,0.1097116,4.688029,8.605595,991.5652,5.706294635001768,991.5563171194528,0,0
24.02,0.2531082000000001,4.8119593,8.757095,991.52747,5.706643949724022,991.5562638089664,0,0
24.04,0.21487232,4.8167257,8.638736,991.5451,5.706971249876688,991.5561765141084,0,0
24.06,0.21965466,4.7928934000000005,8.681346000000001,991.5777,5.70733153498992,991.5561768649208,0,0
24.08,0.16707937,4.7499933,8.648205,991.5501,5.707614203245454,991.556155298185,0,0
24.1,0.06670603,4.76906,8.667143,991.59033,5.7078783836586675,991.5562592707436,0,0
24.12,0.076266915,4.7595267,8.629267,991.5955,5.708046909280728,991.556492407522,0,0
24.14,0.1001697,4.645129,8.738159,991.5576,5.708216545270691,991.5567023945123,0,0
24.16,0.13362960000000002,4.6927949999999985,8.567721,991.5777,5.708122688423622,991.5569635303967,0,0
24.18,0.253159,4.807191400000002,8.562989,991.5501,5.707907938373923,991.5571695613547,0,0
24.2,0.31052040000000003,4.7738256,8.790241,991.5577,5.707970342052593,991.5573535198884,0,0
24.22,0.10499267,4.7976584,8.671882,991.5628,5.708076642494287,991.5575356729767,0,0
24.24,0.07631767,4.692794,8.662413,991.5603,5.708098874539528,991.5577065750232,0,0
24.26,0.066761866,4.6594276,8.8944,991.5375,5.708439540591936,991.5577848404013,0,0
24.28,0.31531924,4.7785910000000005,8.477773,991.5804,5.708427913001945,991.557935410264,0,0
24.3,0.31531924,4.7785910000000005,8.477773,991.5652,5.708105040608853,991.5580946063176,0,0
24.32,0.34878170000000003,4.7881246,8.473039,991.5855,5.707511855954013,991.558333931368,0,0
24.34,0.27230865,4.721392,8.823383999999997,991.57025,5.7072479070928805,991.5585882968297,0,0
24.36,0.16715871,4.730925599999999,8.875464,991.5477,5.7073758261612415,991.5587738562826,0,0
24.38,0.16715871,4.730925599999999,8.875464,991.57294,5.707849539223454,991.5589888147329,0,0
24.4,0.20540284,4.707093,8.605603,991.55023,5.708111591605951,991.5591472202864,0,0
24.42,0.32012385,4.8310223,8.728699,991.5679,5.708540212022526,991.5593186974403,0,0
24.44,0.32012385,4.8310223,8.728699,991.58795,5.7091144689205136,991.5595732873427,0,0
24.46,0.2579921,4.754758,8.776043,991.56537,5.7098217733231165,991.5598191111463,0,0
24.48,0.277117,4.850089,8.629275999999999,991.58307,5.710473879370452,991.5601200242587,0,0
24.5,0.24366032,4.80719,8.468307000000001,991.57794,5.710737978577063,991.560450062998,0,0
24.52,0.25322562,4.726158,8.818653999999997,991.5855,5.711214881634067,991.5608318650008,0,0
24.54,0.28668618,4.692792,8.657684,991.59045,5.71155269390145,991.5612758505366,0,0
24.56,0.35838705,4.79289,8.648214999999999,991.578,5.71185395333772,991.5617283630942,0,0
24.58,0.3392716,4.7642903,8.496715,991.5653,5.7118166280679965,991.5621410610828,0,0
24.6,0.36795622,4.8834543,8.539325,991.60315,5.7116813985317005,991.562653353206,0,0
24.62,0.23412548,4.7976565,8.529856,991.578,5.711346574084147,991.5631612624541,0,0
24.64,0.25802636,4.826256,8.686092,991.5653,5.711150187277423,991.563617750521,0,0
24.66,0.21501003,4.7547574,8.766577,991.56793,5.711149812746551,991.5640366274748,0,0
24.68,0.30557442,4.8214955,8.586646,991.57526,5.7110672660948625,991.5644471512926,0,0
24.7,0.33424687,4.8167285999999985,8.581911999999999,991.5727,5.710900922011831,991.5648396003933,0,0
24.72,0.33902353,4.8453282999999985,8.51563,991.593,5.7105708346135975,991.5652877458573,0,0
24.74,0.38203543,4.850095,8.70974,991.60046,5.710456712655686,991.5658103473038,0,0
24.76,0.3246683,4.7785964000000005,8.586644,991.5526,5.710233935953437,991.566224560692,0,0
24.78,0.24818505,4.811962599999998,8.4256735,991.57526,5.709654017210588,991.5666230872232,0,0
24.8,0.2816373,4.745231,8.709738,991.55255,5.709210382487536,991.5669245621524,0,0
24.82,0.281631,4.735698,8.714472,991.5777,5.708887938089704,991.5672297369756,0,0
24.84,0.3294227,4.7690644,8.676594999999999,991.57544,5.708640994090373,991.5675289463968,0,0
24.86,0.42023265,4.888228400000001,8.482485,991.58777,5.708238899472805,991.567866195634,0,0
24.88,0.31507063,4.8262634,8.553499,991.5705,5.707757345771659,991.5681736707556,0,0
24.9,0.24815015,4.773831,8.562969,991.5578,5.707167197636603,991.5684080105583,0,0
24.92,0.29115890000000005,4.7595315000000005,8.776016,991.5629,5.706859216357107,991.5685952443704,0,0
24.94,0.3676294000000001,4.8167305,8.828094,991.60046,5.706958699463844,991.5688753972867,0,0
24.96,0.41064447,4.8596296,8.643452,991.5805,5.707129047874126,991.5691647889734,0,0
24.98,0.5110140000000001,4.9597273,8.605576,991.57294,5.7074055500164675,991.5694340862274,0,0
25.0,0.35327095,4.9835606,8.515621000000001,991.61835,5.7076238891742275,991.5698481345706,0,0
25.02,0.35327095,4.9835606,8.515621000000001,991.5805,5.707790049497839,991.5702523344023,0,0
25.04,0.27200484,4.9168286,8.771279,991.60065,5.7082961713710265,991.5707189169696,0,0
25.06,0.109485105,4.759533,8.638715,991.59283,5.708694825743196,991.5712107892253,0,0
25.08,0.20507486,4.8024316,8.373588,991.5729,5.708563677251325,991.5716514887088,0,0
25.1,0.30066459999999995,4.8310309999999985,8.681322999999999,991.59076,5.7085559292703785,991.5721096814133,0,0
25.12,0.31022102,4.9358954000000015,8.510883,991.60815,5.708457605777773,991.5726442856337,0,0
25.14,0.35322982,4.974028,8.790213,991.578,5.70882544636817,991.5731359424948,0,0
25.16,0.33888716,5.012161,8.681321,991.6156,5.709445769641548,991.573723241104,0,0
25.18,0.2530958,4.9072905,8.534577,991.60315,5.7099087200076015,991.5743481144873,0,0
25.2,0.18618421,4.8739247,8.496703,991.59564,5.7101250651644735,991.5749769033966,0,0
25.22,0.30090338,4.878691000000001,8.652939,991.5706,5.710415698097067,991.5755167444247,0,0
25.24,0.2531091,4.9978547,8.3452015,991.5779,5.71033972280964,991.5760023276773,0,0
25.26,0.40606672,5.035987,8.733424000000001,991.6108,5.710686076187037,991.5765566606592,0,0
25.28,0.27701570000000003,4.978788400000001,8.482501,991.5654,5.710884886313207,991.5770063053039,0,0
25.3,0.37261754,4.931123,8.667144,991.60815,5.711241681712902,991.577515728613,0,0
25.32,0.29614450000000003,4.8882236,8.264719,991.6008,5.7109635542388935,991.5780496784256,0,0
25.34,0.32482708,4.926356,8.468297999999999,991.6008,5.71053218706298,991.5786033776378,0,0
25.36,0.32482708,4.926356,8.468297999999999,991.62085,5.709966970208299,991.5792447141023,0,0
25.38,0.31527126,4.835791,8.615066,991.6055,5.709456241704043,991.5799059180316,0,0
25.4,0.3200568,4.9644885,8.3830805,991.61835,5.708711876146486,991.5806285565184,0,0
25.42,0.39175576,4.921589,8.326267,991.60834,5.707622276239227,991.581366841082,0,0
25.44,0.28182787,4.845324,8.501441,991.6159,5.706458817439669,991.5821435086943,0,0
25.46,0.28182787,4.845324,8.501441,991.60803,5.70523428537456,991.5829229635657,0,0
25.48,0.31528842,4.892989599999999,8.544051,991.5981,5.704088296957233,991.5836663272207,0,0
25.5,0.42523152,4.86439,8.629271000000001,991.6033,5.703148945708415,991.5843938445686,0,0
25.52,0.5447304000000001,4.9930873,8.458833,991.6156,5.702234786159058,991.5851490210566,0,0
25.54,0.54473233,4.988321,8.491975,991.60815,5.701400425270539,991.5858990985257,0,0
25.56,0.4395805,4.85009,8.804445,991.5681,5.701050688381402,991.5864977902223,0,0
25.58,0.46348518,4.9311213,8.520382000000001,991.5955,5.700701813559762,991.5870592021613,0,0
25.6,0.41568905,4.8548565,8.572460000000001,991.5706,5.7003656897580814,991.5874960126224,0,0
25.62,0.32009673,4.6927934,8.596132,991.6008,5.699913985955527,991.5879298727003,0,0
25.64,0.3774582,4.826257,8.629272,991.60834,5.699560337949305,991.5883867079236,0,0
25.66,0.48346454,4.8977346,8.657758,991.6059,5.699428478976728,991.5888534153779,0,0
25.68,0.48346454,4.8977346,8.657758,991.5881,5.699493067486582,991.5892630857898,0,0
25.7,0.60303575,4.9453983,8.586748,991.60583,5.69966563303257,991.5896847114566,0,0
25.72,0.60303575,4.9453983,8.586748,991.5883,5.699932985851718,991.5900522749347,0,0
25.74,0.4883775,4.859599,8.345299,991.6009,5.699747030937369,991.590416105834,0,0
25.76,0.44059855,4.864365,8.473130000000001,991.60583,5.699391161414211,991.5907930768357,0,0
25.78,0.30202222,4.821465,8.790339,991.60846,5.699406585551477,991.591189769336,0,0
25.8,0.30684006,4.783331400000002,8.752466,991.5956,5.699643274108528,991.5915561636598,0,0
25.82,0.42639226,4.850062,8.53469,991.6034,5.699756185187106,991.5919225474953,0,0
25.84,0.42163146,4.821462,8.496816,991.5705,5.699661177449098,991.5921691630807,0,0
25.86,0.45034838,4.8977260000000005,8.7098675,991.5933,5.699848495178326,991.5923911436256,0,0
25.88,0.48388308,4.907257,8.761953,991.62604,5.700391837161825,991.5927084215176,0,0
25.9,0.33096737,4.7976255,8.577314,991.60846,5.7007890000350345,991.5930454739456,0,0
25.92,0.37402368,4.8500566,8.610459,991.60065,5.701172109916418,991.5933706697647,0,0
25.94,0.3597033,4.8786554,8.629398,991.5882,5.701603772562036,991.5936393983797,0,0
25.96,0.41231918,4.9310865,8.4873705,991.59564,5.701879285390388,991.5938840491493,0,0
25.98,0.4075774,4.8595877,8.904,991.5857,5.7026964808346055,991.5940707599924,0,0
26.0,0.35503757,4.8929524,8.496845,991.61597,5.703281442387892,991.5943145749576,0,0
26.02,0.33117664,4.883418,8.5868025,991.61584,5.703809711939143,991.5946075013907,0,0
26.04,0.1973802,4.816685700000002,8.477915,991.59564,5.704013308243519,991.5948700481824,0,0
26.06,0.15917979,4.778552,8.6625595,991.57294,5.704223953993845,991.5950230863541,0,0
26.08,0.15917979,4.778552,8.6625595,991.5755,5.7044400703099045,991.5950880277716,0,0
26.1,0.25961274,4.735652,8.648361999999999,991.5856,5.704595875786321,991.595111253108,0,0
26.12,0.4938802,4.9167795,8.58682,991.5758,5.704788676855083,991.5950622545039,0,0
26.14,0.40310198,4.8405137,8.425854,991.5931,5.704636160455924,991.5950118952214,0,0
26.16,0.3601218,4.821447,8.695719,991.596,5.704644251583416,991.5949709549367,0,0
26.18,0.23972435,4.7785697,8.572541000000001,991.60565,5.704519691548027,991.5949732246628,0,0
26.2,0.30186307,4.7785697,8.695636,991.5905,5.704505676774591,991.5949591265843,0,0
26.22,0.30186433,4.721371,8.58201,991.5956,5.704325286431994,991.5949489766666,0,0
26.24,0.38312227,4.9072666,8.553603,991.5931,5.7041421284832525,991.5949333518832,0,0
26.26,0.4261418,4.8929667000000014,8.577275,991.588,5.7039887721104074,991.5948945857576,0,0
26.28,0.35444534,4.783336,8.932357000000003,991.60315,5.70439176818059,991.5948900515004,0,0
26.3,0.320988,4.7261370000000005,8.804528,991.5956,5.704992405769563,991.5948886008454,0,0
26.32,0.35444790000000004,4.831001799999999,8.496792,991.60834,5.705313703983535,991.5949357440836,0,0
26.34,0.3544485,4.8262353,8.31215,991.60065,5.705049553763431,991.5949979711697,0,0
26.36,0.35923022,4.7785697,8.8660755,991.61115,5.705225215973938,991.5951111023276,0,0
