Timestamp,Ax,Ay,Az,P,LPFRMSAcc,LPFPValue,Value,Type
0.0,0.3629792,4.096101999999999,9.053087,1008.22705,0.020666653807667468,3.62961738,0,0
0.02,0.34864676,4.1247015,8.508632,1008.2244,0.0585199365644433,10.4532885144,0,0
0.04,0.42035779999999995,4.196199,8.854245,1008.2370599999999,0.1121404423663871,20.074705906104,0,0
0.06,0.14356303,4.0293593,8.811675,1008.23724,0.17925673127638925,32.13357543615167,0,0
0.08,0.13881364,4.0579576,8.603364,1008.2498,0.25768852296194744,46.302810961331645,0,0
0.1,0.23921993,4.1818876000000005,9.086275,1008.2474,0.34685877761364114,62.28574799191989,0,0
0.12,0.25835437,4.1818870000000015,8.930042,1008.2424,0.4449030811607891,79.81371509937674,0,0
0.14,0.24882516,4.2152519999999996,8.901638,1008.2269,0.5504111672144819,98.64371430116785,0,0
0.16,0.2679748,4.205718,8.745406,1008.2420699999999,0.6618339815797128,118.55645567638626,0,0
0.18,0.31580326,4.1866517,9.162036,1008.2167400000001,0.778851782400364,139.35413097909426,0,0
0.2,0.3445125,4.2343163,8.859036999999997,1008.2269,0.8998657275077873,160.85889884504232,0,0
0.22,0.22026801,4.1294512999999995,8.721743,1008.2143,1.023616362168558,182.91099117555183,0,0
0.24,0.25374183,4.196182299999999,8.788025,1008.2295,1.1495252534527287,205.36736659055808,0,0
0.26,0.31590968,4.210481,8.840107000000003,1008.2473,1.277002129129792,228.1001876675316,0,0
0.28,0.3016007,4.10085,9.30408,1008.2117,1.4061860284353926,250.9953098155423,0,0
0.3,0.32075033,4.2867446,8.896925,1008.19885,1.5358079432422709,273.95137249018853,0,0
0.32,0.2060807000000001,4.0770154000000005,8.996350999999997,1008.2167,1.6653465177892737,296.8787046485413,0,0
0.34,0.2060807000000001,4.0770154000000005,8.996350999999997,1008.21155,1.7943451140142814,319.6980935869271,0,0
0.36,0.311282,4.4059067,8.489775,1008.2141,1.921759534181498,342.3399632759718,0,0
0.38,0.41646808,4.3773065,9.431924,1008.21405,2.0490541061596907,364.7434660454182,0,0
0.4,0.49299058,4.32964,8.972691000000003,1008.2191,2.1748873704880483,386.8557133747375,0,0
0.42,0.32572785,4.4059040000000005,7.9453277999999985,1008.23175,2.297139341733247,408.6310488467749,0,0
0.44,0.12499132,4.334405,8.092095,1008.237,2.4159731449574804,430.03031669401884,0,0
0.46,0.18715915,4.286739,9.053183,1008.2116,2.53310034888861,451.0201623837452,0,0
0.48,0.05813486,4.262905,8.451917,1008.2217400000001,2.6471500985789245,471.5727157146058,0,0
0.5,0.20635442,4.3677683,8.541874,1008.204,2.758339669392396,491.6648244611817,0,0
0.52,-0.07084379,4.501231,7.912201,1008.2166,2.8655774855826848,511.27779814159584,0,0
0.54,0.16339703,4.4297322999999995,8.9301,1008.2445,2.970738477036116,530.3969018123001,0,0
0.56,0.07277057,4.296264,9.479308999999999,1008.237,3.0745960947306235,549.0107661692101,0,0
0.58,0.18750426,4.324863,9.484044,1008.2141,3.176964699818118,567.1111087167667,0,0
0.6,0.15888062,4.4344926,8.399872,1008.2243699999999,3.275725666786121,584.6925791324071,0,0
0.62,0.015523331999999999,4.2199965,8.461422,1008.2166,3.3708508899734158,601.7522528667904,0,0
0.64,0.2306513,4.3248596,8.721817999999999,1008.2088,3.4630084282654576,618.2894241481712,0,0
0.66,0.029936347000000002,4.2962594,8.778634,1008.2342,3.5522860341426648,634.3054698854656,0,0
0.68,-0.051301904,4.215228,8.854386,1008.2316,3.638766294116274,649.8033819673514,0,0
0.7,0.13036741,4.4106559999999995,8.986953,1008.2291,3.722889835654633,664.7876696678231,0,0
0.72,-0.06076953,4.2342916,8.821254,1008.2041,3.8041568632173495,679.2640854291558,0,0
0.74,-0.008154914000000001,4.367754,8.726569,1008.21906,3.882552321163886,693.2396843043242,0,0
0.76,-0.008118104000000001,4.2914886,8.650822,1008.22406,3.9579166279203695,706.7224672229279,0,0
0.78,0.097074434,4.458317,8.418839,1008.2370599999999,4.0300614328084645,719.7213067438032,0,0
0.8,0.14967065,4.4106510000000005,8.669764500000001,1008.2015,4.099520385466606,732.2456100401711,0,0
0.82,-0.03190669,4.386817,8.693441,1008.2317,4.166375290230191,744.3056343566969,0,0
0.84,0.020689548999999998,4.272419,8.897022999999997,1008.1962,4.230963122666424,755.9118778790953,0,0
0.86,0.01594655,4.229519,8.9822445,1008.2062400000001,4.29343690800789,767.0754143591215,0,0
0.88,-0.07485132,4.262884,8.598761,1008.2495,4.353130884726531,777.8077419011801,0,0
0.9,0.020818323,4.401112599999999,8.480407000000001,1008.2467,4.4100637642558125,788.1204067664987,0,0
0.92,0.10211184599999999,4.391579,8.745536999999999,1008.2239,4.464834840497086,798.0250500171347,0,0
0.94,0.10211184599999999,4.391579,8.745536999999999,1008.2316,4.5174985714786065,807.5335363733352,0,0
0.96,-0.007768475,4.4344769999999984,8.551431,1008.2216,4.567790732604399,816.6577119467297,0,0
0.98,-0.08898832,4.358211,9.091157,1008.24945,4.616740329725452,825.4095637403731,0,0
1.0,-0.27538228,4.167548,9.034346000000001,1008.2418,4.664059006195542,833.8008960357707,0,0
1.02,-0.07937351599999999,4.2724113,8.603518,1008.2315,4.709045422427464,841.8434274262555,0,0
1.04,-0.002859863,4.386808,8.906524000000003,1008.2214,4.7524783483706035,849.5487688641533,0,0
1.06,0.025855737,4.372507,8.551446,1008.2191,4.7937093699148745,856.9284217507687,0,0
1.08,0.16844945,4.558422599999999,8.745483,1008.252,4.833384902874744,863.9938479230797,0,0
1.1,0.106317736,4.3725266,8.958532,1008.23413,4.8717626778821765,870.7561235044102,0,0
1.12,-0.06575333,4.219997,9.09583,1008.2366300000001,4.908976293819248,877.2262000314581,0,0
1.14,0.14456378,4.4249587,8.489827,1008.2417,4.944086943878879,883.4148154506444,0,0
1.16,0.14456378,4.4249587,8.489827,1008.20874,4.97721301494899,889.3323341634151,0,0
1.18,0.09677335599999999,4.3439274,8.726547,1008.20374,5.008826955014069,894.9889907590309,0,0
1.2,0.106336735,4.3725260000000015,8.740751,1008.22644,5.039044126886389,900.3948673441846,0,0
1.22,0.13023956,4.4201913,8.783360499999999,1008.2189,5.068042509327842,905.5596664123873,0,0
1.24,0.13023956,4.4201913,8.783360499999999,1008.22144,5.095859575251397,910.4928652539667,0,0
1.26,0.17804141,4.4821568,8.745486999999999,1008.2289400000001,5.122522381639241,915.2036896194718,0,0
1.28,0.10157029,4.4201913,9.010613000000001,1008.2468,5.148501881640303,919.7011292262019,0,0
1.3,0.068115465,4.3772926,8.788096000000001,1008.2136,5.1733293912105065,923.9937117574948,0,0
1.32,0.08245867,4.405891400000002,8.693408999999999,1008.23145,5.196900688836187,928.0898935398177,0,0
1.34,0.053783655,4.2914944,8.736019,1008.22644,5.219249805530562,931.9977713299347,0,0
1.36,0.13982584,4.405891400000002,8.579784,1008.2439999999999,5.240256891803115,935.7252585684947,0,0
1.38,0.13982584,4.405891400000002,8.579784,1008.2212,5.260002534484367,939.2798516816396,0,0
1.4,0.015556661999999999,4.3582263,8.627129,1008.2439999999999,5.278603122852086,942.6689610903608,0,0
1.42,0.044241194000000005,4.353459,8.859116,1008.23645,5.2965523153129865,945.8996211239813,0,0
1.44,0.02512386,4.291494,8.679208000000001,1008.2339999999999,5.313468837743068,948.978636093642,0,0
1.46,0.096824735,4.4344907,8.882788,1008.23145,5.329924091711233,951.9125638508972,0,0
1.48,0.15896793,4.4678564000000005,8.603458,1008.23645,5.345428350974231,954.7077484073444,0,0
1.5,0.09683425,4.367758,8.773897,1008.24677,5.360256254175643,957.3703139591548,0,0
1.52,0.015579497,4.315325700000002,8.683945,1008.2264,5.374216249810175,959.9060387904816,0,0
1.54,0.101617865,4.348692,8.854383,1008.2364,5.3877084908264585,962.3205945517964,0,0
1.56,-0.003534028,4.29626,8.655538,1008.2542,5.4003189357796835,964.6194570021074,0,0
1.58,0.10706130000000001,4.3868084000000005,8.878116,1008.26184,5.4126041192175975,966.8078444419948,0,0
1.6,0.025833795,4.382041,8.6556015,1008.2719999999999,5.424138473538153,968.8907745438879,0,0
1.62,0.10710503,4.401107,8.712415,1008.2618,5.4350922812577815,970.8729872735628,0,0
1.64,0.11191401,4.4058722999999995,8.958607,1008.26685,5.445956152277382,972.7590883473188,0,0
1.66,0.030686539,4.3677387,8.736092999999999,1008.22406,5.45625068627881,974.553321154039,0,0
1.68,0.059394527,4.334373,8.594063,1008.2362699999999,5.465710442622275,976.2599638779027,0,0
1.7,0.097662136,4.3725046999999995,8.736098,1008.2312,5.474698540900934,977.883049838748,0,0
1.72,0.05945289,4.272406,8.854462,1008.2388,5.483365908612658,979.4264892943312,0,0
1.74,0.08338107,4.301005,8.641415,1008.2569,5.491347579431647,980.8940618758252,0,0
1.76,0.09298446,4.315303,8.631950999999999,1008.2388,5.498690479949839,982.2892500660803,0,0
1.78,0.15037124,4.405867,8.712439,1008.2491,5.505678024587475,983.6154938107519,0,0
1.8,0.22208289999999997,4.391567,9.095925999999999,1008.2491,5.5130305148107395,984.876043765825,0,0
1.82,0.18868262,4.434465,8.845008,1008.2541,5.520249075423938,986.0740267085704,0,0
1.84,0.18868262,4.434465,8.845008,1008.2768,5.527323309015476,987.2124944206296,0,0
1.86,0.08357068,4.2819343,8.901825,1008.2565300000001,5.534207780027762,988.2942030190907,0,0
1.88,0.09792469999999999,4.3772645,8.878153999999997,1008.2515,5.540942588090124,989.3218470058224,0,0
1.9,-0.002436615,4.291466000000002,8.631967999999999,1008.2616,5.546982214773197,990.2980563432773,0,0
1.92,0.050170448,4.3581977,8.764533,1008.2413,5.552694571252091,991.2252305910167,0,0
1.94,-0.06928091,4.2247324,8.726662,1008.2389,5.557904571069441,992.1057309661916,0,0
1.96,-0.002334482,4.382028599999999,8.835556,1008.2389,5.562998525866545,992.9418205062176,0,0
1.98,-0.0835474,4.343895,8.70773,1008.23645,5.567699172246872,993.7356498899626,0,0
2.0,0.0025036620000000002,4.572689,8.726669000000001,1008.2235,5.572286190540266,994.4892337938356,0,0
2.02,-0.07394402,4.3677269999999995,8.314779,1008.22864,5.575800883673407,995.20456239364,0,0
2.04,0.14597072,4.3867917,8.996536,1008.25146,5.579639269257775,995.88359557581,0,0
2.06,0.14597072,4.3867917,8.996536,1008.2643400000001,5.583749851303941,996.5281599755028,0,0
2.08,-0.08432513,4.1675515,8.712392999999999,1008.2438,5.5873547142070565,997.1398733831592,0,0
2.1,0.025600867000000003,4.420179,8.6366415,1008.25385,5.590590873471824,997.7203936659853,0,0
2.12,-0.10346336,4.3677470000000005,8.769205,1008.2691699999999,5.593687499772396,998.2713169826926,0,0
2.14,-0.050891858,4.3868136,9.00119,1008.2412,5.597098861249127,998.7940044041977,0,0
2.16,-0.074797235,4.3343815999999995,8.897033,1008.23096,5.600534012352657,999.2898240499844,0,0
2.18,-0.074797235,4.3343815999999995,8.897033,1008.2514,5.603977817426454,999.7601919624212,0,0
2.2,-0.12738459,4.1770854,8.575091,1008.2287,5.6066733112101845,1000.206295678786,0,0
2.22,0.03034577,4.2771835,8.646109,1008.24365,5.608920410029591,1000.6294073981225,0,0
2.24,0.05423845,4.3010163,8.551419000000001,1008.2462,5.610609433179961,1001.0306893666948,0,0
2.26,0.054228935,4.2867165,8.807076,1008.23114,5.6122623382398,1001.4111837364052,0,0
2.28,0.011204384,4.3057833,8.707653,1008.2212,5.613709011817669,1001.7719046200301,0,0
2.3,-0.031820226,4.2819505,8.911232,1008.2463,5.615326989940535,1002.1139454161693,0,0
2.32,-0.017483981000000003,4.3105497,8.835482,1008.23615,5.616974631030028,1002.4382126001393,0,0
2.34,0.0016257079999999998,4.410648,8.911230999999997,1008.2437,5.618875578920841,1002.7456348385347,0,0
2.36,-0.08441709,4.2676516,8.944371,1008.2514,5.620926283875583,1003.0370938829624,0,0
2.38,0.03985466,4.3391495,9.0011835,1008.2157599999999,5.623272083098526,1003.31327029264,0,0
2.4,-0.11310542400000001,4.205686,8.674509,1008.2511599999999,5.625139366040752,1003.5750761711772,0,0
2.42,-0.09399255,4.18662,8.660306,1008.2613,5.626532846982975,1003.8232782512372,0,0
2.44,-0.16569914,4.205686599999999,8.736055,1008.2437,5.627663669990801,1004.0585031274733,0,0
2.46,-0.079665795,4.2485857000000005,8.736055,1008.25146,5.62859491017465,1004.2814424728565,0,0
2.48,-0.046210375,4.2867180000000005,8.830741999999997,1008.2588,5.629557645279852,1004.492750165535,0,0
2.5,0.011137753,4.4726143,8.650833,1008.2766,5.630383315532567,1004.6930835021897,0,0
2.52,-0.11314663,4.4058824,8.977508,1008.2387,5.631630212042174,1004.8828622578501,0,0
2.54,-0.09403379,4.4249487,8.764459,1008.2588,5.632865661918568,1005.0627041422232,0,0
2.56,-0.089257136,4.343918,8.920693,1008.2259,5.634302554436497,1005.2329999363433,0,0
2.58,-0.22664542,4.234256299999998,8.57046,1008.2512,5.6351630814979625,1005.3943388202568,0,0
2.6,-0.20750529,4.234255999999999,8.598868,1008.2713,5.635563272176817,1005.5472549183299,0,0
2.62,-0.27433887,4.196121700000001,8.4852495,1008.22565,5.635312016332983,1005.6920138048814,0,0
2.64,-0.27433887,4.196121700000001,8.4852495,1008.24365,5.634486046862736,1005.8291086473407,0,0
2.66,-0.22169831,4.3057513,8.712507,1008.25885,5.63367663791741,1005.9589927190074,0,0
2.68,-0.10694116,4.4344472999999995,8.972903,1008.2384599999999,5.633484423937768,1006.0819643669437,0,0
2.7,-0.07341979400000001,4.4582777,8.96344,1008.2561599999999,5.633842007263382,1006.198449219339,0,0
2.72,-0.12597673,4.424912,8.854550999999997,1008.24084,5.634451723453566,1006.3087278417256,0,0
2.74,-0.2597485,4.243780999999999,8.7504,1008.2560000000001,5.634927063469074,1006.4131802122367,0,0
2.76,-0.23104878,4.239014,8.845089,1008.2382,5.635453382031471,1006.512044398056,0,0
2.78,-0.1688695,4.38201,8.721999,1008.2333,5.6359215021868705,1006.605597312813,0,0
2.8,-0.35524002,4.253311599999999,8.774080999999999,1008.24603,5.636325604763756,1006.694166225966,0,0
2.82,-0.22136366,4.4153733,8.793022,1008.2436,5.636847772072907,1006.7780036792146,0,0
2.84,-0.28343838,4.296208,8.807231,1008.2512,5.6373923225031435,1006.8573859596601,0,0
2.86,-0.2547386,4.310507299999999,8.935062,1008.22833,5.638204989777572,1006.9324635412066,0,0
2.88,-0.23077688,4.3343387,8.542113,1008.2257699999999,5.6385405480922675,1007.0034579955127,0,0
2.9,-0.159038,4.3724704,8.873525,1008.2460000000001,5.639101754008515,1007.070661846554,0,0
2.92,-0.159038,4.3724704,8.873525,1008.26636,5.6398603218042025,1007.1343476826868,0,0
2.94,-0.12075773,4.4058347,8.703091,1008.2460000000001,5.6405035184213865,1007.1946224358354,0,0
2.96,-0.05855751400000001,4.4773316,8.722033999999999,1008.2586699999999,5.641143836786071,1007.2517117789488,0,0
2.98,-0.05853661,4.420132,8.7409725,1008.2434699999999,5.641760408099116,1007.3057262521196,0,0
3.0,-0.27356505,4.3009667,8.598947,1008.2308300000001,5.6419864958129065,1007.3567838141057,0,0
3.02,-0.23530574,4.348632299999999,8.731512,1008.24854,5.642155322173459,1007.4051085981456,0,0
3.04,-0.31174070000000004,4.2818995000000015,8.679437,1008.2434699999999,5.642118903046005,1007.4508264783702,0,0
3.06,-0.13006635,4.472560400000001,8.868817,1008.22833,5.642421717932144,1007.4940218100144,0,0
3.08,-0.20661062,4.348632,8.570544,1008.2586699999999,5.642356568351321,1007.5349419385393,0,0
3.1,-0.17791337,4.39153,8.617889,1008.2561599999999,5.642093434331198,1007.573695349125,0,0
3.12,-0.23523426,4.3057313,8.6747055,1008.23315,5.641684216959455,1007.6103118994616,0,0
3.14,-0.12048214,4.3533955,8.812007000000003,1008.2484,5.641442692024858,1007.6449634005013,0,0
3.16,-0.12998654,4.3533945,8.892497,1008.2128,5.64150057071624,1007.6776256785778,0,0
3.18,-0.16818814,4.4725575,8.584764,1008.2584,5.641364800103316,1007.7085768550436,0,0
3.2,-0.1490321,4.496389,8.741002,1008.2509,5.6413688764077055,1007.7378776778903,0,0
3.22,-0.1872521,4.367692,8.717332,1008.2406599999999,5.641332932887439,1007.7655779013173,0,0
3.24,-0.17763726,4.2723594,8.972995,1008.23834,5.641651821775023,1007.7917557622928,0,0
3.26,-0.14414182,4.324791,8.688934,1008.24835,5.641798871985473,1007.8165302595064,0,0
3.28,-0.11544460000000001,4.343857,8.490091,1008.2356599999999,5.641441668542218,1007.83992987231,0,0
3.3,-0.12976563,4.32479,8.603717999999999,1008.24835,5.640833264837093,1007.8620760826433,0,0
3.32,-0.1392884,4.286656400000001,8.840442,1008.2560000000001,5.640411421622144,1007.8830626001958,0,0
3.34,-0.05799491,4.324788,8.849914,1008.2230000000001,5.64020663463288,1007.9028300617447,0,0
3.36,-0.0627011,4.4153504,8.830983,1008.25604,5.640242573671001,1007.921568146547,0,0
3.38,-0.12959996,4.3152523,8.717359,1008.2382,5.6401883572195,1007.9392649929507,0,0
3.4,-0.22037941,4.286651999999999,8.9635515,1008.2331,5.640492079495449,1007.9559597324584,0,0
3.42,-0.15822355,4.410583,8.840459,1008.24585,5.640991721767191,1007.9717548092508,0,0
3.44,-0.21554439,4.2246857,8.722102,1008.25323,5.641273791852564,1007.9867246497909,0,0
3.46,-0.18681029999999998,4.262817,9.209750999999999,1008.22784,5.642311182600919,1008.0008200161528,0,0
3.48,-0.18197528,4.38198,8.352828,1008.205,5.642524169021218,1008.0140097298123,0,0
3.5,-0.18197528,4.38198,8.352828,1008.2507300000001,5.642007945026133,1008.0265163537745,0,0
3.52,-0.1628193,4.3629120000000015,8.911491999999997,1008.2406599999999,5.641866224841808,1008.0383381238336,0,0
3.54,-0.19620427,4.3009453,8.973046,1008.22546,5.642116157425966,1008.0494574786122,0,0
3.56,-0.13002382,4.429660299999999,8.793071000000001,1008.2356,5.642491297281798,1008.0599526535716,0,0
3.58,-0.27819142,4.3057300000000005,8.722055000000001,1008.2635,5.642735154625161,1008.0699589606128,0,0
3.6,-0.27819142,4.3057300000000005,8.722055000000001,1008.2482,5.642862132854067,1008.0794422012564,0,0
3.62,-0.29252449999999997,4.300962999999999,8.731525,1008.2533599999999,5.642899518506674,1008.0884476967642,0,0
3.64,-0.12522183,4.3676944,9.034528,1008.2761,5.643476910097585,1008.0970805008867,0,0
3.66,-0.49326038,4.2485304,8.977715,1008.28864,5.644339790022397,1008.105398060806,0,0
3.68,-0.60319275,4.329562,8.376446000000001,1008.2456699999999,5.644420906784263,1008.113252435732,0,0
3.7,-0.18256363,4.439192299999998,8.707854,1008.2052,5.644491307718037,1008.120523572648,0,0
3.72,-0.33550787,4.3152620000000015,8.892497,1008.2228,5.644789161865183,1008.1273165443653,0,0
3.74,-0.17299141,4.0864673,10.019286,1008.2862,5.647224166102264,1008.1338907946154,0,0
3.76,-0.4693297000000001,4.7919173,7.486380599999999,1008.3165,5.6475462074546,1008.1403571952752,0,0
3.78,0.0468923,4.8634152,8.007164999999999,1008.1925699999999,5.646971758867707,1008.1462588729953,0,0
3.8,-0.70830715,4.124599,7.4769130000000015,1008.1669300000001,5.6439442555617365,1008.1515480114862,0,0
3.82,-0.2255407,3.9625356,10.289149,1008.2253400000001,5.643872444295116,1008.1564871454152,0,0
3.84,-0.46452454,4.2056303,8.570561999999999,1008.2430400000001,5.6433572287145175,1008.1611629544316,0,0
3.86,-0.49319702,4.2961946,8.490077000000001,1008.21765,5.642389382131167,1008.1654978526424,0,0
3.88,-0.48841402,4.3533926,8.646314,1008.248,5.641367584945973,1008.1696251764321,0,0
3.9,-0.28287616,4.1865635,9.105551,1008.2228,5.640994214564348,1008.1734635090976,0,0
3.92,-0.17293753,4.381992299999999,8.655782,1008.2556,5.640524687243848,1008.1771507512076,0,0
3.94,-0.41191819999999996,4.262828400000001,8.925644,1008.2507,5.640380530518978,1008.180673575632,0,0
3.96,-0.22549951,4.3962917,8.769409,1008.2506,5.640342216903324,1008.1840380784207,1,1
3.98,-0.19203767,4.4487239999999995,8.65105,1008.23035,5.640226106557447,1008.1871776760032,1,1
4.0,-0.25894862,4.4058247,8.513752,1008.248,5.639750511669214,1008.1901707847928,1,1
4.02,-0.31152013,4.3200264000000015,8.6415825,1008.2456,5.639118122461411,1008.1930150408944,1,1
4.04,-0.34018946,4.3724585,8.632114,1008.2379,5.638382863120222,1008.1956898114385,1,1
4.06,-0.28760844,4.3915242999999995,8.707865,1008.2225300000001,5.637714134543836,1008.1981498633697,1,1
4.08,-0.39753443,4.515455,8.43327,1008.2379,5.63672730455627,1008.2004666657484,1,1
4.1,-0.4405495,4.472555000000002,8.329114,1008.2710000000001,5.635234191366124,1008.2027677123336,1,1
4.12,-0.30670545,4.434423000000002,9.16237,1008.2532,5.6347944007048225,1008.2049824733316,1,1
4.14,-0.5361298000000001,4.3819904,8.778884,1008.2456,5.6345443246039215,1008.2070856592456,1,1
4.16,-0.622163,4.477321599999999,8.385928,1008.2506,5.633839792387147,1008.2091006859456,1,1
4.18,-0.45486036,4.4439554,8.712603999999999,1008.24554,5.6332858070675815,1008.2110123450689,1,1
4.2,-0.5695693000000001,4.362923599999999,8.490086999999999,1008.2478,5.63239172525026,1008.2128339226275,1,1
4.22,-0.40704650000000003,4.443955,8.70787,1008.2404,5.631662334900264,1008.2145427064372,1,1
4.24,-0.5791163,4.286658999999998,8.513760000000001,1008.248,5.630592339696507,1008.2161730340677,1,1
4.26,0.25794837,4.744233599999999,9.380211,1008.26575,5.63123152192847,1008.2177920686397,1,1
4.28,0.25794837,4.744233599999999,9.380211,1008.2453,5.633378632286598,1008.2193216761405,1,1
4.3,0.14803591,4.5297375,9.138759,1008.2402,5.636197725700108,1008.2207483992939,1,1
4.32,0.47787696,5.382951,8.007239,1008.2556,5.638476814628612,1008.222134517635,1,1
4.34,0.62607396,5.3066845,7.671098,1008.2608,5.639623056025772,1008.2234984875377,1,1
4.36,0.34408855,5.311451,8.698466,1008.24786,5.641528767014838,1008.2247913927883,1,1
4.38,0.11946086,5.2018194000000015,8.428607000000001,1008.2708,5.643490891753211,1008.2260994348538,1,1
4.4,0.23897897,5.206586,9.579069,1008.248,5.647574169102428,1008.2273340628577,1,1
4.42,0.20075206,5.1017212999999995,9.583805,1008.2606,5.653420826524854,1008.2285447375352,1,1
4.44,-0.100340985,4.748996,8.116143,1008.2835,5.657780419970398,1008.2298123286254,1,1
4.46,-0.08599005,4.7823606,7.978845599999999,1008.2428,5.660599859156222,1008.2309791277296,1,1
4.48,0.73617077,5.325747499999999,8.064069,1008.26575,5.662857386830852,1008.2321352865581,1,1
4.5,0.65970546,5.463977,7.718458,1008.24536,5.6641690532421896,1008.2332044774677,1,1
4.52,0.5163459,5.8929663,7.84629,1008.26044,5.665360800246407,1008.2342472624364,1,1
4.54,0.15788369,5.7356696,8.679547,1008.2631,5.667644250618131,1008.2352725370897,1,1
4.56,-0.24359678,5.206581,9.844213,1008.2832599999999,5.672410274645403,1008.2363512246401,1,1
4.58,-0.6641965,5.182748,9.872621,1008.2705699999999,5.679417431046772,1008.2374275405507,1,1
4.6,-1.1947316000000001,4.5821614,9.602762,1008.2732,5.6874168203337065,1008.2385073541436,1,1
4.62,-1.1947316000000001,4.5821614,9.602762,1008.2682,5.696264148796892,1008.2395683709593,1,1
4.64,-0.19572958,4.782356,10.1282835,1008.26807,5.706858625794204,1008.240608491282,1,1
4.66,-0.69279456,4.210368,8.627480499999999,1008.2252,5.715680396884545,1008.2414720710306,1,1
4.68,-0.9030944,4.0292387000000005,7.903117699999999,1008.2429,5.721432119091544,1008.2422402706408,1,1
4.7,-0.7023196,4.4153294999999995,7.420210400000001,1008.24554,5.723922933462398,1008.242930930842,1,1
4.72,-0.5111044,3.8624084,8.149311,1008.2351,5.724291927015204,1008.2435130068448,1,1
4.74,0.019488398,4.8538513,6.8000092999999975,1008.2505,5.7213753578553685,1008.244052482376,1,1
4.76,-0.3867719,4.8538510000000015,6.2744919999999995,1008.263,5.714708901147964,1008.2445973740193,1,1
4.78,-0.8934194999999999,4.43916,6.8473559999999996,1008.2402,5.7053079266343065,1008.2450630097284,1,1
4.8,-0.87502885,4.267582,8.035624499999999,1008.2428,5.6954603409496345,1008.245466298606,1,1
4.82,-0.4018345999999999,5.263792,8.135047,1008.25543,5.6864119246073175,1008.2458585139833,1,1
4.84,-0.6073755999999999,5.6689495999999995,8.589547999999999,1008.2682,5.67937359864031,1008.2462855048402,1,1
4.86,-0.62649804,5.50212,9.309177,1008.3011,5.675222138568193,1008.2468601261439,1,1
4.88,-0.5117891,4.9634995,11.363909,1008.2606,5.676919202855518,1008.247417325074,1,1
4.9,-0.43532172,5.1017303,9.697397,1008.2859,5.680774555316086,1008.248048203678,1,1
4.92,-0.46878356,4.5488095,10.170836999999999,1008.2655599999999,5.686908444215978,1008.2486686904796,1,1
4.94,0.15258147,3.5478330000000002,9.730537,1008.26575,5.693384737250304,1008.2492784453316,1,1
4.96,0.39156532,3.5478332000000004,8.243935,1008.2174699999999,5.69728281671128,1008.2497027143158,1,1
4.98,0.15256874,3.5192335,7.420147,1008.2631,5.697289048916327,1008.2501258286186,1,1
5.0,0.24816167,3.5954986000000004,6.8804240000000005,1008.23785,5.692928141567875,1008.2504554994335,1,1
5.02,0.62097687,4.296183,8.300745,1008.248,5.688049743364918,1008.2507379567676,1,1
5.04,0.29594702,4.1293535000000015,8.125571,1008.2909,5.682216596139054,1008.2511321194237,1,1
5.06,0.36763772,4.300949,7.888851,1008.2429,5.675297265900976,1008.2514507659164,1,1
5.08,0.72611356,5.2637944,7.221298700000001,1008.2556,5.667386918711928,1008.2517472592004,1,1
5.1,0.267246,5.163697,8.068757000000002,1008.25543,5.659913300083487,1008.2520224985327,1,1
5.12,-0.06256361,5.082665,8.892543,1008.263,5.654223159144371,1008.2523052190124,1,1
5.14,-0.20596726,5.7070847,9.219215,1008.2556,5.651380398929362,1008.2525668920397,1,1
5.16,-0.000438888,5.46399,10.028799000000001,1008.2809,5.652261010068908,1008.2529001055146,1,1
5.18,-0.5118843,4.939669,10.819444,1008.2606,5.657434506214927,1008.253222252562,1,1
5.2,-0.53579277,4.8205056,9.631107,1008.29346,5.664052001563232,1008.2536517575836,1,1
5.22,-0.6744134,3.5287685,12.055122,1008.2782599999999,5.675653739677074,1008.2541198578932,1,1
5.24,-0.36851227,4.2056203000000005,6.904089,1008.2303,5.682292747099076,1008.2544477198384,1,1
5.26,-0.15342431,4.7299414,6.9656363,1008.2379,5.685205777229568,1008.2546778468616,1,1
5.28,-0.14864765,4.7442410000000015,7.41067,1008.2251,5.685604385048207,1008.2547747068512,1,1
5.3,-0.1575582,3.6860492,8.674814999999999,1008.23535,5.685081615343705,1008.2547903633928,1,1
5.32,-0.03327378,3.65745,8.925739,1008.2327,5.684202403538383,1008.2547246722047,1,1
5.34,-0.018915325,3.9482095,7.737406,1008.2429,5.681017060469572,1008.2546240586514,1,1
5.36,-0.4012711,4.148404,8.172974,1008.25037,5.676819254130923,1008.2545198419044,1,1
5.38,-0.39648178,4.091205,8.135099,1008.2528699999999,5.671617756162207,1008.2544218165556,1,1
5.4,-0.2865178,4.591693,7.6048484,1008.2478,5.6650775902392985,1008.2543113628185,1,1
5.42,0.062426962,4.5583262000000015,8.987297,1008.2605,5.659849877245911,1008.2542360449896,1,1
5.44,0.09112478,4.0959699999999994,10.426557,1008.25775,5.658139388293091,1008.2541821443941,1,1
5.46,0.062455475,4.601225,10.582792999999999,1008.2556,5.6602440551774285,1008.254139622108,1,1
5.48,0.18197909,4.706087999999999,10.578061,1008.2556,5.6657935854480455,1008.2541073067764,1,1
5.5,0.7173361999999999,3.4191177,12.04573,1008.258,5.676368581668205,1008.2540927666452,1,1
5.52,0.9754550999999999,3.6622117,9.93892,1008.2277,5.687386278419397,1008.2539849050252,1,1
5.54,0.5739801,3.543047,8.447585,1008.19965,5.695724018127885,1008.25369399284,1,1
5.56,0.5405310000000001,3.595479,7.25925,1008.2174699999999,5.699461431723957,1008.2533065364586,1,1
5.58,0.9564024999999999,4.038768,7.074611,1008.1997,5.699293751027702,1008.2527711964688,1,1
5.6,0.7604495,4.2103634,7.803711,1008.268,5.697125656822448,1008.2523529937463,1,1
5.62,0.48323044,4.3438272000000016,7.6948204,1008.2555,5.693093494296575,1008.2519947990436,1,1
5.64,0.2060208,4.5583215,7.159835,1008.2554,5.686682147062677,1008.2516905569277,1,1
5.66,0.4832685000000001,4.9348792999999995,8.371844,1008.24536,5.680768605454736,1008.2513989385887,1,1
5.68,0.3685627,5.006377,8.343439,1008.2529,5.675330976259383,1008.251146668446,1,1
5.7,-0.009003759,5.330502,9.385011,1008.2607,5.672528301799932,1008.2509581545413,1,1
5.72,0.08182203,5.1493725999999995,10.611222,1008.2299,5.674146092906409,1008.2507157742986,1,1
5.74,-0.3578914,5.449665,8.073585000000001,1008.2404,5.675408014053247,1008.2504644703287,1,1
5.76,-0.5203952000000001,5.158905,8.234554,1008.25037,5.676317149757319,1008.2502420780478,1,1
5.78,-0.78380144,3.8910138999999995,11.690623,1008.2352,5.682346507531313,1008.2499914207474,1,1
5.8,-0.32494402,4.524966,7.1124535,1008.2275,5.684751719688847,1008.2496889708419,1,1
5.82,-0.39664236,4.5487986,7.9409738,1008.2453,5.68545082904364,1008.2494059258107,1,1
5.84,-0.56871784,3.48109,9.148247,1008.2579300000001,5.685979594467713,1008.2491865138879,1,1
5.86,-0.46834448,3.1331312999999996,9.115105999999999,1008.22504,5.686034273558217,1008.248905714063,1,1
5.88,-0.36797237,3.3857589,7.974114,1008.2607,5.683635082235522,1008.2487000587672,1,1
5.9,-0.38231432,3.5859547,8.002521,1008.2199,5.679297888499602,1008.248414661536,1,1
5.92,0.028746225,3.8862479,7.9835825,1008.2428,5.6734752764787855,1008.2481422717614,1,1
5.94,0.114781454,4.1627083,8.253444,1008.2325400000001,5.6671202236294445,1008.2478454199776,1,1
5.96,-0.04295334,4.4058022,8.277115,1008.2274,5.660592489445987,1008.2475095182301,1,1
5.98,-0.11465293,4.7251616,8.125614,1008.28577,5.653984635976025,1008.2473504531804,1,1
6.0,0.038296983,4.07691,11.321337,1008.278,5.652801906627532,1008.2473202416704,1,1
6.02,0.038296983,4.07691,11.321337,1008.2756,5.6564170747784175,1008.2473953539106,1,1
6.04,0.9942525999999999,5.454445,9.384965,1008.2275400000001,5.661904235133691,1008.247390243812,1,1
6.06,1.6729822,5.311448599999999,7.628500999999999,1008.2197,5.666000497917559,1008.2472860436508,1,1
6.08,1.0898450000000002,4.3057050000000014,8.802632000000003,1008.20966,5.669715303227643,1008.2470585186315,1,1
6.1,0.02394614,3.3333275,9.313949000000001,1008.2325,5.673147877444057,1008.2468050668573,1,1
6.12,-0.05731432,3.8624156000000003,7.851017,1008.24786,5.673943805064094,1008.246584914629,1,1
6.14,-0.5018385999999999,3.6812862999999996,7.6569059999999975,1008.2173,5.671910035278572,1008.2462849624274,1,1
6.16,-0.11945686,4.5726322999999995,6.9136043,1008.2655599999999,5.66692419310568,1008.2460893147972,1,1
6.18,-0.047761038,4.839559599999999,7.1881995,1008.23755,5.660129031981945,1008.2458856990179,1,1
6.2,-0.43492770000000003,4.544033,7.585889,1008.25037,5.652149858550586,1008.245721927599,1,1
6.22,-0.277198,4.9491906,8.419144000000001,1008.24786,5.645058328910028,1008.2455849162337,1,1
6.24,-0.7838596999999999,5.1350865,7.993048,1008.28076,5.63828338782656,1008.245590483293,1,1
6.26,-0.43015674,5.463979,9.957825999999999,1008.2579,5.635624154829914,1008.2456397166068,1,1
6.28,-0.43015674,5.463979,9.957825999999999,1008.2477,5.6366111347375725,1008.2456906361828,1,1
6.3,-0.45781308,5.830979,9.849028,1008.27045,5.6409998590581125,1008.2458247624301,1,1
6.32,-0.44817737,4.2198806,9.901113,1008.2401,5.646959733725848,1008.2459226672374,1,1
6.34,-0.22350755,4.4391418,8.878483000000003,1008.2198,5.652533690718613,1008.2459151343232,1,1
6.36,-0.14223185,4.939629599999999,7.808510000000001,1008.2147,5.65631642903466,1008.2457961037564,1,1
6.38,-0.5962371,4.110247,7.6096710000000005,1008.23755,5.657314914268796,1008.245661242374,1,1
6.4,-0.29031068,3.81472,8.963713,1008.2351,5.6580875231312024,1008.2455040583842,1,1
6.42,-0.16119887,3.9386492,7.7611794000000005,1008.2173,5.6564938281084585,1008.2452636360008,1,1
6.44,-0.14682142,4.510634400000002,7.1267724,1008.20465,5.652255193297603,1008.2449049896927,1,1
6.46,-0.42401192,4.486801,7.7943273,1008.20966,5.646875205028454,1008.2444612078523,1,1
6.48,-0.44311216,4.405769,7.6901720000000005,1008.235,5.640236727212839,1008.2440350218696,1,1
6.5,0.092282936,5.254215,8.665464,1008.2553,5.635130018993462,1008.2436989978568,1,1
6.52,-0.21360551,5.2732806,8.182558,1008.2629,5.630569046099385,1008.2434712106468,1,1
6.54,-0.38086054,5.0397186,9.886946,1008.268,5.629347843963643,1008.2433582415096,1,1
6.56,-0.55767524,5.335244,8.906928,1008.2426,5.629614054420469,1008.2432556923103,1,1
6.58,-0.2756098,5.335243,9.986378,1008.25775,5.633122421514188,1008.2432172593456,1,1
6.6,-0.2756098,5.335243,9.986378,1008.2476,5.6394829280907235,1008.2431990778447,1,1
6.62,0.8381226,4.3437980000000005,13.617669,1008.2071,5.6545608319988325,1008.24305305599,1,1
6.64,0.7521241999999999,4.5296926,9.243083,1008.1793,5.6689785761605975,1008.2426945200776,1,1
6.66,-0.003027735,3.895739,6.1893972999999995,1008.2325,5.676510333188109,1008.2423410174733,1,1
6.68,0.13084482,4.2484636,7.8322387,1008.2147,5.681251659280738,1008.241929154909,1,1
6.7,-0.041190057999999995,4.7441845,6.686517,1008.2325400000001,5.682029243044869,1008.2415314321896,1,1
6.72,-0.2562432,4.8776474,7.789636,1008.2451,5.681371047565508,1008.2411928512387,1,1
6.74,-0.23710491,4.9634447,8.310423,1008.2122,5.680461692932857,1008.2407893068463,1,1
6.76,-0.2418467,5.297103,6.511352,1008.2398699999999,5.6766620902768805,1008.2404294255164,1,1
6.78,-0.25275296,5.492564700000001,8.206145,1008.2121599999999,5.673399613595004,1008.2400096644412,1,1
6.8,0.1869801,6.1980157,7.5243910000000005,1008.2146,5.6703581055025705,1008.2395472887634,1,1
6.82,0.62192446,6.936832400000001,8.187205,1008.2476,5.6695983066493945,1008.239167723375,1,1
6.84,0.17260513,5.7690263,10.341358,1008.2274,5.673131475518379,1008.2387899755936,1,1
6.86,-1.1323079,5.7451940000000015,7.301867999999999,1008.2172,5.675284177525791,1008.2383784737416,1,1
6.88,-1.1466651,5.3543367,9.474958,1008.26025,5.679500767577928,1008.2380936082001,1,1
6.9,-0.42971224,5.182741,9.195627,1008.2298,5.684737885890322,1008.2378120440177,1,1
6.92,-0.42971224,5.182741,9.195627,1008.2222,5.690857889347553,1008.2375070505478,1,1
6.94,-0.620931,5.3448043,7.9220690000000005,1008.2248,5.69568306850644,1008.237191812936,1,1
6.96,-0.32460100000000003,5.0731114999999996,8.423916,1008.2298,5.699891932074161,1008.2368866584552,1,1
6.98,-0.47279269,4.401027,8.324491,1008.2171,5.702687282739619,1008.2365457919859,1,1
7.0,0.08164681,4.9301157,8.225066,1008.2045,5.704559622025244,1008.2361292375224,1,1
7.02,0.21069264,5.1017117999999995,7.827375999999999,1008.207,5.7051020078678,1008.2356563047432,1,1
7.04,-0.17170948,4.672722,7.865249,1008.2121,5.704061203253925,1008.2351536186426,1,1
7.06,0.1532817,4.8061867,6.7858024000000015,1008.2019,5.69989318184454,1008.2345897321768,1,1
7.08,-0.08572623,4.992082599999999,7.0793333,1008.2348,5.693696125572988,1008.23409223906,1,1
7.1,-0.28170708,4.9968495000000015,7.8415713,1008.27026,5.687058162285154,1008.2337828580812,1,1
7.12,0.033742222999999995,5.0445150000000005,9.621706,1008.26526,5.6832997528948,1008.2336228067592,1,1
7.14,0.20100872,5.692768,8.925746,1008.2526,5.681526788208072,1008.2335497033072,1,1
7.16,0.3778437,6.2647552000000015,9.072512,1008.19434,5.6824358457634405,1008.2333439541644,1,1
7.18,0.48776144,4.648893,11.539135,1008.2550699999999,5.688659096760584,1008.2332403679877,1,1
7.2,0.13881798,4.2485027,9.484401,1008.1841,5.6952810792670885,1008.2329719339166,1,1
7.22,-0.14320819,5.0683503,6.4165053,1008.1613,5.6976269735016905,1008.2324767266092,1,1
7.24,-0.06196931,5.0683513,6.9278193,1008.207,5.697030057180347,1008.2319474452166,1,1
7.26,-0.27228954,4.8061905,7.8510275,1008.2348,5.695134601114112,1008.2314900413755,1,1
7.28,-0.32298112,4.949141,7.373025,1008.2272,5.691426357164072,1008.2310704351925,1,1
7.3,0.19329597,5.711789,8.400396,1008.2298,5.688778083099463,1008.2306950976024,1,1
7.32,-0.08868335,5.630756400000001,7.500862,1008.19916,5.685453523863098,1008.2302499229567,1,1
7.34,-0.356265,5.444858999999999,8.158953,1008.2423,5.682449220674777,1008.2298999469168,1,1
7.36,0.14567268,5.5830874,8.727086,1008.2322,5.68087311587664,1008.2295989882792,1,1
7.38,-0.17451593,5.84048,6.790719999999999,1008.2221699999999,5.677649313978997,1008.2293063168692,1,1
7.4,-0.045432117,6.0692744,6.7954570000000025,1008.2245,5.673298775407763,1008.2290304096706,1,1
7.42,0.37524885,5.8547773,8.44777,1008.222,5.670408020134487,1008.2287613085948,1,1
7.44,-0.33688363,5.5735497,8.641886,1008.2348,5.668825223364103,1008.2285452701738,1,1
7.46,-0.81958556,5.878607700000001,8.173184,1008.2347,5.66801347744795,1008.2283765356523,1,1
7.48,-0.42277446,5.2398868,9.536702,1008.2019,5.6695250216367485,1008.2281321263004,1,1
7.5,-0.78601044,4.896694,9.318921000000001,1008.1942,5.672391410391188,1008.2277940105424,1,1
7.52,-1.2782719999999999,5.1636195,6.980131,1008.2196,5.672744234112183,1008.227465753021,1,1
7.54,-1.0248841,5.2017508,8.6513815,1008.2398,5.6737235765421685,1008.2272201079641,1,1
7.56,-0.73325783,4.7107944,9.063279,1008.22974,5.6754484484547545,1008.227012127603,1,1
7.58,0.44266126,4.858555,9.0064745,1008.2247,5.677830509128289,1008.2268200324968,1,1
7.6,0.40445194,4.667892,9.446777,1008.22186,5.681412219613858,1008.2266324411437,1,1
7.62,-0.13085695,4.262734,8.471492999999999,1008.2272,5.683836931311525,1008.2264687286361,1,1
7.64,-0.0351444,4.4009614,7.7424045,1008.2523,5.6840280971974195,1008.2264170648413,1,1
7.66,-0.06857386,4.4152603,8.1164255,1008.2322,5.682939263374598,1008.2263922332786,1,1
7.68,-0.28360686,4.80135,7.197956,1008.22955,5.679511863034352,1008.22638166007,1,1
7.7,-0.08760574,5.139775,7.557772999999999,1008.24225,5.675034904630624,1008.2264294436068,1,1
7.72,-0.025410041,5.173139,9.522557,1008.2169,5.673173271412648,1008.2264373591428,1,1
7.74,0.02722607,5.2017370000000005,8.116445,1008.22705,5.671141907061387,1008.2264465588175,1,1
7.76,0.57696176,5.7975554,8.817141000000003,1008.2675,5.67089644020465,1008.2266024800383,1,1
7.78,0.35541090000000003,5.359073,9.863291,1008.2217400000001,5.673607062889976,1008.2267227471012,1,1
7.8,0.6756386999999999,5.2923417,8.357747999999999,1008.2118,5.676186182241795,1008.226775293188,1,1
7.82,1.2635483,5.2542095,8.878532,1008.2245,5.679633981838981,1008.226813531855,1,1
7.84,0.862032,4.472494599999999,8.935344,1008.2294300000001,5.683079265280293,1008.2268567388264,1,1
7.86,0.15460196,4.9491510000000005,7.680725,1008.2142,5.684658374210881,1008.2268493522464,1,1
7.88,0.15936905,5.087382,7.1552051999999975,1008.22186,5.683839616570178,1008.2268248637964,1,1
7.9,0.25017896,4.739423,8.18257,1008.2141,5.682315215104432,1008.2267574162925,1,1
7.92,0.32664314,4.6297927,9.370904,1008.2066,5.682247048308889,1008.2266252529788,1,1
7.94,-0.15613613,5.011118,6.4545097,1008.19135,5.678717790982707,1008.2263814825646,1,1
7.96,-0.29475683,5.06355,6.980028,1008.199,5.673089497807635,1008.2260675136893,1,1
7.98,-0.10835716,5.106449,7.780141,1008.2195,5.667037218368917,1008.2257664477416,1,1
8.0,-0.19918613,4.791856299999999,7.8464217000000005,1008.2344400000001,5.660401784528117,1008.2255316506585,1,1
8.02,0.116268195,5.187481,8.750691999999999,1008.2244,5.6553062856624505,1008.2253201100134,1,1
8.04,-0.25178936,5.263746,8.67494,1008.1938,5.6515414354320495,1008.2250197203032,1,1
8.06,-0.16097948,5.144582700000001,8.495032,1008.2143,5.648513960904768,1008.2247157049624,1,1
8.08,0.3791193,5.5688059999999995,9.214661,1008.2089,5.647896244672898,1008.2243901404696,1,1
8.1,-0.33786398,5.4973087,8.139949,1008.2295,5.647445514081959,1008.2241208671776,1,1
8.12,-0.25183383,5.5878735,8.835906,1008.2521,5.648452117129914,1008.2239836621753,1,1
8.14,-0.30921054,4.520165,9.725972,1008.22687,5.651307957744976,1008.2238728186513,1,1
8.16,-0.07978633,4.596430000000002,9.015811,1008.2193599999999,5.654521103843003,1008.2237586311663,1,1
8.18,-0.7919961999999999,4.095942,8.386133000000001,1008.2394400000001,5.656471857698352,1008.2237141880324,1,1
8.2,-0.863706,3.8385483999999996,8.708071,1008.22675,5.657693344563911,1008.2236858470025,1,1
8.22,-1.5233315,3.6145205000000002,9.096292,1008.2167,5.658994082661683,1008.2236356558193,1,1
8.24,-0.80159396,3.962479,8.689133,1008.2368,5.6596901135348965,1008.2236386985286,1,1
8.26,-0.06551681,4.0721107000000005,9.181509,1008.22156,5.660806774702944,1008.223633903752,1,1
8.28,-0.18486008,3.7336814,9.579212,1008.2875,5.6627869381184075,1008.2238595850336,1,1
8.3,-0.55291134,3.2045934,9.844338,1008.4571,5.665699128308147,1008.2248986625084,1,1
8.32,-0.70586824,4.548763,6.8806009999999995,1008.4316,5.6650821864180445,1008.2265609161797,1,1
8.34,-0.44298857,3.838546,9.702305,1008.1027,5.6658490388912535,1008.2275837842253,1,1
8.36,-0.20878133,3.9481766000000014,10.213621,1008.0115400000001,5.668893203961757,1008.2277098328074,1,1
8.38,-0.39998302,4.6011953000000005,7.813277,1008.1761,5.670039640392864,1008.2276354139364,1,1
8.4,0.9479154000000001,4.9491544,10.800685000000001,1008.19855,5.675412349316241,1008.2274649499318,1,1
8.42,0.4794914000000001,4.7966239999999996,10.327245,1008.18365,5.683416218100778,1008.2271565941176,1,1
8.44,-0.8254046,3.7575154000000004,8.618124,1008.1608,5.68964425992034,1008.2266452471813,1,1
8.46,-0.6342156,4.024442700000002,8.087871,1008.1937,5.693487282980369,1008.2260748181386,1,1
8.48,-0.33309429999999995,4.367635,8.196761,1008.1631,5.695703152899995,1008.2253440776911,1,1
8.5,-0.33310065,4.362869,7.846414,1008.1862,5.695829404185503,1008.224557476752,1,1
8.52,-0.10845619999999999,4.715594,8.381401,1008.2467,5.695425590273023,1008.2239421492461,1,1
8.54,0.03014858,4.8824234,8.622855,1008.2368,5.695161170411018,1008.2234447341244,1,1
8.56,0.18787578,4.658396,8.698606,1008.18616,5.6949377577521645,1008.2228709930797,1,1
8.58,0.42207667,4.696528400000001,9.361422,1008.2241,5.696024945327216,1008.222368459918,1,1
8.6,0.29301882,4.601197,9.309341,1008.20386,5.6980719633808805,1008.2218577911605,0,0
8.62,0.17829715,4.677462,7.926896000000001,1008.20874,5.698501474016896,1008.2213593401981,0,0
8.64,0.4555194,4.91579,8.371929,1008.18835,5.6985672376748715,1008.2208000753027,0,0
8.66,0.26910073,4.796626,8.523429,1008.23175,5.698446402533629,1008.2203453285704,0,0
8.68,0.36947027,4.7823267,8.35299,1008.20374,5.697845412046039,1008.2198837351747,0,0
8.7,0.15915257,4.772794,8.930587,1008.201,5.697851133189517,1008.219407889804,0,0
8.72,0.09701193,4.80616,9.101026,1008.2316,5.698736655813919,1008.2190313244307,0,0
8.74,-0.008153249,4.882425,8.016846000000001,1008.206,5.6985133002266295,1008.2186516784993,0,0
8.76,0.50327945,5.173185299999999,8.859569,1008.1885,5.699150549870407,1008.2182076773113,0,0
8.78,0.3128175,5.006337599999998,8.443007000000001,1008.1959,5.699608569311312,1008.2177350502234,0,0
8.8,0.2793817,4.939605,8.300978,1008.2339,5.699579973229588,1008.2173756307477,0,0
8.82,0.1455586,4.815675,8.708138,1008.20636,5.699721194683231,1008.2170183914284,0,0
8.84,-0.33239892,4.339018299999998,8.045324,1008.1859,5.698338345805961,1008.2165907085566,0,0
8.86,0.07869846400000001,4.625011,8.173155,1008.16565,5.69612198895101,1008.2160294214204,0,0
8.88,0.15519814,4.524912400000002,8.613458,1008.2161,5.6938828900827705,1008.2155337221897,0,0
8.9,0.035725884,4.605943700000001,7.7517977,1008.2088,5.690147934808085,1008.2150714809494,0,0
8.92,0.3894428,4.648842299999999,8.078472,1008.2189300000001,5.685752586583012,1008.214676935258,0,0
8.94,0.1265878,4.310416,9.0774355,1008.23145,5.682287961202563,1008.2143886977184,0,0
8.96,-0.01679489,4.4772453,8.25365,1008.1832,5.678286758836353,1008.2140217317166,0,0
8.98,0.44688034,4.715572,8.907001,1008.17566,5.675277312547102,1008.2135593783232,0,0
9.0,0.44688034,4.715572,8.907001,1008.1885,5.673155015934098,1008.2130606291028,0,0
9.02,0.074089855,4.400979,8.594534,1008.2138,5.6709262077249765,1008.2126225960268,0,0
9.04,-0.10274001,4.524908,8.940147,1008.1885,5.669368836478362,1008.2121487086553,0,0
9.06,-0.07404981,4.5392084000000015,8.277331,1008.2113,5.667204843394972,1008.2117269264224,0,0
9.08,-0.35603544,4.3819113,9.153198,1008.19104,5.665996029157602,1008.2112797667064,0,0
9.1,-0.10745135,4.6154714000000014,8.817059,1008.2315,5.665216468089874,1008.2109574492214,0,0
9.12,0.117222264,4.548739,9.323642,1008.22144,5.665696344534775,1008.2107103866742,0,0
9.14,0.26541904,4.5439725,8.220528,1008.20886,5.6652542258020615,1008.2104854208155,0,0
9.16,0.3371389,4.4105077,8.746049000000001,1008.2163,5.664839651804879,1008.2103075734681,0,0
9.18,0.16507739,4.2722774,8.30575,1008.1984,5.663496017655983,1008.2101075602873,0,0
9.2,-0.016532348,4.7298665,7.789702,1008.2239,5.660861736087267,1008.2099804814236,0,0
9.22,0.1125566,4.3962069999999995,8.362569,1008.2239,5.657793069563834,1008.2099183048064,0,0
9.24,0.18426510000000001,4.491537,8.561414,1008.2389,5.6548119109921124,1008.2099676996504,0,0
9.26,0.2320974,4.434337599999999,9.086936,1008.2163,5.652841644263361,1008.2100341412157,0,0
9.28,0.73374444,4.8823996,9.247885,1008.2085599999999,5.652539617019524,1008.2100875420742,0,0
9.3,0.92017585,4.863332700000001,8.490382,1008.2189,5.652350266118451,1008.2101664519217,0,0
9.32,0.92017585,4.863332700000001,8.490382,1008.18835,5.652261157697088,1008.2101576374356,0,0
9.34,0.73378253,5.168392,8.338883000000001,1008.1933,5.652282332281157,1008.2100891614612,0,0
9.36,0.002485198,4.3199453000000005,8.608746,1008.1832,5.651972239981098,1008.2099318551088,0,0
9.38,-0.021407481000000003,4.372376999999998,8.324681,1008.2138,5.650895136719727,1008.2098067845377,0,0
9.4,0.13156527,4.5439725,8.845467999999997,1008.211,5.650270926808911,1008.2097005677564,0,0
9.42,0.27496570000000004,4.6345367,8.414638,1008.2189,5.649353336167753,1008.2096398325647,0,0
9.44,0.18416849,4.60117,8.807595,1008.2085599999999,5.648862149631133,1008.209582279552,0,0
9.46,0.09335855400000001,4.434341000000001,8.343623,1008.2214,5.647732110448482,1008.2095739695036,0,0
9.48,0.27978358,4.5868699999999984,8.291547,1008.2214,5.646105254099437,1008.2096092004546,0,0
9.5,-0.27943444,4.200779,8.831269,1008.2186,5.644676308775384,1008.2096726974013,0,0
9.52,0.22723110000000002,4.6011690000000005,9.276304,1008.2138,5.644619955552506,1008.2097436615926,0,0
9.54,0.5713895999999999,4.906229,8.220533,1008.2113,5.644182689355963,1008.2098119683703,0,0
9.56,0.3324185,4.629768,9.309448,1008.2366300000001,5.645098360545652,1008.2099688691527,0,0
9.58,0.5953141,5.020625,9.195824,1008.2186,5.647396484440574,1008.2101385787556,0,0
9.6,0.96815777,5.1969876,8.693978,1008.2212,5.650244884897784,1008.2103283552768,0,0
9.62,0.7769783,4.725098,9.001717,1008.21625,5.653613117202784,1008.2105173597323,0,0
9.64,0.51887524,4.586868,8.698714,1008.2212,5.656704236661037,1008.210722821574,0,0
9.66,0.24165297,4.6964984,8.334166999999999,1008.2339999999999,5.658961084202666,1008.2109881654995,0,0
9.68,0.12695037,4.767997,8.485667,1008.18335,5.6608153224238364,1008.2111231259964,0,0
9.7,-0.10246121,4.4724693,8.490404,1008.2161,5.662021568859756,1008.211260293838,0,0
9.72,0.07917769999999999,4.5153685,8.551952,1008.21375,5.662805191349973,1008.2113904582848,0,0
9.74,0.05529138,4.615465599999999,8.570891,1008.20605,5.6633448415603365,1008.2114862459404,0,0
9.76,0.3038538,4.620232,8.779205000000001,1008.1882300000001,5.6640631649786695,1008.2114871614273,0,0
9.78,-0.26081103,4.3533206,8.717599,1008.1984,5.6645672808680905,1008.2114408565704,0,0
9.8,-0.012268228,4.4963174000000015,8.4288,1008.2238,5.664476017731558,1008.2114444345152,0,0
9.82,-0.23216017,4.553517,8.921175999999997,1008.2364,5.6648268909611454,1008.2115374360228,0,0
9.84,0.1645566,4.4438863,9.560319999999999,1008.2312,5.666658738337206,1008.2116903973854,0,0
9.86,0.44655108,4.610716,8.556625,1008.1832,5.668100923666468,1008.2117229886148,0,0
9.88,0.18842772,4.505852,7.836994,1008.2288,5.66776339504584,1008.2118132634661,0,0
9.9,0.11192991599999999,4.5153856,8.476137,1008.2262,5.667023753924518,1008.211944822576,0,0
9.92,0.12625538,4.5344524,8.736528,1008.1983,5.666429268543174,1008.2120119468443,0,0
9.94,-0.031485137,4.4486547,8.220477,1008.2185699999999,5.664932361008737,1008.2120948668396,0,0
9.96,0.19793151,4.2103267,9.456156,1008.2314,5.664734274050367,1008.2122376334264,0,0
9.98,0.29351363,4.405755999999999,9.176824,1008.2185699999999,5.665332949450525,1008.212386578502,0,0
10.0,-0.026747191,4.777548,7.5765944,1008.2161,5.664083818602218,1008.2125315546884,0,0
10.02,-0.22751987,4.648852,8.90696,1008.19574,5.663477403296393,1008.2125992060498,0,0
10.04,0.08316042,4.729883,8.523473,1008.2262,5.662814404988732,1008.2127079456508,0,0
10.06,0.312577,4.5868864,9.37093,1008.2161,5.663537395174824,1008.2128162393582,0,0
10.08,0.18350139999999998,4.4820232,8.566079,1008.2288,5.663885246524696,1008.2129694692163,0,0
10.1,0.22651267,4.410525,8.736517,1008.2163,5.664149338712324,1008.2131168530296,0,0
10.12,-0.07463593,4.081633,8.594482000000001,1008.2109,5.6637677841860095,1008.213239100696,0,0
10.14,-0.012505438,4.4057584,8.963766,1008.2338,5.663800728052332,1008.2134211379716,0,0
10.16,-0.2945279000000001,4.491557,8.296213,1008.22614,5.663058005645263,1008.2136277740117,0,0
10.18,-0.14159505,4.343795,8.386165,1008.2314,5.661646709067737,1008.2138743376303,0,0
10.2,0.17863789,4.5106244,9.380389,1008.2212,5.661654661912405,1008.2141185736284,0,0
10.22,0.11170665,4.586889299999998,8.807525,1008.22864,5.661920903811978,1008.2143866576912,0,0
10.24,0.11170665,4.586889299999998,8.807525,1008.2236300000001,5.662414411449628,1008.2146568128012,0,0
10.26,-0.34717545,4.210332,9.219416,1008.2009,5.66354398609874,1008.21484599733,0,0
10.28,-0.09310047,4.3151779999999995,8.556668,1008.1906,5.664072524292643,1008.2149258751897,0,0
10.3,-0.35597324,4.3533095999999984,8.575606,1008.2085,5.66415173563573,1008.2149733221156,0,0
10.32,-0.35116872,4.134048,9.001706,1008.2108,5.664432133292219,1008.21500022226,0,0
10.34,-0.07870334,4.415274,8.821799,1008.2035,5.664792665647173,1008.2149825904272,0,0
10.36,-0.07870334,4.415274,8.821799,1008.2033,5.6652227071052135,1008.2149249536144,0,0
10.38,-0.09780607,4.076848,8.727113000000001,1008.2134,5.6652294960727705,1008.2148685358935,0,0
10.4,0.045612775,4.6440682,8.277346000000001,1008.23364,5.664567870074217,1008.2148862624659,0,0
10.42,0.08385944,4.596401999999999,8.305753999999999,1008.2438,5.663321910568618,1008.2150060151207,0,0
10.44,0.08388419,4.3819065,9.053792,1008.2159,5.66273982784156,1008.2151150469119,0,0
10.46,0.050433792000000005,4.443871499999998,8.480929,1008.1906,5.661740473303204,1008.2151231332338,0,0
10.48,0.06957776,4.4009724000000014,8.907028,1008.1855,5.661125139738084,1008.2150236350284,0,0
10.5,0.18908106,4.4772367,9.053796,1008.2083,5.661198221392096,1008.2149115133276,0,0
10.52,0.2368956,4.567801,8.613498,1008.221,5.6611528882817685,1008.2148343611448,0,0
10.54,0.27037895,4.443869599999998,8.480936999999999,1008.2033,5.660641188687293,1008.2147246657761,0,0
10.56,0.28950644,4.4677024,8.514077,1008.23364,5.6598043797087385,1008.2146958341513,0,0
10.58,0.4185776,4.4105034000000005,9.110615,1008.2108,5.659745941055684,1008.2146563335248,0,0
10.6,0.37557587,4.682197,8.907036999999997,1008.2286,5.660248746820392,1008.2146716279706,0,0
10.62,-0.09759996,4.4200354000000015,8.419395,1008.20575,5.660081458423271,1008.214653024282,0,0
10.64,-0.09759996,4.4200354000000015,8.419395,1008.216,5.6593226770629865,1008.2146414351756,0,0
10.66,0.06970966,4.453401,8.608773,1008.2082,5.658424574061821,1008.2146080058743,0,0
10.68,0.21790831,4.60593,8.869168,1008.2286,5.658037414298892,1008.2146288389227,0,0
10.7,0.07453067599999999,4.2961035,8.604042,1008.2311,5.657315474939972,1008.2147065431841,0,0
10.72,0.21794128,4.510598,8.727138499999999,1008.1803,5.656734790036223,1008.2146513391141,0,0
10.74,-0.00190499,4.53443,8.329452,1008.203,5.655568980831179,1008.2145606159767,0,0
10.76,-0.00190499,4.53443,8.329452,1008.20557,5.653890352706647,1008.2144480867952,0,0
10.78,0.088912144,4.429566,8.490421000000001,1008.23096,5.651958237177137,1008.214408098898,0,0
10.8,0.11282636,4.4200325,8.613517,1008.22833,5.650027733266633,1008.2144228844361,0,0
10.82,0.05547638,4.3866663,8.244234,1008.2131,5.64739218567608,1008.2144311865532,0,0
10.84,0.06505116,4.319935,9.124834,1008.2106,5.645716889243537,1008.2144247300326,0,0
10.86,0.069853805,4.49153,8.793428,1008.2308300000001,5.64443550014362,1008.2144780840226,0,0
10.88,0.098547846,4.539194999999999,8.585116000000001,1008.20557,5.643168804332764,1008.214493158506,0,0
10.9,0.14635347,4.5105953,8.424147999999999,1008.19775,5.641597659670942,1008.2144462029488,0,0
10.92,-0.0209168,4.3866644,8.66087,1008.21826,5.64007827155644,1008.2144184426877,0,0
10.94,0.13682431,4.4676957,8.736621000000001,1008.203,5.638828730615133,1008.2143528073276,0,0
10.96,0.14640678,4.4486294,8.708216,1008.21545,5.637751814759983,1008.2142987618167,0,0
10.98,0.14640678,4.4486294,8.708216,1008.22327,5.636831307328037,1008.2142833036612,0,0
11.0,0.18467563,4.5534925,8.883392,1008.1903699999999,5.6364769996506086,1008.2141835569412,0,0
11.02,0.18467563,4.5534925,8.883392,1008.2079,5.636624261583912,1008.2140727999347,0,0
11.04,0.026964955,4.396196,8.873924,1008.19775,5.63704599397575,1008.213916172964,0,0
11.06,-0.020825488,4.296097799999999,8.930738999999997,1008.2054,5.637723541767419,1008.21374711915,0,0
11.08,0.017435813,4.4009614,8.769771,1008.20276,5.638420521367593,1008.2135581895712,0,0
11.1,-0.016007623000000002,4.386661,8.533052,1008.20795,5.638680025428992,1008.2133710619124,0,0
11.12,0.07481626400000001,4.4819922,8.665614999999999,1008.18256,5.638888307166695,1008.2130947960907,0,0
11.14,0.06049206,4.3342285,8.836056,1008.1928,5.639228572281134,1008.2127776263443,0,0
11.16,-0.03986858,4.367594,8.807651,1008.1952,5.639661740338433,1008.2124340957016,0,0
11.18,-0.035065964,4.391426,8.518854,1008.1976300000001,5.63966207318064,1008.2120772572816,0,0
11.2,0.09399636,4.5296564,8.48098,1008.2255,5.639344571753753,1008.2118102767273,0,0
11.22,0.084451996,4.4057255,9.105922999999999,1008.22565,5.6397882961605905,1008.2116241957132,0,0
11.24,0.05100856,4.4152580000000015,8.447842,1008.2104,5.639689471830707,1008.2114553674243,0,0
11.26,-0.025445452,4.4152575,8.286874000000001,1008.21277,5.6388154998615825,1008.2113109234258,0,0
11.28,-0.011218863999999999,4.319929599999999,8.992289999999997,1008.2583,5.638478522099367,1008.2113524533844,0,0
11.3,0.003125616,4.348528400000001,9.172197,1008.21783,5.638980304487637,1008.2114124684233,0,0
11.32,0.23256636,4.5820894,8.556726,1008.2077,5.639303396438358,1008.2114521328256,0,0
11.34,0.046169225,4.5105906,8.944949000000003,1008.2102699999999,5.64010934258713,1008.2114829246134,0,0
11.36,0.12265117,4.4581585,9.105919,1008.2052,5.6415914863895775,1008.2114875137083,0,0
11.38,0.012720763999999999,4.4152594,8.850261999999997,1008.2203,5.6431483790878225,1008.2115232935834,0,0
11.4,-0.039841875,4.424792299999999,8.504650999999999,1008.2203,5.644134800720838,1008.211586504824,0,0
11.42,0.017525906,4.467691,8.580403,1008.2406599999999,5.644794292225122,1008.2117470228587,0,0
11.44,0.0509947,4.4676905,8.940219,1008.21277,5.645828973430603,1008.211892539312,0,0
11.46,-0.039816484,4.4438577000000015,8.391028,1008.2227,5.646153634332992,1008.2120600245088,0,0
11.48,0.07491399,4.448624,8.599343,1008.2253,5.6462383803487635,1008.21225567834,0,0
11.5,0.1418465,4.477223,8.779252,1008.2253400000001,5.646472133617543,1008.2124756616232,0,0
11.52,0.13229194,4.572554,8.63722,1008.21265,5.646665856532652,1008.2126706664708,0,0
11.54,0.08450406,4.467689,8.80766,1008.23285,5.647036637987938,1008.2129156183548,0,0
11.56,0.14665166,4.582086599999999,8.580409,1008.2379,5.647254886879853,1008.2132220016133,0,0
11.58,-0.07798392,4.334225,8.812396000000003,1008.248,5.647529953804433,1008.2136179226544,0,0
11.6,0.036741502999999995,4.467688,8.542537,1008.23553,5.64747900531129,1008.2140466419652,0,0
11.62,0.041526426,4.515354,8.528335,1008.2076400000001,5.647160226669588,1008.214402394437,0,0
11.64,0.012857743999999999,4.491521400000001,9.030182,1008.2152,5.6475111782538665,1008.2147196087013,0,0
11.66,-0.097067595,4.4390883,8.272677999999999,1008.2253,5.6470047768601095,1008.2150379886335,0,0
11.68,-0.039694726,4.405722,9.219560000000001,1008.21,5.647466298088678,1008.2153011723829,0,0
11.7,-0.044469453,4.4200215,8.750855,1008.2302,5.647920198082177,1008.215587357323,0,0
11.72,-0.020565385,4.4724536,8.623026,1008.2504,5.64817871216197,1008.2159655558496,0,0
11.74,-0.006215821,4.405721700000001,8.684574000000001,1008.2328,5.648314129356834,1008.2163603360667,0,0
11.76,0.12284905,4.5153527,8.75559,1008.24536,5.648577056722092,1008.2168135626573,0,0
11.78,0.008467764000000001,4.3723474,8.315323,1008.2177,5.648001207475669,1008.2172172248463,0,0
11.8,0.003699343,4.381880799999999,8.660935,1008.21515,5.647333794308126,1008.2175664587476,0,0
11.82,-0.08709406,4.4772110000000005,8.485764,1008.2275400000001,5.6463561927862145,1008.2179109465712,0,0
11.84,-0.010582966000000001,4.424778,8.992348,1008.2379,5.645995900966858,1008.2182872966043,0,0
11.86,0.12327439999999999,4.46291,8.788771,1008.20465,5.64584091290118,1008.218570745226,0,0
11.88,0.06592813,4.510575,8.911866999999997,1008.2353,5.64613973653729,1008.2188814257453,0,0
11.9,-0.05353271,4.3389783,8.561523,1008.225,5.646027572945592,1008.2191779699193,0,0
11.92,-0.07742027,4.2817793,8.438431,1008.2175,5.645271063802067,1008.2194339556598,0,0
11.94,0.008650414,4.6059046,8.741435000000001,1008.23755,5.644816168557076,1008.2197253624196,0,0
11.96,0.008650414,4.6059046,8.741435000000001,1008.2679400000001,5.644629416975709,1008.2201564221284,0,0
11.98,-0.11081043,4.3771086,9.011299000000001,1008.20215,5.64496726808467,1008.2204724833667,0,0
12.0,0.07561334,4.477206,8.6704235,1008.23505,5.6452264673476575,1008.2208042341373,0,0
12.02,-0.26849829999999997,4.834697,8.083361,1008.2452,5.644717376640202,1008.2211851938748,0,0
12.04,0.23818375,4.5105705,9.764076,1008.2199,5.6463070884071085,1008.2215171832013,0,0
12.06,0.3529219,4.5773025,8.921354,1008.24506,5.6482388436096915,1008.2218952831104,0,0
12.08,0.1761034,4.2865410000000015,9.06339,1008.21234,5.6504538218677425,1008.2221949731712,0,0
12.1,0.16178678,4.3437395,8.523669,1008.2373699999999,5.651956117951598,1008.2225144094052,0,0
12.12,0.10922037,4.3342056,8.826673,1008.2224,5.6533760759166265,1008.2227962513878,0,0
12.14,-0.3878564000000001,4.0958776,8.125982,1008.2376,5.653209512115737,1008.2230985804587,0,0
12.16,-0.034128096000000004,4.3485045,8.949771,1008.2373699999999,5.653392153583237,1008.2234170955361,0,0
12.18,-0.13926093,4.4581347000000004,8.589958,1008.2198,5.653318607545866,1008.2236855139142,0,0
12.2,-0.08186903599999999,4.400935,8.945041999999997,1008.2146,5.6536226602391615,1008.2238899805432,0,0
12.22,-0.06273844,4.4152346,8.178069,1008.2172,5.6528555639937625,1008.2240465633267,0,0
12.24,-0.14876346,4.3199034,8.660979,1008.2348599999999,5.651946319978503,1008.2242238482463,0,0
12.26,-0.10569954,4.1340065,9.52738,1008.2272300000001,5.652383116608772,1008.2243913193472,0,0
12.28,-0.10569954,4.1340065,9.52738,1008.2347,5.654007702285563,1008.2245764080626,0,0
12.3,-0.09589032,4.5486903,7.6525784,1008.2373,5.6535931010146285,1008.2247857573824,0,0
12.32,0.08577392,4.5248566,9.475327,1008.2096,5.654699001066837,1008.2249160697148,0,0
12.34,-0.21052636,4.3294272000000005,8.798311,1008.2171599999999,5.6557049804720725,1008.2250032918408,0,0
12.36,-0.09579517,4.1721296,9.631568,1008.2096,5.658050528312932,1008.2250249094608,0,0
12.38,-0.15310527,4.253161,8.320142,1008.1816,5.659178241883713,1008.2248876811155,0,0
12.4,-0.15308942,4.5820527,8.088158,1008.2320599999999,5.659125405177876,1008.2247922464978,0,0
12.42,-0.44460988,4.029131,9.338045,1008.2373,5.659864422137822,1008.2247529483824,0,0
12.44,-0.44937384,4.2007265,8.888278,1008.2171,5.660596488253666,1008.224690673953,0,0
12.46,-0.26291390000000003,4.157826,8.874079,1008.2245,5.661241101108983,1008.2246349618408,0,0
12.48,-0.06214628,4.3484883000000005,8.713111,1008.222,5.661670572470832,1008.2245762487564,0,0
12.5,-0.18638943,4.286522,8.803068,1008.22955,5.662022425519138,1008.2245422753792,0,0
12.52,-0.20068128,4.224556,9.001918,1008.2320599999999,5.662622285171072,1008.2245393203116,0,0
12.54,-0.16242702,4.3770847,8.679978,1008.2347,5.662974746013149,1008.224573287661,0,0
12.56,-0.18151447,4.362785,8.845686,1008.2397,5.663402938485213,1008.2246577573752,0,0
12.58,-0.34877595,4.1959542999999995,8.869361,1008.2068,5.663799381027843,1008.2246681068884,0,0
12.6,-0.23880869,4.2960515,8.594769,1008.23456,5.663737366442392,1008.2247128625332,0,0
12.62,-0.14796072,4.377082,9.030336,1008.2295,5.664153214021346,1008.2247696423157,0,0
12.64,-0.2722039,4.291283,8.599508,1008.2370599999999,5.6641132988421425,1008.2248640582193,0,0
12.66,-0.27696785,4.4104470000000005,8.807824,1008.2217400000001,5.664168924865461,1008.2249362375024,0,0
12.68,-0.26258087,4.281749,8.822032,1008.2219,5.664216184356244,1008.2249890846616,0,0
12.7,-0.14305405,4.3484796999999995,8.836238,1008.23456,5.664338164093803,1008.2250702357068,0,0
12.72,-0.27207705,4.195949,8.826773,1008.24475,5.6643756754315975,1008.2252127879216,0,0
12.74,-0.33897844,4.1768823,8.438552,1008.2344400000001,5.663599922247927,1008.2253719650224,0,0
12.76,-0.41062793,4.1101494,9.04456,1008.2243699999999,5.663191932898222,1008.2255090068344,0,0
12.78,-0.40113163,4.1768827,8.509567,1008.2167,5.662164143877736,1008.2255983845547,0,0
12.8,-0.2768288,4.377077,8.618461,1008.2143,5.660971389792612,1008.2256366845239,0,0
12.82,-0.28636053,4.2340800000000005,8.850449000000003,1008.2091,5.659938668793963,1008.2256109943128,0,0
12.84,-0.27200717,4.2817454,8.921467,1008.2294,5.6592260811786685,1008.2256019348623,0,0
12.86,-0.11902552,4.281745,9.106111,1008.23175,5.6591392728760805,1008.2256160629668,0,0
12.88,-0.13332309,4.386608,8.793644,1008.2117,5.659116644150645,1008.225578448733,0,0
12.9,-0.12851535,4.286509,8.372284,1008.20905,5.658275267306827,1008.2254857103806,0,0
12.92,-0.085455306,4.3484735,8.921478,1008.2143,5.657791145064716,1008.2253634982152,0,0
12.94,-0.03762933,4.367539,8.855201,1008.2117,5.657517578788212,1008.225206322952,0,0
12.96,-0.2526926,4.262674,8.495387,1008.2294300000001,5.6566712123297895,1008.2250826481267,0,0
12.98,-0.40563238,4.2293080000000005,8.32495,1008.2015,5.654985605738625,1008.2248884715184,0,0
13.0,-0.31956799999999996,4.234073599999999,9.158208,1008.2495,5.654119624344079,1008.2248054985691,0,0
13.02,-0.33865935,4.191174500000002,8.765255,1008.2342,5.65320566661757,1008.2247660038768,0,0
13.04,-0.23348965,4.2245398000000005,9.01618,1008.2088,5.652747101587424,1008.2246736287525,0,0
13.06,-0.19998918,4.238837999999999,8.556947000000001,1008.22156,5.651844219007571,1008.2245807970293,0,0
13.08,-0.19997527,4.219772,8.585355,1008.22406,5.650587393855871,1008.224496896049,0,0
13.1,-0.19994736,4.2340703,8.71792,1008.2088,5.649282901414925,1008.2243662523172,0,0
13.12,-0.07086475,4.315101599999998,8.760531,1008.2289999999999,5.6480907928731225,1008.2242674970076,0,0
13.14,-0.31460682,4.3723,8.746331,1008.2392,5.647038667581311,1008.2242339938267,0,0
13.16,-0.16640502,3.9909744,9.02093,1008.2213,5.646285217523162,1008.2241938280382,0,0
13.18,-0.051661822999999996,3.9290087,8.310772,1008.24445,5.644399846880432,1008.2242312597667,0,0
13.2,0.010503549,4.086304,9.058809,1008.2166,5.643069438237733,1008.2242368619068,0,0
13.22,0.0009717910000000001,4.024338200000001,8.28237,1008.20355,5.6407179497004405,1008.2241673392548,0,0
13.24,-0.11849538,4.319864,8.618516,1008.20605,5.63837259286999,1008.2240406866181,0,0
13.26,-0.7685069,4.0815353,9.967825,1008.23645,5.638446303646746,1008.2239734498767,0,0
13.28,-0.7876436,3.9576051,9.745306,1008.2289,5.6401360139401815,1008.2239317750723,0,0
13.3,-0.09453203,3.9528377,9.106164999999999,1008.2491,5.641958562235487,1008.2239855568248,0,0
13.32,-0.022808349,4.505758,8.864713,1008.2289,5.643926379266486,1008.2240507703772,0,0
13.34,0.23053458,4.1673317,9.693234,1008.24396,5.647282264152597,1008.2241800662982,0,0
13.36,0.09671339,4.2197633,10.081457,1008.2164,5.652633615114483,1008.2242663039357,0,0
13.38,0.04894197,4.2435956,8.878921499999997,1008.2417,5.657466771304892,1008.2244052648176,0,0
13.4,0.40268740000000003,4.367525,9.740586,1008.2315,5.6635736894126065,1008.2245535917,0,0
13.42,0.23064111,3.962367,9.418649,1008.2262,5.669824404804709,1008.2246905804027,0,0
13.44,-0.50065553,3.9051682999999997,8.992554,1008.23914,5.675339735881772,1008.2248636415312,0,0
13.46,-0.34288213,3.747871,10.341863,1008.2415,5.682656097662416,1008.2250764492347,0,0
13.48,0.072987475,4.372289,9.196139,1008.1881,5.6898280085222,1008.2251313709044,0,0
13.5,0.32633042,4.3722887,8.452838999999999,1008.2085599999999,5.695473423168672,1008.2251202427564,0,0
13.52,-0.05123411,3.9528307999999996,8.329748,1008.2237,5.699121845449108,1008.225105297051,0,0
13.54,-0.06078041,4.052928,8.083561,1008.2237,5.700624048773558,1008.2250870319564,0,0
13.56,-0.0033827759999999997,3.9766622000000003,8.855272,1008.24146,5.701605181525817,1008.2251298356036,0,0
13.58,0.06835419,3.9432955,8.680102,1008.2237,5.7017625166946635,1008.225162509498,0,0
13.6,-0.22320053,3.8717964,8.272945,1008.2463,5.700365803764313,1008.2252674751168,0,0
13.62,0.71844745,4.324619,8.339229,1008.23364,5.698192193472947,1008.2253903638274,0,0
13.64,0.64677703,4.6535106,9.276644000000001,1008.22614,5.697371056170362,1008.2255016469824,0,0
13.66,-0.10840530000000001,3.9003942000000014,8.003092,1008.19574,5.694640773653003,1008.2254928348488,0,0
13.68,0.6611697,4.8394055,9.016256,1008.22614,5.6930406699401885,1008.2254873782421,0,0
13.7,-0.45727775,4.143487,8.21141,1008.1958,5.6902723242313975,1008.2253756822228,0,0
13.72,-0.34732893,3.8956258000000004,8.291896000000001,1008.22614,5.686396547101225,1008.225279739164,0,0
13.74,0.93846494,4.739306,9.016262,1008.1879,5.683761691472332,1008.2250603968164,0,0
13.76,0.6708227,4.8441696,7.9226174,1008.23364,5.680323327499485,1008.2248974724896,0,0
13.78,0.36928249999999996,4.491454,8.523849499999999,1008.2058,5.676876262838154,1008.2246847616533,0,0
13.8,1.2583349,4.80128,9.15826,1008.23364,5.675044564285022,1008.2245290492164,0,0
13.82,1.1436286,4.782213700000002,7.8231587,1008.22327,5.672201081774776,1008.2243869291301,0,0
13.84,1.0623851999999998,4.739314599999998,8.126161999999999,1008.2334599999999,5.668945467041337,1008.2242940148767,0,0
13.86,1.0098162,4.929977,8.244524,1008.21826,5.665736488632892,1008.2241901933893,0,0
13.88,0.7708304,4.6439834000000015,8.339211,1008.23865,5.6624080979313485,1008.2241505120263,0,0
13.9,0.8473162000000001,4.5963173,8.689558,1008.22845,5.659590090151213,1008.2241309277307,0,0
13.92,0.8377699000000001,4.677348599999998,8.192447,1008.2261,5.656410216599841,1008.2241207117077,0,0
13.94,0.64658225,4.558184,8.093024,1008.2309,5.652589666388768,1008.2241360902672,0,0
13.96,0.96683794,4.7917457,8.386559,1008.2333,5.649040567701265,1008.2241826688376,0,0
13.98,0.7947738,4.620149,8.788983,1008.2181,5.64627181138462,1008.2242019280546,0,0
14.0,0.8139064,4.767912,8.429171,1008.20795,5.643697973667162,1008.2241604385578,0,0
14.02,0.8808325,4.68688,8.59961,1008.2004400000001,5.641544782111852,1008.2240383848596,0,0
14.04,0.8808325,4.68688,8.59961,1008.2155,5.639771024995017,1008.2238998000264,0,0
14.06,0.7278965999999999,4.653514,8.272938,1008.22327,5.637687083385801,1008.2237750791874,0,0
14.08,0.8378365,4.6821136,8.557003,1008.2308,5.6358984222837405,1008.2236901655693,0,0
14.1,1.0003587,4.8727756,8.689567,1008.2233,5.634839636937338,1008.2236137313,0,0
14.12,0.6466621,4.663046400000002,8.211392,1008.1926,5.6332916237820365,1008.2234345445472,0,0
14.14,0.7805055000000001,4.725012,8.571208,1008.18005,5.632051063617054,1008.2231200307718,0,0
14.16,0.58931774,4.601080400000002,8.339222,1008.2457,5.630513294909482,1008.2229234142892,0,0
14.18,0.6992666000000001,4.6296800000000005,8.902617,1008.24854,5.629791502224041,1008.2228419036735,0,0
14.2,0.58933556,4.586780999999998,8.751118,1008.1901,5.629458825036721,1008.2226520100406,0,0
14.22,0.8235548,4.806042,8.362897,1008.2331,5.629019602464268,1008.2225218327903,0,0
14.24,0.7423115,4.7679089999999995,8.339226,1008.2482,5.628392299543169,1008.222499249574,0,0
14.26,0.74232036,4.677345,8.746387,1008.2306,5.628248694008459,1008.2225084577452,0,0
14.28,0.7805632,4.7202435,8.689573,1008.23065,5.62847763044226,1008.222545903638,0,0
14.3,0.637178,4.810807700000002,8.0788355,1008.2380400000001,5.628005441020052,1008.2226347695752,0,0
14.32,0.35996267,4.4580827,9.058859,1008.2380400000001,5.628325714880758,1008.2227687503473,0,0
14.34,0.8427318000000001,4.887072,8.372371000000001,1008.21,5.628572016218769,1008.2228411682561,0,0
14.36,0.49859473,4.577246,8.519138,1008.2532,5.628654136298686,1008.2230144485144,0,0
14.38,0.5702963000000001,4.577246,8.722717999999999,1008.26324,5.628972195164807,1008.223312370936,0,0
14.4,0.92401063,4.877539,8.774797,1008.2153300000001,5.629943410768057,1008.2235468786523,0,0
14.42,0.50339675,4.7297754,8.154592,1008.22284,5.6301553277986764,1008.2237515449077,0,0
14.44,0.7471755999999999,4.925204,8.5759535,1008.2406599999999,5.6306877920569125,1008.2239932584488,0,0
14.46,0.37436423,4.6535096,8.5948925,1008.2609,5.63121717676534,1008.2243397008036,0,0
14.48,0.46040964,4.5200458,9.409211,1008.2329,5.633129845103447,1008.2246766343452,0,0
14.5,0.5990283000000001,4.624910400000001,9.129881,1008.24817,5.635848978478742,1008.2250589249393,0,0
14.52,0.15929529,5.011001,7.3970910000000005,1008.26825,5.636535718106557,1008.225552204778,0,0
14.54,0.5369086999999999,4.958569000000002,8.145126,1008.17474,5.636702063704558,1008.2258051429063,0,0
14.56,0.11629477,4.567711,8.381847,1008.205,5.6363986426360055,1008.2259537405223,0,0
14.58,0.6564215,4.9633346,9.499168,1008.2429,5.6381575470543135,1008.2261460479097,0,0
14.6,-0.055755958,5.5114884,6.227696,1008.2708,5.636699823283768,1008.2264767249447,0,0
14.62,0.43179290000000004,4.820338,9.361873,1008.20245,5.637024189429072,1008.2266824149632,0,0
14.64,-0.1369993,4.8203373,7.8752704,1008.21,5.636210870365591,1008.2268041059697,0,0
14.66,0.7090393,4.853703,9.645939,1008.26825,5.637693970762148,1008.2270608373616,0,0
14.68,0.6230073,4.6106086,10.346631,1008.2758,5.6422879267859205,1008.2274631462046,0,0
14.7,0.48439738,4.6153746,9.196172,1008.2331,5.647444662262558,1008.227838918972,0,0
14.72,0.3553516,4.820337,7.8705387,1008.2404,5.650867424307616,1008.2282161716812,0,0
14.74,0.5465525999999999,4.8155704,8.594903,1008.2528699999999,5.65405715570168,1008.2286382659568,0,0
14.76,0.5513413,4.605841000000002,9.181971,1008.2378,5.6579025257502416,1008.2290442107014,0,0
14.78,0.44619894,4.8012695,8.216153,1008.2504,5.660732549520858,1008.2294797843193,0,0
14.8,0.48444182,4.906134,8.15934,1008.2554,5.662668661454173,1008.2299579699443,1,2
14.82,0.5226936,4.8584676,8.623313000000001,1008.2453,5.664594637572429,1008.2304357260707,1,2
14.84,0.40798715,4.763137,8.467079,1008.22,5.666113687270203,1008.2308203027704,1,2
14.86,0.28371668,4.6630387,8.609112,1008.2453,5.6674163516305365,1008.2312122416521,1,2
14.88,0.41278028,4.820335,8.367657000000001,1008.2299,5.668254246152459,1008.231553834778,1,2
14.9,0.42235320000000004,4.791735,8.618583000000001,1008.2605,5.669103533709189,1008.2319598726586,1,2
14.92,0.33632115,4.7774353,8.670661,1008.23773,5.670033222083937,1008.2323394201887,1,2
14.94,0.27897242,4.915665,8.377130000000001,1008.2148,5.670638745724182,1008.2326116464737,1,2
14.96,0.4223843,5.068194999999999,8.528632,1008.2427,5.671398360799898,1008.2328885036916,1,2
14.98,0.4223843,5.068194999999999,8.528632,1008.22473,5.6722913964537245,1008.2331037641161,1,2
15.0,0.111710355,4.958564,8.362928,1008.21466,5.672869288428439,1008.2332275706759,1,2
15.02,0.011343326,4.939497,8.310851,1008.24255,5.673052013807691,1008.2333705268984,1,2
15.04,0.06392562,5.0014625,8.467087,1008.25775,5.673230355301571,1008.2335846091196,1,2
15.06,0.111732535,5.0395947,8.443415,1008.2299,5.67340322793349,1008.2337605075772,1,2
15.08,0.20255770000000006,4.991929,8.083602,1008.2299,5.672883122120362,1008.2339020336274,1,2
15.1,0.42721736,4.9204300000000005,8.585449,1008.2451,5.672587709587255,1008.2340673987236,1,2
15.12,1.0022315,4.7964644,8.310986,1008.2325400000001,5.671958264283585,1008.2342080166878,1,2
15.14,0.96402335,4.758331,7.894360499999999,1008.2348599999999,5.670245782181543,1008.2343346138608,1,2
15.16,0.9927174000000001,4.758331,8.282583,1008.2402,5.668280374776223,1008.2344675905127,1,2
15.18,1.131362,5.006191,8.310992,1008.2325400000001,5.666440411847201,1008.2345781493567,1,2
15.2,0.6343076999999999,4.8155274000000015,8.079011,1008.2323,5.664008396577837,1008.2346676378136,1,2
15.22,1.1601164,5.5066776,8.045873,1008.2348,5.661876671115338,1008.2347471863178,1,2
15.24,1.0836546,5.5781754999999995,8.064811,1008.2398,5.660115741054287,1008.2348356655052,1,2
15.26,0.44319117,4.9775887,9.134789999999999,1008.2579,5.659825045974605,1008.23499687732,1,2
15.28,0.7491289000000001,5.010954,8.789182,1008.2424,5.6602787580021845,1008.2351659753207,1,2
15.3,1.4231114,5.5877066,8.140571000000001,1008.2449,5.661036967613852,1008.2353504328032,1,2
15.32,0.7874279000000001,5.0014195,8.339417,1008.23773,5.6616047154991875,1008.2355219858763,1,2
15.34,0.8256966,5.063383999999999,8.197389,1008.2373699999999,5.661824169140289,1008.2356802230228,1,2
15.36,0.9308825000000001,5.0443169999999995,7.9748744999999985,1008.2701400000001,5.661343694793558,1008.2359440965623,1,2
15.38,0.5771921,4.834588,8.041158,1008.268,5.660076574656795,1008.2362926564746,1,2
15.4,0.5533385000000001,5.211145,7.85652,1008.2323,5.658209435426558,1008.2365862704497,1,2
15.42,0.6776285,5.392274,8.041163000000001,1008.2729,5.656362512864143,1008.2369764371845,1,2
15.44,0.7923892,5.725932,8.372575999999999,1008.26544,5.6555143304505275,1008.2374236573372,1,2
15.46,0.8449822,5.78313,8.917034,1008.28046,5.656564975196259,1008.2379737518976,1,2
15.48,0.8115538,5.8975267,9.541979,1008.2752,5.660505568147402,1008.2385938299448,1,2
15.5,0.10896803,5.3636713,9.759765,1008.2627,5.666757577343165,1008.2392285131192,1,2
15.52,0.3336491,5.0109449999999995,9.655610000000001,1008.28314,5.6745025626489065,1008.239947400525,1,2
15.54,0.80210006,4.820282,9.87813,1008.2651400000001,5.683823927319379,1008.2406733027948,1,2
15.56,0.83079404,4.6153197,9.338408,1008.2196,5.693317914882761,1008.2412388461504,1,2
15.58,0.3241651,3.9146351999999998,7.581948,1008.2499,5.6989589414392405,1008.241769740413,1,2
15.6,-0.015155565,4.143429,8.263705999999999,1008.2475,5.702641015695372,1008.242259467518,1,2
15.62,0.017416993000000002,4.3198133,8.509815,1008.2398699999999,5.705200742929852,1008.2426835883052,1,2
15.64,-0.23113911,4.4246774,8.481407,1008.2576,5.70681255557194,1008.2431120405147,1,2
15.66,0.07954178,4.596274,7.468244,1008.2448,5.7059195995743694,1008.2434966975412,1,2
15.68,0.48103893,4.3579464,9.158425999999999,1008.2247,5.705693571335519,1008.2437689123786,1,2
15.7,0.16078573,3.871757,8.997456,1008.2524400000001,5.705314909334513,1008.2440406573244,1,2
15.72,0.42844844,4.4532776,7.8896046,1008.2424,5.703292396669508,1008.244274864792,1,2
15.74,0.21335089,4.0147543,8.997455,1008.2601,5.701456362243725,1008.2445387809973,1,2
15.76,-0.059104275,4.1672839999999995,7.2978024,1008.23236,5.696776241337661,1008.2447281337444,1,2
15.78,-0.13081083,4.5247765,8.542950999999999,1008.2550699999999,5.6922273215888985,1008.2449326765504,1,2
15.8,-0.020881683999999998,4.4580445,9.111078,1008.2475,5.688798310832374,1008.2451226529383,1,2
15.82,0.22766176,5.2492933,7.7854443,1008.25995,5.68481081794304,1008.2453438945239,1,2
15.84,0.2228788,5.273126,7.780709700000001,1008.2526,5.680363549852965,1008.245565505569,1,2
15.86,-0.03523693,4.9347010000000004,9.186827000000001,1008.2272,5.67765953571809,1008.2456952052679,1,2
15.88,0.30411962,5.2159276,8.841215,1008.2373,5.676175737008183,1008.2457795851834,1,2
15.9,0.3662539,5.258826999999998,9.43775,1008.2576,5.676899008615202,1008.2458966967696,1,2
15.92,0.4044828,4.720206299999999,9.451952,1008.2778,5.679076333451293,1008.2461150284594,1,2
15.94,0.4666139,4.6010423,8.325161999999999,1008.2297,5.680349611926402,1008.2462488522374,1,2
15.96,0.5478674,4.5247779999999995,8.81754,1008.2626,5.6816559441543975,1008.2464259630597,1,2
15.98,0.5430812,3.7811953999999997,9.717075999999999,1008.2778,5.684057415224936,1008.2466954047154,1,2
16.0,0.6243347,3.7001633999999997,9.736013999999999,1008.2526,5.687403670633929,1008.2469547399054,1,2
16.02,0.91111666,3.866993,7.733361,1008.2550699999999,5.687956267535468,1008.2472131034157,1,2
16.04,1.1453207,4.133921,8.505068,1008.23975,5.6877665079847,1008.247414526241,1,2
16.06,0.9015412,4.2101855000000015,8.95957,1008.2297,5.687783692074367,1008.247528731155,1,2
16.08,0.7246821,4.4580464000000015,7.960610000000001,1008.25256,5.686346240851674,1008.2476477551847,1,2
16.1,1.0066841999999998,4.5724444,9.428275,1008.2853,5.686484757247403,1008.2478884728987,1,2
16.12,0.66731495,4.138687600000001,9.896980000000001,1008.25256,5.688475563309897,1008.2481179885684,1,2
16.14,0.46727976,4.1434364000000015,8.197395,1008.2273,5.688871607778513,1008.2482458438554,1,2
16.16,0.620255,4.438962999999998,7.9748800000000015,1008.2575699999999,5.687755593464893,1008.2483923837492,1,2
16.18,0.2665711,4.0624037,8.164258,1008.26526,5.685255381145297,1008.2485825898176,1,2
16.2,0.79237115,4.4770937,8.168994999999999,1008.2347,5.682010905627218,1008.2487006785764,1,2
16.22,0.7828331000000001,4.5914907,7.8517914000000015,1008.2475,5.6776638694978,1008.2488006993608,1,2
16.24,0.90234977,4.7058873,8.595096,1008.25494,5.673836317281609,1008.2489111792081,1,2
16.26,0.98840785,4.9728145999999995,8.547752000000001,1008.2802,5.670684859721447,1008.249121438956,1,2
16.28,0.8354648000000001,4.8774834,8.689786,1008.2828,5.6682703995530845,1008.2494284672892,1,2
16.3,0.69686127,4.7726182999999995,9.172696,1008.2499,5.667271311357932,1008.249701455042,1,2
16.32,0.6299764,4.882248400000001,9.518311,1008.2626,5.668259012452505,1008.2499891017824,1,2
16.34,0.98369265,5.034778599999999,10.058034,1008.25995,5.672193364509982,1008.2502791256757,1,2
16.36,0.6634673000000001,4.214930000000002,10.171661,1008.23224,5.678176003475483,1008.2504704499353,1,2
16.38,0.19028835,3.8860368999999997,8.055386,1008.25745,5.681614255903858,1008.2506646304312,1,2
16.4,0.58226454,3.876503,9.50885,1008.20416,5.6855757900295485,1008.250668791648,1,2
16.42,0.367195,3.8050040000000003,8.661392999999999,1008.2626,5.68828585478773,1008.2507154208494,1,2
16.44,0.26684067,3.9289339999999995,8.959662,1008.2423,5.6905443134962725,1008.2507263268964,1,2
16.46,0.3720287000000001,4.429421400000002,7.937034599999999,1008.2193599999999,5.6909616062410935,1008.2506230447027,1,2
16.48,0.57280207,4.0480967,8.969137,1008.2674,5.691330270824528,1008.2505921815956,1,2
16.5,0.8978503000000001,3.8955662,9.276875,1008.25745,5.692162980056177,1008.2505895991003,1,2
16.52,0.6063038000000001,3.6667712,8.869719,1008.2421,5.6923953227013016,1008.2505567546507,1,2
16.54,0.22394104,3.6143384,7.9465103,1008.2144,5.690258641237677,1008.2503975689784,1,2
16.56,0.969612,4.3197885000000005,8.183233,1008.2727,5.687223918679124,1008.25033720127,1,2
16.58,0.969612,4.3197885000000005,8.183233,1008.2421,5.683406612010304,1008.2502542064384,1,2
16.6,0.49644375,4.152958,7.9417815,1008.24475,5.678229275126813,1008.2501610570616,1,2
16.62,0.734697,4.5152345,8.505109,1008.25256,5.673285336038606,1008.2500873864667,1,2
16.64,0.5004777,4.224474,9.2910185,1008.2574,5.669731995065857,1008.2500486165384,1,2
16.66,1.1505177,4.786928700000002,8.656607000000001,1008.2877,5.66687994658925,1008.2501499044099,1,2
16.68,1.0310181,4.7011304,9.172656,1008.2674599999999,5.66548911970264,1008.2503017187172,1,2
16.7,0.9593166999999999,4.496169,9.579816000000001,1008.2372,5.665949839757659,1008.2503886956515,1,2
16.72,1.3273482,4.400837999999999,9.48986,1008.2348,5.667875863079659,1008.2504094291667,1,2
16.74,1.1504866000000002,3.9813814,8.888589,1008.25256,5.6695573177095415,1008.2504354913556,1,2
16.76,1.1839363999999999,3.4284606,9.551407000000001,1008.2370599999999,5.67186811095539,1008.2504103681372,1,2
16.78,1.0453132,3.3283633999999997,7.7902064,1008.21686,5.671232300518137,1008.2502673879357,1,2
16.8,1.1934828000000002,3.5190258,8.202099,1008.2269,5.668969719912712,1008.2500569280332,1,2
16.82,1.5185004,3.3903290999999998,9.011682,1008.2652,5.666821673137823,1008.2499254807224,1,2
16.84,1.8721926,3.9146507000000006,8.978539,1008.2347,5.665249823680668,1008.249754522148,1,2
16.86,2.0012383000000002,4.071947,8.519300999999999,1008.2575699999999,5.663527676389557,1008.2496315988718,1,2
16.88,1.8339409,3.7573545,9.201056,1008.237,5.662623164896567,1008.2494775101088,1,2
16.9,1.4133091999999998,3.280699,9.23893,1008.2548,5.662026619576904,1008.249360518242,1,2
16.92,1.4849974,3.2616332000000003,8.9595995,1008.242,5.661172868359435,1008.2492306463623,1,2
16.94,1.2555535,3.6238913999999998,8.585581,1008.2219,5.6595825699555276,1008.2490175012426,1,2
16.96,1.3463653,3.8050208,8.34886,1008.23956,5.6570771055160565,1008.2487951192104,1,2
16.98,0.88749087,3.6953905,8.632923,1008.2269,5.654102756416098,1008.2485198000177,1,2
17.0,0.6484962,3.6238918,8.817563999999997,1008.2446,5.650980040943898,1008.248262416699,1,2
17.02,0.53855187,3.5905266000000005,9.437771000000001,1008.2596,5.648894770893482,1008.2480758080984,1,2
17.04,0.36647004,3.5809934,9.717099000000001,1008.23425,5.648254098513715,1008.2478611478298,1,2
17.06,0.19916803,3.7954893,9.688692,1008.2295,5.648985878500086,1008.2476053738844,1,2
17.08,0.7201533,4.172047,9.395158,1008.2548,5.650714727478173,1008.24740527268,1,2
17.1,0.7201533,4.172047,9.395158,1008.2623,5.653318362761018,1008.2472820842739,1,2
17.12,0.07055883,3.5142512000000004,8.490928,1008.23956,5.654367445561888,1008.2471454354953,1,2
17.14,-0.07761003,3.614349,7.941738000000001,1008.24725,5.653075065059367,1008.2470250690668,1,2
17.16,0.38604617,3.4141529000000004,9.101668,1008.2368,5.651802581393848,1008.2468819030416,1,2
17.18,0.50077164,3.2663894,8.969106,1008.2674599999999,5.6501986960265365,1008.2468294826907,1,2
17.2,0.10884291,3.275922,10.020145,1008.26715,5.650353209927697,1008.2468563179314,1,2
17.22,0.10884291,3.275922,10.020145,1008.20636,5.6520608891724375,1008.2467342428051,1,2
17.24,-0.005857151999999999,4.0433373,8.367839,1008.23926,5.6525385745213015,1008.2465994699496,1,2
17.26,0.27616647,3.3903190000000003,10.020147999999999,1008.24695,5.654605318328656,1008.2464816465628,1,2
17.28,0.27139175,3.3569527000000003,9.276846,1008.21906,5.656587824009121,1008.2462788198904,1,2
17.3,0.099328965,3.4475172,8.9833145,1008.2317,5.657976129353296,1008.2460471184912,1,2
17.32,-0.04882973,3.3617184,8.860222,1008.23676,5.658530988070862,1008.245808953508,1,2
17.34,0.018097699,3.4999487,9.418882,1008.2241,5.6595352360361835,1008.2455203586965,1,2
17.36,0.05156138,3.6048129,9.177427999999999,1008.25214,5.660542195533265,1008.2452891870296,1,2
17.38,-0.2399965,3.3807845000000003,9.186897,1008.257,5.661406613406472,1008.2451270826714,1,2
17.4,-0.34992188,3.6286449999999997,9.773964999999999,1008.2418,5.663471184375969,1008.2449718697627,1,2
17.42,-0.40248957,3.3426513999999994,9.452026,1008.2167400000001,5.665761697939567,1008.2447330889056,1,2
17.44,-0.5171947,3.0757236,9.684013,1008.2519,5.668534849706543,1008.2445479030204,1,2
17.46,-0.7466151,3.437982,9.087479,1008.2193599999999,5.670832486503742,1008.2442935963213,1,2
17.48,-0.86610526,3.4951806000000003,8.931245,1008.23425,5.672462900439665,1008.244032733975,1,2
17.5,-0.70357656,3.7096753,9.082746499999999,1008.2519,5.673927054206216,1008.2438305581636,1,2
17.52,-0.5888512,3.1615207,9.196373,1008.262,5.675043934824398,1008.2437173256073,1,2
17.54,-0.42632768,3.0900228,9.70769,1008.232,5.676793743760581,1008.2435750909483,1,2
17.56,-0.29726788,3.1519873,9.31,1008.22925,5.678342150443503,1008.2433978420764,1,2
17.58,-0.053482695999999996,3.3188167,8.486215,1008.22424,5.678207763879758,1008.2431722567412,1,2
17.6,-0.19686669,3.1567534999999998,8.77975,1008.23425,5.677043851825656,1008.2429408094152,1,2
17.62,0.4819076,3.642941200000001,9.153771,1008.2545,5.67607960865996,1008.2427779156441,1,2
17.64,0.5966286,3.7096730000000004,9.499383,1008.23926,5.676026181589666,1008.2426213182113,1,2
17.66,0.47714493,3.9908996,8.500424,1008.22687,5.675088577515223,1008.242426243974,1,2
17.68,0.37200066,4.214926999999999,9.011742,1008.2546,5.6745222760139695,1008.2422977019,1,2
17.7,0.2620709,3.957533,9.8592,1008.252,5.6756815577664925,1008.2422190503964,1,2
17.72,0.09002080000000001,4.2482924,10.048579,1008.22925,5.6789496387174445,1008.2421028653464,1,2
17.74,0.027894763,4.405588,8.651931,1008.2442,5.6815730037072685,1008.2420077539208,1,2
17.76,0.3481473,4.6963487,8.429414,1008.23425,5.6835062745690195,1008.2418957855513,1,2
17.78,0.19042522,4.3674555,8.893386,1008.2594,5.6853509290625786,1008.241859865472,1,2
17.8,0.056602097999999997,3.8907998,8.438886,1008.247,5.685828345989419,1008.241846630974,1,2
17.82,0.20479314,4.29119,8.888655,1008.2594,5.686300624222096,1008.2418981291004,1,2
17.84,0.23825751,4.186326,9.17272,1008.2164,5.687209933390663,1008.2418518395798,1,2
17.86,0.40556774,4.343621700000001,8.580919999999999,1008.252,5.6875471237897886,1008.2418474715373,1,2
17.88,0.587206,4.5581164,8.850782,1008.22144,5.688098058476263,1008.2417701450368,1,2
17.9,0.42948386,4.500918,8.912331,1008.2518,5.688879052392679,1008.2417379268193,1,2
17.92,0.25264257,4.295955,8.827112,1008.2492699999999,5.689500143726495,1008.2417365742656,1,2
17.94,0.32434532,4.3722199999999996,8.386813,1008.2316,5.689236508305902,1008.2416988874817,1,2
17.96,0.16662891,4.5819483,9.092241,1008.2745,5.689687008546803,1008.2417836714444,1,2
17.98,-0.019766312,4.3531528,8.126425,1008.2265,5.6887634334425545,1008.241803565337,1,2
18.0,0.0853951,4.6868120000000015,8.003331,1008.2543,5.686745671950562,1008.2418661307448,1,2
18.02,0.07584122,4.7201777,8.074347,1008.2389999999999,5.683930594464357,1008.2419110954687,1,2
18.04,-0.63633245,4.2959538,8.060145,1008.2392,5.6800107198890615,1008.2419410663556,1,2
18.06,0.26228207,5.1205680000000005,8.798713000000003,1008.2239400000001,5.677265361581871,1008.2419027447916,1,2
18.08,-0.5454933000000001,4.5390477,8.419962,1008.25684,5.674315219892397,1008.2419226579767,1,2
18.1,-0.40687335,4.410350299999998,8.71823,1008.2214,5.671605723949707,1008.2418663716983,1,2
18.12,-0.23510109,4.5867205,8.599842,1008.2188,5.669057554468032,1008.2417335982046,1,2
18.14,-0.35937726,4.5533547,8.57617,1008.2543,5.666593019250237,1008.2416615185921,1,2
18.16,-0.1251688,4.815515,8.647186,1008.2392,5.664589096400932,1008.2415889675792,1,2
18.18,-0.23510489,4.710651,8.751342999999999,1008.2517,5.663088729403447,1008.2415612612216,1,2
18.2,-0.14428993,4.419891000000002,9.740833,1008.3023699999999,5.6636105694386885,1008.2417556913432,1,2
18.22,-0.76566577,5.1444077,7.2884116,1008.4186,5.6622929769007015,1008.2425641293097,1,2
18.24,-0.4693198,4.815515,8.348919,1008.2643400000001,5.660800718975617,1008.2433568582317,1,2
18.26,-0.56491655,4.195863,9.149033,1008.0341,5.660056514553148,1008.2433039888173,1,2
18.28,-0.4167444,4.858414,8.609309,1008.17065,5.659587742071956,1008.2429957190428,1,2
18.3,0.00865743,4.6677523,9.613004,1008.2112400000001,5.661010156490942,1008.2426090112816,1,2
18.32,-0.20643502,4.7297173,8.543028999999999,1008.1984,5.662187895400015,1008.2421081638637,1,2
18.34,-0.5314629,4.267361599999999,8.372589,1008.1984,5.662407953090756,1008.2415082656947,1,2
18.36,-0.5744818,4.0957656,8.595106,1008.26666,5.662042930196008,1008.2410687419164,1,2
18.38,-0.25901663,4.276895,9.442565,1008.2465,5.662889083601358,1008.2406999312348,1,2
18.4,-0.33071497,4.367458999999998,8.358386,1008.1933,5.662863647901151,1008.2402034103644,1,2
18.42,-0.13474363,4.5152225,8.561964999999999,1008.2211,5.662575464720367,1008.2396959122457,1,2
18.44,-0.2399012,4.1100655,8.855497999999997,1008.2313,5.66223330191848,1008.239217261624,1,2
18.46,-0.04393054,4.2816615,9.025936,1008.2211,5.6623109575934185,1008.2387291037927,1,2
18.48,-0.21122497,4.310261,8.514619999999999,1008.2287,5.661835764491293,1008.2382616627594,1,2
18.5,-0.04393307,4.3960586,8.907577,1008.2362699999999,5.661679433544892,1008.2378414618764,1,2
18.52,-0.0009154769999999999,4.4484910000000015,9.201108999999999,1008.24896,5.662401234468707,1008.2375101991137,0,0
18.54,-0.3163844,4.353159400000001,8.2779,1008.2161,5.662104784339821,1008.2371404186192,0,0
18.56,-0.0917349,4.4055915,8.808154,1008.2211,5.661929859956928,1008.2367559350675,0,0
18.58,-0.27814856,4.20063,8.803419,1008.206,5.661674427347058,1008.2363054840351,0,0
18.6,-0.029600007,4.310261,8.969123,1008.2208,5.661749672336612,1008.2358516457602,0,0
18.62,-0.033714928,4.334077400000001,8.718261,1008.2235,5.661670155455012,1008.235406168336,0,0
18.64,-0.071915306,4.30071,8.770342999999999,1008.2286,5.661520966295707,1008.2349880422777,0,0
18.66,-0.06711011,4.310243,8.846095,1008.20575,5.661460831613335,1008.2345133291403,0,0
18.68,-0.052758016,4.42464,8.983394,1008.2237,5.6618402904551015,1008.2340549446277,0,0
18.7,-0.15790105,4.3769735999999995,8.680392999999999,1008.2364,5.662001331478928,1008.2336583582712,0,0
18.72,-0.28213790000000005,4.329308,8.756146000000001,1008.2159,5.662071208881706,1008.2332440044768,0,0
18.74,-0.2629933,4.3197737,8.954995,1008.2211,5.6624217258266185,1008.2328341630482,0,0
18.76,-0.26776043,4.257808,8.651994,1008.20325,5.6623968849612725,1008.2323655241748,0,0
18.78,-0.028732162000000002,4.3865047,8.91239,1008.2133,5.662636544225602,1008.2318827989792,0,0
18.8,-0.11475596,4.229208,8.737217999999999,1008.2260000000001,5.6626397742756165,1008.23143508492,0,0
18.82,0.004777192,4.419869,8.576252,1008.20074,5.662310489189378,1008.2309289824716,0,0
18.84,-0.071674295,4.2482724,8.831911,1008.2183,5.662005787636574,1008.2304363260112,0,0
18.86,-0.047762584000000004,4.3293037000000005,8.988147999999997,1008.2108,5.662089244619379,1008.2299303239893,0,0
18.88,-0.023838209,4.3245363,8.798774,1008.2334599999999,5.6621569294493375,1008.2294959274363,0,0
18.9,0.00487867,4.4294,8.58573,1008.23096,5.661912922733142,1008.2291173653032,0,0
18.92,-0.20540734,4.253036499999999,8.694623,1008.23865,5.661436572838356,1008.2288171852877,0,0
18.94,-0.2531927,4.2292037,8.959750999999997,1008.2334599999999,5.661234071330727,1008.2285686603586,0,0
18.96,-0.018956922,4.3531327000000015,9.115989,1008.23865,5.6616714113651385,1008.228385356554,0,0
18.98,0.09100395,4.553328,8.599941000000001,1008.2334599999999,5.661902154132168,1008.2282416580288,0,0
19.0,0.12448795,4.4961286,8.822461,1008.2259,5.66230588310027,1008.2281062560428,0,0
19.02,-0.009321218000000001,4.3578978,8.898213,1008.2311,5.662871822521478,1008.2279973923263,0,0
19.04,0.07672794,4.41033,8.746713,1008.2487,5.663346180349808,1008.227975729734,0,0
19.06,-0.2769395,4.133868700000002,8.585747999999999,1008.23865,5.6631915226038405,1008.2279950160404,0,0
19.08,-0.15743174,4.2101326,8.509997,1008.2311,5.662404008883783,1008.228023235363,0,0
19.1,-0.08092947,4.2720975999999995,8.775127000000001,1008.23096,5.661609565502499,1008.2280587423093,0,0
19.12,-0.33423373,4.081435,8.789332,1008.25635,5.660679605034143,1008.2281919647743,0,0
19.14,-0.023902759,4.410336,8.831909,1008.2513,5.659997787588591,1008.2283928690716,0,0
19.16,-0.11948869999999999,4.3579035,8.718286,1008.23865,5.659279177802035,1008.2286073137798,0,0
19.18,-0.21029989999999998,4.2673388,8.708816,1008.23865,5.658432725056771,1008.2288329507944,0,0
19.2,-0.028657205,4.4246354000000006,8.666207,1008.2437,5.657538770761462,1008.2290858450377,0,0
19.22,-0.023857088999999998,4.3865023,9.073367999999999,1008.2334599999999,5.657328658170366,1008.2293250493487,0,0
19.24,-0.14812185,4.4103346,8.822446000000003,1008.2361,5.657279617186282,1008.2295608001006,0,0
19.26,-0.13377734,4.4579997,8.9597435,1008.2563,5.6576722080524515,1008.2298653705844,0,0
19.28,-0.3297392,4.2435045,8.789306,1008.2260000000001,5.657949007844138,1008.2301205737296,0,0
19.3,-0.27715120000000004,4.195839,8.765635000000001,1008.2235,5.6580318708729855,1008.2303222371637,0,0
19.32,-0.038145762,4.3293023,8.661480000000001,1008.2260000000001,5.657862454563831,1008.2304848669197,0,0
19.34,-0.10505796,4.3388352,8.420025,1008.2361,5.65703323373279,1008.230648781052,0,0
19.36,-0.02857095,4.24827,8.931341999999997,1008.2007,5.656491759308759,1008.2306857999667,0,0
19.38,-0.057239633,4.27687,8.628341,1008.2184,5.655666197041413,1008.2306742810003,0,0
19.4,-0.057229493,4.3817334,8.737233,1008.221,5.654892381879478,1008.2306292754301,0,0
19.42,-0.10023757,4.286402,8.997626,1008.2512,5.654566991894412,1008.2306635631163,0,0
19.44,-0.033310145,4.4675307,8.694625,1008.2386,5.654240610745206,1008.2307224308888,0,0
19.46,-0.061978824,4.4150987,8.90294,1008.2235,5.654252221852745,1008.2307484457012,0,0
19.48,-0.09064751,4.462764,8.770377,1008.2158,5.654361171726332,1008.2307176179852,0,0
19.5,0.014518328999999996,4.5294952,8.609408,1008.20575,5.654321484338041,1008.2306004951904,0,0
19.52,-0.061953432999999995,4.367432,8.633082,1008.2234,5.654040267737219,1008.2304710837063,0,0
19.54,-0.190998,4.2578015,8.84613,1008.23364,5.653846347498098,1008.2303681438176,0,0
19.56,-0.24834551,4.1910690000000015,8.8887415,1008.2159,5.653753223312341,1008.2302251008141,0,0
19.58,-0.17663829999999994,4.1863027000000015,8.855602000000003,1008.23865,5.6536797708171465,1008.2301290376532,0,0
19.6,-0.06191288,4.338832,8.538397999999999,1008.2234,5.653168626786692,1008.230019931709,0,0
19.62,0.028976507000000002,4.4055614,8.718311,1008.24115,5.652668504494272,1008.2299635939424,0,0
19.64,0.06244147200000001,4.381729,8.992907,1008.2158,5.652669477908253,1008.2298628249533,0,0
19.66,0.00510919,4.2959304000000005,8.936096000000003,1008.23096,5.6529288393375365,1008.2297777353052,0,0
19.68,-0.071361326,4.2625647,8.907691,1008.2184,5.6533328885810095,1008.2296615902447,0,0
19.7,-0.042669807000000004,4.3149962,8.628363,1008.23615,5.653389365283238,1008.2295823227445,0,0
19.72,-0.10957439999999999,4.2196646,9.073398,1008.2080000000001,5.6538866488131365,1008.2294345856194,0,0
19.74,-0.11912768,4.26733,8.694646,1008.2159,5.654104305267923,1008.2292553205873,0,0
19.76,0.019499369,4.3769602999999995,8.737257000000001,1008.221,5.654253192406162,1008.229067202851,0,0
19.78,-0.1716801,4.205364,8.964509,1008.20825,5.654613231272572,1008.2288260400888,0,0
19.8,0.014751256,4.367426999999998,8.685181,1008.2155,5.654780452744715,1008.2285649749278,0,0
19.82,0.048222583,4.3054614,9.078137,1008.2311,5.655454299196128,1008.228343423842,0,0
19.84,-0.14773673,4.2101293,8.803543,1008.23364,5.655974978678343,1008.2281667289765,0,0
19.86,-0.17162937,4.253029,8.983450999999997,1008.2259,5.656735168624536,1008.2280024411693,0,0
19.88,0.03869466,4.505656,8.126525,1008.2286,5.656355861646018,1008.2278594276744,0,0
19.9,0.014808344,4.367425,9.082875,1008.198,5.656605292313099,1008.2276255670108,0,0
19.92,-0.09511444,4.281626999999999,8.571562,1008.2184,5.656377541825161,1008.227385715687,0,0
19.94,-0.10465506,4.3054595,8.623642,1008.2384,5.655848146697315,1008.2272134344807,0,0
19.96,-0.0711837,4.415089599999999,8.566831,1008.2257699999999,5.655051271392884,1008.227056010443,0,0
19.98,-0.032932594,4.300692,8.879302000000003,1008.20557,5.65449517792563,1008.2268395609256,0,0
20.0,-0.013800723999999999,4.343591,8.921911999999997,1008.22064,5.654272362458463,1008.2266259877124,0,0
20.02,-0.11895006,4.2911589999999995,8.727802,1008.2182,5.653936030602599,1008.2264069408659,0,0
20.04,-0.008995524,4.419855,8.538428,1008.22845,5.653268186064912,1008.226220746085,0,0
20.06,-0.008995524,4.419855,8.538428,1008.23334,5.652309821161912,1008.2260818536907,0,0
20.08,0.01014271,4.3197575,9.01187,1008.2106,5.651886227532003,1008.225903393698,0,0
20.1,-0.06154166,4.3102236,8.718339,1008.24115,5.651379852327815,1008.2258005942308,0,0
20.12,0.028942611,4.3245309999999995,8.921887,1008.2004400000001,5.6511948942273245,1008.2256184624823,0,0
20.14,-0.08577461,4.286398999999999,8.784589,1008.1775,5.651004008245309,1008.2252843044048,0,0
20.16,-0.03319799,4.348364,8.879277,1008.2181,5.651041277434452,1008.2249631788312,0,0
20.18,-0.028418867,4.338831400000001,8.74198,1008.2434699999999,5.6510152678281536,1008.2247460568308,0,0
20.2,-0.04275954,4.348364,8.860339,1008.2004400000001,5.651162914721787,1008.2244667060263,0,0
20.22,0.014596228999999999,4.2911660000000005,8.689900999999999,1008.24097,5.651092971580972,1008.2242792835144,0,0
20.24,0.10541185,4.386497,8.789324,1008.2257699999999,5.651105370071536,1008.2241190435616,0,0
20.26,-0.11446039,4.319765,8.760917999999998,1008.24097,5.651076171048918,1008.224038118983,0,0
20.28,-0.047544405,4.3245316,8.599948,1008.20294,5.650714092614575,1008.2238906607968,0,0
20.3,-0.06188445,4.3245316,8.661494,1008.2106,5.6501737196893576,1008.2237125203644,0,0
20.32,-0.009307868,4.4627620000000014,8.552603,1008.2308,5.6494063980565725,1008.2235806304053,0,0
20.34,-0.1479241,4.3054657,9.097058,1008.1954,5.649311391097117,1008.2233626421678,0,0
20.36,-0.11924656,4.3483644,8.841401,1008.2182,5.64937018497397,1008.2231514422493,0,0
20.38,-0.20528364,4.2863994000000005,8.893479,1008.2231400000001,5.649608542150905,1008.2229647848094,0,0
20.4,-0.13358785,4.334065,8.524197000000001,1008.2384,5.6493582911962905,1008.22285542107,0,0
20.42,0.04804341,4.3674307,8.765651,1008.2359,5.649154967146249,1008.2228057477544,0,0
20.44,-0.09535257,4.3245316,8.581009,1008.2256,5.648611527306671,1008.2227719157204,0,0
20.46,-0.07623402,4.3245316,8.699368,1008.2131,5.647989143052242,1008.2227072028386,0,0
20.48,-0.0810157,4.4246300000000005,8.699368,1008.22833,5.647392788689796,1008.222670264606,0,0
20.5,-0.10013618,4.3292985,8.741978,1008.22833,5.646812221380233,1008.2226580010312,0,0
20.52,-0.08579806,4.338831400000001,8.794056,1008.2231400000001,5.6463532201586535,1008.2226489001328,0,0
20.54,-0.038000636000000004,4.391264,8.689899,1008.2308,5.645857662915798,1008.2226702025383,0,0
20.56,-0.028442325,4.305466,8.907681,1008.2004400000001,5.645658299605397,1008.222608996615,0,0
20.58,0.09105152,4.4818287,8.52893,1008.2230000000001,5.6451842291951655,1008.2225563226732,0,0
20.6,-0.076243535,4.338832,8.751447,1008.2157,5.64474564549901,1008.2224850972163,0,0
20.62,-0.0851677,4.396015,8.666285,1008.2004,5.6442352100134885,1008.2223426560527,0,0
20.64,-0.15206084,4.281617,8.841461,1008.2157,5.6438854168142365,1008.222192881479,0,0
20.66,-0.11857816,4.286382700000001,8.751509,1008.2432,5.643514129587497,1008.2221361662922,0,0
20.68,-0.11855405,4.3435809999999995,8.637885,1008.24097,5.642966504928412,1008.2221538545546,0,0
20.7,-0.032505482,4.4007797,8.813058,1008.2256,5.642642410672558,1008.2221818900267,0,0
20.72,-0.013350151000000001,4.3292804,8.832,1008.23834,5.642486288892199,1008.2222648313658,0,0
20.74,-0.00376645,4.4055447999999995,8.808330999999997,1008.2559,5.64250538434854,1008.2224592049402,0,0
20.76,0.015364826000000003,4.4246106,8.704174,1008.2257699999999,5.6425037950954495,1008.2226428722928,0,0
20.78,-0.0801951,4.2530136,8.92196,1008.2106,5.642733145106982,1008.2227618064253,0,0
20.8,-0.11362965,4.3245115,8.391709,1008.2157,5.6422449967996835,1008.2228414741212,0,0
20.82,-0.15662378,4.2148794999999994,8.912497,1008.21783,5.641995501226642,1008.2228938271907,0,0
20.84,-0.19485015,4.2291794000000005,8.893559,1008.2182,5.6419363678168,1008.2229231885852,0,0
20.86,-0.17569473,4.3245096,8.723124499999999,1008.2156,5.641812826964737,1008.2229227688343,0,0
20.88,-0.18523026,4.2863765,8.945644,1008.2255,5.642014142079008,1008.2229316759747,0,0
20.9,-0.08484236,4.3483415,8.964582,1008.2255,5.642590319084362,1008.2229487922904,0,0
20.92,-0.060919203,4.381707,8.63791,1008.2104,5.642917858066357,1008.2229187406148,0,0
20.94,-0.09435372,4.248241999999999,9.011931,1008.2283,5.643601516301265,1008.2229115594878,0,0
20.96,0.006058266,4.3531059999999995,8.637916,1008.2130000000001,5.643993179429217,1008.22286953263,0,0
20.98,-0.013048897,4.2673078,8.903042999999998,1008.2509,5.644541326022807,1008.2229333073807,0,0
21.0,-0.12775211,4.2053423,8.893576,1008.2279699999999,5.645154346158688,1008.223007790844,0,0
21.02,-0.022548245,4.329271299999999,8.623719,1008.2331,5.64542943257042,1008.2231099363852,0,0
21.04,-0.022548245,4.329271299999999,8.623719,1008.25085,5.6454049304324165,1008.223300056414,0,0
21.06,-0.02730397,4.2720720000000005,8.860441,1008.2407,5.6455048180836656,1008.2235306862692,0,0
21.08,0.006178773,4.4246016,8.571646000000001,1008.2457,5.6453186278269625,1008.2238142803379,0,0
21.1,-0.26145408,4.129073600000001,9.021417999999999,1008.2305,5.6454594750664535,1008.224088932648,0,0
21.12,-0.13716711,4.2244043,8.931464,1008.2128,5.645797682580539,1008.2242909752716,0,0
21.14,-0.04632678,4.314968599999999,8.8036375,1008.2102,5.6461495944622015,1008.224418772623,0,0
21.16,0.015846856,4.376933,8.865188999999997,1008.2203400000001,5.646683791546919,1008.2245170107813,0,0
21.18,-0.003248265,4.300668,8.836784,1008.22296,5.647254324014843,1008.224598208779,0,0
21.2,-0.03668281,4.348333,8.690021,1008.24316,5.647625348075911,1008.2247367777783,0,0
21.22,-0.046230357,4.314966,8.988289,1008.2430400000001,5.64834498059217,1008.2249251089461,0,0
21.24,-0.07487302,4.319732,8.704228,1008.2381,5.648844193670106,1008.2251389479736,0,0
21.26,-0.11787923,4.2911325,8.808386,1008.25824,5.649315765519067,1008.2254470599257,0,0
21.28,-0.023423137000000004,4.30546,8.846156,1008.21783,5.649843417786777,1008.2256918862303,0,0
21.3,-0.056887562999999995,4.3197602999999996,8.689921,1008.2226,5.6501407435876345,1008.2258970839633,0,0
21.32,-0.08557792,4.3054605000000015,8.737264,1008.18475,5.650308923816984,1008.2259302671775,0,0
21.34,-0.061696182999999995,4.324527,8.7562,1008.2330300000001,5.650414838234624,1008.225985146904,0,0
21.36,-0.061696182999999995,4.324527,8.7562,1008.2177,5.650465353289138,1008.2260038121013,0,0
21.38,-0.09039233599999999,4.2673287,8.907699000000003,1008.2583,5.650698349242322,1008.2261365709462,0,0
21.4,-0.018712606,4.3292947,8.784602,1008.2253,5.65091708955724,1008.2262508650059,0,0
21.42,-0.08086159,4.3054624000000015,8.604693,1008.22784,5.650766169920447,1008.2263575761234,0,0
21.44,-0.04262895,4.3006954,8.789336,1008.23285,5.650628224571763,1008.2264752387924,0,0
21.46,-0.03786065,4.324528,8.732522,1008.2202,5.65041813178883,1008.2265566146674,0,0
21.48,-0.07611065,4.338828599999999,8.623629,1008.2301,5.6499562879178775,1008.2266412745777,0,0
21.5,-0.16215868,4.171999,9.134944,1008.21765,5.650084125777662,1008.2266837114856,0,0
21.52,-0.023561662,4.334062599999998,8.472126,1008.2200300000001,5.6496362140746434,1008.2266972553764,0,0
21.54,-0.07615106599999999,4.3340629999999996,8.756189,1008.20746,5.6492091472426855,1008.2266399686388,0,0
21.56,-0.052263588,4.2625647,8.841407,1008.2252,5.6488956263112,1008.2265841661904,0,0
21.58,-0.052263588,4.2625647,8.841407,1008.2275400000001,5.648683563212724,1008.2265383001486,0,0
21.6,-0.09052510000000001,4.305464700000001,8.902952,1008.2529,5.648716447985319,1008.2265926750335,0,0
21.62,-0.033173222,4.3674297,9.002375,1008.2251,5.649207025733428,1008.226635347052,0,0
21.64,-0.13356641,4.319764599999999,8.618886999999999,1008.21265,5.6493433642053175,1008.2266227047978,0,0
21.66,-0.13356641,4.319764599999999,8.618886999999999,1008.2378,5.649166206034247,1008.2266517723648,0,0
21.68,-0.10489916,4.2959323,8.921886,1008.2251,5.649255321192938,1008.2266718700864,0,0
21.7,-0.10969628,4.267333,8.652023,1008.215,5.649049279142357,1008.2266476097012,0,0
21.72,-0.06668956599999999,4.2673335,9.007103,1008.2048300000001,5.649246809241082,1008.2265476298296,0,0
21.74,-0.1049338,4.319765599999998,8.704101,1008.1972,5.649281818691195,1008.2263536361478,0,0
21.76,0.03844874,4.43893,8.751444000000001,1008.2477,5.6493711045184245,1008.2262590702403,0,0
21.78,-0.0948912,4.329287,8.803567,1008.2376,5.649503915082566,1008.2262163391516,0,0
21.8,-0.109221764,4.314987,8.822506,1008.2225300000001,5.649697269671093,1008.2261653111408,0,0
21.82,-0.109212905,4.305454,8.803569,1008.22,5.649899364594157,1008.2260980276704,0,0
21.84,-0.06141039,4.310220200000002,8.865117,1008.23004,5.6502269127783835,1008.2260527670959,0,0
21.86,-0.09486016,4.396018499999999,8.44849,1008.18695,5.649971258142463,1008.225872004891,0,0
21.88,-0.09007146,4.3245190000000004,8.898259,1008.2274,5.649969480148133,1008.2257177841893,0,0
21.9,-0.16653499,4.2673206,8.727822,1008.2097,5.64982362709442,1008.2255238507539,0,0
21.92,-0.06137489,4.310219999999998,8.708884,1008.2097,5.649552469014406,1008.2252955253076,0,0
21.94,-0.06137046,4.334052,8.742025,1008.2249,5.649255277346404,1008.2250923530528,0,0
21.96,-0.032678317,4.3578844000000005,8.817778,1008.2325,5.649098947325308,1008.2249394975768,0,0
21.98,-0.07568768,4.4007835,8.6142,1008.2172,5.648730099879116,1008.2247765722867,0,0
22.0,-0.21906853,4.2339535,8.931405999999997,1008.2172,5.6486176182941925,1008.2246053358408,0,0
22.02,-0.13302757,4.305452,8.760966999999999,1008.2476,5.648474474066418,1008.224536812108,0,0
22.04,-0.013528014,4.419849,8.770436,1008.2273,5.6484264462180676,1008.224486212014,0,0
22.06,-0.16168864,4.324517299999999,8.78464,1008.2272300000001,5.648403473492451,1008.2244513794078,0,0
22.08,-0.113886155,4.338817,8.79411,1008.2299,5.648432116110327,1008.224440216351,0,0
22.1,-0.14254722,4.295917500000002,8.779909,1008.1994,5.648441237455971,1008.2243402078952,0,0
22.12,0.000855803,4.4055485999999995,8.751503,1008.2018,5.648479336144175,1008.2241706956752,0,0
22.14,0.04865826,4.4246144,8.789378,1008.22473,5.648631285149553,1008.2240229281732,0,0
22.16,-0.12818116,4.2816176,8.685224,1008.22455,5.648558498835612,1008.223894258267,0,0
22.18,-0.11861268,4.310216400000002,8.83199,1008.22455,5.648587175728464,1008.2237829262081,0,0
22.2,-0.18074568,4.248251,8.770442999999998,1008.2425,5.6485360364787605,1008.2237519346664,0,0
22.22,-0.07558111,4.314983,8.784647,1008.2119,5.648499020470487,1008.2236818835754,0,0
22.24,-0.04688897,4.362648,8.770445,1008.21185,5.6484916822488165,1008.2235773916507,0,0
22.26,-0.061223965,4.2911496,8.903008999999997,1008.2069,5.648692856365732,1008.2234250239757,0,0
22.28,-0.06947872,4.338783,8.8841915,1008.2194,5.649085689040444,1008.223275901812,0,0
22.3,-0.059889252999999996,4.3483157,8.813177,1008.20685,5.649522561213943,1008.2230850042216,0,0
22.32,-0.08369889,4.3483133,8.974155999999997,1008.20935,5.650297705753688,1008.2228668810956,0,0
22.34,-0.14580655,4.267281,8.865267999999997,1008.21686,5.651093430592238,1008.2226525227296,0,0
22.36,-0.15533634,4.3292459999999995,8.704301,1008.2193599999999,5.651660898439388,1008.2224512625952,0,0
22.38,-0.10747870000000001,4.3054120000000005,8.732713,1008.2372,5.652054226228612,1008.2223265245956,0,0
22.4,-0.10263925,4.338775599999999,8.860546000000003,1008.2448,5.652561190575062,1008.2222972106102,0,0
22.42,-0.10735945,4.310175,8.746926,1008.222,5.652928685857332,1008.2222702388146,0,0
22.44,-0.006894148,4.381671400000001,8.926842,1008.2297,5.653571543803422,1008.2222731536763,0,0
22.46,-0.13110943,4.2243733,8.7232685,1008.20166,5.653933632651472,1008.2222015218947,0,0
22.48,-0.054572973,4.314936,8.675929,1008.2144,5.654039409953258,1008.222110142574,0,0
22.5,-0.025834537999999997,4.324468,8.822701,1008.2192,5.6542003879740825,1008.2220189232927,0,0
22.52,-0.04492395,4.391198999999999,8.8700485,1008.232,5.654559273796687,1008.2219742538119,0,0
22.54,-0.06876331599999999,4.3244658,8.756428,1008.20905,5.654818861085758,1008.2218882565453,0,0
22.56,-0.06870369999999999,4.367363,8.789575,1008.2118,5.655091083055567,1008.2217759516368,0,0
22.58,-0.24071702,4.195766000000001,8.713828,1008.2393,5.655081065210125,1008.2217398055934,0,0
22.6,-0.08292393,4.248196599999999,8.855866,1008.2192,5.655129488844674,1008.2216987236496,0,0
22.62,-0.06852489,4.4150248,8.548136,1008.2015,5.654811128650326,1008.2215897082386,0,0
22.64,-0.11626333,4.314925,8.950565,1008.22424,5.654826249532177,1008.2215029232724,0,0
22.66,-0.15444216,4.2529593,8.945837,1008.2265,5.655072590480603,1008.221444229552,0,0
22.68,-0.15438254,4.27679,8.713856,1008.1962,5.655109779572728,1008.2213014885542,0,0
22.7,-0.058726814,4.3816533,8.709126,1008.20386,5.655048035702758,1008.22111257325,0,0
22.72,-0.13036427,4.281554,8.860634,1008.252,5.6550909454192375,1008.2210568424234,0,0
22.74,-0.13030465,4.348284,8.661795,1008.2265,5.654916733211168,1008.2210271940324,0,0
22.76,-0.15889406,4.276783999999998,8.884319,1008.2114,5.6549016385795685,1008.2209663388153,0,0
22.78,-0.15889406,4.276783999999998,8.884319,1008.22406,5.655027194579214,1008.220923704326,0,0
22.8,-0.074047044,4.37691,8.704303999999999,1008.2139,5.655030662722349,1008.2208607471556,0,0
22.82,-0.1218349,4.3101783,8.756382,1008.20386,5.654962365464398,1008.22074391551,0,0
22.84,-0.11703993,4.2768125999999995,8.704305999999999,1008.22156,5.654703057101325,1008.2206436209724,0,0
22.86,-0.11703993,4.2768125999999995,8.704305999999999,1008.2569,5.6542759048358775,1008.220685523683,0,0
22.88,-0.07878626,4.34831,8.803728999999997,1008.2164,5.653952217354134,1008.2207071210327,0,0
22.9,-0.14569339,4.2958775000000005,8.784792999999999,1008.2164,5.653639325064558,1008.2207106988158,0,0
22.92,-0.1791469,4.2863440000000015,8.6995735,1008.2669999999999,5.653170546592305,1008.2208805016287,0,0
22.94,-0.2030358,4.3101769999999995,8.770589999999999,1008.25183,5.652720969397023,1008.2211419575888,0,0
22.96,-0.17912154,4.31971,8.770592,1008.23145,5.652297754310707,1008.2214100890274,0,0
22.98,-0.16477703,4.31971,8.827406,1008.2593400000001,5.652004817741426,1008.2217835576461,0,0
23.0,-0.21255481,4.3197093,8.675906,1008.23413,5.6515476599708485,1008.2221580017099,0,0
23.02,-0.24600835,4.2625103,8.898424,1008.2442599999999,5.651311981163447,1008.2225684276787,0,0
23.04,-0.21253961,4.319709,8.832142999999997,1008.2492699999999,5.6511990468373225,1008.2230272057252,0,0
23.06,-0.174291,4.24821,8.813207,1008.2492,5.651093113081268,1008.2235268040663,0,0
23.08,-0.13126262,4.376907,8.71852,1008.2618,5.650933849547808,1008.224106032666,0,0
23.1,-0.1742707,4.243443,8.822678,1008.2417,5.65080136894593,1008.2246811773388,0,0
23.12,-0.12168781,4.281575,8.709050999999999,1008.2442,5.6505136627706385,1008.2252596429337,0,0
23.14,-0.14557672,4.362607,8.704317999999999,1008.2441,5.650156586403138,1008.2258386004183,0,0
23.16,-0.22203833,4.1767106,8.959978,1008.2414,5.650052634154488,1008.2264061882904,0,0
23.18,-0.22203833,4.1767106,8.959978,1008.2339999999999,5.650172716605349,1008.2269350466563,0,0
23.2,-0.23157759,4.2911077,8.576493,1008.2338,5.6498766392273625,1008.2274270597406,0,0
23.22,-0.16943,4.171942700000002,8.822683,1008.2541,5.649562946433617,1008.2279578250868,0,0
23.24,-0.18854417,4.219608999999998,8.742198,1008.25146,5.649127331843097,1008.2285114171764,0,0
23.26,-0.21243308,4.1671762,8.85109,1008.24896,5.648743947994008,1008.2290741860447,0,0
23.28,-0.17427857,4.171944600000002,8.619098,1008.25146,5.6479757202223935,1008.2296520375473,0,0
23.3,-0.12647422,4.243443,8.993115,1008.2666,5.647634067110156,1008.2302956397994,0,0
23.32,-0.15514673,4.195777400000001,8.780068,1008.2792400000001,5.647228964122263,1008.2310405264462,0,0
23.34,-0.19815543,4.1481113,8.874757,1008.2286,5.646906451525703,1008.2316899223924,0,0
23.36,-0.2077119,4.195777400000001,9.0262575,1008.26404,5.646985677617093,1008.2323801889296,0,0
23.38,-0.22682789,4.20531,9.25351,1008.2568,5.647857800501963,1008.2330780197617,0,0
23.4,-0.14078195,4.0384803,9.305589,1008.28937,5.649382322293977,1008.2338972742135,0,0
23.42,-0.07864135,4.090912,8.860555999999997,1008.2491,5.650676710769184,1008.2346758972604,0,0
23.44,-0.18378747,4.1290445,8.358709,1008.2666,5.650859107345773,1008.235478815354,0,0
23.46,-0.2554782,4.0575466,8.581226,1008.2694,5.650413411287737,1008.2363103900467,0,0
23.48,-0.20767385,4.133811,8.879495,1008.24115,5.650040336646452,1008.2370625920407,0,0
23.5,-0.21244414,4.2434416,8.96945,1008.2286,5.649998989004168,1008.2376967723917,0,0
23.52,-0.32715625,4.181476,8.884231,1008.2134,5.650042354034135,1008.2381696657687,0,0
23.54,-0.18853559,4.1433434,8.827419,1008.2361,5.650012298270696,1008.23858006356,0,0
23.56,-0.15507065,4.1814756,9.035733,1008.24365,5.650342123123408,1008.2389609428196,0,0
23.58,-0.19808254,4.191008999999998,9.02153,1008.23615,5.650971893420103,1008.2392873683392,0,0
23.6,-0.10247691,4.2434406,8.723264,1008.23865,5.651348354812452,1008.2395735034024,0,0
23.62,-0.10247691,4.2434406,8.723264,1008.2611699999999,5.651499637195907,1008.239904079732,0,0
23.64,-0.48007187,3.9908133,9.045204,1008.25366,5.651860767247968,1008.2402456982901,0,0
23.66,-0.42270792,4.057544999999998,8.533889,1008.2563,5.651492988438282,1008.2406053479336,0,0
23.68,-0.27930748,4.167175299999999,8.988392,1008.24854,5.6514229664247,1008.2409516991064,0,0
23.7,-0.25062227,4.0575447,8.595436999999999,1008.2334599999999,5.6507786299248135,1008.2412307648856,0,0
23.72,-0.11200483,4.200541,8.879501,1008.27405,5.650284408552036,1008.2415954966548,0,0
23.74,-0.27928847,4.300637999999998,8.529157000000001,1008.2638,5.649368776071119,1008.241997709858,0,0
23.76,-0.22670738,4.2434397000000015,8.685392,1008.2509,5.648319134497148,1008.2423851536888,0,0
23.78,-0.3752546,4.1290510000000005,9.333972,1008.2561599999999,5.648285811670752,1008.2427770885042,0,0
23.8,-0.44695613,4.048019999999998,9.083048,1008.22815,5.648612153138143,1008.2430707445886,0,0
23.82,-0.24143787,4.143351,8.65695,1008.2308,5.648519642894918,1008.2432860444244,0,0
23.84,-0.25578615,4.1242857000000015,8.491245,1008.2432,5.647730814066375,1008.2434759735993,0,0
23.86,-0.27968964,4.1528849999999995,8.619074000000001,1008.2434,5.646595909347592,1008.2436435215133,0,0
23.88,-0.30359748,4.162419,8.865262,1008.2436,5.645631180252932,1008.2437914101724,0,0
23.9,-0.46612418,4.10522,9.229811,1008.2509,5.645472587013785,1008.2439476755153,0,0
23.92,-0.4948074000000001,4.138586,8.865261,1008.2509,5.64536977700338,1008.2441107799403,0,0
23.94,-0.15067486,4.3197155,9.324496,1008.2637300000001,5.646317174004268,1008.2443255282024,0,0
23.96,-0.25105518,4.2863492999999995,9.348168,1008.3240400000001,5.648208851389327,1008.2448022518654,0,0
23.98,-0.46137992,4.1814857000000005,8.604865,1008.2887,5.649454644152192,1008.2453815167872,0,0
24.0,-0.46137992,4.1814857000000005,8.604865,1008.175,5.650125248408947,1008.2456399818117,0,0
24.02,-0.10768773,4.6438417,7.8520937,1008.2384,5.64933949699337,1008.2458422975726,0,0
24.04,-0.17938916,4.243451599999998,9.475994,1008.3067,5.649890930857153,1008.2462401515078,0,0
24.06,-1.3074361,4.224385,7.0425086,1008.2991300000001,5.6473225381582,1008.2467820986997,0,0
24.08,-0.1220493,4.7296404999999995,7.6863875,1008.107,5.643482504712192,1008.2467577476828,0,0
24.1,-0.9776476000000001,3.8764274,7.7147926999999985,1008.2052,5.637832875545496,1008.2465866232327,0,0
24.12,0.09779944,4.4150485999999995,10.299777,1008.2380400000001,5.63583712159188,1008.2464046498253,0,0
24.14,-0.43276763,4.1576543,8.368138,1008.2331,5.633226783054438,1008.2461959613828,0,0
24.16,-0.45667112,4.295885,8.084074000000001,1008.2482,5.6296918303339325,1008.2460187788139,0,0
24.18,-0.33718935,4.224386,8.78003,1008.22046,5.626564910841099,1008.2457702086926,0,0
24.2,-0.4375741,4.1004567000000005,8.685341000000001,1008.2305,5.6235298837042915,1008.245495599382,0,0
24.22,-0.4567022,4.1052230000000005,8.945734,1008.2303,5.621083132856074,1008.2451982504373,0,0
24.24,-0.21772091,4.329252200000001,8.903122,1008.2507300000001,5.619266814211104,1008.2449554272084,0,0
24.26,-0.23684894,4.1576557,9.196655,1008.2125,5.618415815897255,1008.2446240290652,0,0
24.28,-0.22251846,4.1576557,8.723214,1008.2479,5.617527821657231,1008.2443429991612,0,0
24.3,-0.25598595,4.2768207,8.585916000000001,1008.2556,5.616464076539562,1008.2441352063413,0,0
24.32,-0.3659303,4.2053223,8.53857,1008.2609,5.61510224249606,1008.2440119538624,0,0
24.34,-0.35637513,4.2100887,8.505429,1008.2152,5.613423829011367,1008.2437993249383,0,0
24.36,-0.41852146,4.176723,8.865243,1008.24286,5.612119681049106,1008.2436080644513,0,0
24.38,-0.41375053,4.2053227,8.855773,1008.2481,5.611158125417856,1008.2434552376527,0,0
24.4,-0.31338352,4.3292537000000015,9.139837,1008.2658,5.611138537078223,1008.2434006410381,0,0
24.42,-0.4854698,4.2005568,8.988335000000003,1008.2354,5.6115671143349815,1008.2433235971615,0,0
24.44,-0.33730036,4.205323,9.319742999999999,1008.26324,5.613007146676887,1008.2433272202428,0,0
24.46,-0.45680429999999994,4.105226,9.012006,1008.24054,5.614677589948812,1008.2433203876042,0,0
24.48,-0.19870377,4.2291565,8.917317,1008.2655599999999,5.6164579952059634,1008.2433944128894,0,0
24.5,-0.012300311000000001,4.2529900000000005,8.604844,1008.2582,5.617762043208994,1008.2435131217453,0,0
24.52,-0.2990974,3.981296,8.803689,1008.2708,5.6187822183518215,1008.2437162456515,0,0
24.54,0.07849821400000001,4.0909266,9.021471,1008.2507,5.62004525775575,1008.243920867451,0,0
24.56,0.05154607,4.281547,8.249921,1008.24054,5.620248240449518,1008.2440895001503,0,0
24.58,0.13283889,4.3816440000000005,8.562394,1008.2532,5.620188053650067,1008.2442713018029,0,0
24.6,0.17111345,4.262478400000001,9.121058,1008.2481,5.620830935366106,1008.2444457250563,0,0
24.62,0.25242436,4.3196764000000005,8.638152999999999,1008.22284,5.62124466063362,1008.2445220648332,0,0
24.64,0.25242436,4.3196764000000005,8.638152999999999,1008.2532,5.621454413852253,1008.2446207592262,0,0
24.66,-0.05342891,4.0527477,8.671299000000001,1008.24054,5.621297094917642,1008.2446932748593,0,0
24.68,-0.25416258,4.047981,8.837006,1008.2529,5.621131009924222,1008.2447868938824,0,0
24.7,0.16651435,4.5627675000000005,9.395669,1008.2379,5.622460411072125,1008.2448448228336,0,0
24.72,-0.053320475,4.2815400000000015,8.765998,1008.25543,5.623671423367496,1008.2449341154927,0,0
24.74,-0.000706485,4.105176,8.794408,1008.26074,5.624668476135817,1008.2450699156706,0,0
24.76,0.1522653,4.1051755,8.813346000000003,1008.2708,5.6255110366258965,1008.2452825370112,0,0
24.78,-0.20616576,3.766749,8.704461,1008.2302,5.6257215358774815,1008.2454161120944,0,0
24.8,-0.06753339,3.8906791,8.680789,1008.2708,5.6254274300856215,1008.2456255210348,0,0
24.82,0.042456325,4.1290054,8.737608999999999,1008.2759,5.625002632225666,1008.2459195428984,0,0
24.84,0.17630892,4.233869599999999,8.784953,1008.2784,5.624649686777046,1008.2462962702627,0,0
24.86,0.29584014,4.219568700000001,9.158975,1008.2202,5.6250577698438455,1008.2465351999887,0,0
24.88,0.22417924,4.109937,8.766022999999999,1008.2658,5.625296511865868,1008.2468156715753,0,0
24.9,0.11429795599999999,3.8001093999999997,9.092702000000001,1008.26324,5.625740694776974,1008.2471226238507,0,0
24.92,0.53975475,4.03367,9.078503999999999,1008.25543,5.626558955900822,1008.247423753436,0,0
24.94,0.12872772,3.8668392,9.135319,1008.2428,5.627646438239165,1008.2476731860248,0,0
24.96,0.16220443,4.052734399999999,8.2263155,1008.2253,5.627411188094226,1008.2478130411909,0,0
24.98,0.0045070679999999995,4.1909637,8.534055,1008.2582,5.626705798157421,1008.2479740102672,0,0
25.0,-0.06237406700000001,4.515089,8.91281,1008.2456,5.6265931125059065,1008.248107696106,0,0
25.02,-0.33956656,4.395924,9.2063465,1008.2557,5.627454025704527,1008.2482531532072,0,0
25.04,-0.5689791000000001,4.2719927,9.021707000000001,1008.2253,5.628736851216601,1008.2482990477504,0,0
25.06,-0.34054774,4.1242540000000005,9.007411,1008.2529,5.630209777584064,1008.2483561635968,0,0
25.08,-0.45048577,4.0575230000000015,8.533971000000001,1008.2504,5.630905124430258,1008.2484139889696,0,0
25.1,-0.17326218,4.267251,8.770691000000001,1008.24036,5.631524134902681,1008.2484360891087,0,0
25.12,-0.53653234,3.9717247,8.633393,1008.24036,5.6315810102142585,1008.2484265428708,0,0
25.14,-0.43138173,3.9812582,9.367225,1008.2532,5.632531512693375,1008.2484352922608,0,0
25.16,-0.21151584,4.133788,8.922191,1008.2532,5.63353711129554,1008.2484601761696,0,0
25.18,-0.17806229999999998,4.143321,8.174154,1008.2658,5.633196103838268,1008.2485445869572,0,0
25.2,-0.24976695,4.095656,8.841705000000003,1008.24536,5.632874951117607,1008.2486077078161,0,0
25.22,-0.07291929999999999,4.4197817000000015,8.448749000000001,1008.2428,5.6321314925549055,1008.2486425736588,0,0
25.24,-0.11594007,4.2052865,8.979001,1008.24054,5.631808213832858,1008.2486442118524,0,0
25.26,-0.06814963,4.21482,8.955328999999997,1008.2556,5.631820332750237,1008.2486707001974,0,0
25.28,-0.049032953,4.2767854000000005,8.396668,1008.2481,5.631142311024893,1008.2486920507783,0,0
25.3,-0.26412925,4.0479910000000014,8.988469,1008.2683,5.630767777072716,1008.248781504769,0,0
25.32,0.017874137,4.310151599999998,9.087891,1008.2456,5.631071661521541,1008.2488490928979,0,0
25.34,-0.111185655,4.129022,8.89378,1008.2734,5.631450008430579,1008.248997197034,0,0
