Timestamp,Ax,Ay,Az,P,LPFRMSAcc,LPFPValue,Value,Type
0.0,1.3989829,6.442857,7.7648625,991.9487,0.02117182099400195,3.57101532,0,0
0.02,0.5528764,5.866105,7.897419,991.96643,0.06028257170690157,10.2845879496,0,0
0.04,0.5528764,5.866105,7.897419,991.96136,0.11510336201685273,19.750737104496,0,0
0.06,0.7057693,5.9757370000000005,8.200416,991.951,0.18426919034887967,31.61494744418592,0,0
0.08,0.3424636,5.7278769999999986,7.930550599999999,991.954,0.2650662673912259,45.55538428953686,0,0
0.1,0.28984517,5.7755446,7.835858999999999,991.9839,0.3557457628971389,61.280296942646615,0,0
0.12,0.44753808,5.86611,8.266686,991.9889,0.4556783973771301,78.52538073394086,0,0
0.14,0.47141683,5.9280753,8.295091000000001,991.96106,0.5635522635274829,97.05150521728628,0,0
0.16,0.38531953,5.8470454000000025,7.8121753,991.9639,0.6771381941256691,116.64287343198805,0,0
0.18,0.31358176,6.013876,7.760092999999999,991.99176,0.7954809802272679,137.10506237814337,0,0
0.2,0.19884624,6.0281763,7.5991216,991.93896,0.9173497658927476,158.2628545624049,0,0
0.22,0.20834495,6.271272,8.271401,991.9943,1.0433093888303866,179.95931293999374,0,0
0.24,0.2048304,6.180676,8.318861,991.9842,1.1723959426359252,202.05359315584724,0,0
0.26,-0.23967424,5.7898182999999985,7.518747999999999,991.9513,1.3019663651726188,224.41973089921441,0,0
0.28,0.16662054,6.0710444,7.996924000000001,991.94885,1.432639034219317,246.94555503801632,0,0
0.30000000000000004,0.11405410000000002,6.1902089999999985,7.7744083,991.9666,1.5636006191806224,269.5314490089249,0,0
0.32,0.0949406,5.999546,7.9827228,991.9639,1.6944455773996667,292.08910174518763,0,0
0.34,0.013689622,5.9614134000000005,7.8880353,991.99426,1.8245106545114889,314.54070227266664,0,0
0.36000000000000004,0.07583852,6.009079,7.864364,991.9717,1.9534397478916128,336.81768809056547,0,0
0.38,0.07107009,6.0710435,7.518753500000001,991.94885,2.0804155067350503,358.8601049421348,0,0
0.4,0.10454585,6.0472107,7.722335,992.0069,2.205509167571112,380.6161129343899,0,0
0.42,-0.0053782165000000005,5.899447,7.9921966,991.9488,2.3287489339271152,402.0405192697826,0,0
0.44,0.09022927,6.0710425,7.708133,991.97144,2.449654554733361,423.09487602236436,0,0
0.46,0.08067538,6.109175,7.514023299999999,991.9513,2.567796810087045,443.74638877526513,0,0
0.48,0.114151135,6.152074,7.8549023,991.9641,2.6836821272756004,463.9676492041372,0,0
0.5,0.12371646,6.2807703,7.6229167,991.95654,2.7969478972054254,483.73591492595375,0,0
0.52,-0.03877975,6.12824,7.660793300000001,991.97925,2.9073511198632973,503.0328305240174,0,0
0.54,0.0042441934,6.1234730000000015,7.670263,991.94403,3.0148365770955463,521.84366546458,0,0
0.56,0.31494856,6.1902050000000015,7.2157617,991.949,3.1187283903859955,540.1572984223886,0,0
0.5800000000000001,0.43922913,6.3665676,7.433545,991.9437,3.219662720381593,557.9656555495877,0,0
0.6,0.17157157,6.361800700000001,6.5245404,991.97406,3.316201351706382,575.2635501632022,0,0
0.62,-0.23469463,5.6944823,7.88805,991.9692,3.409791259328924,592.0481101832047,0,0
0.64,-0.13431306,5.9137435,7.954332400000001,991.9742,3.50081523259521,608.3186813402191,0,0
0.66,-0.014812231,6.1425385000000015,7.5850490000000015,991.96686,3.588927537527286,624.0764914577322,0,0
0.68,-0.2872382,5.770746,8.356758000000001,991.9466,3.674979962280039,639.324424868319,0,0
0.7000000000000001,-0.2872382,5.770746,8.356758000000001,991.9843,3.758902488177232,654.0670743803877,0,0
0.72,-0.21074425,5.7993455,8.441980000000001,991.9516,3.8408165746762446,668.3100637814822,0,0
0.74,-0.15338086,5.761213,8.541404,991.95667,3.9207852088987405,682.0602969986758,0,0
0.76,-0.18844599,5.823217,8.314005,991.96924,3.998431709124824,695.3256752641928,0,0
0.78,0.18432672,6.2379089999999975,8.190906,991.9843,4.0740485444730465,708.1149345486529,0,0
0.8,0.002642244,6.0996804,8.219308,991.9717,4.147470856278743,720.4374084080263,0,0
0.8200000000000001,-0.39415938,6.2045464999999975,7.7790003,991.9716,4.218113526679845,732.3030693998998,0,0
0.84,-0.4467892,5.9376206,8.034654,991.9741,4.2861338952775565,743.7223831624796,0,0
0.86,-0.5902353,5.0510416,9.256125,991.9996,4.352757485999529,754.7062867837102,0,0
0.88,-0.41343457,5.3322699999999985,9.114089,991.96924,4.417920161788574,765.2658106550083,0,0
0.9,-0.30833083,6.0281887,7.253462299999999,991.9641,4.479206710478075,775.4123197893291,0,0
0.92,-0.24624532,6.309417,7.442833999999999,991.9541,4.537520944505681,785.1573256691735,0,0
0.94,-0.3657924,6.309418,7.561189,991.9666,4.593194832951953,794.5125262521948,0,0
0.96,-0.41361642,6.0281916,7.7884383,991.95917,4.646341170161188,803.4895894048448,0,0
0.98,-0.5475029,5.4085410000000005,8.683236,991.9618,4.697867328412894,812.1002223646684,0,0
1.0,-0.35158285,5.522939,7.887850999999999,991.98193,4.7465107241418565,820.3561517954561,0,0
1.02,-0.060066782,5.6421046,8.119833,991.97675,4.7929560017779815,828.2689251940366,0,0
1.04,0.0068244636,5.6754713,8.025142,991.95917,4.837170095612243,835.8499366503235,0,0
1.06,-0.012346685,5.627807,7.911511999999999,991.9744,4.879003602573608,843.1105664411575,0,0
1.08,-0.20359083,5.6087418,7.977788,991.95667,4.918677012862752,850.0619048971503,0,0
1.1,-0.10326688,5.8899703,7.3528423,991.9516,4.955607646188282,856.7149104592357,0,0
1.12,-0.09853904,5.4895806,8.612188,991.9845,4.991627666834804,863.0804766962411,0,0
1.14,0.24555488,5.370418,8.422808,991.97186,5.0262536325054885,869.1691000031527,0,0
1.16,0.8381985999999999,5.584914,8.247630000000001,991.977,5.0595306301314675,874.9911159971284,0,0
1.18,0.36014032,5.5181847,7.367024000000002,991.95667,5.089865773171868,880.5565253238158,0,0
1.2,0.29795086,5.9328765999999975,7.352816000000002,991.9868,5.117993255073936,885.8752699937107,0,0
1.22,-0.3091362,5.670717,7.556390299999999,991.977,5.1440687807715415,890.9568790120528,0,0
1.24,-0.39041877,5.7612824,7.66528,991.98444,5.168537339574501,895.8106879602162,0,0
1.26,-0.010764778,5.8327303,8.588676,991.97186,5.19312963452671,900.4456937661571,0,0
1.28,-0.0011594445,5.3036413,8.939026,991.97943,5.217767599203133,904.8707063467276,0,0
1.3,0.089672044,5.4752374,8.768589,991.9619,5.242240888495509,909.0941757600721,0,0
1.32,0.27611488,6.0233903,8.138916,991.9619,5.2660464363822825,913.1243571409668,0,0
1.34,0.4864567,6.1044207,7.6796820000000015,991.9341,5.288538574632856,916.9691404834176,0,0
1.36,0.3956557,5.937591,7.424025,991.9645,5.309149620888184,920.6363743390672,0,0
1.38,0.13759197,5.4514008,7.935345,991.9468,5.328260890419664,924.1334597062984,0,0
1.4,0.20452447,5.532432,7.764908,991.97186,5.3457869592317175,927.4677025778412,0,0
1.42,0.39096737,5.5848637000000005,8.224147,991.9491,5.362706512939002,930.6459726098559,0,0
1.44,0.3193159,5.7612247000000005,7.192051400000001,991.9596,5.3775155231332805,933.6750210687493,0,0
1.46,0.18074732,5.789823,8.162609,991.9747,5.392045317777629,936.5613671311796,0,0
1.48,-0.23984498,5.5276623,7.551873700000002,991.96936,5.4049306252139235,939.3112112862706,0,0
1.5,-0.373649,5.665891,8.470350999999999,991.9619,5.418053415335977,941.9305160610784,0,0
1.52,-0.29237708,5.7659883,8.749682,991.9545,5.431931805556432,944.4250201022792,0,0
1.54,-0.03901702,5.727855,9.213657,991.9646,5.447189069475951,946.8003063607156,0,0
1.56,0.17134003,5.365596,9.317818,991.9596,5.463411522140068,949.0616827557714,0,0
1.58,0.10923307,5.584857,7.7270603000000015,991.9545,5.47789484892251,951.214249080522,0,0
1.6,0.23352323,5.6944876,7.4098570000000015,991.9545,5.490401637070047,953.2629215883817,0,0
1.62,-0.13449122,5.3083954,8.16263,991.9545,5.501926925583042,955.2124182986084,0,0
1.64,-0.40690958,5.0319347,7.580301299999999,991.95215,5.511233357225732,957.0672566258896,0,0
1.66,0.21927516,5.4752235,8.266792,991.9496,5.520230180581119,958.8317682080223,0,0
1.68,0.24318947,5.3798914,8.664484,991.9572,5.529510879402281,960.5101421964456,0,0
1.7,0.15240364,5.294093,8.181578,991.9596,5.538062210175252,962.1063715007094,0,0
1.72,0.3388465,5.4227896,8.22419,991.9469,5.546168354331868,963.6242256165544,0,0
1.74,0.34794545,5.4656997,8.067912,991.957,5.5536322516094625,965.0673995010952,0,0
1.76,0.3718496,5.4895325,7.6465507,991.95215,5.559814103017406,966.4393730472716,0,0
1.78,0.27148384,5.3417687,8.399322,991.98505,5.5659578530902,967.7436133097027,0,0
1.8,0.3001728,5.4180335999999985,7.940086,991.9572,5.571337956330661,968.9832089176724,0,0
1.82,0.24760513,5.394201,8.583965,991.9772,5.5771130084260845,970.1612939647704,0,0
1.84,0.118565604,5.4275655999999985,8.015838,991.9671,5.582260293166997,971.280750814113,0,0
1.86,0.16636874,5.489531,7.845401,991.9597,5.586617068365689,972.3443471032616,0,0
1.88,0.4914106,5.665893,8.555562,991.9775,5.591707625068813,973.3548201347812,0,0
1.9,0.52965915,5.4609313,8.389859,991.9646,5.596911175127755,974.3146693129468,0,0
1.92,0.5392239000000001,5.484763,8.176811,991.95465,5.6018552551218495,975.2262959772473,0,0
1.94,0.3815056,5.484763,8.39933,991.9471,5.606922358257163,976.0920041923055,0,0
1.96,0.2811398,5.5419617,8.172080000000001,991.9243,5.611745808222983,976.913940236038,0,0
1.98,0.13297604,5.499063,8.12947,991.95984,5.616206828730552,977.6943681634308,0,0
2.0,0.02304563,5.499063,8.347254,991.9648,5.620706211088336,978.4353278346864,0,0
2.02,-0.19203538,5.2702675,8.366192,991.9498,5.625002636350728,979.1386919000032,0,0
2.04,-0.07253015,5.422797,8.063189999999999,991.922,5.628746094809703,979.8062042972767,0,0
2.06,0.1234469,5.6468253,8.233630999999999,991.96246,5.63254317135492,980.4397807720378,0,0
2.08,-0.04861083,5.251200700000001,8.522428999999999,991.9599,5.636427458852771,981.0410813743573,0,0
2.1,0.099573225,5.346531400000001,8.143678999999999,991.9574,5.639817723939314,981.6116893336192,0,0
2.12,0.24297245,5.4418625999999986,8.134211,991.9624,5.642857534790148,982.1531410848218,0,0
2.14,0.24298261,5.336998,8.546105,991.92957,5.646177234345716,982.666762996279,0,0
2.16,0.15696129999999994,5.422796,8.262042,991.96515,5.649327710646798,983.154073510456,0,0
2.18,0.17130582,5.494293700000001,8.328324,991.9599,5.652514556806137,983.6163620561454,0,0
2.2,-0.015096396000000003,5.2511997,8.323591,991.95233,5.655436825671631,984.054849699714,0,0
2.22,0.21913429,5.389429,8.347264,991.94995,5.6583158403857015,984.4707197426525,0,0
2.24,0.19069035,5.1892276,8.494052,991.95233,5.6611820635180425,984.8651163095192,0,0
2.26,0.19069035,5.1892276,8.494052,991.95233,5.664026665605488,985.2391190852887,0,0
2.28,0.31498432,5.2464255999999985,7.963800999999999,991.9474,5.665981959821013,985.5937377492512,0,0
2.3,0.5205444,5.4037213,8.181586,991.9652,5.66772018794634,985.9300160648314,0,0
2.32,0.50143474,5.3703556,8.290479,991.955,5.669409543843362,986.2488415266446,0,0
2.34,0.63051796,5.613449,8.058494999999999,991.95764,5.670946774650407,986.5511073792067,0,0
2.36,0.62097734,5.675414,8.361499,991.935,5.672933565194176,986.8375714999656,0,0
2.38,0.5110515,5.5991483,8.134248,991.935,5.674818888642237,987.1090419396679,0,0
2.4,0.5062906,5.794576599999999,8.143719,991.96277,5.676855979345603,987.3663866412063,0,0
2.42,0.042678192,5.5800815,8.839678999999997,991.9299,5.679946800271321,987.6102050675777,0,0
2.44,0.08092615,5.646813,8.806539,991.9326,5.6839743764481785,987.8412036508755,0,0
2.46,-0.21540268,5.446617,8.707118,991.9808,5.688421995537023,988.0602165459347,0,0
2.48,-0.4734931,5.0795918,8.224211,991.9377,5.691988981987543,988.2676952804436,0,0
2.5,-0.12453884,5.6515775,7.585068,991.94775,5.694311576428188,988.464271687246,0,0
2.52,0.03799352,5.870839,8.072714,991.9452,5.696611140678869,988.6504979422224,0,0
2.54,0.05234247400000002,5.82794,8.11059,991.9301,5.698893774807812,988.8268540285277,0,0
2.56,0.39172757,5.7421412000000025,8.318906,991.9655,5.701420031707952,988.9939813918843,0,0
2.58,0.34872836,5.532412,7.693966,991.938,5.702837057923928,989.1522535971353,0,0
2.6,0.32963765,6.0567327,6.756557000000001,991.9149,5.702431049399978,989.3020484447457,0,0
2.62,0.19582220000000009,5.6706414,7.925956200000001,991.98096,5.701803511576048,989.4440512536928,0,0
2.64,0.200621,5.494278,8.465679,991.9506,5.7017031523660275,989.5785485111653,0,0
2.66,0.4635293,6.0328984000000005,8.191087,991.9683,5.702254448510032,989.705993393228,0,0
2.68,0.29146582,6.1186967,8.342587,991.9431,5.703725494607375,989.8266572748028,0,0
2.7,-0.023982212000000003,5.966166,8.233699,991.96826,5.705625821841832,989.9409856503728,0,0
2.72,-0.07177071,5.6039075999999985,8.513029,991.9102,5.707948752569921,990.0490953746856,0,0
2.74,-0.09087089,5.4418440000000015,8.0822,991.9482,5.709705025767075,990.1514579037394,0,0
2.76,0.2238094,5.704024,8.082127999999999,991.9356,5.711267855432862,990.2483283459576,0,0
2.78,0.2190169,5.7516904,7.637092599999999,991.9229,5.711964977986523,990.339951526656,0,0
2.8,0.21901058,5.7802896,7.750717999999999,991.91284,5.712119225832643,990.4265721676256,0,0
2.82,0.2572363,5.9661856,7.8548737000000015,991.9482,5.712200369094976,990.5085880261826,0,0
2.84,0.056471884000000014,5.713558,8.22889,991.9532,5.712530400384392,990.5862578419092,0,0
2.86,-0.1012743,5.746925,8.181545,991.93567,5.713038926568058,990.6597447748544,0,0
2.88,-0.10606682,5.8136563,8.167341,991.93317,5.713759413502912,990.7292621596156,0,0
2.9,-0.024829157,5.8184233,7.864337400000001,991.94324,5.714159594742414,990.7950580410156,0,0
2.92,-0.0917591,5.870856,7.9164147,991.951,5.714427980368165,990.8573566728733,0,0
2.94,-0.077438705,5.8851559999999985,7.613411,991.93835,5.7140945343070975,990.9162953199602,0,0
2.96,-0.12524313,5.8184239999999985,7.8880057,991.946,5.713603420080111,990.9720804453744,0,0
2.98,-0.12524313,5.8184239999999985,7.8880057,991.9585,5.712974758272938,991.0249232925868,0,0
3.0,-0.16828036,5.7612267,7.679690400000001,991.94354,5.711809869168923,991.0749222525308,0,0
3.02,-0.08703639999999999,5.808892299999999,8.115254,991.9613,5.710961905368878,991.1222922934278,0,0
3.04,0.09936328,5.970956,8.039503,991.9535,5.7104685088247065,991.1671408093083,0,0
3.06,0.018093958,5.9089904,8.14366,991.936,5.710387489417081,991.2095368510268,0,0
3.08,0.0037418157,5.837493,7.7933119999999985,991.95374,5.709996787698118,991.2496771248253,0,0
3.1,0.13755731,6.0662875,7.892732,991.9613,5.709787902615839,991.2877069131044,0,0
3.12,0.07063374,5.9804893,8.162592,991.94104,5.71008055417635,991.3236620331407,0,0
3.14,-0.22573313,5.8279605000000005,7.722291499999999,991.95636,5.709896712415231,991.3577096898856,0,0
3.16,-0.21617985,5.813661,7.992151299999999,991.94354,5.709724926977568,991.3899031885015,0,0
3.18,-0.311795,5.832728,7.7175546000000015,991.96655,5.70913507247846,991.4204252924001,0,0
3.2,-0.34526628,5.9328255999999975,7.840648,991.95404,5.708509644588294,991.4493156363519,0,0
3.22,-0.29269478,5.89946,7.959007700000001,991.97644,5.7080067614176215,991.4767407919774,0,0
3.24,-0.20667735,5.751697,7.883255,991.94135,5.707300736055008,991.5026462526364,0,0
3.26,-0.20667735,5.751697,7.883255,991.95905,5.7064177559429,991.5271793711656,0,0
3.28,-0.0011648238,5.851795,7.973207,991.94147,5.705650790820744,991.5503482809617,0,0
3.3,0.12310372,5.980492,8.077363,991.9667,5.705323640837082,991.5723191958459,0,0
3.32,0.027482301,5.847029,7.959001,991.98926,5.705022162820665,991.5932336831328,0,0
3.34,-0.005982667,5.8851624000000005,7.925860000000001,991.97174,5.704736057941768,991.6130763468401,0,0
3.36,-0.10637121,5.804131,8.030016,991.9364,5.7045408499364605,991.6317732896432,0,0
3.38,-0.19720021,5.918529,8.030014,991.9392,5.7045697043361,991.6494006444617,0,0
3.4,-0.37884545,5.7278660000000015,8.072622,991.9264,5.704646972446136,991.6659733728587,0,0
3.42,-0.3406133,5.6897345,8.110497,991.9719,5.704782478066872,991.6817183715283,0,0
3.44,-0.30238757,5.7231007000000025,7.996869999999999,991.9341,5.704813844211017,991.696539226215,0,0
3.46,-0.10643463,5.889931,7.8785086,991.93933,5.704750783664948,991.710508980202,0,0
3.48,-0.053869486,5.908997,8.148369,991.95166,5.7050787894020525,991.7237207984964,0,0
3.5,-0.11123349,5.8279657,8.266728,991.9341,5.705854285285176,991.736152126266,0,0
3.52,-0.06823424,5.9423637000000005,7.774348299999999,991.9444,5.7063373052892175,991.7478861398292,0,0
3.54,-0.13993764,5.8613324,7.9637246,991.94934,5.706775544087198,991.7589795481102,0,0
3.56,-0.17341529999999994,5.880399,7.8074865,991.9469,5.706936971571553,991.7694581972941,0,0
3.58,-0.15908222,5.746936,8.32827,991.957,5.7075684823015465,991.7793922822026,0,0
3.6,-0.37255433,5.7087636,8.139042,991.9722,5.708256821281303,991.7888641474119,0,0
3.62,-0.2960646,5.746896,7.959136999999999,991.9367,5.708728966913212,991.7977656965802,0,0
3.64,-0.15741159999999998,5.7611947,8.124844,991.952,5.709299084782455,991.8061863489177,0,0
3.66,-0.15261889999999995,5.78026,7.7887024999999985,991.9671,5.7094113553599275,991.8142061264667,0,0
3.68,0.005153239,6.0042872,7.665611699999999,991.9596,5.709195070137545,991.821815819854,0,0
3.7,-0.04261905,5.870823400000001,8.044366,991.9471,5.709150097356672,991.8289907679792,0,0
3.72,-0.109510496,5.799324,7.765039,991.9471,5.708702411550772,991.8357557453784,0,0
3.74,-0.042580396,5.8469896,7.9970255,991.9243,5.708346072394947,991.8420520387243,0,0
3.76,-0.08555999,5.856521599999999,7.9165444,991.9597,5.7079492934833524,991.8480389761858,0,0
3.78,-0.0807544,5.8422212999999985,7.8502655,991.9622,5.7073897890186,991.8537400138124,0,0
3.8,-0.01860407,5.875587,7.646686999999999,991.9522,5.706392187192876,991.8591319066096,0,0
3.82,-0.10460189,5.808854,8.030177,991.92706,5.705568322153684,991.8641407242212,0,0
3.84,-0.09024958,5.8326864,7.944959,991.9471,5.704786676128826,991.8688651688556,0,0
3.86,-0.11888979,5.7897870000000005,7.9023533,991.9399,5.7039216490922735,991.8732954135268,0,0
3.88,-0.14277592,5.7754865,8.181683999999999,991.9474,5.703440677161938,991.8774767542296,0,0
3.9,-0.17142896,5.6753883,8.011248,991.92725,5.702892426978963,991.8813505705592,0,0
3.92,-0.1427244,5.72782,8.247971000000001,991.94745,5.7027510950099005,991.8850114326144,0,0
3.94,-0.023190632000000003,5.804084,7.959175599999999,991.9348,5.702570617700981,991.8884254091687,0,0
3.96,-0.056636408,5.8136168,8.00652,991.9449,5.702447706847862,991.8916453073787,0,0
3.98,-0.03749142,5.889881,7.637239,991.955,5.701856346566819,991.894718486331,0,0
4.0,-0.15697362,5.694452,7.84082,991.9198,5.700951047343319,991.8975242407024,0,0
4.02,-0.05655913,5.746883,7.836089,991.955,5.699825610603901,991.9002103179982,0,0
4.039999999999999,-0.11867077,5.7278160000000025,8.432625999999999,991.9526,5.69950101026035,991.902772338752,0,0
4.06,-0.18556225,5.780247,7.845563,991.9526,5.698954166510776,991.9052155198708,0,0
4.079999999999999,-0.104279816,5.842212,8.347412,991.96014,5.6991327790582025,991.9075720428357,0,0
4.1,-0.15684481,5.742114,8.418428,991.9323,5.699956330659777,991.9097432871733,0,0
4.119999999999999,-0.07604875,5.7659583,8.091713,991.9554,5.700816161797688,991.911826162836,0,0
4.14,-0.08560518,5.7754910000000015,8.115386,991.9427,5.70175668636734,991.9137777375854,0,0
4.159999999999998,-0.12861706,5.689693,8.020698,991.95795,5.702502388726432,991.9156611691786,0,0
4.18,-0.06168711,5.656327,7.9591517,991.96265,5.702927465520657,991.9174945291254,0,0
4.199999999999998,-0.06168711,5.656327,7.9591517,991.9677,5.703067707289307,991.9192952256695,0,0
4.22,-0.056901,5.7421246,7.708228999999997,991.968,5.702638908338966,991.9210616583237,0,0
4.239999999999998,-0.19072594,5.703992,8.2479515,991.9579,5.702577454477601,991.9227550962466,0,0
4.26,-0.2480804,5.7468910000000015,7.836059,991.9706,5.7021979825482365,991.924423659649,0,0
4.2799999999999985,-0.11901939,5.8422220000000005,8.134327,991.958,5.702151880528673,991.9260188770967,0,0
4.3,-0.24328472,5.675392,8.229014999999999,991.9605,5.702366547501612,991.9275525432756,0,0
4.3199999999999985,-0.2576178,5.6372595,8.167469,991.9429,5.702661352075473,991.9289629415558,0,0
4.34,-0.28151047,5.6372589999999985,8.12486,991.94037,5.702954457899701,991.9302502348863,0,0
4.3599999999999985,-0.28151047,5.6372589999999985,8.12486,991.953,5.703245007527796,991.9314695864276,0,0
4.38,-0.32451916,5.618193,8.001767,991.9655,5.7033026393286335,991.9326695149383,0,0
4.4,-0.22891678,5.708758,7.916548,991.95807,5.703113462490134,991.9338212135167,0,0
4.42,-0.19545181,5.6944575,8.375786,991.95807,5.7034701058814194,991.9349261500121,0,0
4.44,-0.2241211,5.6944575,8.082253999999999,991.9506,5.7038074412345505,991.9359588977593,0,0
4.46,-0.22889456,5.642025,8.134333,991.943,5.704152998210251,991.9368967816366,0,0
4.48,-0.2623468,5.746889,7.9591603000000015,991.9457,5.704335073801795,991.9377571874167,0,0
4.5,-0.26712346,5.6896900000000015,8.068052,991.98114,5.7044874420203096,991.9386736200894,0,0
4.52,-0.32447475,5.642025,8.300038,991.93066,5.704956437713093,991.9394545309666,0,0
4.539999999999999,-0.25755113,5.6849235999999985,7.765051,991.9658,5.704842513111711,991.9402393875064,0,0
4.56,-0.34836107,5.527627,8.318977,991.9433,5.704976696424812,991.9409439049497,0,0
4.579999999999999,-0.10936136,5.7993207,7.954428,991.96075,5.705019051925856,991.9416377185048,0,0
4.6,-0.07040219,5.770703299999999,8.19595,991.9583,5.705352797059913,991.9423107563756,0,0
4.619999999999999,-0.23764208,5.6944375,8.200688000000001,991.9432,5.705865411057327,991.9429086539152,0,0
4.64,-0.23760661,5.6849035999999975,8.006581,991.9435,5.706192756891989,991.9434390850273,0,0
4.659999999999998,-0.2614879,5.684903,8.006582,991.96375,5.706356483321326,991.9439808932516,0,0
4.68,-0.24711302,5.718268,7.945039299999999,991.956,5.706310562628473,991.9445029037828,0,0
4.699999999999998,-0.28055388,5.7182674,7.836149000000002,991.91583,5.705898250768618,991.9448609298347,0,0
4.72,-0.31873906,5.742099,7.973452,991.9309,5.705426119057332,991.9451270223068,0,0
4.739999999999998,-0.3139416,5.7134995,7.935578299999999,991.96106,5.704803943810233,991.9454195003348,0,0
4.76,-0.35692433,5.6705995000000025,8.087082,991.9511,5.7042594083663465,991.945698383719,0,0
4.7799999999999985,-0.36643076,5.7087307,8.120228,991.9462,5.70388801333066,991.945946610896,0,0
4.8,-0.34729376,5.7325625,7.8503685,991.9311,5.703242682942503,991.9461124966302,0,0
4.8199999999999985,-0.25644198,5.8040605,8.257530000000001,991.94855,5.703126014634693,991.9462678482773,0,0
4.84,-0.4189021,5.770693,7.6752033,991.95374,5.702469253515067,991.9464320167388,0,0
4.8599999999999985,-0.39496762,5.6753607000000015,8.181788000000001,991.9513,5.702072554825957,991.946594600731,0,0
4.88,-0.3566937,5.794524,7.978212400000001,991.9739,5.701702526277553,991.946836559384,0,0
4.9,-0.38055724,5.765924,8.039763,991.9714,5.701428144667207,991.947138782436,0,0
4.92,-0.24668723,5.9518185,8.025563,991.92596,5.701434219257328,991.9473295831081,0,0
4.94,-0.3422656,5.827888,8.233879,991.95636,5.7018933122672335,991.9475306840824,0,0
4.96,-0.47130257,5.71349,8.068175,991.96387,5.702343827112787,991.9477671984407,0,0
4.98,-0.33743256,5.885085,7.964022,991.95886,5.7028074081406395,991.9480161166136,0,0
5.0,-0.36127838,5.7420874,7.940355,991.93866,5.703067641329747,991.9482023786912,0,0
5.02,-0.389904,5.7134867,7.7746559999999985,991.96136,5.702836470591615,991.9484143272997,0,0
5.039999999999999,-0.37076706,5.68012,8.115534,991.9264,5.702705314373406,991.9485223535116,0,0
5.06,-0.27513546,5.7849836,7.926162,991.92896,5.702463120722916,991.948547381,0,0
5.079999999999999,-0.2512187,5.8421817,7.7178493,991.94635,5.701845871399945,991.9485615847173,0,0
5.1,-0.32286254,5.6610518,8.072934,991.9518,5.701278451746861,991.9485857934168,0,0
5.119999999999999,-0.21816356,5.8660245,7.665734,991.954,5.700320264622612,991.9486266753672,0,0
5.14,-0.30416703,5.7182603,8.04449,991.9518,5.699476124336295,991.9486742226276,0,0
5.159999999999998,-0.30416703,5.7182603,8.04449,991.94653,5.698735794740999,991.9487085161853,0,0
5.18,-0.19897835,5.746859,8.063429,991.9415,5.698150811843682,991.9487128673143,0,0
5.199999999999998,-0.18940224,5.8088235999999975,7.8929925,991.9595,5.697493486147809,991.9487555456495,0,0
5.22,-0.2610828,5.684893,7.9782142999999985,991.95435,5.696770410087341,991.9488133962624,0,0
5.239999999999998,-0.2658461,5.689659,7.907199,991.93427,5.695877906275731,991.9488121568373,0,0
5.26,-0.30407628,5.627693,8.139186,991.952,5.695160865707224,991.9488225379167,0,0
5.2799999999999985,-0.28493226,5.74209,7.949811500000001,991.94183,5.694416126345942,991.9488065375025,0,0
5.3,-0.20844719,5.8088217,8.101314,991.9292,5.69398212603785,991.9487218160008,0,0
5.3199999999999985,-0.25623697,5.713491,8.319097,991.9418,5.694083193368746,991.9486220375444,0,0
5.34,-0.12715751,5.7945213,7.9829564,991.96185,5.6941780265917,991.9485814939653,0,0
5.3599999999999985,-0.24185625,5.641991,8.072911999999999,991.9418,5.694239836980954,991.9485212562804,0,0
5.38,-0.2035931,5.6324577000000025,8.200743,991.9342,5.694477517229836,991.9484164737394,0,0
5.4,-0.2035931,5.6324577000000025,8.200743,991.94684,5.694869740437786,991.9483182125807,0,0
5.42,-0.16532993,5.823119,7.755711,991.94714,5.6948755387118375,991.9482271474556,0,0
5.44,-0.16532993,5.823119,7.755711,991.95984,5.694539871040508,991.9481884885803,0,0
5.46,-0.2752489,5.589557599999999,8.52742,991.9721,5.6949428063250265,991.9482404110393,0,0
5.48,-0.27521586,5.7134870000000015,8.091858,991.9522,5.695393518433748,991.9483005442439,0,0
5.5,-0.4138137,5.603856,7.864608299999999,991.9396,5.695378211928352,991.9483223559848,0,0
5.52,-0.4185853,5.5657234,8.125001,991.96246,5.695349525303763,991.9483925243572,0,0
5.539999999999999,-0.34209186,5.632455,8.205488,991.9473,5.695519261304159,991.9484505920433,0,0
5.56,-0.28470948,5.6610537,8.120272,991.9574,5.695748159455207,991.9485341185194,0,0
5.579999999999999,-0.21778396,5.699185400000001,8.191286999999999,991.9524,5.696191356456152,991.9486218396872,0,0
5.6,-0.20342809,5.684886,8.077662,991.95483,5.696611190805219,991.948721699488,0,0
5.619999999999999,-0.14579637,5.7468443,8.233924,991.96246,5.697346594060979,991.94885939349,0,0
5.64,-0.25569192,5.684878,8.039817,991.95996,5.697958723098553,991.9490210220932,0,0
5.6599999999999975,-0.30346334,5.6324453000000005,7.9546,991.96246,5.6982551078341785,991.9492122174478,0,0
5.68,-0.34645492,5.6515102,8.091901,991.9448,5.698530480085652,991.9493652736804,0,0
5.6999999999999975,-0.17435534,5.7992735,8.186591,991.98004,5.699114479442704,991.9496109431816,0,0
5.72,-0.21258043,5.727774,8.300218,991.9446,5.700078984340835,991.949809977358,0,0
5.7399999999999975,-0.25079224,5.6801080000000015,8.087172,991.93475,5.70095816841318,991.9499316280376,0,0
5.76,-0.27467793,5.6896415000000005,7.7273583,991.93976,5.7011647409818496,991.9500025007173,0,0
5.7799999999999985,-0.31288975,5.699174,7.9877534,991.9501,5.701228300624628,991.9500654748143,0,0
5.8,-0.34632173,5.613375,7.9120050000000015,991.96265,5.7009360773158395,991.9501664230173,0,0
5.8199999999999985,-0.16466255,5.889835,7.8836007,991.93506,5.700611077764473,991.9502012377264,0,0
5.84,-0.18375511,5.751604,8.153464,991.93726,5.700544049989578,991.9501854115477,0,0
5.8599999999999985,-0.12157773,5.8374014,7.803122,991.9351,5.7002189313401725,991.9501171200543,0,0
5.88,-0.19802797,5.827867,8.001969,991.9529,5.699990230560568,991.9500667960588,0,0
5.9,-0.13109739,5.842166400000001,7.921486,991.96277,5.699727890317472,991.9500680613104,0,0
5.92,-0.26487863,5.7420673,7.9783034,991.9451,5.699415305579469,991.950051294266,0,0
5.94,-0.26487863,5.7420673,7.9783034,991.9175,5.699059450110822,991.9499192942463,0,0
5.96,-0.34609532,5.541871,8.1487465,991.9579,5.6987235646057055,991.9498313895696,0,0
5.98,-0.40821946,5.5323377,8.072997,991.98315,5.69827039085017,991.9498736639947,0,0
6.0,-0.20263463,5.8230963,8.106142,991.9755,5.698105339928088,991.9500032724866,0,0
6.02,-0.20263463,5.8230963,8.106142,991.92755,5.698195468524961,991.9500369627688,0,0
6.039999999999999,-0.08308627,5.7992625,7.978318700000001,991.9532,5.698262848438656,991.9500781184364,0,0
6.06,-0.08308627,5.7992625,7.978318700000001,991.9554,5.698309885048202,991.950133642358,0,0
6.079999999999999,-0.09261921,5.808795,7.978320599999999,991.95807,5.698350611661144,991.9502112741824,0,0
6.1,-0.20730792,5.6991634000000015,8.030401,991.9607,5.698344139503304,991.9503176290754,0,0
6.119999999999999,-0.2359601,5.7182283,8.115623,991.97076,5.69846478108508,991.9504851967939,0,0
6.14,-0.37454778,5.63243,8.1440325,991.9506,5.6986525378293935,991.9506336729221,0,0
6.1599999999999975,-0.26457232,5.7706589999999975,8.082489,992.00616,5.698952058343441,991.950964761206,0,0
6.18,-0.2932245,5.6991606,8.148773,991.95807,5.69937766565921,991.9512828896733,0,0
6.1999999999999975,-0.2228358,5.8231230000000025,7.911933,991.95825,5.699659651997933,991.9515890695843,0,0
6.22,-0.36146826,5.694426,8.181792,991.95074,5.7001225054016285,991.9518565535033,0,0
6.2399999999999975,-0.37581673,5.7277923,7.826711,991.95807,5.700184563678119,991.9521152707013,0,0
6.26,-0.35672474,5.7420926,8.025554,991.9405,5.700242775330754,991.9523020582428,0,0
6.2799999999999985,-0.34239435,5.7706922999999986,7.798300999999999,991.9709,5.699949575829942,991.9525340563052,0,0
6.3,-0.22769722,5.846957700000001,8.257537,991.9506,5.70020586936638,991.9527320871904,0,0
6.3199999999999985,-0.44280648,5.5752644999999985,7.8835172999999985,991.9909,5.70000177154316,991.9530444717664,0,0
6.34,-0.17993547,5.9089236,7.722545599999999,991.9632,5.699515508791318,991.9533570546794,0,0
6.3599999999999985,-0.41895282,5.6944294,8.035013000000001,991.9861,5.6990553006875935,991.9537511275446,0,0
6.38,-0.33771428,5.808827,8.158108,991.9938,5.698959365731256,991.9542435062692,0,0
6.4,-0.33771428,5.808827,8.158108,991.97845,5.699185647893798,991.9547657154877,0,0
6.42,-0.3042829,5.8231273,8.001868,992.00116,5.699447520941218,991.955394158977,0,0
6.44,-0.38076875,5.7754626,7.9734615999999985,991.98615,5.699639495218206,991.956060172672,0,0
6.46,-0.34733737,5.7659297,7.807755499999999,991.95605,5.6994769363381925,991.9566486257517,0,0
6.48,-0.3473555,5.6991982000000005,7.765143400000001,991.95306,5.698848243557688,991.9571556638396,0,0
6.5,-0.34737363,5.5943346,8.087081,991.99615,5.698228143632202,991.9577440623046,0,0
6.52,-0.4429788,5.527603,8.385348,991.98096,5.698061564200582,991.958347548564,0,0
6.539999999999999,-0.38085946,5.6420010000000005,8.139157,991.9889,5.698000474746858,991.9589907778476,0,0
6.56,-0.23272182,5.8803296,7.949778599999999,991.96356,5.697991702925912,991.9595755844427,0,0
6.579999999999999,-0.24707028,5.7897654,8.172295,991.96356,5.698294086642855,991.960106663446,0,0
6.6,-0.35223505,5.718267,8.191231,992.0091,5.698823595285044,991.9607523008647,0,0
6.619999999999999,-0.54345447,5.4990063,8.352199,992.0091,5.699590807586956,991.961496837805,0,0
6.64,-0.5386928000000001,5.5895715,7.930835000000001,991.99396,5.69994783039585,991.9622715780292,0,0
6.6599999999999975,-0.50525224,5.6992025,7.968708,991.9714,5.700133227633637,991.9629890008107,0,0
6.68,-0.29018828,5.794534,8.290646,991.9939,5.700808663927388,991.9637341951773,0,0
6.6999999999999975,-0.31686503,5.7134540000000005,8.276626,992.0015,5.701796316627928,991.9645286058168,0,0
6.72,-0.3168346,5.70392,8.144065,991.99646,5.7028188792228445,991.9653455000772,0,0
6.7399999999999975,-0.46491724,5.599053,7.874212299999999,991.9838,5.70329741743742,991.9661337440452,0,0
6.76,-0.46491724,5.599053,7.874212299999999,991.989,5.703293532971951,991.9669125549367,0,0
6.7799999999999985,-0.32621157,5.537086,8.252972,991.9915,5.7034258480356375,991.967689227043,0,0
6.8,-0.2162152,5.7611127,8.2009,991.9764,5.703846098345172,991.9684068532988,0,0
6.8199999999999985,-0.23527357,5.737278,8.077810000000001,992.0193,5.704282667587874,991.969224163186,0,0
6.84,-0.28304112,5.6753125,8.153564,991.9991,5.704789379922827,991.9700538912152,0,0
6.8599999999999985,-0.32596803,5.784941000000001,7.9499936,991.99426,5.705146495441871,991.9708741808934,0,0
6.88,-0.3689254,5.7372737,7.978405499999999,991.9996,5.7053630808218285,991.9717024018016,0,0
6.9,-0.5027294,5.6467085,8.087299,991.99457,5.705542774402876,991.9725165411501,0,0
6.92,-0.5217573,5.5323086,8.191464,991.9892,5.705735080763207,991.97329597513,0,0
6.94,-0.47870868,5.537075,8.234077000000001,992.0144,5.706012209185334,991.974132657484,0,0
6.96,-0.26352617,5.761101,7.8411300000000015,992.0119,5.70594635229534,991.9750079124452,0,0
6.98,-0.27783513,5.7658668,7.793789,991.9995,5.705505207000912,991.9758694592442,0,0
7.0,-0.3781501,5.6895995,8.077858,992.0171,5.705126761215843,991.9767791519424,0,0
7.02,-0.2633435,5.684831,8.163086,992.01715,5.704936698816537,991.9777282914637,0,0
7.039999999999999,-0.277622,5.660996400000001,8.281452,992.0275,5.705088879458205,991.9787461292952,0,0
7.06,-0.18674485,5.703894,8.040003,991.98456,5.705177737492684,991.9796664207378,0,0
7.079999999999999,-0.10545778,5.73726,8.044741,992.0021,5.705256039208642,991.9805603511417,0,0
7.1,-0.091057464,5.7944565,7.8222284,991.99725,5.7050202344585905,991.9814103107823,0,0
7.119999999999999,-0.22002086,5.613325,8.172583,991.96936,5.704886116857603,991.9821179540024,0,0
7.14,-0.22002086,5.613325,8.172583,992.0094,5.704842332844889,991.982841442917,0,0
7.1599999999999975,-0.26769713,5.7181864,8.305158,991.98706,5.705231380596862,991.9834959045274,0,0
7.18,-0.28678590000000004,5.660987,8.172597,992.0073,5.705708416124332,991.98415988155,0,0
7.1999999999999975,-0.13060638,5.6181264,8.054094000000001,991.98206,5.706001600071473,991.984739012074,0,0
7.22,-0.03501217,5.6848583,8.153516999999999,992.0149,5.706378439203116,991.985359311361,0,0
7.239999999999997,0.04145895,5.8278550000000005,7.817373299999999,991.992,5.7064349851887375,991.9859313142903,0,0
7.26,-0.063700534,5.7658896,8.091969,991.9872,5.706593936980476,991.9864413033473,0,0
7.2799999999999985,-0.30269647,5.537095,8.125109,991.99976,5.706636667083586,991.9869398769856,0,0
7.3,-0.30269647,5.537095,8.125109,991.977,5.706576549874253,991.9873446330955,0,0
7.3199999999999985,-0.20710605,5.656259,8.200858,991.9772,5.7066904716823625,991.9876657549153,0,0
7.34,-0.23100701,5.6181273,8.409172,992.0098,5.707272495085531,991.9880291814374,0,0
7.3599999999999985,-0.22145116,5.6896252999999986,7.6706047,992.00006,5.7070960453923085,991.9883936160588,0,0
7.38,-0.18321466,5.703925,7.897856,992.00244,5.706646997327543,991.988766197473,0,0
7.399999999999999,-0.14498386,5.6467266,8.167716,992.0101,5.706346790847593,991.9891722120993,0,0
7.42,-0.16410494,5.651493,8.196122,992.0098,5.706234006668991,991.9896052266597,0,0
7.439999999999999,-0.11631262,5.7563577000000015,7.9309949999999985,991.9798,5.705961871662541,991.9899525395093,0,0
7.46,-0.11631262,5.7563577000000015,7.9309949999999985,992.02277,5.705549913950628,991.9903775680008,0,0
7.479999999999999,-0.19279520000000008,5.6419606,8.413905,991.98474,5.7057054347537175,991.9907328279312,0,0
7.5,-0.27405563,5.651493,7.9783387,992.0024,5.705631783355598,991.9910887374252,0,0
7.52,-0.24060082,5.6133614000000005,8.23873,992.0303,5.705753218823874,991.9915443795993,0,0
7.539999999999999,-0.23582484,5.722992400000001,8.073025999999999,992.00995,5.705893632199099,991.992013245258,0,0
7.56,-0.19281231,5.7515917000000005,7.8031645,991.98236,5.705628700009121,991.9923927832707,0,0
7.579999999999999,-0.19281231,5.7515917000000005,7.8031645,992.0152,5.705006558233611,991.9928102490393,0,0
7.6,-0.34577173,5.637194,7.992539999999999,991.98755,5.704259947457513,991.9931601848956,0,0
7.619999999999999,-0.3170967,5.5418629999999975,8.342885,992.0002,5.703892757720934,991.9934947315527,0,0
7.64,-0.1450295,5.7897243,7.9972734,992.0177,5.703557276079057,991.9938774759454,0,0
7.659999999999997,-0.08289586,5.722993,8.082493,991.98755,5.703312800708972,991.9941928899773,0,0
7.68,-0.08767754,5.7563586,7.949928999999999,992.0129,5.702966062096009,991.994538935412,0,0
7.699999999999997,-0.12537484,5.7468123,8.0967455,992.00775,5.702767491134077,991.9948922609905,0,0
7.72,-0.24486104,5.7039127,8.073074,992.028,5.702613531045129,991.9953236473323,0,0
7.739999999999997,-0.28785267,5.837376,8.073076,992.02045,5.70266319495159,991.9957952751734,0,0
7.76,-0.4599167,5.5847483,7.9783893,991.9953,5.702441752950058,991.9962102225431,0,0
7.7799999999999985,-0.4503482,5.5323157,7.9831243,992.0052,5.701926479787805,991.996609233238,0,0
7.8,-0.23045948,5.708678,8.451832000000001,991.97504,5.702148175773648,991.996884149848,0,0
7.8199999999999985,-0.07747914,5.966071,8.025738,992.0003,5.702602239174678,991.9971393632254,0,0
7.84,-0.10136926,5.880273000000001,8.035208,991.9901,5.703170424225763,991.997339528058,0,0
7.8599999999999985,-0.2065072,5.7754087,7.703800999999999,992.0106,5.703157678502616,991.9975641314032,0,0
7.88,-0.32597563,5.661010299999999,7.883710400000001,992.0057,5.702799268554625,991.9977918800456,0,0
7.899999999999999,-0.2590495,5.7944736,7.708538499999999,992.0002,5.702003411806944,991.9980017879782,0,0
7.92,-0.25425196,5.732508,8.144105999999999,991.99304,5.701479788554993,991.9981694001906,0,0
7.939999999999999,-0.17774847,5.8373723,7.9594655,992.0256,5.701010693142949,991.9984162525008,0,0
7.96,-0.25898737,5.732507,8.305079,992.0208,5.701054010129117,991.998714952693,0,0
7.979999999999999,-0.12513506,5.8326044,7.770093400000001,992.02576,5.700763740227032,991.9990762463533,0,0
8.0,-0.11555773,5.8278375,7.8979240000000015,991.99036,5.700386722547457,991.9993641069444,0,0
8.02,-0.09642961,5.8278370000000015,8.058894,991.99054,5.70020413557534,991.999586693778,0,0
8.04,-0.23501733,5.727739,8.167788,992.0308,5.7002624609575525,991.9998957394064,0,0
8.059999999999999,-0.3019168,5.67054,8.058898,991.9853,5.7002837698934865,992.0001162674617,0,0
8.08,-0.2445414,5.7992363,7.8363833,992.036,5.700050551515512,992.0004403074887,0,0
8.1,-0.28754187,5.7134376,8.063636,992.0031,5.699873569007282,992.0007362041496,0,0
8.12,-0.28754187,5.7134376,8.063636,992.0106,5.699746913650591,992.001033168104,0,0
8.139999999999999,-0.23971719,5.727737,8.144124,992.003,5.699816297253357,992.0013026460492,0,0
8.16,-0.21579152,5.7706347,8.07311,992.0359,5.699988694680997,992.0016653072356,0,0
8.18,-0.21579152,5.7706347,8.07311,992.0358,5.700251494493549,992.0021086395536,0,0
8.2,-0.18208647,5.72773,8.011585,992.0234,5.7004359603761525,992.0025770168877,0,0
8.219999999999999,-0.24897707,5.7467957,8.073134,992.02576,5.700680704551739,992.0030743338392,0,0
8.24,-0.24895042,5.7372622,7.8742924,991.9981,5.700630989962916,992.0034958554961,0,0
8.26,-0.34451985,5.608564,8.158358999999999,992.036,5.700654514830654,992.0039853269518,0,0
8.28,-0.31103462,5.670529,8.063673,991.9981,5.700652352072518,992.0043966367532,0,0
8.299999999999999,-0.22497149,5.880257,7.9405813,992.02576,5.7006702770147015,992.0048369782016,0,0
8.32,-0.33966017,5.641928,8.224647500000001,992.01575,5.700905821081937,992.0052653507837,0,0
8.34,-0.25358373,5.780157,8.106292,992.036,5.701290581434928,992.0057545055344,0,0
8.36,-0.23445120000000005,5.722958,8.0447445,992.0007,5.701631711896192,992.0061685264524,0,0
8.379999999999999,-0.24876396,5.632393,8.058950999999999,992.01074,5.701849473765577,992.0065508126401,0,0
8.4,-0.3395536,5.689591,7.8790460000000015,992.0487,5.7017272459715995,992.00704033779,0,0
8.42,-0.44944912,5.6037919999999986,8.229396000000001,992.02856,5.701807625510206,992.0075503529964,0,0
8.44,-0.41119742,5.7038894,8.058958,991.9859,5.7018911054610575,992.0079230611624,0,0
8.459999999999999,-0.30602843,5.823053,7.9074583,992.031,5.70185882001096,992.0083354630773,0,0
8.48,-0.2390845,5.737254599999999,8.324089,991.99347,5.702322145616157,992.008646345742,0,0
8.5,-0.33943373,5.689588,7.9406047000000015,992.01105,5.702518988651147,992.0089296948204,0,0
8.52,-0.41110414,5.5704236,7.826981,992.02374,5.702149553472728,992.009233379164,0,0
8.54,-0.2198854,5.7277193,8.153657,991.99347,5.702011001353479,992.0094449664856,0,0
8.559999999999999,-0.29155582,5.7324853,7.997424,992.02606,5.701821796308713,992.0096917391633,0,0
8.58,-0.3871119,5.808749,7.703894999999997,992.0136,5.701198007160079,992.0099238572404,0,0
8.6,-0.44923604,5.8230486,7.9548197,992.01624,5.7006339718831445,992.0101516948872,0,0
8.62,-0.59260356,5.4274235,8.683921,992.0311,5.7009333526536645,992.0104284261307,0,0
8.639999999999999,-0.4013847,5.4989214,7.826996,992.0339,5.700573671307554,992.010757443523,0,0
8.66,0.004938513,5.6419169999999985,7.987969,992.03143,5.70006013048896,992.0111225844943,0,0
8.68,0.009731635,5.660983,7.973767,992.0289,5.6994113067754775,992.011509221752,0,0
8.7,-0.018889263,5.751546,8.201024,992.0236,5.6991397726462365,992.011894381235,0,0
8.719999999999999,-0.10010409,5.751545,8.347795,992.0238,5.699454064312397,992.0122775683817,0,0
8.74,-0.30082795,5.708646,8.3714695,992.0186,5.700283288267298,992.012638913298,0,0
8.76,-0.31991923,5.808742,8.144219999999999,992.0188,5.701297463206388,992.0129803775784,0,0
8.78,-0.40592784,5.7467766,8.054269,992.0415,5.702251082920424,992.0133847660576,0,0
8.799999999999997,-0.22426738,5.894539,8.063741,992.0464,5.70333147221343,992.0138609385596,0,0
8.82,-0.26249185,5.765842,8.059008,992.02625,5.70435725255175,992.0143262852035,0,0
8.84,-0.2768033,5.7372417,7.9690557,992.0188,5.705145417294612,992.0147535708716,0,0
8.86,-0.3150139,5.8039727,7.827026400000001,992.02875,5.705566730396228,992.0151815076327,0,0
8.879999999999997,-0.2958668,5.703874,7.746544,992.02625,5.705403073250152,992.0155994791272,0,0
8.9,-0.20980236,5.7038736,8.205784,992.00104,5.705494589689332,992.015916384615,0,0
8.92,-0.24324705,5.69434,8.201051,992.0088,5.705793444440782,992.0161707833194,0,0
8.94,-0.13806349,5.8230366999999985,7.7086754,992.01624,5.705598342672582,992.0163958191944,0,0
8.959999999999997,-0.09023751,5.9755654,7.997476,992.02655,5.705636619234326,992.0166312159448,0,0
8.98,-0.14275958,5.756302400000001,7.72762,992.0316,5.705160248840481,992.0168931001358,0,0
9.0,-0.02325052,5.832567,7.803372,992.01904,5.704449696953652,992.0171322298463,0,0
9.02,-0.07100669,5.775368,7.6566095,992.0264,5.70321995323348,992.0173768888317,0,0
9.04,-0.07100669,5.775368,7.6566095,992.02655,5.701535878686764,992.0176260927108,0,0
9.06,-0.061391264,5.846864,7.9122725,992.03174,5.699970981908464,992.0178970993248,0,0
9.08,-0.09960182,5.7848988,8.442528999999999,992.0266,5.699340990073832,992.0181678912112,0,0
9.1,-0.10914746,5.7610655,8.380982000000001,992.0341,5.699406054600054,992.018464518514,0,0
9.12,-0.10914746,5.7610655,8.380982000000001,992.0292,5.70008503669443,992.018765266132,0,0
9.14,0.05340774400000002,5.9183607,8.295767,992.0442,5.701345572752963,992.019122571769,0,0
9.16,-0.10906376,5.7181644,7.8649397,992.0268,5.702146604207533,992.0194659257717,0,0
9.18,-0.16161367,5.675265,8.139538,992.03687,5.702953424924532,992.0198319680354,0,0
9.2,-0.2380766,5.560867,8.044851,992.0268,5.7034684821570405,992.0201804878948,0,0
9.22,-0.07090777,5.7038665,8.276826,992.0419,5.704284024081467,992.0205666302862,0,0
9.24,-0.15214293,5.6752667,7.997497999999997,992.0141,5.70485422027732,992.0208845458342,0,0
9.26,-0.10432337,5.7038655,7.9880314,992.0216,5.705222717340537,992.0211680316472,0,0
9.28,-0.17121908,5.6419,8.068518,992.0218,5.705475905765297,992.021420794798,0,0
9.3,-0.28113306,5.5894675000000005,7.860206,992.01917,5.7052150680140254,992.0216360334564,0,0
9.32,-0.20463468,5.7133975,7.9122863,992.0394,5.70473494621778,992.0218901686148,0,0
9.34,-0.20462392,5.7610626,7.850739999999999,992.0093,5.704017685965859,992.0220693978335,0,0
9.36,-0.28585905,5.6180654,8.205822999999999,991.98645,5.70352777774028,992.0220995349392,0,0
9.38,-0.20458087,5.789661,7.9075565,992.02924,5.7029365704878305,992.0221518697597,0,0
9.4,-0.1615411,5.8087263,8.347858,992.02924,5.7030241341483565,992.0222236300765,0,0
9.42,-0.18542938,5.7610607000000025,8.149014,992.0244,5.703316807014532,992.0222948724236,0,0
9.44,-0.31444097,5.7515264,8.006986,992.0195,5.703544595556357,992.0223477606212,0,0
9.46,-0.34787816,5.6990940000000005,8.049598,992.00433,5.703725393790853,992.022329628694,0,0
9.48,-0.31440872,5.6275954000000015,8.442554,992.0169,5.704450459156202,992.02229406066,0,0
9.5,-0.30481687,5.7705913,7.784475299999999,992.0246,5.704705534378071,992.0222709341266,0,0
9.52,-0.28568685,5.7467585,8.201103,991.97394,5.7052164798174285,992.0220765081588,0,0
9.54,-0.21875885,5.6895595000000005,8.556185000000001,991.9892,5.706490578580443,992.0217863579443,0,0
9.56,-0.13746987,5.803956,7.543025,992.0092,5.706856857328058,992.0214846703263,0,0
9.58,-0.07054188,5.8420877,7.675589599999999,992.0118,5.706685116960157,992.021183234334,0,0
9.6,-0.15655681,5.703857,8.002265,992.0094,5.706416960334887,992.0208744658473,0,0
9.62,-0.26168022,5.7086234000000005,8.087487,992.0269,5.706219379291537,992.0206233299356,0,0
9.64,-0.23775965,5.770588,7.983332000000001,992.0144,5.7059823473229585,992.0203790222563,0,0
9.66,-0.27118596,5.6943226,8.18218,992.01935,5.705958421791589,992.0201594475104,0,0
9.68,-0.18034819,5.799186,8.016478999999999,991.99695,5.705963881907481,992.0198818772541,0,0
9.7,-0.18034819,5.799186,8.016478999999999,992.00684,5.705995287524872,992.0195896654176,0,0
9.72,-0.10998182,5.7324862,7.869590299999999,991.99945,5.705718871439718,992.0192589642434,0,0
9.74,-0.13869116,5.823052,8.167855,992.007,5.70578516280896,992.0189226244142,0,0
9.76,-0.11480737,5.7992196,8.158384,991.98926,5.70610864383753,992.0185186490936,0,0
9.78,-0.20563889,5.680056,8.030553999999999,992.0246,5.706301317271462,992.0181835893634,0,0
9.8,-0.26780683,5.632391,8.125239,992.0119,5.7064851685474265,992.017864909664,0,0
9.82,-0.16744621,5.746789,8.1536455,991.98926,5.706840560111883,992.017480346607,0,0
9.84,-0.172287,5.808755400000001,8.030544,992.0247,5.707213048701138,992.017166537442,0,0
9.86,-0.21054065,5.808756,8.011605,992.02466,5.7075689646588526,992.016916232129,0,0
9.88,-0.3778643,5.6991260000000015,7.9689937,991.9971,5.707714416947148,992.0166237239188,0,0
9.9,-0.31097758,5.5418305,8.442430499999999,991.9943,5.708295155554818,992.016284898258,0,0
9.92,-0.16761395,5.761093,7.879034,991.98694,5.708548456877941,992.0158798702704,0,0
9.94,-0.033825174,5.8087589999999985,7.893233,992.0095,5.7085910481912014,992.0154990200078,0,0
9.96,-0.10553746,5.680063,8.082607000000001,992.00464,5.7086117272136505,992.0151234082435,0,0
9.98,-0.0769044,5.842127,7.959509,992.0021,5.708601117469506,992.0147446334192,0,0
10.0,-0.13905707,5.808761,8.0778675,992.00464,5.708722560354012,992.0143735713035,0,0
10.02,-0.20602009,5.718198,8.063661,992.007,5.708829270460267,992.014019155962,0,0
10.04,-0.22993436,5.727731,8.006845,991.9996,5.708839005136127,992.0136540856046,0,0
10.06,-0.29688212,5.6419344,7.9594994,992.01215,5.708583225636884,992.0133260947284,0,0
10.08,-0.20131652,5.665767,7.9831686,992.00964,5.7081574586797785,992.0130230120494,0,0
10.1,-0.20612684,5.6991343,8.319309,991.99445,5.708195872703098,992.0126883453509,0,0
10.12,-0.1726987,5.794466000000001,8.011569,991.9995,5.70823406126808,992.0123451558127,0,0
10.14,-0.12969571,5.8802643,8.021036,992.0273,5.7083914158516125,992.0120957509756,0,0
10.16,-0.25401634,5.7658687,7.9784229999999985,991.9893,5.7084470183089095,992.0117933121584,0,0
10.18,-0.27794588,5.6753044,7.8837314,992.0322,5.7081442263582725,992.0115995412956,0,0
10.2,-0.29230055,5.6038065,8.058904,992.01984,5.707738018394362,992.0114579910124,0,0
10.22,-0.19530624,5.761069,8.130048,991.9921,5.70754565629974,992.0112632284148,0,0
10.24,-0.11880401,5.8039675000000015,7.921736,992.01215,5.707241299017483,992.0110943285613,0,0
10.26,-0.1474701,5.7277017,8.134786,992.0048,5.707107045112809,992.0109224290677,0,0
10.28,-0.09963405,5.856398,8.035366,992.02,5.707110139136338,992.0108032179304,0,0
10.3,-0.18086532,5.6705017,8.130056,991.9948,5.707172899178888,992.0106402713852,0,0
10.32,-0.2334305,5.613302,8.253152,992.0151,5.707433668394443,992.0105123468409,0,0
10.34,-0.26205862,5.713399,8.077983999999999,992.0024,5.707689407119918,992.0103701082646,0,0
10.36,-0.22858727,5.6895657,8.144267,992.02014,5.708022254284062,992.0102795978688,0,0
10.38,-0.19510329,5.76583,8.125332,991.9897,5.7084796184662725,992.0101255363312,0,0
10.4,-0.18550561,5.7562957,7.883880599999999,991.99475,5.708626165379077,992.0099340556253,0,0
10.42,-0.18071313,5.7324624,8.068524,991.9745,5.708779774484378,992.0096373006737,0,0
10.44,-0.18546759,5.765828,8.016448,991.99475,5.7088915379618745,992.0093214937157,0,0
10.46,-0.12329207,5.856392,7.812872,992.0048,5.708734270104069,992.0090261693103,0,0
10.48,-0.16151781,5.7991934,7.8838887,992.02,5.7083886359525255,992.0088047264563,0,0
10.5,-0.24274914,5.799192400000001,8.044861000000001,991.9847,5.708151676188963,992.0085222825353,0,0
10.52,-0.27619508,5.7610598,8.059064999999999,992.02515,5.70799118468503,992.0083325748694,0,0
10.54,-0.24271105,5.7705917,7.8223476,992.02515,5.7075106610438775,992.0082254919064,0,0
10.56,-0.26658475,5.818257,8.115882000000001,992.02515,5.707301881527952,992.0081918016292,0,0
10.58,-0.22832093,5.7801237,7.6187725,992.0049,5.7064535986318266,992.0081501824144,0,0
10.6,-0.29042035,5.784889700000001,8.153764,992.00507,5.705948878422806,992.0081023190198,0,0
10.62,-0.23303735,5.9135860000000005,7.637716,992.0051,5.705044148121741,992.0080492185756,0,0
10.64,-0.22824484,5.899286,8.068548,992.00757,5.704486516450398,992.0080005738364,0,0
10.66,-0.26645792,5.7848883,7.8697050000000015,992.01263,5.7037658315601965,992.0079742572792,0,0
10.68,-0.2042824,5.7896533,8.238992999999999,991.9848,5.703529492594899,992.0078675766428,0,0
10.7,-0.16096891,5.875444,7.883939,991.9722,5.703227087149488,992.0076449103566,0,0
10.72,-0.26128963,5.8897433,7.9454913,992.0101,5.702992236061398,992.0074570007488,0,0
10.74,-0.25649142,5.8420763,7.9786344,992.0227,5.702814357198068,992.0073458386166,0,0
10.76,-0.28513345,5.7944098,8.03545,991.9775,5.702726366119099,992.0071401707376,0,0
10.78,-0.35681212,5.7944098,7.997576,992.0102,5.7026591839189695,992.006969457985,0,0
10.8,-0.30417907,5.7944083,7.8981595,991.98236,5.702440079809582,992.006730022148,0,0
10.82,-0.28982129999999995,5.8134739999999985,7.822410599999999,991.9976,5.701983551209255,992.0064855885628,0,0
10.84,-0.17027101,5.80394,7.9455094,991.98505,5.701507214270122,992.0061924389281,0,0
10.86,-0.16069299,5.8754373,8.149092,992.0229,5.7014444435189375,992.0059935591304,0,0
10.88,-0.1032802,5.918335400000001,7.8934380000000015,991.9976,5.701370482785598,992.0057876121288,0,0
10.9,-0.2753163,5.856369,8.026005,992.0079,5.701438636998548,992.0056132419544,0,0
10.92,-0.27527952,5.8182354000000025,7.7750845,992.00287,5.701165751416613,992.0054492927973,0,0
10.94,-0.3612976,5.7038374,7.926587599999999,991.99506,5.700711483704339,992.0052670258676,0,0
10.96,-0.3373618,5.680004,8.120702,992.0026,5.700397026714232,992.0050963735156,0,0
10.98,-0.14133468,5.7896338,7.912392599999999,992.00006,5.6999778761967645,992.0049274541527,0,0
11.0,-0.11741723,5.8182325,7.955004,991.98755,5.699573640550761,992.0047156381688,0,0
11.02,-0.21295816,5.780099,7.798774000000001,992.0053,5.698878957448446,992.004530581268,0,0
11.04,-0.12688491,5.808697,8.092311,991.96765,5.698454915591612,992.0042342948981,0,0
11.06,-0.19374695,5.794396,8.026033,991.9926,5.698144633165164,992.0039306127996,0,0
11.08,-0.17460935,5.803929,8.011830999999999,992.01025,5.697922939652102,992.0036850290912,0,0
11.1,-0.17457257,5.8515935,8.191742,991.98755,5.6981416746683085,992.003409945222,0,0
11.12,-0.2844897,5.775328,8.02604,991.98755,5.698381880071256,992.0031097853124,0,0
11.14,-0.32267290000000004,5.7371940000000015,7.9550285,991.9952,5.6984766319514115,992.002816088789,0,0
11.16,-0.22226027,5.751493,7.926626,991.9903,5.698406321031253,992.0025115206212,0,0
11.18,-0.27122223,5.775355,8.025942,991.9826,5.698389265622313,992.0021707227144,0,0
11.2,-0.27122223,5.775355,8.025942,991.98755,5.6984193281825615,992.0018169590816,0,0
11.22,-0.19475809,5.827787,7.784486999999999,991.9904,5.698147141379375,992.0014632724832,0,0
11.24,-0.19477075,5.675257,8.314738,991.9752,5.698320978406553,992.001056207224,0,0
11.26,-0.15654498,5.8897533,7.912313,992.01807,5.698464660889902,992.0007577740147,0,0
11.28,-0.33341676,5.7515235,7.931248700000001,992.013,5.698451989939437,992.0005381504448,0,0
11.3,-0.38600728,5.699091,8.324203500000001,991.998,5.698909663324343,992.0003349537168,0,0
11.32,-0.40991902,5.7229247,7.8176208,991.98535,5.6989531769897726,992.0001014632544,0,0
11.34,-0.32866865,5.77059,7.931246000000002,991.99554,5.698873177121952,991.999878729814,0,0
11.36,-0.33346748,5.7372246,7.670851700000001,991.98785,5.698208235033941,991.9996386191189,0,0
11.38,-0.30479503,5.7372246,7.8602276,991.98785,5.697343265702237,991.9993840182796,0,0
11.4,-0.24267659,5.7515254,8.096947,992.0283,5.696717557165086,991.9992631505124,0,0
11.42,-0.28570753,5.775358,8.300524000000001,992.01825,5.696682376664191,991.9992247044116,0,0
11.44,-0.26660100000000003,5.8373237,7.883895,991.98553,5.696539834569387,991.9991414325008,0,0
11.46,-0.28094673,5.7848916,7.8460197,991.98804,5.6961757505502595,991.9990278882836,0,0
11.48,-0.3096446,5.756292299999999,7.921767999999997,992.0007,5.695710917509892,991.9989335802153,0,0
11.5,-0.35266915,5.6990943,7.7797356,991.9931,5.694853408714462,991.9988292487177,0,0
11.52,-0.4243726,5.6371293,7.921767,991.9981,5.693821811782651,991.9987344361107,0,0
11.54,-0.3335753,5.6609626,8.134813000000001,991.99304,5.693023171153508,991.9986301597212,0,0
11.56,-0.27623034,5.780126,7.8696856,991.99817,5.692125471741294,991.9985363645284,0,0
11.58,-0.20931941,5.9040575,7.940701,991.99817,5.691411753530852,991.9984521681836,0,0
11.6,-0.28580898,5.737228400000001,8.082732,992.0133,5.690902151176887,991.9984312244884,0,0
11.62,-0.29060146,5.6800294000000005,8.063792999999999,991.98804,5.690474294167933,991.9983753102307,0,0
11.64,-0.29061420000000004,5.7705946,8.054324000000001,991.9981,5.690213140056537,991.9983249132756,0,0
11.66,-0.31930566,5.7276955,7.9406967,991.99304,5.689858379755074,991.9982613568387,0,0
11.68,-0.31932464,5.6847980000000025,8.021179,992.0082,5.6895063607347325,991.9982409774864,0,0
11.7,-0.23276098,5.7515163000000005,8.035430999999999,991.97815,5.689257528626618,991.9981506427716,0,0
11.72,-0.25187573,5.7133837,8.134853999999999,991.9932,5.689224435256122,991.9980530007036,0,0
11.74,-0.2327432,5.761049,7.959682499999999,991.95776,5.689142244113133,991.9978216693696,0,0
11.76,-0.28053677,5.70385,8.163262,991.9906,5.689295380136273,991.9975912669936,0,0
11.78,-0.32355058,5.7229166,7.978621,992.0059,5.689368438383709,991.9974175948927,0,0
11.8,-0.28051904,5.699083,8.371578,992.0059,5.69000860520051,991.9972946748828,0,0
11.82,-0.30918458,5.7467489999999986,7.9502169999999985,992.00336,5.690489520028738,991.9972078979324,0,0
11.84,-0.29483625,5.680016,7.921811,991.9932,5.690698175362061,991.9971167933863,0,0
11.86,-0.21357068,5.727681,8.025969,991.9984,5.6908947682907165,991.9970409129536,0,0
11.88,-0.27569926,5.713382,8.120658,991.9831,5.691226540527909,991.9969236777164,0,0
11.9,-0.3091535,5.689549,7.6756244,992.0134,5.690900077981667,991.9968794034213,0,0
11.92,-0.18008545,5.7181478,8.262692,991.9984,5.691012827903418,991.9968457568013,0,0
11.94,-0.14184257,5.8087125,7.8839393,992.01605,5.690980758019185,991.9968851619237,0,0
11.96,-0.15616865,5.713381,8.224817,992.0058,5.691282181599988,991.9969520737068,0,0
11.98,-0.20396225,5.7038474,8.087521,991.99335,5.691633882277053,991.996998229493,0,0
12.0,-0.117912464,5.7467465,8.002303,992.011,5.691933231726247,991.9970894191196,0,0
12.02,-0.18482529,5.6037498,8.115929,991.97815,5.69220934625571,991.9971018123648,0,0
12.04,-0.19915582,5.632349,7.954960000000002,992.006,5.692224433261537,991.9971447965116,0,0
12.06,-0.031853788,5.9088087,7.7750535,991.98065,5.692043126570662,991.9971233960364,0,0
12.08,-0.2086932,5.5703825999999985,8.319511,991.97833,5.692205980721997,991.9970368303508,0,0
12.1,-0.19434938,5.627581,7.921821,991.9882,5.6920588977454925,991.9969285283216,0,0
12.12,-0.03182272,5.737212,8.224824,991.9706,5.692280698728428,991.9967380499468,0,0
12.14,-0.03182272,5.737212,8.224824,992.0112,5.692827647094385,991.9966218062747,0,0
12.16,-0.15607984,5.7324443,7.926558999999999,991.98083,5.693151240605114,991.996462242864,0,0
12.18,-0.16563505,5.675246,8.002310000000001,992.006,5.693335414796024,991.9963555885596,0,0
12.2,-0.18965173,5.6561832,8.0401745,992.00616,5.693438053652291,991.9962966446976,0,0
12.22,-0.11317107,5.7181478,8.0401745,992.00354,5.693540199264631,991.99627063798,0,0
12.24,-0.12272875,5.7276807000000005,7.9360175,991.9681,5.693477348560108,991.9961462441477,0,0
12.26,-0.20397976,5.6132836,8.319505,991.98584,5.693789226000884,991.9959992272784,0,0
12.28,-0.12271927,5.856378,7.9928308,991.97833,5.694163603357381,991.9958057139547,0,0
12.3,-0.17051351,5.7562795,8.234286,992.01373,5.694880306175704,991.9956992530116,0,0
12.32,-0.28522497,5.6371160000000025,8.049644,991.9658,5.695446067117202,991.9954975468112,0,0
12.34,-0.15138665,5.8039455,7.973895,991.9985,5.695943590921747,991.9953301280444,0,0
12.36,-0.22308183,5.7086143,8.153803,991.99365,5.696571027119021,991.9951761483608,0,0
12.38,-0.2852155,5.5656176,8.101725,991.99866,5.697056074046688,991.9950526337784,0,0
12.4,-0.13703777,5.8039455,7.9028797000000015,991.9886,5.697356905888202,991.9949202668117,0,0
12.42,-0.18483007,5.6943145,8.1396,991.9963,5.697762607987957,991.9948082743994,0,0
12.44,-0.18482815,5.761046,7.973896000000001,991.9985,5.698059214448075,991.994722608116,0,0
12.46,-0.28998005,5.7229137,8.291102,991.9887,5.698756261948256,991.9946252319987,0,0
12.48,-0.29475415,5.7801123,7.831865,991.9761,5.699097348449232,991.9944724996263,0,0
12.5,-0.29475415,5.7801123,7.831865,992.0013,5.699122679899911,991.9943621243036,0,0
12.52,-0.34732628,5.6371150000000005,8.163274000000001,991.9786,5.699260204346629,991.9942078530208,0,0
12.54,-0.15612651,5.8039446,7.737178299999999,991.9685,5.698970105046654,991.9939789906443,0,0
12.56,-0.18958324,5.7896447,7.817663,991.9663,5.698420786781986,991.9936771234824,0,0
12.58,-0.18958324,5.7896447,7.817663,991.9963,5.697644400185868,991.9934198360132,0,0
12.6,-0.19913906,5.675247,8.158541,991.9912,5.697107423342189,991.993184505396,0,0
12.62,-0.23736987,5.813477,7.983368400000002,991.9887,5.696655679161916,991.9929604230432,0,0
12.64,-0.37598035,5.575149,8.310042999999999,991.9886,5.69656229333524,991.9927467263533,0,0
12.66,-0.33774003,5.6228147,8.125401,991.966,5.696521842925434,991.9924616157433,0,0
12.68,-0.24214014,5.708613,8.040183,991.9764,5.696479817577077,991.9921518701916,0,0
12.7,-0.093143374,5.8801885,7.6899114,991.98114,5.696056751439473,991.9918385362893,0,0
12.72,-0.33687657,5.6704593,8.120747,992.0087,5.695775306051723,991.9916223757226,0,0
12.74,-0.20300528,5.7800894,8.258047,992.0013,5.6959767971075586,991.9914662156932,0,0
12.76,-0.23642711,5.7657886,8.045002,991.99365,5.696227370033894,991.991336094315,0,0
12.78,-0.26986733,5.6942900000000005,8.120754,991.9911,5.696564672401912,991.9912202691256,0,0
12.8,-0.24589476,5.7610199999999985,8.101824,991.98114,5.697023947094773,991.9910816370192,0,0
12.82,-0.22675715,5.7324199999999985,8.191778999999999,992.0038,5.6977068835943845,991.9910049277968,0,0
12.84,-0.2793166,5.7419524000000015,7.950326,991.9811,5.6981903618214655,991.9909014897878,0,0
12.86,-0.19802319,5.751485,8.243862,992.00146,5.699000628586077,991.9908481025999,0,0
12.88,-0.31270164,5.7610173,7.917191499999999,992.0038,5.699561567557308,991.9908475565112,0,0
12.9,-0.30786672,5.756249,7.869852499999999,991.9764,5.699814576542188,991.9907950627838,0,0
12.92,-0.2887107,5.765781,8.030826,992.004,5.7000757958447945,991.9907962171004,0,0
12.94,-0.34125173,5.6466165,8.18233,991.98395,5.700461669993455,991.9907725906728,0,0
12.96,-0.2886371,5.789613,7.8035808000000015,991.9864,5.700485788342003,991.9907359730348,0,0
12.98,-0.24560046,5.808678,8.073443,991.99896,5.700663847994053,991.9907332241874,0,0
13.0,-0.33637995,5.7038129999999985,7.992961999999999,992.01666,5.700720035667041,991.9908241316983,0,0
13.02,-0.33156335,5.7181115,7.699432400000001,991.9713,5.700192519723654,991.9908341707013,0,0
13.04,-0.23113233,5.818208,8.097127,991.98395,5.699935007495209,991.9908182581496,0,0
13.06,-0.17851768,5.8372736,7.860411,991.9789,5.6995408879988805,991.9907612920897,0,0
13.08,-0.082884796,5.894471,8.182352999999999,991.9714,5.699635094852028,991.9906412562273,0,0
13.1,-0.29793924,5.6227765,7.936167699999999,991.96124,5.699424595907142,991.990429348017,0,0
13.12,-0.20708615,5.6561413,7.98825,991.9762,5.699069106671227,991.9901908802693,0,0
13.14,-0.058893852,5.8372707,7.803610000000001,991.99896,5.698493856368313,991.9900117389988,0,0
13.16,-0.31216824,5.5512753,8.135023,991.9789,5.6979512336181175,991.9898134475116,0,0
13.18,-0.3025903,5.6227736,8.267589,992.0066,5.697750009693976,991.9896986687423,0,0
13.2,-0.015783653,5.76577,8.187104,991.97864,5.697873272111776,991.9895574390146,0,0
13.22,-0.25214994,5.680024,8.3478775,991.9864,5.698462639470649,991.9894212816464,0,0
13.24,-0.18525675,5.6228266,8.404688,991.984,5.699490111319281,991.9892814563824,0,0
13.26,-0.35737795,5.608528,7.779742,991.9965,5.699827382918607,991.9891838935356,0,0
13.28,-0.21403196,5.713393,8.106411999999999,991.99164,5.700223950646444,991.989106528988,0,0
13.3,-0.14238316,5.8039594,8.035391,991.994,5.700657980736022,991.9890557861688,0,0
13.32,-0.25239092,5.603766,8.040119,991.97394,5.70089539746698,991.988956532984,0,0
13.34,-0.25239092,5.603766,8.040119,991.979,5.700958231934033,991.9888329893512,0,0
13.36,-0.17596225,5.9183593,7.902817,992.0014,5.701014771405796,991.9887690674353,0,0
13.38,0.12033741,5.6419004999999975,8.15847,992.0092,5.7011593836616985,991.9887861373877,0,0
13.4,0.39749372,5.9898605000000025,8.021166000000001,991.98914,5.701586589034692,991.988802494303,0,0
13.42,0.6077569,6.1280923,7.7939105,991.9942,5.702084068227568,991.9888363782941,0,0
13.44,-0.071047574,5.4846087,8.783394,991.98914,5.703519400937339,991.9888674112264,0,0
13.46,-0.34830029999999995,5.336846,8.144247,992.0194,5.704506070783397,991.9890047492447,0,0
13.48,-0.51564157,5.9374332,7.490895,991.98914,5.704737710986028,991.9891265880212,0,0
13.5,-1.0080338,5.1271205,8.5655985,991.9967,5.705259762483107,991.9892615090467,0,0
13.52,-0.6782754,5.637143,8.125295,991.99164,5.705784877502192,991.9893892878323,0,0
13.54,-0.6782754,5.637143,8.125295,992.0018,5.706310809035253,991.9895468717312,0,0
13.56,-0.52536994,5.980336,7.557161,992.01685,5.706293032914632,991.989784404126,0,0
13.58,-0.6019190999999999,5.551348,8.409348,992.0017,5.706715486768025,991.9900371838953,0,0
13.6,-0.45376927,5.4560175000000015,8.37147,992.0043,5.707334972376933,991.9903118862372,0,0
13.62,-0.15268984,5.8897752999999975,7.5287414,992.03705,5.70720615196002,991.9907228704359,0,0
13.64,-0.095380396,5.880244,8.30518,992.0068,5.70769796770157,991.9911438937407,0,0
13.66,0.071864545,6.099507,7.827000000000001,992.00934,5.708209930969305,991.9915814159152,0,0
13.68,-0.34883052,5.99941,8.021104,991.98914,5.708944349783772,991.9919592214113,0,0
13.7,-0.4895932,5.7038193,8.267534,991.9993,5.709942317434224,991.9923194771504,0,0
13.72,-0.97226393,5.6704516,7.974009,991.9817,5.71070543957984,991.992599569004,0,0
13.74,-0.74758327,5.4797883,8.286483,991.98926,5.7115280034559825,991.9928350357173,0,0
13.76,0.112840965,6.089906,7.945611,992.0068,5.712502069794407,991.9930933679764,0,0
13.78,0.15113900000000002,5.9802737,7.524255,991.98926,5.712777037058424,991.9933078302361,0,0
13.8,0.28025335,6.175701,7.3585553,991.99176,5.712429531206027,991.9934917568995,0,0
13.82,-0.08292235,5.732409,8.523227,992.03973,5.712907558750605,991.993820732175,0,0
13.84,0.0031737090000000003,6.085133,8.002448,991.99426,5.713658784275923,991.9941129960923,0,0
13.86,-0.19754823,5.9135356,7.9124975000000015,991.9791,5.714288815552187,991.9943171937038,0,0
13.88,0.074990004,6.2805586,7.865162,992.02216,5.7151945645784235,991.994597856816,0,0
13.9,-0.063594475,6.480753400000001,7.159738000000001,992.04987,5.7154927863765375,991.9950448304573,0,0
13.92,-0.26425683,6.042228,7.524295299999999,991.9614,5.715245300246915,991.9953186549768,0,0
13.94,-0.030016646,6.3949523,7.3538594,992.0044,5.714707464438278,991.9955932991647,0,0
13.96,-0.5413960999999999,5.7800650000000005,8.34809,992.0498,5.714793551597174,991.996031118892,0,0
13.98,-0.479199,6.0612907,6.989321,991.96643,5.713550975775501,991.9963114123752,0,0
14.0,-0.69426036,5.7466974,7.832047500000002,991.97925,5.712126317004904,991.9964976586124,0,0
14.02,-0.6703018,6.018389,7.031939,992.0121,5.709591960162912,991.9967183942163,0,0
14.04,-0.31172702,6.1089515999999975,8.494878,992.0273,5.70855543970398,991.9970235299768,0,0
14.06,-0.49332976,5.9516544,8.296037,992.0197,5.708334850545,991.997374783227,0,0
14.08,-0.34503663,6.03745,8.064061,991.99426,5.708540049179403,991.9976739373793,0,0
14.1,-0.56009793,5.8134212,8.059330000000001,992.01715,5.708857557956027,991.9980083838136,0,0
14.12,-0.2445415,6.1518445,7.491208599999997,992.007,5.708740134610591,991.9983362705012,0,0
14.14,-0.34010774,6.175676,7.5858994000000015,992.0374,5.70842842079001,991.9987666206046,0,0
14.16,-0.18709445,6.1232424000000005,7.8983765,992.0197,5.708378261675593,991.9992222381217,0,0
14.18,-0.50725186,5.83248,7.7516174,991.9742,5.707974045875512,991.9995347417024,1,1
14.2,-0.29349333,6.008876,7.8367147,991.9918,5.707602571958088,991.9997830247964,1,1
14.22,-0.34128883,6.0231752,7.5337133,992.0424,5.706787288376284,992.0001558288492,1,1
14.24,-0.30782264,6.047008,7.850919,992.0348,5.7061294420598445,992.000609957526,1,1
14.26,-0.24568003,6.166172,7.6189337,992.0197,5.7053845820504865,992.0010799497777,1,1
14.28,-0.24568003,6.166172,7.6189337,992.0247,5.704565518238097,992.0015802671122,1,1
14.3,-0.29347047,6.0708404,7.671013,991.98474,5.703647286897223,992.0019617225473,1,1
14.32,-0.25044972,6.023175,7.6094656,992.0272,5.702480513482684,992.0023896343688,1,1
14.34,-0.11182779,6.1471050000000025,7.405887599999999,992.01465,5.7009264520552945,992.0028118745703,1,1
14.36,-0.22175822,5.9516764,7.5999985,992.045,5.699098842923285,992.003336843264,1,1
14.38,-0.3077896,5.875411,7.694686999999999,992.01984,5.697099699696275,992.0038601169659,1,1
14.4,-0.28866783,5.861111,7.462700999999999,992.0399,5.694555711007125,992.004452225188,1,1
14.42,-0.1930667,6.047007,7.6284056,991.9868,5.692044025907563,992.0049118640022,1,1
14.44,-0.0066467375,6.4378642999999975,7.5100465,992.0349,5.689892982000452,992.0054259581481,1,1
14.46,-0.2934299,6.3282332000000014,7.9740186,992.0272,5.688676134368683,992.0059585982859,1,1
14.48,-0.5993323,6.2948675000000005,7.760971,992.01465,5.68792886604479,992.006460528158,1,1
14.5,-0.78574204,6.3520660000000015,7.5810633,992.0325,5.687413747315233,992.0069977754916,1,1
14.52,-1.2206992,5.551285,7.263859299999999,992.0373,5.685654310022974,992.0075815752436,1,1
14.54,-0.91956645,5.2986565,8.717321,992.045,5.684920382624479,992.0082321270337,1,1
14.56,-0.7522681999999999,5.708581,8.357507,992.0071,5.684900422911642,992.0088028789382,1,1
14.58,-0.79050153,6.113738,6.7336073,992.0247,5.683392042557527,992.0093644249569,1,1
14.6,-0.55628616,6.1423373,6.7146697,992.0323,5.6805489091787,992.009943175089,1,1
14.62,-0.2933944000000001,6.204303,6.8093586,992.0071,5.6767432084121445,992.0104443232756,1,1
14.64,-0.5849573,6.0279393,7.022407,992.0373,5.672218221112972,992.0109838182492,1,1
14.66,-1.2302258,5.5036182,8.485338,992.0347,5.668976223470585,992.0115458942624,1,1
14.68,-1.3305966,5.451185700000001,8.300697,992.0272,5.666528119177114,992.012098899408,1,1
14.7,-0.7239965,6.4045076,8.864052000000003,992.0247,5.666744618799273,992.0126328987172,1,1
14.72,-0.6188471999999999,6.3568419999999985,9.219131,992.0425,5.66984637052026,992.0132122620712,1,1
14.74,-0.20302328,5.3368,11.458503,992.0423,5.678451516867964,992.0138289033874,1,1
14.76,-0.26994687,5.270068,10.061852,992.0045,5.689227368844183,992.014340183602,1,1
14.78,0.7481323000000001,6.1757145,7.5005383,992.0323,5.6985214635782935,992.0148566061388,1,1
14.8,0.6955482,5.4130654,8.168089,992.0425,5.7066369779504775,992.0154124333104,1,1
14.82,0.34182996,4.65995,9.389564,992.0221,5.715062629008242,992.0159276374393,1,1
14.84,0.8628094999999999,4.740982,9.072357,992.02966,5.723284780248827,992.0164323083123,1,1
14.86,0.9344875,5.4368997000000014,5.6020365,992.0119,5.726287557578398,992.0168619191862,1,1
14.88,0.9583803,5.8706565,5.9287105,992.0121,5.725781871814651,992.0172243804452,1,1
14.9,0.26050985,4.6361184,8.949259,992.0221,5.725677686031151,992.0175622034441,1,1
14.92,-0.6285463000000001,4.9793115,7.154918,992.02466,5.723138207181733,992.0178862559134,1,1
14.94,-0.47559893,5.6609287,6.3974123,992.0095,5.718073616217412,992.0181423981539,1,1
14.96,-0.33699095,5.918323,6.8708525,992.0069,5.711874721640132,992.0183282528044,1,1
14.98,0.40385962,6.695272,8.972926,992.04987,5.7091192530246255,992.0186060242632,1,1
15.0,0.12662463,6.5475087,10.132854,992.02716,5.711208013934561,992.0188822574373,1,1
15.02,-0.21275413,6.2376830000000005,10.033431,992.04974,5.7170529022386205,992.0192374249427,1,1
15.04,-0.15540916,6.385447,11.245438,992.02716,5.7285164269763,992.019579772221,1,1
15.06,-0.7194451,6.466479,8.447402,992.012,5.740184786293957,992.019854983096,1,1
15.08,-0.7433504,6.337782,7.727772,992.0346,5.750660414553965,992.020151241486,1,1
15.1,-0.6286478,4.521724,9.720956,992.0043,5.761536060659223,992.02035595093,1,1
15.12,-1.8570765,4.8458505,6.340589,991.9941,5.767434201191768,992.0204423107714,1,1
15.14,-1.5368358999999998,5.637099,6.454214,992.0044,5.7699782585359065,992.0204608660083,1,1
15.16,-1.1210057,5.675232,7.131232700000001,992.0196,5.770539856586112,992.0204741622982,1,1
15.18,-0.6478241,4.955482,7.1359660000000025,992.00183,5.76836963878707,992.0204187919156,1,1
15.2,-0.30847073,4.9793153,6.8850408,992.0019,5.763358019938487,992.0203031989947,1,1
15.22,-0.21288097,5.079413,6.714602,991.9993,5.755686654287103,992.0201254495734,1,1
15.24,0.06911479,5.079413400000001,6.9134464000000015,992.01434,5.746019088342801,992.0199475625662,1,1
15.26,0.14564979999999994,5.651398,7.491048299999999,992.0295,5.736297192630904,992.0198247703813,1,1
15.28,0.116965994,6.147121,8.310101,992.0219,5.728541808112492,992.0197237420336,1,1
15.3,0.39896446,7.1242649999999985,9.403747,992.0144,5.725601465739308,992.019615307914,1,1
15.32,0.47543138,7.2672625,9.100744,991.984,5.726617785720808,992.0193912804176,1,1
15.34,0.4993254,7.0480003,9.223838,992.0344,5.73104976854923,992.0192473611121,1,1
15.36,0.80522287,6.6380773,9.474761,991.9965,5.73843738662208,992.019038303514,1,1
15.38,1.2736287,6.061324,7.4247619999999985,992.00653,5.744403276141632,992.0188085503273,1,1
15.4,1.6990261999999998,5.670467,8.428455,991.98914,5.750401997059963,992.0184987336306,1,1
15.42,1.4074483,5.227176999999998,7.320603399999999,992.0041,5.753924778939661,992.0181731441563,1,1
15.44,0.4275785,5.689533,6.98446,991.9865,5.755068319801426,992.017771429978,1,1
15.46,-0.27506256,5.522703599999999,3.9686432,991.9992,5.749507184862452,992.017349618182,1,1
15.48,0.035609707000000004,5.12708,8.4142475,991.98914,5.744374866787889,992.0168753506537,1,1
15.5,-0.37545836,5.1842785000000005,7.358475,991.9738,5.73788537724782,992.0163012166032,1,1
15.52,-1.1593611,5.9183292000000005,6.492078,992.0066,5.729912177567438,992.0157589873762,1,1
15.54,-0.6479271,6.504616,7.173832000000001,992.027,5.722411553426008,992.0153203412773,1,1
15.56,0.24587627,6.7381773,9.853502,992.04694,5.7199993949183465,992.0150465843545,1,1
15.58,0.24587627,6.7381773,9.853502,992.02185,5.722092088415301,992.0148291850348,1,1
15.6,0.10725199,7.1767015,8.376368,992.0143,5.726268893180407,992.0146351859296,1,1
15.62,0.06900361,6.857342,7.4342203,992.02435,5.730366764701308,992.0144987416506,1,1
15.64,-0.9252105,6.0946927,9.474748,992.004,5.736852485852301,992.014340384016,1,1
15.66,-0.9443347,6.762011,7.7845645,991.9864,5.74345205783834,992.0140998738277,1,1
15.68,-0.21303466,6.5713490000000006,7.49103,992.00397,5.749323288471833,992.0138508914791,1,1
15.7,-0.18437079,5.041285,7.5715137000000015,991.956,5.752723697493613,992.0134226274672,1,1
15.72,-0.17003636,5.842067,5.507313,991.9915,5.751709603578974,992.0129652919268,1,1
15.74,-0.7292834,6.3568544000000005,5.88133,991.9763,5.74817106239218,992.0124291951925,1,1
15.76,0.37014568,5.6275697000000005,5.928681,992.03937,5.741358316056885,992.0120524870154,1,1
15.78,1.1970485,5.8563647,7.623597,992.02185,5.734804935820717,992.0117548987167,1,1
15.8,1.517289,5.217646,9.2474985,991.98395,5.730662173538718,992.0113918520607,1,1
15.82,0.65691805,4.679025,8.177521,991.9814,5.726001058945331,992.0109630933683,1,1
15.84,0.32232547,5.1604480000000015,8.343225,991.9686,5.7216699729090665,992.0104317350516,1,1
15.86,1.053629,5.6323370000000015,7.827174,992.004,5.717406942611655,992.0099390725965,1,1
15.88,1.0297269,5.827766,8.385834,992.0065,5.714390353058382,992.00949137539,1,1
15.9,0.8958828999999999,6.161425,7.566781,992.00903,5.7115200913954185,992.0090941291867,1,1
15.92,0.0020500124,6.23769,9.441606,992.0319,5.711942398119918,992.0088252235763,1,1
15.94,-0.012292549,6.047028,9.886638,992.0143,5.715840502441805,992.0086073277744,1,1
15.96,0.6903323,6.0660940000000005,9.91031,991.97363,5.722901011172612,992.008288876664,1,1
15.98,1.0153558,5.527474,9.6215105,991.9888,5.731696677855883,992.0079373333065,1,1
16.0,1.5984823,4.9554870000000015,9.327976,991.9309,5.741038292991089,992.0073493751961,1,1
16.02,0.49912113,5.088951,6.974977,991.9384,5.746600411539153,992.0065816376587,1,1
16.04,-0.42816716,4.874456,6.4683948,991.9634,5.747685153058184,992.0057478108753,1,1
16.06,-0.18440351,5.1604495,6.662505,991.9561,5.745471949718094,992.0048323094104,1,1
16.08,0.025904685,5.0746512,7.6519957,992.00385,5.741916715953892,992.004019836002,1,1
16.099999999999998,-0.74843305,4.7457595,8.049685,991.99146,5.737588784342455,992.0032567190888,1,1
16.12,-0.40429354,5.7133703,7.112272,991.9888,5.7320894733419525,992.0025303847957,1,1
16.14,0.3365698,6.44742,7.1880217,991.9786,5.726676410630801,992.0018024464287,1,1
16.16,0.47518092,6.3520894,8.115964,991.9787,5.722721199436492,992.0010760712806,1,1
16.18,-0.0123654455,5.6800045999999975,8.726703,992.0092,5.720266333190558,992.0004634923433,1,1
16.2,-0.17966491,6.299658,7.7656174,992.0038,5.718291231914876,991.9999342290216,1,1
16.22,-0.16532868,6.5427523,8.092292,991.9991,5.717592173409246,991.9994635687262,1,1
16.24,-0.69589955,6.0327306,8.655683999999999,991.9764,5.7183677682058125,991.9989646644417,1,1
16.259999999999998,-0.67678356,6.49032,7.9786644,991.9558,5.719890375526543,991.998368439824,1,1
16.28,-0.8488694,4.4979,10.151754,992.0063,5.723789821744544,991.9978701693684,1,1
16.3,-0.8488694,4.4979,10.151754,991.9635,5.7297754048057925,991.997306164984,1,1
16.32,-1.3937701,4.259572,9.124389,991.9558,5.735566040934036,991.9966583885164,1,1
16.34,-1.6710113999999998,4.9173574,6.572543,991.98615,5.737445489171067,991.9960481830304,1,1
16.36,-1.0353009,4.9411902,6.7761226,991.9912,5.736014428215662,991.9954915520044,1,1
16.38,-0.04589089,4.516967,9.361107,991.99866,5.7357038326353385,991.9950111192426,1,1
16.4,-0.1271507,4.126109,10.222767,991.99603,5.737695444124645,991.994590276825,1,1
16.419999999999998,0.030576468,4.426402,9.517342,991.9886,5.7406158223299215,991.9941968554684,1,1
16.44,0.84791344,5.384481,8.52785,991.9988,5.743566275922137,991.9938657996776,1,1
16.46,0.93394667,5.317749,8.774038000000001,992.0216,5.746909090835918,991.9936731219024,1,1
16.48,0.84312415,5.069888,9.285354,991.9634,5.75123230784709,991.9933938885812,1,1
16.5,0.6471458000000001,5.6514077,8.201174,991.9583,5.755092579015268,991.9930208200196,1,1
16.52,0.23607312,6.390225,9.313758,992.0087,5.761266896577588,991.9927476216864,1,1
16.54,0.5515339,5.846837,9.451056,991.9887,5.769109186898532,991.9924916522014,1,1
16.56,0.5228519,5.3272824,9.612024,991.9784,5.778137098724677,991.9922147476165,1,1
16.58,0.37467158,4.3978043,10.232232000000002,991.9938,5.788474388199657,991.9919757816336,1,1
16.599999999999998,-0.33752555,3.3062634,9.896088,991.9633,5.798467474921296,991.9916613984773,1,1
16.62,0.37465566,5.184286,7.230617,991.9962,5.804931576663956,991.991399948486,1,1
16.64,0.37465566,5.184286,7.230617,991.9937,5.808254196512923,991.991177211459,1,1
16.66,-0.06509259999999999,4.7505302,6.998631,991.9683,5.8078617952194485,991.9908980430607,1,1
16.68,-0.007744476,4.6313663,8.078074,991.99866,5.80596045238998,991.9906793129088,1,1
16.7,-0.19416001,4.883994,8.452091000000001,991.9633,5.803672341815419,991.9903874774203,1,1
16.72,0.04482065,5.7181416,7.4010534,991.9963,5.800196762836647,991.990150896664,1,1
16.74,0.666192,5.9326367,8.390543,991.9886,5.7976482567718906,991.9899362706798,1,1
16.759999999999998,0.80957663,5.78964,8.920796000000003,991.98096,5.796692986390128,991.9897143125856,1,1
16.78,0.76296514,6.5093613,7.1407685,991.9887,5.795126288972727,991.989514538888,1,1
16.8,0.6960884,6.0422378,9.607397,991.9887,5.7965132792115455,991.9893350865093,1,1
16.82,-0.09253873,5.536982,9.228648,991.9887,5.799241127982907,991.9891742360755,1,1
16.84,0.05089596,6.4092603,7.3585625,992.0013,5.801056989867657,991.9890757613828,1,1
16.86,-0.66603404,4.3787065,9.839394,991.9685,5.8042048757158655,991.9889146764027,1,1
16.88,-0.7329108,4.335806400000001,8.835704,992.0115,5.806604476420738,991.98885364888,1,1
16.9,-0.7329108,4.335806400000001,8.835704,991.9634,5.8083342538104175,991.9887080918244,1,1
16.919999999999998,-0.058897562,6.0517650000000005,6.5773990000000015,991.9887,5.807530159197984,991.9885794484798,1,1
16.94,-0.29308772,5.7991376,6.245992,992.00385,5.803637854140368,991.988520753206,1,1
16.96,-0.10183473,4.2261724,9.039297,991.9988,5.800046411718148,991.9885058953504,1,1
16.98,0.59605724,4.2404704,8.419093,992.0013,5.79562500752305,991.988538825726,1,1
17.0,0.85896665,4.4311323,8.0829525,991.9533,5.790095982666827,991.988441063233,1,1
17.02,0.7777708999999999,4.898254,7.2686405,991.9685,5.78265557904503,991.9882828924667,1,1
17.04,0.6105183000000001,5.4273405,6.927767,991.9811,5.773599275409207,991.9881172743648,1,1
17.06,0.14213805,5.446406,8.726844999999999,992.00385,5.766195215093392,991.9880275720222,1,1
17.08,0.027443036,5.637067299999999,8.963567,991.9963,5.760903104773273,991.987978091773,1,1
17.099999999999998,0.31905162,6.0040913,8.916226,991.9784,5.75783965684858,991.9878998898944,1,1
17.12,-0.11584968,5.8706264,9.209764,991.98364,5.757106221013541,991.9878154551108,1,1
17.14,-0.12058893,5.6799626,9.844178,991.98096,5.759356215915947,991.9877161688976,1,1
17.16,-0.53161156,5.246205000000002,8.296032,991.98615,5.761041955831625,991.9876228013916,1,1
17.18,0.61082244,5.1604056,8.565899,991.9912,5.7626155298945205,991.9875531797784,1,1
17.2,0.56306493,4.8076797,8.916248,991.9761,5.764347461120787,991.9874504306737,1,1
17.22,0.5391862,4.874411,7.727914299999999,991.9988,5.764149600202358,991.987400500014,1,1
17.24,0.45319033,5.055539,8.679534,991.9761,5.764122254625216,991.9873156994836,1,1
17.259999999999998,0.27159828,5.0555379999999985,7.3823104000000015,991.9736,5.761952756076843,991.9871913932164,1,1
17.28,0.050292,4.712381,8.655735,991.96375,5.759777022160126,991.9869971671832,1,1
17.3,-0.26997262,4.526486,9.039219,992.0266,5.7581384801626525,991.9869681192586,1,1
17.32,-0.14570658,4.578918,9.025015,991.9887,5.756997877566061,991.9869486872833,1,1
17.34,0.9297226,5.5417633,8.5279,991.9736,5.756491685656345,991.9868834619152,1,1
17.36,0.9297226,5.5417633,8.5279,991.9786,5.756547881320428,991.9867960083172,1,1
17.38,0.69069695,5.3225026,7.7183137,991.9634,5.7554135375957225,991.9866345086881,1,1
17.4,0.69069695,5.3225026,7.7183137,992.00385,5.7532313169044995,991.9865537833844,1,1
17.419999999999998,0.456451,5.251005,8.911381,991.9911,5.752110734295822,991.9864988208859,1,1
17.44,0.313048,5.1413746,8.788285,992.0037,5.7515853236266254,991.986512180267,1,1
17.46,1.2450831,5.9040246,8.139669,992.0115,5.7514747943386615,991.9866139407673,1,1
17.48,1.1016711,5.6513968,8.674655,991.9966,5.752311944571978,991.9867398061584,1,1
17.5,0.9056904,5.637098,9.096017,991.98096,5.754664747558942,991.986830213516,1,1
17.52,0.4420228,6.137587,7.467378599999999,991.99365,5.756138307806791,991.9869346486888,1,1
17.54,0.4420228,6.137587,7.467378599999999,992.0014,5.75682966435346,991.9870790028715,1,1
17.56,0.43720746,5.3654056,9.62153,991.9912,5.7596311754599645,991.9872213898177,1,1
17.58,0.30335522,4.9745483,8.878227,991.971,5.7625335776803075,991.9872888059192,1,1
17.599999999999994,0.3989424,5.203343,7.751436999999999,991.95074,5.76377508990984,991.987216799086,1,1
17.62,0.48496115,5.517936,8.049703,991.9988,5.764432001536705,991.987194873371,1,1
17.64,0.29853988,5.23671,8.324297999999999,991.96576,5.764710499847312,991.9870983342653,1,1
17.66,-0.10777894,4.860153,8.485265,992.004,5.764529273909942,991.9870738783079,1,1
17.68,-0.10777894,4.860153,8.485265,991.9764,5.7639424880404375,991.9870138430624,1,1
17.7,-0.41849285,5.1080146,7.5620537,991.9561,5.761660936624935,991.986849506084,1,1
17.72,-0.15084158,5.522705,7.287455599999999,991.9708,5.7579103912338745,991.9866465197084,1,1
17.74,0.12159835,5.522705,7.5715194000000015,991.9784,5.753348219360983,991.9864374734757,1,1
17.759999999999994,0.27930522,5.0984826,9.039183,991.9814,5.750182955978043,991.98623462532,1,1
17.78,0.15049244,5.06511,8.769344,991.9786,5.7477364308740215,991.9860279040382,1,1
17.8,-0.20322448,5.298672,7.732508,991.98096,5.744370427995263,991.9858270006594,1,1
17.82,0.3703444,6.0851545,7.699366,991.9962,5.7411284728362455,991.9856868252316,1,1
17.84,0.05008991,6.390214,8.740935,991.9688,5.740100981872482,991.9855021736523,1,1
17.86,-0.0741888,6.352082,8.409527,991.9634,5.740434029109867,991.9852594476922,1,1
17.88,-0.117218435,5.131843,9.1954365,992.009,5.741951379223421,991.9851304410221,1,1
17.9,-0.4518085,4.3834940000000016,9.986081,991.9988,5.745307842317308,991.9850656611404,1,1
17.919999999999995,-0.28931043,5.670465,7.012873599999999,991.9659,5.746344889062788,991.9849394252568,1,1
17.94,-0.28931043,5.670465,7.012873599999999,991.98364,5.7453287661545325,991.9848232052992,1,1
17.96,0.059607655,5.5751339999999985,8.267491,991.99365,5.744473763123912,991.984752289806,1,1
17.98,0.17909138,5.4226046,8.456866,991.98364,5.7439218279843125,991.9846856246324,1,1
18.0,-0.10292471,5.394006,8.347973,992.0923,5.743414975076134,991.9850141310367,1,1
18.02,-0.46141762,5.312974,8.20594,992.0342,5.742631946283572,991.9854814684236,1,1
18.04,-0.24633023,5.2414755999999985,8.864023,991.90784,5.7426762129733,991.9856148984524,1,1
18.06,0.11692347,5.7896300000000025,7.5904669999999985,991.92804,5.741885136909702,991.9855255275912,1,1
18.08,-0.026478268,5.727665,8.092314,991.9508,5.741121741490206,991.9853215475991,1,1
18.1,-0.10295896,5.813463,7.741967,991.94824,5.739903242766372,991.9850078173068,1,1
18.12,-0.079071335,6.2948856,7.8319187,991.9608,5.739048178840224,991.9846434570779,1,1
18.14,-0.5809583,4.9602494,9.389538,991.9582,5.739736677793148,991.9842263119343,1,1
18.16,-0.67177844,4.9554834,8.726722,991.93823,5.740587186720344,991.9836921357628,1,1
18.18,-0.074310556,5.813464,7.6662135,991.9814,5.74067043565888,991.9832118860083,1,1
18.2,0.24592866,5.8849620000000025,7.6094,991.9683,5.74007797336553,991.982733854536,1,1
18.22,0.28415573,5.894496,8.049698,991.94824,5.739635635148435,991.9821872880507,1,1
18.24,0.20289524,5.9898267,7.917135000000001,991.9688,5.739220724126282,991.9816561476672,1,1
18.26,-0.4232667000000001,5.765799,8.163322,992.0037,5.7389841134701705,991.9812661898927,1,1
18.28,-0.15983671,5.9612145,8.092357000000002,991.9611,5.739007925012874,991.9808490249196,1,1
18.3,0.045701846,5.9659805,8.26753,991.98645,5.739559367344151,991.98050058146,0,0
18.32,0.036156207,5.8229837,8.324344,991.9583,5.740499075001495,991.9801127747252,0,0
18.34,-0.37010622,5.727652,7.491091,991.98096,5.740278310138272,991.9797731587056,0,0
18.36,-0.50871354,5.5941887,7.7988276,991.971,5.739394775073148,991.9794414906197,0,0
18.38,-0.5086996,5.6561537,7.642594,991.94824,5.73774245183362,991.9790361033322,0,0
18.4,-0.24101663,5.613254,8.040285,991.9814,5.736013829631051,991.9786864131532,0,0
18.42,-0.14541356,5.694286,8.092364,991.9713,5.734405384652027,991.9783508358237,0,0
18.44,-0.15495224,5.8182154000000015,8.06396,991.966,5.73301060457244,991.9780098566864,0,0
18.46,-0.35091025,5.684751,8.078164,991.95074,5.731683142337254,991.9776103960364,0,0
18.48,-0.27441943,5.822981,8.007149,991.9887,5.730462015734748,991.9772973551803,0,0
18.5,-0.22660047,5.6275515999999985,8.163386000000001,992.009,5.729366999357402,991.9771348818012,0,0
18.52,-0.13577022,5.870646,7.9787464,991.9583,5.728364474671088,991.9769235147493,0,0
18.54,-0.3604071,5.6513839999999975,7.959810000000001,991.9583,5.727160298729945,991.9766697061689,0,0
18.56,-0.47511542,5.541753,8.082906,991.9685,5.7258718186175255,991.9764160299652,0,0
18.58,-0.2647901,5.7991467000000005,8.063969,991.9609,5.7247721559229126,991.9761360239634,0,0
18.6,-0.24565688,5.803913,8.357502,991.98364,5.724346084876214,991.975915624974,0,0
18.62,0.26102328,6.075606,8.111316,991.9708,5.724432941134486,991.9757024641773,0,0
18.64,0.2227918,6.142338,7.9361434000000015,991.94824,5.724765204027388,991.9754152504261,0,0
18.66,0.060292438,5.9469085,7.6284084,991.9685,5.7245540570205,991.9751365734539,0,0
18.68,0.04596001,5.9707413,7.794113,991.9761,5.724166157026949,991.9748938028172,0,0
18.7,-0.20256887,5.6942806,7.9976949999999984,991.9633,5.7236265363743,991.9746375529919,0,0
18.72,-0.37941465,5.6132483,7.8698664,991.9384,5.722651814431004,991.9742806754559,0,0
18.74,-0.26468542,5.937374,7.334879400000001,991.98364,5.720810701593537,991.9739990320334,0,0
18.76,-0.17863499,5.8325095000000005,7.9787607,991.9659,5.7191342969664785,991.97372101539,0,0
18.78,-0.27067503,5.7896410000000005,7.803475,991.9761,5.7172677484186325,991.9734839242284,0,0
18.8,-0.046059802,6.3044295,8.054396,991.9938,5.7162957422549425,991.9733475683507,0,0
18.82,-0.18470964,6.209099299999999,7.9549694,991.9912,5.715836111355372,991.9732913530513,0,0
18.84,-0.21344176,6.013672,7.9739027,991.95844,5.715616050953388,991.9731882163416,0,0
18.86,-0.10832165,6.0422720000000005,8.48048,991.9456,5.716489275765094,991.972997767166,0,0
18.88,-0.31866854,5.670482,8.186944,991.9912,5.7173913509805585,991.9728950143127,0,0
18.9,-0.27088827,5.546551,8.759806,991.9708,5.7191629542124405,991.9727966798399,0,0
18.92,-0.16576815,5.374956,8.262691,991.966,5.720629829016638,991.9726853234523,0,0
18.94,0.09708552,5.7562814000000015,7.415228,991.9558,5.720843759454013,991.9725261417841,0,0
18.96,-0.17539886,5.71815,7.2163796,991.9734,5.719578123871813,991.9723886347516,0,0
18.98,0.13047309,6.161441,7.4720345,991.9657,5.718000557711347,991.9722430544524,0,0
19.0,0.24993266,6.3092055,7.959675,991.9736,5.717138916889602,991.9721193047039,0,0
19.02,0.13519953,6.1328425000000015,8.641427,991.98096,5.717822095362372,991.9720417859293,0,0
19.04,0.33111823,6.4045377,7.5051656000000015,991.9658,5.7183600399553525,991.9719508199106,0,0
19.06,0.04429443,6.34734,7.154816,991.99097,5.7181289744073025,991.9719389113848,0,0
19.08,0.0968367,6.213877,7.192688,991.9709,5.71709655632887,991.9719246489308,0,0
19.1,-0.12305201,6.199578,7.363125,991.97577,5.7156106386074015,991.9719258898897,0,0
19.12,-0.23780283,6.361642400000001,7.107464,991.9682,5.713553430951063,991.9719135731978,0,0
19.14,-0.5294241999999999,5.9374194000000005,7.765541000000002,991.9734,5.711514254896599,991.9719080413053,0,0
19.16,-0.41472673,6.066117,7.5051475,991.9657,5.709226920844097,991.9718808043764,0,0
19.18,-0.051497154,6.39501,7.6045669999999985,991.99084,5.707304637605928,991.97192499093,0,0
19.2,-0.061092272,6.371178,7.282624,992.00867,5.705171781408925,991.9720963162014,0,0
19.22,-0.15672392,6.318747,7.396246400000001,991.9882,5.702970147241727,991.972305672473,0,0
19.24,-0.5009231,6.0232224,7.28735,991.95544,5.700172144549314,991.9724299432536,0,0
19.26,-0.15681279,6.318749,7.263675,991.99854,5.6971921180818565,991.9726337451198,0,0
19.28,-0.4425072,6.066095,8.115967999999999,991.9655,5.6951290407596495,991.9727881429664,0,0
19.3,-0.31822345,6.2710567,7.7798257,991.9756,5.6935833768659245,991.9729346915886,0,0
19.32,-0.23695791,6.4569519999999985,7.9076557,991.9932,5.692945406992452,991.9731371370616,0,0
19.34,-0.06487609,6.40452,7.917125,991.97833,5.693053027287383,991.9733347121884,0,0
19.36,-0.24649978,6.0660940000000005,7.874516499999999,992.01105,5.693319582706931,991.9736450646063,0,0
19.38,-0.21781649,6.1471257,7.647265400000001,991.9833,5.693457247528629,991.9739540497701,0,0
19.4,-0.07919333,6.309189,7.6520009999999985,991.9706,5.693696464220397,991.9742149944818,0,0
19.42,-0.22735839,6.0946927,7.812971000000001,991.9831,5.694011368192707,991.9744775512488,0,0
19.44,-0.18433122,6.1280584000000005,7.8603163,991.9831,5.694510383167949,991.9747405872238,0,0
19.46,-0.12696472,6.190024,7.448424,991.98834,5.6945822910048305,991.9750219636973,0,0
19.48,-0.25123078,5.956462,7.552582000000001,991.958,5.694144410044142,991.9752093088797,0,0
19.5,-0.25121742,6.299654,7.652005,992.016,5.693865964191263,991.9755216935713,0,0
19.52,-0.16517651,6.3044205,7.694615400000001,991.96796,5.693800359660273,991.9757704945876,0,0
19.54,-0.32768095,6.1947894,8.078103,991.9706,5.694414275306702,991.9759717213852,0,0
19.56,-0.34678686,6.1042239999999985,7.5999293,991.99084,5.694730171633651,991.9762030511864,0,0
19.58,-0.3515578,6.0994577,7.656743,991.9604,5.694867925758643,991.9763505632147,0,0
19.6,-0.2846361,6.2043222999999985,7.4389606,991.9731,5.694630195056952,991.9764692028152,0,0
19.62,-0.3706637,6.1280565000000005,7.585728,991.9906,5.694202705544338,991.9766249036363,0,0
19.64,-0.23682031,6.1280565000000005,7.6094007,991.9756,5.693638710023388,991.9767587912283,0,0
19.66,-0.27982965,6.194788,7.457901,991.978,5.692802620320827,991.9768815626566,0,0
19.68,-0.30849963,6.023192,8.06864,991.9931,5.692507299853787,991.9770484298648,0,0
19.7,-0.2606971,6.0851574,7.6709504,991.9829,5.692111700671487,991.9772169393823,0,0
19.72,-0.24156901,6.242453,7.382152,992.01324,5.6913707523493935,991.9774955174106,0,0
19.74,-0.24156015,6.113756,7.860328,991.9602,5.6909306235803445,991.9776794050937,0,0
19.76,-0.24155125,6.266285,7.3111377000000015,991.97046,5.690074325795826,991.977815898392,0,0
19.78,-0.26524463,6.0851517,7.661502400000002,991.97534,5.689176676953562,991.977927590636,0,0
19.8,-0.29390702,6.2567472,7.3774395,991.9678,5.688017415224887,991.9779898225768,0,0
19.82,-0.41816545,6.0660844,7.7419906,991.9804,5.686977266338003,991.9780534873579,0,0
19.84,-0.31777304,6.2376795,7.666241599999997,991.978,5.686137771361419,991.9781095490043,0,0
19.86,-0.35122347,6.1614146,8.030791,991.99066,5.685976920518585,991.9782042666988,0,0
19.88,-0.174346,6.2043133,7.8461523,991.958,5.686158821572122,991.9782152238936,0,0
19.9,-0.23168717,6.1852465,7.827215700000001,991.97797,5.686589904052247,991.9782240228644,0,0
19.92,-0.23167071,5.9802839999999975,7.8556237000000015,991.978,5.687025219934131,991.9782309911528,0,0
19.94,-0.35114932,5.9135519999999975,7.42006,992.00574,5.686671087067996,991.9783361807648,0,0
19.96,-0.30334303,5.956451,7.38692,991.998,5.685619273209005,991.9784999160547,0,0
19.98,-0.31766596,5.937384,7.5762978,991.99054,5.6842390562431,991.9786879368593,0,0
20.0,-0.41323733,6.0327150000000005,7.8508954,991.97534,5.683153036832542,991.9788420194693,0,0
20.02,-0.4514510000000001,6.1375785,8.087617999999999,991.98303,5.6828571378462325,991.9789932435935,0,0
20.04,-0.4514510000000001,6.1375785,8.087617999999999,991.99036,5.683260454503138,991.9791677855528,0,0
20.06,-0.47055382,6.123278,7.893509,991.99817,5.683944132833807,991.9793904188,0,0
20.08,-0.36537343,6.1042112999999985,8.220185,991.98535,5.685380504796807,991.9796085920294,0,0
20.1,-0.33189827,6.0327125,8.0592165,991.97546,5.687117558832017,991.9797864349637,0,0
20.12,-0.33189827,6.0327125,8.0592165,991.9828,5.689114042151703,991.9799544258146,0,0
20.14,-0.42268986,5.8563495,7.727810400000001,991.9625,5.690569593716421,991.9800400265974,0,0
20.16,-0.5421603,5.7896175,7.5431714,991.97034,5.691165636497304,991.9800807433536,0,0
20.18,-0.5086934000000001,5.8563485,7.4910929999999984,991.9677,5.6909955993513215,991.980072150003,0,0
20.2,-0.556475,5.975512,7.926660000000001,991.9929,5.6910223501727435,991.9801107371784,0,0
20.22,-0.65683436,5.8754144,7.841442599999999,991.9928,5.690969613371371,991.9801905141527,0,0
20.24,-0.27921337,6.2805705000000005,7.98821,991.98285,5.691563877694571,991.9802705792365,0,0
20.26,-0.53336364,5.746737,7.779821000000001,991.9929,5.69173308091583,991.9803867906592,0,0
20.28,-0.24180444,5.9278655,7.9834003,992.0005,5.69206574895529,991.9805618826256,0,0
20.3,-0.2752897,6.099463,7.476816,991.98505,5.691931813920967,991.9807327511099,0,0
20.32,-0.32787645,6.142362,7.3584557,991.9803,5.691256567964222,991.9808821725987,0,0
20.34,-0.11758281,6.1185300000000025,7.538361,991.99036,5.690352506116897,991.9810483216048,0,0
20.36,-0.38048977,5.765805,8.286394999999999,991.99554,5.690065351786831,991.9812473009088,0,0
20.38,-0.6147090999999999,5.6275744,8.201176,991.96765,5.690039826557952,991.9813741687384,0,0
20.4,0.19783096,6.428357,7.5194187,991.96,5.6900988222576725,991.9814093221454,0,0
20.42,-0.39488247,5.9469357,8.068608,991.95245,5.690515994547981,991.9813361301359,0,0
20.44,-0.61476237,5.656175599999999,7.784542999999997,991.96014,5.690439400502673,991.981195151608,0,0
20.46,-0.5669909000000001,5.7705736,7.571492,991.9778,5.6897077817308315,991.9810583604348,0,0
20.48,-0.7151736999999999,5.713375,7.675648,991.9752,5.688521822964862,991.9809164016568,0,0
20.5,-0.47621018,5.899271,8.414213,991.9776,5.6883768427068535,991.9807790278343,0,0
20.52,-0.39019144,6.1042337,8.101741,991.97253,5.688869993424345,991.9806279478247,0,0
20.54,-0.46189737,6.0375023,8.030724000000001,991.9725,5.6897303444381535,991.980465192916,0,0
20.56,-0.49538273,6.0565690000000005,7.827142,991.9803,5.690603337502723,991.980320787984,0,0
20.58,-0.56708854,6.104235,7.8886886,991.9702,5.691653884126334,991.9801567569497,0,0
20.6,-0.64836305,6.2472324,7.7371855,991.98285,5.6928052144462145,991.9800215148024,0,0
20.62,-0.5527847,6.075637,8.840301,991.98254,5.695653255557426,991.979911081388,0,0
20.64,-0.8252424,5.7658105000000015,8.830832000000003,992.0053,5.699652877081883,991.97990490253,0,0
20.66,-0.61972857,6.0232053,7.552540299999999,991.97253,5.702787858803129,991.979872893242,0,0
20.68,-0.21825172,6.0661044,7.713507000000001,991.97253,5.705428963153361,991.9798181754193,0,0
20.7,-0.47638774,5.6132827,7.954960000000002,991.9751,5.707483272299652,991.9797528413196,0,0
20.72,-0.47638774,5.6132827,7.954960000000002,991.9878,5.7090116936908135,991.9797240818806,0,0
20.74,-0.30912128,5.6514153,7.282671499999997,991.9776,5.70898026952087,991.9796910233454,0,0
20.76,-0.3330469,5.6561832,7.462577,991.9374,5.707874963481707,991.9795095651397,0,0
20.78,-0.30916572,5.670483,7.8460617,991.9903,5.706481085056888,991.9793880742343,0,0
20.8,-0.32351393,5.589452,8.314766,991.9826,5.705540759300471,991.9792922878032,0,0
20.82,0.3121733,5.851613,7.7561054,992.0005,5.704374462764506,991.9792839986768,0,0
20.84,0.21178858,5.8277807,7.888667599999999,991.96497,5.703198180032456,991.9792251440095,0,0
20.86,-0.0798061,5.622819,7.727695,991.96515,5.701491533440473,991.9791224695067,0,0
20.88,-0.20886967,5.537021,7.713491,991.96,5.699198098571882,991.9789629054262,0,0
20.9,-0.22801554,5.551322,8.26268,991.9903,5.697349658615132,991.9788627281447,0,0
20.92,-0.22801554,5.551322,8.26268,991.96515,5.695901070546324,991.9787248456779,0,0
20.94,-0.051189445,5.9660125,7.997550500000001,991.9751,5.694854347823736,991.9785899632857,0,0
20.96,-0.13245496,5.9946127,7.9644084,991.95984,5.694148557951915,991.9784032813358,0,0
20.98,-0.29022402,6.285373,8.125376,991.9699,5.69438584013171,991.9782077173525,0,0
21.0,-0.19941661,6.323506,8.414173,991.98755,5.6959763705401745,991.978068549234,0,0
21.02,0.22595929,6.1995754000000005,8.764516,991.9929,5.699194557900361,991.9779989735073,0,0
21.04,0.22595929,6.1995754000000005,8.764516,991.98285,5.703839357468588,991.9779549600903,0,0
21.06,0.35498738,5.9135833,7.817633,991.96765,5.707796815716325,991.9778789719792,0,0
21.08,0.35498738,5.9135833,7.817633,991.95996,5.711132692323576,991.977747320585,0,0
21.1,-0.40980792,5.498893700000001,7.3015814,991.96,5.7125377002562185,991.9775671030587,0,0
21.12,-0.5914581999999999,5.6132913,7.685065700000001,991.9878,5.713032467886795,991.9774447012816,0,0
21.14,-0.27601779,6.0089164,8.66982,991.98755,5.714835074954284,991.9773729261467,0,0
21.16,-0.1942798,5.875440599999999,8.442613,991.9751,5.7172369836684025,991.9773013231037,0,0
21.18,-0.21818528,5.8230085,8.158547,991.98254,5.719615517619678,991.9772569138913,0,0
21.2,-0.19428946,5.875440599999999,7.9975770000000015,991.9778,5.721756782458281,991.9772196290213,0,0
21.22,-0.19907573,6.008905,7.6093554,991.9775,5.723207142953353,991.977187693446,0,0
21.24,-0.38071787,5.5322495,8.016514,992.00037,5.724145090907958,991.9772429314747,0,0
21.26,-0.18953219,5.589448,8.12067,991.97003,5.724860936881052,991.977265773244,0,0
21.28,-0.20387483,5.598981,8.15381,991.955,5.7254465223091575,991.9772057994477,0,0
21.3,-0.09872559,5.7848773,7.7229785999999985,991.9727,5.725409104215375,991.9771365857229,0,0
21.32,-0.09873201,5.646647,8.471014,991.998,5.7259253480442975,991.9771505367672,0,0
21.34,0.19760938,6.0947037,7.8081975,991.9702,5.726359877269032,991.9771378419777,0,0
21.36,0.07810785,5.880209,7.954962700000001,991.9903,5.726690404589701,991.9771740086304,0,0
21.38,0.12111963,6.1900353,8.120667,991.97253,5.727590751007153,991.9771892470537,0,0
21.4,0.05897899,6.170969,7.869743,991.96234,5.728553366636947,991.9771492544353,0,0
21.42,0.092424735,5.7038465,8.617778,991.9852,5.730261661725496,991.9771428996415,0,0
21.44,0.16411857,5.7515125,8.660386,991.9449,5.7327530781899645,991.9770212101073,0,0
21.46,0.035054207000000004,5.417854,7.9644284,991.98035,5.734337512719001,991.976925668878,0,0
21.48,0.29315716,6.2377014000000015,6.1416825999999975,991.96265,5.733298555630608,991.9767898562401,0,0
21.5,0.3744074,6.619026,7.1075,991.96765,5.731942212913653,991.9766369487107,0,0
21.52,0.3744074,6.619026,7.1075,992.0005,5.7303103110890845,991.9765877466024,0,0
21.54,0.27879846,6.0041410000000015,8.613039,991.98285,5.730069209220862,991.9765668157318,0,0
21.56,0.3839509,5.9993744000000016,7.931285000000001,991.98785,5.729913067725443,991.9765889406776,0,0
21.58,-0.20397465,5.4226212999999985,8.660382,991.9652,5.730389309952035,991.9765674900937,0,0
21.6,-0.24221626,5.7610470000000005,7.6140789999999985,991.9625,5.7300321978957145,991.9764978933928,0,0
21.62,0.087583765,5.980308,7.434170699999999,991.9828,5.728920001718555,991.9764590853322,0,0
21.64,-0.2613516,5.8754444,7.997564,991.9929,5.727946543198012,991.9764839818224,0,0
21.66,-0.4376034,5.9040294,7.670945,991.9702,5.726605683785987,991.9764833580266,0,0
21.68,-0.6526857,5.8134646,8.078105,991.9727,5.725535426423489,991.9764691867515,0,0
21.7,-0.6813467,5.398773,8.002355999999999,991.9753,5.7240915540505055,991.9764524559413,0,0
21.72,-0.20812845,6.194788,6.9607887,991.98535,5.721581266890207,991.9764697037554,0,0
21.74,0.4037131,6.561812400000001,8.073376,991.9878,5.720405424296832,991.9765257329905,0,0
21.76,0.121722385,6.5570455,8.362177,991.9677,5.7208610430882745,991.9765434677838,0,0
21.78,-0.25108457,6.113755,8.078114,991.9678,5.721731550388958,991.9765276617633,0,0
21.8,-0.54263484,6.142354,7.8035197,991.9499,5.722574344168392,991.976417835981,0,0
21.82,-0.09331553,6.027956,7.216455499999999,991.9652,5.722262176662303,991.9762804097104,0,0
21.84,0.0022983104,5.808694,7.363223,991.96,5.7208792386263525,991.9761003703827,0,0
21.86,-0.31793076,5.565599,7.978698,991.9929,5.719292336355512,991.9760017662994,0,0
21.88,-0.38005936,5.7467284,7.609414599999999,991.98303,5.7171358502170815,991.9759399413726,0,0
21.9,-0.29399627,6.0899199999999984,8.016575999999999,991.9602,5.715582315986625,991.9758286490784,0,0
21.92,-0.48517954,6.1042190000000005,8.068655999999999,991.99036,5.714686602686771,991.9757826240707,0,0
21.94,-0.7862806,5.799159,7.9645009999999985,991.95496,5.713864556916822,991.9756669949272,0,0
21.96,-0.7623726,5.9040227,7.6520314,991.9652,5.712718884167438,991.975527143834,0,0
21.98,-0.5329243,5.6084957000000015,8.03552,991.97284,5.7115381834128165,991.9753938976904,0,0
22.0,-0.64284205,5.627561,7.9834429999999985,991.98303,5.710278746288775,991.9753036513664,0,0
22.02,-0.0979178,5.989819000000002,8.4994955,991.9804,5.710221794643215,991.9752422565692,0,0
22.04,-0.0979178,5.989819000000002,8.4994955,991.95013,5.711227564192362,991.9750976040027,0,0
22.06,0.10285173,6.3091784,7.585757000000001,991.98303,5.712064262806785,991.9749983456212,0,0
22.08,-0.37510198,6.094682700000001,7.893495599999999,991.97534,5.712982421935201,991.9749118708704,0,0
22.1,-0.20302022,5.679991200000001,8.215436,991.9753,5.7139904634289325,991.9748368590456,0,0
22.12,0.040785298,6.02795,7.694655,991.9602,5.714627220726463,991.9747178859047,0,0
22.14,0.040785298,6.02795,7.694655,991.9501,5.7149336189819575,991.9745241368485,0,0
22.16,-0.18862751,5.7228900000000005,7.756203699999999,991.97546,5.714668695735327,991.9743563092892,0,0
22.18,0.029925168,6.0184484000000005,7.836567999999999,991.98553,5.714399101765909,991.9742482421443,0,0
22.2,0.096808165,5.7086234000000005,8.3810215,991.97534,5.714666662284879,991.9741566843436,0,0
22.22,0.04897587,5.5417943,7.8365617,991.97534,5.714279777870224,991.9740800438077,0,0
22.24,0.22103171,5.832555,7.230556,991.9577,5.712680387400908,991.9739533560718,0,0
22.26,0.025025517,6.1471480000000005,7.779743700000001,991.973,5.711310006507603,991.9738379827068,0,0
22.28,0.25438756,6.1137843,8.68401,991.9931,5.711618594867472,991.9738053820636,0,0
22.3,0.13965516,5.8849897,8.949133999999997,991.96533,5.7135931986563575,991.9737460647597,0,0
22.32,-0.23796645,5.88499,8.357331,991.96533,5.716019669544346,991.9736633541572,0,0
22.34,-0.037248947,5.9231234000000015,7.7418559999999985,991.9831,5.717846610991581,991.9736242429937,0,0
22.36,0.26382732,6.237717,7.1500505999999975,991.958,5.718605824730254,991.9735334370947,0,0
22.38,0.05349885,5.9707913,7.685036999999999,991.97546,5.7189173932380895,991.973460136629,0,0
22.4,-0.07559012,5.8945265,7.864941,991.9653,5.719033702153355,991.9733659918455,0,0
22.42,-0.051725388,6.1471550000000015,7.5761395,991.973,5.7188263266849075,991.9732814879443,0,0
22.44,-0.17127186,6.0232263,7.845996,991.95526,5.718617192459438,991.9731419429404,0,0
22.46,-0.09959191,6.1805224,7.51932,991.9681,5.7180769257108786,991.9730004899808,0,0
22.48,-0.080506936,6.1376247,8.1774,991.9806,5.7182663426166185,991.9729028603813,0,0
22.5,-0.21435854,6.004161,8.163195,991.97546,5.718914736238366,991.9728258005698,0,0
22.52,0.16795723,6.3235226,7.893327,991.9829,5.719923867779551,991.9727939776384,0,0
22.54,-0.14276427,5.9564980000000025,7.4766965,991.9831,5.7200947279138825,991.9728029605768,0,0
22.56,-0.09020353,6.03753,7.434085400000002,991.96796,5.719559495990423,991.9727934632429,0,0
22.58,-0.15239236,6.1948276,6.965375,991.9706,5.717873333977108,991.972777174931,0,0
22.6,-0.2671248,6.0565977,7.30625,991.9806,5.715531894492855,991.9727909447487,0,0
22.62,-0.32451665,5.918369,8.139503,991.9756,5.713815019591425,991.9728132243588,0,0
22.64,-0.29109228,5.7229410000000005,7.902778599999999,991.9881,5.712017557837247,991.9728879430147,0,0
22.66,-0.45323157,5.603768,7.841265700000001,991.9678,5.709920037479522,991.972935647824,0,0
22.68,-0.3719838,5.7419980000000015,7.718170599999999,991.9681,5.707520293778964,991.9729603914611,0,0
22.7,-0.2286163,5.718166,8.229484,991.9881,5.705686627989326,991.97303675753,0,0
22.72,-0.05178131,5.6991,7.9880276,991.978,5.70392144693825,991.9731221022612,0,0
22.74,0.35449314,6.0613585,8.15373,991.9604,5.702957402195183,991.9731517132976,0,0
22.76,-0.099614844,5.6800346,7.9690866,991.9554,5.701916152911132,991.9731139714412,0,0
22.78,0.21105464,6.0136943,8.144258500000001,991.9858,5.7015159216474975,991.97312629244,0,0
22.8,0.29708225,6.0994925,8.343102,991.9655,5.702126479918253,991.9731097246216,0,0
22.82,-0.06620949,5.9946294,8.125316999999999,991.9756,5.703125700664523,991.9731040502887,0,0
22.84,-0.027979925,5.9946294,8.220004,991.98834,5.7046230652286685,991.9731538858673,0,0
22.86,-0.21441004,5.9278975,7.3678102,991.9984,5.705069423633006,991.973288806595,0,0
22.88,-0.14751054,5.8325667,7.954874,992.00116,5.705429845124817,991.9735083588464,0,0
22.9,0.0006456077,5.8039684000000005,8.243671,991.97833,5.7061635454293524,991.9737197131236,0,0
22.92,-0.08062884,6.089962,7.4908996,991.98065,5.706335977504327,991.9739314147964,0,0
22.94,-0.7307088,5.7324705,7.637664,991.95557,5.705852049500643,991.9740523733008,0,0
22.96,-0.38658953,5.885001,8.712371000000001,991.963,5.706750540850093,991.9741194636913,0,0
22.98,-0.33880925,6.070897,7.798629300000001,991.95544,5.707553718506071,991.9741114986913,0,0
23.0,-0.39617574,5.9517336,8.1631775,992.006,5.708730014014157,991.9742192594217,0,0
23.02,-0.29581767,5.899302,8.480381,991.9504,5.710698242312765,991.9742287274694,0,0
23.04,0.17258535,6.1233306,7.7418127,991.9706,5.712397868533139,991.9742240300174,0,0
23.06,0.28728288,5.9755673,8.34308,991.97314,5.7146731302074345,991.9742159768408,0,0
23.08,0.28728288,5.9755673,8.34308,991.9532,5.71744883242679,991.9741332035373,0,0
23.1,0.5118981,6.256796,7.580837700000001,991.95807,5.7197762835722505,991.9740022375134,0,0
23.12,0.25855082,6.128099,7.680258999999999,991.93567,5.721670562114903,991.9737485198798,0,0
23.14,0.11036797,5.8897714999999975,7.595038400000001,991.9658,5.722724029528406,991.9734957203073,0,0
23.16,0.20740531,5.7038400000000005,7.5951705,991.96075,5.722799914318122,991.9732264620116,0,0
23.18,0.21220542,5.7133727,7.4957504,991.96075,5.721859155735233,991.9729436301184,0,0
23.2,0.39387858,5.9040339999999984,7.779818,991.95825,5.720744856843269,991.9726408227893,0,0
23.22,0.14536934,5.9469322999999985,7.386866,991.9659,5.718878435481413,991.9723489952713,0,0
23.24,-0.16525704,5.656171,8.163314,991.95825,5.717286110564048,991.9720403800932,0,0
23.26,-0.12697801,5.842066,7.9360657,991.98065,5.715780764907385,991.9717986823532,0,0
23.28,0.1455114,6.4426510000000015,7.618864500000001,991.9406,5.714614332507898,991.9714728029744,0,0
23.3,0.41322106,6.6666775,7.950277000000002,991.9734,5.714593278413584,991.971191793864,0,0
23.32,0.29374617,6.5618134,8.272217999999999,991.99084,5.7159565587551615,991.9710142277562,0,0
23.34,0.01179868,6.17572,8.115988,991.95825,5.717780844495593,991.9708113791237,0,0
23.36,0.01181899,6.123287,8.253287,991.9734,5.7201685899426895,991.9706414611068,0,0
23.38,-0.012059763,6.00889,8.078117,991.9659,5.722611559783716,991.9704742522873,0,0
23.4,-0.29878715,5.994589,7.5762753,991.9735,5.724258391895255,991.9703373992661,0,0
23.42,-0.44214064,6.1566505,7.2543397,991.9329,5.724903505431692,991.9700817012993,0,0
23.44,-0.48035878,6.1900163,7.0270899999999985,991.9811,5.724353482972753,991.9698954324507,0,0
23.46,-0.39426142,6.0756172999999984,8.201229,992.0037,5.72448950891353,991.9698525417398,0,0
23.48,-0.15045083,6.1042156,7.675712599999999,991.98346,5.724387485269376,991.9698636303572,0,0
23.5,-0.045254573,6.0803814,7.5810285,991.9381,5.72388861997064,991.9697590791902,0,0
23.52,0.10773976,6.2043114,7.543157000000001,991.9685,5.723143217577664,991.969662165094,0,0
23.54,0.012184277,6.1614113,7.211753,991.93317,5.7215962658872925,991.9694451600044,0,0
23.56,-0.04989229,5.942148,7.491088,991.971,5.7195054600714155,991.9692590117309,0,0
23.58,0.0791827,6.1089769999999985,7.467417200000001,991.9634,5.717121257434307,991.9690734386743,0,0
23.6,0.11744143,6.3139386,7.202292999999999,991.9231,5.714342017647935,991.9687439619424,0,0
23.62,-0.1788455,6.313937,7.571582,991.9558,5.711809017271524,991.9684062380388,0,0
23.64,-0.33175862,6.175706,7.841447,991.9811,5.7097656783945085,991.9681535227407,0,0
23.66,-0.31785533,5.9850545,8.078127,991.9634,5.708311705010213,991.9679131108217,0,0
23.68,-0.26525593,6.1280503,7.382172,991.95105,5.70642592770704,991.9676399756507,0,0
23.7,-0.24612594,6.1280503,7.401110000000001,991.95355,5.704194630392144,991.9673479095017,0,0
23.72,-0.29388085,5.93262,7.604693400000001,991.9583,5.701744156884612,991.967057267378,0,0
23.74,-0.29388085,5.93262,7.604693400000001,991.9558,5.699108840997898,991.9667599298348,0,0
23.76,-0.07398834,6.0756164,7.879291,991.9586,5.696944099210311,991.9664678266344,0,0
23.78,-0.29383773,5.9945846,7.528947,991.99146,5.694534625064491,991.9662996960707,0,0
23.8,0.055109546,6.1947794,8.125483500000001,991.9764,5.693142422186093,991.9661874969987,0,0
23.82,-0.18384832,5.9516839999999975,7.7988133,991.9988,5.691811081494527,991.9662057629097,0,0
23.84,-0.18383753,5.9707503,7.9692526,991.9534,5.69084472555582,991.9661758019217,0,0
23.86,-0.38456774,5.9659830000000005,7.623642999999999,991.9737,5.689640310676332,991.966176415506,0,0
23.88,-0.2602713,5.951683,7.8366933,991.99896,5.6885537224214735,991.9662949785733,0,0
23.9,-0.2124409,5.89925,7.888775,991.9787,5.687593625943338,991.9664443989766,0,0
23.92,-0.03078676,5.980281,8.243857,991.99146,5.68743822181355,991.9666664830087,0,0
23.94,-0.09291345,5.8897166,8.201248,991.9739,5.687813219668333,991.9668887571206,0,0
23.96,-0.20759639,5.794384,8.002407,991.96625,5.688208062378515,991.9670828590002,0,0
23.98,-0.14543734,5.8229823,8.059221,991.9687,5.6887472132340475,991.9672601891288,0,0
24.0,-0.26013112,5.8420489999999985,7.9692698,991.97363,5.6892889930274215,991.9674398093497,0,0
24.02,-0.32703757,5.7657833,7.974004300000002,991.96606,5.689749976823555,991.9675935544627,0,0
24.04,-0.3413662,5.7371836,8.187054,991.9613,5.690465010977838,991.9677067468488,0,0
24.06,-0.21705899,5.7228837,8.130244,991.9586,5.6912810545512365,991.9677739793524,0,0
24.08,-0.19313839,5.7705480000000025,8.291216,991.9814,5.692513237194675,991.9678824396667,0,0
24.1,-0.35564095,5.6132517,8.172857,991.946,5.693729820985622,991.967899498418,0,0
24.12,-0.06404056400000001,5.7896137,8.224938,991.9664,5.695213557513681,991.967909173336,0,0
24.14,-0.33168800000000004,5.651383,7.671015,991.97864,5.695837370508308,991.9679563530698,0,0
24.16,-0.32689738,5.5751176,7.926674,991.95844,5.6960372303065885,991.9679637822113,0,0
24.18,-0.16982292,5.556068,8.125459,991.98895,5.696170307391468,991.9680458969847,0,0
24.2,-0.016874224,5.7085977,8.239082000000002,991.9864,5.696615165035727,991.9681845283696,0,0
24.22,0.06437734,5.794395400000001,7.9928940000000015,991.97144,5.69701995475471,991.9683187427593,0,0
24.24,-0.02644398,5.651399,8.149128999999999,991.9864,5.6974804970177,991.9685024271196,0,0
24.26,0.13606422,5.8134627,8.059175,991.9638,5.698032385486928,991.968647801883,0,0
24.28,0.1695178,5.746731,8.343238000000001,991.9588,5.699066684089253,991.9687408029373,0,0
24.3,0.15517588,5.7657967,8.267488499999999,991.9741,5.700416224211724,991.9688422717779,0,0
24.32,-0.012122348,5.7800970000000005,7.8177185,991.9613,5.701294950446379,991.9689047774674,0,0
24.34,0.035673156,5.77533,7.955016599999999,991.99164,5.701978964302964,991.9690418542957,0,0
24.36,-0.021692097,5.694299,7.902937400000001,991.96643,5.702301973554484,991.9691535727056,0,0
24.38,0.045220107,5.6990657,7.8555923,991.9589,5.702231064418394,991.9692153742308,0,0
24.4,0.0021942258,5.646634,8.092313,991.9716,5.70214984931359,991.9692785667113,0,0
24.42,0.12168424,5.718132,8.120719,991.9716,5.702195013468088,991.9693427607467,0,0
24.44,0.016520962,5.618035,7.874528999999999,991.95636,5.701812386998258,991.9693527446581,0,0
24.46,0.0021790266,5.6799994000000025,7.9455442,991.9614,5.701248078699509,991.9693329365613,0,0
24.48,0.026075497000000003,5.8039303,7.8697940000000015,991.9716,5.700549287148213,991.9693235955552,0,0
24.5,0.083428085,5.7610316,8.229608,991.9613,5.700290156791603,991.9692864568982,0,0
24.52,-0.031294838,5.675234,7.7798386,991.95636,5.699555534810697,991.969207105936,0,0
24.54,0.05473657,5.6323347,8.191730999999999,991.9993,5.699050752519883,991.9692453258448,0,0
24.56,0.04039207,5.7324324,8.191730499999998,991.9338,5.698869309711935,991.9691514937828,0,0
24.58,0.04039207,5.7324324,8.191730499999998,991.9766,5.698974222865161,991.9690953983952,0,0
24.6,-0.045654543,5.656168,8.111246000000001,991.97406,5.699103919632906,991.9690637050768,0,0
24.62,-0.11735411,5.608502400000001,8.03076,991.9791,5.699062408789785,991.9690718315221,0,0
24.64,-0.02176565,5.7038335999999985,8.229605000000001,991.9742,5.699320778508701,991.9690974734558,0,0
24.66,-0.020709664,5.6752086,7.974042999999999,991.9995,5.69937431014614,991.9692295797639,0,0
24.68,0.041446224,5.6370754000000005,8.149218,991.9892,5.699499312986349,991.9694182024106,0,0
24.7,0.09885903,5.679973,8.082941,991.98413,5.699625857898577,991.9696378318524,0,0
24.72,0.022400573,5.679973,7.978786,991.9791,5.699575592375064,991.9698659602327,0,0
24.74,-0.140076,5.675205,7.860429300000002,991.9892,5.699165624581437,991.9701371370128,0,0
24.76,-0.2499747,5.6609050000000005,8.253387,991.9791,5.699094539586579,991.9704090151221,0,0
24.78,-0.33121294,5.5846395,8.187108,991.95135,5.699124963679039,991.9705806341652,0,0
24.8,-0.3885338,5.5322065,8.291269,991.9765,5.699367726374067,991.9707535864686,0,0
24.82,-0.26422215,5.618004,8.040349,991.9616,5.699458753323378,991.9708734542128,0,0
24.84,-0.23548812,5.584636,8.172917,992.0045,5.699601065302596,991.9711004249159,0,0
24.86,-0.18289188,5.6084685,8.035621,991.9515,5.699579241343758,991.9712304147,0,0
24.88,-0.058543414,5.6513658,8.215534,991.9868,5.699767424328072,991.9714013241804,0,0
24.9,-0.08720386,5.5989330000000015,7.9314723,991.9741,5.699594234904247,991.9715620550296,0,0
24.92,-0.015488401,5.6322985,7.443830499999999,991.95135,5.698324142736747,991.9716313134103,0,0
24.94,0.118401244,5.494067,7.240256299999999,991.9566,5.695580218224308,991.9716383973872,0,0
24.96,0.1040986,5.594164,7.7326374000000015,991.9918,5.692489654460897,991.9717172385583,0,0
24.98,-0.70843124,5.6132293,8.37652,991.98193,5.690275430218687,991.9718236685586,0,0
25.0,-0.70843124,5.6132293,8.37652,991.9893,5.688843510784682,991.9719806249001,0,0
25.02,-0.44070703,6.042218,8.797887,992.002,5.68930058062868,991.9722273812737,0,0
25.04,-0.27335873,4.9459085,8.348124,991.96674,5.689398806750663,991.9724256606328,0,0
25.06,-0.27335873,4.9459085,8.348124,992.01965,5.689179604945831,991.972770867896,0,0
25.08,0.061282724,4.9030085,8.906789,991.9716,5.689637223086183,991.9730716779093,0,0
25.1,-0.12509285,5.055537,7.8983636,991.96405,5.689051946946742,991.9733049955968,0,0
25.12,0.04223706,5.3462963,8.376542,992.01965,5.688708624858067,991.9736779971213,0,0
25.14,0.061393067,5.4273267,9.110377,991.97925,5.689967266671108,991.9740276404783,0,0
25.16,0.023191437,5.341528,8.76477,991.9695,5.691929244382691,991.9743202858432,0,0
25.18,-0.10104669,5.2128305,8.362349,991.98456,5.693654256819001,991.9746157302587,0,0
25.2,-0.2157436,5.0650663,7.9788632,991.9822,5.694329507730648,991.9749040883153,0,0
25.22,-0.2156884,4.9411345,8.296075,991.9716,5.6945013421885085,991.9751469867759,0,0
25.24,-0.13437657,5.127029,8.357626,991.9895,5.694534015148678,991.9754132827036,0,0
25.26,0.013834134,5.4845195,8.537537,992.0024,5.695153532934692,991.9757457339673,0,0
25.28,-0.21555966,5.1413264000000005,8.911557,992.01465,5.696586905985758,991.9761795432615,0,0
25.3,-0.21555966,5.1413264000000005,8.911557,992.0097,5.69873424140603,991.9766835307984,0,0
25.32,-0.28718317,4.9411297,8.248747999999999,992.00714,5.70011040356798,991.977238497475,0,0
25.34,-0.2345685,4.9983273,8.992053,992.0019,5.7021944790271615,991.9778176474396,0,0
25.36,-0.18673370000000009,5.246187,8.769539,991.9642,5.704751338416735,991.9782803608174,0,0
25.38,-0.1723575,5.265253,8.329243,991.9923,5.706957536264797,991.9787396850592,0,0
25.4,-0.24403617,5.227119999999998,8.315042,991.98724,5.708781879818911,991.9791761450928,0,0
25.42,-0.25835717,5.2223525,7.9220877,992.00714,5.709571129550032,991.9796624710564,0,0
25.44,-0.3634761,5.1174874,7.931559599999999,991.9694,5.709347583443442,991.9800552437821,0,0
25.46,-0.43035656,5.0030894,8.532833,992.0098,5.709174781594733,991.9805093788846,0,0
25.48,-0.44943893,5.1174855,8.315053,991.977,5.708783908536358,991.9808980188973,0,0
25.5,-0.45896178,5.074586,8.840575999999997,991.9669,5.7090951435119175,991.9811910283444,0,0
25.52,-0.45894343,5.065052,8.736421,992.0073,5.7098284212692025,991.98154392379,0,0
25.54,-0.2890942,5.332033999999998,8.466356,991.9921,5.710725656267653,991.98189374408,0,0
25.56,-0.17917460000000002,5.446432,8.3764,992.0147,5.711729875529675,991.9823209478096,0,0
25.58,-0.25088757,5.10324,8.594183000000001,991.98706,5.712836050514215,991.982715485613,0,0
25.6,-0.29392967,5.093707599999999,8.319583999999999,991.9645,5.713531985004475,991.9829985234676,0,0
25.62,-0.23657997,5.1747394,8.210691,991.9897,5.713756333484844,991.9832727410319,0,0
25.64,-0.107541196,5.346335400000001,8.376395,991.982,5.714040268975675,991.9835104578036,0,0
25.66,-0.4230321,4.984078,8.494753,991.99207,5.7142101466058,991.9837513186952,0,0
25.68,-0.34179136,5.141375,8.859301,992.0073,5.7150908116505885,991.9840489186316,0,0
25.7,-0.50432056,5.21764,8.556297,991.98956,5.716150660186628,991.9843317178282,0,0
25.72,-0.44697088,5.3987690000000015,8.168076,992.0098,5.71688045762112,991.9846732850143,0,0
25.74,-0.35617056,5.441669,8.262762,991.9795,5.7175214952877145,991.9849564699541,0,0
25.76,-0.39920467,5.355871,8.395324,991.98975,5.718219305064374,991.9852239488748,0,0
25.78,-0.23669928,5.279607,8.329041499999999,991.9823,5.7187527358129895,991.985449767033,0,0
25.8,-0.27018976,5.7514963,6.7856229999999975,992.00226,5.717133395699728,991.9857098167964,0,0
25.82,-0.27018976,5.7514963,6.7856229999999975,991.9795,5.7136176968773125,991.9859172414267,0,0
25.84,-0.30366433,5.4702697,8.376381,992.02,5.710745490561272,991.9862232197612,0,0
25.86,-0.2893408,5.4893364999999985,8.381114,992.00494,5.7084812438024235,991.9865609626263,0,0
25.88,-0.41363162,5.3558736,8.418987,992.01996,5.706687159537183,991.9869796287566,0,0
25.9,-0.26069380000000003,5.4559712,8.404783,991.9495,5.70539184712238,991.9872146354857,0,0
25.92,-0.016955614,5.5608363,8.153857,991.9925,5.704221431280201,991.9874413147437,0,0
25.94,-0.016955614,5.5608363,8.153857,991.97217,5.703165587546628,991.987586631803,0,0
25.96,-0.11734739,5.3987737000000005,8.329028,991.9671,5.702332863853173,991.9876412820821,0,0
25.98,0.06426130000000001,5.556071,8.627294000000001,991.9975,5.7023973929997815,991.9877250624534,0,0
26.0,-0.169965,5.298677,8.305352000000001,991.9823,5.702405080808139,991.9877795605644,0,0
26.02,-0.06003746400000001,5.351108999999999,8.243803999999999,991.9823,5.7023112490000845,991.9878079886772,0,0
26.04,-0.05446025,5.3367900000000015,8.281754,991.98737,5.7021780539909015,991.9878315309987,0,0
26.06,-0.04488416,5.3796883,8.258080999999999,991.99994,5.702017646206581,991.9878959234824,0,0
26.08,-0.11657293,5.3796883,8.253347999999999,992.00757,5.701826749765921,991.9880236473564,0,0
26.1,-0.18347372,5.3320227,8.319632,991.98987,5.701673633357933,991.9881431510408,0,0
26.12,-0.23125528,5.3844543,8.376446000000001,992.00256,5.701714732708517,991.9883006451524,0,0
26.14,-0.33161467,5.260524,8.319633999999999,991.97974,5.701695277320982,991.9884089886273,0,0
