Timestamp,Ax,Ay,Az,P,LPFRMSAcc,LPFPValue,Value,Type
0.0,0.5379815,5.569185299999999,7.6469603,1004.97833,0.019694034720822724,3.617921988,0,0
0.02,0.5905518,5.5882515999999995,7.661163,1005.0010000000001,0.05677243161154146,10.41969693744,0,0
0.04,0.85820574,5.893311499999999,8.546495,1004.9784,0.11098148366467486,20.010156613790397,0,0
0.06,0.7864858,5.8265805,8.120397,1005.0010000000001,0.17931845084573172,32.03025382000396,0,0
0.08,0.6956619,5.736016,8.0825205,1004.9813,0.2597058723170943,46.153835477662255,0,0
0.1,0.42319787,5.459556,8.0683155,1004.9759,0.350068496187918,62.085191662649535,0,0
0.12,0.23198293,5.4071245,7.883672,1004.9984,0.448528130669128,79.55662553771876,0,0
0.14,0.23675518,5.4786230000000025,7.741639,1004.9956699999999,0.5536308496288908,98.32596506979412,0,0
0.16,0.34668303,5.5072220000000005,7.6564198,1004.99097,0.6641224614374016,118.17454749808464,0,0
0.18,0.34666783,5.1783304,8.466001499999999,1004.9985,0.7800014993619097,138.90532116072905,0,0
0.2,0.16979988,5.0305676,8.125123,1004.9906599999999,0.8994498919717919,160.34093998886303,0,0
0.22,0.38609332,5.678789599999999,7.8790436,1004.9781,1.021958968076715,182.3221465614423,0,0
0.24,0.33353257,5.645424,8.343017999999999,1004.99817,1.1474779254756968,204.70637437335213,0,0
0.26,0.72073096,5.8932839999999995,8.432974,1004.98834,1.2756914623910642,227.3660931442116,0,0
0.28,0.58215094,5.373728,8.503993,1004.9778,1.4053318494107463,250.18762279482388,0,0
0.3,0.7399359000000001,5.1258655,8.319355999999999,1004.97546,1.5351911487027166,273.0699626080435,0,0
0.32,0.5726599,5.111566000000002,8.0163555,1004.9604,1.6642046464051925,295.9236036416154,0,0
0.34,0.22378568,5.15923,7.4245595999999985,1004.9880400000001,1.7910071940448828,318.66971282976965,0,0
0.36,-0.067730896,5.573919,7.950083,1004.9778,1.91678339322653,341.23888402223565,0,0
0.38,-0.010356098000000001,5.936177,7.4482384,1004.9827,2.040814956036173,363.5704814254186,0,0
0.4,0.4915576,6.126837999999999,8.48981,1005.0232,2.1648471845896284,385.6119106777395,0,0
0.42,0.25261885,5.421387,9.015334,1005.0028,2.2885200563130352,407.31752476665037,0,0
0.44,0.25261885,5.421387,9.015334,1005.0104,2.4114301780032084,428.6482997264521,0,0
0.46,0.7067345,5.7073792999999995,8.508756,1004.9981,2.532698174739658,449.5710317619177,0,0
0.48,0.4773382000000001,5.5977473,8.01638,1004.99536,2.6510789658402425,470.05788537011216,0,0
0.5,0.43915123,5.6692452000000015,7.097911,1004.9928,2.7650393238317337,490.0858349109803,0,0
0.52,0.36747134,5.4118505,7.107381,1004.9878,2.874363672490864,509.6361781996119,0,0
0.54,0.69732916,5.07819,7.367777999999999,1004.99786,2.9792700491717405,528.6941635839281,0,0
0.56,0.58742803,5.3117504,7.6423770000000015,1005.0079,3.0806227216581084,547.2485289206078,0,0
0.58,0.44406825,5.8408375,7.2115490000000015,1005.0174599999999,3.178398272441877,565.2911342839839,0,0
0.6,0.45364499999999996,6.0314994,7.987992999999999,1005.0154,3.274175907127642,582.8165877396407,0,0
0.62,0.27206385,6.0553308,9.521945,1005.00256,3.3704786964916633,599.8219479131961,0,0
0.64,0.037887737000000005,5.483343,9.460401,1005.0403,3.4661654658733974,616.3066702300623,0,0
0.66,0.17653637,5.059119,8.603475999999999,1004.9799,3.5589838514406886,632.271794496417,0,0
0.68,0.606753,5.2926793,7.249439999999999,1004.9975,3.6468844748404985,647.7203908379811,0,0
0.7,0.73584205,5.416608999999999,8.153715,1005.00995,3.7318279479402787,662.6570129783703,0,0
0.72,0.41511714,5.011463,8.821222,1005.0076,3.814553839080834,677.0874744148958,0,0
0.74,0.4438029000000001,4.968564,9.199974000000001,1005.0277,3.8956698205030715,691.0188149523162,0,0
0.76,0.5250666,4.8970655999999995,9.465102,1005.0151,3.9754962989843583,704.4589340773528,0,0
0.78,0.58243823,4.8827653,8.859099,1005.0101,4.052778857035924,717.4166075335562,0,0
0.8,0.8166626,5.211657499999999,8.371457000000001,1005.01996,4.12704194349205,729.9013798683372,0,0
0.82,0.9122725,5.2068905999999995,8.229425,1004.9820599999999,4.198132821403596,741.9232151518235,0,0
0.84,0.90751356,4.7207017,9.133699,1004.99457,4.267288247713603,753.4927656857652,0,0
0.86,1.0126764000000001,4.8255653,8.788089,1005.0149,4.333976001240044,764.6211002210878,0,0
0.88,0.7163495,5.254555,8.314651,1004.99475,4.397796545549563,775.3194417557025,0,0
0.9,0.21926375,5.2164226,7.424583,1005.0046,4.457221544567874,785.5993629053677,0,0
0.92,0.4104699000000001,5.121091000000002,8.286247,1004.9795,4.513947772204489,795.4724697267525,0,0
0.94,0.4582749,5.054359,8.792829,1005.0097,4.5689221378462825,804.9506809431117,0,0
0.96,0.43438983,4.9780940000000005,9.280474,1005.0046,4.622956909439997,814.0458224824918,0,0
0.98,0.8645931999999998,5.4976482,8.754956,1005.0021,4.6756214465914185,822.7697321457507,0,0
1.0,0.9315242,5.416616,8.541908,1004.9895,4.726435239650949,831.1341698884819,0,0
1.02,0.8837473,5.531013,7.9927205999999975,1004.9946,4.774604823210085,839.1508846263605,0,0
1.04,0.69734186,5.4213824,7.9359074000000005,1004.99994,4.8200073499282965,846.8315103680951,0,0
1.06,0.47270500000000004,5.4452147,8.234177,1005.0247,4.8633146145850095,854.1876067561667,0,0
1.08,0.28151983,5.554844999999999,8.101614,1004.9971300000001,4.904498204865981,861.2303678083446,0,0
1.1,0.028204128,5.640643,7.6187057000000005,1005.0096,4.942934756509708,867.9709567099388,0,0
1.12,0.42972165,5.221185,8.4566965,1005.02716,4.979779095713662,874.4203433952316,0,0
1.14,0.25766265,4.6444316,9.55508,1005.0147,5.0164957019172665,880.5891611541333,0,0
1.16,0.5588042,5.097254,8.821249,1005.00464,5.052086410313444,886.4878242497442,0,0
1.18,0.65441424,5.3784804,8.158434,1004.99194,5.085702650620712,892.1264977777271,0,0
1.2,0.64964837,5.621575,7.471946000000001,1004.9819,5.11657895616507,897.5151091550528,0,0
1.22,0.6879008000000001,5.526243,8.243654,1005.0196,5.146118909228985,902.6635023350997,0,0
1.24,0.7122029000000001,5.187808,8.897039,1004.9844400000001,5.175151701204646,907.5809779245824,0,0
1.26,0.7026724,5.0209775,8.665056,1005.0045,5.203040783376583,912.2767840349213,0,0
1.28,0.9034533000000001,5.1973400000000005,8.456745,1004.9689,5.229669068976809,916.7596899314908,0,0
1.3,0.88436335,5.3498683,7.898088499999999,1004.9866300000001,5.254283384576337,921.0384025659461,0,0
1.32,1.0660396,5.3260345000000004,8.328923,1005.0092,5.277784439139458,925.1213679205133,0,0
1.34,0.7601613,5.06864,8.428349,1004.9868,5.300052679022508,929.0165916632953,0,0
1.36,0.9035700000000001,5.1353717,8.006988,1004.9939999999999,5.320508652273577,932.7319300324297,0,0
1.38,0.68850803,5.0781717,8.276850999999999,1005.007,5.339663313361553,936.2749932672798,0,0
1.4,0.717216,5.292667,8.101681,1005.0219999999999,5.357534577442202,939.6531331658313,0,0
1.42,0.92277676,5.6263247000000005,8.149028,1005.0012,5.374709912136332,942.8733106207944,0,0
1.44,0.808076,5.4833274,8.390483999999999,1004.99445,5.3914377706926055,945.9422955217647,0,0
1.46,0.53567094,5.3546295,8.257924000000001,1004.9966,5.407295862110792,948.866646076384,0,0
1.48,0.40664542,5.244998000000002,8.111161,1004.99445,5.421935945139449,951.6526623205707,0,0
1.5,0.48793125,5.5357575,7.9170527,1004.9791,5.435457420701556,954.3063614495798,0,0
1.52,0.33499205,5.464258,7.822365799999999,1005.0065300000001,5.447681998565908,956.8336906067537,0,0
1.54,0.4545309,5.4976234,8.376296,1005.0069,5.459718104208566,959.2402622038484,0,0
1.56,0.52146274,5.5214553,8.579875999999999,1004.9765,5.471932390418839,961.5313593231073,0,0
1.58,0.34465373,5.163963,9.081727,1004.9941,5.484751916498356,963.7122386041214,0,0
1.6,0.5358751,5.349858,8.390507000000001,1005.0063,5.497046791200464,965.7879221578503,0,0
1.62,0.5454784,5.3021913,7.9786177,1004.9912,5.508064558831178,967.7631279461574,0,0
1.64,0.4594564999999999,5.254525,8.144322,1004.99896,5.518138443825438,969.6424687760992,0,0
1.66,0.45472049999999997,5.421354,7.888669,1005.0042,5.5270917858964825,971.4303565658416,0,0
1.68,0.57423013,5.4928513,8.276892,1004.9992,5.535786699717346,973.1309820532213,0,0
1.7,0.65551597,5.38322,9.005993,1005.0115,5.545390911038877,974.748424598478,0,0
1.72,0.56808376,5.6025160000000005,8.210485,1004.9939,5.554607050078431,976.2864805429126,0,0
1.74,0.49637276,5.5596175,7.8743405,1005.01166,5.5628151361040805,977.7489174214604,0,0
1.76,0.28125370000000005,5.273624400000001,8.423528999999998,1005.0163,5.5707060070615295,979.139289224628,0,0
1.78,0.40548676,5.2307262,8.622371000000001,1005.0214,5.57860190504259,980.4609973486982,0,0
1.8,0.6014308,5.2068944,8.816478,1005.00397,5.5868142951322985,981.7172133486714,0,0
1.82,0.6778937,5.197362,8.71232,1005.02136,5.595090837821388,982.9111007341924,0,0
1.84,0.9120761999999999,5.235494999999999,8.669708,1005.0063,5.603397284844557,984.045562345396,0,0
1.86,0.93594736,5.0734324,8.390375,1005.0065,5.611036586164987,985.1234320006116,0,0
1.88,1.0458548,5.2259636,7.8932604999999985,1005.0139999999999,5.617382366296519,986.1474436727581,0,0
1.9,0.81160265,5.1020335999999995,8.196259,1005.02655,5.622904205516517,987.1202251690448,0,0
1.92,0.72553825,4.8494067,8.92062,1005.02405,5.6286983767869465,988.044228668555,0,0
1.94,0.86413854,4.87324,8.87801,1005.01624,5.63468102310128,988.9217774015157,0,0
1.96,0.99315137,4.9066067,9.029506,1005.0062,5.641141288272798,989.7550833833141,0,0
1.98,0.9883576999999999,5.0639033,8.418766999999999,1005.02405,5.647064165066229,990.5463608286512,0,0
2.0,1.0743662,5.3641973,7.902714299999999,1004.9757699999999,5.6519454060521745,991.2974794523681,0,0
2.02,1.0934714,5.3117657,7.6943984,1005.0187400000001,5.655477094679588,992.0105644062556,0,0
2.04,0.67280686,5.068672,7.89324,1005.0087,5.65778516422197,992.6874395596479,0,0
2.06,0.53895843,5.135404599999998,7.3771887000000005,1004.99835,5.658172597812871,993.329845722771,0,0
2.08,0.38119698,5.473831,7.751203999999999,1005.02124,5.657884250779422,993.9395648279044,0,0
2.1,0.2903388,5.745526,8.745425,1005.0235,5.659018294336188,994.51821479582,0,0
2.12,0.50062233,5.3642015,8.655469,1004.9881,5.660838227357916,995.067201494205,0,0
2.14,0.4719156,4.9638114,8.26251,1005.00323,5.662125387750613,995.588055843519,0,0
2.16,0.4193238,5.0400767,8.182025,1004.9931,5.662871633673454,996.082140905536,0,0
2.18,0.4957587000000001,5.24504,8.655461,1005.0083,5.66420526600585,996.5508486390744,0,0
2.2,0.50527656,5.164009,7.647029400000001,1004.9803,5.664199950241027,996.9953448173284,0,0
2.22,0.42534345,5.17351,7.4151645,1004.9881,5.662617453193882,997.4168755590912,0,0
2.24,0.45881474,5.2450075,7.4199,1004.99286,5.6597437939410575,997.8166136664996,0,0
2.26,0.4110420999999999,5.2116413,8.205813000000001,1005.0027,5.6570521887623695,998.1956921690069,0,0
2.28,0.42540680000000003,5.2974385999999996,8.4709425,1005.0056,5.655093180308744,998.5551616020135,0,0
2.3,0.5257954,5.3784695,8.433069,1005.003,5.6538218122031,998.8960010112512,0,0
2.32,0.7026735,5.4833336,8.589306,1005.0003,5.653575200367587,999.2191421896132,0,0
2.34,0.4637214,5.006677,8.897046000000003,1005.003,5.654245367100183,999.5254916229308,0,0
2.36,0.48286593,4.8875127,8.532498,1004.9927,5.6549447374754935,999.8158639323675,0,0
2.38,0.54979587,4.9685435,8.447282000000001,1004.98,5.655606164265957,1000.09102779483,0,0
2.4,0.5928521,5.121073,8.030657000000001,1004.97,5.655665113567897,1000.35172688364,0,0
2.42,0.42080462,4.9494762,8.617725,1004.96234,5.656030920178486,1000.5986788057317,0,0
2.44,0.30132216,4.925643,8.6556015,1005.01025,5.656701271057947,1000.8327671803908,0,0
2.46,0.5642368000000001,5.149670599999999,8.518307,1005.0026,5.657651528896452,1001.0546190663907,0,0
2.48,0.42088073,4.9780736,8.821311999999997,1005.0076,5.659194541495764,1001.2648781242208,0,0
2.5,0.48303086,5.0400386,8.769233999999999,1004.9975,5.661231229635362,1001.4641004664724,0,0
2.52,0.5690927,5.130602,8.788175,1005.0024,5.663834303091671,1001.6528712064068,0,0
2.54,0.69339293,5.1973332999999995,8.934942999999997,1004.9847,5.667277097266389,1001.8316636158696,0,0
2.56,0.71733004,5.1115346,8.560928,1004.9744,5.67069447738132,1002.000958439854,0,0
2.58,0.69822353,5.1210675000000005,8.409429,1004.9872,5.6738155049333665,1002.1612978159427,0,0
2.6,0.79862475,5.373694,8.310008999999999,1005.00464,5.676783040489579,1002.3132097205175,0,0
2.62,0.59311855,5.0972333,8.494653,1005.0098,5.679596108362148,1002.457146804406,0,0
2.64,0.43539768,4.9304037,8.764516,1004.9920699999999,5.682556031182642,1002.5934553352341,0,0
2.66,0.56927025,5.1115317000000005,8.182186999999999,1004.99677,5.684801228975061,1002.7225494858667,0,0
2.68,0.6553194,5.1734967,8.32422,1004.98926,5.686736081318963,1002.8447772352167,0,0
2.7,0.46415263,4.935168,8.262675,1005.00964,5.6880005055330125,1002.9605711804955,0,0
2.72,0.71182966,4.987622,7.973797,1004.98175,5.688245200970994,1003.070162954294,0,0
2.74,0.77873546,4.959022,8.494580000000001,1004.98413,5.688491750532696,1003.1738885269873,0,0
2.76,0.7404913000000001,4.897058,8.499313,1005.00684,5.688676984760443,1003.2721390683214,0,0
2.78,0.8408558,4.9208903,8.16317,1004.98413,5.688249538419655,1003.3651164139984,0,0
2.8,0.62096775,5.0495877,8.43303,1004.98914,5.687864607836497,1003.4531176815483,0,0
2.82,0.57315826,4.9399576,8.5040455,1005.0092,5.6875239631073615,1003.5364774979016,0,0
2.84,0.5444624,4.720696,8.665013,1005.0017,5.687288279370358,1003.6154090326393,0,0
2.86,0.6209335,4.863693,8.4803705,1004.9866300000001,5.686965985124207,1003.6900893322156,0,0
2.88,0.94116896,5.1067877,8.215242,1004.9865,5.686408297015027,1003.7607439233257,0,0
2.9,1.0463188,5.0781884,8.229445,1004.9735,5.685660790801718,1003.8275402419064,0,0
2.92,0.8933539,4.9256597,8.215241,1004.9842,5.684527356996022,1003.8907254441333,0,0
2.94,1.0128317,5.1449213,8.4330225,1004.9889,5.683701407626227,1003.950509317222,0,0
2.96,0.9650280000000001,5.116321599999999,8.32413,1004.9784,5.6829172430240975,1004.0070347539412,0,0
2.98,0.89332527,5.068656400000001,8.447225,1005.0016,5.682325280275348,1004.0605610647124,0,0
3.0,0.7260091999999999,4.882761,8.968007,1004.9812,5.682622794503149,1004.1111712130768,0,0
3.02,0.5252518,4.806496599999999,9.005881,1004.9884599999999,5.6836737463105695,1004.1590485798043,0,0
3.04,0.56825286,5.0352917,8.267313,1004.99603,5.684295305787972,1004.2043661541576,0,0
3.06,0.56825286,5.0352917,8.267313,1004.9758,5.684535216588459,1004.2471859247013,0,0
3.08,0.48219359999999994,4.849396,8.006919,1004.9707599999999,5.683765040829929,1004.2876263406247,0,0
3.1,0.5347656999999999,4.792198,8.390406,1004.98834,5.68273684043829,1004.325882061308,0,0
3.12,0.55387354,4.615835700000001,8.7786255,1004.9932,5.68201712965123,1004.3620871606836,0,0
3.14,0.8597639000000001,4.968561,8.664997999999999,1004.9985,5.681763265463427,1004.396369072713,0,0
3.16,0.9649139000000001,5.073425299999999,8.584513000000001,1004.97565,5.6819070654022275,1004.4287459815207,0,0
3.18,0.85018134,4.987628,8.409338,1004.98334,5.681977448133031,1004.4593507566092,0,0
3.2,0.95054597,5.054360400000001,8.404603,1004.9904,5.682064211309341,1004.488304913154,0,0
3.22,1.0700352,5.106792400000002,8.324117,1004.9904,5.682104694420028,1004.5156963481897,0,0
3.24,1.4380687,5.316521,8.7123375,1004.9931,5.683107990206749,1004.5416180733336,0,0
3.26,1.2659901000000002,5.22119,8.745478,1004.99335,5.684868358080398,1004.5661487446068,0,0
3.28,0.69718206,4.6825695,8.707600999999999,1004.9652,5.686558644685358,1004.5892606302632,0,0
3.3,0.6684861,4.7636012999999995,8.575036,1004.9803,5.6880161881945135,1004.6110900341603,0,0
3.32,0.7019333999999999,4.725469,8.508754,1005.00037,5.689109167476093,1004.6317799033206,0,0
3.34,0.8309766,4.5443406,8.778614,1004.96545,5.6902123817892125,1004.6512626840587,0,0
3.36,0.88353735,4.8494005,7.7701835999999975,1004.99536,5.689827994263793,1004.6697164194563,0,0
3.38,0.88353735,4.8494005,7.7701835999999975,1004.99286,5.688130545548932,1004.6871854569438,0,0
3.4,0.8500616,5.183059,8.390389,1005.0028699999999,5.686727583956731,1004.7037575628224,0,0
3.42,1.3136854,5.545318599999999,8.792812,1005.0179400000001,5.686793959348518,1004.7195317323508,0,0
3.44,0.5632448,4.973332,8.414059,1004.99036,5.686728661680259,1004.7344447703096,0,0
3.46,0.5488997,5.040064,8.352511,1004.9949,5.686506908711518,1004.7485595694768,0,0
3.48,0.55366814,5.163995,7.836459599999999,1005.01544,5.685379673026904,1004.7619921755706,0,0
3.5,0.5106442,5.1020293,7.8222556,1005.00006,5.683356185547159,1004.7747182704835,0,0
3.52,0.5727646,4.944733599999998,8.513477,1004.98975,5.6816057944374965,1004.7867371621744,0,0
3.54,0.6223274999999999,4.877959,8.660406,1005.0152,5.680305045306105,1004.798179521089,0,0
3.56,0.5028486,4.901791,8.437889,1005.0126300000001,5.6790158792594125,1004.8090620111498,0,0
3.58,0.78490543,5.1448846,8.939741,1004.99225,5.678932573009646,1004.8193372561274,0,0
3.6,0.6702224,5.1401167,8.703024000000001,1005.0047599999999,5.679469177335799,1004.8290839844676,0,0
3.62,0.73715574,5.211615,8.262725999999999,1005.00226,5.679859464378393,1004.8383196272847,0,0
3.64,0.36915928,5.0829163,7.9739320000000005,1004.9897,5.679426132031473,1004.84702521062,0,0
3.66,0.22101764,5.1734805,8.17278,1004.9747,5.678706679307273,1004.8551770932968,0,0
3.68,0.47915936,5.311709400000002,9.223821000000001,1005.00726,5.6797730139141365,1004.8629275952941,0,0
3.7,0.46961588,5.3212423,9.881905,1005.0047599999999,5.683616128743335,1004.8702865355156,0,0
3.72,-0.089588925,4.9160843000000005,8.849807,1004.9747,5.687593186679805,1004.8771647835677,0,0
3.74,0.33108228,5.159178,8.229604,1004.96155,5.690831916661447,1004.8835461903253,0,0
3.76,0.43147433,5.125811,8.712516,1004.9868,5.694235927663063,1004.8895565150516,0,0
3.78,0.15427794,4.9780474,8.617828999999999,1004.9819,5.697432379015727,1004.8951996745253,0,0
3.8,0.5558137,5.5405,8.215408,1005.0071,5.7003740380419154,1004.9005888114079,0,0
3.82,0.48414898,5.106743,8.821416000000003,1004.99695,5.703661472571548,1004.9056975530364,0,0
3.84,0.7327471999999999,4.9399123,8.868764,1004.99194,5.707187944646146,1004.9105221099484,0,0
3.86,0.5033327999999999,4.8350472,8.31484,1004.9920699999999,5.709776949521438,1004.9150786608403,0,0
3.88,0.47944987,4.8731794000000015,7.647289999999999,1004.9993,5.71038324128211,1004.919408026029,0,0
3.9,0.97181815,5.4737644,8.002375,1005.01965,5.710613997707844,1004.9235943242163,0,0
3.92,0.68028235,5.330767,8.414271000000001,1004.98676,5.711010992349772,1004.9275207337273,0,0
3.94,0.9479837,5.640592,8.627322999999999,1004.99695,5.712316532946304,1004.9312400545296,0,0
3.96,0.7711631999999999,5.5929255,8.693605999999999,1004.9763,5.714451129351232,1004.9346886621944,0,0
3.98,0.78551877,5.454695,9.058158,1004.98145,5.7178028970427,1004.9379041927432,0,0
4.0,0.5847993,5.059069999999998,9.114974,1004.9664,5.721882082394709,1004.9408480204421,0,0
4.02,0.3984353,5.4928254999999995,7.4200610000000005,1004.98926,5.724093732758874,1004.9436234697232,0,0
4.04,-0.0037967120000000003,5.6978054,7.1075234,1004.9894400000001,5.7243748242240535,1004.946240796217,0,0
4.06,-0.06593351,5.769304,7.438932,1004.9987,5.723582468427062,1004.9487423190407,0,0
4.08,0.24475498,6.036231,8.139624000000001,1005.0091,5.723345851311612,1004.9511699522592,0,0
4.1,0.08702335,5.6167739999999995,7.8555600000000005,1004.99896,5.722605278769094,1004.9534870531427,0,0
4.12,0.20651911,5.6072407,7.5714955,1004.9914,5.720936898237251,1004.955670930092,0,0
4.14,0.56022656,5.6978054,8.106483,1005.01904,5.719494842454222,1004.9578287324159,0,0
4.16,0.6892818000000001,5.7168717000000004,7.7372003,1005.0065,5.7176767828784785,1004.9599105831132,0,0
4.18,1.2007221000000001,5.912300599999999,7.983389999999999,1005.0118,5.716284985069216,1004.9619369082898,0,0
4.2,0.9091553,5.5357428,8.603597,1004.9917,5.715824383749488,1004.963834516346,0,0
4.22,0.78966093,5.7168717000000004,7.8934355,1004.9586,5.715163962905798,1004.9654923985656,0,0
4.24,0.70840555,6.2030606,7.7229977,1005.0014,5.714646992590011,1004.96708657066,0,0
4.26,-0.10415988,5.845568,8.3432045,1005.0138,5.7147923424164935,1004.9686633494679,0,0
4.28,0.6367116,6.036231,8.542049,1005.0014,5.716127579351423,1004.970174443165,0,0
4.3,0.34992462,5.4499445,8.721956,1004.98895,5.71811798731534,1004.9715772375604,0,0
4.32,0.4742008,5.4404106,7.5525594,1004.9887,5.7186629314215205,1004.9728783886324,0,0
4.34,0.6653941999999999,5.8360353,7.3915896,1004.9914,5.7181805769369625,1004.9740947635208,0,0
4.36,0.6797343000000001,5.545275,7.6188410000000015,1005.0013,5.716805573943473,1004.9752674912236,0,0
4.38,0.45030564,5.1448846,8.054406,1004.9812,5.7148967754735,1004.9763250704532,0,0
4.4,0.84225076,5.6978050000000025,7.595169500000001,1005.0038,5.712448634643836,1004.9773584572072,0,0
4.42,0.62238044,5.473777,8.049672,1004.9633,5.709994621336975,1004.9782209472968,0,0
4.44,0.52678627,5.473777,7.7845454,1005.0038,5.707079968769544,1004.9790751281296,0,0
4.46,0.29257715,5.292648000000002,8.423689999999999,1004.98584,5.704645396554465,1004.9798542358524,0,0
4.48,0.29257715,5.292648000000002,8.423689999999999,1004.9911,5.7026437877986975,1004.980583140187,0,0
4.5,0.3260377,5.5595745999999995,8.149094999999999,1005.0013,5.700860692239416,1004.9813017807525,0,0
4.52,0.34993798,5.62154,8.674615,1004.9985,5.7002591166436885,1004.9819986851454,0,0
4.54,0.07749042,5.33078,8.295862,1005.0059,5.699702885940442,1004.9827005146004,0,0
4.56,-0.007975921,5.3116994,8.196492,1004.9930400000001,5.698993054414082,1004.9833578732544,0,0
4.58,-0.19436419,5.635825,8.040258,1005.0009,5.6982614034533965,1004.9840018670172,0,0
4.6,-0.23733427,5.9504160000000015,8.759892,1004.9881,5.6991171193673775,1004.9845856531848,0,0
4.62,-0.30423948,5.902751,7.689918,1004.97833,5.699515322919595,1004.9850789662912,0,0
4.64,0.38408846,5.683488400000001,8.168096,1005.0313,5.700046818389435,1004.9856812534732,0,0
4.66,0.10687183,5.283097,9.219135000000001,1005.0210599999999,5.702082309621552,1004.9863407979146,0,0
4.68,0.54664993,5.7835846,8.286461,1004.9906,5.704387368881714,1004.9869389045108,0,0
4.7,0.44629812,5.912281,7.6425834,1004.9780000000001,5.705992890966868,1004.9874352114427,0,0
4.72,0.10217632,5.80265,7.538428999999999,1005.0107,5.706643658280388,1004.9879575014868,0,0
4.74,0.049610525,5.9980782999999995,7.5715714000000025,1004.9831,5.706751884978748,1004.988401509964,0,0
4.76,0.059182137,6.2602386,7.2827740000000025,1004.9981,5.706264321295304,1004.988828750419,0,0
4.78,-0.22758198,6.584364,7.7372785,1004.9934,5.70641277762663,1004.9892227165833,0,0
4.8,0.102260605,5.459455999999999,8.636819000000001,1005.0032,5.707238910888963,1004.9896211433064,0,0
4.82,0.16442211,5.631051,7.9882073,1004.9859,5.707739416750165,1004.9899597970433,0,0
4.84,0.068838075,6.069573999999999,6.818811,1005.0034,5.706608300792415,1004.9903074162154,0,0
4.86,-0.23226547,6.0600404999999995,8.021352,1004.9725300000001,5.70596574928754,1004.9905505738176,0,0
4.88,-0.27047977,5.888444,7.4863663,1004.9755,5.704661162162997,1004.9907112458093,0,0
4.9,-0.09837075,6.0362062000000005,8.07817,1005.0182,5.703932419397602,1004.990952175096,0,0
4.92,-0.46640360000000003,5.731146,8.116046,1005.0056,5.70342785239675,1004.9912177923836,0,0
4.94,-0.42334926,6.0505047,7.770438,1004.9934,5.702937813928669,1004.9914603477664,0,0
4.96,-0.46635544,6.050504,7.60947,1004.9856,5.702203775572434,1004.9916535724506,0,0
4.98,-0.055256203,5.740677400000001,8.608432,1004.9776,5.702533394976678,1004.9917737129207,0,0
5.0,-0.031345114,5.654879,8.736262,1005.0057,5.703925596804547,1004.9919300036736,0,0
5.02,0.13120432,5.716843,8.419061,1005.0032,5.705775006761477,1004.9921086741696,0,0
5.04,0.049959704,5.5833793,8.447467999999999,1004.9803,5.707914898356763,1004.9922240361927,0,0
5.06,0.18381827,5.4117827000000025,8.461674,1004.965,5.7101373275598215,1004.9922279635465,0,0
5.08,0.38459414,5.52618,7.850938,1004.9901,5.711515521523395,1004.9922237730873,0,0
5.1,0.4419759,5.488046,8.352786,1004.9851,5.712965074001665,1004.992194424814,0,0
5.12,-0.0551117,5.135321,8.343319000000001,1004.98834,5.714042364877076,1004.9921546167508,0,0
5.14,-0.4231205,5.511878,7.4343166,1004.97284,5.7136793763768825,1004.9920499097257,0,0
5.16,-0.5330319,5.6644073,8.021385,1004.98773,5.7132294752369805,1004.9919418389231,0,0
5.18,-0.65729475,5.5881419999999995,8.068729,1005.0002,5.712709839752432,1004.9918760769419,0,0
5.2,-0.4373997,5.5261765,8.059264,1004.9801,5.712015818895957,1004.9917755757788,0,0
5.22,-0.27963004,4.88269,8.651067,1004.9828,5.711494648890088,1004.9916544608777,0,0
5.24,-0.24614735,4.935121499999998,8.158691000000001,1004.9902,5.710297864777675,1004.9915422076924,0,0
5.26,0.08369523,5.330744999999999,8.641604,1004.9901,5.709787745802497,1004.9914378288297,0,0
5.28,-0.07880606,5.154382,8.452228999999999,1005.003,5.709358956393597,1004.991387223483,0,0
5.3,-0.011852652,5.0971828000000015,8.731563000000001,1004.9901,5.709440603286338,1004.9913378745939,0,0
5.32,0.045517042,5.016151,8.845189,1005.0005,5.710093878760433,1004.9913272535672,0,0
5.34,-0.19402184,5.0304637,8.243869,1004.98285,5.710191522994328,1004.9912873507152,0,0
5.36,-0.19401229999999997,5.235426,8.00715,1004.99286,5.709609472319426,1004.9912577540927,0,0
5.38,-0.3469565,5.0352296999999995,9.219158,1005.008,5.710385864642091,1004.9912918746022,0,0
5.4,0.121473834,5.61675,8.310153,1004.9752,5.711363570746973,1004.9912640927356,0,0
5.42,0.28399664,5.7359133,8.447453,1004.9901,5.712897491679318,1004.9912353539447,0,0
5.44,0.14060728,5.478519,8.783595,1004.9778,5.7152048272857,1004.9911615930748,0,0
5.46,-0.2369877,5.2449574,8.201264,1004.9826,5.716908672823888,1004.9910655962352,0,0
5.48,-0.13660227,5.3927207,8.13025,1005.0182,5.718113077578387,1004.9910784572812,0,0
5.5,-0.026652515,5.3879538,8.33383,1004.9649,5.719218488654143,1004.9909955788553,0,0
5.52,-0.05532655,5.478518,8.461659,1004.9826,5.7205580117272445,1004.990892123394,0,0
5.54,0.22191156,5.7454453,7.884063,1004.9878,5.721429150057548,1004.9907895785043,0,0
5.56,0.3318566,5.092427,9.152884,1004.9700300000001,5.7233828067617445,1004.9906242353572,0,0
5.58,0.45614576,5.8598419999999996,7.2969985,1004.9954,5.723979516013043,1004.990495330905,0,0
5.6,0.5899850999999999,6.017138,7.495844,1005.0104,5.7239165401864645,1004.9904530877398,0,0
5.62,0.12635835,4.882697,9.129215,1004.9854,5.7247745725216586,1004.9903975705632,0,0
5.64,0.23151882,5.240189,7.671019,1004.9777,5.724238440484817,1004.9903028043318,0,0
5.66,-0.21776846,5.2592550000000005,7.689958,1005.01025,5.722526508624152,1004.9902908787942,0,0
5.68,-0.31813484,5.268788,8.082913000000001,1005.0003,5.720477685274668,1004.9903163742256,0,0
5.7,-0.31813484,5.268788,8.082913000000001,1004.975,5.718138560369719,1004.9902837630417,0,0
5.72,-0.27032244,5.2163553,8.641575999999999,1005.0205,5.716473749294084,1004.9903637262524,0,0
5.74,-0.036107323999999996,5.292619999999999,9.0061245,1004.9927,5.716135466970536,1004.9904427923308,0,0
5.76,0.30327302,5.5833797,8.187075,1004.9978,5.715865058819407,1004.9905391410657,0,0
5.78,0.322397,5.664411,8.063981,1004.9927,5.715542392738688,1004.9906320538997,0,0
5.8,0.04518266,5.4165497,7.9740275999999986,1004.9927,5.714717326162508,1004.9907215962855,0,0
5.82,0.13600369,5.3688839999999995,8.617908,1004.9975,5.714520829952914,1004.9908251181917,0,0
5.84,-0.27504516,5.1686883,8.111328,1005.0026,5.7137740709904685,1004.990958979722,0,0
5.86,-0.37067667,5.5214143,8.035573,1005.01526,5.7128236380850685,1004.9911647434433,0,0
5.88,-0.54274577,5.478515,8.1444645,1005.0027,5.7118502211400815,1004.9913880831907,0,0
5.9,-0.40890366,5.4642158,8.812016499999997,1004.9975599999999,5.7119950739995184,1004.9916076450924,0,0
5.92,0.059524745,5.6548777,8.243889,1005.0027,5.712338557605107,1004.9918415824665,0,0
5.94,0.67134726,5.4642153,9.451162,1004.9727,5.7148111795424335,1004.9919793798332,0,0
5.96,0.7956335999999999,5.511880400000001,7.439042,1004.9777,5.71573706273266,1004.9920497318187,0,0
5.98,0.6331241,5.5309467,7.4153705,1005.0079,5.7152511253453175,1004.992168955799,0,0
6.0,-0.20333022,5.430848,7.2023234,1004.99255,5.713000153796733,1004.9922756738667,0,0
6.02,-0.20333022,5.430848,7.2023234,1004.99005,5.709197701560846,1004.9923619575258,0,0
6.04,-0.3610485,5.3212175,9.427495,1005.0302,5.7077977831338025,1004.9925744147197,0,0
6.06,-0.3610485,5.3212175,9.427495,1005.02527,5.708525783286593,1004.9928798460032,0,0
6.08,0.09782411,5.1400879999999995,9.328074,1005.003,5.7107559648100805,1004.9931861576396,0,0
6.1,0.30814308,5.459447,8.078192,1004.9726,5.7124429707605575,1004.9933827044342,0,0
6.12,0.54714096,5.8169384000000015,6.790433999999999,1004.97,5.711987710285431,1004.993472195446,0,0
6.14,0.81959355,5.893203700000001,6.9940133,1005.0126300000001,5.710107697546111,1004.9936202378,0,0
6.16,0.81960493,5.3069167,8.651056,1004.9775,5.709053302172412,1004.9936930151683,0,0
6.18,0.70011365,5.5976763,7.259142,1004.99506,5.706677246258303,1004.993762242396,0,0
6.2,0.57106656,5.8598370000000015,7.9503655,1004.99005,5.704596009837513,1004.9938100475019,0,0
6.22,0.26994652,5.731139,7.978772,1004.98773,5.702646545311098,1004.9938303999228,0,0
6.24,0.45158297,5.8836694000000005,7.8793507,1005.0104,5.700854980471642,1004.9939080338817,0,0
6.26,0.32731944,5.2068176,9.044015,1004.9977,5.700449869232052,1004.9939902823261,0,0
6.28,0.71927476,5.7835712,7.6615699999999975,1005.01776,5.69957829615246,1004.9941485280352,0,0
6.3,0.561545,5.8312370000000024,7.595288799999999,1004.9825400000001,5.698226355551348,1004.9942465632428,0,0
6.32,0.31778264,5.8693686,7.1549897,1005.0202,5.695764349917741,1004.9944266195243,0,0
6.34,0.61891794,5.502344,9.162378,1004.9975599999999,5.695335162065951,1004.9945969974243,0,0
6.36,0.45172304,5.292612999999999,8.892526,1004.9902,5.695981891426281,1004.9947317141464,0,0
6.38,0.30834603,5.940864599999999,7.590565700000001,1004.99536,5.6960923658504425,1004.9948530116707,0,0
6.4,0.11716528,5.6072054000000024,8.111352,1005.01764,5.696180720681827,1004.9950422233217,0,0
6.42,0.20321317,5.4499083,8.608464999999999,1005.01495,5.696933318776519,1004.995281078732,0,0
6.44,-0.10268286,5.3355107,8.968281,1004.99255,5.698779992566826,1004.9954822994896,0,0
6.46,0.012043834,5.459441,7.9456506,1004.9647,5.699933483118366,1004.9955492818724,0,0
6.48,-0.021403402000000002,5.321210400000001,8.262857,1004.99255,5.7008601627495885,1004.9955976700912,0,0
6.5,0.3323192,5.402241,8.177639,1005.01025,5.701538411764146,1004.9956931743088,0,0
6.52,0.21283548,5.354576,8.333875,1004.9975599999999,5.702205753508924,1004.9957842824084,0,0
6.54,0.21283548,5.354576,8.333875,1005.0126300000001,5.702861055159848,1004.9959254301083,0,0
6.56,0.2224179,5.435607,8.357550999999999,1005.00256,5.703636522823134,1004.9960740326677,0,0
6.58,0.19852461,5.41654,8.253392999999999,1004.9898,5.704311456858883,1004.9961827513716,0,0
6.6,0.040802464,5.321209,8.049814999999999,1004.98956,5.704428804302948,1004.9962549733133,0,0
6.62,0.012140766,5.106714,8.494850999999999,1005.0202,5.704597564540423,1004.9964049907173,0,0
6.64,0.14120118,5.197278,8.513788,1005.0024400000001,5.704944402958198,1004.9965592721285,0,0
6.66,0.46623927,5.335508,8.5895405,1005.0050699999999,5.7057523137338135,1004.996726233804,0,0
6.68,0.38499403,5.4451385000000005,8.08296,1005.01495,5.706197875887878,1004.9969393666986,0,0
6.7,0.4662621,5.7168317,8.153976,1004.99255,5.706770057683902,1004.9971118892042,0,0
6.72,0.24162270000000002,5.411772,8.324417,1004.9820599999999,5.7073742207378855,1004.9972101432892,0,0
6.74,0.3945821,5.550002,7.9551334,1005.0147,5.70753890073055,1004.9973599240826,0,0
6.76,0.39459926,5.45467,8.575342,1004.98956,5.708276928852483,1004.997464190665,0,0
6.78,0.37070590000000003,5.397471,8.182387,1004.9997599999999,5.708767416684238,1004.9975645855307,0,0
6.8,0.5762489000000001,5.6786976,7.884121,1004.9946,5.708879736502782,1004.9976426219264,0,0
6.82,0.461545,5.535701,8.068764,1005.0098,5.708787655584934,1004.9977553414467,0,0
6.84,0.23143925,5.5071177,7.822512599999999,1005.00464,5.708044303063687,1004.9978797251853,0,0
6.86,0.088028654,5.345055599999999,8.504266000000001,1005.0097,5.7077164387617465,1004.9980321836464,0,0
6.88,0.1692688,5.411788,7.9266663,1004.9820599999999,5.706830900055054,1004.9981093960812,0,0
6.9,0.36523247,5.5452514000000015,8.106573,1004.9767,5.705932034431977,1004.9981005471626,0,0
6.92,0.29351896,5.3974886,8.31962,1004.9942599999999,5.705217782097497,1004.9980789022884,0,0
6.94,0.36520773,5.440388,8.215461999999999,1004.9921,5.704542080510403,1004.9980382528296,0,0
6.96,0.51813674,5.4642215,7.794098,1004.9971300000001,5.703222217660441,1004.9979990652574,0,0
6.98,0.52290004,5.502354,7.386937599999999,1005.0118,5.700699940548245,1004.9980141224838,0,0
7.0,0.5611302,5.5357203,7.3017173,1005.04474,5.697029205591153,1004.998195640208,0,0
7.02,0.59457237,5.2687935999999995,9.403791,1004.9895,5.695714673061876,1004.9983247249644,0,0
7.04,-0.10807532,5.2306614,8.57527,1004.9991,5.694927209029901,1004.9984415752452,0,0
7.06,-0.18456867,6.0219107,6.771459599999999,1004.99695,5.6925681550933485,1004.9985394544824,0,0
7.08,-0.045979135,5.9456463,8.016605,1005.0398,5.690735403965378,1004.9987744785403,0,0
7.1,0.44155258,6.2221065000000015,7.5526339999999985,1005.0422,5.688988906075621,1004.9991384776753,0,0
7.12,0.7235446,5.640587,9.607363000000001,1005.0144,5.690169862045593,1004.9995150487912,0,0
7.14,0.53232765,5.2354302000000015,8.764638,1004.9916400000001,5.6919770786909005,1004.9998194368534,0,0
7.16,0.8764488000000001,5.974247,7.192812400000001,1004.9992699999999,5.692602248885787,1005.0000864161726,0,0
7.18,0.6422219,5.726386499999999,8.295927,1005.01166,5.6936554198411615,1005.0003639840007,0,0
7.2,0.6852235999999999,5.7216206,7.221216,1004.97687,5.693290990912155,1005.0005246645917,0,0
7.22,0.61829805,5.6691885000000015,7.3395753,1004.9894400000001,5.691791794850879,1005.0006267371688,0,0
7.24,0.2311175000000001,5.235432599999998,8.267517,1004.9991,5.6903216991315855,1005.0007114322444,0,0
7.26,-0.012669027,5.3116975,7.817747,1004.98425,5.688182205000013,1005.0007270076567,0,0
7.28,0.21675332,5.621524,7.803542999999999,1005.01666,5.685809021476097,1005.0007981288637,0,0
7.3,0.18804972,5.6024585,8.428482,1005.02435,5.684282098400461,1005.0009457582984,0,0
7.32,0.23105974,5.6453576,8.617857,1005.0039999999999,5.6838878206411145,1005.0010871989372,0,0
7.34,0.39495873,6.0695467,8.135076,1005.00385,5.6841894125374735,1005.001222121969,0,0
7.36,0.39495873,6.0695467,8.135076,1005.0243,5.685104789130786,1005.0014244203212,0,0
7.38,0.29942352,6.040946,8.674804,1004.9915,5.687427384239122,1005.0015674432317,0,0
7.4,-0.035101905,6.2125406,7.7516,1004.9987,5.689652305160606,1005.00168349548,0,0
7.42,0.07485388,6.1553416,7.391787,1005.0415,5.691128989553477,1005.0019293786627,0,0
7.44,0.17049052,5.0828657,9.749525,1005.0113,5.69480102966556,1005.0021803752802,0,0
7.46,0.3617435,5.692983,6.515931,1004.9914,5.695544153071983,1005.0023633465396,0,0
7.48,0.3809033,6.007575,7.117203999999999,1004.98096,5.695071222571063,1005.0024479678972,0,0
7.5,0.30446696,5.673915,8.054621000000001,1005.00354,5.694638736229904,1005.0025266706447,0,0
7.52,0.6295139,5.907475499999999,7.4817589999999985,1005.01886,5.693612676487324,1005.0026550123779,0,0
7.54,0.9689204,6.0504713,8.423908,1005.0337,5.693859908145138,1005.0028801770886,0,0
7.56,0.7299505999999999,5.8264427,8.911555,1005.03656,5.695762239149702,1005.0032003799896,0,0
7.58,0.5866173000000001,6.1601,7.5054425999999985,1004.99835,5.697156449084994,1005.0034658499048,0,0
7.6,0.35244749999999997,5.9789699999999995,8.02623,1005.0284,5.698693612344598,1005.0037901820624,0,0
7.62,0.10873832,6.1314983,7.0982924,1004.99585,5.699033452904277,1005.0040481773012,0,0
7.64,0.09441918,6.179164,7.0130754,1005.0158,5.698245457512763,1005.0043184484559,0,0
7.66,-0.029835396,5.9503684,7.742175599999999,1005.0034,5.6973310160954425,1005.0045539536341,0,0
7.68,-0.19230822,5.4022136,8.111464,1004.99585,5.696272740669247,1005.004730711776,0,0
7.7,-0.02497454,5.631007,7.4533844,1005.0208,5.6942468073413535,1005.0049447447079,0,0
7.72,0.25709474,5.8455010000000005,7.9126270000000005,1004.9978,5.692411577054874,1005.0051081431261,0,0
7.74,0.30969286,5.888399,7.9031606,1004.9928,5.690791912305597,1005.0052082126526,0,0
7.76,0.5009458,6.1362586,8.253511999999999,1005.0032,5.690275522109432,1005.0052894045207,0,0
7.78,0.18553965,6.050459,8.452361999999999,1005.0083,5.69094273642969,1005.0053719837996,0,0
7.8,0.094743624,6.036159,8.315066999999999,1005.01074,5.6924019803620665,1005.005464275708,0,0
7.82,-0.3449375,6.1648545,7.117267599999999,1004.9978,5.692782623116948,1005.0055182334461,0,0
7.84,-0.21754637,6.0600314000000015,7.320695,1005.0204,5.692382774778267,1005.005619484863,0,0
7.86,-0.27971172,5.2068176,8.665262,1005.0003,5.6925566938398715,1005.0056898004697,0,0
7.88,-0.20804259,5.16392,7.476925,1005.0053,5.691108735195543,1005.0057505280575,0,0
7.9,-0.045543194,5.449913,7.311219,1004.9773,5.6882949712658295,1005.0057017650536,0,0
7.92,0.4706338,5.988535400000001,7.547935499999999,1005.0154,5.6853807865973,1005.005693591709,0,0
7.94,0.5088443,6.427059,7.992967599999999,1004.9978,5.683682277297031,1005.0056579528116,0,0
7.96,0.36064250000000003,6.1601324,8.759939,1005.00037,5.683991179779878,1005.0056074256515,0,0
7.98,0.20289503,5.921805,8.911438,1005.0074,5.686044462775158,1005.0055692331207,0,0
8.0,-0.02178368,5.8169417,8.523214999999999,1004.97974,5.688836694634454,1005.0054425009613,0,0
8.02,0.14070173,6.026671,7.481642699999999,1005.0024,5.690794154271496,1005.0053195674216,0,0
8.04,0.71903014,6.0266720000000005,8.030831,1004.9799,5.692959486644468,1005.0051194329033,0,0
8.06,0.50869083,5.502351,8.021359,1005.0099,5.694623315137309,1005.0049598040844,0,0
8.08,0.2744525,5.3402886,7.5621199999999975,1005.0075699999999,5.694842976929437,1005.0048281527652,0,0
8.1,0.21706696,5.559551,8.168121000000001,1005.0098,5.6950770900568175,1005.0047297243096,0,0
8.12,0.092764184,5.678715,7.974008,1005.02234,5.695129501297308,1005.004706149919,0,0
8.14,0.26957506,5.82648,8.494789,1005.0122,5.696090772070588,1005.0047122974477,0,0
8.16,0.32213897,5.7835813,8.499521000000001,1004.9843,5.697812631839311,1005.004644245133,0,0
8.18,0.28387266,5.559553599999999,8.608410000000001,1004.9695,5.700129354268683,1005.0044575948256,0,0
8.2,0.60407764,5.917047,7.7988234,1005.00214,5.702041610234383,1005.0042843272723,0,0
8.22,0.32205522,5.611987,8.144434,1004.98694,5.703772285762574,1005.004068788484,0,0
8.24,-0.060356975,5.4213257000000015,7.4958177,1004.9844400000001,5.703995851188194,1005.003807674772,0,0
8.26,0.17382555,5.6501209999999995,7.8224893,1005.002,5.703718625200709,1005.0035704470672,0,0
8.28,-0.036513716,5.44516,7.855627,1004.9769,5.702806930138293,1005.0032648190578,0,0
8.3,0.4653238,5.979015,8.352736,1005.0094,5.702843384027998,1005.0030168528,0,0
8.32,0.44141084,6.007615,8.480564,1005.007,5.703965973392688,1005.0028120891444,0,0
8.34,-0.17999157,5.893218,7.9787145000000015,1004.98914,5.705043614344612,1005.0025819404576,0,0
8.36,-0.17874722,5.559529,8.073516,1004.98175,5.705835269352352,1005.0023035860921,0,0
8.38,-0.25521332,5.340267,8.423862,1005.0419999999999,5.706731043340124,1005.0022005392647,0,0
8.4,0.098524585,5.225869,9.465436,1005.0169,5.709452035816867,1005.0021624051468,0,0
8.42,0.19891123,5.2449346,9.228716,1005.0043300000001,5.713369044483684,1005.0021365131821,0,0
8.44,0.1845826,5.3402660000000015,8.674792,1005.0094,5.717438281923835,1005.0021397835942,0,0
8.46,0.12725736,5.4403625,7.950431,1005.03436,5.720475960736133,1005.0022586661096,0,0
8.48,-0.05436439,5.302132,7.7279149999999985,1005.0119,5.722045881116397,1005.0023984195019,0,0
8.5,-0.49408478,5.049504,8.035653,1005.00684,5.722586003373372,1005.0025378952893,0,0
8.52,-0.111668095,5.3211965999999995,8.258172,1005.0368699999999,5.722882230645928,1005.002784731672,0,0
8.54,-0.39365490000000003,4.973237999999999,8.939929,1005.0138,5.723820249692116,1005.0030424912655,0,0
8.56,-0.6469630000000001,4.8493066,8.575381,1005.0445,5.724563487781763,1005.0034194946741,0,0
8.58,-0.36971277,5.2782965,8.314992,1005.0086699999999,5.725096616732928,1005.003771516705,0,0
8.6,-0.689938,5.3402614999999996,8.191899000000001,1004.9912,5.725332792165091,1005.0040373059113,0,0
8.62,-0.5178435,5.5738214999999975,8.243979,1004.9834599999999,5.7256418933196125,1005.0041980789528,0,0
8.64,-0.45568448,5.7454176,7.993058,1004.9886,5.725784399894258,1005.004283984928,0,0
8.66,-0.40308505,5.3640924000000005,8.580127000000001,1005.0414400000001,5.726345906462302,1005.0044936531018,0,0
8.68,-1.0865755,5.1924953,7.6143100000000015,1005.0362,5.725515546866674,1005.0047930587492,0,0
8.7,-0.9766183,4.935101,9.455995,1004.9887,5.7264323151679575,1005.0049996785676,0,0
8.72,-1.1200017,5.054265,7.538562,1004.9886,5.725634614786477,1005.0051232089962,0,0
8.74,-0.39344993,5.83598,7.817894,1005.0439,5.724611280830388,1005.0053719569307,0,0
8.76,-0.6180791,5.6786822999999975,7.472284299999999,1005.0388,5.722647543753202,1005.0057120915608,0,0
8.78,-0.44598454,5.5166187,8.868936,1004.99615,5.722039472569957,1005.00597821099,0,0
8.8,-0.77576953,5.645315599999999,7.3918032999999985,1004.9632,5.720301702204106,1005.0060593525584,0,0
8.82,-0.29775673,5.6214824,8.670096000000001,1004.98615,5.719658848711827,1005.0060593755786,0,0
8.84,-0.22132233,5.4498873,8.840529,1005.02356,5.7200905702454286,1005.0061223981672,0,0
8.86,-0.22132233,5.4498873,8.840529,1005.0012,5.7214702320743775,1005.0061603642934,0,0
8.88,-0.6849443000000001,5.211558999999999,8.054621000000001,1005.0034,5.722082699123076,1005.0061839738507,0,0
8.9,-0.44114578,5.3783875,8.2439995,1005.0335,5.722503830858545,1005.00630317295,0,0
8.92,-0.3933192,5.2639894,8.248736,1005.0108,5.722629624290768,1005.0064246858516,0,0
8.94,-0.39330970000000004,5.335488,8.135112,1005.0005,5.722376536368942,1005.006510725782,0,0
8.96,-0.35027248,5.4022190000000005,8.054628999999998,1004.9930400000001,5.721723460996351,1005.0065382560516,1,1
8.98,-0.29766613,5.406985,8.357634,1005.013,5.721246804794212,1005.0065858440764,1,1
9.0,-0.36457387,5.3926854,8.679573,1005.0009,5.721481236795581,1005.0066074238164,1,1
9.02,-0.53184795,5.2878203,8.357635499999999,1005.0160000000001,5.7216766254561815,1005.0066603049487,1,1
9.04,-0.33106768,5.3974504,8.419186999999999,1005.0105,5.722048808852758,1005.0067208536196,1,1
9.06,-0.28803998,5.349784400000001,8.608563,1005.0205,5.722852957703955,1005.006823959352,1,1
9.08,-0.29757106,5.4737144,7.8936699999999975,1005.0208,5.722936110588013,1005.0069653773236,1,1
9.1,-0.33102015,5.4498816,8.059376,1005.018,5.722640202198168,1005.0071300588847,1,1
9.12,-0.41702813,5.216319,8.182472,1005.02026,5.7219647224037455,1005.0073228393004,1,1
9.14,-0.40745902,5.2449183,8.0357065,1005.0205,5.720731519856307,1005.007540617854,1,1
9.16,-0.33574295,5.4784794,7.4155016000000025,1005.01776,5.718222776976536,1005.00776983676,1,1
9.18,-0.3978709,5.43558,7.817927,1005.0331,5.7152285005450345,1005.0080635631728,1,1
9.2,-0.8089055,5.8550363,7.922086699999999,1005.0102,5.712551630645533,1005.0083307910036,1,1
9.22,-0.74197876,5.778771,8.002571000000001,1005.0105,5.710195392909801,1005.0085747226674,1,1
9.24,-1.2533988,5.1829505,8.670125,1005.01526,5.708712658473767,1005.008814327684,1,1
9.26,-1.4254527,5.6310067,7.879481299999999,1004.9926,5.707197400263459,1005.0089676710968,1,1
9.28,-1.334608,5.6739054000000015,8.300846,1005.01276,5.706394229734008,1005.0091168177204,1,1
9.3,-1.4827723999999998,5.5023089999999995,8.087798,1004.9926,5.705705323851577,1005.0091891431334,1,1
9.32,-1.0812403,5.9408317,7.6569705,1005.0201400000001,5.704824180319289,1005.0092924729528,1,1
9.34,-0.8518001000000001,5.9789634000000005,7.794269,1005.03534,5.704002344405827,1005.0094775462787,1,1
9.36,-0.62784004,5.4927917,9.020416,1005.0274,5.704731529962215,1005.009705597903,1,1
9.38,-1.0293523999999998,4.7873415999999995,9.664294,1005.00006,5.707356968789978,1005.0098723801656,1,1
9.4,-1.1631913,4.6586447,8.693741000000001,1005.0077,5.709772810290566,1005.0100119284044,1,1
9.42,-0.28371638,5.6310225,7.278153,1005.02026,5.710487704480772,1005.010172126286,1,1
9.44,0.41890144,6.1839433,6.956213000000001,1005.0173300000001,5.70992654340551,1005.0103394454793,1,1
9.46,-0.07820257,5.9360824,8.660599000000001,1005.0302,5.710698723448889,1005.0105587867148,1,1
9.48,-1.6937852999999998,4.696778299999999,10.724797,1005.0148300000001,5.7154107879455625,1005.0107679729983,1,1
9.5,-1.8037252000000001,4.582381,9.938887,1005.0201400000001,5.722053239362975,1005.0109865492958,1,1
9.52,-1.3496569999999999,4.3392862999999995,9.190847999999999,1005.0374,5.728633442022349,1005.0112747717346,1,1
9.54,-0.5657825,3.5480387,10.653779,1005.0252,5.737193379721829,1005.0115795759033,1,1
9.56,0.08904174,3.8912315000000004,9.626412,1005.0027,5.745684778684117,1005.0118169343937,1,1
9.58,-0.006563246,4.51565,8.797889999999997,1004.9979,5.753057391249678,1005.0119765633916,1,1
9.6,-0.08782433,5.063804,6.9846134000000015,1004.97784,5.756792854580295,1005.0119947199464,1,1
9.62,1.3365439,6.0647817,5.2660227,1005.0002,5.7562927474372945,1005.0119683020861,1,1
9.64,1.5325115,5.211568,6.525374,1005.0427,5.7527754877800215,1005.0120555933772,1,1
9.66,-0.537157,3.4336425999999998,9.669018,1005.04535,5.7503130958510935,1005.0122525838257,1,1
9.68,-0.5132667999999999,4.997073,6.7242174,1004.9775,5.74488156803858,1005.0123015352845,1,1
9.7,-0.36509737,5.240168,7.041422,1005.0227699999999,5.737659746008565,1005.0123824752665,1,1
9.72,0.08897515,5.5642943,7.500658500000001,1005.02234,5.730035078477563,1005.0124898409233,1,1
9.74,0.27059883,5.640559,8.944651,1005.0352,5.724655935594585,1005.0126664657904,1,1
9.76,-0.4750595,5.6310263,10.435986999999999,1005.0323,5.723960860188472,1005.0128932122464,1,1
9.78,-0.7140586,5.597659999999999,12.291872999999999,1005.0302,5.730852246671832,1005.0131558698507,1,1
9.8,-0.9387138,5.3021345,12.320279,1005.0126300000001,5.7442564797173175,1005.0133860609784,1,1
9.82,-0.9721857,5.1686707,8.826286999999997,1005.01776,5.756776111358848,1005.0136052040393,1,1
9.84,-0.9913094000000001,4.9160438,8.911507,1005.01764,5.768367802278828,1005.0138133641136,1,1
9.86,-1.3061379,3.4431622,9.313989999999999,1004.97015,5.7786610810469865,1005.0138401062442,1,1
9.88,-1.1770669,4.4965706,6.2224245000000025,1004.9829,5.7830960353467455,1005.0137523512084,1,1
9.9,-1.6072327,4.973225599999999,7.4865116999999985,1005.01776,5.785172775135343,1005.0136892383944,1,1
9.92,-1.5068403000000001,4.310674,7.401294,1004.98474,5.784256797215301,1005.0135292546536,1,1
9.94,-1.4446946000000005,3.9627154000000004,6.9846673,1005.0148300000001,5.779583112239938,1005.0133925757036,1,1
9.96,-1.736246,2.8759396,8.262958,1005.0654,5.773186310456332,1005.0134590329106,1,1
9.98,-0.62253535,3.247731,11.117806,1005.01526,5.7708590632543935,1005.0135242379804,1,1
10.0,0.8878992,4.4298363,9.872658,1004.9901,5.770594111037967,1005.0134975259233,1,1
10.02,2.0733154,6.088598,7.7279754,1004.9801,5.770483570135967,1005.0133536920564,1,1
10.04,1.1651690000000001,5.8026037000000015,7.0272856,1004.9954,5.768708062455143,1005.0131619671602,1,1
10.06,0.55814224,5.716805,6.6011896,1005.0152,5.76455919055613,1005.01299989596,1,1
10.08,0.38131428,5.897933999999999,8.892644,1005.07825,5.762333711930982,1005.0130915902223,1,1
10.1,0.15189187,5.5690417000000005,9.792181,1005.0629,5.763038943401246,1005.0133519215474,1,1
10.12,0.62989706,5.2401485,9.607542,1005.04535,5.765698793647351,1005.0136971433889,1,1
10.14,0.9023624,3.762516,11.311929,1005.0052,5.7721412611956655,1005.0139715916916,1,1
10.16,0.40527105,3.11903,10.966318,1004.9721699999999,5.780766134280414,1005.014063608482,1,1
10.18,-0.11570289,3.609985,8.258241,1005.018,5.786310607437137,1005.0141590855272,1,1
10.2,-0.27819967,4.577595,6.4307623,1004.9929,5.786795732398812,1005.0141669163366,1,1
10.22,0.14243953,4.6872253,6.0946207,1005.0155599999999,5.782375109496675,1005.014178850741,1,1
10.24,0.28584188,4.0199074999999995,8.187228999999999,1005.0629,5.776619188250479,1005.014364792118,1,1
10.26,-0.7609187,3.2048264,9.579145,1004.9929,5.771791521557588,1005.014451816667,1,1
10.28,-1.0954883999999998,3.9627082000000002,7.993121,1004.998,5.765429592463193,1005.0144694850186,1,1
10.3,-0.73697835,5.678668,7.3019004,1005.0077,5.758339616045394,1005.0144607266279,1,1
10.32,-0.5840164000000001,5.683433999999999,7.671185,1005.0306,5.7512254076234655,1005.0145110890984,1,1
10.34,-0.6464159,5.039956,8.963653,1005.0306,5.7456507048949685,1005.014613509456,1,1
10.36,-0.6464159,5.039956,8.963653,1005.0306,5.741456378327018,1005.0147615594503,1,1
10.38,0.0036449729999999997,5.211551,9.157764,1005.04565,5.7389814313354295,1005.0150035748112,1,1
10.4,-0.24967954,5.073321,10.881089,1005.0356,5.74109299665368,1005.0152915667146,1,1
10.42,-1.2295344,5.654841,10.838479,1005.0134,5.747828149946308,1005.0155392267204,1,1
10.44,-1.2582107,6.0599985,9.290328,1005.0127,5.756289410287134,1005.0157478378853,1,1
10.46,-1.5402116000000001,4.067577399999999,10.814808,1005.0381,5.7672710319330225,1005.0160126344944,1,1
10.48,-1.5163096999999999,3.3954932999999996,10.881089999999999,1004.97784,5.780112411630801,1005.0161091872938,1,1
10.5,-2.0086246,4.143842,7.4581156,1004.9982,5.788868865836983,1005.016130028273,1,1
10.52,-2.285848,5.039955,6.5349072999999995,1005.0057400000001,5.7935647657217215,1005.0161110392604,1,1
10.54,-1.4780537,3.8578486000000014,8.201419,1005.0411,5.795944124175465,1005.0161842208278,1,1
10.56,-1.0000708,3.6481202000000006,9.228784,1005.0085,5.797911560785952,1005.0162212208656,1,1
10.58,-0.37391138,3.657653,9.290332000000001,1005.0335,5.799544285797434,1005.016316117704,1,1
10.6,-0.22573490000000002,3.9770122000000003,8.769547,1004.98334,5.800128026737758,1005.0162812545263,1,1
10.62,-0.001073971,5.1734176,6.705348,1005.0334,5.797366088446143,1005.0163120769066,1,1
10.64,-0.044089697000000004,5.006588,7.9741693,1005.0185,5.793625268791339,1005.0163471880848,1,1
10.66,-0.33565265,4.882657,9.484445,1005.0383,5.7916457342523575,1005.0164572424447,1,1
10.68,-0.8231850000000001,5.835969,9.181444,1005.0187400000001,5.791723367088299,1005.0165627044045,1,1
10.7,-0.8231850000000001,5.835969,9.181444,1005.0183,5.793618433538518,1005.016662144856,1,1
10.72,-0.5316094,6.002797599999999,9.697494,1005.0205,5.7981665586513165,1005.0167638267177,1,1
10.74,-0.7371358,5.716804,9.304539,1005.0057400000001,5.804061267983103,1005.0168139870343,1,1
10.76,-1.2868108999999999,4.8016252999999995,8.835834,1005.0538,5.80944710156548,1005.0169914583372,1,1
10.78,-0.8900795,3.8054152,9.716434,1004.9934,5.815059615920405,1005.0170633427299,1,1
10.8,-0.6176231,4.4584327,8.703272,1005.02625,5.819449933210581,1005.0171599317456,1,1
10.82,-0.6271800999999999,4.3154364,8.973133,1005.0210599999999,5.823115266770593,1005.0172593180458,1,1
10.84,-0.13994907,4.9398627,5.9667580000000005,1005.0059,5.8214936536578135,1005.0173062422356,1,1
10.86,-0.8043494000000001,3.8530881,7.2829213,1005.0288,5.8163100394199025,1005.0173890819774,1,1
10.88,-1.4448508,3.1714706,8.248738000000001,1005.0261,5.809403174370828,1005.0174936384782,1,1
10.9,-0.6131725,4.4298415,7.041465299999999,1005.0261,5.799724034651955,1005.017617007504,1,1
10.92,-0.3550669,4.854065,6.866292,1005.0112,5.787785476467178,1005.017702915148,1,1
10.94,0.065548256,5.3640870000000005,7.5717177,1005.04364,5.7756875629409405,1005.0178721966478,1,1
10.96,0.31409043,5.774011,7.756358599999999,1005.0514,5.7643137646868166,1005.018142473873,1,1
10.98,0.38577992,6.5271273,8.352893,1005.0539,5.7555600118597114,1005.0185100179233,1,1
11.0,0.084644645,5.7168126,9.962589,1005.05896,5.7509796577274575,1005.0189803997816,1,1
11.02,-0.4315818,4.7015367,12.164088000000001,1005.06396,5.753349122291683,1005.0195579557524,1,1
11.04,-0.47460383,5.468952,11.311894,1005.00824,5.760864313538362,1005.0200275395674,1,1
11.06,-0.44593638,5.635782,9.086722,1005.03864,5.769008985163006,1005.0205094686839,1,1
11.08,-0.59889776,3.4336328999999997,9.948383,1005.0187400000001,5.777346848719093,1005.0209289311639,1,1
11.1,-0.95261085,3.3287690000000003,8.419171,1005.0061599999999,5.782836651679219,1005.0212464000592,1,1
11.12,-1.1581463,4.0914183,7.2308345,1004.97864,5.7843042807676515,1005.0213735325348,1,1
11.14,-0.9717453000000001,5.6071835,5.422291,1005.0085,5.781115136490092,1005.0214395220733,1,1
11.16,-0.11138442,5.7549467000000005,5.048272,1005.0562,5.773398235012458,1005.0216229681496,1,1
11.18,0.93538505,5.2067924,6.8426113,1005.11414,5.763772167699009,1005.0221181224176,1,1
11.2,-0.97176814,2.1037647999999995,13.555995999999999,1005.0109,5.763101326341928,1005.022515255488,1,1
11.22,-0.751901,2.5708876,11.051495,1004.9682,5.7653965654362525,1005.0226706273493,1,1
11.24,0.672473,4.4060120000000005,7.5953800000000005,1004.98334,5.764973238571639,1005.0226663236674,1,1
11.26,1.1504457000000001,5.0256643,7.2545020000000005,1005.0260000000001,5.762343425508045,1005.0226745221687,1,1
11.28,1.8004913,5.978976,7.874708,1005.0033599999999,5.760163658710729,1005.0226122340848,1,1
11.3,1.3225071000000002,6.164871700000001,7.401267,1005.069,5.757709550058568,1005.0227241922914,1,1
11.32,0.5529512,6.2888025999999995,7.477017,1005.0534,5.75515261000936,1005.0229335514704,1,1
11.34,-0.60833555,5.4594164,11.188808,1005.0713,5.7580818054902965,1005.0232926604554,1,1
11.36,-0.81386644,5.73111,11.056246,1005.0487699999999,5.765879989125893,1005.0237016875767,1,1
11.38,-0.96681947,5.6453123,10.724836999999999,1005.08154,5.777284032905726,1005.0242713218663,1,1
11.4,-0.22594869,4.0914150000000005,12.419755,1005.0087,5.793745089070701,1005.0247185939661,1,1
11.42,0.8208303,2.3277888,9.134078,1004.9657599999999,5.807098367613237,1005.0249015526546,1,1
11.44,1.3848483999999999,3.7291565,5.6590242,1004.96075,5.8123690977894285,1005.0248322693624,1,1
11.46,1.012025,4.868363400000002,4.735816000000002,1004.9657599999999,5.810374187389681,1005.0245583904756,1,1
11.48,0.21379961,5.3831515,5.692166,1005.0062,5.803983860239312,1005.0242503008856,1,1
11.5,-0.13034500000000002,4.7206,7.6900845,1005.0511,5.796199733949533,1005.0240747318406,1,1
11.52,-0.68002117,4.196279,9.4512825,1005.0235,5.789995069486063,1005.023917529998,1,1
11.54,-0.50794756,4.3202085,9.607517999999999,1004.9987,5.78558893252741,1005.0236878433417,1,1
11.56,0.19468547,5.983738,7.4107556,1004.97565,5.780668893865965,1005.0233119559764,1,1
11.58,0.1755669,6.3221625999999995,7.174035000000001,1005.0062,5.775389241126027,1005.0229182188583,1,1
11.6,-0.10166046,6.398428,7.1030190000000015,1005.0134,5.769803857659465,1005.0225360471533,1,1
11.62,-0.24505398,6.126734,7.500709,1005.06396,5.764233471600125,1005.022347486465,1,1
11.64,0.31896484,5.621479,9.735348,1005.0235,5.7619352799379016,1005.0221850232897,1,1
11.66,0.6009745,5.116224,10.151977,1005.0509,5.762823204673171,1005.0221448447438,1,1
11.68,0.7348097,4.8635964000000005,10.582808,1005.0109,5.7671173792111965,1005.0220688615397,1,1
11.7,1.222351,4.887429,9.811099,1004.98865,5.7730734283970175,1005.021881414879,1,1
11.72,0.52450144,6.856017,6.989394,1004.99115,5.7779317684517295,1005.021605153916,1,1
11.74,0.113439605,6.8750834,7.3918184999999985,1005.0133,5.782407094682075,1005.0213311511748,1,1
11.76,-0.8759786,5.263987,8.963641,1005.0085,5.787227046678709,1005.0210428502087,1,1
11.78,-1.3396181999999999,4.7968645,8.6085615,1005.0005,5.791323151962015,1005.0207141532144,1,1
11.8,-0.8090586999999999,4.8683629999999996,8.622765,1004.97784,5.794743571104047,1005.0202693695987,1,1
11.82,-0.6274249,4.5299373,7.727962,1005.00824,5.795568776373742,1005.0198330530652,1,1
11.84,-0.5410731,5.4927735,7.197736999999999,1004.9959,5.7942861901294735,1005.019361364785,1,1
11.86,-0.09653739,6.350754,8.802702,1005.0335,5.794854962600956,1005.0189954801076,1,1
11.88,0.061203107,6.274488400000001,9.205127000000001,1005.0461,5.797650826862509,1005.018769760678,1,1
11.9,0.5391905,6.1219586999999995,9.550739,1005.0386,5.802855181606069,1005.0186417038516,1,1
11.92,1.3613305,5.063782700000001,12.784339,1005.01624,5.815283442586439,1005.0185199067064,1,1
11.94,0.33848053,3.2763236,9.678571,1004.9859,5.826579550311147,1005.0182948550844,1,1
11.96,0.71609896,3.7100801,7.784811,1005.0005,5.8335707919501125,1005.0180319379924,1,1
11.98,0.77825046,5.044715,5.228234,1004.98834,5.833934286541147,1005.0176927334738,1,1
12.0,0.33852243,4.930317400000002,6.255601,1004.9879,5.829823108938626,1005.0172857585203,1,1
12.02,-0.09643276,4.7587214000000015,7.093591,1005.0461,5.822958295824554,1005.017029886721,1,1
12.04,-0.07251281,5.7263317,7.1030619999999995,1004.998,5.814894030864103,1005.0167352908068,1,1
12.06,-0.97588176,5.692966,7.3681899999999985,1005.0160000000001,5.806293977398067,1005.0164723388102,1,1
12.08,-0.8850584999999999,6.07429,6.601217299999999,1004.98285,5.796528043387637,1005.0161189540062,1,1
12.1,-0.12027599,7.113399,5.777432,1005.0105,5.7860800505208045,1005.015786474959,1,1
12.12,0.26212227,6.212519599999999,7.964728,1005.0310699999999,5.777020132903859,1005.0155477171628,1,1
12.14,-0.16326632,5.1877093,10.270385000000001,1005.0134,5.772135157157699,1005.0153290189926,1,1
12.16,-0.21104345,5.5499673,7.808496000000001,1004.98035,5.766955413817287,1005.0150098528208,1,1
12.18,-0.30184573,5.7835282999999995,7.680667999999999,1004.98035,5.761611112982802,1005.0146030621213,1,1
12.2,-0.3352974,5.6595974,7.7895603000000015,1005.0085,5.756171711010669,1005.0142216508356,1,1
12.22,-0.35440966,5.702496,7.7753577000000025,1005.013,5.750697989776134,1005.0138802378804,1,1
12.24,-0.12973794,5.4165019999999995,9.266697,1005.0310699999999,5.747469895031487,1005.013640448537,1,1
12.26,-0.48343647,4.9446129999999995,10.156766000000001,1005.013,5.7474273166241066,1005.0134262650585,1,1
12.28,-0.5598924,5.116208599999998,9.314044,1005.0155599999999,5.748816797165603,1005.0132446939824,1,1
12.3,-0.4595095,5.659596,8.272476,1005.0259,5.750203548676244,1005.0131298168814,1,1
12.32,-0.35433990000000004,5.8883905,8.144648,1005.07605,5.7516302747606085,1005.0132548241344,1,1
12.34,-0.61243534,5.974188,7.311393700000001,1005.1184699999999,5.751850693430103,1005.0137440551758,1,1
12.36,-1.200369,5.8121257,7.5575814,1004.97284,5.751311356622118,1005.0140290851256,1,1
12.38,-1.5588353000000001,5.03041,9.697534,1004.93567,5.753066453261589,1005.0139988448828,1,1
12.4,-1.8886355,4.7539489999999995,8.528136,1004.98285,5.7545757858807525,1005.0138599887626,1,1
12.42,-1.3771837,4.9112453,8.897422,1005.0105,5.756509203889282,1005.0137251995352,1,1
12.44,-0.81793386,5.4403324,8.916359,1004.9879,5.759270190474213,1005.0135131290556,1,1
12.46,-0.6315088000000001,5.4832315000000005,8.300889,1004.9854,5.761695396588207,1005.0132245363153,1,1
12.48,-0.57413846,5.5690292999999995,8.016825,1005.018,5.7634198134100965,1005.0129867274388,1,1
12.5,-0.82267565,5.4927635000000015,7.292462299999999,1005.0306,5.763247696116498,1005.0128400072972,1,1
12.52,-0.50240976,5.640527,7.7990460000000015,1005.0152,5.762380347806131,1005.0127188613536,1,1
12.54,-0.5597546999999999,5.3974322999999975,7.6191397,1005.0155599999999,5.760311266221452,1005.0126220448973,1,1
12.56,-0.641005,5.426031,8.480803,1005.0256,5.758714344019494,1005.0125832185146,1,1
12.58,-0.4880385999999999,5.5499616,8.106785,1005.0105,5.757017081563388,1005.0125414119362,1,1
12.6,-0.3685245,6.0266166,7.6286115999999975,1004.98004,5.755013272592916,1005.0123874665608,1,1
12.62,-0.64096695,5.9932504,7.36822,1005.0160000000001,5.752310532888588,1005.0122644455472,0,0
12.64,-0.7222109,5.8931527,7.633348,1005.0077,5.749313859851892,1005.0121393121756,0,0
12.66,-1.16672,5.6548247000000025,8.234618,1005.0205,5.746871961089785,1005.0120588428047,0,0
12.68,-1.0711113,5.7120233,8.281963000000001,1005.01276,5.7450545529165495,1005.0119902642348,0,0
12.7,-1.0376334999999999,5.7358556,8.220417999999999,1005.0160000000001,5.7437117714039365,1005.0119441032588,0,0
12.72,-0.9229055,5.7835207,8.286700999999999,1005.008,5.742938958749733,1005.0118891166484,0,0
12.74,-0.7508263000000001,5.8359528,8.319842,1005.0155599999999,5.7427616255437375,1005.0118537456599,0,0
12.76,-0.38754848,5.988482,8.173077000000001,1005.0108,5.743005735437138,1005.01181869837,0,0
12.78,-0.4640063,5.602391000000001,8.532893,1005.0306,5.7437848152710576,1005.0118553432704,0,0
12.8,-0.5452566999999999,5.540425,8.329315,1005.0002,5.744618724949112,1005.0118457634687,0,0
12.82,-0.22977054,6.074279,6.544446,1004.9904,5.743239614971312,1005.0117600940075,0,0
12.84,-0.22977054,6.074279,6.544446,1005.0231,5.739910045621516,1005.0117252201333,0,0
12.86,0.21906336,5.5452023,8.220383,1005.0155599999999,5.7369190858720005,1005.0117082107852,0,0
12.88,0.23817624,5.583335,7.817957400000001,1004.98004,5.733597236139675,1005.0115791757664,0,0
12.9,0.10433857,5.511837,7.4581423,1005.0105,5.729297648095341,1005.0114612753912,0,0
12.92,-0.4405654000000001,5.530903299999999,7.041514,1005.0052,5.723506078709901,1005.0113345580279,0,0
12.94,-0.44057494,5.38314,7.638047999999999,1005.0227699999999,5.717227590211705,1005.0112637581572,0,0
12.96,-0.62221384,5.3211746,7.936315,1004.9826,5.7109998698661375,1005.011098009862,0,0
12.98,-0.6986938,5.5595026,8.187239,1005.0205,5.705557960471957,1005.0109854018327,0,0
13.0,-0.37845337,5.9312949999999995,9.323495,1005.0105,5.7031904406233025,1005.0108841539316,0,0
13.02,-0.25418797,5.1877116999999995,8.7885065,1005.0155599999999,5.701785119556828,1005.010811524332,0,0
13.04,-0.2828731,5.1781793,8.39555,1004.9926,5.7005273510658965,1005.01068178733,0,0
13.06,-0.6365849,5.5690370000000025,7.462872,1005.018,5.69829336481236,1005.0105934972808,0,0
13.08,-0.6222486999999999,5.7882986,7.230886,1004.9775,5.695100271813607,1005.0103963476033,0,0
13.1,-0.42150325,6.269720599999999,7.0651813,1005.0281,5.691429092269652,1005.0102858792964,0,0
13.12,-0.51710564,6.0313930000000004,8.0972805,1005.04535,5.688709225887061,1005.0103145003352,0,0
13.14,-0.53145456,5.283044,10.55917,1005.03534,5.690391956008947,1005.010429881684,0,0
13.16,-0.23989290000000002,5.1924790000000005,9.318755,1004.9675,5.6935715267780544,1005.0103772850696,0,0
13.18,0.42449343,5.7025013,6.9278803,1004.9926,5.694554947368562,1005.0102668124748,0,0
13.2,0.39103168,5.9122295,6.7148323,1005.0055,5.693536618285397,1005.0101520383653,0,0
13.22,-0.34984744,5.650069,7.2782254,1005.04065,5.6913046098625495,1005.010160416624,0,0
13.24,-0.55538535,5.340244,8.868985,1005.0127,5.690392204595237,1005.0101769621533,0,0
13.26,-0.7035624,5.2925777,9.233533999999999,1005.02026,5.6912695508530815,1005.0102278807196,0,0
13.28,-0.86608213,5.3259435,8.556512,1005.01276,5.692581525844938,1005.0102819879936,0,0
13.3,-0.9855835,5.6167045,8.419215,1005.0151,5.694382684916464,1005.0103471420247,0,0
13.32,-1.0525103999999998,5.516606299999999,8.386073,1004.9925,5.696452142366455,1005.010340462415,0,0
13.34,-0.92345876,5.535673,8.419214,1004.99255,5.698803939967412,1005.0102705146472,0,0
13.36,-0.8232181999999999,5.5881085,8.111464999999999,1004.9925,5.700910543947469,1005.0101447349472,0,0
13.38,-0.7563123,5.5499763,8.083057,1005.0073,5.702688510594856,1005.0100233549581,0,0
13.4,-0.55079794,5.5547433,8.343449,1005.023,5.70459449551277,1005.0099628195217,0,0
13.42,-0.4504277,5.602409,8.253494,1005.0052,5.706496537362312,1005.0098921842599,0,0
13.44,-0.35006326,5.754939,7.709036999999999,1005.0002,5.707642273022612,1005.0097948790794,0,0
13.46,-0.23535366,5.8026047,7.7137704,1005.04285,5.708175625164138,1005.0098278986572,0,0
13.48,-0.35486588,5.163886499999999,8.50915,1005.0331,5.708798484124108,1005.009940854321,0,0
13.5,-0.39311,5.211551999999998,7.9268160000000005,1005.0052,5.708531519467747,1005.0100235948697,0,0
13.52,-0.21626866,5.6548424000000015,6.847371000000001,1005.0102,5.706208214178921,1005.0100973394774,0,0
13.54,-0.38835868,5.621477,7.6900935,1005.0327,5.703428189585633,1005.0102438697903,0,0
13.56,-0.4266029000000001,5.564278599999999,8.0120325,1005.0075699999999,5.700733527788389,1005.0103637180438,0,0
13.58,-0.12548663,5.7072754,8.461801,1005.0231,5.699045546138179,1005.0105154665756,0,0
13.6,-0.0777,5.7263417,8.77427,1005.01776,5.698815234255606,1005.0106756318984,0,0
13.62,0.118254825,5.8741055,8.229811999999999,1005.0101300000001,5.699113019180487,1005.0108151897032,0,0
13.64,0.04177226,5.769241,7.922075,1005.00006,5.699228799635344,1005.0108997842959,0,0
13.66,-0.302385,5.559513,7.7705727,1005.0050699999999,5.698682642517201,1005.010953544855,0,0
13.68,-0.34542036,5.5404477,7.813181,1005.0151,5.697605704885618,1005.0110159749236,0,0
13.7,-0.4075635,5.5595136,8.17773,1005.02527,5.696713161097637,1005.0111224526222,0,0
13.72,-0.48883158,5.611946,7.813179499999999,1005.0378400000001,5.695436428097303,1005.0113127194873,0,0
13.74,-0.38369298,5.6929784,8.736386,1005.0101300000001,5.695492722840768,1005.0114765814992,0,0
13.76,-0.20685737,5.669146,8.745854,1005.0123,5.696705783727246,1005.0116243342792,0,0
13.78,-0.20685737,5.669146,8.745854,1004.99725,5.6989365961585055,1005.0117031410327,0,0
13.8,-0.40762627,5.6310134000000005,8.101974,1004.9975599999999,5.700916459566074,1005.0117218593724,0,0
13.82,-0.16386764,5.778777,8.177723,1004.98224,5.702957943787023,1005.0116322642032,0,0
13.84,-0.17821278,5.7549443,8.206128,1005.02484,5.705066794613925,1005.0116006457608,0,0
13.86,-0.364708,5.3926883000000005,8.168246,1004.9901,5.706749644741131,1005.0114953053804,0,0
13.88,-0.3886209000000001,5.411754599999999,8.087760000000001,1005.0252,5.707934641699327,1005.0114515635208,0,0
13.9,-0.32649046,5.4832529999999995,8.007275,1005.0050699999999,5.708615532766267,1005.0113899395848,0,0
13.92,-0.5368158000000001,5.4832535,7.9646630000000025,1005.0073,5.708795067178247,1005.0113207648927,0,0
13.94,-0.68978345,5.3926897,8.329211,1005.0126300000001,5.709075432366222,1005.0112643553813,0,0
13.96,-0.7949531,5.507087,7.993067699999999,1005.0323,5.709012726151675,1005.0112902402573,0,0
13.98,-0.551204,5.5499870000000024,8.262926,1005.04,5.709125172143674,1005.0114164672686,0,0
14.0,-0.69938487,5.4403559999999995,8.46177,1004.99725,5.709630993415985,1005.011477002174,0,0
14.02,-0.76153636,5.4165235,8.618003999999999,1005.0323,5.7107387080038166,1005.0116054536086,0,0
14.04,-0.5368995,5.4975557,7.9504523,1005.0048,5.711280331892698,1005.0116944536632,0,0
14.06,-0.5560326999999999,5.1734300000000015,8.362344,1004.9872,5.7116690157991625,1005.0116849140784,0,0
14.08,-0.44133140000000004,5.3831587,7.325508,1005.0274,5.710367439484828,1005.0117330592102,0,0
14.1,-0.10675901,5.7978497,7.6001020000000015,1005.02234,5.70852952295496,1005.0118137852356,0,0
14.12,-0.23582071,5.7454176,8.002526,1004.9949,5.7068364669365215,1005.0118242251248,0,0
14.14,-0.42224700000000004,5.7168183,7.874696000000001,1005.0073,5.705040459018006,1005.0118171626006,0,0
14.16,-0.29320627,5.7787843,8.154025,1005.0252,5.703696690555987,1005.0118591003688,0,0
14.18,-0.1546059,5.783551,8.452291,1005.0151400000001,5.703265251786673,1005.0119079678192,0,0
14.2,-0.40794945,5.54999,8.376539999999999,1004.9997599999999,5.703254531323926,1005.0119074144144,0,0
14.22,-0.30281472,5.654855,8.225037,1004.98975,5.70346886608136,1005.0118271587339,0,0
14.24,-0.4844612,5.4308267,7.718453999999999,1005.02264,5.702767287974838,1005.0117951710432,0,0
14.26,-0.5944037,5.30213,7.5953584,1005.0101300000001,5.700909668518414,1005.011760912104,0,0
14.28,-0.48448209999999997,5.435594,7.566950999999999,1005.0148300000001,5.698135956234252,1005.0117416896218,0,0
14.3,-0.40323937,5.473726999999999,8.101937,1005.00006,5.6955116205364575,1005.0116826505538,0,0
14.32,-0.57054645,5.3307304,8.348124499999999,1005.00494,5.693310076066116,1005.0116062100913,0,0
14.34,-0.46469015,5.759703599999999,8.528096000000001,1005.0048,5.692279902854185,1005.0115141649424,0,0
14.36,-0.38342583,5.8979335,8.589644,1005.0199,5.6925487782287325,1005.0114630228547,0,0
14.38,-0.6558595,5.8836330000000014,8.28191,1005.0101300000001,5.6934524160537245,1005.011413034824,0,0
14.4,-0.6462922,5.7787685,8.173019,1005.0151400000001,5.694602358319224,1005.0113822824746,0,0
14.42,-1.2963152,5.2592134,7.8510823000000025,1004.9973,5.694942872345775,1005.0113044134821,0,0
14.44,-1.2963152,5.2592134,7.8510823000000025,1005.0199,5.6945669497298965,1005.0112665525513,0,0
14.46,-1.4301343999999998,5.421276,7.879490400000001,1004.9948,5.6938344566991645,1005.0111738190436,0,0
14.48,-1.4970290000000002,5.5833383,8.272447999999999,1005.00745,5.693665218434602,1005.0110784739682,0,0
14.5,-1.109842,5.6977353,8.54231,1005.0376,5.6944847705357535,1005.0110897045528,0,0
14.52,-1.262788,5.397442,8.7269535,1005.0019,5.6961971663262405,1005.0110665449613,0,0
14.54,-1.0476816999999998,5.5118394,8.442891,1004.9948,5.698273457441712,1005.0109875215841,0,0
14.56,-0.89949244,5.4784727,7.7611375,1004.9920699999999,5.699427855915692,1005.0108495934503,0,0
14.58,-0.6604871,5.6167026,7.496011999999999,1004.9920699999999,5.699446877355398,1005.0106601136152,0,0
14.6,-0.56487584,5.6453013,7.4297320000000004,1005.0349,5.6983756098987435,1005.0105799528236,0,0
14.62,-0.7178066999999999,5.4880047,8.087816,1005.002,5.697284461765285,1005.0104782349181,0,0
14.64,-0.6317626000000001,5.5404367,7.926847,1005.00714,5.695954071359184,1005.0103763393312,0,0
14.66,-0.7464550999999999,5.692966,8.258257,1005.0144,5.695178522657361,1005.0103007895686,0,0
14.68,-0.7464550999999999,5.692966,8.258257,1004.9872,5.694896024060768,1005.0101508709564,0,0
14.7,-0.8802668,5.5404352999999995,8.381353,1005.0116,5.695107210025957,1005.0100236197349,0,0
14.72,-0.79421514,5.6071663,8.570732000000001,1005.01666,5.696142851520631,1005.0099350715243,0,0
14.74,-0.6460336,5.6548324,8.371888,1005.0096,5.697592898244227,1005.0098556240685,0,0
14.76,-0.45959842,5.626232,8.722236,1005.0169999999999,5.699957136152867,1005.0098111440494,0,0
14.78,-0.3257563,5.71203,8.670158,1004.9939999999999,5.703116833353957,1005.0097149213859,0,0
14.8,-0.14410093,5.4165025,8.485517999999999,1005.0146,5.706303327522145,1005.009647485324,0,0
14.82,0.09968427,5.411736,8.111502,1005.0144,5.708844497615912,1005.009605007872,0,0
14.84,0.13737579,5.345018,8.068842,1005.0041,5.710656667957666,1005.0095476567674,0,0
14.86,0.18994977,5.3593173,7.95995,1004.9889999999999,5.711648342161182,1005.0094230097667,0,0
14.88,0.14692394,5.3402519999999996,7.9978247000000025,1005.0045,5.711953197645223,1005.0092951488423,0,0
14.9,0.21860959,5.316419000000002,8.428655000000001,1005.04706,5.712376937081858,1005.0093181243933,0,0
14.92,0.30941826,5.3640842000000015,8.310293,1005.0091,5.7127551717482925,1005.0093376403422,0,0
14.94,0.40979034,5.378384,8.404982,1004.9988,5.713280894474613,1005.0093169491296,0,0
14.96,0.4958192,5.459416,8.229808,1005.0166,5.7137303015493925,1005.0093248853572,0,0
14.98,0.38108867,5.2544546,8.305557,1005.02167,5.7140006437911675,1005.0093763402208,0,0
15.0,0.35240608,5.16389,8.400245,1005.0392,5.714176908672347,1005.0095291709132,0,0
15.02,0.3954205,5.2210884,8.324494,1005.0066,5.714201813926035,1005.0096536670976,0,0
15.04,0.21377654,5.5404487,8.54701,1005.0191699999999,5.7148278814522655,1005.009797930725,0,0
15.06,0.17553429999999998,5.5499816,8.665369,1005.00885,5.716198857585536,1005.0099219895152,0,0
15.08,-0.03956449,5.4212847,9.162482,1005.0088,5.718959783561868,1005.0100275687004,0,0
15.1,-0.18774602,5.5261492999999975,8.618024,1005.0264,5.7220931336852505,1005.0101797992207,0,0
15.12,-0.07303835,5.7358775,8.461788,1004.9837,5.725510104581757,1005.0102189828316,0,0
15.14,-0.05392675,5.7692437000000005,8.3008175,1005.0063,5.728928539294858,1005.0102394971317,0,0
15.16,-0.14475064,5.478484,7.827376400000001,1004.98096,5.7311851133676015,1005.0101522173776,0,0
15.18,-0.13519862,5.592882,7.4391546,1004.9634,5.7318931559101305,1005.0099067890044,0,0
15.2,-0.28815997,5.7120457,7.23084,1004.9937,5.731045928561463,1005.0096315840532,0,0
15.22,-0.4076627,5.974206400000001,7.647467,1005.0037,5.729853506878411,1005.009367059256,0,0
15.24,-0.5988661999999999,5.306889,7.9504676,1005.0289300000001,5.728079211139081,1005.0092037517318,0,0
15.26,-0.8569795,4.97323,8.466517999999999,1005.0111699999999,5.726376578622173,1005.0090665316973,0,0
15.28,-0.8665466999999999,5.030429,8.636955,1005.0087,5.72510954933971,1005.0089439645604,0,0
15.3,-0.044431835,5.9551415,8.352889999999999,1004.9937,5.7247014626189765,1005.008780785966,0,0
15.32,-0.001417399,5.9694410000000016,8.367092999999999,1004.9735,5.725094898445108,1005.0085095905304,0,0
15.34,-0.17827393,5.778779,8.035685,1004.9937,5.7254077322655546,1005.0082166477176,0,0
15.36,-0.4254420999999999,5.7263126,7.5197606,1004.99866,5.724737875261386,1005.0079233995166,0,0
15.38,-0.56403285,5.6405144,7.7138734,1005.0009,5.723433502701584,1005.0076390011676,0,0
15.4,-0.6165638000000001,5.5404153,7.9174576,1005.0060000000001,5.7218025505461405,1005.0073818063825,0,0
15.42,-0.53526014,5.4689155,8.745982000000001,1005.0185,5.72123132511376,1005.0071945745673,0,0
15.44,-0.19584712,5.688176599999999,8.585017,1005.02856,5.721538933704914,1005.0071060520668,0,0
15.46,-0.23881838,5.383116,9.285713000000001,1005.0034,5.723527334886955,1005.0070144917979,0,0
15.48,-0.2148489,5.8025709999999995,7.174175,1004.9882,5.723862867919713,1005.0068658569742,0,0
15.5,-0.43945277,6.136229,6.804896,1004.98584,5.722620192624492,1005.0066588301587,0,0
15.52,-0.6927588000000001,5.936033,6.5160995,1004.99786,5.7192978952210485,1005.0064442254758,0,0
15.54,-0.98905975,4.9207544,7.2783427,1005.0382699999999,5.7141488732846675,1005.0063691735664,0,0
15.56,-0.8264994000000001,4.2534355999999995,9.460908,1005.0229,5.71065660254959,1005.0063623686743,0,0
15.58,0.014816523,5.2210445,9.333085,1005.0028699999999,5.7092399541261125,1005.0063437833444,0,0
15.6,-0.11416775,5.816862599999999,7.6665807,1004.9956,5.707438480947274,1005.006288683727,0,0
15.62,-0.11416775,5.816862599999999,7.6665807,1004.98785,5.705303461918036,1005.0061736184437,0,0
15.64,-0.5395233,5.3640385,8.035869,1005.0054,5.702990581008318,1005.0060691617326,0,0
15.66,-0.59681046,5.1543083,8.982757000000003,1005.0182,5.701977418623638,1005.0060205348008,0,0
15.68,-0.59681046,5.1543083,8.982757000000003,1005.0054,5.702116334912272,1005.0059753341184,0,0
15.7,-0.32431468,5.349736,8.447773,1005.0054,5.702505394524892,1005.0059333235927,0,0
15.72,-0.30032176,5.249636,8.409906,1005.0129,5.702935232115912,1005.005921283127,0,0
15.74,-0.23338103,5.2639356,8.395705,1005.01276,5.703386552672878,1005.0059352635524,0,0
15.76,-0.63003427,5.3878645999999994,7.964881,1005.0003,5.703282584871187,1005.0059273297072,0,0
15.78,-0.66344595,5.888351999999999,7.2168493,1004.98773,5.702067294101108,1005.0058548089752,0,0
15.8,-0.81637615,5.7024550000000005,7.392024,1005.0201400000001,5.699944480858138,1005.0058421563436,0,0
15.82,-1.0314204,4.9016724,8.438332,1005.0273,5.69794497438748,1005.0059082247158,0,0
15.84,-0.8975154000000001,4.6728760000000005,9.129561,1005.0149,5.697063683531883,1005.0059989731204,0,0
15.86,-0.49118513,5.3211265,8.802893,1005.00494,5.697179311811618,1005.0060753461072,0,0
15.88,-0.29518968,5.621419,8.310516,1004.9998,5.697634265940776,1005.0061202380327,0,0
15.9,-0.33429357,5.9122005,7.728105,1005.00214,5.697760652332683,1005.0061455756813,0,0
15.92,-0.71665734,5.597607,8.026374,1005.0149,5.697753627092628,1005.0061994799547,0,0
15.94,-0.71665734,5.597607,8.026374,1005.0149,5.697628744625438,1005.0062784316432,0,0
15.96,-0.8600308000000001,5.559474,8.362518,1004.99963,5.697955007972463,1005.006324259001,0,0
15.98,-0.52065104,5.778735,8.589771,1005.0099,5.699275487938662,1005.006377624722,0,0
16.0,-0.49195856,5.6548047,8.77915,1005.002,5.7016537193986245,1005.006409019224,0,0
16.02,-0.42503446,5.57854,8.963791,1005.0096,5.7051911691292645,1005.0064482469368,0,0
16.04,-0.45369267,5.3354445,8.168414,1004.9897,5.7080786597441,1005.0064226148547,0,0
16.06,-0.53494245,5.2877792999999995,8.054789,1004.9669,5.71013853153564,1005.0062576849338,0,0
16.08,-0.48712385,5.5118065000000005,6.847517,1004.9845,5.70970035979766,1005.0060336251896,0,0
16.1,0.20596142,6.026594599999999,7.4109125,1005.0143,5.708616426726666,1005.0058654049492,0,0
16.12,-0.2576658,5.61667,7.9743075,1005.0044,5.707387603890077,1005.0057114900868,0,0
16.14,-0.5492133000000001,5.397408,7.567150999999999,1004.9968,5.705107849051153,1005.00554340955,0,0
16.16,-0.5492133000000001,5.397408,7.567150999999999,1004.9865,5.70190769781238,1005.0053263373137,0,0
16.18,-0.92201054,6.260154,7.609762700000001,1005.0119,5.699123443307028,1005.0051581974707,0,0
16.2,-1.0510583999999998,6.212488,7.666576400000001,1004.99896,5.6967720675792695,1005.0049873155948,0,0
16.22,-1.5338048999999998,5.497505,8.973272999999997,1004.9915,5.696289616483576,1005.0047877700334,0,0
16.24,-1.2517896000000002,5.5404034000000015,8.712882,1005.00146,5.696974408778787,1005.0045994716028,0,0
16.26,-0.9745472,5.36404,8.229973,1004.9737,5.697588817313932,1005.0043218530119,0,0
16.28,-0.7833414000000001,5.216277,7.8843637000000015,1005.0037,5.697336906828281,1005.0040743105543,0,0
16.3,-0.46308082,5.4641376,7.7612705,1005.0089999999999,5.6963556904258805,1005.0038733145208,0,0
16.32,-0.28621435,5.859761,7.9601169999999986,1004.9862699999999,5.695534641939714,1005.0036323424932,0,0
16.34,-0.23840263,5.9407926,8.438292500000001,1004.9938,5.695760215222923,1005.0033840231764,0,0
16.36,0.029280096000000002,6.083789299999999,8.71289,1005.0317,5.697542078750935,1005.003266545745,0,0
16.38,-0.07107517,5.7596625999999995,8.689219,1005.01166,5.700273403951813,1005.0031929591215,0,0
16.4,-0.3867777,5.6881699999999995,7.5103307,1005.00885,5.701764057089839,1005.0031483033287,0,0
16.42,-0.44413339999999996,5.5547059999999995,7.638159799999999,1005.0013,5.702206308430518,1005.003102191578,0,0
16.44,-0.558843,5.230580000000002,8.07846,1005.0059,5.702105846488322,1005.0030715193452,0,0
16.46,-0.759591,5.173381299999999,7.898553,1004.9888,5.701177689813695,1005.0029930398907,0,0
16.48,-0.759591,5.173381299999999,7.898553,1005.0063,5.6995215234375145,1005.0029356005012,0,0
16.5,-1.0702707,5.6452703,7.974303999999999,1005.02094,5.697968504566988,1005.0029496628947,0,0
16.52,-1.0702707,5.6452703,7.974303999999999,1005.0007300000001,5.696512217700387,1005.0029540976393,0,0
16.54,-0.9029735999999999,5.807333,8.518761,1005.044,5.696228791115806,1005.0031057814281,0,0
16.56,-0.84083045,5.459375,9.574534,1004.9982,5.698446539491234,1005.0032221484106,0,0
16.58,-0.7404508000000001,5.240113,8.864372999999997,1004.9932,5.7013496833508945,1005.003288890542,0,0
16.6,-0.48233956,5.373576,8.2678385,1004.9703400000001,5.703909529129442,1005.0032292478836,0,0
16.62,-0.009133235,5.4355416,7.7328515,1005.0057,5.705283154800051,1005.003185442338,0,0
16.64,-0.009129435,5.4689074,7.4913974,1005.0104,5.705236094221407,1005.0031727081656,0,0
16.66,0.019553185,5.4736733,7.9743070000000005,1005.0462,5.704758908870777,1005.0033163545016,0,0
16.68,-0.06170156,5.4593739999999995,8.054791999999999,1005.0204,5.704025200013287,1005.0035047815276,0,0
16.7,-0.28156679999999995,5.387875,8.234699,1004.9876,5.7033042949742505,1005.0036140184346,0,0
16.72,-0.29590434,5.454607,8.27731,1004.9931,5.702748266947888,1005.0036726896992,0,0
16.74,-0.2576621,5.583304,8.0831995,1005.0082,5.702152933802543,1005.0037408299456,0,0
16.76,-0.40583032,5.3974085,8.367264,1005.0278300000001,5.701811698575332,1005.0038877596794,0,0
16.78,-0.08557967,5.664335299999999,8.187357,1005.0177,5.701677120806543,1005.0040673108574,0,0
16.8,-0.18594979,5.4260072999999975,8.187357,1005.0102,5.701450756196837,1005.0042480399593,0,0
16.82,-0.19072583,5.4736730000000025,8.215764,1005.0227699999999,5.701248280735881,1005.0044744112497,0,0
16.84,-0.19072583,5.4736730000000025,8.215764,1005.0053,5.701067642638421,1005.0046774050412,0,0
16.86,-0.18594028,5.874063,7.8228097000000005,1005.02026,5.700720793197736,1005.0049128676976,0,0
16.88,-0.56354094,5.4927387,7.9174979999999975,1005.0048,5.69995447312533,1005.0051205161767,0,0
16.9,-0.25728044,5.664326,8.007483500000001,1005.0303,5.69915087044531,1005.005394640515,0,0
16.92,-0.24770312,5.597594,8.087971000000001,1005.0048,5.698374239583815,1005.0056347160744,0,0
16.94,-0.46755630000000004,5.5403949999999975,8.296286,1005.025,5.6979317400668625,1005.0059165618608,0,0
16.96,-0.4866578,5.683391,8.187396000000001,1005.0097,5.697768195169724,1005.0061792211748,0,0
16.98,-0.46752077,5.6500244,7.9885526,1005.01245,5.697471975810585,1005.0064338817483,0,0
17.0,-0.4053656,5.721523,8.035898,1005.0224599999999,5.6972199481444825,1005.0067165938573,0,0
17.02,-0.57264984,5.6595572999999995,8.078509,1005.0219999999999,5.697023134794162,1005.0070214185383,0,0
17.04,-0.5487331,5.778721,7.84179,1005.00714,5.696618356085348,1005.0072911885197,0,0
17.06,-0.6682104,5.578525,8.282092,1005.01715,5.696554045747923,1005.0075650489972,0,0
17.08,-0.62039465,5.5689910000000005,8.362578,1004.98926,5.696912127564207,1005.007741133938,0,0
17.1,-0.5295517,5.4498267,8.462003,1004.98425,5.697668482989662,1005.0078121545099,0,0
17.12,-0.5916714,5.4784255,8.121127,1005.007,5.698223348760289,1005.007871984531,0,0
17.14,-0.505626,5.6500216,7.747111,1005.0169,5.6981571602694725,1005.0079573511932,0,0
17.16,-0.6059842,5.5451565,8.135333000000001,1005.00684,5.6980873678114055,1005.0080287587117,0,0
17.18,-0.40521467,5.7548847,7.936489599999999,1004.9968,5.697905958608063,1005.0080514308637,0,0
17.2,-0.3573989,5.492724,8.353119,1005.0395,5.6980253309351125,1005.008184678826,0,0
17.22,-0.6537378,5.3544936,8.575637,1004.97144,5.698675047683048,1005.0081701358818,0,0
17.24,-0.6489314,5.611887,7.922291800000001,1004.9939999999999,5.698957780511625,1005.0081062732472,0,0
17.26,-0.58200526,5.6214194000000015,8.173214999999999,1005.0093400000001,5.699344662179812,1005.0080542856392,0,0
17.28,-0.5055106,5.6357193,8.116405,1004.9967,5.699733337973585,1005.0079674739608,0,0
17.3,-0.40032834,5.5880527,8.073798,1005.0016,5.699983072492008,1005.0078678442552,0,0
17.32,-0.24736574,5.6023526,8.29158,1005.0066,5.7004889588681324,1005.0077752472084,0,0
17.34,-0.09439427,5.9550769999999975,7.529342999999999,1005.0065,5.700367734546119,1005.0076888375676,0,0
17.36,0.08247624,5.854979,7.628767,1005.0139999999999,5.699727745630008,1005.007635206194,0,0
17.38,0.05381517,5.6690830000000005,7.9838495,1005.0089999999999,5.698995519966059,1005.0075927307696,0,0
17.4,-0.080209605,5.902648999999999,7.9270186,1005.0389,5.698374794539156,1005.0076679056544,0,0
17.42,-0.47214466,5.854983,8.206349000000001,1005.06396,5.698287943386241,1005.0079369817216,0,0
17.44,-0.7063461999999999,5.840683,8.353117,1005.0139999999999,5.6989329985414505,1005.0081965642007,0,0
17.46,-0.773259,5.7691846,8.305773,1005.0210599999999,5.700067291349419,1005.0084722396484,0,0
17.48,-0.95966244,5.721519,8.783949,1005.02356,5.702428949257147,1005.0087701424108,0,0
17.5,-1.0217955,5.6261873,8.656121,1005.01105,5.705549581650048,1005.009041576779,0,0
17.52,-0.8688284,5.707218599999999,8.035914,1005.0210599999999,5.708332535060692,1005.0093246825104,0,0
17.54,-0.7302052,5.5880547,7.799195299999999,1005.01605,5.710240951806526,1005.0095990458777,0,0
17.56,-0.67284316,5.6595526,7.5293345,1005.01855,5.710997695630747,1005.0098736967838,0,0
17.58,-0.8066643,5.5403886,8.230027999999999,1005.03864,5.711795539624046,1005.010219937016,0,0
17.6,-0.4338352,5.731050499999999,8.523561500000001,1005.01855,5.713305221128381,1005.010555863112,0,0
17.62,-0.05621738,5.697685,8.319983,1005.0258,5.7150306665211925,1005.0109075663032,0,0
17.64,0.3022768,5.692918,8.376797,1005.01575,5.717041561164187,1005.011235764004,0,0
17.66,0.19712995,5.71675,7.4109793,1005.0007300000001,5.717695107981747,1005.0114879387423,0,0
17.68,0.20191424,5.955078,7.160056,1005.0333,5.717049843926565,1005.0117892837616,0,0
17.7,-0.36686915,5.907412,7.7187166,1005.0434,5.716115089437063,1005.0121693507988,0,0
17.72,-0.529378,5.9121785000000004,8.050125999999999,1005.0131,5.7154997493063355,1005.0125085283701,0,0
17.74,-0.629745,6.0456424,8.296316000000001,1005.0306,5.715756600969603,1005.0128733549699,0,0
17.76,-0.78268987,5.988443,7.9696425999999985,1005.0306,5.7161903244649,1005.013259531676,0,0
17.78,-0.7300986999999999,5.769181,8.230036,1005.0383,5.716940346961351,1005.0136909030992,0,0
17.8,-1.0455613000000001,5.349724,8.547242,1005.0328400000001,5.7180923961017145,1005.0141409996374,0,0
17.82,-1.1841669,5.316357599999999,7.960176,1004.9951,5.718572431981496,1005.01447015734,0,0
17.84,-1.0025297,5.3783226,7.4962050000000024,1005.0177,5.717698532854833,1005.0147726285196,0,0
17.86,-0.58667797,5.788246599999999,7.6571755,1005.00745,5.71633051243988,1005.0150135305913,0,0
17.88,-0.47194934,6.050407,7.7565990000000005,1005.0252,5.7150128775403575,1005.0152630629517,0,0
17.9,-0.5003989000000001,5.874038,8.088028,1005.03015,5.714076933454067,1005.0155371427188,0,0
17.92,-0.5816465999999999,5.673843,8.291608,1005.0151,5.7135966266893705,1005.015777745887,0,0
17.94,-0.32351056,5.888338,8.144845,1005.00726,5.713503513099427,1005.0159596789612,0,0
17.96,-0.2661263,6.002733999999999,7.9365335,1005.0096,5.713542678826247,1005.0160975401816,0,0
17.98,-0.38083267,5.8168383000000015,8.196926,1005.0151,5.713914402596574,1005.0162157632112,0,0
18.0,-0.41427362,5.8025384,7.775566,1005.03217,5.713856377165687,1005.0163776603323,0,0
18.02,-0.29954055,5.8073044000000005,8.097507,1005.03265,5.713955730540446,1005.0165792930513,0,0
18.04,-0.34732082,5.773937999999999,7.8276477,1005.01965,5.713702914744793,1005.0167685102672,0,0
18.06,-0.26604638,5.778704,7.822914599999999,1004.9894400000001,5.713132477877196,1005.016837319962,0,0
18.08,-0.00313054,5.9598327000000015,7.946011500000001,1005.0296599999999,5.712705911572669,1005.0169442818564,0,0
18.1,-0.00313054,5.9598327000000015,7.946011500000001,1005.01965,5.712408004936368,1005.0170485339715,0,0
18.12,-0.079571895,6.002731,7.964952499999999,1005.0373,5.7123105612685015,1005.0172135564183,0,0
18.14,-0.14169163,5.935998400000001,7.8844695000000025,1005.0094,5.7121749848295975,1005.0173312414493,0,0
18.16,-0.14169163,5.935998400000001,7.8844695000000025,1005.01984,5.712006202349386,1005.0174442594732,0,0
18.18,-0.04129795,6.0170293,7.8986740000000015,1005.0094,5.711931966790531,1005.017515162865,0,0
18.2,-0.30894923,5.9979629999999995,7.7045655,1005.0145,5.711607687308892,1005.0175669585159,0,0
18.22,-0.21811518,5.8740315,7.822927,1005.0067,5.711097508551142,1005.0175736041024,0,0
18.24,-0.33280385,5.897864,7.9554934999999976,1005.04974,5.71068193482864,1005.0176952751677,0,0
18.26,-0.38059297,5.9264627,8.0738535,1005.0523699999999,5.710588111794023,1005.0179276127304,0,0
18.28,-0.17981458,6.0789924000000015,7.841870299999999,1005.0295,5.710573282183911,1005.0181745667952,0,0
18.3,-0.14634712,6.1075916,7.8371366999999985,1005.0649400000001,5.710655868929996,1005.0185611309661,0,0
18.32,-0.36141163,5.940761599999999,7.8986864,1005.0267,5.710726503895499,1005.018931998996,0,0
18.34,-0.37096238,5.902629,7.695108,1005.04706,5.710402440310769,1005.0193609587907,0,0
18.36,-0.25622039999999996,5.9884257000000005,7.8371425000000015,1005.04205,5.7100657705665325,1005.0198216682139,0,0
18.38,-0.21796423,6.0217915,7.7992687000000025,1005.0191699999999,5.709697082981245,1005.0202264050548,0,0
18.4,-0.23732549,6.078996,7.7424335000000015,1005.03674,5.709282202424923,1005.020643479469,0,0
18.42,-0.31857067,6.0503964,7.676153,1005.0497,5.708687815119332,1005.0211166098953,0,0
18.44,-0.38070429999999994,5.9455323,7.7566380000000015,1005.04175,5.707939889811312,1005.0216089481444,0,0
18.46,-0.31856304,5.9645980000000005,7.7377014000000015,1005.05176,5.707047321985687,1005.022152522008,0,0
18.48,-0.17516138,6.1886263,7.6903577000000025,1005.0342400000001,5.706233423805206,1005.0226763387946,0,0
18.5,-0.22773162,5.935998400000001,8.149595,1005.0419,5.705932752830843,1005.0232083884875,0,0
18.52,0.09730649,6.3411555,7.553062,1005.0419,5.705624497092113,1005.0237457973976,0,0
18.54,-0.007845386999999999,6.27919,7.6761565,1005.0288,5.705424472279205,1005.0242388470399,0,0
18.56,-0.17512715,6.1075940000000015,7.8418617,1005.02655,5.705370672815425,1005.0246828258546,0,0
18.58,-0.37587129999999996,6.193392,7.482048,1005.02136,5.704986658415918,1005.025063163362,0,0
18.6,-0.40932608,6.169559,7.212186999999999,1005.0493,5.70385440377707,1005.0254864821956,0,0
18.62,-0.44277328,6.1886253,7.3968300000000005,1005.0261,5.702386445908664,1005.0258627353813,0,0
18.64,-0.54792523,6.09806,7.302142,1005.03394,5.700367075465152,1005.0262242708484,0,0
18.66,-0.38061678,6.140959,7.7613807,1005.0465,5.69864715167464,1005.0266167162123,0,0
18.68,-0.45231003,6.0932927,7.737709,1005.01666,5.6971043773109376,1005.0269276367573,0,0
18.7,-0.37582564,6.121892,7.742444,1005.0415,5.695761524324168,1005.0272548266586,0,0
18.72,-0.38059396,6.288721,7.330552000000001,1005.0341,5.6941604589118,1005.0275685742796,0,0
18.74,-0.2802143,6.2458224,7.4536467,1005.049,5.6924672961718175,1005.0279229548096,0,0
18.76,-0.3184489,6.164791,7.747180499999999,1005.0413,5.691067152909684,1005.028284242809,0,0
18.78,-0.41881722,6.0837593,7.785056,1005.0185,5.689896287957307,1005.0285682536113,0,0
18.8,-0.35188854,6.1457242999999995,7.7992606,1005.0461,5.689029476877158,1005.0288823198426,0,0
18.82,-0.24672526,6.1838565,7.8986835000000015,1005.0083,5.688639265929633,1005.0290857324136,0,0
18.84,-0.21804264,6.279187,7.851340299999999,1005.0715,5.688715978820897,1005.0294181591245,0,0
18.86,-0.22759461,6.174323,7.6240897,1005.0263699999999,5.688700940612601,1005.0297009179933,0,0
18.88,-0.22758699999999998,6.2553550000000016,7.567277400000001,1005.0437,5.688620144201968,1005.0300011604253,0,0
18.9,-0.25099677,6.1171120000000005,7.8135114,1005.0715,5.6887013132736906,1005.0304158504604,0,0
18.92,-0.29400164,6.1743107,7.8987317,1005.0261,5.689140425635648,1005.0307667335138,0,0
18.94,-0.31786072,6.0837449999999995,7.733030999999999,1005.0210000000001,5.6895087785627165,1005.0310416135393,0,0
18.96,-0.27959567,6.107577,7.619408,1005.0359,5.689656794742677,1005.0313019877208,0,0
18.98,-0.27956903,6.1218762,7.770911,1005.061,5.689874502996258,1005.031638967192,0,0
19.0,-0.22219805,6.2410398,7.7235684000000004,1005.0459,5.690227520525832,1005.0319880619709,0,0
19.02,-0.3512128,6.241039,7.5389300000000015,1005.0436,5.690409689468058,1005.0323383250943,0,0
19.04,-0.3512128,6.241039,7.5389300000000015,1005.0284,5.690440240790305,1005.0326336396198,0,0
19.06,-0.250797,6.1123410000000025,7.652559299999999,1005.0384,5.690344764538412,1005.0329153384315,0,0
19.08,-0.21254522,6.1647725,7.463185,1005.04846,5.6898996356045295,1005.033220208284,0,0
19.1,-0.07389097,6.117106,7.9934416,1005.0259,5.689943973364179,1005.0334632385353,0,0
19.12,-0.107336275,6.064674,7.7377850000000015,1005.04846,5.689934450846177,1005.0337319684066,0,0
19.14,-0.021259873999999998,6.0885053,7.7425229999999985,1005.0307,5.689914534161643,1005.0339585030348,0,0
19.16,-0.09772341,6.183836,7.57682,1005.0356,5.689741567062472,1005.0341645784214,0,0
19.18,-0.07378443,6.503195,7.870356599999999,1005.0687,5.690326282208205,1005.0344709941504,0,0
19.2,-0.57084405,5.9836392,7.572093,1005.0307,5.690451910782532,1005.0347281675098,0,0
19.22,-0.5325923,6.0265374000000005,7.6289067,1005.018,5.690314608010987,1005.0348951844873,0,0
19.24,-0.41305727,6.02177,7.59577,1005.0481599999999,5.6898733024789205,1005.0350905140241,0,0
19.26,-0.15492123,6.2362647,7.752007499999999,1005.0436,5.68968114667938,1005.0352937413523,0,0
19.28,-0.10709657,6.24103,7.59104,1005.0431,5.689455221378938,1005.0355014155507,0,0
19.3,-0.09752363,6.350661,7.6289167,1005.0051,5.689405960381098,1005.0355754713768,0,0
19.32,-0.23131819,6.2982273,7.785156,1005.04614,5.689699430232617,1005.0356789394074,0,0
19.34,-0.21218567,6.2839279999999995,7.7898912,1005.0511,5.690282781953067,1005.0358258795774,0,0
19.36,-0.23129158,6.2171955,7.7614865,1005.03815,5.690988174552232,1005.0359640827452,0,0
19.38,-0.279063,6.217194999999999,7.652597,1005.0531599999999,5.691625328425971,1005.0361481043662,0,0
19.4,-0.22645852,6.2028947,7.553177400000001,1005.00775,5.692018297995633,1005.036208472695,0,0
19.42,-0.23742992,6.2601275,7.4772979999999984,1005.06616,5.69214917054361,1005.0363696396485,0,0
19.44,-0.2756829,6.3125606,7.3731394,1005.04785,5.691955303862628,1005.036553376066,0,0
19.46,-0.39522177,6.1933975,7.486761,1005.0452,5.691504964581096,1005.0367468534104,0,0
19.48,-0.45738840000000003,5.8978715,8.168512,1005.06573,5.6915800862338415,1005.0370221493199,0,0
19.5,-0.29490426,5.9503045,7.4488807,1005.0278,5.690981732325275,1005.037232201048,0,0
19.52,0.006194204,6.021804,7.6855984,1005.03033,5.69025904143325,1005.0373929548308,0,0
19.54,0.10655551,6.183867,7.287906599999999,1005.0481599999999,5.689002532903099,1005.0375737582364,0,0
19.56,0.13042541,6.4889274000000015,7.458342599999999,1005.0581699999999,5.687961332114584,1005.0378076625957,0,0
19.58,-0.30934575,6.293499,8.069078,1005.0252,5.687843665504667,1005.037968952902,0,0
19.6,-0.45278358,6.01704,8.130622,1005.0350300000001,5.68830799574312,1005.0381008887863,0,0
19.62,-0.39545512,5.864511,7.723459700000001,1005.0229,5.688413297557279,1005.0381627441344,0,0
19.64,-0.30943328,6.0551734,7.434660000000001,1005.04755,5.687967748110784,1005.0382511936408,0,0
19.66,-0.11349049,6.2410703000000005,7.5482830000000005,1005.04254,5.6874557310820855,1005.0383447873274,0,0
19.68,-0.0657216,6.145739,7.775532000000001,1005.0604,5.687128665510813,1005.0385068854747,0,0
19.7,-0.11354883,6.222005,7.917561,1005.0224599999999,5.687297049451742,1005.0385923466099,0,0
19.72,-0.21393928,6.1552734000000004,7.837074799999999,1005.0529,5.687688816280546,1005.0387193676213,0,0
19.74,-0.18528964,6.031344,7.5103984,1005.0576,5.687583579873103,1005.0388995736632,0,0
19.76,-0.06583828,6.23154,7.742379700000001,1005.0327,5.687672817444277,1005.0390364852568,0,0
19.78,-0.13754994,6.1266766,7.766050999999999,1005.0352,5.6878377542083065,1005.039143648994,0,0
19.8,-0.20929077,6.1171440000000015,7.567202,1005.0578,5.687736350880921,1005.0393055017357,0,0
19.82,-0.29057658,5.988448,7.8986073,1005.0629,5.68778164061586,1005.039533455012,0,0
19.84,-0.065954976,6.193411,7.7329006,1005.0551,5.687938194526423,1005.0397909140892,0,0
19.86,-0.30975416,5.8502197,8.130588000000001,1005.0325,5.688428935339421,1005.0399921576387,0,0
19.88,-0.099486545,6.274444,7.335203999999999,1005.05286,5.688447954552349,1005.0402163006717,0,0
19.9,-0.42742085,6.307764,7.449001299999999,1005.0477,5.688293474246413,1005.0404412947732,0,0
19.92,-0.15970616,6.322063,7.9319143,1005.0523,5.688763899345982,1005.0406827909004,0,0
19.94,0.20358177,6.4126267,7.979260000000001,1005.0551,5.689980840428102,1005.0409480788304,0,0
19.96,-0.044922397,5.9931684,7.538964999999999,1005.0473,5.6905898472622685,1005.0412053541625,0,0
19.98,-0.57067794,5.7834395999999995,8.045548,1005.0601,5.691270469418054,1005.0415007033704,0,0
20.0,-0.47981608,6.126631,8.22546,1005.01996,5.692724141146362,1005.0416841273984,0,0
20.02,-0.5036694,6.612817999999999,7.5295070000000015,1005.01965,5.69436959582529,1005.0417668780107,0,0
20.04,-1.3209703000000002,6.0408300000000015,7.330666000000001,1005.0397300000001,5.695257004923282,1005.0418326636913,0,0
20.06,-1.3686999,5.7691339999999975,7.4111576,1005.00964,5.695265132695199,1005.041774898329,0,0
20.08,-1.2444022,5.8596983,7.449034700000001,1005.0498,5.694637176755191,1005.041752747221,0,0
20.1,-1.3877504999999999,5.769132599999999,8.367514,1005.03723,5.6949022172504415,1005.0417168926123,0,0
20.12,-1.1630313,6.264853,8.017174,1005.04755,5.695920077198534,1005.0417062106662,0,0
20.14,-1.1869074,6.3315845,7.9840345,1005.0219999999999,5.697636614854287,1005.0416258297405,0,0
20.16,-1.0291054,6.4173803,7.718914,1005.03723,5.699615108973036,1005.0415389801674,0,0
20.18,-1.1820363999999999,6.121853400000001,8.192357000000001,1005.03723,5.702242648269914,1005.041446727556,0,0
20.2,-1.2871464,5.8453919999999995,7.865687400000001,1005.002,5.7045798750657175,1005.0412232049292,0,0
20.22,-1.0815692,5.7405269999999975,7.5721583,1005.03705,5.705985975971513,1005.0410106767986,0,0
20.24,-0.85684985,5.8072567,7.425398299999999,1005.0247,5.7063604495609495,1005.040764168506,0,0
20.26,-0.7086531,5.8882879999999975,7.363853,1005.0123,5.705800662355049,1005.0404438827718,0,0
20.28,-0.77554744,5.8644547,7.3259797,1005.0219999999999,5.7043361860847055,1005.0400944803192,0,0
20.3,-0.5986035,6.0312815,7.515364,1005.0349,5.702573712763746,1005.039767048183,0,0
20.32,-0.59858066,6.0026817,8.026681,1005.0297,5.70135658133714,1005.0394414877736,0,0
20.34,-0.40256304,6.18381,7.6005898,1005.0171,5.70013899485967,1005.0390733932403,0,0
20.36,-1.1768457,5.9168816,6.3838515,1005.0196,5.696798577084078,1005.038678040695,0,0
20.38,-0.8948144,6.3029720000000005,7.127155999999999,1005.0297,5.693201083073603,1005.0382963862393,0,0
20.4,-1.0727309999999999,6.107569,8.111814500000001,1005.0216,5.6907489773716495,1005.037899049372,0,0
20.42,-0.9436763000000001,6.188601,8.211236999999999,1005.04486,5.689556524758902,1005.037573021938,0,0
20.44,-0.9436763000000001,6.07897,7.770936999999999,1005.0296,5.688620510153171,1005.0372562412184,0,0
20.46,-0.6807871,6.0694370000000015,8.116549000000001,1005.0271,5.6884269026819245,1005.0369397713063,0,0
20.48,-0.6616679,6.055137,8.036064,1005.0247,5.688736051297304,1005.0366160753152,0,0
20.5,-0.7285851,5.888308,7.7851399999999975,1005.0196,5.688874427934084,1005.0362687996665,0,0
20.52,-0.62820923,5.9598064000000015,7.841953299999999,1005.01965,5.6890304508042595,1005.0359021192239,0,0
20.54,-0.70946586,5.8930745,7.609967,1005.03705,5.688747187619987,1005.0355822527564,0,0
20.56,-0.48481512,6.083737,7.884563000000001,1005.0372,5.688740947994735,1005.0353054426351,0,0
20.58,-0.33186138,6.183834,7.993455,1005.0322,5.689272615732821,1005.0350496736188,0,0
20.6,-0.51349396,6.0313044,7.6715149999999985,1005.0372,5.689571786205865,1005.034831417291,0,0
20.62,-0.30318259999999997,6.112336,8.447957,1005.0473,5.6910355743922905,1005.0346834528972,0,0
20.64,-0.6377688,5.921673999999999,7.595764,1005.0599,5.691903362213288,1005.0346434911287,0,0
20.66,-0.45135647,6.7319884000000005,5.986067,1005.1151,5.690926543194916,1005.034897824342,0,0
20.68,-0.011614546000000002,6.5603924,8.826709,1005.0349,5.692434406051189,1005.0351225610016,0,0
20.7,-0.27450374,6.445995,8.717818,1004.99945,5.695816099638269,1005.0351927170944,0,0
20.72,-0.36532003,6.455528299999999,6.6772895000000005,1005.03705,5.697618126658466,1005.0352613932364,0,0
20.74,-0.30318259999999997,6.393562999999999,8.140222,1005.0924699999999,5.700222113909205,1005.0355280264597,0,0
20.76,-0.5421728,6.2934655999999976,8.940335000000003,1004.9939999999999,5.704754581973263,1005.0356141226806,0,0
20.78,-1.120529,6.083737,7.8798285,1004.9641,5.709044253248803,1005.0354327464598,0,0
20.8,-1.3356202,5.9264402,6.3127403,1005.0095,5.710491698329139,1005.035179124544,0,0
20.82,-0.49437475,6.1171026,8.414816,1005.01166,5.7128600870184085,1005.0348703553708,0,0
20.84,-0.75726396,5.9979385999999995,8.059736000000001,1005.04224,5.715327244437972,1005.0346240576497,0,0
20.86,-0.7142457,6.0360713,7.9413753,1005.0774,5.717717669082822,1005.034560422376,0,0
20.88,-0.80506194,5.8787746,7.595764,1005.085,5.719279641102933,1005.0346857767277,0,0
20.9,-0.5995304,6.07897,7.742531,1005.0447,5.720568286147794,1005.0348325910364,0,0
20.92,-0.8098418000000001,5.907374,7.751999400000001,1005.0193,5.721440023473357,1005.0349063988319,0,0
20.94,-0.84808016,5.902608,7.6999210000000025,1005.0171,5.721855310809505,1005.0349075123644,1,2
20.96,-0.7955023,5.950273,7.4963417,1005.0444,5.72158478280029,1005.0349426692368,1,2
20.98,-0.85286003,5.6356800000000025,8.343801,1005.055,5.721750501400756,1005.0350459402404,1,2
21.0,-0.96279544,5.6118474,8.121284,1005.0145,5.7219136779002895,1005.0350632251144,1,2
21.02,-0.5039343,6.007472,7.770936999999999,1005.0525,5.721901047824521,1005.0351412704182,1,2
21.04,-0.6807871,5.8692417,7.5768266,1005.0626,5.721261557598817,1005.0353090826753,1,2
21.06,-0.31274223,6.121869,7.9319070000000025,1005.03705,5.7209354566938435,1005.0354636288879,1,2
21.08,-0.4561363000000001,5.874008,7.5910296000000015,1005.0271,5.720024189183892,1005.0355700768578,1,2
21.1,-0.43223733,5.6356800000000025,7.3969190000000005,1005.0573,5.717975818159733,1005.035742362007,1,2
21.12,-0.4274575,5.4211855,7.2596216,1005.0249,5.714433857132915,1005.0358555606616,1,2
21.14,-0.5182737000000001,5.6309137000000025,7.231215,1005.0448,5.7098117958869405,1005.0359877829744,1,2
21.16,-0.22670572,5.783444,7.4821386,1005.0372,5.70483360821289,1005.0361089785916,1,2
21.18,0.11744018,5.8978410000000006,8.571052,1005.0575,5.701523590118657,1005.0362930747156,1,2
21.2,0.47592545,6.283932,7.6147017,1005.0299,5.698617357967271,1005.036432726982,1,2
21.22,0.657558,6.3363643,7.1791368,1005.0450400000001,5.695483489208492,1005.0365871099074,1,2
21.24,0.76271373,6.2982316,7.245417999999999,1005.04755,5.692227173232457,1005.0367629890646,1,2
21.26,0.72466314,6.231495400000001,7.2927794000000015,1005.0473,5.6888523345651745,1005.0369563291272,1,2
21.28,1.245666,6.655719,7.841971400000001,1005.055,5.686925039109527,1005.0371921216215,1,2
21.3,1.0353591,6.627119500000001,7.3685303,1005.08,5.685459418082835,1005.037554576232,1,2
21.32,0.829832,6.4984217000000015,6.9377002999999995,1005.0448,5.683529418967037,1005.0379009246512,1,2
21.34,0.47135115,6.5174885,7.0465918000000025,1005.0275,5.681337611957482,1005.0381695147856,1,2
21.36,0.24192278,6.3935575,7.027655,1005.05505,5.678701592744497,1005.0384676107753,1,2
21.38,-0.26951185,6.055132,8.443242,1005.0723,5.677531639846918,1005.0388528049926,1,2
21.4,0.21803476,6.3935575,10.199705999999999,1005.0604,5.6810832114957694,1005.0392707325057,1,2
21.42,-0.20258361,6.6318850000000005,8.111835000000001,1005.04755,5.685551196857298,1005.0396698186188,1,2
21.44,-0.049625494000000006,7.2038720000000005,8.703636,1005.0626,5.692514193653894,1005.0401049997612,1,2
21.46,0.1367891,7.094241,9.124997,1005.1003,5.702198761703782,1005.04070622782,1,2
21.48,0.60521644,4.5631995000000005,12.893585,1005.0752,5.718683590397532,1005.0413616505124,1,2
21.5,-0.21690539,3.137999,11.81414,1005.0278,5.738072985551892,1005.0418919600612,1,2
21.52,-0.3889761,3.4716578,9.101328,1005.0077,5.754810762626637,1005.0422374505223,1,2
21.54,0.92547435,5.3735137,6.123387,1004.99506,5.7659246786228,1005.0423728870722,1,2
21.56,0.71516514,5.831103,5.8014480000000015,1005.0350300000001,5.772148447897465,1005.0424661244142,1,2
21.58,-0.6470745,4.9445233,6.005028,1005.0328,5.7730916690916,1005.0425137108816,1,2
21.6,-0.23122723,4.968356,6.748328999999999,1005.0732,5.7705661145773615,1005.042666228925,1,2
21.62,0.1416019,4.5822644,8.973500999999997,1005.0452,5.768504631029656,1005.042810115444,1,2
21.64,-0.29335368,5.087519599999999,6.857222,1005.0636599999999,5.763673698770482,1005.0430123131566,1,2
21.66,-0.32202804,5.5832415,5.8582625,1005.0758,5.755489538599933,1005.0433090107283,1,2
21.68,-0.11649215,5.626140599999999,7.699946400000001,1005.0657,5.747360734447036,1005.0436517802636,1,2
21.7,-0.21208377,6.2076607,9.139206,1005.061,5.742454864303228,1005.0440171050162,1,2
21.72,-0.62792015,6.2934585,8.045558999999999,1005.06573,5.738717983377264,1005.0444180723897,1,2
21.74,-0.95294243,6.279158,7.761495599999999,1005.0131,5.735601150584989,1005.0446596221001,1,2
21.76,-1.086977,6.017002,7.4300685,1005.0481599999999,5.732198861985394,1005.0448856567848,1,2
21.78,-2.0620627000000002,5.6309114000000005,9.825677,1005.05615,5.732481854706736,1005.0451259326677,1,2
21.8,-1.2733988,6.45076,9.025561999999999,1005.05566,5.7353044694180895,1005.0453761630804,1,2
21.82,0.021924183,6.2124314000000025,9.669441,1005.05347,5.741039533453826,1005.0456264044856,1,2
21.84,0.47122390000000003,5.6356782999999995,10.161819,1005.0585,5.749610774947107,1005.0458938627353,1,2
21.86,0.7245497,4.3201084000000005,9.300157,1005.0231,5.757852589899692,1005.0460481309387,1,2
21.88,0.25134528,4.0436487,7.093923599999999,1005.0461,5.761386430550082,1005.0461846290524,1,2
21.9,-0.27443695,3.8911195,6.2606683,1005.05615,5.759099615623389,1005.0463411141203,1,2
21.92,-0.53733,4.2009454,6.3080115,1005.08105,5.752138109918048,1005.046604336316,1,2
21.94,-0.9722959000000001,4.7157335,7.818287,1005.0534,5.744363653696617,1005.0468613838373,1,2
21.96,-0.46086073,5.4640827000000005,8.466901,1005.05615,5.73778084294934,1005.047121950045,1,2
21.98,-0.6090385,5.7548428,7.927177,1005.0613,5.73170783102366,1005.0474032273262,1,2
22.0,-0.61860186,6.3792615,7.4679394,1005.0336,5.726161966144838,1005.0476020723132,1,2
22.02,-0.67596143,6.46506,7.2832979999999985,1005.0613,5.720937787834765,1005.0478270842838,1,2
22.04,-0.98187256,5.9359720000000005,8.315398,1005.0415,5.717059244728615,1005.0480031273572,1,2
22.06,-0.9675370000000001,6.0694360000000005,7.695190400000001,1005.0465,5.713520176487773,1005.0481532677588,1,2
22.08,-0.9293043,6.5031930000000004,7.794612400000001,1005.0638,5.711011548778832,1005.0483422600536,1,2
22.1,-1.2877916,6.1933665,8.419554,1005.05896,5.710123864544728,1005.0485474775087,1,2
22.12,-1.6988584,6.05037,8.585258,1005.0644,5.710896923651839,1005.0487858767333,1,2
22.14,-2.1816242000000003,5.9598059999999995,9.707310000000001,1005.0467,5.715126494407878,1005.0489890171318,1,2
22.16,-2.13383,5.2352896,9.816202,1005.0642,5.7218337014480385,1005.0492232715263,1,2
22.18,-2.0143368,5.063693,9.891952499999999,1005.04926,5.7306352505179365,1005.0494303909315,1,2
22.2,-2.129054,4.6871347000000005,9.778326,1005.0317,5.740750441397793,1005.0495495722313,1,2
22.22,-2.855588,3.8529882000000004,8.42902,1005.0317,5.7491781235110455,1005.0495906223673,1,2
22.24,-2.5114457999999997,4.544139,8.050267,1005.0268,5.755838023432977,1005.0495448480267,1,2
22.26,-2.4588737000000003,4.291511,7.363778599999999,1005.03925,5.759438985759131,1005.0494673403668,1,2
22.28,-1.737889,4.0103035,9.210127,1005.0346,5.763075828934313,1005.0493453321733,1,2
22.3,-1.776144,3.9769379999999996,8.802966,1005.07434,5.765955988365841,1005.0493275065373,1,2
22.32,-1.6519021,3.9245067000000002,8.03599,1005.0218,5.7666457605313335,1005.0492126567821,1,2
22.34,-1.3603836,3.8863754,8.414736999999999,1005.0419,5.765966666100778,1005.0490848499736,1,2
22.36,-1.4225374,4.229566999999999,8.012311,1005.0369999999999,5.763671013869533,1005.048928414418,1,2
22.38,-1.709375,4.691925,8.731936,1005.0296,5.7618005314773395,1005.0487206056692,1,2
22.4,-1.9722808999999997,4.792023,8.826622,1005.0345,5.760679091443262,1005.0484857916783,1,2
22.42,-1.4226364,5.6071053,8.641978,1005.04205,5.760564468072754,1005.0482551411858,1,2
22.44,-1.3079375,5.831134,9.276386,1005.0445599999999,5.7626603063459605,1005.0480380359024,1,2
22.46,-1.2267139,5.6404724,9.309525,1005.07495,5.76653377887463,1005.0479430847447,1,2
22.48,-0.9734337,4.7586603,9.896586,1005.04486,5.7721104013921085,1005.0478480867964,1,2
22.5,-0.82049644,4.3201375,10.218524,1005.01984,5.779380196624882,1005.0476633174973,1,2
22.52,-0.26129234,4.153308999999999,9.849238,1005.012,5.7872215918386365,1005.0473716674014,1,2
22.54,-1.293763,4.205742,8.225334,1005.0275,5.7927048727897565,1005.047042427374,1,2
22.56,-1.4945476999999998,4.4202375,8.324753,1005.0473,5.796531441944933,1005.0467524381472,1,2
22.58,-1.2842528999999998,4.448837,8.2442665,1005.0146,5.798698292345277,1005.0463804548892,1,2
22.6,-1.9534913,4.158079,8.736638000000001,1005.02216,5.800253880091457,1005.0459645768448,1,2
22.62,-2.235516,4.215278,8.414699,1005.0323,5.800853116540666,1005.045547914528,1,2
22.64,-1.8961995999999999,4.377342700000002,8.495178999999998,1005.0552,5.800749839261641,1005.0452144992123,1,2
22.66,-1.8961995999999999,4.377342700000002,8.495178999999998,1005.0727,5.800026192650558,1005.0450188412427,1,2
22.68,-0.63917714,4.539407,9.034894,1005.0275,5.799564281296856,1005.044782890032,1,2
22.7,-0.45756108,4.644271400000001,9.068033999999999,1005.02515,5.799474732008528,1005.0445037251384,1,2
22.72,-0.3811172,4.7586694000000005,9.157985,1005.0096,5.799982965673758,1005.0441314016276,1,2
22.74,-0.24253589,5.2734585,7.988583599999999,1005.0175,5.799453912094678,1005.0437065435277,1,2
22.76,-0.56153524,5.259128,8.892969,1005.0101,5.799614064921545,1005.043210155354,1,2
22.78,-0.8578735999999999,5.2019296,8.599437,1005.05286,5.7998422740260125,1005.0428062862044,1,2
22.8,-1.0825148999999998,5.2734275,8.533155,1005.0126,5.800134872158862,1005.0423406847932,1,2
22.82,-2.1340432000000003,6.0408425,7.766185000000001,1005.0376,5.800438347403079,1005.0419122129213,1,2
22.84,-2.406473,5.383057,9.991357,1005.0476,5.803938259128605,1005.0415540912088,1,2
22.86,-3.4580107000000004,3.6670961,9.9345455,1005.0225,5.809290754314772,1005.0411690601352,1,2
22.88,-3.2190015,3.6194305,7.941363000000001,1005.0399,5.8124406486903295,1005.040824278062,1,2
22.9,-2.7075433999999996,3.6861617999999994,9.295404,1005.03015,5.815831314193367,1005.040481201221,1,2
22.92,-1.7897927,3.30007,8.8882475,1005.0353,5.817944474626852,1005.0401594061999,1,2
22.94,-1.5460132,3.1666060000000003,10.015038,1005.0808,5.820933872491956,1005.0400213742572,1,2
22.96,-1.1731790000000002,3.2285714,10.635245,1005.0129,5.825849332090874,1005.0398017722853,1,2
22.98,-0.59479415,3.8577559999999997,9.101301,1005.0328400000001,5.829802608448676,1005.0395826696024,1,2
23.0,0.0027003879999999997,4.2533793,9.399569999999999,1005.0252,5.833752184807843,1005.0393372928612,1,2
23.02,-0.20760153,4.1675816,9.352227000000001,1005.0278300000001,5.837525828664313,1005.0390790517188,1,2
23.04,-0.4465822,4.115149,8.741489999999999,1005.02795,5.839947996553445,1005.0388108052588,1,2
23.06,-0.85283697,4.129448,8.542646000000001,1004.99506,5.840865117376112,1005.0384162797881,1,2
23.08,-0.5516808000000001,5.1637897000000015,7.6383785999999985,1005.0002,5.839846184921408,1005.0379300984747,1,2
23.1,-0.5086435,5.7977414000000005,7.5105515,1005.0204,5.837671169897388,1005.0374374003118,1,2
23.12,-0.4273774,6.0694349999999995,7.600506,1005.03033,5.834969466373353,1005.0369764655736,1,2
23.14,-0.618541,5.2209873,8.059747,1005.0328400000001,5.831577239931241,1005.0365542923632,1,2
23.16,-0.6615401999999999,4.639467,8.798314999999997,1005.0227699999999,5.828305500149447,1005.0361316366619,1,2
23.18,-0.4368704000000001,4.8634949999999995,8.026607499999999,1005.0605,5.823960367509499,1005.0358459041923,1,2
23.2,-0.5898146,4.658532,9.290695,1005.0780599999999,5.820791401416005,1005.0357454017272,1,2
23.22,-0.77141863,4.644232,8.940352,1005.0504,5.818037537823957,1005.0357093543026,1,2
23.24,-0.5371986999999999,4.8634934,8.637350999999999,1005.04535,5.81529223930156,1005.0357122091227,1,2
23.26,-0.6614545999999999,4.572733,9.484811,1005.03546,5.813859849789273,1005.0357138236893,1,2
23.28,-0.40917772,4.534626,8.438412,1005.0404699999999,5.811593371299241,1005.0357323725543,1,2
23.3,-0.46177840000000003,4.8635197,7.9412966,1005.01776,5.8080479071687146,1005.0356840617908,1,2
23.32,-0.67689246,4.796787999999999,8.7840185,1005.04535,5.804855761796187,1005.0356761717776,1,2
23.34,-0.67690384,4.610893,9.404225,1005.0404699999999,5.802952432149465,1005.0356864579436,1,2
23.36,-0.52874136,4.5822935,9.688289,1005.061,5.802682587886323,1005.0357866755513,1,2
23.38,0.13561715,5.1495147,8.817155,1005.0429,5.802779044723282,1005.0359008357973,1,2
23.4,0.4319536,5.2686787000000015,8.864497,1005.0404699999999,5.803426248867465,1005.0360181567817,1,2
23.42,0.3984493,4.7062263,9.243245,1005.0426,5.8046802594684905,1005.0361455162393,1,2
23.44,0.3984493,4.7062263,9.243245,1005.0205699999999,5.806465929816617,1005.0362019791977,1,2
23.46,0.29327077,4.8539900000000005,9.782966,1005.00775,5.809847469045414,1005.0361494427423,1,2
23.48,0.035115704,5.2448487,8.741392,1005.0504,5.813108181965122,1005.0361543235364,1,2
23.5,-0.31382143,4.4393015,9.498896,1005.0458,5.81686469953358,1005.0361933606416,1,2
23.52,-0.67231816,3.8244157,9.669333,1005.00775,5.8209005862106915,1005.0361254577292,1,2
23.54,-0.6580129,4.3582706,8.3342285,1005.04065,5.823107148784549,1005.036081747068,1,2
23.56,-0.32344946,4.282006,9.835033000000001,1005.0479,5.826398973897972,1005.0360856700383,1,2
23.58,-0.19919743,4.053212,9.385261999999999,1005.0106,5.829584931351246,1005.035997387963,1,2
23.6,-0.33784598,4.034147,8.604082,1005.01276,5.831177363722074,1005.0358357273244,1,2
23.62,-0.017621964,4.2915410000000005,8.357891,1005.0458,5.831119997593044,1005.0357287553657,1,2
23.64,0.2070174,4.496504,8.514125,1005.02795,5.8300944562375365,1005.0356062314237,1,2
23.66,0.101850316,4.420239,8.528328,1005.0454,5.828166296138598,1005.0355332268356,1,2
23.68,0.058797807,4.105647,9.105922,1005.0454,5.826242660583308,1005.0355042403647,1,2
23.7,0.16394208,4.0436819999999996,9.086983,1005.0050699999999,5.824243821997443,1005.0353690646538,1,2
23.72,0.41723746,4.377342,7.3731256,1004.99,5.819353469577117,1005.0350862947628,1,2
23.74,0.40288663,4.4726734000000015,7.496219,1005.0253,5.8122451989384345,1005.0348012086259,1,2
23.76,0.31231868,4.9683895,7.524648,1005.0429,5.803792846599956,1005.0345784621646,1,2
23.78,0.21671696,5.0780199999999995,7.5388509999999975,1005.0403,5.794328411146507,1005.0344022409274,1,2
23.8,-0.256495,5.130452,7.8513202999999985,1005.03015,5.784607130848584,1005.0342312237747,1,2
23.82,-0.6245513,5.192418,8.935497999999997,1005.0653699999999,5.77671211046355,1005.0341922126132,1,2
23.84,-1.2746217,5.082788,9.475219000000001,1005.02515,5.771444866572211,1005.0341251903856,1,2
23.86,-1.1790314,5.3449483,9.352122999999999,1005.0477,5.768535913244957,1005.0341148388595,1,2
23.88,-0.43339342,6.0075,9.593577,1005.08295,5.768742814977255,1005.0342814988312,1,2
23.9,-0.44297004,5.421214599999999,9.749811,1005.0476,5.771363001218183,1005.0344767061866,1,2
23.92,-0.16574721,5.6357093,9.068056,1005.0505400000001,5.775094965530669,1005.0347070192636,1,2
23.94,0.39825827,5.9026365,8.750849,1005.0478,5.779556982001548,1005.034957658629,1,2
23.96,0.36001414,5.7644067,8.855006,1005.0577,5.784666894887782,1005.0352609960013,1,2
23.98,0.72804195,5.9360029999999995,8.045422,1005.02515,5.789193200345625,1005.0354926253177,1,2
24.0,0.35998565,5.464114,8.372094,1005.03015,5.793144271724452,1005.0356780595304,1,2
24.02,0.25003874,5.2400866,7.7376833,1005.00745,5.795210424354572,1005.0357402881866,1,2
24.04,0.18788986,5.364017,6.975442999999999,1005.0727,5.794466702674358,1005.0359283283896,1,2
24.06,0.216563,5.3830839999999975,7.212163,1005.0296599999999,5.791660212550888,1005.0360719147307,1,2
24.08,0.14962862,4.8873625,8.248996,1005.0523699999999,5.788261402705437,1005.0362574607292,1,2
24.1,0.64193135,5.168589,8.722434,1005.02716,5.7855357589653345,1005.0363886583143,1,2
24.12,0.5415498000000001,5.111391,8.523589999999999,1005.0173300000001,5.782987310190178,1005.0364359733306,1,2
24.14,0.47940087,5.1018577,7.856037,1005.0298,5.7794117902231275,1005.0364538913752,1,2
24.16,0.32165593,5.0684924,8.002803,1005.0473599999999,5.77514682892178,1005.0365089857504,1,2
24.18,0.684904,5.6547794,7.7045330000000005,1005.0599,5.77050258793573,1005.0366418747916,1,2
24.2,0.82351255,5.745344,8.017004,1005.03217,5.766196589461683,1005.0367431967993,1,2
24.22,0.1543229,5.1828904,8.930741000000003,1005.0498699999999,5.7630975036800995,1005.0368799814166,1,2
24.24,0.08261445,5.5499163000000005,7.78975,1005.0473599999999,5.7594924118582025,1005.0370385723712,1,2
24.26,0.045605942999999996,5.2019269999999995,9.006604,1005.0523699999999,5.7571908764639375,1005.0372338964786,1,2
24.28,0.045605942999999996,5.2019269999999995,9.006604,1005.0652,5.756049449056546,1005.0375071628323,1,2
24.3,0.42804736,5.402121,8.651527999999999,1005.0498699999999,5.755537237499006,1005.0377931271963,1,2
24.32,0.58102006,5.3878207,8.765157,1005.0245,5.755783369414832,1005.0379979500503,1,2
24.34,-0.121554,4.877797599999999,8.339066,1004.99695,5.755361418158651,1005.038031158904,1,2
24.36,0.1987309,5.0398602,8.28699,1005.0119,5.754432911460656,1005.037966430075,1,2
24.38,-0.10713849,5.035092400000001,7.837225,1005.0319999999999,5.75225922966666,1005.0378877565337,1,2
24.4,-0.24095401,4.892094999999999,8.178104,1005.0523699999999,5.749443739900338,1005.0378703766687,1,2
24.42,-0.13576023,5.0541573,8.613674000000001,1005.0245,5.7470174537036325,1005.037806886464,1,2
24.44,-0.32213452,5.178086799999999,7.804093400000001,1005.03955,5.743662090741529,1005.037757061728,1,2
24.46,-0.82875574,4.954057700000001,8.77465,1005.04205,5.7410345727493475,1005.037728491169,1,2
24.48,-0.7187631,5.3687468,7.709414,1005.1299,5.73762854766116,1005.0380350636548,1,2
24.5,-0.7999818000000001,5.3306135999999995,7.908262700000001,1005.1073,5.7338556013203945,1005.0385553048744,1,2
24.52,-1.034154,5.0064864,9.849372,1004.98193,5.732944730191307,1005.038811138918,1,2
24.54,-0.6087135,5.4116425999999995,7.103420699999999,1004.99695,5.730104959722136,1005.038886493779,1,2
24.56,-0.19761236,5.6881022,8.08818,1005.0522,5.727523351538178,1005.0390010059566,1,2
24.58,-0.22149232,5.549872,8.774671000000001,1005.0522,5.726207651837427,1005.0391497052954,1,2
24.6,-0.57992053,4.9588175,8.708394,1005.0191699999999,5.725294432369144,1005.0392091690919,1,2
24.62,-0.6276805,5.178078,7.93669,1005.0399,5.723616089433772,1005.0392641982936,1,2
24.64,-0.3169552,5.2924747000000005,8.547431,1005.0369999999999,5.722433864102433,1005.0393046709828,1,2
24.66,-0.43165153,5.0589128,8.571106,1005.0747,5.721494255414924,1005.0394678558353,1,2
24.68,-0.39817387,5.077978,8.2728405,1005.0545699999999,5.720259214353759,1005.0396664136896,1,2
24.7,-0.38375834,5.168541,8.504832,1005.04675,5.7192755992966475,1005.0398673603207,1,2
24.72,-0.512794,5.1065755,8.769960000000001,1005.0593,5.718936976065653,1005.0401148742668,1,2
24.74,-0.3119852,5.220971,8.656341000000001,1005.04926,5.719070647907892,1005.0403665000424,1,2
24.76,-0.46170688,5.0494129999999995,8.367399,1005.0593,5.718935391583504,1005.0406569971768,1,2
24.78,-0.47607172,5.0875463,8.135411,1005.0193,5.718195511612276,1005.0408367952556,0,0
24.8,-0.5143228,5.101846,7.917628,1005.0416,5.716562449785299,1005.0409984123752,0,0
24.82,-0.39007329999999996,5.035115,8.348455,1005.0493,5.714819628696269,1005.0411711029767,0,0
24.84,-0.50481397,4.8349204000000015,8.793488499999999,1005.0545699999999,5.713590120878327,1005.0413719284219,0,0
24.86,-0.6147749,4.8015550000000005,8.428936,1005.0819,5.712137597987738,1005.0416952788432,0,0
24.88,-0.40926868,5.011284,8.49995,1005.0545699999999,5.710816728047793,1005.0420273402716,0,0
24.9,-0.19898272,5.235313400000001,8.258492,1005.0193,5.709418269454483,1005.0422389313243,0,0
24.92,-0.093852416,5.082783999999998,8.689322,1005.0618,5.708552895931213,1005.0424963130264,0,0
24.94,0.06384301,5.0970845,8.613567999999999,1005.06433,5.708040550848801,1005.0428023367708,0,0
24.96,-0.026985943,5.087551599999999,8.291627,1005.05206,5.707258272295923,1005.0431060669392,0,0
24.98,-0.27556115,5.106619,8.381578,1005.0593,5.706428438294977,1005.0434327410753,0,0
25.0,-0.39030182,5.1066194000000005,8.035964,1005.0465,5.704958229770911,1005.0437324324736,0,0
25.02,-0.35685593,5.221017,8.26795,1005.0415,5.703458952804295,1005.0439892030366,0,0
25.04,-0.5576331,5.0923204,8.736652000000001,1005.0567,5.702651918684835,1005.044261844375,0,0
25.06,-0.3138885,5.154286,8.731917,1005.0445599999999,5.702494293842702,1005.044503823622,0,0
25.08,-0.25177643,5.0827885,9.105932000000001,1005.0342400000001,5.703507496262032,1005.0446806867194,0,0
25.1,-0.31393927,5.0827894,8.798193,1005.0292400000001,5.704999150669532,1005.04478137648,0,0
