Timestamp,Ax,Ay,Az,P,LPFRMSAcc,LPFPValue,Value,Type
0.0,0.9601508,6.098587,7.574772999999999,990.67004,0.020310705164851933,3.5664121439999996,0,0
0.02,0.9697754,5.89839,8.464848,990.6901,0.059722550000308426,10.271339190720001,0,0
0.04,0.66869646,5.7887580000000005,7.802035000000001,990.67755,0.11457190572927956,19.7252750881152,0,0
0.06,0.5970481,5.736325,7.574788000000002,990.68506,0.18241225799884275,31.57422807273637,0,0
0.08,1.1850193000000002,5.9698844000000015,8.185531,990.69006,0.26290029448065805,45.4967799248858,0,0
0.1,0.8934999,5.82212,7.972488,990.69257,0.35367565194006834,61.201451585715425,0,0
0.12,0.92223066,5.9412827,7.6126770000000015,990.6901,0.4527739039415416,78.42425859951592,0,0
0.14,0.7167511,5.7172527,7.901480999999999,990.71027,0.5590329633830717,96.92656051795177,0,0
0.16,0.7406988,5.7172519999999984,8.105064,990.69257,0.6715838189104596,116.49275212721709,0,0
0.18,0.7216186,5.722018,8.157147,990.69257,0.7893799999587375,136.9285583775059,0,0
0.2,0.7360262,5.936511,8.043528,990.7027,0.9114576028115259,158.0592236901021,0,0
0.22,0.716946,5.907911,8.6448,990.67,1.0378580649268954,179.7276783550277,0,0
0.24,0.5066963,5.965108,8.228178,990.68756,1.1669587434766766,201.79338047087788,0,0
0.26,0.9416942,6.2844663,8.124025,990.6951,1.298268548975745,224.1306810507479,0,0
0.28,0.9162794,5.784015,8.592592,990.7152,1.4312328260787526,246.62762411133843,0,0
0.30000000000000004,0.8302333000000001,5.7268167000000005,8.578388,990.7002,1.5650748697577526,269.18458427287527,0,0
0.32,0.46217573,5.7792487,7.9676485,990.7002,1.698184102288316,291.71337048822693,0,0
0.34,-0.21656595,5.3216595999999985,7.9203033,990.6901,1.8295239027775765,314.13612221435403,0,0
0.36000000000000004,-0.025384583,5.235862,8.251711,990.69257,1.9593016361664783,336.38446885158834,0,0
0.38,0.3283133,5.4598904,8.104942999999999,990.6776,2.0872428416170283,358.39856321238267,0,0
0.4,0.36176175,5.7792497,7.683580999999997,990.69763,2.212774962036521,380.1264936300161,0,0
0.42,-0.015851662,5.3407273,8.086005,990.68256,2.335870619852228,401.52329478596886,0,0
0.44,0.11797272,5.426525,8.138082,990.68256,2.456560520782754,422.5504816421393,0,0
0.46,-0.14014939999999998,5.197731,7.446858,990.6876,2.573236113939033,443.1753975743397,0,0
0.48,0.56247103,5.798317,7.9439692,990.6826,2.6875420741217653,463.37059922076446,0,0
0.5,0.61504257,5.7172856,8.294315,990.72034,2.799844818238016,483.11353846235056,0,0
0.52,0.31868452,5.7601852,8.114407,990.6951,2.9096895477960336,502.3856931977516,0,0
0.54,0.40471023,5.6219550000000025,8.374799000000001,990.71027,3.0172553674047897,521.17253759844,0,0
0.56,-0.044602795999999986,5.4360595,8.265905,990.6951,3.122001300169132,539.462874535534,0,0
0.5800000000000001,0.2039394,5.7554193,8.119138000000001,990.6951,3.2240050958263766,557.2486522648221,0,0
0.6,-0.18801531,5.5552244,8.0481205,990.68756,3.322858674050549,574.524545534268,0,0
0.62,0.11788328,5.707754,8.336919,990.68256,3.4192447660466305,591.2876936792269,0,0
0.64,0.40943992,5.7744865,8.398465,990.68506,3.513303204973544,607.5374418988673,0,0
0.66,0.18955936,5.488493,8.147541,990.7228,3.604187422983815,623.2751867149058,0,0
0.68,0.3233837,5.564759,7.9392257,990.6851,3.691680045772623,638.5037337221835,0,0
0.7000000000000001,0.2038791,5.5170927,8.100195,990.6927,3.7760730201386368,653.2275581364144,0,0
0.72,0.33770412,5.5552254,8.175944,990.6927,3.857605665082965,667.4524038995378,0,0
0.74,0.4954275,5.7697205999999985,8.100192999999999,990.70526,3.9364564337924497,681.185187897795,0,0
0.76,0.5097560999999999,5.6839232000000015,7.825597,990.68005,4.012088437434951,694.433657342223,0,0
0.78,0.34325594,5.745869,7.825669299999999,990.7002,4.084664825975501,707.2065644968878,0,0
0.8,0.23333932,5.559973,8.294377,990.70013,4.154848644329444,719.5132820945607,0,0
0.8200000000000001,0.30983907,5.760168,8.313317,990.7052,4.222936799109456,731.3637886683241,0,0
0.84,0.21426328,5.64577,8.621055,990.73285,4.289320521603679,742.7686248976953,0,0
0.86,0.37201834,5.6362357,7.9014273,990.6876,4.352723259968982,753.7384465003363,0,0
0.88,0.29078323,5.822131,7.5321455,990.68756,4.41287229513144,764.2843976770288,0,0
0.9,0.12351166,5.764932,7.873025,990.68005,4.47041693164228,774.4178244851164,0,0
0.92,0.3529638,5.726799,8.280186,990.7127,4.5261079586864605,784.1503819645966,0,0
0.94,0.18091108,5.741098,7.953513,990.70776,4.579413874234054,793.4936763143927,0,0
0.96,0.27175027,5.6695995,8.052938000000001,990.6675,4.6305067335607895,802.4592369671402,0,0
0.98,0.22875221,5.602867,7.972455,990.6723,4.679241369629543,811.0587733868268,0,0
1.0,0.19531517,5.4980025,7.9345818,990.6799,4.725526076282665,819.303959823069,0,0
1.02,0.05194126,5.426503,7.986662,990.705,4.769480760240874,827.2064503027698,0,0
1.04,0.45824617,5.650531299999999,8.034008,990.7001,4.811586060477582,834.7776680295433,0,0
1.06,0.41047102,5.4455686,7.958259599999999,990.69763,4.8515294142385565,842.0289078760139,0,0
1.08,0.43917006,5.5170665,8.05295,990.6824,4.889667397188072,848.9712559760018,0,0
1.1,0.5921454,5.540899,8.800987,990.7251,4.927414213334616,855.6158285956374,0,0
1.12,0.883735,5.8459578,8.4364395,990.6801,4.964440764275894,861.9732043394031,0,0
1.14,0.55395,5.769692,7.707344,990.6924,4.999329320448804,868.0539706509727,0,0
1.16,0.14290713,5.4122,7.863581,990.6824,5.03200265965596,873.868398109532,0,0
1.18,0.085569695,5.12144,8.076632,990.6849,5.062635834925012,879.4265656187207,0,0
1.2,0.35804147,5.2358365,8.346494,990.6926,5.091970025989673,884.7383201536122,0,0
1.22,0.45365906,5.250136,8.550075999999999,990.67487,5.1204338177571165,889.8131580400899,0,0
1.24,0.50625706,5.3549989999999985,8.138185,990.69495,5.147426498521638,894.6604592476367,0,0
1.26,0.644893,5.6314588,8.043498,990.67255,5.173198707593522,899.2891781213341,0,0
1.28,0.5389554,5.445583,8.30382,990.68005,5.198017314015996,903.7081212568961,0,0
1.3,0.40511072,5.4122167,8.445851,990.7077,5.222100575143231,907.9258978949538,0,0
1.32,0.17089085,5.254921,8.341693,990.7002,5.245075413042842,911.9507128199195,0,0
1.34,0.26647675,5.426517,8.781991,990.7104,5.267957424641186,915.7905741614676,0,0
1.36,0.113513514,5.5647480000000025,8.677833999999999,990.7054,5.2906390472004325,919.4531690158784,0,0
1.38,0.19953926,5.569514,8.933491,990.68744,5.313519007385513,922.9458812047786,0,0
1.4,0.08959360400000001,5.540915,8.45058,990.71765,5.33561105557759,926.2760200625536,0,0
1.42,0.12304275,5.5170827000000005,8.2091255,990.70026,5.3564826238952525,929.4504580210582,0,0
1.44,-0.23545206,5.4360514,7.674136,990.67,5.375194238516668,932.4757817523172,0,0
1.46,-0.27370128,5.04996,7.868245599999999,990.7128,5.391817821615366,935.3586110669493,0,0
1.48,-0.049060598,4.8116330000000005,8.644687,990.6927,5.407659495689027,938.1050817695173,0,0
1.5,0.013067946,5.197724299999999,8.119166,990.6926,5.422226825560666,940.7211783479358,0,0
1.52,-0.31674927,5.2835226,7.811430499999997,990.65753,5.435190450942256,943.212532150574,0,0
1.54,-0.22116335,5.264456299999999,8.332213000000001,990.6851,5.447568844105011,945.5847936148433,0,0
1.56,0.22812806,5.402686599999999,9.0092325,990.70526,5.460734551229732,947.8433575236577,0,0
1.58,0.22333877,5.3740873,8.455306,990.68756,5.473537637426387,949.9932637224013,0,0
1.6,0.3093651,5.5647507,8.469508,990.67505,5.486218753355724,952.0393752702104,0,0
1.62,0.5053274999999999,5.588584,8.41743,990.66504,5.498699860845615,953.9863718268815,0,0
1.64,0.46229857,5.726814,8.190177,990.67236,5.510726716951611,955.8388075417796,0,0
1.66,0.17550079999999998,5.4741870000000015,7.981862,990.6801,5.521635096075751,957.6010483923133,0,0
1.68,-0.11607672,5.1309943,8.384286,990.67,5.531827962987716,959.2772126336322,0,0
1.7,-0.101748124,5.0547304,8.327472,990.6977,5.541168259946723,960.8713851117807,0,0
1.72,-0.14955625,5.2263265,7.7262015,990.68,5.548863192589911,962.3873069270703,0,0
1.74,-0.178244,5.2120266,8.497909,990.6776,5.5564098830556015,963.8286204981224,0,0
1.76,0.18978952,5.631484,8.568924,990.7002,5.564390801758559,965.1989028557113,0,0
1.78,-0.107243806,5.3455076,8.147499,990.66504,5.571665821268879,966.5013624405956,0,0
1.8,0.088691354,5.4980383,8.327403,990.6825,5.578777148839881,967.739267825014,0,0
1.82,0.06953764,5.2883105000000015,8.616199,990.6902,5.585990139398273,968.9157043785157,0,0
1.84,0.30371124,5.5361724,8.14749,990.69257,5.592737418547719,970.0336004334273,0,0
1.86,0.08858324599999999,5.37411,8.010188000000001,990.6776,5.59861501614588,971.0956917859863,0,0
1.88,0.040748417,5.235881299999999,8.303718,990.67755,5.604057101285335,972.1046503946784,0,0
1.9,0.012030467,5.2120495,8.407869999999999,990.70264,5.609251911363598,973.0631189838975,0,0
1.92,-0.040579572,5.254949,8.038585000000001,990.6926,5.613610079630438,973.97348796099,0,0
1.94,0.15057577,5.536177,8.100128,990.6751,5.617646736885932,974.838015792489,0,0
1.96,0.15053897,5.5123453,8.175875999999999,990.6826,5.621487203275387,975.6589530875486,0,0
1.98,0.050130874000000006,5.3216834,8.478875,990.6952,5.625450138207464,976.4384637703482,0,0
2.0,0.25562334,5.4980474,8.209010000000001,990.71014,5.629242440578432,977.1786174440966,0,0
2.02,0.11697219,5.641045,8.114317999999999,990.64984,5.632869848037046,977.881113631422,0,0
2.04,0.15517382,5.74591,8.284754,990.71277,5.636754827914858,978.5480332254697,0,0
2.06,-0.036057435,5.6267467,8.109577,990.7079,5.640410732743838,979.1810988991583,0,0
2.08,0.06428626,5.493284,8.478858,990.6801,5.644334377442961,979.7818721323926,0,0
2.1,0.15506802,5.431319,8.497792,990.69257,5.64844592330476,980.3519938736017,0,0
2.12,0.1024511,5.374121700000001,8.175849000000001,990.67755,5.652081154373561,980.8929254461892,0,0
2.14,0.26492990000000005,5.536185700000001,7.920188,990.70276,5.6550380226795625,981.4062079881212,0,0
2.16,0.17407449,5.4122562000000025,8.085889,990.6826,5.657519366135924,981.8931394534152,0,0
2.18,0.15491848,5.2168283,8.852859,990.7178,5.660704718096671,982.3551608741168,0,0
2.2,0.011489868,5.2454285999999986,8.332071000000001,990.72284,5.663604687853029,982.7935266463014,0,0
2.22,0.08315243,5.1929975,8.100081,990.68256,5.665777352791961,983.2092671626773,0,0
2.24,0.14047323,5.2740297,7.8538895,990.67755,5.66696553893165,983.6035013011616,0,0
2.26,0.2121358,5.312163,8.379405,990.70776,5.668240229547776,983.9774219172418,0,0
2.28,0.19775729,5.3312306,8.521435,990.69006,5.669857011200535,984.3319836707083,0,0
2.3,0.025649846,5.364596400000001,8.748682,990.7077,5.6722043283223655,984.6682270148567,0,0
2.32,0.1881264,5.3693643,8.374661,990.70776,5.6745389506453865,984.9870739524927,0,0
2.34,0.049475268,5.1691694,8.227891,990.6825,5.676369980070107,985.2893106403592,0,0
2.36,0.29320842,5.4408645999999985,8.507217,990.6952,5.678550722523553,985.5758281794524,0,0
2.38,0.18801828,5.3789,8.601902,990.6977,5.681124887560674,985.8474338155493,0,0
2.4,0.24534832,5.3836675000000005,8.440928999999999,990.685,5.683762443792534,986.1048397938685,0,0
2.42,-0.0032475144,5.2788043,8.393581,990.675,5.686240512207477,986.3487362930533,0,0
2.44,0.20224722,5.250206,8.53561,990.7027,5.6887922556881545,986.5799175090781,0,0
2.46,-0.11325432,5.1453424000000005,8.161589999999999,990.685,5.690621933590808,986.7989675285248,0,0
2.48,-0.017695084,5.2931066,8.246805,990.6825,5.692119945738338,987.0065008426056,0,0
2.5,-0.2662817,5.1453443,8.095301,990.66754,5.6928964526441135,987.2030570198937,0,0
2.52,0.09694663,5.2025437000000005,8.502457000000001,990.70013,5.693806935047817,987.389323520874,0,0
2.54,0.14471014,5.359841,8.355687,990.69507,5.694748814030207,987.5658092884648,0,0
2.56,0.21637274,5.359842,8.488248,990.67755,5.695950140693321,987.7329543792696,0,0
2.58,0.16375346,5.3312434999999985,8.298867999999999,990.69507,5.697010436102077,987.8913073977394,0,0
2.6,0.21629678,5.2692795,8.279926,990.67755,5.697841879762992,988.0412585982277,0,0
2.62,0.3309753,5.3312454,8.483502,990.68005,5.69890097747406,988.1832551280252,0,0
2.64,-0.037104122,5.1548834,8.256247,990.69775,5.6995513235434405,988.3177754432936,0,0
2.66,0.12059493,5.221616,8.521372,990.685,5.700381133646575,988.4451596022686,0,0
2.68,-0.15667051,5.1453524,8.242037,990.6876,5.700790486623277,988.565789030571,0,0
2.7,0.06316362,5.2454505,8.242034,990.66254,5.700935586000547,988.6799254969087,0,0
2.72,0.23519976,5.235919,8.502423,990.69257,5.7013002227534875,988.7880219987759,0,0
2.74,0.23737134,5.1882,8.493153999999999,990.69525,5.701789378091997,988.8904020886304,0,0
2.76,0.22782151,5.2835307,8.20909,990.6902,5.7019914884905845,988.9873444085064,0,0
2.78,0.13701446,5.2072654,8.436342,990.6851,5.702250742430548,989.0791145624784,0,0
2.8,0.0557653,5.0881014,8.516829,990.6776,5.7025723394965535,989.1659572181031,0,0
2.82,0.079673514,5.078568,8.370063,990.68005,5.702676654799237,989.248142122628,0,0
2.84,0.20873795,5.216798000000002,8.142812,990.6751,5.702343823686415,989.3258977526243,0,0
2.86,0.299564,5.3502607000000015,8.308517,990.6977,5.702070379202219,989.3995411153801,0,0
2.88,-0.245325,5.0213685,8.436346,990.69763,5.701713263708808,989.4692855106956,0,0
2.9,0.15618716,5.3502607000000015,8.549973,990.6827,5.701837412399829,989.535279950558,0,0
2.92,0.13707773,5.164365,8.753553,990.69006,5.702546714089098,989.597749845798,0,0
2.94,0.07016967,5.1214657,8.6636,990.7054,5.703562763194329,989.6569357857877,0,0
2.96,0.14665572,5.2835283,8.237505,990.66754,5.704270496930176,989.7128706575336,0,0
2.98,-0.04930816,5.154831,8.313255999999999,990.6827,5.7046917072670285,989.765786095841,0,0
3.0,-0.07319742,5.2072625,8.422148,990.6572,5.705108329818461,989.8157512671844,0,0
3.02,-0.034950353,5.2739944,8.46476,990.69775,5.705667358131692,989.8630756880217,0,0
3.04,0.08455452,5.0642657,8.313258,990.6877,5.705854086882337,989.9078601937964,0,0
3.06,0.31399316,5.3645587,8.445822999999999,990.6952,5.7062843247846615,989.9502662064017,0,0
3.08,0.33312273,5.4169903,8.289588,990.67004,5.706715624092264,989.9903273447962,0,0
3.1,0.10370077,5.388391,8.663607,990.6877,5.7077593244786895,990.0282359082404,0,0
3.12,0.003333509,5.202495,8.445826,990.6726,5.708751051313287,990.0640516256302,0,0
3.14,0.18019603,5.397924,8.157027000000001,990.6799,5.709409426819963,990.0979154476636,0,0
3.16,0.17064504,5.37409,8.346404,990.6901,5.710073011700947,990.1299693852003,0,0
3.18,-0.001418665,5.2358603,8.370078,990.70776,5.710623349386452,990.1603722906217,0,0
3.2,0.046387985,5.2549267,8.213842,990.69775,5.710818627764717,990.1891708576053,0,0
3.22,0.24236973,5.3597903,8.014998,990.6648,5.710479013073603,990.2163295363048,0,0
3.24,0.2944367,5.402702,8.090702,990.68994,5.709851298311335,990.2420319424726,0,0
3.26,0.3517837,5.4885,8.199593,990.7002,5.709262312146431,990.26639199357,0,0
3.28,0.26095593,5.417002,8.493125,990.66754,5.709133113685128,990.2893606675427,0,0
3.3,0.20358764,5.3169045,8.488389999999999,990.68994,5.709288445481135,990.3110978734618,0,0
3.32,0.29439247,5.3455043,8.441044999999999,990.67755,5.709647754371287,990.3316240962674,0,0
3.34,0.22268401,5.3216715,8.076494,990.6698,5.709518963080996,990.350978499992,0,0
3.36,0.15097551,5.393171,8.265869,990.67737,5.7093670710382725,990.3692550605232,0,0
3.38,0.13184486,5.2597065,8.190118,990.6723,5.708911856093983,990.3864951911902,0,0
3.4,0.17007260000000002,5.345505,8.388962,990.69495,5.708635676387164,990.4028390079596,0,0
3.42,-0.0020117313,5.2549415,8.346351,990.6748,5.708340123204435,990.4182594640283,0,0
3.44,-0.021142349,5.364572,8.379491,990.705,5.7082088459465385,990.4329172449401,0,0
3.46,-0.016374022,5.3979383,8.000736,990.6549,5.707603383771517,990.446667998072,0,0
3.48,-0.05940219,5.46467,8.535725,990.6926,5.707586895994294,990.4597035187462,0,0
3.5,-0.07853356,5.3502730000000005,8.256393,990.6499,5.707474325871607,990.4719064121463,0,0
3.52,-0.23627776,5.326441,8.185376,990.6776,5.707131779121138,990.4834293856712,0,0
3.54,-0.21717066,5.2978415,8.199578,990.6547,5.706578765477041,990.4942276592892,0,0
3.56,-0.06900748,5.3884068,8.190108,990.6775,5.705923579555701,990.5044287942846,0,0
3.58,-0.08813810000000001,5.269243,8.459969000000001,990.68005,5.705519631947433,990.5140747535072,0,0
3.6,-0.18852541,5.183445,8.431561,990.68506,5.705198007913841,990.5232134699637,0,0
3.62,-0.36538884,5.2644773,8.090683,990.6675,5.7044521568948445,990.5318078713326,0,0
3.64,-0.12641008,5.3884077,8.4126215,990.6776,5.704023314561348,990.5399267360457,0,0
3.66,-0.2315779,5.393175,8.535715,990.6523,5.704101167258616,990.547505108656,0,0
3.68,-0.15989155,5.474206400000001,8.469432000000001,990.6725,5.704598178389365,990.5546513403036,0,0
3.7,-0.07864627,5.5886045,8.497836999999999,990.67487,5.705641084141513,990.561398537762,0,0
3.72,-0.09299709,5.502806,8.516774,990.68005,5.70709843149154,990.5677875067006,0,0
3.74,-0.25943854,5.049962,8.781978,990.69763,5.70890315957672,990.5739002326303,0,0
3.76,-0.001307711,5.359788,7.806692999999999,990.675,5.709627790985363,990.5796653964247,0,0
3.78,0.29028457,5.3883867,8.781982000000001,990.6674,5.711136912532245,990.5850753397259,0,0
3.8,0.25206757,5.3788529999999986,8.6020775,990.67255,5.713003467139537,990.5901704744044,0,0
3.82,0.33812833,5.345486599999999,8.611547999999999,990.665,5.715164376980495,990.594941921698,0,0
3.84,0.30468965,5.240622,8.015016000000001,990.6575,5.716413103102568,990.5993831816085,0,0
3.86,-0.044211812,5.0499589999999985,8.313285,990.6725,5.717154603585281,990.6035706994116,0,0
3.88,0.07052632,4.8545294000000005,8.407975,990.6372,5.717407899189126,990.6073918556247,0,0
3.9,-0.010710359,4.8259295999999985,8.327492999999999,990.6599,5.717053822071701,990.6109572585742,0,0
3.92,0.34301943,4.878361,8.360635,990.6649,5.716291290869473,990.6143018424896,0,0
3.94,0.40517968,4.9355593,8.583155,990.67487,5.7156349880441555,990.6174751622044,0,0
3.96,0.6441899,5.021357,8.474264999999999,990.65967,5.7149958636531375,990.62043100892,0,0
3.98,0.42434168,5.0404224000000015,8.265953,990.6598,5.713999129768803,990.6231845234463,0,0
4.0,0.5390798000000001,5.0499550000000015,8.450597,990.69006,5.713040130647143,990.6258582805972,0,0
4.02,0.4243887,5.3550143,8.218614,990.6801,5.7120330732618205,990.6284160826053,0,0
4.039999999999999,0.3766122,5.22155,8.635242,990.66974,5.711568651612388,990.6308249225624,0,0
4.06,0.34317344,4.911723599999998,9.037669,990.66974,5.711987858227488,990.6330934678273,0,0
4.079999999999999,0.09464936,4.7830257000000005,8.171275999999999,990.6547,5.711475410502524,990.6351757379393,0,0
4.1,0.41491908,5.2263150000000005,7.9487605,990.66504,5.710252496782421,990.6371231431536,0,0
4.119999999999999,0.3384636,5.040419,8.081325999999999,990.6926,5.708423551526746,990.6390435870856,0,0
4.14,0.21421011,4.859289,8.7630825,990.68744,5.707088513031605,990.6409147184303,0,0
4.159999999999998,-0.46449775,4.6304935999999985,8.568974,990.6824,5.705630698361766,990.6427173971001,0,0
4.18,-0.24460542,4.8306885,8.753617,990.6849,5.704589114901572,990.6444621013433,0,0
4.199999999999998,0.19994058,4.964152,8.554774,990.65967,5.703693991595099,990.6460584704477,0,0
4.22,0.056567878,4.935551599999998,8.545308,990.6825,5.7028808296260225,990.6476002116948,0,0
4.239999999999998,0.061434448,4.8116193,8.66841,990.68,5.702238795092624,990.6490791334984,0,0
4.26,0.03755921,4.9212494000000016,8.943007000000003,990.69257,5.702359774494157,990.6505424759237,0,0
4.2799999999999985,-0.16316561,4.8402176,8.9004,990.64966,5.7029985817875986,990.6518323083773,0,0
4.3,-0.23483884,4.978447,8.583198,990.6371,5.703661563856628,990.6529189680232,0,0
4.3199999999999985,-0.08663956,4.7305856,8.521653,990.6801,5.703973006346152,990.6539769922013,0,0
4.34,0.042440504,4.8831143,8.568999,990.67,5.704213289059215,990.6549695451931,0,0
4.3599999999999985,-0.00055395067,4.825915,8.441173,990.6823,5.7040999660536365,990.6559449546539,0,0
4.38,-0.033987217,4.7734823,8.4459095,990.6723,5.703629431605892,990.656865704617,0,0
4.4,0.028175592000000006,4.8735800000000005,8.550069,990.685,5.703135894738594,990.6577805627477,0,0
4.42,-0.09129571,4.5780525,9.066121,990.7001,5.7032791170486234,990.658741281366,0,0
4.44,0.12382083,4.8497453,9.018779,990.6799,5.704158941292674,990.6596663437242,0,0
4.46,0.21466248,4.9736753,8.526403,990.6449,5.7049227579797614,990.6604305699864,0,0
4.48,0.07607193,4.878343599999999,8.644765,990.6851,5.705691848307753,990.66119465026,0,0
4.5,-0.20590955,4.616182299999998,8.777332000000001,990.6799,5.706447864766773,990.6619371308487,0,0
4.52,-0.043370843,4.821144,8.578488,990.67487,5.707025798256012,990.6626397450257,0,0
4.539999999999999,-0.033787474,4.96414,8.635303500000001,990.66986,5.7076937544590365,990.6632865678304,0,0
4.56,0.023595557000000003,4.7877765,8.824682000000003,990.66205,5.708603677143724,990.6638536488164,0,0
4.579999999999999,-0.08631455,4.787776,8.706324,990.6499,5.7095089514654624,990.66430448844,0,0
4.6,-0.06239018,4.854507,8.507483,990.6648,5.710113714852648,990.6647046341733,0,0
4.619999999999999,0.1861866,5.0880675,8.071918499999999,990.6447,5.709927528992523,990.6649861862596,0,0
4.64,0.13841073,5.1738653,8.166609,990.6674,5.709303053291218,990.6652436554132,0,0
4.659999999999998,-0.28696644,4.7687073,8.654255000000001,990.7026,5.708743974492926,990.6656056379973,0,0
4.68,0.23883577,5.1166654000000005,8.777351,990.6901,5.708821139234537,990.666013665512,0,0
4.699999999999998,0.21018071,5.2548949999999985,8.469617999999999,990.6725,5.709058948919855,990.666397549428,0,0
4.72,-0.21519646,4.897403,8.720543,990.6977,5.709509255894736,990.6668494380783,0,0
4.739999999999998,0.06597568,5.130984,8.531091,990.69257,5.710044915392857,990.6673413209128,0,0
4.76,-0.048748493,5.030887,8.275432,990.7302,5.7100915008946505,990.66800223983,0,0
4.7799999999999985,0.065957904,4.9689217,8.502683,990.67,5.7100457617532365,990.6685934197217,0,0
4.8,0.16632603,5.1071525,8.152336,990.6649,5.709446877125219,990.6691024899633,0,0
4.8199999999999985,0.19499482,4.9784555,8.488479,990.6725,5.708821211189632,990.6695645354646,0,0
4.84,0.19020616,5.0880866,8.445867999999999,990.6422,5.7082142347189295,990.669874286542,0,0
4.8599999999999985,-0.06791212,4.973689,8.625774,990.69507,5.707824026068027,990.6702386871623,0,0
4.88,0.19496877,4.9784565,8.512147,990.67737,5.707431028631933,990.6705863442768,0,0
4.9,0.104143634,5.092854,8.242285,990.6422,5.706675935126108,990.6707913432635,0,0
4.92,0.08501606,4.9784565,8.441130000000001,990.67,5.705834141693026,990.6709696315326,0,0
4.94,0.21884172,5.0594883,8.280159,990.64966,5.704722969772236,990.6710504523736,0,0
4.96,0.09933719,4.9403243,8.687318,990.68994,5.703976911928183,990.67118986804,0,0
4.98,-0.034505643,4.797328,8.436392999999999,990.6821,5.702954975723019,990.671352332198,0,0
5.0,0.36220866,5.097621,8.426924,990.6747,5.702005532455895,990.6715079371322,0,0
5.02,0.32396245,4.964158,8.493203999999999,990.67236,5.701097430997048,990.6716484970784,0,0
5.039999999999999,0.3430733,4.978458,8.592626,990.69226,5.700423911347515,990.6718468972572,0,0
5.06,0.21400864,4.9117265,8.857750999999997,990.67975,5.700363479342528,990.6720506548253,0,0
5.079999999999999,0.14708363,4.864061,8.483733,990.6524,5.7001167640959975,990.6721599526547,0,0
5.1,0.2952481,4.840228,8.673109,990.65466,5.700031367445142,990.6721935283874,0,0
5.119999999999999,0.33825803,4.8640614,8.180729,990.6648,5.69923010690766,990.6721965792026,0,0
5.14,0.19963484,4.697232,8.592622,990.66223,5.698362876262642,990.6721633952176,0,0
5.159999999999998,0.2283053,4.816396,8.587887,990.68744,5.697553119938193,990.672189069626,0,0
5.18,0.19961704,4.7830305,8.867216,990.6775,5.697270957337513,990.6722308748823,0,0
5.199999999999998,0.060993895,4.806864,8.753589,990.7024,5.697268512973492,990.6723764228576,0,0
5.22,0.22349893,4.911728,8.625760000000001,990.70496,5.697392567956268,990.672622329926,0,0
5.239999999999998,0.080512136,4.763954,8.739423,990.6977,5.697680271406629,990.6729298930239,0,0
5.26,0.14743699,4.81162,8.441155,990.68506,5.697619930476142,990.6732453241624,0,0
5.2799999999999985,0.037508637,4.6400237,8.531111,990.665,5.6972399250522665,990.6734943559493,0,0
5.3,0.070974395,4.64479,8.980879,990.64465,5.697409713483485,990.6736105607547,0,0
5.3199999999999985,0.047083005,4.778253599999998,8.805707,990.67505,5.697872545707009,990.6737184213023,0,0
5.34,0.0040723532,4.673389,8.867255,990.69006,5.69860243417482,990.6738725565652,0,0
5.3599999999999985,-0.18711169,4.558992,8.895663,990.675,5.69951204049648,990.67401280928,0,0
5.38,-0.09150991,4.7496540000000005,8.516911,990.6799,5.700067087598495,990.6741579304654,0,0
5.4,-0.07238166,4.6972213,8.805710000000003,990.6372,5.700781289954501,990.674153110995,0,0
5.42,-0.14885138,4.4398274,8.938274,990.7353,5.701635353169984,990.6743689813112,0,0
5.44,0.061466172,4.7925525,9.0519,990.68756,5.703152795744589,990.6746072119904,0,0
5.46,0.23832749,4.9689145,8.692085,990.68005,5.704777943676643,990.6748373066548,0,0
5.48,0.14273949,4.84975,8.881463,990.68756,5.7067114095674745,990.6750864199968,0,0
5.5,-0.19661897,4.7639523,8.545321000000001,990.6824,5.708214481383347,990.6753328654337,0,0
5.52,-0.0723365,4.7258196,8.815183,990.68506,5.709782418800362,990.6755856423058,0,0
5.539999999999999,-0.34955794,4.5875892999999985,8.583198,990.675,5.710853838138016,990.6758068876379,0,0
5.56,-0.320872,4.6543207,8.483775999999999,990.7026,5.711365021272905,990.676098835218,0,0
5.579999999999999,-0.02929777,4.854516,9.023498,990.665,5.71255273263155,990.6763168442927,0,0
5.6,0.07108763,4.968913,8.493246000000001,990.69244,5.713489565042285,990.6765675204716,0,0
5.619999999999999,-0.09619841,4.744885,8.568997,990.6497,5.7141082542393065,990.67669229487,0,0
5.64,0.037643746,4.964146,8.417498,990.6949,5.714395544941323,990.6768680932664,0,0
5.6599999999999975,0.04720904,4.954613,8.55006,990.6873,5.714616924514768,990.6770609835941,0,0
5.68,-0.08183614,4.973679,8.753639999999999,990.6873,5.715166455109133,990.6772682819465,0,0
5.6999999999999975,-0.08660927,4.9212465,8.673157000000002,990.6549,5.715804775616846,990.6773709249557,0,0
5.72,-0.005344555,4.93078,8.621079,990.6949,5.716434230943119,990.6775247249884,0,0
5.7399999999999975,-0.062886864,4.8259196,8.535843,990.6798,5.71679226482525,990.677668813688,0,0
5.76,0.18566294,5.0499477,8.289653999999999,990.675,5.71670689192605,990.6777865227333,0,0
5.7799999999999985,0.042268813,5.0118160000000005,8.351201,990.6799,5.716294992706192,990.6778981389639,0,0
5.8,0.13308509,5.092848,8.687345,990.65466,5.716284529608606,990.6779131057652,0,0
5.8199999999999985,0.05660823,4.926018,8.881455,990.68994,5.716805997266243,990.67796962725,0,0
5.84,0.19044276,5.0642476,8.322795,990.68994,5.716939455053526,990.6780626629757,0,0
5.8599999999999985,0.06616785,4.97845,8.445889,990.6849,5.716854048219592,990.6781694837564,0,0
5.88,0.08050726,4.892652,8.360669,990.66974,5.716332747231282,990.6782335244563,0,0
5.9,0.23824076,5.0118160000000005,8.526374,990.6873,5.7158558218793765,990.6783227501312,0,0
5.92,0.16176392,4.992749,8.455358,990.6547,5.715269339103049,990.6783165480368,0,0
5.94,0.19522251,5.1548120000000015,8.578453,990.67236,5.714981542873389,990.6782896242933,0,0
5.96,0.04704863,5.1405125,8.602124,990.6999,5.714981899581588,990.678343631826,0,0
5.98,0.16654374,5.054714700000001,8.531108999999999,990.6648,5.715021510065345,990.6783425958072,0,0
6.0,0.13308509,5.0737809999999985,8.39381,990.66223,5.714870112312777,990.6782836750364,0,0
6.02,0.16176392,5.078547,8.379607,990.6824,5.714531257944803,990.678246431413,0,0
6.039999999999999,0.16176392,5.0118160000000005,8.455358,990.6874,5.714091719069664,990.6782464757944,0,0
6.06,0.07094765,5.1643457,8.289653999999999,990.6748,5.713432895343675,990.6782341076967,0,0
6.079999999999999,0.09962647,5.107147,8.573718,990.6573,5.713025556984543,990.678147816458,0,0
6.1,0.06138803,5.1500463,8.644734,990.6673,5.713013694787352,990.6780325173801,0,0
6.119999999999999,0.1474245,5.231077,8.606859,990.6899,5.713372556271883,990.6779733620523,0,0
6.14,0.042268813,5.188178,8.782032000000001,990.6773,5.714322119101558,990.6779186683017,0,0
6.1599999999999975,-0.37357414,5.078547,8.024527,990.685,5.714343091037367,990.6778958336972,0,0
6.18,0.023149595,5.2596765,7.830416,990.66724,5.713395961242666,990.6778372960396,0,0
6.1999999999999975,0.013589993,5.1548120000000015,8.190230999999999,990.67487,5.71210495915381,990.6777748898996,0,0
6.22,-0.13458394,5.1738787,8.336998,990.6899,5.710796345796219,990.6777633982306,0,0
6.2399999999999975,0.009318262,5.2739635,8.441201,990.70764,5.709768782956841,990.6778607999582,0,0
6.26,-0.01933515,5.307329,8.658986,990.7024,5.709414696394447,990.678035205245,0,0
6.2799999999999985,0.10495873,5.259663,8.810488000000003,990.705,5.709876200379339,990.6782863830174,0,0
6.3,0.042835265,5.178631299999998,8.540628,990.66223,5.710488332166313,990.6784505207182,0,0
6.3199999999999985,-0.07185976,5.0451674,8.384396,990.67975,5.710810336003117,990.678600230916,0,0
6.34,0.13847826,5.3216269999999986,8.341788000000001,990.6672,5.711103708648821,990.6786914740156,0,0
6.3599999999999985,0.11459698,5.2691946,8.498025,990.67224,5.711586942715112,990.678748871112,0,0
6.38,0.07159522,5.183396,8.564309,990.70013,5.7122596868182125,990.6788765592503,0,0
6.4,0.06206101,5.045165,8.658999,990.6799,5.713119839286426,990.678993068876,0,0
6.42,0.20069434,5.169095,8.526437,990.71515,5.714041048577247,990.6792261817333,0,0
6.44,0.119457975,5.240593,8.370204,990.6849,5.714811680090183,990.6794525859998,0,0
6.46,0.18161573,5.2501254,8.370206,990.6697,5.715458978543794,990.6796175275,0,0
6.48,0.07169542,5.1833935,8.356003999999999,990.68994,5.715893591409168,990.6798004307108,0,0
6.5,-0.10513321,5.107128,8.706352,990.6924,5.716680953644823,990.6800074024367,0,0
6.52,4.4062734e-05,5.2167583,8.460165,990.6849,5.717454986736345,990.6802078960055,0,0
6.539999999999999,0.052634567,5.2882566,8.256586,990.6622,5.7179355654663935,990.6803202236972,0,0
6.56,8.3372e-05,5.0594606,8.124025,990.6798,5.717667922504584,990.68041760364,0,0
6.579999999999999,-0.057259075,4.949829599999998,8.384419,990.7075,5.717085099182949,990.6806011451846,0,0
6.6,0.26778787,5.192923,8.379686,990.6723,5.716486208130143,990.6807334383708,0,0
6.619999999999999,0.13397749,5.1309576,8.337079,990.68994,5.715726602638575,990.6808834762517,0,0
6.64,0.14833717,5.14049,8.360752,990.65967,5.7148804386644505,990.6809396812088,0,0
6.6599999999999975,0.16747545,5.030859,8.663756,990.71515,5.714385155382304,990.6811125010566,0,0
6.68,0.12925224,5.0737576,8.545399,990.69257,5.714033543920822,990.6813064516704,0,0
6.6999999999999975,-0.01890266,4.9116945,8.242397,990.7225,5.71309497552592,990.6816261232068,0,0
6.72,-0.004537895300000001,5.0451574,8.715841000000001,990.71,5.71263012508404,990.6820107309326,0,0
6.7399999999999975,-0.023860976,4.9688973,8.526444999999999,990.6799,5.712165573515548,990.6823429716878,0,0
6.76,4.9456954e-05,5.0070295,8.280258,990.69495,5.711303351626028,990.682681924921,0,0
6.7799999999999985,0.004840672,4.925998,8.379681,990.6923,5.710184096669337,990.683016049068,0,0
6.8,-0.06684783,4.9259977,8.322869,990.6673,5.708740527398293,990.6832547033878,0,0
6.8199999999999985,0.071777895,5.0785269999999985,8.441230000000001,990.68475,5.7073893659129125,990.6834709614128,0,0
6.84,0.01921077,5.1118927,8.677951,990.7276,5.706582462555309,990.6838209115422,0,0
6.8599999999999985,-0.004677579,5.2072234,8.895736,990.6899,5.706750002248078,990.6841520121952,0,0
6.88,-0.25799507,4.744867299999999,8.711095,990.7175,5.706978054459633,990.684564625488,0,0
6.9,-0.08113085,4.8497314000000005,8.573798,990.67975,5.707108756809517,990.684911877942,0,0
6.92,-0.30099118,4.787766,8.786847,990.68744,5.707486319535692,990.6852278114496,0,0
6.94,-0.46349305,4.8211317000000005,8.512253,990.6824,5.707628809387217,990.685496790176,0,0
6.96,-0.29618782,4.749633,8.498051,990.7074,5.7074510339958024,990.6858133113336,0,0
6.98,-0.27705786,4.6733675,8.777382000000001,990.6948,5.707423329173911,990.686125341508,0,0
7.0,-0.1623312,4.935528,8.422302,990.6898,5.707144649522343,990.6864142801404,0,0
7.02,0.07667257,4.8497295,8.24713,990.70496,5.706238781157334,990.6867363509076,0,0
7.039999999999999,-0.05715266,4.744865,8.53593,990.6949,5.705194609533367,990.6870503217744,0,0
7.06,0.05757330400000001,4.749631,8.105101,990.67474,5.703259196977058,990.6872834292736,0,0
7.079999999999999,-0.11448892,4.802063,8.7347765,990.6823,5.701736288543872,990.6874714627147,0,0
7.1,0.00023849308,4.7782297,8.748981,990.69995,5.700584071635928,990.6876825317972,0,0
7.119999999999999,-0.37257266,4.5065365,9.298174,990.71747,5.7005339626312255,990.6879762673244,0,0
7.14,-0.4586013,4.492236599999999,8.985704,990.6949,5.700869826310537,990.6882607374736,0,0
7.1599999999999975,-0.4633696,4.3683057000000005,9.426004,990.6949,5.702258094876052,990.6885359966423,0,0
7.18,-0.5637342,4.1967089999999985,9.123003,990.70233,5.70386138515007,990.6888288740564,0,0
7.1999999999999975,-0.43466514,4.301573,8.521735000000001,990.6899,5.7046054128381884,990.6890915165924,0,0
7.22,-0.29126245,4.5446677000000015,8.479127,990.6949,5.704730774470866,990.6893444980777,0,0
7.239999999999997,-0.35380197,4.611409,8.744216,990.68994,5.704864640539513,990.6895701763252,0,0
7.26,-0.22475235,4.5494437,8.99514,990.7226,5.705401874841031,990.6898884929897,0,0
7.2799999999999985,-0.4924261,4.5494437,8.417541499999999,990.7352,5.705250794025709,990.6903328790196,0,0
7.3,-0.7314214,4.501778,8.564308,990.71515,5.704745718465945,990.6908148801514,0,0
7.3199999999999985,-1.0038753,4.2920504,9.141903999999998,990.7451,5.704856820492855,990.6914362027827,0,0
7.34,-0.78400904,4.4064474,9.246061,990.6999,5.705768175966173,990.6920156731296,0,0
7.3599999999999985,-0.5354643,4.4731793,9.416499,990.7075,5.707729119803659,990.6925834367054,0,0
7.38,-0.4685521,4.3540160000000006,9.52539,990.7226,5.710704152925852,990.6931931722279,0,0
7.399999999999999,-0.095732525,4.482713,8.56904,990.6849,5.712875592352858,990.6937020791164,0,0
7.42,0.009418085,4.435047,8.393867,990.70245,5.713959814277259,990.694183241758,0,0
7.439999999999999,0.0141931325,4.34925,8.815227499999997,990.69995,5.7147783743796445,990.6946291573976,0,0
7.46,0.08110534,4.47318,8.488553999999999,990.6823,5.714872090895313,990.6949787834905,0,0
7.479999999999999,0.21971457,4.511313,9.051947,990.70746,5.715407533549081,990.6953326454852,0,0
7.5,0.004618302,4.325417,9.170307,990.715,5.7163791567705,990.6957161204201,0,0
7.52,0.023732424,4.5065465,8.753678,990.69745,5.717122472907309,990.6960612008388,0,0
7.539999999999999,0.22447915,4.4874806,8.706334,990.715,5.7175610418414085,990.6964342935744,0,0
7.56,0.477804,4.701976,8.408066,990.70996,5.717412789791036,990.6968126508583,0,0
7.579999999999999,0.31528556,4.8306723,8.417535,990.72015,5.7168815630874565,990.6972309818112,0,0
7.6,0.07629062,4.697209,8.644785,990.72015,5.716280950339407,990.6976831275067,0,0
7.619999999999999,-0.21050298,4.425515,8.583239,990.705,5.715248052029575,990.6981089841844,0,0
7.64,-0.39214033,4.3063517,8.91938,990.70245,5.714362827911966,990.6985008988016,0,0
7.659999999999997,-0.23441184,4.415982700000002,8.739472,990.7124,5.713366635094799,990.6988972313216,0,0
7.68,-0.21051759,4.37785,8.947785000000003,990.68225,5.712627172422358,990.6991875007036,0,0
7.699999999999997,-0.21530311,4.415983,8.772613,990.715,5.71182659956637,990.6995009077267,0,0
7.72,-0.26310563,4.401684,8.905174,990.70996,5.7112105345261845,990.6998154869048,0,0
7.739999999999997,-0.38228738,4.211014,9.028298,990.71497,5.710826831460666,990.7001480053136,0,0
7.76,-0.37272015,4.2253127,9.194004,990.7302,5.710973875927434,990.7005500057603,0,0
7.7799999999999985,-0.3201347,4.1442814,8.791578999999999,990.6999,5.710756667859013,990.7009028733348,0,0
7.8,-0.44440246,4.1299815,8.711095,990.67975,5.7100647735208225,990.7011385167792,0,0
7.8199999999999985,-0.27710217,4.2348456,8.763175,990.7125,5.70913459874359,990.7013876326663,0,0
7.84,-0.3009931,4.2062464,9.217677,990.7024,5.708828135740697,990.7016113959868,0,0
7.8599999999999985,-0.28186673,4.096615,9.141928,990.6973,5.7088354917251145,990.701793592231,0,0
7.88,-0.07154733,4.277744,9.0141,990.70734,5.7090288305713,990.7019745479004,0,0
7.899999999999999,-0.29141116,4.1204476,8.734771,990.7251,5.708729787504775,990.7022176919572,0,0
7.92,-0.30574298,4.215778,8.649550999999999,990.6998,5.707923671043396,990.7024238303552,0,0
7.939999999999999,-0.5208265999999999,3.9393182,9.402324,990.7326,5.707878764754972,990.702714608454,0,0
7.96,-0.43956274,4.087081,9.113525,990.69995,5.7080705282781175,990.702961587392,0,0
7.979999999999999,-0.18144569,4.2872763,8.829462,990.6949,5.708095122525723,990.7031507962666,0,0
8.0,-0.085842006,4.330175,8.83893,990.6973,5.708025983762523,990.7032969183618,0,0
8.02,-0.15753148,4.3349410000000015,8.763182,990.6923,5.7077392548031725,990.7033864429393,0,0
8.04,-0.40607363,4.1728783,8.801058,990.7049,5.707200255401608,990.7034709956607,0,0
8.059999999999999,-0.40606654,4.1156797,8.966763,990.7074,5.70670192142153,990.7035598508612,0,0
8.08,-0.59247124,4.0012817,9.127732,990.6823,5.7064684579385325,990.7035618278537,0,0
8.1,-0.2244178,4.2777414,9.023576,990.72003,5.7064800302687075,990.7036228601436,0,0
8.12,-0.32956729999999995,4.139511,9.042515,990.6923,5.7066285273048925,990.7036360259784,0,0
8.139999999999999,-0.19094636,4.177644,9.066187,990.70233,5.7069677160196655,990.7036429576167,0,0
8.16,-0.22439688,4.163344,9.118266,990.72015,5.707561599169388,990.7037085077648,0,0
8.18,-0.066655755,4.396905,8.999907499999997,990.73773,5.708358584593098,990.7038889052476,0,0
8.2,-0.06664862,4.296808,9.028315,990.7074,5.70929497846915,990.7040609444048,0,0
8.219999999999999,-0.19569571,4.320639599999999,8.853141,990.68726,5.710048276982452,990.7041524748039,0,0
8.24,-0.23921484,4.234854,8.999863000000003,990.6949,5.7108369678205255,990.7042000421553,0,0
8.26,-0.22488892,4.1156907,8.961986,990.68976,5.711477642966694,990.7041900885156,0,0
8.28,-0.26791906,4.091858,8.943047,990.67725,5.711931054863312,990.7040843091603,0,0
8.299999999999999,-0.39698642,4.0394263,8.460137,990.67706,5.711271800100111,990.7038935550096,0,0
8.32,-0.29184340000000003,4.220556,8.682653,990.70245,5.710203530827915,990.7037198078436,0,0
8.34,0.07618879,4.3730855,9.165561,990.68463,5.709810993746992,990.7034975615396,0,0
8.36,-0.005079775999999999,4.449351,8.853088,990.6998,5.7095027916602765,990.7032878734838,0,0
8.379999999999999,-0.15804617,4.301588,8.739462,990.70233,5.708924649805639,990.7030991447732,0,0
8.4,-0.20107707,4.2539225,8.4696,990.67975,5.707565486311921,990.7028483271632,0,0
8.42,-0.26322722,4.010829,9.17976,990.7175,5.706645923419157,990.7026794507452,0,0
8.44,-0.019469902,4.3063555,9.198695,990.7174,5.706400033830285,990.7025832255196,0,0
8.459999999999999,0.02831623,4.5685163,8.933568,990.72504,5.706494964109857,990.7025790452983,0,0
8.48,0.123899624,4.611416,9.30285,990.71234,5.707617808095652,990.7026104910916,0,0
8.5,0.066529304,4.7115135000000015,8.957238,990.68463,5.7090986588096335,990.7025735468268,0,0
8.52,-0.19637181,4.1490602,9.567976,990.72,5.711534178654484,990.7026036381059,0,0
8.54,-0.3206594,3.5532415,10.259196,990.7224,5.715700580147687,990.702701493663,0,0
8.559999999999999,-0.22507599,3.724838,8.99511,990.6796,5.719046443729974,990.702704793456,0,0
8.58,-0.009997517,4.0203643,8.422245,990.67456,5.720811750612949,990.7026063878966,0,0
8.6,0.04256843,4.23486,8.725246,990.6972,5.721935128670378,990.702499973748,0,0
8.62,0.013876945,4.492254,8.493260000000001,990.6697,5.722298885149312,990.7022878663008,0,0
8.639999999999999,-0.28248352,4.52562,8.59268,990.7099,5.722213765748526,990.7021278518414,0,0
8.66,-0.3255145,4.463655,9.089792,990.69476,5.7225972507241725,990.7019599387987,0,0
8.68,-0.19169188,4.625718599999999,8.819930000000003,990.68976,5.723038679768967,990.7017676510544,0,0
8.7,0.04728563,4.3969239999999985,9.3407135,990.6972,5.7242837306224965,990.7015813020599,0,0
8.719999999999999,-0.40680838,4.8402143,6.8125399999999985,990.6546,5.722166568763299,990.7012475114008,0,0
8.74,-0.085585706,5.43601,7.418632499999997,990.6444,5.718812648029058,990.7007479229336,0,0
8.76,-0.42492515,4.5589629999999985,9.534915,990.7072,5.717245906663133,990.7003297140413,0,0
8.78,-0.0520738,4.639993,9.880528,990.71747,5.7179677405724085,990.7000218896933,0,0
8.799999999999997,-0.013810411000000002,4.6638255,8.730071,990.67706,5.718592971285402,990.6996672332966,0,0
8.82,-0.047242373,4.58756,7.707441999999999,990.68463,5.717201323798071,990.6992997248648,0,0
8.84,-0.16671085,4.4588623,7.9394293,990.70996,5.714319006152889,990.6990133714046,0,0
8.86,0.014946653999999997,4.5494265999999985,8.749014,990.73004,5.711696707033485,990.6988720453503,0,0
8.879999999999997,0.27308267,4.773454,9.231927,990.7275,5.710426424893826,990.6988502302852,0,0
8.9,0.15361424,4.6495233,8.985741,990.6997,5.709777495260961,990.698834013665,0,0
8.92,-0.061450288,4.5494246,8.398676,990.6546,5.708502153958582,990.69866044221,0,0
8.94,-0.027966686,4.43026,8.616462,990.67474,5.706962292570143,990.6984209608804,0,0
8.959999999999997,0.034197405,4.544657,8.895794,990.7049,5.705819404852964,990.6982326797188,0,0
8.98,0.22063641,4.659053299999999,9.160923,990.6923,5.705635134528049,990.6980449568367,0,0
9.0,0.36883527,4.8020496,9.104113,990.67725,5.7063392256486605,990.697804223054,0,0
9.02,0.3927626,4.9307456,8.50758,990.67975,5.706872689702475,990.6975265154804,0,0
9.04,0.13945799,4.6971836,8.829521000000002,990.6495,5.707588438749863,990.6971082376126,0,0
9.06,-0.14730366,4.3253922,8.995228,990.6796,5.70842122407348,990.6966756176332,0,0
9.08,-0.2428731,4.5065203,8.777449,990.67975,5.709120579375732,990.696232422396,0,0
9.1,-0.14247221,4.558952,8.578606,990.68475,5.709379612380241,990.6957994783636,0,0
9.12,0.0009468496,4.597084,8.720639,990.6972,5.709544465736916,990.6954219708948,0,0
9.14,0.02009438,4.630449,8.777455,990.7124,5.709762354121679,990.6951495262,0,0
9.16,-0.17585094,4.5112844,8.853208,990.6722,5.710055277895672,990.6948261757733,0,0
9.18,-0.11846832,4.6209145,8.924227,990.68726,5.710647081543974,990.6945132251033,0,0
9.2,-0.03718505,4.668579,8.517071000000001,990.6999,5.710799241367138,990.6942560942813,0,0
9.22,-0.13275449,4.6352129999999985,8.493400999999999,990.6772,5.7104876878534565,990.6939674915473,0,0
9.24,0.009964183,4.563731,8.597496000000001,990.6898,5.709885733585418,990.693697479202,0,0
9.26,-0.018715963,4.7925262,8.621167999999999,990.67975,5.709299638689921,990.6934086853684,0,0
9.28,0.08643861,4.6256967000000015,9.028327,990.6923,5.709313679438772,990.6931495158699,0,0
9.3,0.17247379999999998,4.7639265,8.668511,990.7124,5.709334390362568,990.692989815444,0,0
9.32,0.16769274,4.816358599999999,8.469666,990.6899,5.709053224778235,990.6928375808118,0,0
9.34,0.033856973,4.654296,8.588026,990.6949,5.7085550258768425,990.6927104910001,0,0
9.36,0.057754695,4.6971946,8.455461999999999,990.7049,5.707668422252301,990.6926420766748,0,0
9.38,-0.08564065400000001,4.5970974,8.772668,990.71497,5.706923657899416,990.6926620063008,0,0
9.4,-0.052183300000000016,4.5589647000000015,8.995185000000003,990.7074,5.706681217552985,990.6927326728957,0,0
9.42,0.033851907,4.8020587,8.611697999999999,990.6998,5.706416849987823,990.6928205562764,0,0
9.44,0.124666974,4.635229,9.042529,990.7049,5.706761676638711,990.6929416960292,0,0
9.46,-0.08564564599999999,4.816358599999999,8.247148,990.66974,5.706373240332503,990.6929652090088,0,0
9.48,0.13422401,4.449334,9.283983,990.67474,5.706886839189825,990.6929203743256,0,0
9.5,-0.34375757,4.516065599999999,8.280289,990.7502,5.706412416751603,990.6930869650515,0,0
9.52,-0.12388781,4.6733623,9.26031,990.725,5.707010997399667,990.693349051543,0,0
9.54,-0.27206302,4.892624,7.996224400000001,990.6647,5.706486970249557,990.6934774945813,0,0
9.56,0.36842942,4.78776,9.818971,990.6873,5.708198704977471,990.6935687478692,0,0
9.58,-0.34376258,4.897391000000002,7.551190400000001,990.6923,5.707882034723518,990.6936448117824,0,0
9.6,0.3588674000000001,5.011788,8.554884,990.71747,5.70767495259982,990.6937977925336,0,0
9.62,-0.30074674,4.678129,7.844722999999999,990.65967,5.705938683106368,990.6938101062719,0,0
9.64,0.12465449,4.544666,9.009386,990.6647,5.7048379447275375,990.6937161903087,0,0
9.66,0.024277404,4.4779334,9.459155,990.6924,5.7050801879864474,990.6936284678786,0,0
9.68,-0.27685148,4.33017,9.189294,990.67474,5.7058776645731175,990.6934829578547,0,0
9.7,0.13421024,4.6638293,8.909964,990.6697,5.706945634867897,990.6932687665496,0,0
9.72,0.2059062,4.6542964000000016,8.753728,990.67725,5.707954891876093,990.6930218395528,0,0
9.74,0.043327883,4.5446677000000015,8.502799000000001,990.6999,5.708336970900728,990.692828416236,0,0
9.76,0.019425064,4.4112034000000016,8.488595,990.66974,5.708007878940468,990.6925743890953,0,0
9.78,0.048100308,4.501768,8.782128,990.6949,5.707680263462683,990.6923583029125,1,1
9.8,-0.07617865,4.4350367,9.014113,990.68225,5.707724125202133,990.6921309792706,1,1
9.82,-0.047503367000000005,4.535135,8.630626,990.6798,5.707479526620909,990.6918857245756,1,1
9.84,0.03852904,4.6876645,8.5927515,990.6924,5.707061098470713,990.6916708689183,1,1
9.86,-0.047511213,4.5685005,8.540671000000001,990.67224,5.706277705101647,990.6914110713318,1,1
9.88,0.081539914,4.544668,8.933627,990.69745,5.7058763312633936,990.6912032543274,1,1
9.9,-0.085757025,4.587567,8.5832815,990.6898,5.705209602039968,990.6910145755068,1,1
9.92,-0.07142144,4.4302707,8.711109,990.7024,5.704394980815747,990.6908888464293,1,1
9.94,-0.009287551,4.4684032999999985,8.569077499999999,990.6949,5.703225919036756,990.6907921923688,1,1
9.96,0.005047828,4.482703,8.602217,990.6924,5.701822692941801,990.6907125769487,1,1
9.98,0.13409896,4.6924314,8.791594,990.69745,5.700771002714053,990.6906664834863,1,1
10.0,0.13409518,4.773463,9.023579,990.6949,5.700538493781718,990.6906409959627,1,1
10.02,0.1340916,4.935526,9.274502,990.6873,5.7016491768546675,990.690606447601,1,1
10.04,-0.30565417,4.735330599999998,8.943092,990.6899,5.703147008912652,990.6905733774573,1,1
10.06,0.07672633,4.9974914,8.682701,990.6949,5.704762200579162,990.6905597325197,1,1
10.08,0.043264136,4.906927,8.313416499999999,990.69745,5.705716946752851,990.6905724808154,1,1
10.1,-0.033216298,4.7686973,8.389168,990.6999,5.706076828104732,990.6906173242787,1,1
10.12,-0.20529303,4.549435,8.924155,990.7074,5.706677010514658,990.6907173655954,1,1
10.14,-0.32957202,4.8449626,9.004639,990.72253,5.707927260983406,990.6909202875868,1,1
10.16,-0.7167399,5.3692837,8.322885000000001,990.6923,5.709123444673484,990.691104556423,1,1
10.18,-1.2903202,4.8783283,8.848403,990.6772,5.7107990222707725,990.6912173199637,1,1
10.2,-1.2186268999999998,4.7448644999999985,9.1798115,990.7124,5.713347442565706,990.6913932154762,1,1
10.22,-1.5006388000000002,5.0070252,7.9157243,990.6848,5.714747096628977,990.6915249011754,1,1
10.24,-1.5910114,4.9927150000000005,7.6506386,990.6722,5.714684563517134,990.6915716890152,1,1
10.26,-0.62069815,5.0117807,8.474426,990.7049,5.714560555311277,990.6916610126697,1,1
10.28,-0.36735374,4.5398912000000005,8.848446000000003,990.7049,5.714563224847229,990.6917875994052,1,1
10.3,-0.27174458,4.5780234,7.4991417,990.6722,5.712263439143489,990.6918289360872,1,1
10.32,-0.13789701,4.849717,7.2482185,990.66724,5.707795793810711,990.691776941009,1,1
10.34,0.1584648,5.054678400000001,7.4375963,990.68976,5.701993874936191,990.6917237371704,1,1
10.36,0.5838804,5.8220934999999985,8.204572,990.68726,5.69728546997468,990.691660656805,1,1
10.38,0.15371288,5.574232,10.420273,990.7199,5.697179260237457,990.6917065806294,1,1
10.4,0.45485455,5.5837650000000005,11.741175,990.73755,5.703614780671463,990.6919121952304,1,1
10.42,0.94718736,6.6943727,10.301916,990.72504,5.714379797253304,990.6922131363893,1,1
10.44,1.9652995,6.842135400000001,9.023628,990.66956,5.727209019354737,990.6923974967059,1,1
10.46,0.9615547,3.715274,11.2961445,990.7149,5.742723514649416,990.6926414064936,1,1
10.48,0.8659726999999999,3.634242500000002,7.2434949999999985,990.6294,5.752698201727848,990.6926292561187,1,1
10.5,1.1097556,4.039399,7.3523869999999985,990.6193,5.75839011398072,990.6923545347254,1,1
10.52,0.6604689,3.972667500000002,7.200887700000001,990.6471,5.759837668244782,990.6919488745772,1,1
10.54,1.3248738000000002,5.054675,6.6753693,990.6469,5.758001167664737,990.691428257322,1,1
10.56,0.4693038,4.406423,8.763244,990.68225,5.75605999710383,990.6909351981886,1,1
10.58,0.30680352,4.09183,8.862667,990.6773,5.75392220347242,990.6904504444252,1,1
10.6,0.3354963,4.8687778,7.7595525,990.6571,5.7503717369754686,990.6899020543996,1,1
10.62,-0.11857197,5.1214056,7.963132400000001,990.6798,5.7462133161627325,990.6893811295772,1,1
10.64,0.56495476,5.2787013,7.9441967,990.6747,5.741711837702253,990.6888679883375,1,1
10.66,0.94257325,6.046117,8.450778999999999,990.69745,5.738749962417157,990.6884454719802,1,1
10.68,0.58888173,5.9078865,9.776414,990.6773,5.7392468162149815,990.6880320128281,1,1
10.7,0.8804628000000001,6.3559421999999985,9.094661,990.69495,5.742158674922289,990.6876915850746,1,1
10.72,0.21130423,6.1128480000000005,9.179882,990.66223,5.746987215023067,990.6872991214057,1,1
10.74,-0.47318554,6.4989624,7.503813,990.65967,5.75122069971677,990.6868528756703,1,1
10.76,-0.65484345,5.030864,8.597458,990.6471,5.755005705949582,990.6863154625863,1,1
10.78,0.44448924,4.506543,9.407038,990.6773,5.759331773464192,990.6858081487204,1,1
10.8,-0.57363594,4.3587804000000006,8.34653,990.6923,5.762028037370862,990.6853832568526,1,1
10.82,-0.6453566999999999,5.0117993,6.599532000000001,990.6069,5.760943209787931,990.6847252826736,1,1
10.84,0.17674251,5.9698777000000005,6.182902,990.65967,5.757112646644883,990.6840536976716,1,1
10.86,-0.08138905,5.374059,7.868347999999999,990.66724,5.7528075949645805,990.6833997558521,1,1
10.88,-0.7553683000000001,4.7448739999999985,7.4895935,990.66974,5.746788158854972,990.6827727577394,1,1
10.9,-0.26307395,5.164331400000001,8.05772,990.6571,5.740680665179411,990.6821263202788,1,1
10.92,-0.22486085,5.0833005999999985,7.5984797,990.6622,5.733624747118642,990.681483393386,1,1
10.94,0.018885344,5.0308695,8.398591999999999,990.66724,5.7270974607887775,990.6808640269674,1,1
10.96,-0.07195788,5.6123895999999975,7.622147,990.70245,5.720386679124683,990.6803944643028,1,1
10.98,0.05707307,5.788753,8.881497,990.66724,5.715898650743954,990.6799322026603,1,1
11.0,0.20522316,6.170078,9.307591,990.6799,5.714569814283919,990.6795236323441,1,1
11.02,0.3007939,6.2272773,9.757358,990.7403,5.7168899048874495,990.6793814145357,1,1
11.04,-0.1246324,5.788755,9.506433,990.69995,5.7214943259558035,990.6793297977879,1,1
11.06,0.31986398,5.650525599999999,7.7689023,990.6597,5.724943152761228,990.679213521958,1,1
11.08,0.4058751,4.020364,9.96093,990.69745,5.729722812549298,990.6791764319553,1,1
11.1,0.8933880999999999,4.868811,7.9630084,990.6471,5.7328071657273885,990.6790281840738,1,1
11.12,0.22419025,4.7877803,6.334371,990.6296,5.731404409060308,990.6787192507828,1,1
11.14,0.114232525,4.940311,6.6894493000000015,990.617,5.726817933058543,990.6782240880244,1,1
11.16,0.23370229,5.2549043,7.830438000000001,990.66473,5.72175522080199,990.6777379834942,1,1
11.18,-0.5741115999999999,4.2348620000000015,10.481702,990.69495,5.720210505083808,990.6773704247906,1,1
11.2,-0.60281414,4.6924515,8.479047999999999,990.6799,5.7184339048359565,990.6770547563907,1,1
11.22,0.46783656,5.8125935,6.859878,990.6245,5.714991165385977,990.67658663467,1,1
11.24,0.66862833,6.0175543,7.3475259999999984,990.665,5.711163643271616,990.6761312904324,1,1
11.26,0.85979766,5.91269,8.119232,990.64465,5.7081738559542465,990.6756156156188,1,1
11.28,0.3770147,5.769694,8.540591000000001,990.68756,5.706419357090121,990.6752029651367,1,1
11.3,-0.12010494,5.3216386,9.042437,990.6799,5.706134954196728,990.6748552564967,1,1
11.32,0.87406856,6.2797165,10.079269,990.70996,5.710091013485362,990.6746743982187,1,1
11.34,0.109277144,6.6038437000000005,8.284927,990.71515,5.715052405512978,990.6746603040108,1,1
11.36,-0.24444973,6.5514116,7.0255740000000015,990.665,5.718834743618023,990.6746130732744,1,1
11.38,0.18571119,5.4932365,9.070834,990.6624,5.723633456559298,990.674527373132,1,1
11.4,-0.69857675,4.94985,9.146584,990.63464,5.728933323991951,990.6743080539427,1,1
11.42,-0.8802321,5.450339,7.541618,990.6245,5.732418456062492,990.6739349545128,1,1
11.44,-0.407053,5.707733599999999,7.541616,990.6246,5.7345375410240935,990.6734276780203,1,1
11.46,-0.005570844,5.2358449999999985,8.621058,990.67236,5.736729949946362,990.6729756048708,1,1
11.48,-0.32106218,5.1071486,7.5037365,990.6648,5.736892591066673,990.6725467208583,1,1
11.5,-0.58875257,4.978452,7.2338733999999985,990.6296,5.734676369254255,990.6720131507498,1,1
11.52,-0.37846404,5.097616,7.451653999999999,990.6598,5.730855033253407,990.6714977208592,1,1
11.54,0.26678663,5.6362375999999985,7.3522296,990.6547,5.7261103528295,990.6709818152127,1,1
11.56,0.22852536,5.5504403,6.6657386,990.6775,5.719338923865013,990.6705494264488,1,1
11.58,0.17114632,5.7983017,7.8824787,990.6522,5.713107721866151,990.6701013098017,1,1
11.6,0.3479762,6.20346,10.35857,990.71765,5.71214052328633,990.6698765292168,1,1
11.62,0.3383938,5.850735,10.633163,990.7253,5.7159572990769245,990.6698774375868,1,1
11.64,0.26667392,5.4932437000000025,9.657875,990.67505,5.721852408019516,990.6698968614476,1,1
11.66,0.5821182,5.316882,8.294364,990.64215,5.726975769084,990.6698141356698,1,1
11.68,0.649014,4.392171,8.924037,990.63214,5.731602693400602,990.6696054122839,1,1
11.7,0.19969101,4.29684,8.516876,990.67236,5.734888872883572,990.669430900816,1,1
11.72,0.55337226,4.811629,7.645744,990.7099,5.735958493696632,990.6694223912398,1,1
11.74,0.5111644000000001,5.6076236,6.140278,990.6369,5.7335703403682325,990.66929779157,1,1
11.76,0.27696413,5.4312606,6.708407000000001,990.63983,5.7287686064732455,990.669081611252,1,1
11.78,-0.20578651,4.883106,8.625842,990.71027,5.7245085953976576,990.6690388725226,1,1
11.8,-0.50690407,5.5933230000000025,7.546398,990.6951,5.719688156027428,990.66909492864,1,1
11.82,0.23875554,6.8659935,7.101365,990.6548,5.715374590188485,990.6690929980824,1,1
11.84,0.43473697,6.880293400000001,7.484853,990.6497,5.7121381408020975,990.6690214774487,1,1
11.86,0.35349053,6.5990663,8.138202,990.67004,5.710504182203196,990.6689619484979,1,1
11.88,0.6641885000000001,6.3416715,8.980927000000003,990.70264,5.711395411820022,990.6690305897023,1,1
11.9,0.7119960999999999,6.5132675,8.819958999999997,990.67505,5.714458601028952,990.6691129109475,1,1
11.92,0.45389682,6.3083053,8.824693,990.67505,5.719159177952187,990.6692070235204,1,1
11.94,0.27227378,6.513267,7.622155,990.6548,5.723569886048317,990.6692383161052,1,1
11.96,-0.7314748999999999,6.537099400000002,6.1828970000000005,990.6122,5.725625778733263,990.669060628295,1,1
11.98,-0.5928504,5.5551887,7.8967524,990.63983,5.726935426917239,990.6687983930842,1,1
12.0,-1.3910676000000002,3.9202597,10.491207,990.7102,5.730932726894442,990.6687157278368,1,1
12.02,-1.1281694,4.9069366,8.6116495,990.6725,5.734567143643857,990.668656308204,1,1
12.04,-1.0708017,5.8364150000000015,6.2586513,990.62976,5.7350596473938085,990.6684637783068,1,1
12.06,-0.6406092,5.9937115,6.760499,990.6549,5.733674383730965,990.6682448292876,1,1
12.08,-0.6358186,5.3168597,8.78209,990.6624,5.733187840071486,990.6680303245492,1,1
12.1,-0.7553041,4.7687050000000015,8.8625765,990.6825,5.733095088241239,990.6678928789937,1,1
12.12,-0.5306432,5.416956400000001,7.4469905,990.62225,5.731545769631097,990.6676071177363,1,1
12.14,-0.7361646,5.421723,7.1487235999999985,990.6497,5.728254140236876,990.6672901534656,1,1
12.16,-0.34421057,5.3502245,7.8872914,990.6574,5.7245460473042895,990.6669744792836,1,1
12.18,-0.7265853,5.5122876,7.442259,990.63464,5.719969705805168,990.6665791454508,1,1
12.2,-0.54016286,5.9031449999999985,8.237639,990.64233,5.716427988049007,990.6661425315526,1,1
12.22,0.062102556,6.384567,9.203459,990.67004,5.716000951312777,990.6657707703986,1,1
12.24,0.31945366,6.4084177,10.121863,990.7052,5.719954790734109,990.6655842274696,1,1
12.26,0.30509263,6.899374000000001,9.345419,990.70026,5.727008899497482,990.6655442309184,1,1
12.28,-0.15856604,6.713479,8.426944,990.6575,5.735020934341186,990.6654799307344,1,1
12.3,-0.60310936,5.307345,9.103962,990.64484,5.743393014716943,990.6653488113412,1,1
12.32,-0.17772204,4.682926,9.558463,990.6825,5.752240521456938,990.6652946985248,1,1
12.34,-0.43107575,4.520864,7.044492,990.6447,5.756770654152282,990.6651727435252,1,1
12.36,-0.68442696,4.601896,7.3190856,990.63715,5.7580748747297905,990.6649641022113,1,1
12.38,-0.5792852,5.2263155,6.670470699999999,990.63965,5.7561523057211375,990.664688615978,1,1
12.4,-0.6988044,5.212016,7.375895,990.6624,5.7525592108653525,990.6644369573247,1,1
12.42,-1.105108,4.90219,8.360649,990.685,5.748949796846024,990.6642886186924,1,1
12.44,-1.090784,5.37408,7.446908,990.6824,5.744286072742471,990.6642227476497,1,1
12.46,-0.52679104,6.036632,7.726235400000001,990.6598,5.739894225494544,990.6641486221048,1,1
12.48,-0.034492828,6.1939287000000025,8.067110000000001,990.6723,5.736489482134751,990.6641124697336,1,1
12.5,-0.1205496,5.893636,7.977154700000002,990.69244,5.733445724523348,990.6641825046072,1,1
12.52,0.19489844,6.0509330000000014,8.261217,990.69244,5.731403546071157,990.6643461144052,1,1
12.54,0.2570169,6.2987943,7.816182,990.64484,5.729837081307428,990.6644204580107,1,1
12.56,0.46730793,6.122432,8.441121,990.66974,5.729520836731628,990.6645052983718,1,1
12.58,0.32389224,6.089067,9.19389,990.65466,5.731545108122227,990.6645448202406,1,1
12.6,-0.50302905,6.5371237,8.232804,990.64215,5.734575051758863,990.6644991204113,1,1
12.62,-0.7802805,6.389361,6.4574003,990.62964,5.735558433797909,990.6643332472084,1,1
12.64,0.26169646,5.674378,8.857742,990.6901,5.737650304630346,990.6642794419563,1,1
12.66,-0.7468623999999999,5.016594,9.9655905,990.71027,5.7420844808245874,990.6643974656447,1,1
12.68,-0.88549703,5.483717,7.2433057,990.63965,5.744303246419546,990.6644126604992,1,1
12.7,-0.85205364,5.5027833,8.119169,990.6574,5.746047073675305,990.6644008410948,1,1
12.72,-0.6608856,5.9508405,6.0265603,990.6372,5.74455912566004,990.6642924744414,1,1
12.74,-0.35974264,5.955607,7.2385693,990.6624,5.742061161680588,990.6641899087584,1,1
12.76,-0.45057797,5.016595400000001,8.478982,990.67505,5.739680674736443,990.6641383780493,1,1
12.78,-0.23550460000000004,5.140526,8.838795,990.68506,5.7381721915317,990.6641681633536,1,1
12.8,0.16597988,5.674381,7.7309422,990.66254,5.736117081490822,990.6641886202606,1,1
12.82,0.12772246,5.617183,6.949764,990.64233,5.732226173754943,990.6641280049506,1,1
12.84,-0.36461633,5.9746747,6.935559,990.60706,5.7271938124573465,990.6638690004448,1,1
12.86,0.041644335,6.7945232,7.8208904000000015,990.6449,5.72366257781666,990.6635718556619,1,1
12.88,-0.43157405,6.7039595,8.251719,990.70013,5.722053053188021,990.6634409078515,1,1
12.9,-0.49851155,6.9232216,8.029200999999999,990.67004,5.7220913489876075,990.6633489590978,1,1
12.92,-0.4698457,6.7611585000000005,8.97608,990.6826,5.724902942481054,990.6633370169264,1,1
12.94,0.0033322126,6.2511373,10.420072,990.69763,5.732033664636838,990.6634499195627,1,1
12.96,0.4334944000000001,6.451333999999999,7.8161473,990.6474,5.738782860325656,990.6634919006217,1,1
12.98,1.0118362,6.76116,7.361643300000001,990.60956,5.7449679577691874,990.6633348402432,1,1
13.0,1.0309317,6.0890765,6.8787317,990.61957,5.748965090257863,990.6630385082676,1,1
13.02,0.91141886,5.7077519999999975,6.585197,990.62726,5.75001231054025,990.6626478667047,1,1
13.04,0.50990105,5.269229,6.7130246,990.62976,5.7480068478338815,990.6621842994994,1,1
13.06,0.18963514,4.6877093,7.7261853,990.6449,5.744329319805031,990.6617124680388,1,1
13.08,0.031883806,4.644811,8.796159,990.68744,5.741075232627437,990.6613881768747,1,1
13.1,0.3043136,5.6648545,7.120178,990.66,5.736454051043397,990.6610966357657,1,1
13.12,0.289954,6.3941383,7.044425500000001,990.6396,5.731502406658352,990.6607616421527,1,1
13.14,-0.3266586,5.7744865,8.228025,990.66754,5.727397690115873,990.6604900438847,1,1
13.16,-0.43183208,5.822152,8.923982,990.6776,5.725316886575568,990.6603116554976,1,1
13.18,-0.32669544,6.289275599999999,7.432641999999999,990.6373,5.723115442059411,990.6600711895584,1,1
13.2,0.251643,6.6372347000000005,7.3663588,990.64746,5.721182539467125,990.6598133135719,1,1
13.22,0.055652022,6.1033807,7.475249000000002,990.66254,5.718936724141868,990.6595952704216,1,1
13.24,-0.14438899,5.893635,7.347485000000002,990.67737,5.715943794343882,990.6594665965207,1,1
13.26,0.24278526,6.3416905,6.845638799999999,990.66986,5.712123890606075,990.6593903165144,1,1
13.28,0.3766293,6.303558,7.8351297,990.685,5.709100735022867,990.6594151103611,1,1
13.3,0.4196577,6.4608545,8.55476,990.67755,5.708175670454196,990.6595023038068,1,1
13.32,0.88808924,6.475153400000001,8.479011999999999,990.6725,5.70906003120193,990.659626139642,1,1
13.34,0.47225767,6.518053,7.6788979999999984,990.6649,5.710246641288724,990.6597545468828,1,1
13.36,0.22849594,6.4846864,7.579476,990.67755,5.711476223680539,990.6599320711523,1,1
13.38,-0.12519938,6.437021,8.398529,990.6675,5.7139963767914725,990.6601161761406,1,1
13.4,-0.5649318,6.1605597,7.8966827,990.6851,5.716502696954207,990.6603687930742,1,1
13.42,-0.35939008,5.860266,8.635251,990.6952,5.719841566702478,990.6607173977417,1,1
13.44,-0.38327646,5.531374,8.909848,990.675,5.7240121630128815,990.661076842194,1,1
13.46,-0.38804927,5.421743,8.97613,990.6674,5.728901509863492,990.66141721068,1,1
13.48,-0.7943224,5.6791367999999975,7.617357000000001,990.6449,5.732414884262452,990.661658498316,1,1
13.5,-0.47884524,5.5838056,7.385372,990.6397,5.734152071093501,990.661792649477,1,1
13.52,-0.26852316,5.250146400000001,8.677864999999999,990.6851,5.736132184005582,990.6619950919047,1,1
13.54,-0.27807257,5.2835116,7.248075999999997,990.6549,5.735883236535442,990.6621484277033,1,1
13.56,-0.5505119,5.140515,7.300155,990.66754,5.7336067562620965,990.6623033248748,1,1
13.58,-1.0476013000000002,5.2787447,7.8493476,990.6827,5.730735159853537,990.6625136200462,1,1
13.6,-1.0332518,5.8697977,7.7593945999999985,990.65497,5.727903223994893,990.6626722798276,1,1
13.62,-1.1479576,6.1748567,7.8304114,990.66003,5.725644123111152,990.6628029594028,1,1
13.64,-0.9041774,6.212989,7.9582415,990.69507,5.724104366247296,990.6630345892216,1,1
13.66,-0.53134257,5.8745629999999975,8.351197,990.6701,5.723387767821476,990.6632646928084,1,1
13.68,-0.35447967,5.793532,7.8682895,990.65497,5.722472659023424,990.6634381514432,1,1
13.7,-0.5934604,5.469405,7.920368700000001,990.64746,5.721106992578231,990.6635338981483,1,1
13.72,-0.34490103,5.7792315,7.096583,990.65015,5.71834009827368,990.6635703179032,1,1
13.74,-0.17807409,6.136735,7.290650999999999,990.64996,5.715119587285953,990.6635535012545,1,1
13.76,-0.3501559,6.656289,7.9345293,990.6876,5.71323798037907,990.663625209459,1,1
13.78,-0.3453855,6.2940316,8.086029,990.6625,5.712317586007504,990.6636845200743,1,1
13.8,-0.5652643,6.136735400000001,8.370092,990.67505,5.712543730424647,990.6637778426621,1,1
13.82,-0.87118053,6.2892655999999985,7.574712299999999,990.6524,5.712721547847973,990.6638193422667,1,1
13.84,-0.7994929000000001,6.2463665,7.470554400000001,990.6599,5.712620770056446,990.6638419016851,1,1
13.86,-1.2583625,5.988972,7.446882,990.6751,5.712000249032477,990.6639023643414,1,1
13.88,-1.0385004,6.11767,7.214895200000001,990.64484,5.710667917381576,990.6638871646327,1,1
13.9,-1.081527,5.874575599999999,8.270667,990.6751,5.710137076680223,990.6639141003776,1,1
13.92,-0.34066674,6.413197,8.033946,990.6651,5.710489333271963,990.6639421700404,1,1
13.94,-0.47450954,6.336932,7.3947997,990.66254,5.710508078953628,990.6639619245824,1,1
13.96,-0.5366553000000001,6.3369327,7.361658599999997,990.65497,5.710186589109554,990.663947008767,1,1
13.98,-0.6179215,6.2511344000000015,7.8398323,990.6348,5.710226001937063,990.6638288999208,1,1
14.0,-0.70396686,5.988974,8.024473,990.6776,5.710566994068872,990.6637741149048,1,1
14.02,-0.53190273,6.165337,7.6125793,990.66,5.710700968835933,990.6637121200508,1,1
14.04,-0.6561859,6.003274,7.3569207,990.6601,5.710043817511924,990.6636443377656,1,1
14.06,-0.37418646,6.2273026,7.2480283,990.655,5.70878356853147,990.6635533257228,1,1
14.08,-0.24991983,6.1653376,8.218580000000001,990.68994,5.708478955090988,990.6635678995088,1,1
14.1,-0.62275344,5.8269124,8.545254,990.66986,5.709195389531491,990.663603428468,1,1
14.12,-0.641881,6.2320699999999984,7.124932,990.7353,5.7089950226090265,990.663892929514,1,1
14.14,-0.13523118,6.2797356,7.8350916,990.67505,5.709137528589937,990.664188898092,1,1
14.16,-0.8426505,6.1987042,6.7556460000000005,990.64746,5.7078473818354425,990.6643901918941,1,1
14.18,-0.15914738,6.1987047,7.920309,990.6623,5.707066094954139,990.6645605304068,1,1
14.2,-0.50808144,6.1033735,7.6741195000000015,990.6651,5.706237520348938,990.6647129836076,1,1
14.22,-0.5463286999999999,5.879346,7.693055999999999,990.65,5.705119539509922,990.6647947245143,1,1
14.24,-0.19773111,6.1272150000000005,7.797183500000001,990.65765,5.704208611532876,990.6648412297716,1,1
14.26,0.007778868,6.0938497000000025,7.9865575,990.6725,5.703748581678879,990.6649098933896,1,1
14.28,-0.16909273,6.1987143,7.707225999999999,990.63226,5.703368984038,990.6648530249464,1,1
14.3,-0.13087589,6.2606800000000025,7.6598797,990.66003,5.703065291064763,990.6647854130999,1,1
14.32,-0.29341075,6.0318856,7.697753,990.6778,5.702601413470982,990.6647725237854,1,1
14.34,-0.43682778,5.950855000000002,8.119113,990.66504,5.702604503051196,990.6647620977012,1,1
14.36,-0.4033907,5.9365554000000005,8.005486,990.67004,5.702809733484408,990.6647718856616,1,1
14.38,-0.3842904,5.9413230000000015,7.9344673,990.65497,5.70307891252249,990.6647452475153,1,1
14.4,-0.02582796,6.0747870000000015,7.801902,990.655,5.703337584855834,990.6646866271576,1,1
14.42,-0.1453433,6.079554,7.5841174,990.63983,5.7032391826156505,990.6645453463524,0,0
14.44,-0.102348015,5.9556239999999985,7.915524,990.6348,5.70321050182274,990.6643134273855,0,0
14.46,-0.14060664,5.9794574,8.000739999999999,990.67755,5.7034159101422075,990.6641561554483,0,0
14.48,-0.040250964,5.946092,8.005473,990.6474,5.7037919875834175,990.6639568678046,0,0
14.5,0.017085135,5.9699254,7.6645947,990.65753,5.70378343104526,990.6637576405186,0,0
14.52,0.03618142,5.965159,7.721405499999999,990.64996,5.7035223780054745,990.6635319317827,0,0
14.54,0.107858285,5.988992,8.014936,990.68756,5.703555989052746,990.6634189965894,0,0
14.56,0.03135985,5.9699269999999975,7.8586993,990.6674,5.703565534003062,990.6633335386647,0,0
14.58,0.18907316,6.1272235,7.8255568,990.6777,5.703702534871309,990.6633097473036,0,0
14.6,0.15559159,6.2082553,7.4468026,990.6627,5.703443992121848,990.6632865301664,0,0
14.62,0.055194154,5.9460955,8.237446,990.6675,5.703799185144512,990.6632811839952,0,0
14.64,0.29416412,6.0509605,8.024395,990.6577,5.704477097780372,990.663256367856,0,0
14.66,-0.050003283,5.9031980000000015,7.659845,990.64514,5.7046402674304035,990.6631692213913,0,0
14.68,-0.19341764,5.850766,7.356841,990.65753,5.703788807849803,990.663071917578,0,0
14.7,-0.1313031,6.0128293,7.3899794,990.65515,5.702306434732512,990.6629574210252,0,0
14.72,-1.0203629,5.3788776,7.219539599999999,990.6223,5.699300495513674,990.6627098851557,0,0
14.74,-0.07934102,6.155841400000001,6.7555127000000015,990.63995,5.695123875120848,990.6624092268747,0,0
14.76,0.30777872,6.0652776,8.237378,990.70013,5.692202136022493,990.6622793600008,0,0
14.78,0.3364159,6.02238,8.341531,990.67523,5.690523927951357,990.662211231935,0,0
14.8,0.8286940999999999,6.1558447,8.0053835,990.65015,5.6896151589912725,990.6621076135408,0,0
14.82,1.3161869,6.322675,8.119005,990.64734,5.689892204801367,990.6619628929193,0,0
14.84,0.9194215,6.2225785,7.1105733,990.63007,5.689385208245986,990.6617202033636,0,0
14.86,0.8524571,6.174914,7.1579130000000015,990.63007,5.6881835230474875,990.66139182214,0,0
14.88,0.71380395,6.3512774000000025,7.347286,990.6324,5.686884541901808,990.6609972939312,0,0
14.9,-0.24698374,5.660128,8.303631,990.68536,5.6861572499092485,990.6607363945476,0,0
14.92,0.15925519,6.1463175,8.455128,990.6626,5.686773241683679,990.660512572832,0,0
14.94,0.36474514,5.9747224,9.416209,990.65247,5.690036091905641,990.660285850702,0,0
14.96,0.2021846,5.826961,8.317821499999999,990.64496,5.693547567032193,990.6600303459653,0,0
14.98,0.30251890000000003,5.9222927000000025,7.640798599999999,990.65,5.696256333176713,990.6597684727344,0,0
15.0,0.058704495,5.8174295,7.7023416,990.63995,5.698205754373796,990.6594657350456,0,0
15.02,-0.051269814,5.6744337,7.8727765,990.68005,5.699585694552076,990.6592723393776,0,0
15.04,-0.113454424,5.493306,8.403027,990.655,5.7011540987662,990.6590860745438,0,0
15.06,0.05379431,5.450408,8.77704,990.6577,5.703490047232251,990.6589165010682,0,0
15.08,0.264064,5.464709,8.653941,990.64734,5.706301503311846,990.6587249905413,0,0
15.1,0.3452735,5.397978,8.218372,990.6577,5.708692268898322,990.6585520818736,0,0
15.12,0.5985616,5.4504113,7.763864999999999,990.62726,5.710008991899558,990.6582866482803,0,0
15.14,0.6032997,5.579109,7.65497,990.6474,5.710344174379473,990.6580129192232,0,0
15.16,0.34036338,5.5457444,8.161548,990.62726,5.7106043650717915,990.6576603417196,0,0
15.18,0.4454775,5.6792089999999975,8.469279,990.6879,5.711490711077849,990.6574576670067,0,0
15.2,0.35461676,5.955671,7.7496456999999985,990.63226,5.7120403333928165,990.6571878720296,0,0
15.22,0.10602258,5.531448,8.275160000000001,990.6499,5.712652085429758,990.6569232448484,0,0
15.24,0.31326354,5.7030015,7.849221000000001,990.65,5.712803428658472,990.6566644965892,0,0
15.26,0.3419693,5.712534400000001,8.223241999999999,990.64746,5.713194265382539,990.6564027304402,0,0
15.28,0.394571,5.8078650000000005,8.478902,990.63983,5.714348831477442,990.6561117720413,0,0
15.3,0.5905683,5.9174957,8.10962,990.6249,5.715699214302608,990.6557423188203,0,0
15.32,0.51889503,5.8221636,7.659853999999997,990.62494,5.716342619609415,990.6553049816067,0,0
15.34,0.36118686,5.6886991999999985,7.8539667,990.6198,5.716502640826138,990.6547907325113,0,0
15.36,0.12700178,5.5171027000000015,7.853969,990.61475,5.7160156191406974,990.6541921953732,0,0
15.38,0.122245744,5.5886010000000015,8.067019,990.6199,5.715406663543491,990.6535398760544,0,0
15.4,0.213089,5.6171994000000005,8.28007,990.6349,5.71509413856098,990.6528963831507,0,0
15.42,0.22745214,5.722063,8.085961,990.65247,5.714837887229876,990.652326257842,0,0
15.44,0.44735008,5.9317910000000005,8.062292,990.6248,5.714862817445417,990.6517234005906,0,0
15.46,0.22272311,5.7411275,7.9249964,990.6324,5.7146564595448295,990.6511211516812,0,0
15.48,0.24664749,5.7601933,7.740357,990.61975,5.7139618760291855,990.6504760683987,0,0
15.5,0.15107678,5.6124296,8.341629,990.6299,5.713677004788946,990.6498319989644,0,0
15.52,0.13198294,5.5456970000000005,7.896597,990.65765,5.712913841104388,990.6492910440156,0,0
15.54,0.12244551,5.4884977,8.100178999999999,990.61725,5.7120113206308725,990.6486977084644,0,0
15.56,0.30888325,5.645794,7.872928999999999,990.64496,5.710797044983988,990.6481599814213,0,0
15.58,0.37582582,5.6839255999999985,8.123856,990.63745,5.709787648397657,990.6476462898725,0,0
15.6,0.45710945,5.7744894,8.081247,990.6553,5.709006331905942,990.6472199453764,0,0
15.62,0.3089593,5.6600914000000015,7.9770937,990.6349,5.708103390715535,990.6467988755768,0,0
15.64,0.3089831,5.617192299999999,8.403192500000001,990.6326,5.707774745091001,990.6463757023492,0,0
15.66,0.28510952,5.583825599999999,7.820862299999999,990.6276,5.706918395213842,990.645934193957,0,0
15.68,0.40462995,5.6934557,8.2185545,990.6373,5.706414289756671,990.6455129940434,0,0
15.7,0.39031583,5.583824,8.734607,990.6449,5.706988217722869,990.6451386150212,0,0
15.72,0.4333595,5.6743884000000016,8.246966,990.6323,5.7077762095840665,990.6447615947033,0,0
15.74,0.469487,5.6172414,7.953239999999999,990.6223,5.708185785203647,990.6443475978093,0,0
15.76,0.39294678,5.5076117999999985,7.801733,990.6273,5.707864133062364,990.6439204188014,0,0
15.78,0.6462205,5.664909400000001,8.270434,990.6374,5.7079104597671675,990.6435194899224,0,0
15.8,0.48364753,5.540981,8.313038,990.64246,5.708191992852544,990.6431614150017,0,0
15.82,0.6508811,5.512383,8.426658999999999,990.65497,5.708864016349676,990.6428875309073,0,0
15.84,0.6508215,5.674447,8.095244000000001,990.6323,5.709497978524108,990.6426074118103,0,0
15.86,0.4069956,5.631549400000001,7.9910827000000015,990.6072,5.709840757725504,990.6422324318936,0,0
15.88,0.23486303,5.741182,8.170983999999999,990.65,5.710350081116988,990.6419290628844,0,0
15.9,-0.07588382,5.664918,8.616013,990.63513,5.711675483923735,990.6416365294016,0,0
15.92,-0.02814541,5.760251,8.40296,990.6374,5.71345949743084,990.6413627953103,0,0
15.94,0.15820734,5.7459526,8.488173,990.6701,5.715774418789537,990.641224377804,0,0
15.96,0.3828022,6.003348,8.166228,990.6397,5.7183242647016606,990.6410965843356,0,0
15.98,0.69821346,6.103447,8.540239999999999,990.64734,5.72185723133646,990.641006142323,0,0
16.0,0.07677556599999999,6.1940136,7.280883999999999,990.6224,5.7242492059924,990.6408592456484,0,0
16.02,0.16753592,6.041485,7.735382,990.64734,5.726158677353097,990.6407527784623,0,0
16.04,-0.14798701,5.355102,8.350848,990.66754,5.727853114990221,990.6407551380544,0,0
16.06,0.43030596,5.7173620000000005,7.5412602,990.6552,5.728419997233077,990.640809224493,0,0
16.08,0.5401855,5.7364297,7.50338,990.62476,5.727961651176919,990.6407992380617,0,0
16.099999999999998,0.14339845,6.0081253,6.892636,990.6425,5.725943013241722,990.6407965367945,0,0
16.12,0.61176336,6.1844883,7.4418216,990.6349,5.723697683076812,990.6407729224215,0,0
16.14,0.36315763,5.9175634000000015,8.393432,990.64484,5.722466962435381,990.6407666982416,0,0
16.16,-0.1674639,5.788868,7.702203,990.6425,5.720807795862832,990.6407674384419,0,0
16.18,0.03323196,6.117761,7.1577410000000015,990.6274,5.718317670277539,990.6407199697047,0,0
16.2,-0.19625452,6.09393,7.427597500000001,990.64496,5.715504553566421,990.6406932904378,0,0
16.22,-0.13895646,6.0557985,8.047798,990.6701,5.713378757499522,990.6407755807918,0,0
16.24,-0.5445679,6.0224166,7.4844656,990.6528,5.710931234914208,990.6408915804576,0,0
16.259999999999998,-0.42988306,6.174947,7.593354700000001,990.62225,5.708571148274268,990.6409269680728,0,0
16.28,-0.22915794,6.2035475,7.995777,990.6323,5.70697454714509,990.6409271794846,0,0
16.3,0.0767172,6.2702794,7.9815710000000015,990.6424,5.706115599906624,990.6409326684419,0,0
16.32,0.35869324,6.394211,7.7685194000000015,990.62726,5.705740549050453,990.6408882968781,0,0
16.34,0.27740997,6.1940165,7.6359534,990.6549,5.705312619569368,990.6408995322956,0,0
16.36,0.067068115,5.874657599999999,7.593341400000001,990.6226,5.704350217503936,990.6408435815939,0,0
16.38,0.024021372000000003,6.027188,7.5838695,990.6323,5.7030987317112185,990.6407633866606,0,0
16.4,0.19128405,6.003356,7.749571,990.6372,5.7018405113231925,990.6406796982254,0,0
16.419999999999998,0.28684783,6.008124,8.104648,990.65765,5.701179668731817,990.6406668442104,0,0
16.44,0.7122199,6.2845845,7.938941000000002,990.63745,5.701168652613883,990.6406439057636,0,0
16.46,0.42062336,6.2512193,7.5412493,990.66504,5.701012652281388,990.6407114632913,0,0
16.48,0.28197855,6.0271916,7.863186,990.65265,5.700951664262543,990.6408141358548,0,0
16.5,0.18635203,5.9604607000000005,7.631197500000002,990.6274,5.700504004361483,990.6408565664432,0,0
16.52,0.38229358,6.2130885000000005,7.863180000000002,990.63495,5.7004312507883474,990.6408727944714,0,0
16.54,0.3392468,6.051027,8.260867999999999,990.655,5.7011404561031185,990.6409379914971,0,0
16.56,0.42525476,6.079627,7.915253599999999,990.655,5.702006189126633,990.64104622282,0,0
16.58,0.4682501,6.022429,7.796891,990.63745,5.702743962882953,990.6411289096144,0,0
16.599999999999998,0.2722382,6.03673,7.2997746,990.6148,5.7025623940232935,990.6411071875915,0,0
16.62,-0.03369777,5.888967,8.02887,990.6348,5.702568176885703,990.6410652881367,0,0
16.64,-0.31573665,5.9223337,7.8063506999999985,990.6298,5.702420681176551,990.6409877107412,0,0
16.66,0.18133251,5.9795327,8.800573,990.6374,5.703879216250179,990.6409062475957,0,0
16.68,0.32947790000000005,6.065332,7.6737823,990.6575,5.704975737482838,990.640894004269,0,0
16.7,0.35812628,6.0510325,6.949414999999999,990.6449,5.704573414096076,990.64089760765,0,0
16.72,0.30551803,5.91757,7.105648,990.6376,5.702911569312791,990.6408889202104,0,0
16.74,0.3869363,6.0367303,7.441805400000002,990.6373,5.700845577441387,990.6408683238756,0,0
16.759999999999998,0.27219814,6.0986958,7.6406484,990.6853,5.69882429580507,990.6410100789882,0,0
16.78,0.17658208,5.9128003,8.189836999999999,990.6676,5.6975207223044375,990.6412310575214,0,0
16.8,0.35341203,6.265526,7.9105053,990.6499,5.696844895238966,990.6414575223464,0,0
16.82,0.3581676,6.246460400000001,7.7116585,990.6474,5.696379395788735,990.6416790195852,0,0
16.84,0.27688807,6.1463633,7.886829,990.6499,5.696251597292813,990.6419043300748,0,0
16.86,0.43938,5.898503,8.265578999999999,990.6801,5.6967574715085485,990.6422409188353,0,0
16.88,0.44413984,6.031967,8.118812,990.63995,5.697738640045272,990.6425300813562,0,0
16.9,0.52059096,6.041500599999999,7.972042,990.66504,5.698912015542798,990.6428666210668,0,0
16.919999999999998,0.28635776,5.8842050000000015,7.640631699999999,990.6299,5.6994858495046845,990.6431173077193,0,0
16.94,0.21941914,5.784108,8.076196000000001,990.64746,5.700126840396491,990.6433544481374,0,0
16.96,0.11902042,5.7412095,8.114068,990.6348,5.700833726712339,990.6435331893975,0,0
16.98,0.2862907,5.7745757000000015,8.156676,990.6552,5.7017156836769605,990.6437331256934,0,0
17.0,0.3770842,5.8842072,7.9057502999999985,990.6449,5.7024674221622025,990.643913990152,0,0
17.02,0.49655646,5.984306,7.858403999999997,990.66,5.703158849127933,990.6441317116228,0,0
17.04,0.4582966,5.8651423,8.293967,990.66754,5.704373398272872,990.6444083601526,0,0
17.06,0.38657677,5.8603760000000005,7.986229400000001,990.64514,5.705515214941367,990.6446554406972,0,0
17.08,0.32919478,5.8746758,7.867866999999999,990.6628,5.706404396444517,990.6449390814796,0,0
17.099999999999998,0.34351426,5.927109,7.915209299999999,990.6552,5.707212146661303,990.6452266457816,0,0
17.12,0.24789535,5.7126145,8.076177000000001,990.6628,5.7079472303040335,990.6455440016742,0,0
17.14,0.41038448,5.9843087,7.640609299999999,990.6575,5.708238040491928,990.6458674589347,0,0
17.16,0.37212604,5.869912,8.4407215,990.66,5.709328265029062,990.6462041429179,0,0
17.18,0.5202757,5.917578,8.421782,990.6702,5.7111587446459735,990.6465880219713,0,0
17.2,0.5584927,6.1702059999999985,7.432289,990.6348,5.712326883297147,990.6468847806236,0,0
17.22,0.42941374,5.7936487,7.773164299999999,990.6601,5.7129646190179,990.6471945713583,0,0
17.24,0.3340844,5.7745760000000015,7.3234205,990.65497,5.7123580488010886,990.6474962939948,0,0
17.259999999999998,0.21457858,5.6744785,7.7447815,990.6475,5.711218113608784,990.647762909458,0,0
17.28,0.48701602,5.92234,7.8962812000000016,990.66003,5.710190740344458,990.6480426524072,0,0
17.3,0.5204625,6.065337,7.621684599999999,990.6374,5.709000507650051,990.6482515197284,0,0
17.32,0.4248557,5.8794413,7.659559,990.6626,5.707485273877194,990.6484877294223,0,0
17.34,0.5013219,5.9271072999999985,7.9814973,990.6676,5.706288895673287,990.6487652484824,0,0
17.36,0.33401656,5.7507449999999976,7.474914999999997,990.6449,5.7043035742768335,990.6489965494293,0,0
17.38,0.5012989999999999,5.8365436,7.63115,990.65265,5.702009358076878,990.6492140793674,0,0
17.4,0.30531567,5.7459793,7.990963000000002,990.66,5.6999217264895545,990.6494451181354,0,0
17.419999999999998,0.6876886,6.027206,8.128260000000001,990.66254,5.698638006735876,990.6496964055657,0,0
17.44,0.72113574,6.1988025,7.8110538,990.6399,5.697768833683622,990.6498831760788,0,0
17.46,0.63030946,5.9938407,8.194539,990.65,5.697631409040589,990.6500486270699,0,0
17.48,0.45822448,5.974775,8.118788,990.6676,5.697971674651322,990.6502580045088,0,0
17.5,0.24790166,5.641116,8.464398,990.64496,5.6989078790010055,990.6504239375972,0,0
17.52,0.25267005,5.631583,7.953081599999999,990.64996,5.6994805789716425,990.650568885899,0,0
17.54,0.5251074,5.760281,8.047769,990.64246,5.700067614109187,990.6506677702292,0,0
17.56,0.51075804,5.8174790000000005,8.090378,990.66504,5.700804715597969,990.6508068844504,0,0
17.58,0.46294862,5.879445,7.6642800000000015,990.6702,5.701033395473478,990.6509996209925,0,0
17.599999999999994,0.4246987,5.6744833,8.189798,990.66003,5.701439414387312,990.6512024323648,0,0
17.62,0.48204494,5.641118,8.56855,990.64246,5.702618959889923,990.6513501637377,0,0
17.64,0.34819907,5.7364492,7.740027,990.6399,5.703168843571635,990.6514394785887,0,0
17.66,0.5489394000000001,5.7841153,7.9151993,990.65247,5.703531186001937,990.6515221070688,0,0
17.68,0.26214045,5.645885,7.93887,990.6475,5.70357381398137,990.6515806380077,0,0
17.7,0.27168792,5.7221503,8.308152,990.655,5.7040537982117305,990.6516446656486,0,0
17.72,0.19520034,5.698318,7.943602999999999,990.6524,5.70426656053146,990.6517039596761,0,0
17.74,0.42487603,5.7221446,8.080922,990.6624,5.704518492788267,990.6517948576236,0,0
17.759999999999994,0.36273736,5.7602773,7.792124,990.65247,5.704359429553124,990.6518776055627,0,0
17.78,0.34839654,5.8127093,7.919953,990.64233,5.70411506390616,990.6519163502617,0,0
17.8,0.061607137,5.6458797,8.099860000000001,990.6626,5.703886168639042,990.6519890462167,0,0
17.82,0.04726647,5.5839143,8.279767999999999,990.64746,5.703907175183092,990.652036975796,0,0
17.84,0.27191597,5.726911,8.052515,990.64996,5.703937385750753,990.6520718492598,0,0
17.86,0.21455704,5.688779,7.929421400000002,990.63464,5.703718491387317,990.6520399087947,0,0
17.88,0.25757402,5.7412105,7.976764699999999,990.6675,5.7034258911728015,990.6520673425284,0,0
17.9,0.17153634,5.5505486,8.256094000000001,990.6474,5.703315557106499,990.6520747805424,0,0
17.919999999999995,0.2097735,5.6744795,7.953092999999999,990.66254,5.702997214937385,990.6521190275612,0,0
17.94,0.1763136,5.598214,8.038312,990.6349,5.70254828001543,990.652096135728,0,0
17.96,0.26712870000000005,5.7030787000000025,8.241891,990.6575,5.7024615491909865,990.6520953624156,0,0
17.98,0.13807277,5.650646,8.374455000000001,990.66,5.702855746514479,990.6521231358121,0,0
18.0,0.31014448,5.7602777000000005,8.246625,990.66,5.703591380517644,990.6521760330963,0,0
18.02,0.27668452,5.717378,8.137734,990.62225,5.704387596476543,990.6521150394174,0,0
18.04,0.13806899,5.636347,8.095124,990.66504,5.705059384309707,990.6521076752608,0,0
18.06,0.23844402,5.545782,8.066717,990.64233,5.705467180768991,990.6520659686612,0,0
18.08,0.12850685,5.5314827000000015,8.194546,990.64746,5.705838793875009,990.6520125352223,0,0
18.1,0.26234007,5.6220474000000005,8.061983,990.66754,5.706061938750428,990.6520212203094,0,0
18.12,0.28145814,5.6268134000000005,8.189812,990.6726,5.706378199416871,990.6521029780588,0,0
18.14,0.31013578,5.7364445,8.080919999999999,990.6573,5.706722314272549,990.6521939284854,0,0
18.16,0.23843767,5.693546,8.057249,990.66754,5.706994022737634,990.6523295381396,0,0
18.18,0.23843615,5.6268134000000005,8.071451,990.655,5.707145269443567,990.6524589764932,0,0
18.2,0.12371962,5.64588,8.118795,990.6525,5.707288536539908,990.6525734959064,0,0
18.22,0.0998193,5.5171833,8.047779,990.6676,5.707150240056305,990.652728780675,0,0
18.24,0.28629422,5.6601787,8.279771,990.6374,5.707336856824687,990.6528108066859,0,0
18.26,0.14768119,5.6029797,8.052519,990.65497,5.707347387537477,990.6528910579652,0,0
18.28,0.3436544,5.698311,8.009910000000001,990.66003,5.707254048296004,990.6529876681868,0,0
18.3,0.2719586,5.626812,8.076192,990.63983,5.70709168892796,990.6530256653732,0,0
18.32,0.14768492,5.6935444,7.80633,990.6449,5.706487240472781,990.653029987292,0,0
18.34,0.2767409,5.6172795,8.393397,990.6424,5.706409404312527,990.6529955381848,0,0
18.36,0.27196234,5.626812,8.364989999999999,990.6726,5.706758916715278,990.6530356750163,0,0
18.38,0.2385049,5.6792440000000015,7.8015966,990.6525,5.706586280471492,990.6530692114908,0,0
18.4,0.25284588,5.645879,8.104599,990.65497,5.706426275273737,990.653105687158,0,0
18.42,0.13335179,5.6411123,8.123536999999999,990.67004,5.7062998073510895,990.653198880584,0,0
18.44,0.31498557,5.7030773,8.270303,990.67004,5.7065359526199675,990.6533418543248,0,0
18.46,0.17159276,5.631579,8.104599,990.66,5.706716728168341,990.6534921552467,0,0
18.48,0.23373125,5.72691,8.156678,990.64496,5.707052725849552,990.6535942453824,0,0
18.5,0.22417302,5.58868,8.237163,990.66254,5.707498687401084,990.6537166569432,0,0
18.52,0.38190776,5.6792440000000015,7.9294267,990.6348,5.7076334258919035,990.6537567198328,0,0
18.54,0.2050563,5.5219474,8.237163,990.6499,5.707821070910107,990.653778235211,0,0
18.56,0.38669002,5.731676,8.114068,990.6424,5.708102398167702,990.6537562845523,0,0
18.58,0.5109663,5.774575,7.981505,990.65,5.708305090335222,990.653723366326,0,0
18.6,0.35801387,5.6125120000000015,8.019381,990.6573,5.7082924883153785,990.6537071556623,0,0
18.62,0.33411604,5.669711,8.2276945,990.6399,5.7085111431536255,990.6536431261596,0,0
18.64,0.31499803,5.7459760000000015,8.18035,990.65497,5.708941806633973,990.6535913264372,0,0
18.66,0.21940313,5.703077,8.07146,990.6575,5.709316627145538,990.6535596274266,0,0
18.68,0.19550546,5.6315784,8.06199,990.6549,5.7095381987517415,990.6535364435223,0,0
18.7,0.22418548,5.6744776,7.9388960000000015,990.64484,5.709467382723057,990.653484651028,0,0
18.72,0.30544353,5.722143,8.07146,990.66504,5.709424832907188,990.653480486436,0,0
18.74,0.2289996,5.6506440000000016,8.028852,990.65,5.709245093037336,990.6534642768517,0,0
18.76,0.305479,5.7507415,7.8489460000000015,990.64233,5.70876681793691,990.653409870666,0,0
18.78,0.3293804,5.731675,7.915228,990.6374,5.708116072317448,990.6533041618263,0,0
18.8,0.28158557,5.712609,8.038322,990.6372,5.7074968830701565,990.6531527825126,0,0
18.82,0.35328454,5.684009,8.09987,990.65753,5.706982760720662,990.6530347817343,0,0
18.84,0.39630514,5.6649427,8.095136,990.63995,5.706535935278608,990.652883411032,0,0
18.86,0.3676288,5.6697097,7.9909789999999985,990.66003,5.705976739583559,990.6527753876,0,0
18.88,0.48712665,5.793639700000001,7.863150599999999,990.6424,5.705266796931949,990.6526425866999,0,0
18.9,0.6974402,5.8603716,8.189824,990.6474,5.705082035647912,990.6525063705124,0,0
18.92,0.3198384,5.622044,8.128277,990.66003,5.704932939828942,990.6524130949556,0,0
18.94,0.4058774000000001,5.6649427,8.052527,990.6449,5.704744403400557,990.6523036295314,0,0
18.96,0.29594440000000005,5.6935425,8.128278,990.62976,5.70467650224283,990.6521257488164,0,0
18.98,0.37720352,5.760274400000001,8.189825,990.67004,5.7049054206777585,990.6520330647207,0,0
19.0,0.21947254,5.7221413,7.934168,990.65497,5.704907335023711,990.6519617420212,0,0
19.02,0.23381428,5.636343,8.170889,990.63995,5.7050085474680365,990.6518554790124,0,0
19.04,0.18601896,5.6315765,8.16142,990.65247,5.70517321325773,990.6517637972933,0,0
19.06,0.22903956,5.64111,7.990982000000002,990.6273,5.705116145466135,990.6515947176559,0,0
19.08,0.3724364,5.6554093,8.317655,990.65753,5.705447169139595,990.651466685905,0,0
19.1,0.22426467,5.617277,7.9483724,990.6348,5.7054349896437415,990.6512935569806,0,0
19.12,0.42023903,5.741207,8.166155,990.65247,5.705650988258921,990.6511448154578,0,0
19.14,0.2099305,5.6411095,8.161421,990.6524,5.705927017152624,990.6510179061128,0,0
19.16,0.21471281,5.6411095,7.8252788,990.6626,5.7056846494806495,990.6509474645533,0,0
19.18,0.31509095,5.6935415,8.043061999999999,990.6298,5.705422277634548,990.6508090915187,0,0
19.2,0.20515816,5.5600777,8.374471,990.6601,5.705548330669112,990.6507202723762,0,0
19.22,0.4154719,5.707841,8.080936,990.64496,5.705701076242293,990.6506210548014,0,0
19.24,0.42879587,5.726932,8.132922,990.67,5.705989103757749,990.6506031503548,0,0
19.26,0.3475011,5.6697345,8.099778,990.6499,5.706264426639903,990.6505847986447,0,0
19.28,0.38092172,5.722168,8.151854,990.645,5.7066811644980735,990.6505484777983,0,0
19.3,0.3187486,5.6411370000000005,8.123444000000001,990.6575,5.707072064447902,990.6505414101787,0,0
19.32,0.27568990000000004,5.631605,8.057158,990.63983,5.707311718184184,990.6504966041533,0,0
19.34,0.256535,5.5744066,8.265469,990.6549,5.707705339748777,990.650472865774,0,0
19.36,0.27083635,5.607774,8.057152,990.6224,5.707916502923914,990.6503508282252,0,0
19.38,0.385516,5.7269382,7.962459599999999,990.62726,5.707956056177705,990.6501598688658,0,0
19.4,0.35679674,5.688807,8.014535,990.6223,5.707883538575636,990.6498908416477,0,0
19.42,0.33286446,5.593477,8.265455000000001,990.627,5.708026106936143,990.6495707221678,0,0
19.44,0.3041476,5.7364745,8.009793,990.60724,5.708090152328321,990.6491354739957,0,0
19.46,0.28977013,5.7364755,8.237042,990.6499,5.7084693385917005,990.6487536410043,0,0
19.48,0.19891341,5.5744133,8.166021,990.645,5.708808347895565,990.6484027402656,0,0
19.5,0.3948474,5.7269440000000005,7.8156724,990.622,5.708711742450568,990.6479976345081,0,0
19.52,0.2179613,5.531516000000001,8.506893,990.6346,5.709170364807987,990.647591451576,0,0
19.54,0.3804366,5.660214,8.085527,990.6649,5.7095519040328275,990.647294859112,0,0
19.56,0.4807744000000001,5.7507796,8.151806,990.65497,5.710093731458168,990.6470604205176,0,0
19.58,0.4042595,5.6459160000000015,7.9860973,990.6474,5.710361466377416,990.6468544930624,0,0
19.6,0.365983,5.7078824,8.005032,990.6424,5.7104894964726345,990.6466564993872,0,0
19.62,0.41852283,5.6983504,8.123388,990.6422,5.710687211789613,990.6464655087784,0,0
19.64,0.35634970000000005,5.5839534,8.393246000000001,990.6447,5.711269547640204,990.6462903936447,0,0
19.66,0.28939676,5.6268535,7.971881,990.64734,5.711513409154088,990.6461394404956,0,0
19.68,0.3180375,5.6173215,7.957674000000001,990.6223,5.7114236385439465,990.6459202363072,0,0
19.7,0.26063943,5.517225,8.265408,990.66754,5.711445297345404,990.6458043786354,0,0
19.72,0.37531906,5.750787,7.815634700000001,990.60205,5.711086421648911,990.6455444910337,0,0
19.74,0.45841378,5.6125116,8.417073,990.66003,5.711258127769328,990.6453670021808,0,0
19.76,0.31027895,5.679242,8.057262,990.6374,5.711348205456012,990.645181491823,0,0
19.78,0.35333400000000004,5.6077433,7.990984,990.6677,5.711170801487747,990.6450986414999,0,0
19.8,0.4107284000000001,5.631575,8.043066,990.6449,5.710879324872904,990.6450247198453,0,0
19.82,0.38686156,5.6411076,8.118818,990.6323,5.710626454520531,990.6449135936797,0,0
19.84,0.329543,5.574374,8.279792,990.64484,5.710602043750617,990.6448151376624,0,0
19.86,0.48731327,5.6649379999999985,8.076216,990.64996,5.710551174767631,990.6447466634302,0,0
19.88,0.41087097,5.6411050000000005,7.9957337,990.6374,5.710304710867769,990.64465971161,0,0
19.9,0.4348067,5.703069,8.185113000000001,990.6474,5.710284301823016,990.6445927460201,0,0
19.92,0.4205041,5.6554027,8.28454,990.6574,5.71057620701418,990.644579681339,0,0
19.94,0.3918621,5.6554017,7.943666,990.6574,5.710559853638313,990.644614290534,0,0
19.96,0.37277734,5.6697006,8.222999999999999,990.6348,5.7107618315240725,990.6446095397728,0,0
19.98,0.32979584,5.5553019999999975,8.189861,990.6599,5.710961885675387,990.644660387657,0,0
20.0,0.3776307,5.7316637,7.877393700000002,990.6674,5.710842629499288,990.644787179452,0,0
20.02,0.26773196,5.5553,8.341369,990.6674,5.711015917243482,990.6449806188358,0,0
20.04,0.29166776,5.6220317,8.166199,990.6851,5.711224851370004,990.6452959716477,0,0
20.06,0.4350987,5.6077309999999985,8.114124,990.62213,5.711369578843603,990.6454912198942,0,0
20.08,0.3873328,5.664928400000001,8.057315,990.6523,5.7114240581250835,990.6456882528532,0,0
20.1,0.5403233000000001,5.70306,7.8584723,990.62726,5.7111237608560375,990.6457960094658,0,0
20.12,0.29659240000000003,5.583895,8.170947,990.6548,5.710877469163092,990.6459236375744,0,0
20.14,0.22492756,5.5457616,8.260902999999999,990.6447,5.710786186116713,990.646032004676,0,0
20.16,0.3922575,5.683992,8.043125,990.64984,5.710633354294702,990.64614146663,0,0
20.18,0.43053275,5.7125897000000005,8.090472,990.6372,5.710544571215296,990.6462059979326,0,0
20.2,0.41145027,5.6839900000000005,8.099944,990.61707,5.7104929152773245,990.6461581281993,0,0
20.22,0.3541317,5.6220236,7.9910564,990.6523,5.710210590507928,990.6461379412412,0,0
20.24,0.29942155,5.5505776,8.028736,990.63226,5.709700961067842,990.6460701434564,0,0
20.26,0.3949682000000001,5.5791783,8.166029,990.63464,5.709268005604134,990.6459690888177,0,0
20.28,0.4666158,5.655444,8.033462,990.6499,5.70877491401227,990.6458939482187,0,0
20.3,0.40921795,5.7126436,8.109208,990.65497,5.708422152231793,990.6458602277721,0,0
20.32,0.37570053,5.626847,8.21336,990.63715,5.7082678879952224,990.6457990755656,0,0
20.34,0.45691085,5.6602144,8.066589,990.6348,5.708085667541301,990.6457054448038,0,0
20.36,0.3564855,5.5601172,7.9482244999999985,990.6472,5.707550142922707,990.6456280930612,0,0
20.38,0.5332887,5.6411505,8.18494,990.66504,5.70722066322687,990.6456296279266,0,0
20.4,0.4472028,5.6316185,8.184936,990.63226,5.707054385571528,990.6455828534732,0,0
20.42,0.34200072,5.5458217,8.094977,990.6373,5.706769310256088,990.6455117052935,0,0
20.44,0.4375505,5.617321,8.052363,990.622,5.706399814864013,990.645364196623,0,0
20.46,0.36580092,5.5505910000000025,8.123375999999999,990.64984,5.705993590902232,990.6452499708536,0,0
20.48,0.30839998,5.502926,8.113902000000001,990.64484,5.705480298681523,990.645147565069,0,0
20.5,0.43740207,5.421896,8.241726,990.6675,5.705011689781813,990.6451375480832,0,0
20.52,0.3847748,5.5744267,8.009736,990.6524,5.704358196443857,990.6451548419016,0,0
20.54,0.42296374,5.5267625,8.203842,990.6447,5.703823630965908,990.6451684852887,0,0
20.56,0.62366605,5.6745267,8.156493,990.6372,5.703510227665657,990.6451518540384,0,0
20.58,0.34160817,5.5410647000000015,8.170691999999999,990.65,5.70323227513439,990.6451546119913,0,0
20.6,0.40848213,5.4886336,8.331658000000001,990.62976,5.703209332172777,990.6451016283153,0,0
20.62,0.22201721,5.364704,8.137542999999999,990.6349,5.7029210559602594,990.645018086077,0,0
20.64,0.3414628,5.4219040000000005,8.184882,990.62463,5.702554086397012,990.6448708710452,0,0
20.66,0.5182692,5.569669,8.194347,990.6324,5.7023221901409125,990.6446958967076,0,0
20.68,0.48476112,5.56967,8.203811,990.64496,5.702223211858747,990.644542240155,0,0
20.7,0.3747731,5.393308599999999,8.312697,990.6324,5.702217990973983,990.6443627571604,0,0
20.72,0.4464299,5.450508,8.227474,990.6324,5.70221893230649,990.6441611000604,0,0
20.74,0.35594386,5.398068,8.137551,990.6397,5.70200181442234,990.6439668558867,0,0
20.76,0.37981075,5.4314345999999984,8.303252,990.64246,5.701920187787841,990.6437897970537,0,0
20.78,0.32719654,5.4028363,8.255905,990.62463,5.701839851358521,990.6435643725991,0,0
20.8,0.37018484,5.4266695999999985,8.369529,990.63745,5.701988864429767,990.64334317581,0,0
20.82,0.5183202,5.5315347,8.236961,990.63226,5.702243910781249,990.6431078268944,0,0
20.84,0.52306795,5.526769,8.2369585,990.6319,5.702586729856447,990.6428595244156,0,0
20.86,0.3031627,5.3837733,8.218017999999999,990.6447,5.702789895634044,990.6426467500572,0,0
20.88,0.35092866,5.3885407,8.317436,990.62476,5.703050667599019,990.642394350334,0,0
20.9,0.3317752,5.326576,8.402654,990.6775,5.703439622136765,990.6422977102774,0,0
20.92,0.32218128,5.326577,8.232211,990.60474,5.7036416198581685,990.6420771113665,0,0
20.94,0.46076137,5.4266760000000005,8.165927,990.6223,5.703688069243458,990.6418109925676,0,0
20.96,0.5324241999999999,5.507707599999999,8.090173,990.6148,5.703567850492678,990.6414786104241,0,0
20.98,0.53238994,5.474343,8.539938000000001,990.6625,5.704041526314511,990.6412605945642,0,0
21.0,0.3507275,5.398079,8.279544,990.6372,5.704481602469374,990.6410533376101,0,0
21.02,0.4558468,5.455278400000001,8.393165,990.6474,5.7051618137085365,990.64089305335,0,0
21.04,0.33153975,5.345649,8.289005,990.62964,5.705736210114861,990.6407109151857,0,0
21.06,0.29326707,5.2264852999999984,8.227455,990.6221,5.705971359647921,990.640482978609,0,0
21.08,0.4605260000000001,5.336117,8.109093,990.6345,5.705836562393035,990.640260035127,0,0
21.1,0.52262706,5.4838809999999985,8.2511215,990.612,5.705796944736598,990.6399613061396,0,0
21.12,0.32184744,5.464815,8.15643,990.6524,5.7056381947619705,990.6397421285043,0,0
21.14,0.37438893,5.393318,8.65354,990.66504,5.706165241840103,990.6396395354833,0,0
21.16,0.22139876,5.3647194,8.085407,990.63214,5.706261924104103,990.6395218859624,0,0
21.18,0.38388002,5.4076195,8.388407,990.6148,5.706563951350455,990.6393289320557,0,0
21.2,0.33127433,5.345655000000002,8.307919,990.60455,5.706832154919299,990.6390332338284,0,0
21.22,0.35035503,5.312289700000001,8.331588,990.61456,5.707074892876723,990.6386838512332,0,0
21.24,0.428936,5.3646703,8.274967,990.62476,5.707260617033768,990.6383250109076,0,0
21.26,0.40030795,5.4600005,8.237097,990.612,5.707435563873438,990.6379131695568,0,0
21.28,0.31432217,5.3599014,8.355462,990.63464,5.707686283086463,990.6375374831288,0,0
21.3,0.38606685,5.5219625999999975,8.251309,990.64984,5.7080118535869575,990.6372498156613,0,0
21.32,0.19492854,5.355132599999999,8.506972,990.6548,5.708647645179628,990.6370588133512,0,0
21.34,0.3861683,5.393264,8.398085,990.6198,5.709418394920433,990.6368279119816,0,0
21.36,0.34320074,5.4123287000000015,8.203978999999999,990.6397,5.7099860387158525,990.6366342270484,0,0
21.38,0.28111094,5.259797,8.194514,990.6045,5.710178743895,990.6363474038237,0,0
21.4,0.28594464,5.3694267,8.402833,990.63214,5.71052705278048,990.636078820169,0,0
21.42,0.36724883,5.479057,7.995678999999999,990.62726,5.710437544681691,990.6358097518988,0,0
21.44,0.26214385,5.378957700000001,8.256076,990.62994,5.710288717723122,990.6355508720687,0,0
21.46,0.22872965,5.369424,8.4407215,990.63995,5.710398166631006,990.6353379627112,0,0
21.48,0.2717986,5.4552197,8.364975999999999,990.63983,5.710701893594048,990.6351660073371,0,0
21.5,0.30052817,5.4552190000000005,8.052508999999999,990.6324,5.710637272629706,990.6350041099423,0,0
21.52,0.35315996,5.469517,8.189812,990.6171,5.710504303777992,990.6347966026084,0,0
21.54,0.3054126,5.4504504,8.213489,990.62213,5.710327099847037,990.6345676493588,0,0
21.56,0.29112393,5.4933476,8.298713000000001,990.6574,5.710307371001233,990.6344475427296,0,0
21.58,0.24815325,5.4218483,8.336592999999999,990.64984,5.710408745195335,990.6343968293584,0,0
21.6,0.2529838,5.4027805,8.057267999999999,990.61707,5.710110874624068,990.6342896424376,0,0
21.62,0.4107681,5.498111,8.066741,990.6475,5.7095996877682245,990.634242489362,0,0
21.64,0.3964762,5.5410085,8.374481,990.65,5.7094808808545485,990.6342575519425,0,0
21.66,0.31527025,5.5219407,8.166172999999999,990.6372,5.709321509879413,990.6342814540517,0,0
21.68,0.39179784,5.5267067,8.142505,990.6348,5.709097427859602,990.6343044407208,0,0
21.7,0.41096783,5.5028725,8.346088,990.6097,5.70914247590183,990.634236175755,0,0
21.72,0.30108303,5.5457697,8.118841,990.6298,5.709074683291364,990.6341598865984,0,0
21.74,0.21769969,5.4743237,8.061834,990.6246,5.708721380687681,990.6340580619079,0,0
21.76,0.23678555,5.3646936,8.421646,990.62225,5.708617471840394,990.6339255805887,0,0
21.78,0.23197247,5.4266596,7.990812299999999,990.6249,5.7080568629490935,990.6337760280046,0,0
21.8,0.45659226,5.445727,8.468985,990.6447,5.707961506690121,990.6336832096408,0,0
21.82,0.5139099,5.5553584,8.222792,990.6246,5.707981883815775,990.6335684957796,0,0
21.84,0.43261766,5.588725599999999,8.142303,990.6122,5.707997254507027,990.6333902080272,0,0
21.86,0.43736196,5.5362945,8.189645,990.61456,5.708028533013388,990.6331648842199,0,0
21.88,0.3369506,5.5076957,8.142298,990.61957,5.707950837680789,990.632916846521,0,0
21.9,0.28911924,5.4123660000000005,8.289060000000001,990.6397,5.707918283251313,990.6327220997624,0,0
21.92,0.42292273,5.5458300000000005,8.31273,990.63983,5.708129422570694,990.6325756099676,0,0
21.94,0.31772703,5.5267644,8.085474000000001,990.62225,5.708133618203233,990.632408999389,0,0
21.96,0.4419664000000001,5.560131,8.1659565,990.6348,5.708142041181186,990.6322703898836,0,0
21.98,0.39891273,5.6030316,8.137547,990.6447,5.708152017734399,990.6321926611216,0,0
22.0,0.48013383,5.612565,8.16595,990.622,5.708230630844714,990.6320872864073,0,0
22.02,0.37016505,5.6411653,8.227494,990.612,5.708498816274407,990.6319218630783,0,0
22.04,0.39880836,5.6125665,8.090193,990.64734,5.7086673831548325,990.631831200318,0,0
22.06,0.28405756,5.5410695,8.222754,990.61456,5.708882560554208,990.6316889143816,0,0
22.08,0.45131737,5.6840671999999985,8.132796,990.62714,5.709165040408719,990.6315468144368,0,0
22.1,0.37002528,5.5029387000000005,8.227481,990.6321,5.709448976749783,990.6314232463933,0,0
22.12,0.50382423,5.541072,7.97182,990.62726,5.709351569578332,990.6312990739833,0,0
22.14,0.49423134,5.593505,8.019161,990.63226,5.70905937400846,990.6311928145752,0,0
22.16,0.40815938,5.5124745000000015,8.113846,990.6497,5.708654413009016,990.6311655496298,0,0
22.18,0.5037199,5.6602387,8.289016,990.6472,5.708633689412324,990.6311991823454,0,0
22.2,0.479792,5.550608,8.284279,990.602,5.70881445110483,990.6311237831565,0,0
22.22,0.46541262,5.598275,8.213258999999999,990.6422,5.709104423431777,990.6310970348137,0,0
22.24,0.33676893,5.460035,8.104403999999999,990.62976,5.709130790121385,990.6310685866526,0,0
22.26,0.42278874,5.5315332,8.085465,990.617,5.708981939389019,990.6309928029456,0,0
22.28,0.34151536,5.421903,8.132808,990.61707,5.708626260272694,990.6308757183716,0,0
22.3,0.3988542,5.479101999999999,8.374262,990.63715,5.708577511445835,990.630794849856,0,0
22.32,0.5135516999999999,5.5935,8.085462,990.622,5.708446180179843,990.6306917329756,0,0
22.34,0.42271882,5.4362044,8.454742999999999,990.63214,5.708690089140313,990.630605832662,0,0
22.36,0.3366657,5.431438,7.967098,990.6246,5.708407810665983,990.630508310147,0,0
22.38,0.3653257,5.393306,8.355317999999999,990.6422,5.708291946414224,990.6304642293362,0,0
22.4,0.45134437,5.498171,8.08072,990.63226,5.707975908385593,990.6304317443062,0,0
22.42,0.4417681,5.5029373,8.147001,990.6474,5.707602693145501,990.630464126254,0,0
22.44,0.43697053,5.460039,8.260625,990.63715,5.707326537438204,990.6305168080887,0,0
22.46,0.4034986,5.4791055,8.374249,990.61456,5.707353102550687,990.6305059132487,0,0
22.48,0.4703936,5.555371,8.270091,990.6397,5.707560376673317,990.6305293852803,0,0
22.5,0.4799366,5.545838400000001,8.203807000000001,990.63464,5.707802348656843,990.6305649233806,0,0
22.52,0.3030672,5.440974,8.146993,990.62964,5.707840116730447,990.6305929951218,0,0
22.54,0.31260794,5.431442,8.312695,990.6271,5.7079742466066445,990.63060522453,0,0
22.56,0.29347098,5.4695745,8.033363,990.63464,5.707752992603679,990.6306305556263,0,0
22.58,0.24087648,5.374244,8.289019999999999,990.6422,5.707548349275235,990.6306945881832,0,0
22.6,0.32211643,5.569673000000001,8.090173,990.6497,5.707246021393025,990.6308195868328,0,0
22.62,0.4320376,5.512475,8.516269,990.63214,5.707537200688687,990.6309347891272,0,0
22.64,0.24082763,5.469576,8.023888000000001,990.62976,5.70743701363695,990.6310323526334,0,0
22.66,0.46545625,5.460044,8.057028,990.6019,5.707054120853544,990.6310136832781,0,0
22.68,0.32204545,5.517243,8.520997999999999,990.6523,5.707279942712697,990.6310738177756,0,0
22.7,0.32203215,5.531543,8.445246000000001,990.6347,5.707927152210831,990.6311400068739,0,0
22.72,0.32679087,5.5077105,8.255867,990.6424,5.7085891987853,990.6312390275364,0,0
22.74,0.35229522,5.5172043,8.1755295,990.6296,5.709136201630892,990.6313206216948,0,0
22.76,0.32845485,5.498137,8.469069000000001,990.61975,5.710064502396849,990.6313510640547,0,0
22.78,0.30937964,5.5744,7.990898,990.62726,5.710589418020673,990.6313632350937,0,0
22.8,0.52928585,5.5076675,8.677389,990.6474,5.711885254583591,990.6314317217772,0,0
22.82,0.4050696,5.541032,8.175548,990.61475,5.713012369756711,990.6314321824124,0,0
22.84,0.5723979,5.7316933,8.085598,990.6449,5.714075531509949,990.6314810735727,0,0
22.86,0.5963409000000001,5.5982285,8.667933,990.62213,5.71592683481872,990.6314906099376,0,0
22.88,0.7397819999999999,5.888988,8.0666685,990.61725,5.717800927567279,990.6314477700737,0,0
22.9,0.30487555,5.550561,8.398082,990.61456,5.7198054287661035,990.6313491207973,0,0
22.92,0.12328993,5.407563,8.350742,990.6249,5.7216648786585305,990.631238737462,0,0
22.94,0.31451726,5.398029,8.10929,990.61475,5.722968037116308,990.6310818432919,0,0
22.96,0.41972876,5.4647593,7.6784644,990.6248,5.7231248283549645,990.6309205969676,0,0
22.98,0.7878175999999999,5.664953700000001,7.678468,990.61206,5.722560363533659,990.6307102215663,0,0
23.0,0.85478765,5.836549,7.882053,990.64233,5.721922696190706,990.6305661650639,0,0
23.02,1.2324361,5.788882,8.232403,990.63226,5.721834174527578,990.6304449745444,0,0
23.04,1.2037924999999998,6.1177735,7.8157787,990.62463,5.72193808318874,990.6303169566928,0,0
23.06,0.87403005,5.393256,8.256082000000001,990.64734,5.722008106286218,990.6302651230754,0,0
23.08,1.1417489,6.0272064000000025,7.924678299999999,990.6098,5.7223001364831525,990.6301456484478,0,0
23.1,0.874124,5.5743823,8.199278,990.6525,5.722645210737685,990.6301205563324,0,0
23.12,-0.22995214,5.8603745,7.6169515,990.6449,5.7223293866471385,990.6301515909364,0,0
23.14,0.0568801,5.5076480000000005,8.596978,990.62476,5.722671162854789,990.630159603385,0,0
23.16,0.38195372,5.1167893,8.914186500000003,990.6449,5.723749412211366,990.6302197486124,0,0
23.18,0.15256123,5.898504,7.730589,990.64246,5.7243099027097415,990.6303169578406,0,0
23.2,0.22909673,5.069121400000001,7.782673,990.61975,5.723508146990273,990.6303648108662,0,0
23.22,-0.3444474,4.940424,7.280829,990.60205,5.720496983102793,990.6303051604808,0,0
23.24,0.19093753,5.4218449999999985,7.934181,990.6348,5.717219998417741,990.630268634822,0,0
23.26,0.22922285,5.5696062999999985,8.365016,990.6072,5.714635550047247,990.6301533136647,0,0
23.28,0.32964570000000004,5.8603654,8.090425,990.6373,5.7125542407323335,990.6300771439612,0,0
23.3,0.6594960999999999,5.707835,8.270337,990.63495,5.711080916708295,990.6300273826926,0,0
23.32,0.5926258000000001,6.074858,7.6311965,990.602,5.709529734086297,990.629882515058,0,0
23.34,0.5209728,5.378939599999999,8.492863,990.6147,5.708527495584248,990.6296998529621,0,0
23.36,0.411093,5.76503,7.744831,990.6221,5.707176828794355,990.6295110932632,0,0
23.38,0.32987452,5.5362344000000006,8.615965,990.65515,5.706734777252282,990.6294366052575,0,0
23.4,0.38249928,5.8651257,8.270358,990.602,5.706888359885673,990.6292720158772,0,0
23.42,0.1483358,5.5934305,8.521286,990.6148,5.7076674193801065,990.6290744854433,0,0
23.44,0.13882019,5.941388,8.033646000000001,990.59424,5.708578127380703,990.6287745434039,0,0
23.46,0.18666516,5.4837976,8.099932,990.6349,5.709166454410826,990.628531566262,0,0
23.48,0.086339116,5.459964,7.796934599999997,990.60443,5.7089181151678074,990.6282301060209,0,0
23.5,0.24889351,5.6220255,8.265645,990.6296,5.708930148452673,990.6279686673699,0,0
23.52,0.2871818,5.5505257000000015,8.237242,990.62476,5.709042194146553,990.6277261089757,0,0
23.54,0.12471248,5.5505247,8.29406,990.5994,5.709333238722683,990.6274098103861,0,0
23.56,0.65053785,5.5600567000000005,7.9673896,990.5947,5.709275587160579,990.6270125736348,0,0
23.58,0.6219060000000001,5.8174496,8.071551,990.61206,5.709391271140448,990.6266077459766,0,0
23.6,0.23001774,5.6696849999999985,8.327214,990.60706,5.709883795853647,990.6261796683722,0,0
23.62,0.25873470000000004,5.9413776,7.901121000000002,990.5818,5.7103175516194264,990.6256416521946,0,0
23.64,-0.06624796,5.312191,8.705973,990.64233,5.71134170758983,990.6252263391524,0,0
23.66,0.23014383,5.3836884000000005,9.1557455,990.64215,5.713766937756747,990.6249202937273,0,0
23.68,0.75849414,6.3990192000000015,7.687878599999999,990.55695,5.71618989878024,990.6244051789321,0,0
23.7,0.09410027,5.7555337,8.379102,990.62726,5.718881852365223,990.6239603008548,0,0
23.72,-0.16401051,5.6792690000000015,7.285454,990.5972,5.719875356698457,990.6234708695027,0,0
23.74,0.10843693,5.760300599999999,8.128178,990.6296,5.720869240023034,990.6230604728296,0,0
23.76,-0.054077677000000005,5.6602035000000015,7.6215963,990.60187,5.7208845054223545,990.6226215606276,0,0
23.78,-0.087537676,5.8127330000000015,8.000347999999999,990.62463,5.720857632361957,990.6222409681874,0,0
23.8,-0.006282449,5.6506696,7.716284299999999,990.6295,5.720117315063423,990.6219308092217,0,0
23.82,-0.011063531,5.8746977,7.896191,990.6221,5.7193266511796494,990.6216573618464,0,0
23.84,-0.13533979999999998,5.903298,7.801503,990.6097,5.7183745355650535,990.621372697243,0,0
23.86,0.008053035,5.95573,8.104505,990.6198,5.717851268646356,990.6211155058894,0,0
23.88,-0.14968185,5.874698,7.7872996,990.60223,5.7170817889774375,990.620820263788,0,0
23.9,-0.22616008,5.9414306,7.8725185,990.60474,5.7163254604013325,990.6205014989177,0,0
23.92,-0.101886466,6.1368594000000005,8.166052,990.6174,5.716310852702812,990.620208672882,0,0
23.94,-0.32175887,5.779367400000001,8.663164,990.6123,5.7173746578248945,990.6199214605748,0,0
23.96,-0.02541241,6.1082597000000005,7.3280616,990.59186,5.717560645122408,990.6195666585218,0,0
23.98,0.05106306,6.0367612999999976,7.517438,990.60187,5.717181079135777,990.6191894474573,0,0
24.0,0.16577716,6.194058,7.119748,990.5896,5.71588132678463,990.6187496217494,0,0
24.02,0.3665275,6.0415277000000005,7.441687599999999,990.6022,5.714093010884034,990.618301413116,0,0
24.04,0.31872815,5.946197,6.8451520000000015,990.6122,5.710799495169263,990.6178834108804,0,0
24.06,0.6341939,6.213124,7.8299084,990.63995,5.708147534832442,990.6175935038252,0,0
24.08,0.57683486,6.3942533,7.7020793,990.6072,5.7060957125757295,990.617299925338,0,0
24.1,0.3187241,6.0796604000000025,8.232332000000001,990.6224,5.705021939247454,990.6170588796556,0,0
24.12,0.74412525,6.503885,8.014549,990.6223,5.705043604294307,990.6168647597236,0,0
24.14,0.1418686,6.189292,7.531639999999999,990.60706,5.704788579136022,990.6166579382167,0,0
24.16,0.14143096,6.227434,7.394302400000001,990.60474,5.704121250854971,990.6164322861557,0,0
24.18,0.13185234,6.3037,7.4463789999999985,990.5971,5.703276682733139,990.6161633037642,0,0
24.2,0.23221038,6.3037004,7.640488,990.5946,5.702591928752674,990.6158480030297,0,0
24.22,0.031440765,6.151171,7.659424,990.6273,5.701875682577925,990.6156106304898,0,0
24.24,0.15569548,6.284635,7.844063799999999,990.6223,5.701609521182133,990.6154249698436,0,0
24.26,0.14611803,6.151172,7.8487973,990.6349,5.7015771585583686,990.6153310302052,0,0
24.28,0.5667229,6.637361500000001,7.403761,990.5995,5.701723294157566,990.6151910334323,0,0
24.3,0.1890982,6.346602,7.2049146,990.60724,5.7012865746513475,990.6150387085628,0,0
24.32,0.3420341,6.3990345,7.3327417,990.61456,5.700616653384185,990.6149023909579,0,0
24.34,-0.078607686,5.941446,7.493709599999999,990.62225,5.699380081877807,990.6148083921146,0,0
24.36,0.14602526,6.2655716,7.408488799999999,990.6298,5.697938721666745,990.614779304525,0,0
24.38,0.5427299,6.5182,7.6688795,990.6223,5.697102081989608,990.6147806772343,0,0
24.4,0.24636309,6.3466043,7.470032700000001,990.60956,5.696232934551263,990.6147630957228,0,0
24.42,0.21766524,6.370437,7.896127000000001,990.6374,5.6960504077627565,990.6148290535539,0,0
24.44,0.3610415,6.489602,7.4747634,990.6198,5.6959713773717535,990.6149052293013,0,0
24.46,0.03121601,6.2560410000000015,7.3658705,990.62726,5.695482529925476,990.6150170153658,0,0
24.48,0.27974683,6.2894073,7.427416,990.61475,5.694783993632039,990.6151148282772,0,0
24.5,0.36098439,6.34184,7.451086,990.6147,5.694016206594617,990.6151997623838,0,0
24.52,0.370525,6.3895063,7.4274125,990.5946,5.693217741656486,990.6152006510158,0,0
24.54,0.03591974,6.2417436,7.2617064,990.6097,5.691919244638635,990.6151816338677,0,0
24.56,0.38004655,6.360908,7.290111,990.5921,5.690405735188253,990.6150817364332,0,0
24.58,0.28443384,6.327542,7.522095699999999,990.6022,5.689021789145875,990.6149470928093,0,0
24.6,0.36567152,6.4085736,8.057082000000001,990.6198,5.688729640884197,990.6148455921688,0,0
24.62,0.814954,6.4943724000000005,8.147034,990.60205,5.689713250648223,990.6147098420712,0,0
24.64,0.48034877,6.370442400000001,7.4510746,990.5946,5.6904992364864375,990.6145174978537,0,0
24.66,0.13253008,6.036756,7.6263485,990.587,5.6909258366046656,990.6142484795108,0,0
24.68,0.13733648,6.0081563,7.834664999999997,990.6171,5.6913384766123185,990.6140210403764,0,0
24.7,0.060886264,6.0176883000000005,7.5269309999999985,990.6273,5.691244308992276,990.6138678794124,0,0
24.72,0.056131437,5.984322,7.806263,990.6299,5.691117010246379,990.6137902620185,0,0
24.74,-0.029878423,5.8460913,7.8299375,990.6072,5.690826549222013,990.6136979543455,0,0
24.76,0.16612016,5.998621,8.014582,990.64746,5.690892933374449,990.6137379346504,0,0
24.78,0.08966996,5.8699226,7.9814440000000015,990.61957,5.6910576639604225,990.6137942566831,0,0
24.8,0.15183069,5.779358,8.095072,990.61224,5.691391055948638,990.6138384275073,0,0
24.82,0.42908758,5.9080544,7.8204784,990.5896,5.6915877131006525,990.613790198508,0,0
24.84,0.36697513,5.855621299999999,7.7684026,990.60455,5.691505669251742,990.6137143186501,0,0
24.86,0.18059106,5.8413214999999985,7.739998299999999,990.6248,5.691101743048723,990.61368717966,0,0
24.88,0.34790915,5.965251,7.934111,990.61725,5.690901267096401,990.613676025802,0,0
24.9,0.30013776,6.031982,7.976723,990.6045,5.691032192924977,990.6136331365601,0,0
24.92,0.032497033,5.817486,8.090351,990.63464,5.691371688098544,990.6136708643344,0,0
24.94,0.22849561,5.8746839999999985,8.08562,990.61975,5.6919612440710745,990.613726085484,0,0
24.96,0.11858179,5.8460839999999985,7.910448599999999,990.59955,5.69243687112969,990.613723844984,0,0
24.98,0.32414168,5.8603830000000015,8.009872999999999,990.6145,5.693003722916704,990.6137246594363,0,0
25.0,0.3002693,5.803184,7.801563000000002,990.5994,5.693228781780809,990.6136738103123,0,0
25.02,0.33375287,5.7316847,7.773158,990.5895,5.693017480853858,990.6135418543092,0,0
25.04,0.4580527,5.874681,8.156647999999999,990.62964,5.693250290576719,990.6134832113097,0,0
25.06,0.3959419,5.9938445,7.8489137000000015,990.63226,5.693503275565645,990.6134989907944,0,0
25.08,0.3577301,5.8699136,8.000416,990.61975,5.693867812962577,990.6135354371801,0,0
25.1,0.41511607,5.9700102999999975,8.066701,990.6323,5.694568374044354,990.6136351936328,0,0
25.12,0.36256486,5.8985114,7.53645,990.6022,5.694592694206159,990.6136821717372,0,0
25.14,0.22875361,5.807946,7.948345,990.61224,5.694579974674557,990.613718489772,0,0
25.16,0.23833822,5.793646,7.8962693,990.6173,5.694430187240775,990.6137634738243,0,0
25.18,0.15675332,5.7269225,8.17557,990.62213,5.69454735678049,990.6138333412274,0,0
25.2,0.24280246,5.960483,7.668989,990.60974,5.694344742133515,990.6138803400363,0,0
25.22,0.44834667,6.0033817,8.274994,990.61224,5.69493525060801,990.6139159629596,0,0
25.24,0.2810647,5.9986153,8.009869,990.6122,5.695762757086165,990.6139412619079,0,0
25.26,0.42447233,5.9843150000000005,7.8773065,990.612,5.696569545085963,990.613956627516,0,0
25.28,0.4531638,6.0653462,7.877307400000001,990.6372,5.697459976407437,990.614053880708,0,0
25.3,0.36713928,5.903283,7.934121,990.6122,5.6983046705558165,990.6141331396581,0,0
25.32,0.29067582,5.946182,7.929388499999999,990.61975,5.699146086927202,990.6142233935634,0,0
25.34,0.3623848,5.998613400000001,7.9672649999999985,990.59955,5.700114801962407,990.6142503176976,0,0
25.36,0.33849847,6.0844115999999975,7.8820467,990.5895,5.7011580453349175,990.6141850067185,0,0
25.38,0.5201437,6.1082435,8.0666895,990.62225,5.7026141648902895,990.6141563319133,0,0
25.4,0.35286403,6.041511,7.834705,990.6198,5.7039478267252415,990.6141513120607,0,0
25.42,0.4054522,6.155908599999999,7.740017999999999,990.63226,5.705164337899591,990.6142120677953,0,0
25.44,0.43414444,5.974779,7.882051,990.61224,5.706277754374383,990.6142586521183,0,0
25.46,0.45805538,5.9557123,7.8867865,990.62225,5.707282263061018,990.6143285828787,0,0
25.48,0.38637102,5.9700120000000005,7.3139243,990.5946,5.707263031969001,990.6143193508,0,0
25.5,0.6205940999999999,6.127308,7.7731633,990.60956,5.707312432013085,990.6142940596727,0,0
25.52,0.4246348,6.16544,7.455959,990.6072,5.706938048956412,990.6142461738176,0,0
25.54,0.41986686,6.1797394999999975,7.8441815,990.6022,5.706836133773308,990.61416049565,0,0
25.56,0.094852895,5.993843599999999,7.8063073,990.5871,5.706658595298466,990.6139873726372,0,0
25.58,0.17134164,6.022443,7.6690106,990.6273,5.706228117248869,990.6138823266014,0,0
25.6,0.44380397,6.3513346,7.545917500000002,990.62476,5.705826092353273,990.6138286675483,0,0
25.62,0.3004217,6.170205,7.5553875,990.6122,5.705214386581596,990.6137753912061,0,0
25.64,0.3673525,6.2226370000000015,7.3518089999999985,990.6147,5.704168850615844,990.6137316448217,0,0
25.66,0.1951661,6.2274065,7.138750999999999,990.6022,5.702403953772353,990.6136514765947,0,0
25.68,0.2573111,6.0939426,7.768427,990.64496,5.700844340554059,990.613693350634,0,0
25.7,0.21430053,6.222639599999999,7.3091908,990.5945,5.698899855014447,990.6136612544726,0,0
25.72,0.30990374,6.298904,7.3944100000000015,990.60223,5.6968652219375375,990.6135917417884,0,0
25.74,0.14261772,6.1749735,7.5127716,990.5896,5.694773528094117,990.6134439501103,0,0
25.76,0.27646035,6.3465690000000015,7.612194500000001,990.6148,5.693031397485008,990.6133182431627,0,0
25.78,0.19043149,6.2750707000000014,7.607461,990.6022,5.691497785491633,990.6131671428287,0,0
25.8,0.23823668,6.2893705,7.470164,990.5946,5.689955962819147,990.6129667888596,0,0
25.82,0.24302407,6.360869,7.342335,990.61725,5.688307189076784,990.6128051756523,0,0
25.84,0.36730707,6.2798367,8.047763,990.6273,5.687603043570176,990.6127145555901,0,0
25.86,0.30039692,6.2369375,7.725823399999999,990.6122,5.687152253350197,990.6126326313027,0,0
25.88,0.36254203,6.327502,7.5033073,990.5971,5.6866944766831695,990.6125043255304,0,0
25.9,0.28129292,6.236937,7.697418700000001,990.6122,5.686417600109071,990.6123898589774,0,0
25.92,0.14268579,6.141606,7.6264033,990.60706,5.6860560960909465,990.6122695288393,0,0
25.94,0.17137219,6.089174,7.522247,990.61475,5.685385212767322,990.612172134825,0,0
25.96,0.30043405,6.141606,7.6216702,990.62213,5.684679040162264,990.6121219257888,0,0
25.98,0.34345984,6.21787,7.612201700000001,990.6122,5.6840317014559165,990.6120778421516,0,0
26.0,0.31956846,6.132072,7.422827000000002,990.60706,5.683019887482454,990.612020825618,0,0
26.02,0.25265884,6.031974,7.650078999999999,990.64496,5.681922350271143,990.6120890268364,0,0
26.04,0.23354723,5.965242,7.526985000000002,990.61475,5.680465389156447,990.6121588689367,0,0
26.06,0.16185682,5.903277,7.508048,990.61975,5.678582341471842,990.6122479094882,0,0
26.08,0.36739647,5.91281,7.915207400000001,990.61475,5.677024701391959,990.6123355932457,0,0
26.1,0.41998243,5.9795413,8.047772,990.6147,5.676068096651268,990.6124215824776,0,0
26.12,0.54904425,6.017673,8.043038000000001,990.60974,5.67569838502887,990.612487908866,0,0
26.14,0.43911594,5.9223423,7.8915377000000015,990.62476,5.675466910980719,990.6125906943912,0,0
26.16,0.39050853,5.8842297,8.251278999999998,990.6449,5.675910460741607,990.6127978291812,0,0
26.18,0.4335109,5.888997,8.000353,990.6198,5.676536350660427,990.6130060612967,0,0
26.2,0.4191367,5.831799,8.27968,990.61206,5.677721152922858,990.6131866493733,0,0
26.22,0.38087445,5.860399,8.218131,990.61475,5.679322454912605,990.6133518450599,0,0
26.24,0.34261220000000003,5.846099400000001,8.123441,990.5997,5.681105965019246,990.6134486653267,0,0
