Timestamp,Ax,Ay,Az,P,Value,Type
0.0,0.8781869000000001,6.337753,8.570605,991.0454,0,0
0.04,0.25673997,6.0088625,8.130299,991.0529,0,0
0.08,0.29495429999999995,5.98503,8.229719000000001,991.0957599999999,0,0
0.12,0.14670788,6.0422306,7.5100837,991.0780599999999,0,0
0.16,0.18014236,6.0565305,7.458002599999999,991.1084599999999,0,0
0.2,0.11795659,6.018399,8.153955,991.0881,0,0
0.24,0.20394476,6.056533,7.737323299999999,991.0804400000001,0,0
0.28,0.21345605,5.956436599999999,7.590553,991.05536,0,0
0.32,-0.07818446,5.713343599999999,7.5810770000000005,991.0603,0,0
0.36,-0.07849086,5.63232,7.4011416,991.0704300000001,0,0
0.4,-0.021222666,6.1518774,7.950324,991.0679,0,0
0.44,-0.021222666,6.1518774,7.950324,991.0776400000001,0,0
0.48,-0.6044184,6.147112,7.3632526,991.1231,0,0
0.52,-0.5757991,6.347309,7.756203,991.1306,0,0
0.56,-0.8530873,6.080383,9.081831,991.0928,0,0
0.6,-0.681074,5.880189,9.176514,991.0924699999999,0,0
0.64,-0.60943663,6.008888,7.9834380000000005,991.1076,0,0
0.68,-0.32751757,6.0660887,8.295900999999999,991.0748,0,0
0.72,-0.16981384,6.042256,8.220148,991.08734,0,0
0.76,-0.05040821400000002,5.8944955000000006,7.988154,991.0797,0,0
0.8,-0.13169466,6.104223999999999,7.3158655,991.1025,0,0
0.84,-0.24171954,6.1042266,7.519436,991.0895,0,0
0.88,-0.16049272,6.0374956,7.296916,991.12006,0,0
0.92,-0.32306564,5.8706675000000015,8.475779,991.10974,0,0
0.96,0.37947613,6.466489299999999,7.4578724,991.0895,0,0
1.0,-0.16548115,6.132832,7.2874284,991.087,0,0
1.04,-0.16548115,6.132832,7.2874284,991.0895,0,0
1.08,-0.38066173,5.937405,7.950237299999999,991.0997,0,0
1.12,-0.5432347,5.846842,7.699308,991.0818,0,0
1.16,-0.42379922,5.918342,8.007039,991.0921,0,0
1.2,0.020662948,6.1757370000000025,7.5951405,991.0691,0,0
1.24,0.0015138984,6.2567697,7.651950999999999,991.0993699999999,0,0
1.28,-0.075052366,6.299671,7.064875999999999,991.0638,0,0
1.32,-0.2567147,6.1423755,7.140624000000001,991.0740400000001,0,0
1.36,-0.22246256,5.6942997,7.576262,991.127,0,0
1.4,-0.045633905,5.8706627000000005,7.723025999999999,991.0715,0,0
1.44,0.14554618,5.946928,7.4768357000000005,991.079,0,0
1.48,0.21242727,5.985061,7.6235990000000005,991.0638,0,0
1.52,0.48006022,6.2758217000000025,8.026019999999999,991.0989400000001,0,0
1.56,0.20280744,6.380686799999999,8.144378999999999,991.07135,0,0
1.6,0.12630646,6.2710567,8.229595,991.1015,0,0
1.64,-0.23220292,6.099461,8.224858,991.08875,0,0
1.68,-0.17963710000000002,6.0756288,8.078091,991.08636,0,0
1.72,-0.30393612,5.9850645,7.9549937,991.1139999999999,0,0
1.76,-0.3469664,5.8516015999999995,8.168041,991.0964,0,0
1.8,-0.22272766,5.789637,7.8934419999999985,991.0786,0,0
1.84,-0.16538209,5.7419715,7.9691915999999985,991.0987,0,0
1.88,0.36991984,6.1137643,7.9455160000000005,991.0835599999999,0,0
1.92,0.36034817,6.0851655,7.846092999999999,991.0609,0,0
1.96,0.45114034,6.0232005,7.7182619999999975,991.07855,0,0
2.0,0.23123322,5.8468385000000005,7.865025,991.1036,0,0
2.04,0.087815,5.913571,7.8034754,991.0832,0,0
2.08,0.2120658,6.209098,7.751395,991.1087,0,0
2.12,0.14513649,6.1900325,8.106474,991.0958,0,0
2.16,-0.18948591,6.1805,7.883953599999999,991.0731,0,0
2.2,-0.26597485,6.237699,7.5194035,991.08575,0,0
2.24,-0.25165954,6.1137695,7.64723,991.0859,0,0
2.28,-0.5002333999999999,5.832543,7.983371000000001,991.0959,0,0
2.32,-0.13699242,6.075638,7.633023,991.0986,0,0
2.36,-0.089614965,5.8134875,7.9880652,991.0986,0,0
2.4,0.12545656,5.808721,7.893374400000001,991.0629,0,0
2.44,0.51738083,6.075649299999999,7.8554974,991.0657,0,0
2.48,0.8901662,6.361644,7.722931,991.0807,0,0
2.52,0.32611,6.0041523,7.6377070000000025,991.0907599999999,0,0
2.56,-0.032414578,5.651428,7.8602214,991.0984,0,0
2.6,-0.16630809,5.7515273,7.9501696,991.08325,0,0
2.64,-0.24280459,5.732461499999999,8.17742,991.0984,0,0
2.68,-0.26676258,5.8611603,8.106398,991.0986,0,0
2.72,0.08690354,6.05659,8.565632,991.1058300000001,0,0
2.76,0.4644884,6.256786,8.882833999999997,991.10065,0,0
2.8,-0.032670162999999995,5.7896647,7.5761337,991.08795,0,0
2.84,0.12502407,5.8849974000000005,7.7513027,991.0932,0,0
2.88,0.15364386,5.7706013,7.756032,991.0930000000001,0,0
2.92,0.19184296,5.7801347000000005,7.898061,991.0779,0,0
2.96,0.31607854,6.132861599999999,7.7039466,991.0882,0,0
3.0,0.03405045,5.9803314000000025,7.9832740000000015,991.08325,0,0
3.04,-0.24319780000000002,5.7515373,8.182117,991.08545,0,0
3.08,-0.50138587,5.7944384000000015,7.3299179999999975,991.08777,0,0
3.12,-0.39147002,5.9326696,7.509823299999999,991.11316,0,0
3.16,-0.08080245,6.0280010000000015,8.186841000000001,991.1030000000001,0,0
3.2,-0.028283588999999998,5.8564067,7.817552,991.08295,0,0
3.24,-0.07134113,5.89454,7.9737839999999975,991.09045,0,0
3.28,-0.16697651,5.9755720000000005,7.41512,991.09045,0,0
3.32,0.024195954,6.109036,7.8601527,991.10815,0,0
3.36,0.12499146,6.023228,8.172661999999999,991.08545,0,0
3.4,0.19666822,6.137626,7.954878,991.09784,0,0
3.44,0.17753886,6.047062,8.054299,991.0953400000001,0,0
3.48,-0.09016059,5.9707975,7.580856,991.10046,0,0
3.52,0.22528617,6.1233273,7.8980594,991.1031,0,0
3.56,0.024524242,5.9707985,8.115841,991.0852,0,0
3.6,-0.05676286,5.8230357,7.8838515,991.0726300000001,0,0
3.64,0.1439686,6.0947294,7.2399710000000015,991.1108,0,0
3.68,0.07226139,6.123329,7.28258,991.1005,0,0
3.72,-0.047253996,6.123329599999999,7.680267999999999,991.0777,0,0
3.76,0.062661186,6.218662,7.6565943,991.1029699999999,0,0
3.8,0.09609954,6.2472615,7.978532,991.0804,0,0
3.84,0.06741054,6.2281949999999995,7.651857400000001,991.0777,0,0
3.88,-0.19071913,5.8278055,7.372525,991.0903300000001,0,0
3.92,-0.07124432,5.942203,7.434071,991.11316,0,0
3.96,-0.037805997,5.8659387,8.17737,991.1031,0,0
4.0,-0.06651527,6.1709986,7.609239,991.09283,0,0
4.04,-0.16691142,6.0232363,7.874364,991.10815,0,0
4.08,-0.0952245,6.01847,7.9927235,991.0652,0,0
4.12,-0.30556634,5.7849092,7.7370625,991.1030000000001,0,0
4.16,-0.24343903,5.7420106,7.874358999999999,991.0930000000001,0,0
4.2,-0.12873389,5.8087425,7.964312599999999,991.0852,0,0
4.24,-0.10965527,6.028005,8.016386,991.1030000000001,0,0
4.28,-0.28175864,6.056605,7.789132,991.09045,0,0
4.32,-0.21008188,6.0280059999999995,8.0826645,991.1131,0,0
4.36,-0.15752432,5.880244,8.333586,991.08777,0,0
4.4,-0.15752432,5.880244,8.333586,991.0829,0,0
4.44,0.11011423,5.970809,7.7938604000000025,991.0576,0,0
4.48,0.25348806,6.004175,7.718108,991.07526,0,0
4.52,0.19134043,6.018475,7.561872,991.0953400000001,0,0
4.56,0.014457256000000003,5.9279113,7.3535557,991.09283,0,0
4.6,0.04789558,5.8087480000000005,7.4245696,991.0930000000001,0,0
4.64,-0.01904191,5.7515497,7.6660223,991.1005,0,0
4.68,-0.11464817,5.75155,7.850663000000001,991.1005,0,0
4.72,-0.02863197,5.9136133,8.040037,991.0981,0,0
4.76,-0.0668907,5.718185,8.139458,991.09283,0,0
4.8,-0.014343321000000001,5.54659,8.5040045,991.0981,0,0
4.84,-0.05738184,5.694354,8.13472,991.08545,0,0
4.88,-0.0860708,5.7181864000000004,8.182062,991.08826,0,0
4.92,-0.01917386,5.5656576,7.7228227,991.0880000000001,0,0
4.96,0.028603896,5.713421299999999,7.7228208,991.0981,0,0
5.0,0.052482635,5.6514564000000025,8.134713,991.0779,0,0
5.04,-0.1530692,5.336864,8.707573,991.0678,0,0
5.08,-0.4446575,5.427429,8.338288,991.08276,0,0
5.12,-0.41121924,5.6466913,8.196255,991.1157,0,0
5.16,-0.61198115,5.384531,8.688630999999999,991.10345,0,0
5.2,-1.1091010000000001,4.845911,9.933778,991.06287,0,0
5.24,-0.60247225,5.322566999999999,7.618651400000001,991.0702,0,0
5.28,-0.52099633,5.179565,8.016361,991.12085,0,0
5.32,-0.348931,5.179565,8.636567999999999,991.0980000000001,0,0
5.36,-0.057385854000000014,5.4178934000000005,7.5145116,991.0704,0,0
5.4,-0.09563954,5.322563,8.390374000000001,991.09045,0,0
5.44,0.14810754,5.5561247000000025,7.9264016,991.10315,0,0
5.48,0.14810754,5.5561247000000025,7.9264016,991.11096,0,0
5.52,-0.014421031,5.3559294,8.683905000000001,991.0882,0,0
5.56,-0.11003998,5.379762599999999,8.551338000000001,991.0933,0,0
5.6,-0.019238979,5.351164,8.21993,991.10345,0,0
5.64,0.13848694,5.3845300000000025,8.5324,991.0755,0,0
5.68,0.057207376,5.155736,8.324084,991.0830000000001,0,0
5.72,0.15279579999999998,5.217701,8.167848,991.0930000000001,0,0
5.76,0.12410174,5.2320013,8.262535,991.0930000000001,0,0
5.8,0.10018748,5.2034025,8.163111,991.08325,0,0
5.84,-0.14359783,5.1652703,8.655488,991.0906,0,0
5.88,-0.08626302,5.389298999999999,8.324077,991.10864,0,0
5.92,-0.248784,5.246302,8.622344,991.0986,0,0
5.96,-0.32527608,5.279669,8.503982,991.0833,0,0
6.0,-0.17233767,5.4655647000000025,8.485044,991.091,0,0
6.04,0.8781869000000001,6.337753,8.570605,991.0454,0,0
6.08,0.25673997,6.0088625,8.130299,991.0529,0,0
6.12,0.29495429999999995,5.98503,8.229719000000001,991.0957599999999,0,0
6.16,0.14670788,6.0422306,7.5100837,991.0780599999999,0,0
6.2,0.18014236,6.0565305,7.458002599999999,991.1084599999999,0,0
6.24,0.11795659,6.018399,8.153955,991.0881,0,0
6.28,0.20394476,6.056533,7.737323299999999,991.0804400000001,0,0
6.32,0.21345605,5.956436599999999,7.590553,991.05536,0,0
6.36,-0.07818446,5.713343599999999,7.5810770000000005,991.0603,0,0
6.4,-0.07849086,5.63232,7.4011416,991.0704300000001,0,0
6.44,-0.021222666,6.1518774,7.950324,991.0679,0,0
6.48,-0.021222666,6.1518774,7.950324,991.0776400000001,0,0
6.52,-0.6044184,6.147112,7.3632526,991.1231,0,0
6.56,-0.5757991,6.347309,7.756203,991.1306,0,0
6.6,-0.8530873,6.080383,9.081831,991.0928,0,0
6.64,-0.681074,5.880189,9.176514,991.0924699999999,0,0
6.68,-0.60943663,6.008888,7.9834380000000005,991.1076,0,0
6.72,-0.32751757,6.0660887,8.295900999999999,991.0748,0,0
6.76,-0.16981384,6.042256,8.220148,991.08734,0,0
6.8,-0.05040821400000002,5.8944955000000006,7.988154,991.0797,0,0
6.84,-0.13169466,6.104223999999999,7.3158655,991.1025,0,0
6.88,-0.24171954,6.1042266,7.519436,991.0895,0,0
6.92,-0.16049272,6.0374956,7.296916,991.12006,0,0
6.96,-0.32306564,5.8706675000000015,8.475779,991.10974,0,0
7.0,0.37947613,6.466489299999999,7.4578724,991.0895,0,0
7.04,-0.16548115,6.132832,7.2874284,991.087,0,0
7.08,-0.16548115,6.132832,7.2874284,991.0895,0,0
7.12,-0.38066173,5.937405,7.950237299999999,991.0997,0,0
7.16,-0.5432347,5.846842,7.699308,991.0818,0,0
7.2,-0.42379922,5.918342,8.007039,991.0921,0,0
7.24,0.020662948,6.1757370000000025,7.5951405,991.0691,0,0
7.28,0.0015138984,6.2567697,7.651950999999999,991.0993699999999,0,0
7.32,-0.075052366,6.299671,7.064875999999999,991.0638,0,0
7.36,-0.2567147,6.1423755,7.140624000000001,991.0740400000001,0,0
7.4,-0.22246256,5.6942997,7.576262,991.127,0,0
7.44,-0.045633905,5.8706627000000005,7.723025999999999,991.0715,0,0
7.48,0.14554618,5.946928,7.4768357000000005,991.079,0,0
7.52,0.21242727,5.985061,7.6235990000000005,991.0638,0,0
7.56,0.48006022,6.2758217000000025,8.026019999999999,991.0989400000001,0,0
7.6,0.20280744,6.380686799999999,8.144378999999999,991.07135,0,0
7.64,0.12630646,6.2710567,8.229595,991.1015,0,0
7.68,-0.23220292,6.099461,8.224858,991.08875,0,0
7.72,-0.17963710000000002,6.0756288,8.078091,991.08636,0,0
7.76,-0.30393612,5.9850645,7.9549937,991.1139999999999,0,0
7.8,-0.3469664,5.8516015999999995,8.168041,991.0964,0,0
7.84,-0.22272766,5.789637,7.8934419999999985,991.0786,0,0
7.88,-0.16538209,5.7419715,7.9691915999999985,991.0987,0,0
7.92,0.36991984,6.1137643,7.9455160000000005,991.0835599999999,0,0
7.96,0.36034817,6.0851655,7.846092999999999,991.0609,0,0
8.0,0.45114034,6.0232005,7.7182619999999975,991.07855,0,0
8.04,0.23123322,5.8468385000000005,7.865025,991.1036,0,0
8.08,0.087815,5.913571,7.8034754,991.0832,0,0
8.12,0.2120658,6.209098,7.751395,991.1087,0,0
8.16,0.14513649,6.1900325,8.106474,991.0958,0,0
8.2,-0.18948591,6.1805,7.883953599999999,991.0731,0,0
8.24,-0.26597485,6.237699,7.5194035,991.08575,0,0
8.28,-0.25165954,6.1137695,7.64723,991.0859,0,0
8.32,-0.5002333999999999,5.832543,7.983371000000001,991.0959,0,0
8.36,-0.13699242,6.075638,7.633023,991.0986,0,0
8.4,-0.089614965,5.8134875,7.9880652,991.0986,0,0
8.44,0.12545656,5.808721,7.893374400000001,991.0629,0,0
8.48,0.51738083,6.075649299999999,7.8554974,991.0657,0,0
8.52,0.8901662,6.361644,7.722931,991.0807,0,0
8.56,0.32611,6.0041523,7.6377070000000025,991.0907599999999,0,0
8.6,-0.032414578,5.651428,7.8602214,991.0984,0,0
8.64,-0.16630809,5.7515273,7.9501696,991.08325,0,0
8.68,-0.24280459,5.732461499999999,8.17742,991.0984,0,0
8.72,-0.26676258,5.8611603,8.106398,991.0986,0,0
8.76,0.08690354,6.05659,8.565632,991.1058300000001,0,0
8.8,0.4644884,6.256786,8.882833999999997,991.10065,0,0
8.84,-0.032670162999999995,5.7896647,7.5761337,991.08795,0,0
8.88,0.12502407,5.8849974000000005,7.7513027,991.0932,0,0
8.92,0.15364386,5.7706013,7.756032,991.0930000000001,0,0
8.96,0.19184296,5.7801347000000005,7.898061,991.0779,0,0
9.0,0.31607854,6.132861599999999,7.7039466,991.0882,0,0
9.04,0.03405045,5.9803314000000025,7.9832740000000015,991.08325,0,0
9.08,-0.24319780000000002,5.7515373,8.182117,991.08545,0,0
9.12,-0.50138587,5.7944384000000015,7.3299179999999975,991.08777,0,0
9.16,-0.39147002,5.9326696,7.509823299999999,991.11316,0,0
9.2,-0.08080245,6.0280010000000015,8.186841000000001,991.1030000000001,0,0
9.24,-0.028283588999999998,5.8564067,7.817552,991.08295,0,0
9.28,-0.07134113,5.89454,7.9737839999999975,991.09045,0,0
9.32,-0.16697651,5.9755720000000005,7.41512,991.09045,0,0
9.36,0.024195954,6.109036,7.8601527,991.10815,0,0
9.4,0.12499146,6.023228,8.172661999999999,991.08545,0,0
9.44,0.19666822,6.137626,7.954878,991.09784,0,0
9.48,0.17753886,6.047062,8.054299,991.0953400000001,0,0
9.52,-0.09016059,5.9707975,7.580856,991.10046,0,0
9.56,0.22528617,6.1233273,7.8980594,991.1031,0,0
9.6,0.024524242,5.9707985,8.115841,991.0852,0,0
9.64,-0.05676286,5.8230357,7.8838515,991.0726300000001,0,0
9.68,0.1439686,6.0947294,7.2399710000000015,991.1108,0,0
9.72,0.07226139,6.123329,7.28258,991.1005,0,0
9.76,-0.047253996,6.123329599999999,7.680267999999999,991.0777,0,0
9.8,0.062661186,6.218662,7.6565943,991.1029699999999,0,0
9.84,0.09609954,6.2472615,7.978532,991.0804,0,0
9.88,0.06741054,6.2281949999999995,7.651857400000001,991.0777,0,0
9.92,-0.19071913,5.8278055,7.372525,991.0903300000001,0,0
9.96,-0.07124432,5.942203,7.434071,991.11316,0,0
10.0,-0.037805997,5.8659387,8.17737,991.1031,0,0
10.04,-0.06651527,6.1709986,7.609239,991.09283,0,0
10.08,-0.16691142,6.0232363,7.874364,991.10815,0,0
10.12,-0.0952245,6.01847,7.9927235,991.0652,0,0
10.16,-0.30556634,5.7849092,7.7370625,991.1030000000001,0,0
10.2,-0.24343903,5.7420106,7.874358999999999,991.0930000000001,0,0
10.24,-0.12873389,5.8087425,7.964312599999999,991.0852,0,0
10.28,-0.10965527,6.028005,8.016386,991.1030000000001,0,0
10.32,-0.28175864,6.056605,7.789132,991.09045,0,0
10.36,-0.21008188,6.0280059999999995,8.0826645,991.1131,0,0
10.4,-0.15752432,5.880244,8.333586,991.08777,0,0
10.44,-0.15752432,5.880244,8.333586,991.0829,0,0
10.48,0.11011423,5.970809,7.7938604000000025,991.0576,0,0
10.52,0.25348806,6.004175,7.718108,991.07526,0,0
10.56,0.19134043,6.018475,7.561872,991.0953400000001,0,0
10.6,0.014457256000000003,5.9279113,7.3535557,991.09283,0,0
10.64,0.04789558,5.8087480000000005,7.4245696,991.0930000000001,0,0
10.68,-0.01904191,5.7515497,7.6660223,991.1005,0,0
10.72,-0.11464817,5.75155,7.850663000000001,991.1005,0,0
10.76,-0.02863197,5.9136133,8.040037,991.0981,0,0
10.8,-0.0668907,5.718185,8.139458,991.09283,0,0
10.84,-0.014343321000000001,5.54659,8.5040045,991.0981,0,0
10.88,-0.05738184,5.694354,8.13472,991.08545,0,0
10.92,-0.0860708,5.7181864000000004,8.182062,991.08826,0,0
10.96,-0.01917386,5.5656576,7.7228227,991.0880000000001,0,0
11.0,0.028603896,5.713421299999999,7.7228208,991.0981,0,0
11.04,0.052482635,5.6514564000000025,8.134713,991.0779,0,0
11.08,-0.1530692,5.336864,8.707573,991.0678,0,0
11.12,-0.4446575,5.427429,8.338288,991.08276,0,0
11.16,-0.41121924,5.6466913,8.196255,991.1157,0,0
11.2,-0.61198115,5.384531,8.688630999999999,991.10345,0,0
11.24,-1.1091010000000001,4.845911,9.933778,991.06287,0,0
11.28,-0.60247225,5.322566999999999,7.618651400000001,991.0702,0,0
11.32,-0.52099633,5.179565,8.016361,991.12085,0,0
11.36,-0.348931,5.179565,8.636567999999999,991.0980000000001,0,0
11.4,-0.057385854000000014,5.4178934000000005,7.5145116,991.0704,0,0
11.44,-0.09563954,5.322563,8.390374000000001,991.09045,0,0
11.48,0.14810754,5.5561247000000025,7.9264016,991.10315,0,0
11.52,0.14810754,5.5561247000000025,7.9264016,991.11096,0,0
11.56,-0.014421031,5.3559294,8.683905000000001,991.0882,0,0
11.6,-0.11003998,5.379762599999999,8.551338000000001,991.0933,0,0
11.64,-0.019238979,5.351164,8.21993,991.10345,0,0
11.68,0.13848694,5.3845300000000025,8.5324,991.0755,0,0
11.72,0.057207376,5.155736,8.324084,991.0830000000001,0,0
11.76,0.15279579999999998,5.217701,8.167848,991.0930000000001,0,0
11.8,0.12410174,5.2320013,8.262535,991.0930000000001,0,0
11.84,0.10018748,5.2034025,8.163111,991.08325,0,0
11.88,-0.14359783,5.1652703,8.655488,991.0906,0,0
11.92,-0.08626302,5.389298999999999,8.324077,991.10864,0,0
11.96,-0.248784,5.246302,8.622344,991.0986,0,0
12.0,-0.32527608,5.279669,8.503982,991.0833,0,0
12.04,-0.17233767,5.4655647000000025,8.485044,991.091,0,0
12.08,0.033178657,5.537064,8.25779,991.0884,0,0
12.12,-0.14846912,5.3702345000000005,8.167835,991.0859,0,0
12.16,-0.08157476,5.4750996,8.361944,991.07574,0,0
12.2,-0.12460065,5.451267,8.224644999999999,991.10364,0,0
12.24,-0.12461588,5.4608006,8.461364,991.0986,0,0
12.28,-0.13897058,5.498933,8.366674,991.0884,0,0
12.32,-0.16753687,5.5418296,8.030541,991.0807,0,0
12.36,-0.26314816,5.379766,8.376152000000001,991.0557,0,0
12.4,-0.26314816,5.379766,8.376152000000001,991.0883,0,0
12.44,0.11444111,5.565663,7.8837724,991.0756,0,0
12.48,0.09531684,5.6657605,7.5097547,991.1009,0,0
12.52,-0.1436886,5.4846315,8.054210000000001,991.1263,0,0
12.56,0.009260073,5.5894965999999995,8.470837,991.0961,0,0
12.6,0.42030793,5.8135247,8.62707,991.10364,0,0
12.64,0.39640390000000003,5.918389299999999,8.475569,991.08344,0,0
12.68,0.37249476,6.02802,7.5807657000000015,991.0835,0,0
12.72,-0.0911615,5.565665,8.182034,991.08606,0,0
12.76,-0.14852420000000002,5.522765,8.002125999999999,991.0759,0,0
12.8,0.123914495,5.761094,7.736998,991.08606,0,0
12.84,-0.30149823,5.3654695,8.077874000000001,991.0759,0,0
12.88,0.066531435,5.7467947,7.7180586,991.0885599999999,0,0
12.92,0.23859428,5.842126,7.992653,991.07104,0,0
12.96,0.23858918,5.85166,8.106278,991.08875,0,0
13.0,0.18121631,5.789695,8.163089,991.06604,0,0
13.04,0.17643143,5.818294,7.893228,991.0559699999999,0,0
13.08,0.15730713,5.827827,7.5618196,991.08875,0,0
13.12,0.5253318,5.951758,8.546574,991.0888699999999,0,0
13.16,0.5348863,6.056622,8.475557,991.0788,0,0
13.2,0.20984946,6.0089574,7.5144720000000005,991.1063,0,0
13.24,0.18594031,5.827828,7.8837543000000005,991.0686599999999,0,0
13.28,0.23372312,5.885027,7.287217599999999,991.0836,0,0
13.32,0.23372312,5.885027,7.287217599999999,991.0888699999999,0,0
13.36,0.20139937,5.6323724,7.988014,991.0638,0,0
13.4,0.23968919,5.613304,7.6282043,991.0813,0,0
13.44,0.13456775,5.6609693,7.4482994000000025,991.08875,0,0
13.48,0.23974057,5.765833,7.239988,991.05615,0,0
13.52,0.18721409,5.5465703,8.404655,991.1066,0,0
13.56,0.067753226,5.465538,8.243689999999999,991.08875,0,0
13.6,0.101246074,5.451237,8.414131,991.1017,0,0
13.64,0.2590139,5.527501,8.428336999999999,991.0765,0,0
13.68,0.048736765999999994,5.274873,8.873375,991.0815,0,0
13.72,0.13002764,5.494134,8.631923,991.0766,0,0
13.76,0.22564085,5.541799,8.674534,991.07635,0,0
13.8,-0.008535281,5.2224383,8.532505,991.0967400000001,0,0
13.84,-0.027620247999999997,5.16524,8.139552,991.0688,0,0
13.88,0.18752228,5.274869,8.224776,991.07153,0,0
13.92,0.18752228,5.274869,8.224776,991.08905,0,0
13.96,0.14453829999999998,5.179537,8.594064,991.069,0,0
14.0,0.03463705,5.270100599999999,8.527784,991.0916,0,0
14.04,0.16852291,5.3940296,8.385757,991.069,0,0
14.08,0.12552185,5.3082314,8.669824,991.079,0,0
14.12,0.18291374,5.1271014,8.83553,991.0691,0,0
14.16,0.12559034,5.1271005,8.504126,991.0766,0,0
14.2,0.22123782,5.2224307,8.631959,991.08685,0,0
14.24,0.08264060000000001,5.117565,8.717179,991.0641,0,0
14.28,-0.012921243999999998,5.1366315,8.381039999999999,991.0818,0,0
14.32,0.23949878,5.3749814,8.546661,991.0793,0,0
14.36,0.19647479999999998,5.289183599999999,8.485113,991.0818,0,0
14.4,0.33986515,5.370215,8.22472,991.0993699999999,0,0
14.44,0.22036625,5.241518,8.380956,991.087,0,0
14.48,0.18212588,5.179553,8.541924,991.0693,0,0
14.52,0.30639702,5.3034835,8.376221000000001,991.0794,0,0
14.56,0.20123751,5.2462845,8.395158,991.0844,0,0
14.6,0.28248840000000003,5.4369473,7.808091,991.0567,0,0
14.64,0.28248840000000003,5.4369473,7.808091,991.0895,0,0
14.68,0.0865089,5.174787,8.068482000000001,991.07434,0,0
14.72,0.0865089,5.174787,8.068482000000001,991.0693,0,0
14.76,0.21077998,5.317784,7.8175589999999975,991.057,0,0
14.8,0.25379252,5.398815,8.139498,991.0693,0,0
14.84,0.23466949,5.451247,8.915939999999997,991.0718400000001,0,0
14.88,0.10561098,5.4464809999999995,8.328874,991.0642,0,0
14.92,0.08170622599999999,5.33685,8.376217,991.0718400000001,0,0
14.96,-0.009113818000000001,5.2701187,8.305201,991.0693,0,0
15.0,0.14383610000000002,5.3702164,8.044808,991.057,0,0
15.04,0.26810908,5.422649,8.196309,991.0946,0,0
15.08,0.28722447,5.436948999999999,8.362013000000001,991.0693,0,0
15.12,0.34457833,5.489381,8.0590105,991.08484,0,0
15.16,0.4067139,5.541812999999999,8.144229,991.0747,0,0
15.2,0.18205929999999998,5.436948999999999,7.997462,991.06964,0,0
15.24,0.119916156,5.317785,8.504044,991.0797,0,0
15.28,-0.018700033,5.127123,8.68395,991.0899,0,0
15.32,0.14446737,5.2891699999999995,8.551447,991.0772,0,0
15.36,-0.10882798,5.0985065,8.650872999999999,991.08484,0,0
15.4,-0.032339655,4.945976,8.688748,991.07214,0,0
15.44,0.37874627,5.470297,7.590369,991.08734,0,0
15.48,0.5651929,5.4941287,8.319469999999999,991.0824,0,0
15.52,0.5556446999999999,5.4655294,8.272127000000001,991.0545699999999,0,0
15.56,0.51742905,5.53226,8.210582,991.0799,0,0
15.6,0.43140405,5.4655285000000005,8.631946000000001,991.08484,0,0
15.64,0.11119141,5.2891650000000014,8.101695,991.0824,0,0
15.68,0.23070936,5.3225303,8.641419,991.0824,0,0
15.72,0.08734947400000001,5.2224317000000005,8.1017,991.0774,0,0
15.76,0.13517033,5.2653303,8.300548,991.08,0,0
15.8,0.09216353,5.208131,8.2910795,991.0699,0,0
15.84,0.18779387,5.1985974000000015,8.859212,991.07245,0,0
15.88,0.07786976,5.155698,8.494663000000001,991.0575,0,0
15.92,0.19738771,5.365425599999999,8.172727,991.07745,0,0
15.96,0.23566036,5.3320594,8.513606,991.0649,0,0
16.0,0.23566036,5.3320594,8.513606,991.0624,0,0
16.04,0.13531874,5.3368244,7.9786220000000005,991.0624,0,0
16.08,0.20225884,5.365423000000002,8.035437,991.09796,0,0
16.12,0.058887525999999996,5.222426400000002,8.721928,991.05756,0,0
16.16,0.19275628,5.355889299999999,8.295835,991.085,0,0
16.2,0.097183034,5.198592,8.50415,991.07275,0,0
16.24,0.11631368,5.2605567,8.239024,991.08,0,0
16.28,0.27884984,5.40832,8.243761,991.0575,0,0
16.32,0.26467782,5.451215,8.168025,991.05505,0,0
16.36,0.08788344,5.3177495000000015,8.366877,991.0830000000001,0,0
16.4,0.1643749,5.3272824,8.513643,991.078,0,0
16.44,0.16918387,5.303449,8.632007000000002,991.0855,0,0
16.48,0.16921304,5.3225145,8.262725999999999,991.0526,0,0
16.52,0.06888093,5.198583,8.272199,991.0881,0,0
16.56,0.06888093,5.198583,8.272199,991.0804400000001,0,0
16.6,0.24577741,5.3272786,8.650955,991.0704300000001,0,0
16.64,0.22189299999999998,5.222414499999998,8.669894000000001,991.0754400000001,0,0
16.68,0.29841363,5.408309,8.224863000000001,991.0679,0,0
16.72,0.23629077,5.346343,8.234334,991.05536,0,0
16.76,0.22676031,5.355876,8.347961999999999,991.1007699999999,0,0
16.8,0.23156929999999998,5.4130735,8.575216000000001,991.0706,0,0
16.84,0.28419095,5.4321384,8.078108,991.0729,0,0
16.88,0.16472496,5.2891417,8.48527,991.0653699999999,0,0
16.92,0.10260214,5.2843747,8.475802,991.0453,0,0
16.96,0.36552048,5.4178375999999995,7.936082400000001,991.0654,0,0
17.0,0.33210564,5.394004,8.163338000000001,991.0629,0,0
17.04,0.44205576,5.513167,7.893478,991.0678,0,0
17.08,0.3703878,5.413069,8.210686,991.0579,0,0
17.12,0.33219314,5.4655,8.153877,991.0756,0,0
17.16,0.33698756,5.4416666,8.319583,991.0907599999999,0,0
17.2,0.30833793,5.4797983,8.295914,991.0604,0,0
17.24,0.19843157,5.4273653,7.9503045,991.06793,0,0
17.28,0.25102399999999997,5.4464315999999995,7.9645095,991.0706,0,0
17.32,0.082284525,5.284404,8.409410000000001,991.0983,0,0
17.36,0.16349556,5.432168,8.328921000000001,991.0882,0,0
17.4,0.16349556,5.432168,8.328921000000001,991.0809300000001,0,0
17.44,0.23992671,5.422636499999999,8.371527,991.07574,0,0
17.48,0.20645289,5.379738,8.665059,991.0759,0,0
17.52,0.30200326,5.517969,8.101661,991.0835,0,0
17.56,0.24463044,5.427405,8.617709,991.0606,0,0
17.6,0.1442089,5.3654404000000016,8.205812,991.043,0,0
17.64,0.17287247,5.346375,8.106388,991.06573,0,0
17.68,0.26364309999999996,5.3797417,8.077977,991.08344,0,0
17.72,0.26361263,5.3511434,8.466196,991.066,0,0
17.76,0.30182064,5.374976599999999,8.835476,991.0582,0,0
17.8,0.25877196,5.4274096,8.082704,991.066,0,0
17.84,0.2730809,5.44171,8.044825,991.0582,0,0
17.88,0.16787957,5.4083457,8.243666000000001,991.0935699999999,0,0
17.92,0.16787957,5.4083457,8.243666000000001,991.0531599999999,0,0
17.96,0.12003587,5.508444,8.215256,991.0609,0,0
18.0,0.17736308,5.670508,8.186847,991.071,0,0
18.04,0.25858927,5.6276093000000005,8.797582,991.0459,0,0
18.08,0.22033565,5.5370455000000005,9.005894999999997,991.0632300000001,0,0
18.12,0.36369932,5.484614,8.357277999999999,991.0458,0,0
18.16,0.12466346,5.6848106,7.4624710000000025,991.0659,0,0
18.2,0.10074918,5.456016,8.319397,991.0809300000001,0,0
18.24,0.052920714,5.532282,7.741797,991.0484,0,0
18.28,0.16759036,5.50845,7.765465,991.0813,0,0
18.32,0.22132129999999997,5.5656204,7.5903974000000005,991.0986,0,0
18.36,0.25001663,5.541787,8.324232,991.05865,0,0
18.4,0.25004137,5.6800165,8.248484,991.09155,0,0
18.44,0.2548294,5.584685299999999,8.740862,991.07104,0,0
18.48,0.2309386,5.541786,8.650909,991.06604,0,0
18.52,0.15926631,5.5417857,8.295832,991.0612,0,0
18.56,0.24053945,5.465520400000001,8.224816,991.04346,0,0
18.6,0.22620828,5.4607534000000015,8.177472999999999,991.0762300000001,0,0
18.64,0.3074897,5.455986,8.357383,991.0486,0,0
18.68,0.22146972,5.441686,8.328978,991.0688,0,0
18.72,0.42700952,5.5894494,8.456807000000001,991.08386,0,0
18.76,0.039870143,5.427386,8.191683,991.0183,0,0
18.8,0.011199563999999999,5.389253,8.002308,991.04614,0,0
18.84,0.12593137,5.398786,7.898153,991.0736699999999,0,0
18.88,-0.055676445,5.422618,7.9833735999999975,991.0588,0,0
18.92,0.08294609,5.517949,7.9265623,991.06116,0,0
18.96,0.05429201,5.603747,8.338458000000001,991.0588,0,0
19.0,-0.14644325,5.3654184,8.428412,991.0613,0,0
19.04,-0.1273158,5.441683,8.4473505,991.0310000000001,0,0
19.08,-0.29936403,5.327285,8.130148,991.0691,0,0
19.12,-0.0938077,5.4321485,8.400012,991.0564,0,0
19.16,-0.05556102,5.3987823,8.518373,991.04895,0,0
19.2,-0.031653777,5.4559809999999995,8.314794000000001,991.07135,0,0
19.24,-0.18936254,5.355882599999998,8.196437,991.06146,0,0
19.28,-0.16067551,5.4035480000000025,8.1064825,991.0311,0,0
19.32,-0.15590304,5.3463497,8.471031,991.0438,0,0
19.36,-0.10331757,5.4035480000000025,8.300593,991.0336,0,0
19.4,-0.06506394,5.3654150000000005,8.248516,991.0639,0,0
19.44,0.03055498,5.489345,8.295863,991.04895,0,0
19.48,-0.036354676,5.436913,8.253252999999999,991.0717,0,0
19.52,-0.1080289,5.3225145,8.295866,991.05145,0,0
19.56,-0.021977201000000002,5.379713,8.115960000000001,991.04895,0,0
19.6,-0.012410015,5.3606467,8.168038000000001,991.0641,0,0
19.64,-0.07452460400000001,5.317747,8.508918,991.0567599999999,0,0
19.68,0.0019598305,5.3892455,8.362152,991.0717,0,0
19.72,0.08801156,5.4702764,8.291136999999999,991.05927,0,0
19.76,-0.045807756,5.3892446,8.333749000000001,991.0542,0,0
19.8,-0.05535209,5.3987775000000005,8.371625,991.03656,0,0
19.84,-0.07445613,5.3463449999999995,8.366893,991.0694,0,0
19.88,-0.07922069,5.455975,8.201189,991.0718,0,0
19.92,-0.13178332,5.3892430000000004,8.239066000000001,991.02386,0,0
19.96,-0.08397005,5.403542,8.1159725,991.0719,0,0
20.0,0.016421035,5.5131726,8.461586,991.0718400000001,0,0
20.04,-0.112618454,5.436908,8.295883,991.0668300000001,0,0
20.08,-0.11737539599999999,5.43214,8.125446,991.0567599999999,0,0
20.12,-0.11737539599999999,5.43214,8.125446,991.05945,0,0
20.16,-0.03609591,5.408307,7.969213000000001,991.03656,0,0
20.2,0.17423065,5.460739,7.760900500000001,991.0669,0,0
20.24,0.030851796,5.3654075,8.551547,991.0643,0,0
20.28,-0.1698924,5.117546,8.759862,991.0542,0,0
20.32,0.097447425,5.494112,8.418954,991.0568,0,0
20.36,0.0974493,5.44168,8.262719,991.04675,0,0
20.4,0.16436718,5.417847,8.471033,991.0415,0,0
20.44,0.1739287,5.4655128,8.589395,991.0721,0,0
20.48,0.0878935,5.3940150000000004,8.248517,991.0694,0,0
20.52,0.06877494,5.3415823,8.172767,991.02655,0,0
20.56,0.121354654,5.351115,8.149094999999999,991.03656,0,0
20.6,0.121354654,5.351115,8.149094999999999,991.0519400000001,0,0
20.64,0.1691552,5.460746299999999,8.3526745,991.04944,0,0
20.68,0.044882253,5.351115,8.281658,991.03674,0,0
20.72,0.044882253,5.351115,8.281658,991.04974,0,0
20.76,0.10702093,5.3844814,8.281659,991.0543,0,0
20.8,0.020986407999999998,5.2986830000000005,8.153830000000001,991.0519400000001,0,0
20.84,0.13570233,5.379714,8.224846000000001,991.0571,0,0
20.88,0.092686,5.4321465,8.27219,991.0319999999999,0,0
20.92,0.1309257,5.4702787000000015,8.153830000000001,991.0545,0,0
20.96,-0.0841642,5.222418,8.39055,991.047,0,0
21.0,-0.026805952,5.2986827000000005,8.418956,991.06714,0,0
21.04,0.049672842,5.4750457,8.343206,991.07245,0,0
21.08,0.020994619,5.4083138,8.267457,991.05206,0,0
21.12,-0.1797552,5.2176514,8.310066,991.0624,0,0
21.16,-0.0889383,5.27485,8.262722,991.0495599999999,0,0
21.2,-0.017240629,5.3034495999999995,8.291128,991.05444,0,0
21.24,0.035339758,5.3892474,8.253252999999999,991.0546,0,0
21.28,-0.041136503,5.384481,8.044939999999999,991.05707,0,0
21.32,-0.03635604,5.4035470000000005,7.964454700000001,991.0748,0,0
21.36,0.0074244290000000015,5.384462,8.523184,991.05225,0,0
21.4,0.112610534,5.4607263,8.06395,991.06213,0,0
21.44,0.07916711,5.4988585,7.9550600000000005,991.0447,0,0
21.48,0.14612998,5.4178257000000025,8.277003,991.07495,0,0
21.52,0.08878754,5.389226,8.362225,991.0598,0,0
21.56,-0.04978115,5.379691,8.097102,991.02936,0,0
21.6,-0.035411306000000004,5.3272585999999995,8.556341999999999,991.0852,0,0
21.64,-0.23136808,5.007899299999999,8.897219999999997,991.1887,0,0
21.68,-0.36993676,5.2176266,7.779905,991.1026,0,0
21.72,-0.30300426,5.3558564,8.499536,990.99176,0,0
21.76,-0.18824336,5.556051,7.325408,991.01416,0,0
21.8,-0.28858882,5.1604257,9.380142,991.06,0,0
21.84,-0.14039970000000002,5.3606205000000005,8.305433,991.1307400000001,0,0
21.88,-0.21205112,5.3510860000000005,8.783613,990.96906,0,0
21.92,-0.45101088,5.408284,6.856713,991.0145,0,0
21.96,0.45240247,5.5655804,8.722072,991.0423,0,0
22.0,0.06048894,5.308185,8.518496,991.055,0,0
22.04,0.06048894,5.308185,8.518496,991.0423,0,0
22.08,0.15133564,5.484547,8.021384,991.0523699999999,0,0
22.12,-0.09238875,5.408281,8.352797500000001,991.0448,0,0
22.16,-0.19749878,5.3606143,8.608459,991.0675699999999,0,0
22.2,-0.1974684,5.5322094,8.22971,991.0675699999999,0,0
22.24,-0.29782906,5.4797773,8.343337,991.0727,1,1
22.28,-0.006215393499999999,5.565574,8.243917999999999,991.0903,1,1
22.32,0.050333574000000006,5.532228,8.158626,991.0373,1,1
22.36,0.055110812,5.565594,8.172827999999999,991.035,1,1
22.4,-0.13130279,5.346332,8.376407,991.0653,1,1
22.44,-0.06438808,5.389231,8.210703,991.0222,1,1
22.48,0.23673703,5.6180267,7.950311,991.0754,1,1
22.52,0.2367345,5.6561584000000025,8.243844000000001,991.0552,1,1
22.56,-0.045277767000000003,5.6180267,7.869825,991.0777,1,1
22.6,-0.15999433,5.6609254,8.210702000000001,991.0525,1,1
22.64,-0.3416294,5.289134,8.5563135,991.01965,1,1
22.68,-0.6140808000000001,5.932619,6.761974,991.0424,1,1
22.72,-0.46590936,4.855377,8.887721,991.08795,1,1
22.76,-0.6093048000000001,4.6122830000000015,9.829867,991.01715,1,1
22.8,-0.31773925,6.271045,5.8387647000000005,991.01715,1,1
22.84,0.41356695,6.423575,7.3679767000000025,991.11584,1,1
22.88,-0.1265522,5.560828,8.660468,991.0754,1,1
22.92,-0.026178852000000002,5.608494,8.532639999999999,991.0424,1,1
22.96,-0.34164843,6.6476035000000016,7.1265216,991.0675699999999,1,1
23.0,-1.6895556,5.9993514999999995,6.359547599999999,991.0676,1,1
23.04,-0.5280670999999999,7.086126299999999,8.191761999999999,991.0955,1,1
23.08,-0.79573745,6.971728999999999,8.456888000000001,991.1433,1,1
23.12,-1.3501972,6.1185155,10.15654,991.1408,1,1
23.16,0.2701525,6.7286353000000005,9.427442,991.0751300000001,1,1
23.2,-0.7622876999999999,6.042250599999999,8.527904,991.0676,1,1
23.24,-0.64757365,5.3034349999999995,9.460582,991.1181,1,1
23.28,0.5617141,4.960242299999999,10.814621,991.02216,1,1
23.32,0.3179416,4.8506117,7.926634,991.0399,1,1
23.36,-0.15526147,4.8506117,7.9834466,991.0475,1,1
23.4,0.38963234,4.864911599999999,8.400074,991.0652,1,1
23.44,0.5139060000000001,4.612284,8.347995,991.0475,1,1
23.48,0.3800702,4.4359217000000015,8.42848,990.9943,1,1
23.52,0.098057956,4.416856,6.094418,991.0323,1,1
23.56,0.279688,4.6837826,6.7051563,991.0855,1,1
23.6,0.29402608,4.864912,7.320628,991.05255,1,1
23.64,0.8197995000000001,6.680969999999999,7.429519,991.0852,1,1
23.68,0.5712484,6.5141405999999975,8.210696,991.1231,1,1
23.72,1.4985264999999999,6.690503,9.934019000000001,991.1079,1,1
23.76,1.2404158,6.8287334,10.042911,991.09283,1,1
23.8,-1.2536633,6.0994267,8.490115,991.0423,1,1
23.84,-0.69918215,5.861098,7.5527053,991.0549,1,1
23.88,-0.106474616,4.3977647000000015,9.2618265,991.0700699999999,1,1
23.92,0.31417185,4.845821,8.471183,991.0271,1,1
23.96,-1.0623879999999999,4.9411510000000005,7.084004400000001,991.06244,1,1
24.0,0.39070809999999995,5.1937776,9.010911,991.1179,1,1
24.04,0.8830515999999999,5.4273386,5.701564,991.0246599999999,1,1
24.08,0.8830515999999999,5.4273386,5.701564,991.0445,1,1
24.12,-0.18280904,5.336773,6.5537600000000005,991.0498,1,1
24.16,-0.044182852,5.3606052,6.8425593,991.1128,1,1
24.2,0.14704494,5.1556425,8.343369000000001,991.1002,1,1
24.24,0.52945304,5.7276287,7.8746657,991.0523,1,1
24.28,0.37173134,5.7466946,7.9456820000000015,991.05725,1,1
24.32,0.14710428,5.33677,8.362312,991.0700699999999,1,1
24.36,1.0218321,5.9707217,9.313930000000001,991.08746,1,1
24.4,0.3287843,6.099418599999999,9.342338,991.0776,1,1
24.44,0.5725781,5.322469,10.109314,991.0394,1,1
24.48,1.2417744,5.54173,7.926756,991.01685,1,1
24.52,0.41012412,5.1127386,7.680569999999999,991.0723,1,1
24.56,-0.24947697,4.9649754,8.471217,991.0623,1,1
24.6,0.3910405,5.6942580000000005,8.191888,991.0546,1,1
24.64,-0.29722753,4.936374,7.637964999999999,991.0699,1,1
24.68,-0.12035104,5.212835,7.3349657000000015,991.0698,1,1
24.72,0.023054928,5.370131,7.959908500000001,991.0397300000001,1,1
24.76,-0.16332181,6.1804447,7.207141,991.0344,1,1
24.8,-0.29235279999999997,5.7657537,7.4533324000000025,991.0698,1,1
24.84,-0.08301407,5.765777,9.399084,991.0672599999999,1,1
24.88,0.40929806,6.5236597000000005,7.9787617,991.0748,1,1
24.92,0.6100346999999999,7.148078999999999,8.561092,991.07495,1,1
24.96,-0.13563761,5.7371793,9.853582000000001,991.0797,1,1
25.0,-0.35553140000000005,5.046029,7.992959,991.0673,1,1
25.04,-0.4176765,4.0021534,10.161317,991.0899699999999,1,1
25.08,-0.5467464,4.226182,8.617899000000001,991.06976,1,1
25.12,-0.6280258000000001,5.2795916,8.305425999999999,991.05707,1,1
25.16,0.6433868,5.946909400000001,7.320667999999999,991.0469400000001,1,1
25.2,0.4569592000000001,4.802936,9.24757,991.1026,1,1
25.24,-0.494237,4.288148400000001,7.2969937000000025,991.0269,1,1
25.28,0.28007603,5.7085834,6.7525353,991.03674,1,1
25.32,0.11754747,5.341558999999998,8.376434,991.0849599999999,1,1
25.36,-0.016294643,4.8839690000000004,8.726780999999999,991.123,1,1
25.4,0.16054286,5.155663,8.537402,991.12006,1,1
25.44,0.26569098,5.4797892999999975,7.917194999999999,991.0672599999999,1,1
25.48,-0.25533049999999996,5.608487,8.087631,991.1049,1,1
25.52,-0.03546711,5.5322223,8.281742,991.1025,1,1
25.56,0.71972674,6.085143599999999,9.910375,991.07745,1,1
25.6,1.044738,6.0517774000000015,9.086588,991.05225,1,1
25.64,0.9108884,5.904014599999999,6.8898220000000014,991.0571,1,1
25.68,0.4424448,5.169965299999999,7.9929365999999975,991.0695,1,1
25.72,0.4424448,5.169965299999999,7.9929365999999975,991.0519400000001,1,1
25.76,-0.26499659999999997,5.59419,7.064989999999999,991.0397,1,1
25.8,-0.08337164,5.613256,7.008176299999999,991.08,1,1
25.84,-0.20769438,4.7981763,9.162328,991.04443,1,1
25.88,-0.53751737,5.1318355,6.7099032,991.0165,1,1
25.92,-0.17905681,6.027949,7.798814299999999,991.0897,1,1
25.96,0.19375135,5.9850507,7.798813000000001,991.0745,1,1
26.0,0.30367863,6.213845,7.708858,991.1125,1,1
26.04,-0.13130005,6.5951705,9.081835,991.0796,1,1
26.08,-0.91042453,6.5904039999999995,8.887722,991.1023,1,1
26.12,-1.0586149999999999,6.6857357,9.271207,991.0747,1,1
26.16,-1.1924659,7.067061,8.191761,991.0568,1,1
26.2,-0.8339970999999999,6.3806763,7.576287299999999,991.08466,1,1
26.24,-0.9152703000000001,4.359657,11.643139999999999,991.0442,1,1
26.28,-0.46120548,6.337778599999999,7.382174000000001,991.04926,1,1
26.32,-0.23178315,7.067062400000001,6.8803259999999975,991.0922,1,1
26.36,-0.64765084,3.883003,10.042907000000001,991.04663,1,1
26.4,-0.17923829,4.159463,8.494755,991.0366,1,1
26.44,0.45167106,5.02221,7.727778999999999,991.0165,1,1
26.48,0.19832496,5.0841765,5.990251,991.0441,1,1
26.52,-0.05502113,5.0365105,6.600988,991.04425,1,1
26.56,0.14094256,4.8839809999999995,7.0649586,991.0896,1,1
26.6,0.11223902,5.0889440000000015,7.050753,991.0366,1,1
26.64,0.83875275,6.5475106,6.8187656,991.0871599999999,1,1
26.68,0.3607558,6.5427446,8.835621000000002,991.1024,1,1
26.72,0.6762064,6.2424517,9.844047999999999,991.0846,1,1
26.76,0.3702824,5.7276644999999995,9.048666,991.0643,1,1
26.8,0.6347328000000001,5.208071,9.228716,991.0997,1,1
26.84,0.43878429999999996,4.569351999999999,9.938879,991.0392,1,1
26.88,0.6109041999999999,5.0507727,6.880458,991.02386,1,1
26.92,0.8882030999999999,6.53317,5.625847,991.044,1,1
26.96,0.57278305,5.799119999999999,6.804717999999999,991.0845,1,1
27.0,0.18088607,5.5083585,8.215575,991.0796,1,1
27.04,-0.038961447999999996,5.780051,7.5764327000000025,991.0542,1,1
27.08,-0.27312493,6.394936,6.3123507000000005,991.0771,1,1
27.12,0.44389259999999997,6.719061,8.267665,991.1351,1,1
27.16,0.8741453000000001,6.9335546,7.694808,991.0896,1,1
27.2,0.48222488,6.904954400000001,7.6522,991.0694,1,1
27.24,0.018630818,6.2138023,9.631186,991.0693,1,1
27.28,-0.32546812,6.4521294000000005,8.618028,991.0415,1,1
27.32,-0.57394755,6.4807267,7.4439015,991.06195,1,1
27.36,-1.7258334,4.1737123,10.578082,991.0796,1,1
27.4,-1.9026628,3.8019207,9.943673,991.0392,1,1
27.44,-1.1952049,5.598911,7.486522,991.0518,1,1
27.48,-0.06712407599999999,6.199496,8.286641,991.0896,1,1
27.52,-0.11967845,5.718073,8.329252,991.0391,1,1
27.56,-0.6023448,4.636062,7.462865,991.0491300000001,1,1
27.6,-0.6023448,4.636062,7.462865,991.0567599999999,1,1
27.64,-0.8556040000000001,4.9077544,6.307677,991.0871599999999,1,1
27.68,-0.5448933000000001,5.0316844000000005,6.951558,991.0769,1,1
27.72,0.09564735,5.0364494,8.163569,991.0746,1,1
27.76,0.4063815,5.3605747,8.262997,991.0972,1,1
27.8,-0.13529961,5.7181044000000005,9.285484,991.10724,1,1
27.84,0.041524604,5.7896037000000025,9.271279,991.1175,1,1
27.88,0.07497372,5.7419379999999975,9.171856,991.0819,1,1
27.92,0.4143303,5.584642,9.119776,991.0897,1,1
27.96,0.20399986,4.354871,9.820466,991.05945,1,1
28.0,-0.29790807,5.3034167000000005,7.1786660000000015,991.03156,1,1
28.04,0.27086955,6.313927,7.1928678,991.072,1,1
28.08,-0.05895593,5.532212,7.817807000000001,991.0846,1,1
28.12,-0.28839606,5.1318209999999995,8.045058000000001,991.0897,1,1
28.16,-1.1535691000000001,4.812463,8.504292999999999,991.0568,1,1
28.2,-1.3782294,4.9554599999999995,7.8746160000000005,991.0416,1,1
28.24,-0.46052609999999994,6.056535,7.079233599999999,991.0693,1,1
28.28,0.0031053870000000003,6.2614975,7.486391999999999,991.04443,1,1
28.32,-0.32195932,6.409261,8.063986,991.0797,1,1
28.36,-1.1823336000000002,5.956439,8.319642,991.0747,1,1
28.4,-1.1823525,5.065093,9.460633,991.1023,1,1
28.44,0.026909277000000002,6.0660706,8.556358,991.04926,1,1
28.48,-0.073476136,6.0803704000000005,8.42853,991.0568,1,1
28.52,-0.9625482,5.179492,7.4153633,991.06195,1,1
28.56,-0.48457736,5.4082870000000005,7.235455,991.0922,1,1
28.6,-1.0772921,4.2690800000000015,9.664203,991.0746,1,1
28.64,-0.8431006,4.7266703,8.09238,991.04675,1,1
28.68,-0.3985884,5.2938905,7.647344,991.04926,1,1
28.72,-0.33170918,5.222393,7.9787493000000005,991.04205,1,1
28.76,-0.21222359999999998,5.1604285,8.2391405,991.0644,1,1
28.8,-0.3403899,4.8172144999999995,8.674787,991.0366,1,1
28.84,-0.2925741,4.9173117,7.694767,991.0646,1,1
28.88,-0.45506966,5.060308,7.8699410000000025,991.0695,1,1
28.92,-0.47895986,5.279569,8.158742,991.0745,1,1
28.96,-0.57930905,5.7848239999999995,8.1114,991.07495,1,1
29.0,-0.42156667,5.770524,8.471214999999999,991.0694,1,1
29.04,-0.5410351,5.1222715,9.134034,991.07245,1,1
29.08,-0.6748608,4.9220757000000015,9.351817,991.0797,1,1
29.12,-0.971182,5.8277209999999995,6.6532097000000014,991.2009,1,1
29.16,-1.8363178,4.56935,8.106672,991.0292,1,1
29.2,-0.44059706,5.198535,9.598011,990.9633,1,1
29.24,-0.58397347,5.4702277000000015,7.4864690000000005,991.0216,1,1
29.28,-0.26370883,5.365362999999999,8.651133999999999,991.0545,1,1
29.32,-0.17287485,5.7609878,7.822614,991.04926,1,1
29.36,-0.15851764,5.6894884,8.0167265,991.0191,1,1
29.4,-0.6986088,5.1127343000000005,7.623773599999999,991.0621,1,1
29.44,0.037507564,5.675187599999999,8.248717999999998,991.04944,1,1
29.48,0.037507564,5.675187599999999,8.248717999999998,991.0771,1,1
29.52,-0.23492348,5.2175975,8.707956,991.0319999999999,1,1
29.56,0.11402883,6.0088453,7.216621400000001,991.02655,1,1
29.6,0.05190912,6.137542,7.63325,991.072,1,1
29.64,-0.26354906,5.603688,8.210849000000001,991.0268,1,1
29.68,-0.37346676,5.5369554,8.229788000000001,991.05164,0,0
29.72,-0.0053952485,6.4664335,7.6285214,991.04926,0,0
29.76,-0.019716874,6.2662373,8.092494,991.057,0,0
29.8,-0.2310915,5.737176,8.812026,991.0871599999999,0,0
29.84,-0.6947451,5.4893145999999975,8.897244,991.05176,0,0
29.88,-0.3984227,5.57988,7.988237,991.0568,0,0
29.92,0.17511572,6.0994363,7.8414664000000025,991.0643,0,0
29.96,0.10817309,6.070837,7.1644444000000025,991.0242,0,0
30.0,0.14161901,6.0422379999999976,7.320678,991.0392,0,0
30.04,-0.17388609,5.8134445999999995,7.557395,991.0593,0,0
30.08,-0.31251302,5.8420440000000005,7.524253999999999,991.0568,0,0
30.12,-0.79051876,5.73718,7.623673399999999,991.0871599999999,0,0
30.16,-0.6232384,5.7705459999999995,7.959815499999999,991.0746,0,0
30.2,0.299213,5.5846519999999975,8.196530000000001,991.0342400000001,0,0
30.24,0.55251724,5.670450700000001,7.808307000000001,991.0419,0,0
30.28,0.5955228,5.7276497000000015,7.661539,991.0746,0,0
30.32,0.1892141,5.5703535,7.5526456999999985,991.0341,0,0
30.36,0.23699947,5.799149,8.002413,991.0922,0,0
30.4,0.21785487,5.77055,8.437975999999999,991.0694,0,0
30.44,-0.10719718,5.622788,8.646287,991.0744,0,0
30.48,-0.22673035,5.6561546,8.52319,991.0771,0,0
30.52,-0.04990296,5.7276535000000015,8.565797,991.06195,0,0
30.56,-0.39885402,5.2986636,8.537388,991.067,0,0
30.6,-0.121650726,5.4273620000000005,8.400088,991.06195,0,0
30.64,-0.17425399,5.3177314,7.93138,991.0643,0,0
30.68,0.016912818,5.2986655,8.177567,991.0491300000001,0,0
30.72,0.3371343,5.675224299999999,8.045,991.0746,0,0
30.76,0.22240634,5.679991,7.9503119999999985,991.0668300000001,0,0
30.8,-0.015450223999999999,5.3987370000000015,8.400185,991.0718400000001,0,0
30.84,0.06582798,5.6656629999999994,7.922011,991.0669,0,0
30.88,0.032380163999999996,5.622764,8.343373,991.0819,0,0
30.92,-0.20180869,5.598930999999999,8.153999,991.0441,0,0
30.96,-0.120541245,5.5989304,8.234486,991.06934,0,0
31.0,0.13760053,5.9659543,7.590609,991.0695,0,0
31.04,-0.07745832,5.536964,8.343382,991.0695,0,0
31.08,-0.09656674,5.5321964999999995,8.348118,991.0643,0,0
31.12,-0.24948812,5.494063400000001,8.513825,991.0718400000001,0,0
31.16,-0.28293598,5.408265599999999,8.461748,991.0442,0,0
31.2,-0.043924235,5.60846,7.9078240000000015,991.0744,0,0
31.24,-0.06302185,5.5560274000000005,8.225031,991.0567599999999,0,0
31.28,0.2094485,5.6894903,8.362331,991.0643,0,0
31.32,0.099545345,5.532193,7.926769,991.03894,0,0
31.36,0.41025418,5.670423,7.827348,991.04175,0,0
31.4,0.38637668,5.603691,7.680583500000001,991.0364400000001,0,0
31.44,0.42940575,5.684722,7.723194,991.06934,0,0
31.48,0.357741,5.708554299999999,7.97412,991.0719,0,0
31.52,0.35776258,5.7180860000000004,8.049872,991.0718400000001,0,0
31.56,0.05187668,5.536957,8.163501,991.0668300000001,0,0
31.6,0.08534610000000001,5.536957,8.177705,991.044,0,0
31.64,0.29089922,5.746683999999999,8.016737,991.0666,0,0
31.68,0.30046958,5.7419176,8.054614,991.0694,0,0
31.72,0.31961042,5.699018,8.083022,991.0641,0,0
31.76,0.18101762,5.522655,8.191915,991.0718400000001,0,0
31.8,0.13705419,5.622776,7.8509517,991.0667,0,0
31.84,0.25175172,5.665675,8.201296000000001,991.0869,0,0
31.88,0.06054184,5.6037107000000015,8.177622,991.08185,0,0
31.92,0.017514706,5.575111,8.258106,991.0491300000001,0,0
31.96,0.08440532,5.5798783,8.082931,991.0591,0,0
32.0,0.15131370000000002,5.6895094,8.097133,991.0666,0,0
32.04,0.08914962400000001,5.5989455999999995,8.097131,991.04645,0,0
32.08,0.05567321,5.570347,8.272302,991.0565,0,0
32.12,0.026985541000000002,5.4940815,8.40013,991.0441,0,0
32.16,0.031747594,5.570348,8.082923,991.0616,0,0
32.2,0.117766276,5.584647,8.253361,991.0893,0,0
32.24,0.041262776,5.5703487,7.898277799999999,991.0363,0,0
32.28,0.041262776,5.5703487,7.898277799999999,991.0566,0,0
32.32,-0.07825008,5.4845510000000015,8.376451,991.0841,0,0
32.36,0.012539566,5.5703497,8.153932000000001,991.0616,0,0
32.4,0.074668154,5.551284,8.324369,991.0715,0,0
32.44,0.21326469,5.6799808,7.9598179999999985,991.0389,0,0
32.48,0.21800898,5.632316,8.333834,991.0639,0,0
32.52,0.11761533,5.5417523,8.239142999999999,991.0691,0,0
32.56,-0.0018975139,5.4273553,8.139719,991.0766,0,0
32.6,-0.035365007999999996,5.4321218,8.011889,991.05396,0,0
32.64,0.074543834,5.5465198,8.319624000000001,991.0665,0,0
32.68,-0.04974886,5.4702554,8.187058,991.06635,0,0
32.72,-0.001968518,5.5083885000000015,8.253338000000001,991.06635,0,0
32.76,0.10794918,5.61802,8.305416000000001,991.08417,0,0
32.8,0.05535361,5.4893230000000015,8.25807,991.05646,0,0
32.84,-0.021141022000000002,5.498857,7.9740033,991.06396,0,0
32.88,0.09356542,5.5560555,8.073425,991.0639,0,0
32.92,0.09355655,5.579889,8.163378999999999,991.0763,0,0
32.96,-0.09766225,5.4797915999999995,8.201251,991.0741,0,0
33.0,0.01225546,5.513158,8.149172,991.0691,0,0
33.04,0.045696348,5.4511933,8.390624,991.06146,0,0
33.08,0.036127836,5.4654927,8.201247,991.0665,0,0
33.12,0.083908126,5.6275559999999984,8.153901,991.05646,0,0
33.16,-0.054732814000000005,5.4511943,8.120758,991.0487699999999,0,0
33.2,0.036065727,5.4940934,8.291196000000001,991.0741,0,0
33.24,-0.05475945,5.398763,8.097083999999999,991.06396,0,0
33.28,-0.016538754,5.4035296,8.27699,991.06146,0,0
33.32,0.03603016,5.503628,8.243848,991.0716,0,0
33.36,0.13159077,5.527461499999999,8.404815,991.0537,0,0
33.4,0.08856362,5.4750295,8.300656,991.05896,0,0
33.44,0.27973807,5.656159,8.063934,991.0665,0,0
33.48,-0.15525074,5.322500700000001,7.9455724000000005,991.0813,0,0
33.52,-0.06444339,5.470264,8.068666,991.0665,0,0
33.56,-0.045333042999999996,5.4368987,8.381136,991.06116,0,0
33.6,-0.09315771,5.4988647,8.049725,991.0639,0,0
33.64,-0.06448775,5.4559655,8.224896000000001,991.05396,0,0
33.68,-0.016716346,5.5512977,8.054457000000001,991.07135,0,0
33.72,-0.031073503,5.4702663000000005,8.054455,991.09155,0,0
33.76,-0.011963188999999999,5.4512005,8.276971000000001,991.0563,0,0
33.8,-0.12192528,5.3606367,8.092327000000001,991.074,0,0
33.84,0.09792791,5.479801,8.310108,991.06146,0,0
33.88,0.12181808,5.4750347,8.376389,991.05396,0,0
33.92,0.11700274,5.4083037,8.329041499999999,991.05896,0,0
33.96,0.05007659,5.355871700000002,8.239086,991.07153,0,0
34.0,0.05961846,5.4035373,8.409524000000001,991.0537,0,0
34.04,0.040472597,5.4178375999999995,8.092317,991.0336,0,0
34.08,-0.016893908,5.408305,8.248550999999999,991.05396,0,0
34.12,0.10735433,5.4559712,8.679378999999999,991.08136,0,0
34.16,0.10735433,5.4559712,8.679378999999999,991.0688,0,0
34.2,0.22205187,5.5417695,8.087577,991.0763,0,0
34.24,0.059511915,5.3749410000000015,8.452124000000001,991.0712,0,0
34.28,0.21244787,5.479806,8.130181,991.0763,0,0
34.32,0.1550725,5.436907,8.272212,991.0411,0,0
34.36,-0.012238428,5.3368096,8.082834,991.0438,0,0
34.4,-0.026595622000000003,5.3368106,8.224865,991.06116,0,0
34.44,0.021184667999999997,5.4655074999999975,8.134910000000001,991.0863,0,0
34.48,0.049854635999999994,5.4273753,8.305347,991.0763,0,0
34.52,0.011589572,5.3892435999999995,8.409502999999999,991.0509,0,0
34.56,0.15018610000000002,5.4893417,8.01181,991.0438,0,0
34.6,0.20753486,5.5131745,8.205921,991.0738,0,0
34.64,0.064122975,5.384478,8.125434,991.05896,0,0
34.68,-0.074509054,5.365412,8.172777,991.06116,0,0
34.72,-0.04991679,5.341563,8.65575,991.0867,0,0
34.76,-0.05947902,5.346329,8.414295,991.0311,0,0
34.8,0.14604987,5.4321269999999995,8.215448,991.0687,0,0
34.84,0.12692802,5.4035277000000015,8.276997,991.05615,0,0
34.88,0.06956904,5.4082947,8.05448,991.0412,0,0
34.92,-0.011691615,5.3558626,8.409559,991.0537,0,0
34.96,-0.011691615,5.3558626,8.409559,991.05615,0,0
35.0,-0.11685123,5.3177304,8.07815,991.07916,0,0
35.04,-0.08817509,5.3224964,8.51845,991.06635,0,0
35.08,-0.12641487,5.289130999999999,8.333808,991.0311,0,0
35.12,-0.15509634,5.3177304,8.357479,991.0637,0,0
35.16,-0.09296153,5.270065,8.310135,991.04364,0,0
35.2,0.0026318878,5.3987620000000005,8.381151,991.0311,0,0
35.24,-0.13598506,5.289130999999999,8.272260000000001,991.07916,0,0
35.28,-0.15032844,5.3320303,8.414291,991.09406,0,0
35.32,-0.092973456,5.298664,8.722027,991.0639,0,0
35.36,-0.14077285,5.2843647,8.38115,991.0716,0,0
35.4,-0.13121584,5.255766,8.338541000000001,991.05646,0,0
35.44,-0.035623744,5.3224974000000005,8.068679,991.0766,0,0
35.48,0.0408518,5.4273620000000005,8.158632,991.0741,0,0
35.52,-0.07386751,5.2795987,8.546853,991.07135,0,0
35.56,-0.045192644000000004,5.365396499999999,8.295929,991.0463,0,0
35.6,-0.045192644000000004,5.365396499999999,8.295929,991.0487699999999,0,0
35.64,-0.1885894,5.2319330000000015,7.8935046,991.0690300000001,0,0
35.68,-0.19815165,5.174735,8.665213,991.0888,0,0
35.72,-0.08863063,5.3463407,8.14439,991.0588,0,0
35.76,-0.06953042,5.3225083,8.537344000000001,991.0763,0,0
35.8,-0.012182295,5.4226065000000006,8.191730499999998,991.0362,0,0
35.84,0.0642755,5.4655059999999995,8.262746,991.0613,0,0
35.88,-0.12215583,5.289143599999999,8.471058,991.0438,0,0
35.92,-0.26078920000000005,5.1604470000000005,8.215398,991.0361,0,0
35.96,-0.12220337,5.2653120000000015,8.352694,991.0362,0,0
36.0,-0.055305167999999995,5.4083095000000005,8.494723,991.0514,0,0
36.04,-0.098332934,5.3749433,8.551536,991.0514,0,0
36.08,-0.11269136,5.4416757,8.049686999999999,991.0665,0,0
36.12,-0.31346209999999997,5.355879,8.456844,991.0588,0,0
36.16,-0.24656391,5.4130774000000015,8.59414,991.04114,0,0
36.2,-0.25614256,5.389245,8.532591,991.0537,0,0
36.24,-0.0697492,5.3797120000000005,8.362150999999999,991.0463,0,0
36.28,0.27437764,5.379713,9.067575,991.04865,0,0
36.32,0.1405146,5.5799093,7.723002,991.05896,0,0
36.36,0.1405146,5.5799093,7.723002,991.0766,0,0
36.4,-0.045926302999999995,4.9268913,8.168033,991.0512,0,0
36.44,-0.09852314,5.0841885,8.319532,991.06396,0,0
36.48,-0.18456912,4.9888577000000005,8.300593,991.0562,0,0
36.52,0.020943418000000002,4.9411926,7.6851195999999975,991.06885,0,0
36.56,0.19776760000000002,5.5227127000000005,8.371606,991.06146,0,0
36.6,-0.21809435,5.3797164,8.073336,991.0741,0,0
36.64,-0.12728755,5.5608463,8.608324,991.0639,0,0
36.68,-0.017371088,5.527481,8.745619,991.0691,0,0
36.72,0.05908671,5.189056,9.148041000000001,991.04114,0,0
36.76,0.28871918,5.2748485,7.5525660000000014,991.0613,0,0
36.8,0.11186139,5.1795173,8.499446,991.05896,0,0
36.84,0.05449359,5.4130793,7.3347820000000015,991.07916,0,0
36.88,0.36995047,5.575142,8.868729,991.0539,0,0
36.92,0.32692212,5.4893446,7.893439999999999,991.0438,0,0
36.96,0.31256747,5.6371082999999995,7.2353562999999985,991.04395,0,0
37.0,0.47029084,5.7419724,8.078078999999999,991.0566,0,0
37.04,0.19783188,5.7133737,8.082813,991.06396,0,0
37.08,0.24084501,5.9088025,8.1254225,991.0816699999999,0,0
37.12,0.15479843,5.784873,8.849785,991.0389,0,0
37.16,0.121324584,5.7562733,7.3963213,991.0667,0,0
37.2,0.14043869,5.7372074,7.609369,991.0591,0,0
37.24,-0.06988787,5.598977,7.741931399999999,991.0916,0,0
37.28,-0.03643433,5.5656120000000024,7.9029,991.0743,0,0
37.32,-0.079462714,5.7610407,8.0591345,991.09424,0,0
37.36,-0.17984875,5.699076,8.418949000000001,991.05646,0,0
37.4,-0.09860222,5.937404,7.6614428,991.04395,0,0
37.44,0.0973596,6.037502,8.556245,991.0641,0,0
37.48,-0.04126489,5.908805,8.305321000000001,991.05396,0,0
37.52,0.04476145,6.1614327000000015,7.3395004,991.0692,0,0
37.56,-0.15122065,5.8563733000000004,7.8082056,991.0592,0,0
37.6,-0.098652974,5.8230075999999995,8.186957000000001,991.04895,0,0
37.64,0.16422103,5.9469389999999995,8.224831,991.07935,0,0
37.68,0.082959294,5.9421725,8.31005,991.0717,0,0
37.72,-0.011385336499999999,6.0136400000000005,7.4532375,991.0768,0,0
37.76,0.13680886,5.9183083,8.267557,991.0491300000001,0,0
37.8,0.16554858,6.0041046,7.8556685,991.0641,0,0
37.84,0.35198128,5.989804299999999,7.5479345,991.0591,0,0
37.88,0.12261157,5.6752105,8.153944000000001,991.0718400000001,0,0
37.92,-0.07811994,5.503614,8.314916,991.0491300000001,0,0
37.96,0.31866467,5.918303,7.7325897,991.0946,0,0
38.0,0.36648297,5.818205,8.636863,991.0542,0,0
38.04,0.33304465,5.794371599999999,8.490098,991.0617699999999,0,0
38.08,0.44304103,6.05653,7.647379400000001,991.0768,0,0
38.12,-0.010979444,5.7371697,7.955121000000001,991.0819,0,0
38.16,-0.049197577,5.7514687,7.9787955,991.0643,0,0
38.2,-0.21165003,5.6084704000000025,7.420141,991.0592,0,0
38.24,-0.4076017,5.62277,7.4769554000000005,991.0491300000001,0,0
38.28,-0.053855627999999996,6.004093,8.206058500000001,991.0695,0,0
38.32,0.19475503,5.985026,8.75052,991.0617699999999,0,0
38.36,0.22823398,6.008858,8.168189,991.0441,0,0
38.4,0.26649266,6.089889,7.405953,991.0819,0,0
38.44,0.065822095,5.7514615,7.8794007,991.0643,0,0
38.48,-0.048852615,5.665662,8.059312,991.0693,0,0
38.52,0.003745541,5.851558,7.8273273,991.0719,0,0
38.56,-0.034432024,5.713326,8.471212,991.0693,0,0
38.6,-0.034411743,5.7323914,7.8888820000000015,991.0567599999999,0,0
38.64,0.20939888,5.9802513,7.9599020000000005,991.0921,0,0
38.68,-0.05344975,5.880153,8.395472,991.04425,0,0
38.72,0.21790643,5.9755106,8.381167999999999,991.08215,0,0
38.76,0.03148903,5.780082,8.220198,991.0644,0,0
38.8,0.036266267000000005,5.770549,7.4674270000000025,991.0617699999999,0,0
38.84,-0.011536822,5.7324166,7.4626923,991.0643,0,0
38.88,-0.20751387,5.579887,7.8745850000000015,991.0568,0,0
38.92,-0.23619775,5.6466193,7.7278175000000005,991.04675,0,0
38.96,-0.26010442,5.613253,8.116038,991.05164,0,0
39.0,-0.06413496,5.884947,7.5905194000000025,991.0592,0,0
39.04,0.21308859,6.0279440000000015,8.016616,991.067,0,0
39.08,-0.11672294,5.7038183,8.33382,991.0644,0,0
39.12,-0.11672802,5.827749,7.713611999999999,991.05176,0,0
39.16,-0.11673058,5.7943826,8.281741,991.0416,0,0
39.2,-0.13585742,5.7419505,8.087629,991.04926,0,0
39.24,-0.14063975,5.613254,8.504257,991.0568,0,0
39.28,0.031428143,5.756251,7.945596000000001,991.0568,0,0
39.32,-0.16455144,5.4368916,7.8367047,991.0518,0,0
39.36,-0.14065751,5.4416585,8.06869,991.05426,0,0
39.4,-0.14544237,5.832516,7.727811999999999,991.05945,0,0
39.44,-0.006830603,5.9469137000000005,8.210721000000001,991.072,0,0
39.48,-0.29362646,5.8134510000000015,8.13497,991.0469400000001,0,0
39.52,-0.38922504,5.8611154999999995,7.6473265,991.02435,0,0
39.56,-0.8719928,5.5036244000000005,7.784623599999999,991.0518,0,0
39.6,-0.80985785,5.618022,7.647325500000001,991.0469400000001,0,0
39.64,-0.5899895000000001,5.7610187999999996,7.9455924,991.0519400000001,0,0
39.68,-0.6138962,5.4702587,8.366954,991.06995,0,0
39.72,-0.14529148,5.9516764,7.4484963,991.04926,0,0
39.76,-0.14529148,5.9516764,7.4484963,991.072,0,0
39.8,-0.21220493,6.027941,8.116047,991.0927,0,0
39.84,-0.13094574,5.9945755,8.745724000000001,991.0825,0,0
39.88,-0.15484096,5.775314,8.759928,991.08215,0,0
39.92,-0.47030675,5.479787,8.646301,991.0447,0,0
39.96,-0.016221583,5.7038150000000005,6.842494,991.0546,0,0
40.0,0.27534777,5.9087768,7.1170893,991.08,0,0
40.04,0.25623232,5.861111,8.551614,991.0444,0,0
40.08,0.25623232,5.861111,8.551614,991.06476,0,0
40.12,0.036365166000000004,5.8563447,7.9314075,991.04205,0,0
40.16,-0.25998014,5.899244,7.1407623,991.1025,0,0
40.2,-0.39381212,5.6799817,7.9503460000000015,991.0723,0,0
40.24,-0.17871714,5.789613,8.542147,991.0598,0,0
40.28,0.14153223,6.1328044,7.6426105,991.0469400000001,0,0
40.32,0.28970742,6.0470066,8.111317,991.0924,0,0
40.36,0.21323182,5.923076,7.907736999999999,991.06976,0,0
40.4,0.12241812,6.108971599999999,7.330139999999999,991.0622599999999,0,0
40.44,-0.43681514,5.575117,7.831987,991.0698,0,0
40.48,-0.25996116,5.7133474,7.9929570000000005,991.0495599999999,0,0
40.52,-0.03530653,5.73718,7.4911103,991.047,0,0
40.56,0.022052392,5.6752150000000015,7.6142054,991.0773300000001,0,0
40.6,0.045955196,6.008874,7.656814999999999,991.0849599999999,0,0
40.64,0.022057444,5.951675,7.5763307,991.0498,0,0
40.68,0.012501657,5.8182116,8.371711,991.0598,0,0
40.72,-0.12225208,5.613272,7.5620437,991.04175,0,0
40.76,-0.012350857,5.8897333,7.6851344,991.0799,0,0
40.8,-0.20356014,5.6323395,8.267466,991.0596300000001,0,0
40.84,-0.55728275,5.2128830000000015,8.347947999999999,991.0622599999999,0,0
40.88,0.5563431,6.514154,8.24852,991.0623,0,0
40.92,0.48461175,6.1995625,9.380039,991.09265,0,0
40.96,0.6184291000000001,6.1328309999999995,9.095974,991.0445,0,0
41.0,0.30292779999999997,6.2853622000000025,7.533616499999999,991.0497,0,0
41.04,-0.5670479,5.665711,8.111208999999999,991.0497,0,0
41.08,-0.6005236999999999,5.6609445,8.248505999999999,991.03217,0,0
41.12,-0.49540228,5.932639,7.9786410000000005,991.0296599999999,0,0
41.16,-0.55755687,5.908807,8.158547,991.055,0,0
41.2,-0.3329574,5.989839599999999,8.272167999999999,991.0498699999999,0,0
41.24,-0.40468872,5.656182,7.9407570000000005,991.0372,0,0
41.28,-0.27566826,5.379721599999999,8.106458,991.0575,0,0
41.32,0.13534348,5.803947,6.6293187000000025,991.04224,0,0
41.36,0.3599772,6.1376066,6.719271000000001,991.055,0,0
41.4,0.14005478,5.813482,8.087508999999999,991.0649400000001,0,0
41.44,0.0922225,6.256772,7.434158,991.0675699999999,0,0
41.48,-0.16592118,5.5608554,8.996509,991.0852699999999,0,0
41.52,-0.4192679,5.594222,9.029647,991.0346699999999,0,0
41.56,0.09213686,6.2281747,7.509900599999999,991.0372,0,0
41.6,0.23549671,6.099479,7.486225599999999,991.0296599999999,0,0
41.64,0.19242705,5.8182529999999995,8.844994999999997,991.0626,0,0
41.68,0.18763016,5.83732,8.475711,991.0347,0,0
41.72,0.50948906,6.2567377,6.847222,991.0726300000001,0,0
41.76,0.17971425,5.9087777,8.6699705,991.0397300000001,0,0
41.8,-0.006682232,5.722882,7.301729700000001,991.0296599999999,0,0
41.84,0.026808082999999996,6.304401,6.9135113,991.05,0,0
41.88,-0.054416843,5.956442,7.689956,991.0601,0,0
41.92,-0.15954085,6.2853335999999995,7.3443475000000005,991.0448,0,0
41.96,0.036462842999999995,6.4283295,7.38696,991.06244,0,0
42.0,-0.50362325,6.561792,7.9030130000000005,991.0802,0,0
42.04,-0.21202353,6.31393,8.38119,991.04254,0,0
42.08,-0.44618636,6.4235597,7.557409,991.0675699999999,0,0
42.12,-0.7568419,6.080367,8.120807000000001,991.05255,0,0
42.16,-0.8237434000000001,5.7991395,8.111339,991.05005,0,0
42.2,-0.53692335,5.884937,7.0792410000000014,991.0855,0,0
42.24,-0.53209597,6.1089635,7.514811,991.05505,0,0
42.28,-0.53209597,6.1089635,7.514811,991.0600599999999,0,0
42.32,-0.45079172,5.5989413,9.285482,991.0373,0,0
42.36,-0.3790788,5.789603,7.865163000000001,991.045,0,0
42.4,-0.14961658,5.751469999999999,7.5716324,991.01715,0,0
42.44,-0.40291446,5.575106,7.524291499999999,991.05505,0,0
42.48,-0.17345220000000006,5.7562346,7.6947327,991.0424,0,0
42.52,-0.6418254,5.5703382,7.8841133,991.0246599999999,0,0
42.56,-0.32634246,5.851565,7.737348,991.05804,0,0
42.6,0.03695433,5.7180995999999995,8.684233,991.05255,0,0
42.64,-0.3931963,6.332985400000001,7.0650682,991.0529,0,0
42.68,-0.49350882,5.370139599999999,8.778929,991.0475,0,0
42.72,-0.20208253,5.422575,8.826260000000003,991.05005,0,0
42.76,-0.17815812,5.689501,8.196587,991.0348,0,0
42.8,-0.55573726,5.9135284000000015,7.770492599999999,991.0727,0,0
42.84,-0.9428633,5.5608025,8.859409,991.0656,0,0
42.88,-0.92849857,5.2271433,7.841514,991.0732,0,0
42.92,-0.7755194999999999,5.579868,7.9456735,991.04285,0,0
42.96,-0.7755194999999999,5.579868,7.9456735,991.0328,0,0
43.0,-0.49825275,5.737163,8.135053,991.0653,0,0
43.04,-0.15406886,5.9516573,7.633209700000001,991.0475,0,0
43.08,-0.15406886,5.9516573,7.633209700000001,991.04785,0,0
43.12,0.34783590000000003,6.5617757,8.116121000000001,991.0854,0,0
43.16,-0.15400544,6.0183873,7.685293700000001,991.04785,0,0
43.2,-0.22091003,5.842025,7.8557334,991.0403,0,0
43.24,-0.18264621,6.3949447,7.7989229999999985,991.0577,0,0
43.28,-0.93303734,5.8658557,7.9551615999999985,991.0631,0,0
43.32,-0.71792084,5.951653,7.9741015,991.0352,0,0
43.36,-0.77047324,6.1280155,7.3396940000000015,991.0476,0,0
43.4,-0.67007214,5.8515544,7.9835753,991.04785,0,0
43.44,-0.48841417,5.899219,7.732653999999999,991.05023,0,0
43.48,-0.08211813,6.13278,7.543278999999999,991.0552,0,0
43.52,0.17602931,6.1423125,7.5243449999999985,991.0452,0,0
43.56,0.38635337,6.2996087,7.5054089999999976,991.0604,0,0
43.6,0.7305246,6.6475663,7.065111,991.1058300000001,0,0
43.64,-0.10590303,6.1089444,7.8320880000000015,991.0555400000001,0,0
43.68,-0.26840368,6.0279126,7.8510275,991.05786,0,0
43.72,-0.13552392,6.213831400000001,7.656828999999999,991.0631,0,0
43.76,-0.13552392,6.213831400000001,7.656828999999999,991.0704,0,0
43.8,0.06042716,6.0184035000000025,7.566873599999999,991.0199,0,0
43.84,0.012622163,6.099436,7.2544020000000025,991.0780599999999,0,0
43.88,-0.38889533,5.8563410000000005,7.595277999999999,991.0605,0,0
43.92,-0.10690087,6.2757983,7.4674478,991.0401,0,0
43.96,-0.22163709,6.7381554,7.481649000000001,991.07574,0,0
44.0,-0.1308278,6.804887299999999,7.5242580000000014,991.07574,0,0
44.04,-0.04480531,6.8287195999999994,8.286496000000001,991.0780599999999,0,0
44.08,-0.17866074,6.2567344,7.803584599999999,991.04285,0,0
44.12,-0.10697761,6.0803714000000015,7.448503,991.04535,0,0
44.16,-0.08787235,6.3949647,6.9892645,991.0402,0,0
44.2,-0.10701251,6.1757035,7.56686,991.05786,0,0
44.24,-0.22652155,6.1947703,6.975058,991.0705,0,0
44.28,-0.11182024,6.228136,7.713624,991.0528,0,0
44.32,0.09370439,6.394966,7.5857944,991.06287,0,0
44.36,-0.19787765,6.2901025,7.671012400000001,991.0581699999999,0,0
44.4,-0.23612997,6.3187017,7.6520740000000025,991.0401,0,0
44.44,-0.24092375,6.3091693,7.3253984,991.0654,0,0
44.48,-0.3508662,6.2281375,7.547915,991.0427,0,0
44.52,-0.33176094,6.1375737,7.7704309999999985,991.073,0,0
44.56,0.19398953,6.547498,7.623661,991.06067,0,0
44.6,0.19398953,6.547498,7.623661,991.05786,0,0
44.64,0.08881992,6.61423,7.259111,991.0732,0,0
44.68,-0.25533992,6.3044043,7.680472,991.0553,0,0
44.72,-0.18324909,6.313928,7.2922864,991.08344,0,0
44.76,-0.18324909,6.313928,7.2922864,991.0531,0,0
44.8,-0.082868114,6.3901925,7.3348966,991.09827,0,0
44.84,0.07486665,6.6523533,7.207068,991.0682400000001,0,0
44.88,-0.28839463,6.204297,7.6284304,991.0758,0,0
44.92,0.09877199,6.1756972999999995,8.371733,991.11597,0,0
44.96,0.003178507,6.204297,7.8840885,991.0654,0,0
45.0,0.046199277000000004,6.3139277,7.481664,991.078,0,0
45.04,-0.09719357,6.2233624,7.5006021999999986,991.0481599999999,0,0
45.08,-0.17366919,6.2281294,7.4201174,991.0581699999999,0,0
45.12,-0.20712526,6.151864499999999,7.4390554,991.071,0,0
45.16,-0.35051686,6.013634,7.694713,991.06335,0,0
45.2,-0.34573323,6.2900944,7.027162599999999,991.0708,0,0
45.24,-0.5751613,5.9993343,7.813073599999999,991.06573,0,0
45.28,-0.21667346,6.4235578,7.3348994,991.0506,0,0
45.32,-0.15931454,6.433091,7.2780867,991.0886,0,0
45.36,-0.13063319999999998,6.437857599999999,7.950372,991.0960699999999,0,0
45.4,-0.20232646,6.294861,7.817809,991.0907,0,0
45.44,-0.15930569,6.328226,7.7136526,991.04565,0,0
45.48,-0.26923865,6.44739,7.3017597000000025,991.04565,0,0
45.52,-0.54646474,6.3758919999999994,7.8982953999999985,991.06067,0,0
45.56,-0.7997917,6.204296,7.3633070000000025,991.10614,0,0
45.6,-0.6707333000000001,5.8944697,8.281783,991.0506,0,0
45.64,-0.646833,5.7705383,8.063999,991.10364,0,0
45.68,-0.31224418,5.8182044,7.9977183000000025,991.0481599999999,0,0
45.72,-0.27330443,5.789588,7.4249196,991.06067,0,0
45.76,-0.2637144,5.598925,7.5669546,991.05835,0,0
45.8,-0.30671743,5.64659,7.2592196,991.0658599999999,0,0
45.84,-0.120274596,5.942116,7.131393400000001,991.08606,0,0
45.88,-0.13934820000000006,5.737153,8.011996,991.076,0,0
45.92,0.05665423,6.070811,7.690060000000001,991.07324,0,0
45.96,0.11402707,6.1947412,7.746875,991.0987,0,0
46.0,-0.024556799999999997,6.156608,8.078285000000001,991.07074,0,0
46.04,-0.21092346,6.0422096,8.343416,991.0811,0,0
46.08,-0.19656885,6.0183764,8.471247,991.0606,0,0
46.12,-0.29691428,5.8467793,8.201388,991.08374,0,0
46.16,-0.27774940000000004,5.8134127,7.7705617,991.05585,0,0
46.2,-0.25383520000000004,5.8181787000000025,7.709016,991.076,0,0
46.24,-0.4688959,5.7180805,8.035692,991.0736699999999,0,0
46.28,-0.42584723,5.918275,8.182462,991.07074,0,0
46.32,-0.46405524,5.9135075,7.874728699999999,991.0581,0,0
46.36,-0.6265381,5.8420086,7.95995,991.0862400000001,0,0
46.4,-0.53569144,5.8277082,8.281893,991.0886,0,0
46.44,-0.64561164,5.660878,8.007298,991.0886,0,0
46.48,-0.50696695,5.7037764000000015,7.8273945000000005,991.0962,0,0
46.52,0.028416768,5.9802356,8.272432,991.07104,0,0
46.56,-0.13884597,5.8467712,7.8463387,991.07324,0,0
46.6,-0.12449129,5.822938,7.803730499999999,991.0584,0,0
46.64,-0.30607823,5.8706026,7.5906863,991.07355,0,0
46.68,-0.545038,5.703772,8.10674,991.071,0,0
46.72,-0.38290524,5.8801445999999995,7.8084373,991.0761,0,0
46.76,-0.3828913,5.903976999999999,8.021486,991.0761,0,0
46.8,-0.3733247,5.875376999999999,7.765828999999999,991.0938,0,0
46.84,-0.2585885,5.8134117,8.177725,991.0885,0,0
46.88,-0.15820566,5.923042,7.7184880000000025,991.091,0,0
46.92,-0.005237952,5.942108599999999,7.6427383,991.0635,0,0
46.96,-0.4306196,6.0898705,7.278191599999999,991.0632,0,0
47.0,-0.4306196,6.0898705,7.278191599999999,991.0862400000001,0,0
47.04,-0.4258119000000001,5.9659394999999975,8.826344500000003,991.08374,0,0
47.08,-0.4783827000000001,5.9516397,8.409718,991.061,0,0
47.12,-0.6121963,6.1041694,7.656948599999999,991.0382699999999,0,0
47.16,-0.7555834,6.1280016999999996,7.5527929999999985,991.0685,0,0
47.2,-0.68387234,6.0755690000000016,7.638013000000001,991.04584,0,0
47.24,-0.39228344,6.1327677000000005,7.60014,991.04834,0,0
47.28,-0.39228344,6.1327677000000005,7.60014,991.0585,0,0
47.32,-0.16283894,6.3329629999999995,7.571734399999999,991.07104,0,0
47.36,-0.3109849,6.1994977,6.8047633,991.05334,0,0
47.4,-0.21538186,6.5188574999999975,6.4449496,991.061,0,0
47.44,-0.44957129999999995,6.013602,7.5717396999999975,991.1039,0,0
47.48,-0.21057414,6.3281946,6.918392699999999,991.0786,0,0
47.52,-0.16275518,6.537922,7.4675850000000015,991.0788,0,0
47.56,-0.23921812,6.571288000000001,7.3681645000000024,991.071,0,0
47.6,-0.32524759999999997,6.4854894,7.458118400000001,991.0936,0,0
47.64,-0.58812284,6.1708965,7.567011,991.0712,0,0
47.68,-0.38735712,6.1232305,7.709044500000001,991.0811,0,0
47.72,-0.119831756,6.4282937,7.888939,991.0988,0,0
47.76,-0.024228051,6.456893,7.1977160000000024,991.0939300000001,0,0
47.8,0.009238198000000001,6.371094,7.514922,991.0836,0,0
47.84,-0.28709826,6.2519300000000015,7.363422,991.0938,0,0
47.88,-0.28709826,6.2519300000000015,7.363422,991.0712,0,0
47.92,-0.18193114,6.2995962999999975,7.2876725,991.079,0,0
47.96,-0.37311566,6.1661325,7.6190820000000015,991.0636599999999,0,0
48.0,-0.51172614,6.175665,7.893677,991.0813,0,0
48.04,-0.50693876,6.1184660000000015,7.9126163,991.1014,0,0
48.08,-0.13888629,6.4568915,7.571739,991.04846,0,0
48.12,0.05231732,6.571289,7.4912558,991.0939300000001,0,0
48.16,-0.12931141,6.4139924000000015,7.5859437000000005,991.11676,0,0
48.2,-0.3061566,6.2423964000000005,7.884212,991.06854,0,0
48.24,-0.30136538,6.266228,7.5149300000000006,991.07635,0,0
48.28,-0.43997198,6.066033,7.5859466,991.0612,0,0
48.32,-0.43997198,6.066033,7.5859466,991.0686599999999,0,0
48.36,-0.2774435,6.113698,7.784793400000001,991.0813,0,0
48.4,-0.24398106,6.1851964000000015,7.827402999999999,991.0663,0,0
48.44,-0.09579953599999999,6.452123,7.595418,991.0536,0,0
48.48,0.047606006,6.4282904,7.9647026,991.0991,0,0
48.52,0.047606006,6.4282904,7.9647026,991.09644,0,0
48.56,-0.18658917,6.1708956,7.955235000000001,991.0713,0,0
48.6,-0.22004399,6.1422963,8.007314,991.0712,0,0
48.64,-0.1435557,6.1994944000000025,7.699578999999999,991.0888699999999,0,0
48.68,-0.10052987,6.242394,7.387108299999999,991.0813,0,0
48.72,-0.005306496999999999,6.256702400000001,7.3491993,991.0636599999999,0,0
48.76,-0.23952451,6.1232386,7.557512299999999,991.0888699999999,0,0
48.8,-0.15349565,6.2900686,7.439151299999999,991.08905,0,0
48.84,-0.19174549,6.166138,7.8036995,991.0863,0,0
48.88,-0.20608869,6.1661386,7.519634700000001,991.08136,0,0
48.92,0.037673652,6.3186684,7.3160553,991.0966,0,0
48.96,-0.05315402,6.309136,7.562243,991.0788,0,0
49.0,-0.05315402,6.309136,7.562243,991.08136,0,0
49.04,-0.120086476,6.2710037000000005,7.7658205,991.10925,0,0
49.08,-0.07707206,6.3282027,7.477022,991.1293,0,0
49.12,-0.057960473,6.2519374,7.699538,991.11176,0,0
49.16,-0.096202716,6.194739,7.5906463,991.0713,0,0
49.2,-0.100997716,6.099408599999999,7.557504,991.1116300000001,0,0
49.24,-0.100997716,6.099408599999999,7.557504,991.07635,0,0
49.28,0.0041465163,6.0946419999999994,7.637987599999999,991.0864,0,0
49.32,0.028041765,6.185207,7.4202056,991.08386,0,0
49.36,0.042369767999999995,6.223339599999999,7.8936443,991.0914,0,0
49.4,0.12839864,6.385403,7.576439,991.06104,0,0
49.44,0.12839101,6.3949356,7.732673599999999,991.0841,0,0
49.48,0.06624974,6.3615699999999995,7.8652368,991.07385,0,0
49.52,-0.25878453,6.1947410000000005,7.5101557,991.1089999999999,0,0
49.56,-0.28269115,6.1280093,7.604842999999999,991.0914,0,0
49.6,-0.26835929999999997,6.1327763,7.642717399999999,991.0989400000001,0,0
49.64,-0.16799489999999995,6.166142,7.808420699999999,991.10925,0,0
49.68,-0.024608388999999998,6.3091393,7.4344015,991.1193,0,0
49.72,-0.24429569,6.0946393,7.7042800000000025,991.0740400000001,0,0
49.76,-0.09612179,6.194737,7.652201,991.11176,0,0
49.8,-0.09612179,6.194737,7.652201,991.1242699999999,0,0
49.84,-0.25863513,6.118472,7.590654,991.1243,0,0
49.88,-0.23473608,6.1661377,7.6569357,991.11194,0,0
49.92,-0.29687357,6.142305,7.955203,991.1067,0,0
49.96,-0.3016534,6.161371,7.770561,991.1093,0,0
50.0,-0.09134197,6.261469,7.6095915,991.0791,0,0
50.04,0.009033903499999999,6.3091345,7.7516235999999985,991.0790400000001,0,0
50.08,-0.14391981,6.2662354,7.8557806,991.11426,0,0
50.12,-0.26341492,6.113705599999999,7.6758729999999975,991.1142,0,0
50.16,-0.33511198,6.0994062000000016,7.746889,991.0868,0,0
50.2,-0.29687357,6.0994062000000016,7.78003,991.0818,0,0
50.24,-0.17737845,6.189971,7.5385756,991.09924,0,0
50.28,-0.06744296,6.237636,7.4912314,991.08154,0,0
50.32,-0.16781884,6.132772,7.6190605,991.11426,0,0
50.36,-0.12958041,6.189971,7.8699837,991.0667,0,0
50.4,-0.110461205,6.2662354,7.590654,991.10425,0,0
50.44,-0.048323758,6.223336,7.6190605,991.0967400000001,0,0
50.48,-0.16781884,6.1232386,7.936265,991.11945,0,0
50.52,-0.11524099,6.1756706,7.6190605,991.0892,0,0
50.56,-0.033984333,6.2281027,7.6900764000000015,991.0891,0,0
50.6,-0.07222277,6.2138032999999995,7.6190605,991.1045,0,0
50.64,-0.13436022,6.180437599999999,7.6664047,991.07654,0,0
50.68,-0.14869961,6.2138032999999995,7.5385756,991.1095,0,0
50.72,-0.14869961,6.2471695,7.6332636,991.0967400000001,0,0
50.76,-0.14869961,6.261469,7.5338407000000025,991.0667,0,0
50.8,-0.086562164,6.313901,7.7279515,991.09924,0,0
50.84,0.05683194,6.4807305,7.5385756,991.10175,0,0
50.88,0.037712723,6.3425,7.5527786999999975,991.07935,0,0
50.92,-0.2299563,6.2281027,7.207167,991.07935,0,0
50.96,-0.23951589,6.256702400000001,7.2545114,991.11456,0,0
51.0,-0.32555234,6.118472,7.865249,991.1019,0,0
51.04,-0.22517648,6.189971,7.8273740000000025,991.1321,0,0
51.08,-0.17737845,6.2519355,7.6143259999999975,991.13995,0,0
51.12,0.08551076,6.3329673,7.6143259999999975,991.0818,0,0
51.16,0.08551076,6.3329673,7.6143259999999975,991.1045,0,0
51.2,-0.13436022,6.1661377,7.6190605,991.1069,0,0
51.24,-0.14391981,6.170904,7.6569357,991.11475,0,0
51.28,-0.12002079,6.21857,7.671139,991.1069,0,0
51.32,-0.22517648,6.1470714000000015,7.671139,991.1122,0,0
51.36,-0.04354395,6.2662354,7.600123,991.1118,0,0
51.4,-0.04354395,6.2662354,7.600123,991.12463,0,0
51.44,-0.019644916000000002,6.2328696,7.4912314,991.1245,0,0
51.48,-0.033984333,6.2853017,7.6095915,991.1019,0,0
51.52,-0.04354395,6.290068,7.590654,991.0917,0,0
51.56,-0.20605725,6.108939,7.8321085,991.1094400000001,0,0
51.6,-0.23951589,6.089873000000001,7.529106599999999,991.0994,0,0
51.64,-0.33033216,6.046974,7.6332636,991.09686,0,0
51.68,-0.16781884,6.1375384,7.590654,991.1019,0,0
51.72,-0.076228425,6.3186483,7.3255982,991.0715,0,0
51.76,-0.076228425,6.3186483,7.3255982,991.1120599999999,0,0
51.8,-0.26259512,6.0850870000000015,8.139919,991.1346,0,0
51.84,-0.3486011,6.0564860000000005,8.192001,991.13214,0,0
51.88,-0.38204452,6.075552,8.0120945,991.1118,0,0
51.92,-0.34854025,5.908721400000001,7.988428,991.1120599999999,0,0
51.96,-0.33896542,6.0183516,7.813256,991.1070599999999,0,0
52.0,-0.32937536,6.0517173,7.5339284,991.10455,0,0
52.04,-0.32454985,6.027883,7.8416690000000004,991.09955,0,0
52.08,-0.17158096,6.185179,7.6949043,991.1095,0,0
52.12,-0.30058998,6.004049,7.936362700000001,991.1120599999999,0,0
52.16,-0.20975848,6.051714,7.936364,991.1094400000001,0,0
52.2,-0.18103398,6.070779,7.6286325,991.1170699999999,0,0
52.24,-0.23358136,5.9897465999999975,7.6523075,991.1245,0,0
52.28,-0.23356615,5.9945135,7.699652,991.1095,0,0
52.32,-0.30043775,5.9420800000000025,7.657047,991.1223,0,0
52.36,-0.33388114,5.9611454,7.7801423,991.1045,0,0
52.4,-0.32429109999999994,6.013577,7.657050999999999,991.1223,0,0
52.44,-0.21910500000000002,6.1041408,7.6901946,991.1047,0,0
52.48,-0.28119674,6.085074,7.7896214000000015,991.1324,0,0
52.52,-0.17124608,6.161338,7.694935000000001,991.11957,0,0
52.56,-0.16645102,6.1232050000000005,7.728077000000001,991.1273,0,0
52.6,-0.22855805,6.042173,7.9648,991.1273,0,0
52.64,-0.26195577,6.147036,7.8133050000000015,991.1472,0,0
52.68,-0.26195577,6.147036,7.8133050000000015,991.1324,0,0
52.72,-0.4100992,5.93254,8.144715,991.1070599999999,0,0
52.76,-0.15806717,6.0994015,7.8842044000000016,991.1248,0,0
52.8,-0.16287932,6.080336,7.538589999999999,991.1097,0,0
52.84,-0.16287932,6.080336,7.538589999999999,991.1148,0,0
52.88,-0.24416828,5.927807,7.666416000000001,991.0945,0,0
52.92,-0.22985049,5.95164,7.694821000000001,991.1349,0,0
52.96,-0.15339519,6.0755715,7.6427402,991.1097,0,0
53.0,-0.19164437,6.089871,7.585926,991.1072,0,0
53.04,-0.22036633,6.0994053,8.106707,991.1299,0,0
53.08,-0.22036633,6.0994053,8.106707,991.11975,0,0
53.12,-0.13435142,6.1756706,7.637998599999999,991.1298,0,0
53.16,-0.28733748,5.951643,7.817903,991.155,0,0
53.2,-0.2443408,6.075575,7.5385714,991.09973,0,0
53.24,-0.20611313,6.180439,7.533836,991.1174,0,0
53.28,-0.37820762,5.9850106,8.272401,991.1475,0,0
53.32,-0.33522174,6.027909999999999,7.9599275999999985,991.09955,0,0
53.36,-0.21095763,6.0946419999999994,7.836832000000001,991.1248,0,0
53.4,-0.3496043,6.0279110000000005,7.6900625,991.08966,0,0
53.44,-0.36873436,5.9564137000000015,7.609576,991.15,0,0
53.48,-0.25882035,6.1089435,7.5385585000000015,991.1475,0,0
53.52,-0.23973350000000002,6.2281084,7.8794327000000015,991.1175,0,0
53.56,-0.43572700000000003,6.094645,7.8983690000000015,991.1374,0,0
53.6,-0.30668312,6.104179,7.865226700000001,991.115,0,0
53.64,-0.12029229,6.2281094,7.746864299999999,991.11975,0,0
53.68,-0.2828272,6.0040817,7.7705345,991.1274,0,0
53.72,-0.43074554,5.689483,7.8841834,991.1525,0,0
53.76,-0.29691613,5.699016,7.746886,991.1223,0,0
53.8,-0.29693133,5.822947,7.6569304,991.12494,0,0
53.84,-0.29693133,5.822947,7.6569304,991.08966,0,0
53.88,-0.6697763000000001,5.980243700000001,7.7752886,991.1325699999999,0,0
53.92,-0.76059765,5.8134146,8.348151,991.1652,0,0
53.96,-0.44514072,5.822948,8.191915,991.1224,0,0
54.0,-0.5455268,5.7419167,8.064085,991.0896,0,0
54.04,-0.46906006,6.156607599999999,8.09249,991.1352,0,0
54.08,-0.22051534,6.490267,7.690065400000001,991.12494,0,0
54.12,0.013684898999999999,6.4521346,7.940988000000001,991.1098599999999,0,0
54.16,-0.58380073,5.9611792999999995,8.689022999999999,991.0971699999999,0,0
54.2,-0.72721004,5.9516462999999975,7.8368287,991.1274400000001,0,0
54.24,-0.6555281999999999,6.6427975,6.719508,991.1251,0,0
54.28,-0.5216988,6.4092364,7.3775897,991.1049,0,0
54.32,-0.8371709,5.880148999999999,8.348142,991.1249,0,0
54.36,-1.0905156999999999,6.1041775000000005,7.3633842000000005,991.1326,0,0
54.4,-1.0188287,5.827718,7.798949,991.1326,0,0
54.44,-0.53130406,6.0755787,8.400217,991.1300699999999,0,0
54.48,-0.7368458000000001,5.9802475,7.7231960000000015,991.1175,0,0
54.52,-0.7368458000000001,5.9802475,7.7231960000000015,991.1098,0,0
54.56,-0.66994876,5.9945483,8.187166,991.1301,0,0
54.6,-0.5982568,6.0183805999999995,7.67585,991.10724,0,0
54.64,-0.6126064,6.0612803,7.571692,991.12,0,0
54.68,-0.7273318,5.780053,8.111413,991.1199,0,0
54.72,-0.5976576,5.908735299999999,8.035719,991.13776,0,0
54.76,-0.6693319000000001,5.6942395999999995,7.638031,991.12006,0,0
54.8,-0.6119666,5.8229365,7.5054690000000015,991.1174,0,0
54.84,-0.5689331,5.8706017,7.8889575,991.12,0,0
54.88,-0.21520483,6.21856,7.808474499999999,991.16034,0,0
54.92,-0.41594142,6.1422944,7.761132000000001,991.11755,0,0
54.96,-0.33466947,6.347256,7.666445299999999,991.0922,0,0
55.0,-0.36334074,6.4282875,7.410788,991.1326,0,0
55.04,-0.59275603,6.0898614,7.3681800000000015,991.0998,0,0
55.08,-0.6931090999999999,5.770501599999999,8.177764999999999,991.0924,0,0
55.12,-0.5353604000000001,6.1422925,7.193010000000001,991.1175,0,0
55.16,-0.41107023,6.1661253,7.978923,991.14526,0,0
55.2,-0.49231935,6.142291999999999,7.7753440000000005,991.12,0,0
55.24,-0.5400944999999999,6.2757554,7.5765014000000015,991.1123699999999,0,0
55.28,-0.50662065,6.3186535999999975,7.936317,991.1225599999999,0,0
55.32,-0.6261081000000001,6.247155,7.5907063,991.11005,0,0
55.36,-0.67867833,6.17089,7.5054880000000015,991.1303,0,0
55.4,-0.5400411999999999,6.1089244,8.390823,991.10736,0,0
55.44,-0.51613456,6.1661234,7.9836649999999985,991.1023,0,0
55.48,-0.5065598,6.2519207,7.6049147,991.1326,0,0
55.52,-0.64037144,6.0564914000000005,7.8416367,991.1225599999999,0,0
55.56,-0.73595226,5.9325604000000025,7.58598,991.0973,0,0
55.6,-0.7168254,5.94686,7.514964999999999,991.1123,0,0
55.64,-0.6403409999999999,6.032657,7.557575,991.0948,0,0
55.68,-0.42521936,6.1470537000000025,7.533906,991.11005,0,0
55.72,-0.3248359,6.1899533,7.5433755000000025,991.1224,0,0
55.76,-0.36816132,6.094629299999999,7.4155183000000005,991.1098,0,0
55.8,-0.41117829999999994,6.099396,7.4675970000000005,991.11755,0,0
55.84,-0.36337647,6.185194,7.382378599999999,991.08246,0,0
55.88,-0.262998,6.2566924,7.6380360000000005,991.11224,0,0
55.92,-0.36815247,6.209027,7.841614999999999,991.1326,0,0
55.96,-0.29645288,6.2805247,7.846350699999999,991.0974,0,0
56.0,-0.28211087,6.213793,7.4628634000000025,991.1025,0,0
56.04,-0.3442458,6.17566,7.666444,991.1326,0,0
56.08,-0.23908629999999997,6.2328589999999995,7.581224400000001,991.1151,0,0
56.12,-0.43027598,6.1184616,7.661709299999999,991.0997,0,0
56.16,-0.39681602,6.1613607,7.529146000000001,991.1276,0,0
56.2,-0.286878,6.20426,7.652241,991.0997,0,0
56.24,-0.31077319999999997,6.2519245,7.557553299999999,991.148,0,0
56.28,-0.32511008,6.1804266,7.8558210000000015,991.1151,0,0
56.32,-0.3298886,6.18996,7.7185235,991.0922,0,0
56.36,-0.27252844,6.2566915000000005,7.3729124000000015,991.0974,0,0
56.4,-0.38246268,6.156594,7.5338816999999985,991.1098599999999,0,0
56.44,-0.40635663,6.18996,7.8984320000000015,991.1301,0,0
56.48,-0.3298772,6.2852907,7.406053999999999,991.11,0,0
56.52,-0.33465576,6.2614574,7.4581327,991.0896,0,0
56.56,-0.4589281,6.147060400000001,7.817947,991.0922,0,0
56.6,-0.43980634,6.199492,7.462867299999999,991.0695,0,0
56.64,-0.34898758,6.3043566,7.5102115000000005,991.1148,0,0
56.68,-0.36810553,6.2042589999999995,8.021527,991.10736,0,0
56.72,-0.5210567,6.1089277000000015,7.642775500000001,991.0824,0,0
56.76,-0.40669346,6.2471666,7.5433207,991.1175,0,0
56.8,-0.5118663,6.185201599999999,7.4912405,991.0921,0,0
56.84,-0.65049195,5.99454,7.846319999999999,991.0972,0,0
56.88,-0.49754965,6.218568299999999,7.945741,991.0695,0,0
56.92,-0.46409672,6.251933999999999,7.6143327,991.0972,0,0
56.96,-0.42109567,6.1327705,7.8652539999999975,991.1125,0,0
57.0,-0.58840024,6.1232375999999995,7.699548700000001,991.1049,0,0
57.04,-0.5884059,6.0755725,7.5527820000000006,991.1176,0,0
57.08,-0.39244536,6.247169,7.893658,991.1705300000001,0,0
57.12,-0.58842874,6.266235,7.377607000000001,991.1757,0,0
57.16,-0.6601429,6.21857,8.229797999999999,991.04926,0,0
57.2,-0.7509706,6.2185707,6.6485057,991.0695,0,0
57.24,-0.4259554,5.989776,9.224021,991.1278699999999,0,0
57.28,-0.4259554,5.989776,9.224021,991.1932400000001,0,0
57.32,-0.52634835,6.385401,7.0130525,991.0998,0,0
57.36,-0.5598184,6.256704,8.02148,991.047,0,0
57.4,-0.60284805,6.29007,6.889956,991.0922,0,0
57.44,-0.703241,6.075576,7.978867,991.0799,0,0
57.48,-0.5885372,6.2138057,7.491223,991.0794,0,0
57.52,-0.79408014,6.151841,7.4012675,991.0774,0,0
57.56,-0.76540697,6.3615694000000005,7.633253,991.1304,0,0
57.6,-0.86102015,6.1518416,7.4770164,991.1077,0,0
57.64,-0.7224173,6.304371400000001,7.500687599999999,991.12036,0,0
57.68,-0.837144,6.1137094,7.803688,991.1125,1,2
57.72,-0.91841215,6.104177,7.472278999999999,991.0924699999999,1,2
57.76,-0.77024394,6.2567067000000005,7.3444495,991.1278699999999,1,2
57.8,-0.8515176,6.1899757000000015,7.675856,991.1225599999999,1,2
57.84,-0.9710242,6.175676,7.5385575,991.12,1,2
57.88,-0.89455867,6.00408,7.5906350000000025,991.1102,1,2
57.92,-0.89455867,6.00408,7.5906350000000025,991.0998,1,2
57.96,-0.6125675,6.318673,7.2450213,991.1152,1,2
58.0,-0.66993654,6.204276,7.3349743,991.0950300000001,1,2
58.04,-0.6556028,6.166144,7.4959440000000015,991.0972,1,2
58.08,-0.5504585999999999,6.2185764,7.642709299999999,991.10504,1,2
58.12,-0.29236633,6.19951,7.197674,991.1026,1,2
58.16,-0.15854318,5.9897823,7.074578,991.10736,1,2
58.2,-0.024714387999999997,5.9659495000000025,7.036702,991.1201,1,2
58.24,0.2190442,5.956417,7.3870473,991.0921,1,2
58.28,-0.018738508,6.0183519999999975,6.757482,991.153,1,2
58.32,0.30152875,6.2185473,8.068914,991.14764,1,2
58.36,0.26332092,6.1565814,7.8321958,991.10504,1,2
58.4,0.08648856,6.9525957,7.008412,991.1148,1,2
58.44,0.19165446,7.743844,7.164648,991.10504,1,2
58.48,0.58361876,8.306296000000001,5.4602637000000005,991.1301,1,2
58.52,0.6218776,6.4854717000000015,7.7753897,991.1303,1,2
58.56,-0.21456766,5.5083269999999995,8.632319,991.1125,1,2
58.6,0.100909576,5.8467519999999995,8.386132,991.1429,1,2
58.64,1.1477171999999998,6.3138742,8.442946000000001,991.1301,1,2
58.68,0.69365627,6.1756434,7.903226400000001,991.11755,1,2
58.72,0.12965982,6.4759364,8.116277,991.1174,1,2
58.76,-0.13320902,6.890625999999999,8.637063000000001,991.1276,1,2
58.8,-0.15708764,7.066988,8.3198595,991.1756,1,2
58.84,-0.3864876,5.0983996,10.91905,991.1477,1,2
58.88,0.19666885,4.941103,10.085797,991.0897,1,2
58.92,0.3830914,5.2080293,9.361434,991.0972,1,2
58.96,-0.61585695,4.779039,6.577607,991.0945,1,2
59.0,-0.6206164000000001,4.7647386,6.6107497,991.1098,1,2
59.04,-0.28124014,4.659873999999999,7.7091327000000005,991.1451400000001,1,2
59.08,-0.82133764,3.6922626000000003,8.6796875,991.12494,1,2
59.12,-0.8834443999999999,4.817168700000002,7.354057000000001,991.1070599999999,1,2
59.16,-0.3815446,5.4272876,6.8048673,991.0971699999999,1,2
59.2,-0.5870558000000001,4.855301,10.393548,991.1627,1,2
59.24,-0.95031065,4.6408057000000005,10.488237,991.13995,1,2
59.28,-0.6737003,6.09462,7.3918800000000005,991.1171,1,2
59.32,-0.6402492,6.175651599999999,8.646496,991.1122,1,2
59.36,-0.6402492,6.175651599999999,8.646496,991.1424599999999,1,2
59.4,0.3013671,7.0812984,8.504464,991.1324,1,2
59.44,0.24400435,7.6056194,10.251458999999999,991.08435,1,2
59.48,-2.5282892999999995,5.598898999999999,6.3692465,991.0768,1,2
59.52,-0.80278534,4.6741867,8.281946000000001,991.1423300000001,1,2
59.56,0.41127974,4.678954,9.048919,991.1348,1,2
59.6,-0.44909,3.9449047999999993,7.2261724,991.08185,1,2
59.64,-0.28180197,5.0507455000000006,6.014164,991.0994,1,2
59.68,-0.06671335,5.2509413,6.506542,991.0945,1,2
59.72,0.37302357,5.44637,8.26774,991.1221300000001,1,2
59.76,0.18182631,6.0803223,7.581250999999999,991.1221300000001,1,2
59.8,-0.5638280999999999,6.3996816,7.6854076000000004,991.0942,1,2
59.84,-1.448097,6.242385400000001,7.3824053,991.0943599999999,1,2
59.88,-1.6345145,6.1422877,7.278248,991.11456,1,2
59.92,-1.0513834,6.480713400000001,7.6901402,991.1094400000001,1,2
59.96,-0.95579225,6.4997796999999995,8.087831,991.10693,1,2
60.0,-0.8171805999999999,6.4616475,8.343488,991.13495,1,2
60.04,-1.6201927999999999,5.7609639999999995,8.764849,991.11456,1,2
60.08,-2.5713787,5.856294999999999,8.987366,991.09186,1,2
60.12,-0.6021072,5.703765,8.921083,991.1144400000001,1,2
60.16,-0.850662,4.516893,10.099950999999999,991.0942,1,2
60.2,-1.6632314,4.435861599999999,10.076277000000001,991.0791,1,2
60.24,-2.4423467999999997,4.9315834,8.736441000000001,991.10425,1,2
60.28,-1.5727127,4.936357,8.442881,991.07654,1,2
60.32,-1.3433069,4.569332599999999,7.2450740000000025,991.0891,1,2
60.36,-1.7639378000000001,4.154643,8.234564,991.0816,1,2
60.4,-2.4809248,3.682754,7.9268259999999975,991.0564,1,2
60.44,-1.3337967,5.131787999999999,7.1977253,991.0716,1,2
60.48,-0.43521005,6.0374339999999975,9.129361,991.0989400000001,1,2
60.52,-1.1569768999999999,5.7085422999999995,7.7185070000000024,991.0942,1,2
60.56,-1.6301857,5.5846114,7.3870974,991.1142,1,2
60.6,-1.2908363,5.4654484000000005,10.114114,991.11194,1,2
60.64,-1.3052003,6.323429,7.4628444000000025,991.05365,1,2
60.68,-1.3052003,6.323429,7.4628444000000025,991.1142,1,2
60.72,-0.58347464,6.1327677000000005,9.683278999999999,991.0813,1,2
60.76,-0.86071974,6.2852974,7.9504842999999985,991.0637,1,2
60.8,0.08088508,7.5818020000000015,9.020458,991.0914,1,2
60.84,-1.8836308999999998,5.2890882,9.863180999999999,991.0839,1,2
60.88,-2.6245086,3.9353864,8.423921,991.079,1,2
60.92,-2.0939667,3.8019233,8.608562,991.0686599999999,1,2
60.96,-1.4534897,5.2938557,7.5669910000000025,991.0612,1,2
61.0,-2.2230627999999997,5.646580999999999,7.2119083,991.0864,1,2
61.04,-2.2517498,5.003096599999999,9.702204,991.1066,1,2
61.08,-1.2336764,4.8886995,8.064097,991.0788,1,2
61.12,-1.2336764,4.8886995,8.064097,991.0536,1,2
61.16,-0.76050055,5.1556273,6.549086,991.0761,1,2
61.2,0.018582702,4.6980386,8.229797999999999,991.132,1,2
61.24,0.34360117,4.6360730000000006,8.414439,991.0686599999999,1,2
61.28,0.32924497,4.7933707000000005,7.5480413,991.0737,1,2
61.32,0.26231950000000004,5.236661,7.0461936000000005,991.0963,1,2
61.36,0.37701005,6.294837,6.733721000000001,991.0712,1,2
61.4,-0.5455085999999999,5.656119,8.1209,991.0737,1,2
61.44,-0.6506808000000001,6.070809,8.518589,991.0536,1,2
61.48,-1.0761081000000001,7.5198436,8.689024,991.06616,1,2
61.52,-0.7845483,7.643772999999999,8.390756,991.0786,1,2
61.56,-1.2290866000000005,7.2719827000000015,8.362347999999999,991.07605,1,2
61.6,-2.5053022,6.3139052000000015,7.4722795,991.0281,1,2
61.64,-3.6333525,5.060301,5.810501599999999,991.1267,1,2
61.68,-2.4623334,4.521681,9.834742,991.11145,1,2
61.72,-2.0847375,4.4740150000000005,10.085666999999999,991.1341,1,2
61.76,-1.4968382,4.86964,10.346055999999999,991.0988,1,2
61.8,-1.1383693000000001,5.551258,8.594325,991.0783,1,2
61.84,-0.40707576,5.522659,10.237162,991.0936,1,2
61.88,-0.16811033,5.0984364,8.821572,991.0913,1,2
61.92,-0.5696220999999999,4.760011,8.016722999999999,991.061,1,2
61.96,-0.8134087,4.7266449999999995,7.4675303,991.0685,1,2
62.0,-0.71304095,4.9125414,7.3823104000000015,991.05585,1,2
62.04,-0.75129586,5.117503599999999,7.1455884,991.0986,1,2
62.08,0.77343684,6.4044747000000015,8.291312,991.1216,1,2
62.12,0.7638689000000001,6.2567115,9.048816,991.0632,1,2
62.16,0.109019294,5.846788,7.287616000000001,991.08105,1,2
62.2,0.03252594,5.7943563,7.145582000000001,991.0761,1,2
62.24,0.34318846,6.8668323000000004,7.443848,991.1112,1,2
62.28,0.23315070000000002,6.8382354,8.144531,991.1039,1,2
62.32,0.16621317,5.9611897,9.257113,991.0811,1,2
62.36,0.41473252,5.770528,8.385981,991.0960699999999,1,2
62.4,0.20441099,5.727629,8.106649,991.1165,1,2
62.44,1.2272586,6.1661534000000024,8.00249,991.10864,1,2
62.48,1.5666145,6.3663487000000005,8.078239,991.1415400000001,1,2
62.52,1.1507512,5.3844385,9.687935000000001,991.1011,1,2
62.56,0.14697220000000005,4.4978595,8.499597999999999,991.0783,1,2
62.6,0.26167732,4.9125504,7.9362024999999985,991.1213,1,2
62.64,0.9117002000000001,6.2614865,8.774189999999999,991.16425,1,2
62.68,0.21382858,6.247187,7.1550210000000005,991.2858,1,2
62.72,-0.37887722,5.923062,6.3264995000000015,991.0506,1,2
62.76,-0.13034776,5.498839,8.97303,990.9295699999999,1,2
62.8,-0.7278536999999999,5.62277,5.507443,990.98773,1,2
62.84,-0.00611341,5.813432700000001,6.9277634999999975,991.076,1,2
62.88,-0.25469366,5.5369730000000015,8.939882,991.0657,1,2
62.92,-0.41722733,5.503607700000001,7.8746395000000025,991.0657,1,2
62.96,-0.31686149999999996,5.6466045,8.135032,991.07074,1,2
63.0,-0.18304735,5.7467027,8.016669,991.08875,1,2
63.04,-0.23086569,5.6609050000000005,7.7941504,991.086,1,2
63.08,-0.20221731,6.0231642999999995,7.576364999999999,991.06067,1,2
63.12,-0.20700726,6.137562,7.576364,991.08374,1,2
63.16,-0.28350443,5.8515687000000005,8.177631,991.0936,1,2
63.2,0.21355464,6.123263400000001,7.2212777,991.0684,1,2
63.24,0.34259915,6.0994315000000014,7.3775119999999985,991.0534,0,0
63.28,0.23793398,5.9659553,7.301807000000001,991.0911,0,0
63.32,-0.17790893,6.080353,6.9846015,991.08105,0,0
63.36,0.08020046,6.461677,7.6758246,991.0684,0,0
63.4,0.08020046,6.5188766,8.016702,991.0936,0,0
63.44,0.09931968,6.5474760000000005,8.982521,991.076,0,0
63.48,0.10409949999999996,6.342512999999999,7.9788265,991.0862400000001,0,0
63.52,0.27617240000000004,6.309148,8.34811,991.0408,0,0
63.56,0.42912614,6.242416,7.396495,991.0884,0,0
63.6,0.62031835,6.218583,7.5574645999999985,991.061,0,0
63.64,0.33353007,5.884924,7.524324000000001,991.0783,0,0
63.68,-0.24004638,5.994555,7.1503057,991.0987,0,0
63.72,-0.66544896,6.032687,7.543261,991.0758,0,0
63.76,-1.6931068,5.5035989999999995,7.8746696,991.1063,0,0
63.8,0.018063008999999998,6.4950433,8.575361000000001,991.08875,0,0
63.84,-0.08231285,6.242416,8.333907,991.1164,0,0
63.88,0.056301445,5.927823,8.764737,991.0862400000001,0,0
63.92,0.02284281,5.894457,7.727902999999999,991.0532,0,0
63.96,0.27617240000000004,6.1470839999999995,7.320744500000001,991.10864,0,0
64.0,0.037182227000000005,5.803891999999999,7.997764599999999,991.0987,0,0
64.04,-0.21614736,5.617997,7.6237460000000015,991.0962,0,0
64.08,-0.11099169999999996,5.7228613,7.8888729999999985,991.10864,0,0
64.12,-0.029735021,5.8610907,8.030906,991.0481599999999,0,0
64.16,-0.21614736,5.694262,8.22975,991.1139,0,0
64.2,-0.11099169999999996,5.7228613,8.225016,991.0961,0,0
64.24,0.06586105,5.894457,7.903075999999999,991.07855,0,0
64.28,-0.12010616,5.7895822999999975,7.7610850000000005,991.0884,0,0
64.32,-0.091418445,5.708550499999999,8.177713,991.0809300000001,0,0
64.36,-0.12963913,5.6465845,8.452311,991.076,0,0
64.4,0.224093,5.7609816,8.158779,991.0659,0,0
64.44,0.27190882,5.6656494,8.064093,991.0783,0,0
64.48,0.11897285,5.5750847000000014,7.737421,991.08344,0,0
64.52,0.09987143,5.556018,7.775297599999999,991.10864,0,0
64.56,0.14769612,5.6084495,8.158787,991.0809300000001,0,0
64.6,0.27675968,5.794345,7.8794580000000005,991.08606,0,0
64.64,0.30544740000000004,5.9278083,7.765833,991.0986,0,0
64.68,-0.0243413,5.8849089999999995,8.187197,991.0936,0,0
64.72,-0.0769014,5.7657447,9.091469,991.08344,0,0
64.76,0.2099135000000001,5.9135075,8.258217,991.0809300000001,0,0
64.8,0.19559188,5.741911,8.002561,991.0885,0,0
64.84,0.10957317,5.6275129999999995,7.9552183,991.1011,0,0
64.88,0.042664796,5.5226483,8.191939,991.0961,0,0
64.92,0.13349883,5.584613,8.054644,991.10834,0,0
64.96,0.36773592,5.799108,8.163537,991.086,0,0
65.0,0.41555172,5.889672,7.6001444000000005,991.0907,0,0
65.04,0.50637686,5.837239299999999,8.201414,991.1138,0,0
65.08,0.32476205,5.8753715,7.8794765,991.0986,0,0
65.12,0.24831186,5.9421029999999995,7.6616964,991.0755,0,0
65.16,0.1097153,5.9135027000000004,7.9504967,991.091,0,0
65.2,-0.028890096,5.832471400000001,7.922091,991.07074,0,0
65.24,-0.18182604,5.7514389999999995,7.974171000000001,991.1084,0,0
65.28,-0.024453782,6.0708075,7.7421527,991.073,0,0
65.32,-0.077030346,5.9182777,8.097233000000001,991.0907599999999,0,0
65.36,-0.36859587,5.703782599999999,7.860512700000001,991.11597,0,0
65.4,-0.24909821,5.794347,7.6474648,991.0758,0,0
65.44,-0.26821488,5.770514,7.784763000000001,991.1058300000001,0,0
65.48,0.04725471,5.9802423,8.106702,991.0707,0,0
65.52,-0.019660026,6.004075,7.514902,991.0882,0,0
65.56,-0.05789592,5.851546,8.00728,991.0830699999999,0,0
65.6,-0.3064432,5.784814,7.633262599999999,991.0882,0,0
65.64,-0.20128626,5.8610783,7.6379967,991.0830699999999,0,0
65.68,-0.3255586,5.8229456,7.955202000000001,991.1086,0,0
65.72,-0.25863883,5.784813400000001,8.00728,991.0555400000001,0,0
65.76,-0.15348059,5.861078,7.732686,991.0932,0,0
65.8,-0.2299549,5.818179,8.035688,991.08325,0,0
65.84,-0.20605333,5.7705135,7.9883440000000006,991.1058300000001,0,0
65.88,-0.11523454,5.861078,7.912594,991.06287,0,0
65.92,-0.33032316,5.7037816,8.177721,991.0782,0,0
65.96,-0.17258587,5.765747,8.272409,991.0732,0,0
66.0,-0.28252012,5.76098,8.409707000000001,991.1109,0,0
66.04,-0.11044337,5.675182,8.419176,991.1084,0,0
66.08,-0.07220365,5.7323804,8.475989,991.0755,0,0
66.12,-0.20603433,5.7466807,7.79897,991.0681,0,0
66.16,-0.2920683,5.6847153,8.376567,991.08826,0,0
66.2,-0.096095085,5.7323804,8.651163,991.0707,0,0
66.24,0.009063154,5.7419139999999995,8.172988,991.0780599999999,0,0
66.28,0.06617127,5.7133203,8.10195,991.04285,0,0
66.32,-0.08201404,5.5321913,8.068808,991.08057,0,0
66.36,-0.14415906,5.560791,7.8510246,991.0754,0,0
66.4,-0.17284176,5.6513557,7.458069,991.0934,0,0
66.44,0.090039864,5.75622,8.083008999999999,991.1111,0,0
66.48,0.02311118,5.6942554,8.258181,991.0656,0,0
66.52,-0.039030045,5.6275234,8.234509,991.0526,0,0
66.56,0.09957662,5.803886,7.6237698000000025,991.0985,0,0
66.6,0.07089019,5.7037888,8.400211,991.1061,0,0
66.64,-0.0055942833,5.670423,8.277117,991.0805,0,0
66.68,0.09955382,5.7371554000000025,8.220303999999999,991.0732,0,0
66.72,0.19514607,5.851553,8.352865,991.08325,0,0
66.76,-0.19680546,5.5035940000000005,8.499632,991.0679,0,0
66.8,-0.48360133,5.4368625,7.5243435,991.0883,0,0
66.84,-0.16814946,5.489294999999999,7.9267664,991.04785,0,0
66.88,-0.091676384,5.6418247,7.9078282999999985,991.0908,0,0
66.92,-0.010423556,5.708557,8.083001,991.0656,0,0
66.96,-0.10603103,5.5131283,8.083,991.0702,0,0
67.0,-0.08691560000000001,5.575093700000001,8.007249,991.07776,0,0
67.04,0.07559012,5.646592,8.111406,991.1031,0,0
67.08,-0.01523377,5.5607940000000005,8.068795,991.0681,0,0
67.12,-0.12039707,5.575093700000001,7.8462777,991.04535,0,0
67.16,-0.23512377,5.6704254,7.5622125,991.0854,0,0
67.2,-0.16343054,5.699025,7.869948,991.0727,0,0
67.24,-0.20646018,5.617994,8.286574,991.0555400000001,0,0
67.28,-0.20646018,5.617994,8.286574,991.04285,0,0
67.32,-0.28361696,5.6990419999999995,8.130277,991.05756,0,0
67.36,-0.21676826,5.622779,8.395397,991.0702,0,0
67.4,-0.21676826,5.622779,8.395397,991.0601,0,0
67.44,-0.21202266,5.57988,8.11133,991.0605,0,0
67.48,-0.16425889999999999,5.679979,7.874606599999999,991.0681,0,0
67.52,-0.2121083,5.703812999999999,7.921945599999999,991.0555400000001,0,0
67.56,-0.23602444,5.7753120000000004,7.8888035000000025,991.0631,0,0
67.6,-0.5133215,5.7371807,8.187064999999999,991.0651,0,0
67.64,-0.5420175,5.7133484,8.0260935,991.0854,0,0
67.68,-0.45125258,5.6990504,8.2059965,991.0601,0,0
67.72,-0.41782826,5.694285,8.329087,991.0681,0,0
67.76,-0.5612394,5.5322223,8.253335,991.05005,0,0
67.8,-0.36052197,5.7133517,7.9882054,991.0706,0,0
67.84,-0.48483115,5.517924,8.187047999999999,991.0651,0,0
67.88,-0.45618653,5.508392,8.153903,991.07574,0,0
67.92,-0.34148836,5.513159,8.385889,991.0652,0,0
67.96,-0.18382332,5.8182199999999975,7.869831599999999,991.0727,0,0
68.0,-0.26987690000000003,5.737189,7.850892,991.05756,0,0
68.04,-0.38460934,5.6609244000000025,7.9077034,991.07526,0,0
68.08,-0.45156085,5.627559,8.30539,991.0626,0,0
68.12,-0.33211708,5.7896237,7.9124303,991.05,0,0
68.16,-0.34169382,5.703826,8.125477,991.0829,0,0
68.2,-0.3274058,5.6609282,8.0023775,991.07776,0,0
68.24,-0.28442186,5.7038283,7.7372475000000005,991.0752,0,0
68.28,-0.26055706,5.637097,8.229623,991.0504,0,0
68.32,-0.1840973,5.6942964000000025,8.054447999999999,991.0476,0,0
68.36,-0.16502948,5.7896285,7.9644895,991.0854,0,0
68.4,-0.12680817,5.803929,8.0686455,991.0727,0,0
68.44,-0.44710636,5.5989676,8.111251,991.07574,0,0
68.48,-0.32764554,5.575136,8.134919,991.0854,0,0
68.52,-0.16803685,5.7276196,7.988324,991.0529,0,0
68.56,-0.23492703,5.6894870000000015,8.030936,991.0878,0,0
68.6,-0.38785368,5.6322875,7.803686999999999,991.0681,0,0
68.64,-0.44997764,5.5989213,7.8273606,991.0883,0,0
68.68,-0.47386312,5.5655550000000025,7.969394,991.0729,0,0
68.72,-0.44515717,5.6227529999999994,8.158772,991.0934,0,0
68.76,-0.25393796,5.7371497000000025,8.059353,991.0732,0,0
68.8,-0.48810774,5.5750856,8.078292999999999,991.08325,0,0
68.84,-0.34945285,5.617984,8.0498905,991.0676,0,0
68.88,-0.34945285,5.617984,8.0498905,991.08075,0,0
68.92,-0.28249496,5.6227493,8.139847999999999,991.07574,0,0
68.96,-0.3207063,5.622749,8.172992,991.0930000000001,0,0
69.0,-0.30156007,5.589382,8.329229,991.0706,0,0
69.04,-0.32065216,5.560782,8.158793,991.0754,0,0
69.08,-0.25847414,5.5703144,8.225079,991.07794,0,0
69.12,-0.18198374,5.637045400000001,8.120923,991.0729,0,0
69.16,-0.17239705,5.522648,8.215613000000001,991.0782,0,0
69.2,-0.20581505,5.5321794,7.846334,991.0732,0,0
69.24,-0.08630643,5.6132107000000016,7.8131943,991.0577,0,0
69.28,-0.20098114,5.660876,8.139872,991.0478,0,0
69.32,-0.32524246,5.6656413,8.035716,991.0830699999999,0,0
69.36,-0.5403066,5.5560102,8.305579,991.0906,0,0
69.4,-0.5402795,5.484511,8.655928999999999,991.0732,0,0
69.44,-0.5689312,5.584608,8.277178999999999,991.0732,0,0
69.48,-0.36337265,5.7371373,7.718521000000001,991.07794,0,0
69.52,-0.40636384,5.6561055,7.917369,991.0880000000001,0,0
69.56,-0.37876934,5.460703400000001,8.442788,991.1237,0,0
69.6,-0.4504829000000001,5.536968700000001,8.011955,991.0855,0,0
69.64,-0.22584862,5.608467,8.206064999999999,991.0858,0,0
69.68,-0.27844295,5.622767400000001,7.917264500000001,991.0934,0,0
69.72,-0.25933197,5.679966,7.907795399999999,991.10565,0,0
69.76,-0.15898085,5.699033,8.111372,991.0934,0,0
69.8,-0.31195100000000003,5.5894027,7.978808,991.0957599999999,0,0
69.84,-0.53183854,5.5798697,8.045088,991.0857,0,0
69.88,-0.579653,5.59417,8.419105,991.0830699999999,0,0
69.92,-0.6895967,5.589403599999999,8.215524,991.0981400000001,0,0
69.96,-0.59879696,5.7419332999999995,8.480649,991.10345,0,0
70.0,-0.55579525,5.618004,8.234459,991.0959,0,0
70.04,-0.41718918,5.732401,8.404897,991.10333,0,0
70.08,-0.38853508,5.741935,7.7278743,991.10333,0,0
70.12,-0.18779981,5.5512733,8.286532000000001,991.0857,0,0
70.16,-0.48416418,5.365377400000002,7.884106599999999,991.0756,0,0
70.2,-0.46027339,5.365378,7.6331824999999975,991.0682400000001,0,0
70.24,-0.18784101,5.5226746,7.8462296,991.0783,0,0
70.28,-0.31214064,5.4035115,8.135026,991.0882,0,0
70.32,-0.17353462,5.570341,7.912508,991.0907,0,0
70.36,0.07977028,5.765771,8.177632000000001,991.1111,0,0
70.4,0.051066697,5.7228723,8.26285,991.0830699999999,0,0
70.44,-0.006299153,5.7085733,7.9361744000000005,991.08325,0,0
70.48,-0.2261949,5.494078,8.135017,991.073,0,0
70.52,-0.011057286999999999,5.7276387,8.111349,991.1061,0,0
70.56,-0.19270381,5.5274434,8.082942,991.1159,0,0
70.6,-0.19270381,5.5274434,8.082942,991.0780599999999,0,0
70.64,0.0032472163,5.598942299999999,8.816773,991.0654,0,0
70.68,-0.13060126,5.5369779999999995,8.111344,991.073,0,0
70.72,-0.020679712,5.622776,7.898296,991.0556,0,0
70.76,-0.020679712,5.622776,7.898296,991.0632300000001,0,0
70.8,0.06533578,5.718107,7.9977164000000025,991.1011,0,0
70.84,-0.21669357,5.551278599999999,8.338592,991.1186,0,0
70.88,-0.25493899999999997,5.5846443,8.272308,991.0957599999999,0,0
70.92,-0.23106089999999999,5.6847425000000005,7.846211,991.0886,0,0
70.96,-0.20716885,5.665676599999999,8.456949,991.1058300000001,0,0
71.0,-0.42228103,5.484548,8.153945,991.0885,0,0
71.04,-0.57046187,5.3987503,8.144475,991.0758,0,0
71.08,-0.2550158,5.536981,8.172880000000001,991.0785,0,0
71.12,-0.27414197,5.475016,8.153941,991.03296,0,0
71.16,-0.14988102,5.679978,7.718375,991.091,0,0
71.2,-0.125996,5.632313,8.097126,991.0961,0,0
71.24,-0.4462638,5.4511843,7.9929667,991.0657,0,0
71.28,-0.39369988,5.489317,8.258092,991.086,0,0
71.32,-0.40326649999999997,5.4464182999999995,8.329107,991.0960699999999,0,0
71.36,-0.15473065,5.575115,8.248622,991.07104,0,0
71.4,-0.23600128,5.5989485,8.182339,991.0581,0,0
71.44,-0.1738848,5.851577,7.8746004,991.1213,0,0
71.48,-0.45590020000000003,5.6752142999999995,8.191806,991.0758,0,0
71.52,-0.6375466999999999,5.5226846,8.338571,991.071,0,0
71.56,-0.45985037,5.565563,8.357585,991.1163,0,0
71.6,-0.47894929999999997,5.3796669999999995,8.617980000000001,991.08374,0,0
71.64,-0.23993878,5.5655622000000005,8.139807000000001,991.07104,0,0
71.68,0.008641451999999999,5.3939652,8.783688,991.066,0,0
71.72,-0.029576689,5.5083623,7.6711050000000025,991.0761,0,0
71.76,0.09470835,5.722857,7.221337299999999,991.03314,0,0
71.8,0.023031592000000004,5.5321940000000005,8.485425,991.07074,0,0
71.84,-0.029525965,5.6751904,7.922033,991.0811,0,0
71.88,-0.39276059999999996,5.3605967,8.149287,991.1011,0,0
71.92,-0.25890583,5.579858,8.296056,991.06335,0,0
71.96,-0.09159239,5.6227565,8.348135000000001,991.05084,0,0
72.0,-0.010325566,5.613222599999999,8.348136,991.0811,0,0
72.04,-0.15368922,5.5798564000000015,7.633244,991.1014,0,0
72.08,-0.12021031,5.398727,8.3102665,991.0785,0,0
72.12,-0.27792352,5.40826,7.8036866,991.0709,0,0
72.16,-0.3782791,5.4559245,8.1303625,991.05835,0,0
72.2,-0.42605692,5.446391,8.253458,991.0885,0,0
72.24,-0.19183636,5.6513524,8.36235,991.066,0,0
72.28,0.08541258,5.6608852999999995,8.693761,991.0811,0,0
72.32,0.18581893,5.5274209999999995,8.177714,991.0585,0,0
72.36,-0.029251948,5.436856,7.5101647,991.0635,0,0
72.4,-0.21087435,5.370124,7.6806044999999985,991.0761,0,0
72.44,-0.21084389999999997,5.260492299999999,8.679566000000001,991.0939300000001,0,0
72.48,0.48224795,5.832478,8.627489,991.061,0,0
72.52,0.5443955,5.7752795,8.62749,991.04846,0,0
72.56,0.44400758,5.7705129999999984,8.258206,991.0559,0,0
72.6,0.6017696,5.679948,7.8699875,991.0612,0,0
72.64,0.6017696,5.679948,7.8699875,991.0913,0,0
72.68,0.028221712000000006,5.4082537,8.201398,991.0511,0,0
72.72,0.17640512,5.498818,8.016758,991.079,0,0
72.76,0.1095164,5.6227480000000005,7.922072,991.0663,0,0
72.8,0.023498937,5.52265,7.699557,991.04865,0,0
72.84,0.15257265,5.7323775,7.5575259999999975,991.0409,0,0
72.88,-0.15330629,5.3129196,8.722192,991.11426,0,0
72.92,-0.11027856,5.556014,8.613301,991.0839,0,0
72.96,-0.12938824,5.684711,7.8700009999999985,991.0511,0,0
73.0,0.009245068,5.7609754,8.229817,991.0916,0,0
73.04,-0.25362512,5.5083470000000005,8.42393,991.0509599999999,0,0
73.08,-0.13410151,5.8467720000000005,7.988367599999999,991.06616,0,0
73.12,-0.09107375,5.813406,7.870008,991.0737,0,0
73.16,-0.014577895,5.7037745000000015,8.816892,991.0686599999999,0,0
73.2,0.10016589,5.679941,7.870012299999999,991.0232,0,0
73.24,0.014157951,5.532177,8.087798,991.0409,0,0
73.28,0.014157951,5.532177,8.087798,991.0663,0,0
73.32,-0.15311615,5.5893755,7.344498,991.0536,0,0
73.36,0.109801576,5.780037,8.461822,991.08386,0,0
73.4,0.06201306,5.7371383,8.362399,991.0663,0,0
73.44,0.07159166,5.7562037,8.220367999999999,991.0587,0,0
73.48,-0.062214337,5.5798407,8.291387,991.08386,0,0
73.52,0.0946956,5.74669,7.9030905,991.1066,0,0
73.56,0.1615976,5.656126,7.9599020000000005,991.0917,0,0
73.6,0.21416785,5.7562237000000005,8.021448,991.0888699999999,0,0
73.64,0.037292242,5.837256,8.163478,991.0891,0,0
73.68,0.032504827,5.7180915,8.267635,991.10175,0,0
73.72,0.19978268,5.7848244000000015,8.229758,991.1217,0,0
73.76,-0.08224093,5.5226636,7.9646300000000005,991.0612,0,0
73.8,0.14238699,5.7562256,8.300771000000001,991.0992,0,0
73.84,0.14238699,5.7562256,8.300771000000001,991.0790400000001,0,0
73.88,0.17103533,5.8324914,7.9362187,991.0762300000001,0,0
73.92,0.027626007999999997,5.9850216,7.8131227,991.0413,0,0
73.96,-0.1635814,5.646596400000001,8.395453,991.0917,0,0
74.0,-0.13968997,5.6847296,8.097185000000001,991.07654,0,0
74.04,-0.06323596,5.68473,8.267622,991.0740400000001,0,0
74.08,-0.23053673,5.5798654999999995,8.333902,991.07654,0,0
74.12,-0.1923059,5.6704307,8.10665,991.0740400000001,0,0
74.16,0.03232965,5.8372602,7.9598823,991.0665,0,0
74.2,-0.05850946,5.7895956,8.026161,991.09155,0,0
74.24,-0.0011594296,5.8992260000000005,7.7089562,991.0917,0,0
74.28,0.008384943,5.8324947,7.779970599999999,991.1144400000001,0,0
74.32,-0.22584832,5.5941677000000025,7.8841256999999985,991.0967400000001,0,0
74.36,0.04180549,5.8372626,8.187126,991.0715,0,0
74.4,-0.07769723,5.7800636,8.286548,991.0614,0,0
74.44,0.0226634,5.870629,8.002482,991.10175,0,0
74.48,-0.034717068,5.770531,8.158714999999999,991.10175,0,0
74.52,-0.014605373,5.8038735,7.675897,991.04114,0,0
74.56,-0.014605373,5.8038735,7.675897,991.0841,0,0
74.6,-0.1340751,5.703775,7.941026,991.07935,0,0
74.64,0.033243403,5.775273,7.860543700000001,991.0942,0,0
74.68,0.16234876,5.7943377,8.163549,991.09686,0,0
74.72,0.03808655,5.6942395999999995,8.220365,991.0967400000001,0,0
74.76,-0.052717037,5.760971,7.9078940000000015,991.097,0,0
74.8,0.12894087,5.8658347,7.746927,991.10175,0,0
74.84,0.15286522,5.784803,8.030992999999999,991.10175,0,0
74.88,0.07641369,5.9420986,7.841619500000001,991.0945,0,0
74.92,-0.13866481,5.9992967,7.803745299999999,991.092,0,0
74.96,-0.25812188,5.494041,8.485503,991.0791,0,0
75.0,0.052590713,5.9468627,7.855829700000001,991.06647,0,0
75.04,-0.29151714,5.8086314,7.8842396999999975,991.0916,0,0
75.08,-0.35842174,5.775266,8.253524,991.10693,0,0
75.12,-0.19588304,5.8038644999999995,8.262996000000001,991.1045,0,0
75.16,-0.35835838,5.5941353,7.9694657000000015,991.10205,0,0
75.2,-0.31054762,5.646567,7.7706222999999985,991.0916,0,0
75.24,-0.3296415,5.722831200000001,7.8037652999999985,991.0916,0,0
75.28,-0.3152767,5.6989975,8.25827,991.0693,0,0
75.32,-0.27701294,5.9563913,7.7895664999999985,991.092,0,0
75.36,-0.14794555,6.023123,8.201462,991.0869,0,0
75.4,-0.39645737,5.9516230000000006,7.860587599999999,991.0718,0,0
75.44,-0.27694958,6.032654,8.154122000000001,991.0616,0,0
75.48,-0.5254740999999999,5.770493,8.035764,991.0843,0,0
75.52,-0.6688301,5.57983,7.988423299999999,991.0768400000001,0,0
75.56,-0.698759,5.5464949999999975,7.619025,991.0718,0,0
75.6,-0.220804,6.0565166,7.6190232999999985,991.102,0,0
75.64,-0.4120342000000001,5.8849215999999975,8.300774,991.0743,0,0
75.68,-0.49331623,5.7705255,7.7184399999999975,991.08185,0,0
75.72,-0.6176038,5.846790299999999,7.765782400000001,991.0869,0,0
75.76,-0.4025507,5.9564223,8.106656,991.0869,0,0
75.8,-0.39778358,5.93259,8.324438,991.1045,0,0
75.84,-0.4265005,5.9993224000000005,7.6616178,991.1070599999999,0,0
75.88,-0.53168154,5.703796400000001,8.087711,991.0921,0,0
75.92,-0.44565767,5.822961,7.8604593,991.0844,0,0
75.96,-0.16847984,5.8896937000000005,7.822579400000001,991.0894,0,0
76.0,-0.17327231,6.051757,7.529045,991.0768,0,0
76.04,0.04657328,6.194754,7.6237307,991.1122,0,0
76.08,0.108698055,6.266253,7.921997,991.0617,0,0
76.12,-0.22592628,5.9802604000000015,7.7988997000000015,991.0948,0,0
76.16,-0.3167552,5.9135290000000005,7.618990400000001,991.1047,0,0
76.2,-0.22596434,5.9802613,7.3396583,991.1049,0,0
76.24,-0.37416357,5.946896,7.6852674,991.0871599999999,0,0
76.28,-0.17822969,6.2710230000000005,7.704202,991.0971699999999,0,0
76.32,-0.3073098,6.032696,8.371751,991.1123,0,0
76.36,-0.19738698,5.894466,9.115051,991.2211,0,0
76.4,-0.6658331999999999,6.4569206,6.525329,991.1475,0,0
76.44,-0.1926579,6.0994296,8.830982,991.02136,0,0
76.48,0.1132115,6.132796,8.011925999999999,991.0896,0,0
76.52,0.03194216,5.765772,9.309153,991.16296,0,0
76.56,-0.59423757,6.3472924000000015,6.482710400000001,991.0846,0,0
76.6,-0.8380329,5.9802675,8.750487,991.00885,0,0
76.64,-0.5082517,6.1899967,6.018733999999999,991.0491300000001,0,0
76.68,0.5432796999999999,6.3663597,8.546905,991.0998,0,0
76.72,0.5050286,6.2805620000000015,9.157639999999999,991.082,0,0
76.76,0.10826678599999999,6.2233644,7.5053300000000025,991.0771,0,0
76.8,0.29942090000000005,6.3758955,7.3585600000000015,991.10736,0,0
76.84,0.29942090000000005,6.3758955,7.3585600000000015,991.1174,0,0
76.88,-0.039970554,5.989804299999999,8.007171000000001,991.0897,0,0
76.92,0.08904609,6.309165,7.131302400000001,991.0948,0,0
76.96,0.09381324,6.4044967,7.5147886,991.1225599999999,0,0
77.0,-0.27903682,5.989806,8.011899,991.1174,0,0
77.04,-0.06875086,6.280567,7.604737299999999,991.0948,0,0
77.08,-0.12135402,6.2424355,7.652079,991.115,0,0
77.12,-0.030563137999999997,6.1089720000000005,7.6662803,991.1175,0,0
77.16,0.04587569999999999,6.2901025,7.576322999999999,991.1352,0,0
77.2,0.28962028,6.356835,7.7088839999999985,991.1174,0,0
77.24,0.13665386,6.475999,7.510038400000001,991.09973,0,0
77.28,-0.12148086,6.271038,7.315925,991.1199,0,0
77.32,-0.19799583,6.2662716,7.581048,991.1125,0,0
77.36,-0.19802116,6.0613112000000005,7.595248700000001,991.1402,0,0
77.4,-0.0335147,6.3329562999999975,7.581228,991.11755,0,0
77.44,-0.06696419999999999,6.332955999999999,7.7564020000000005,991.10736,0,0
77.48,0.34889692,6.618948,7.6096372999999975,991.10724,0,0
77.52,0.1577139,6.4664187,7.477074000000001,991.1098599999999,0,0
77.56,-0.28200072,6.280522,7.4202647,991.11755,0,0
77.6,-0.33456030000000003,6.3281870000000024,7.2356240000000005,991.1249,0,0
77.64,-0.27718443,6.1565910000000015,7.9457865000000005,991.1098599999999,0,0
77.68,-0.23891863,6.180423,7.7895536,991.0998,0,0
77.72,-0.1433043,6.185189,7.5291634000000025,991.1123,0,0
77.76,-0.1480659,6.380617,7.197756299999999,991.1123,0,0
77.8,-0.23409325,6.2948194000000015,7.4060710000000025,991.1123699999999,0,0
77.84,-0.12413046,6.3520174,7.576511999999999,991.0897,0,0
77.88,-0.128892,6.337716599999999,7.656998599999999,991.1274400000001,0,0
77.92,-0.09064444,6.280518,7.3776699999999975,991.08966,0,0
77.96,-0.23401122,6.299583999999999,7.5717826,991.10724,0,0
78.0,-0.14796562,6.309117,7.562314999999999,991.1049,0,0
78.04,-0.12881908,6.209018,7.638067200000001,991.1098599999999,0,0
78.08,-0.12881908,6.209018,7.638067200000001,991.1123,0,0
78.12,-0.2004888,6.275748999999999,7.496038,991.0922,0,0
78.16,-0.25781912,6.309115,7.8416524,991.1148,0,0
78.2,-0.25781912,6.309115,7.8416524,991.1047,0,0
78.24,-0.2339018,6.3138804,7.7564344,991.1097,0,0
78.28,-0.009232819,6.385379,7.5670600000000015,991.1122,0,0
78.32,-0.25775528,6.2233152,7.339811,991.092,0,0
78.36,-0.27685624,6.170882700000001,8.116255,991.08215,0,0
78.4,-0.28640676,6.213781,8.021567999999998,991.092,0,0
78.44,-0.07207934,6.4378285,7.477041199999999,991.09467,0,0
78.48,-0.16768175,6.3663297,7.6616826,991.1097,0,0
78.52,-0.31108850000000005,6.2995987,7.6995564,991.0945,0,0
78.56,-0.268083,6.275766,7.287661999999999,991.1095,0,0
78.6,-0.2728755,6.2662330000000015,7.538584700000001,991.092,0,0
78.64,-0.27766799999999997,6.309132599999999,7.486505,991.0919,0,0
78.68,-0.11517367,6.4139976999999995,7.4060183,991.1221300000001,0,0
78.72,-0.053048946,6.5236279999999995,7.685347,991.10455,0,0
78.76,-0.10085334,6.4616632,7.4770327000000005,991.1069,0,0
78.8,-0.16299713,6.3615656,7.325531,991.12726,0,0
78.84,-0.35898817,6.2948346,7.505437,991.10693,0,0
78.88,-0.37333384,6.3043675000000015,7.377607000000001,991.1245,0,0
78.92,-0.39246574,6.290068,7.372872,991.09686,0,0
78.96,-0.4068179,6.290068,7.495964999999999,991.1095,0,0
79.0,-0.26343647,6.4378324000000005,7.3681350000000005,991.097,0,0
79.04,-0.4020635,6.3663339999999975,7.690073,991.1095,0,0
79.08,-0.31125987,6.3520346,7.358664,991.0869,0,0
79.12,-0.37819618,6.313902400000001,7.192958,991.0791,0,0
79.16,-0.26349357,6.466433,7.3539267000000015,991.1097,0,0
79.2,-0.51205605,6.232872,7.8463035,991.0843,0,0
79.24,-0.34955543,6.3854027,7.4154716,991.1248,0,0
79.28,-0.39258635,6.3377365999999995,7.756347,991.0868,0,0
79.32,-0.34958714,6.390169,7.5622354000000005,991.10693,0,0
79.36,-0.3209147,6.3377376,7.817892599999999,991.11194,0,0
79.4,-0.18665527,6.3710923,7.3965693,991.0967400000001,0,0
79.44,-0.18665527,6.3710923,7.3965693,991.1044,0,0
79.48,-0.3396014,6.251928299999999,7.5243993,991.1069,0,0
79.52,-0.2296634,6.399692,7.3208199999999986,991.0892,0,0
79.56,-0.4208479000000001,6.232862,7.9646997000000015,991.11426,0,0
79.6,-0.4399646,6.1851964000000015,7.510197,991.1093,0,0
79.64,-0.28222597,6.2137957,7.661697999999999,991.06647,0,0
79.68,-0.28700072,6.018367,7.481791,991.0967,0,0
79.72,-0.32045174,6.2519274000000005,6.7763652999999975,991.0538,0,0
79.76,-0.38736390000000004,6.433057,7.1835246,991.13184,0,0
79.8,-0.54031515,6.2995934,7.671169,991.0966,0,0
79.84,-0.2774183,6.242395,8.120938,991.12195,0,0
79.88,-0.2774183,6.242395,8.120938,991.1015,0,0
79.92,-0.009739175,6.280526,7.0036197,991.0866,0,0
79.96,-0.33476073,6.266227,6.880525,991.1039999999999,0,0
80.0,-0.45903057,6.175662,7.301888000000001,991.13184,0,0
80.04,-0.47814727,6.1184629999999975,7.5954213,991.0839,0,0
80.08,-0.3777688,6.12323,7.590687,991.1039999999999,0,0
80.12,-0.15789025,5.9039683,7.9078927,991.1015,0,0
80.16,-0.076628506,6.1184629999999975,6.8331833,991.0939300000001,0,0
80.2,-0.22957718,6.046965,6.9752160000000005,991.09406,0,0
80.24,-0.28214997,6.09463,7.0036235,991.1017,0,0
80.28,-0.18655132,6.1708946,7.320828,991.0966,0,0
80.32,-0.20088317,6.070797,7.704316,991.0991,0,0
80.36,-0.12917845,5.9421,7.0509686,991.08386,0,0
80.4,-0.12917845,5.9421,7.0509686,991.0762300000001,0,0
80.44,-0.3256898,5.870614499999999,6.994106299999999,991.09406,0,0
80.48,-0.19665161,6.0374446,7.174011999999999,991.1116300000001,0,0
80.52,-0.19188823,5.965946700000001,7.462809599999999,991.079,0,0
80.56,-0.12020767,5.946880999999999,7.358650999999999,991.12683,0,0
80.6,-0.09632513,5.989780400000001,7.031975699999999,991.09644,0,0
80.64,-0.20628534,5.803885,6.6721587,991.08905,0,0
80.68,-0.220633,5.8324842000000015,6.752642599999999,991.1015,0,0
80.72,-0.31624556,5.7943525000000005,7.301832000000001,991.1242699999999,0,0
80.76,-0.16809638,5.9230504,7.37758,991.1015,0,0
80.8,-0.12509461,5.8563184999999995,7.1408587,991.08655,0,0
80.84,-0.12509461,5.8563184999999995,7.1408587,991.0914300000001,0,0
80.88,-0.04863426,5.923051,6.8994026,991.0839,0,0
80.92,-0.120339565,5.899218,7.079308999999999,991.1039,0,0
80.96,-0.12992388,5.87062,7.022494,991.1042,1,3
81.0,-0.23510426,5.8515544,7.245009,991.1293,1,3
81.04,-0.25423175,5.861087,7.339696000000001,991.1042,1,3
81.08,-0.28292704,5.8038893,7.287616000000001,991.1242699999999,1,3
81.12,-0.13477787,5.903988,6.913596000000001,991.08386,1,3
81.16,-0.106107295,5.899221,7.150315299999999,991.12683,1,3
81.2,-0.16826949,5.7657585,7.207126,991.1545,1,3
81.24,-0.32123965,5.684727,7.226062,991.0989400000001,1,3
81.28,-0.2065326,5.7562256,7.0745606,991.1066,1,3
81.32,-0.11095302,5.8563237,7.150309599999999,991.14435,1,3
81.36,-0.27827087,5.7705264000000005,7.363355,991.14685,1,3
81.4,-0.23526087,5.8324914,7.2781353000000015,991.1519999999999,1,3
81.44,-0.35939223,5.784823,7.434384,991.1518599999999,1,3
81.48,-0.23990726,5.889687,7.254475599999999,991.16974,1,3
81.52,-0.25903663,5.861088,7.5574759999999985,991.1493,1,3
81.56,-0.25904679999999997,5.8420224,7.2355356,991.1644,1,3
81.6,-0.19213463,5.875388,7.330223599999999,991.16455,1,3
81.64,-0.28774086,5.8277225,7.486458,991.1644,1,3
81.68,-0.27341664,5.97072,7.1976580000000006,991.1343,1,3
81.72,-0.28776115,5.908755,7.4817214000000005,991.1796,1,3
81.76,-0.25909248,5.884922,7.784723,991.1649,1,3
81.8,-0.19219044,6.008853,7.429641,991.17206,1,3
81.84,-0.18264097,5.9897870000000015,7.557468400000001,991.1795,1,3
81.88,-0.283027,6.008854,7.514858199999999,991.17975,1,3
81.92,-0.33083516,5.9230556,7.4343724,991.2127,1,3
81.96,-0.23524925,6.0374537,7.817858,991.1898,1,3
82.0,-0.30696157,5.994555,7.429636,991.1872599999999,1,3
82.04,-0.3021868,5.994555,7.6000743,991.23535,1,3
82.08,-0.20660596,6.0660534,7.5953383,991.2505,1,3
82.12,-0.26396868,5.9945555,7.623744,991.1976,1,3
82.16,-0.37391424,5.94689,7.5243210000000005,991.2049599999999,1,3
82.2,-0.22097582,6.161385,7.5716634,991.21765,1,3
82.24,-0.14928381,6.166151999999999,7.5479913,991.26807,1,3
82.28,-0.17796771,6.232883999999999,7.7468357,991.2705,1,3
82.32,-0.35961044,6.137553,7.8462570000000005,991.268,1,3
82.36,-0.22100627,6.2138186,7.6758175,991.2354,1,3
82.4,-0.18277797,6.2471843,7.9930214999999984,991.2732,1,3
82.44,-0.096751645,6.242419,7.808378999999999,991.2808,1,3
82.48,-0.23538119,6.123255,7.4959073000000025,991.24536,1,3
82.52,-0.30708843,6.056523,7.808377,991.26324,1,3
82.56,-0.35489149999999997,6.0040910000000025,7.936205,991.25323,1,3
82.6,-0.3740158,6.0660563,7.8746576,991.2710000000001,1,3
82.64,-0.20674296,6.1041894,7.6710762999999975,991.3009599999999,1,3
82.68,-0.182849,6.0851235,7.7610292,991.29846,1,3
82.72,-0.23543699999999998,6.0946565,7.761028299999999,991.2782,1,3
82.76,-0.16852991,6.1661553,7.566917,991.3211699999999,1,3
82.8,-0.16376533,6.0422254,7.9077926,991.3137,1,3
82.84,-0.16376533,6.0422254,7.9077926,991.32385,1,3
82.88,-0.09624232,6.1423078,7.780019,991.3315,1,3
82.92,-0.16792874,6.080343,7.5006905,991.329,1,3
