Timestamp,Ax,Ay,Az,P,LPFRMSAcc,LPFPValue,Value,Type
0.0,0.6338842,5.4360657,9.653064,1003.45636,0.02306382493748753,3.612442896,0,0
0.02,0.5813204000000001,5.4646645,7.5415199999999984,1003.48145,0.06275494039503261,10.40392586448,0,0
0.04,0.36624312,5.4455985999999985,8.587824000000001,1003.48895,0.11874932872716272,19.979986302316803,0,0
0.06,0.4714197,5.388399,7.962885000000001,1003.47363,0.18780624988860564,31.98197042250105,0,0
0.08,0.35193163,5.3645663,8.156997,1003.46625,0.2684539309318621,46.08426699757485,0,0
0.1,0.28024155,5.297834,8.41739,1003.45874,0.3594280080215351,61.991604354118785,0,0
0.12,0.27069587,5.254935,8.3321705,1003.47363,0.4590011148958996,79.43666293468618,0,0
0.14,0.3806523,5.3883977,8.275360000000001,1003.43585,0.5658716360423136,98.17751376991066,0,0
0.16,0.28507018,5.3931646,7.915547,1003.4787,0.6781820417397563,117.99601383834332,0,0
0.18,0.23728605,5.2072678,8.388989,1003.4533,0.7955061728448166,138.69528672899241,0,0
0.2,0.14648373,5.3788633,8.516819,1003.4837,0.9172488182099962,160.09840254294556,0,0
0.22,0.4189465,5.784021,8.497883,1003.4888,1.0429018805236756,182.0464011069999,0,0
0.24,0.117832795,5.483727,8.166475,1003.48096,1.170621345107727,204.3968170502132,0,0
0.26,-0.07335238,5.293064599999999,8.436337,1003.4532,1.2999606736391724,227.02224755625562,0,0
0.28,0.026218697000000003,5.131021499999999,8.284763,1003.48083,1.4298196845219466,249.80932884819225,0,0
0.30000000000000004,0.15048467,5.1262550000000005,8.440997,1003.44824,1.559944339806075,272.6570939578939,0,0
0.32,0.09788911,5.1262555,8.360510000000001,1003.4634,1.6896911013650981,295.4762819105779,0,0
0.34,-0.29408145,5.4980483,7.688223,1003.4735,1.8179072421958624,318.1881063706913,0,0
0.36000000000000004,-0.24151248,5.5552470000000005,7.792378999999999,1003.476,1.944551441277497,340.7233108807132,0,0
0.38,-0.1650534,5.126257,8.341569,1003.48596,2.0698066126189194,363.0213631225978,0,0
0.4,0.045231372,4.8783970000000005,8.171127,1003.47577,2.192810926762903,385.0295579482857,0,0
0.42,0.0978003,4.9212956,8.204267,1003.4479,2.313489274605467,406.70230492764966,0,0
0.44,0.14080967,4.9737277,8.388908,1003.4735,2.432064456713923,428.00072046087615,0,0
0.46,0.35588306,5.502816,8.56408,1003.47327,2.5492529026269417,448.891701604376,0,0
0.48,0.26982886,5.6410475,8.625625999999999,1003.4579,2.6650521900571933,469.3474108569966,0,0
0.5,-0.08390324,5.4646854000000005,8.3462925,1003.44525,2.778514005125112,489.344827773527,0,0
0.52,-0.107820034,5.316922,8.682433999999999,1003.49084,2.889928371334837,508.86547100498876,0,0
0.54,-0.13650778,5.150093,8.725043,1003.48346,2.999030462425275,527.89453612469,0,0
0.56,0.06898829,5.412255,8.029081,1003.47577,3.104762610999084,546.4207105064094,0,0
0.5800000000000001,0.21236466,5.393189,7.991205,1003.48566,3.2070533678250173,564.4358720082735,0,0
0.6,0.19801636,5.407489,8.076424000000001,1003.4805,3.3060979761071807,581.934629372091,0,0
0.62,0.1788794,5.478987,8.005405999999999,1003.45026,3.4018780334922982,598.9139876490202,0,0
0.64,0.097596094,5.631518,8.355749000000001,1003.48303,3.4952067835903944,615.3733971749787,0,0
0.66,0.23619266,5.6458178,8.630343,1003.4579,3.586530122664095,631.3140356422857,0,0
0.68,0.054551214,5.455156,8.497779,1003.45526,3.6753006628328175,646.7388921996859,0,0
0.7000000000000001,-0.17967689,5.397958,7.9627895,1003.473,3.7605054647672214,661.6525382418857,0,0
0.72,-0.15101585,5.6410527,7.711864999999999,1003.4854,3.842116381879179,676.0608341871027,0,0
0.74,-0.31354696,5.3979588,7.9817247,1003.4703,3.920434106892584,689.9706785612228,0,0
0.76,-0.117149845,5.4265475,8.791347,1003.47046,3.996996613896002,703.3900162633753,0,0
0.78,-0.088471025,5.4694467000000015,8.242155,1003.47284,4.070818626997827,716.3276412224487,0,0
0.8,0.05014327,5.4599137,7.986497,1003.4728,4.1415010270274815,728.7930492078855,0,0
0.8200000000000001,-0.117149845,5.3550496,8.095388,1003.4954,4.209222184592312,740.7964121666687,0,0
0.84,-0.14104888,5.4408474,7.820792999999999,1003.45264,4.273711492041722,752.3481460972496,0,0
0.86,-0.0597922,5.6744080000000015,7.8255277,1003.4702,4.335400341041551,763.4592975923607,0,0
0.88,-0.12670946,5.2787848,9.269522,1003.48535,4.3964741336956585,774.1412048421088,0,0
0.9,0.25567484,5.478979,8.663517,1003.4552,4.4559238233116565,784.4052684705542,0,0
0.92,0.44208717,5.688708,7.8113246,1003.4653,4.512517916354948,794.2632112061548,0,0
0.94,0.31781226,5.60291,8.038575999999999,1003.4702,4.566655976475788,803.7268345669888,0,0
0.96,-0.0024345517000000003,5.4217806,7.8113246,1003.4677,4.617815552712763,812.8079592841813,0,0
0.98,0.054923087,5.4265475,8.152202,1003.4752,4.666751021435599,821.5184431508693,0,0
1.0,0.016684666,5.302617,8.422063,1003.4804,4.713875658513892,829.8700897401312,0,0
1.02,0.002345249,5.29785,8.597236,1003.46014,4.759534371988664,837.8745288473393,0,0
1.04,0.12184034,5.3550496,8.398391,1003.48254,4.803447934701858,845.5434400826175,0,0
1.06,0.23655562,5.4742136,8.374719,1003.47754,4.8457586617687625,852.888252809812,0,0
1.08,0.27957386,5.407481,8.142733,1003.48,4.886024350108128,859.9202596254457,0,0
1.1,0.22221623,5.3216834,8.024372,1003.4677,4.924031522423946,866.6505116330881,0,0
1.12,0.21743642,5.388415,7.9817634,1003.47504,4.959909545865566,873.0899306091617,0,0
1.14,0.17919798,5.264485,8.327374,1003.47,4.9942358724779625,879.2491694662274,0,0
1.16,0.1839778,5.412248,8.199546,1003.45483,5.027011227783402,885.1386132982523,0,0
1.18,0.19831719,5.564778,8.265827,1003.4775,5.058589153442823,890.7685458603556,0,0
1.2,0.016684666,5.4646797,8.213749,1003.4599,5.0887856059159065,896.1488431471329,0,0
1.22,-0.088471025,5.455147,8.171139,1003.48004,5.117568795810639,901.2892661383996,0,0
1.24,0.031024069,5.264485,8.862363,1003.46246,5.146003390225337,906.1991673913848,0,0
1.26,0.25544989999999995,5.521884,8.251603999999999,1003.4951,5.173245943921019,910.8878214959133,0,0
1.28,0.20286314,5.5266514,8.147446,1003.4699,5.199160647601541,915.3640117452893,0,0
1.3,0.27933115,5.498052,7.8823184999999985,1003.48755,5.223325149461688,919.6364181873552,0,0
1.32,0.23630847,5.269257,8.256335,1003.47,5.246236332969559,923.7133174140899,0,0
1.34,0.025988236,5.107195,8.540399,1003.49255,5.268276982622892,927.6028708081419,0,0
1.36,0.365341,5.3931879999999985,8.360491,1003.485,5.289479025085863,931.3128558522172,0,0
1.38,0.28407985,5.4313207000000014,8.256332,1003.47455,5.309720158740075,934.8507807360941,0,0
1.4,0.3748873,5.0595293,7.8207674,1003.45215,5.3278661016365225,938.2238560928377,0,0
1.42,0.62820804,4.8498015,8.82446,1003.48486,5.345688966022163,941.4392450921221,0,0
1.44,-0.08399163,4.7592370000000015,8.223189999999999,1003.4544,5.361941237497548,944.5036173695579,0,0
1.46,0.016375348,5.4170218,6.6466327000000005,1003.4773,5.3748205281007015,947.4236019713702,0,0
1.48,0.5947272,6.0605072999999985,6.3199587,1003.48737,5.385092735641049,950.2055299304344,0,0
1.5,1.2734504999999998,6.3846335,7.920186,1003.4695,5.396092427679812,952.855391767314,0,0
1.52,-0.4903105,5.359824,8.6682205,1003.47974,5.407592864814607,955.3790573400183,0,0
1.54,-0.10793507,5.7077827,8.336811,1003.48706,5.419288295688652,957.7821570496359,0,0
1.56,0.31745857,5.4789879999999975,9.245817,1003.467,5.432460525573821,960.0700013876756,0,0
1.58,0.42260987,5.2597265,9.155863,1003.4696,5.446506893784969,962.2477791997716,0,0
1.6,0.46561474,4.7068067000000005,9.652974,1003.4797,5.461653157803596,964.3204985894204,0,0
1.62,0.25529897,4.616242,9.605629,1003.44934,5.4775315583430135,966.292817271192,0,0
1.64,-0.15099768,5.150097,7.2857699999999985,1003.4797,5.490389733288971,968.1694308362293,0,0
1.66,-0.6576656999999999,5.0071,8.23265,1003.4644,5.50205992717633,969.9546684712856,0,0
1.68,-0.7628303000000001,4.6591415000000005,8.971216,1003.4822,5.513635033158328,971.652803559125,0,0
1.7,-0.7628303000000001,4.6591415000000005,8.971216,1003.46686,5.525084449085616,973.2678063259268,0,0
1.72,-0.59555054,4.692508,9.042232,1003.4569,5.536520957234975,974.8035035078997,0,0
1.74,-0.37090862,4.8402715,8.422023,1003.4568,5.5468993318210496,976.2635974052624,0,0
1.76,-0.3934363,4.9117365,8.478962,1003.46436,5.556483815359541,977.6516591183133,0,0
1.78,-0.14483954,5.188195,7.939244,1003.47955,5.564664042291134,978.9711308551387,0,0
1.8,-0.10179789,5.335958,8.161763,1003.47424,5.572127991454122,980.2252272747197,0,0
1.82,-0.30725902,4.859301,8.455302,1003.48193,5.578943051498452,981.4170710008722,0,0
1.84,-0.17340106,4.8640666,8.725164999999999,1003.48193,5.585646301119249,982.5496176096973,0,0
1.86,-0.16855088,4.949863400000001,8.692031,1003.4488,5.5922539873969725,983.6255728498604,0,0
1.88,0.08006932,5.059492,8.663631,1003.47437,5.5988138600663575,984.647742569809,0,0
1.9,-0.07286095599999999,4.8354635,9.255434,1003.4945,5.6061591871003165,985.6187800611044,0,0
1.92,-0.1684101,4.5923676,8.649435,1003.46136,5.612824692777097,986.5410220761928,0,0
1.94,0.35265893,4.916492,8.521613,1003.502,5.618969570518943,987.4169746412506,0,0
1.96,0.48176056,5.1405187,8.28963,1003.4791,5.624469168898601,988.2487899790273,0,0
1.98,0.45788503,5.197717,8.39379,1003.4563,5.6296227899162625,989.038529047562,0,0
2.0,0.21894173,5.1023846,8.152339999999999,1003.4593,5.633904521132653,989.7882572639484,0,0
2.02,0.21894173,5.1023846,8.152339999999999,1003.46136,5.637400436288267,990.4999402857968,0,0
2.04,-0.30674285,5.0451837,8.3464575,1003.47394,5.6404756362529245,991.1754898028737,0,0
2.06,-0.21587962,4.926019,8.782028,1003.46375,5.643820511104227,991.816643092872,0,0
2.08,-0.20149328,4.9450835999999985,8.68261,1003.47144,5.647230649279213,992.4251234087802,0,0
2.1,-0.08195124,4.959382,8.190236,1003.45624,5.649815246498308,993.0024886356452,0,0
2.12,-0.014987096,5.035646,8.999825,1003.47406,5.65319451088075,993.5503462070147,0,0
2.14,-0.12489911,4.9641470000000005,8.876732,1003.49164,5.656969515616508,994.0702218147316,0,0
2.16,-0.11048931,4.8449817,9.099256,1003.45135,5.661367582779072,994.5633559631772,0,0
2.18,0.056827277,4.9355449999999985,8.905147,1003.4586,5.666034798622251,995.0311121752763,0,0
2.2,0.17636932,5.0261087,8.606883999999999,1003.4738,5.6704801983337125,995.4748152404559,0,0
2.22,0.15732048,5.0737724,8.403310000000001,1003.4687,5.674399739589008,995.8956492539833,0,0
2.24,0.03787233,5.0165734,8.0435,1003.4765,5.6771384619422935,996.2947892510216,0,0
2.26,0.15173651,5.0928593,8.185453,1003.47144,5.679160541971602,996.6733052951007,0,0
2.28,0.19476043,5.097625,8.389033999999999,1003.4687,5.6809092895923925,997.032225492587,0,0
2.3,0.07528247,4.8735967,8.313285,1003.4765,5.6820329659429785,997.3725667673123,0,0
2.32,0.18044956,5.0213594000000015,8.12391,1003.4636,5.682424402679223,997.6952200372976,0,0
2.34,0.23781861,5.2978190000000005,8.516867,1003.4485,5.6831666828405085,998.0010282745219,0,0
2.36,0.23305027,5.3216519999999985,8.0671,1003.4611,5.683455805603223,998.2908966911456,0,0
2.38,0.10878678,5.3168855000000015,8.194927999999999,1003.4611,5.683555807053782,998.5656371559855,0,0
2.4,0.037095413,5.3216515,8.284883500000001,1003.45355,5.6836496809227635,998.8259943169568,0,0
2.42,0.08969039,5.416982,8.393775999999999,1003.4585,5.684036054127461,999.07272292485,0,0
2.44,0.25699496,5.378849,8.52634,1003.45074,5.6848751011489025,999.3064931842548,0,0
2.46,0.080153614,5.3645496,8.194933,1003.4711,5.685509428099534,999.5280451700016,0,0
2.48,0.12796308,5.2072525,7.3948197,1003.45825,5.68440213103356,999.7379572419957,0,0
2.5,0.08017644,5.1881866,8.587891,1003.4682,5.6838145755483485,999.9368644227384,0,0
2.52,-0.17313603,4.911726,8.152328,1003.4783,5.6826189987205336,1000.1253679757208,0,0
2.54,-0.12055248,5.0690217,8.346438000000001,1003.4586,5.681403172777232,1000.3039293504232,0,0
2.56,-0.13010071,4.9879904,8.322767,1003.4608,5.680044968149463,1000.4730709154487,0,0
2.58,-0.08229124,4.906958,8.332237,1003.4532,5.678495659479313,1000.6332528670099,0,0
2.6,-0.15397686,4.9784565,8.67785,1003.45825,5.677480540669044,1000.784959629088,0,0
2.62,-0.14917995,5.088087000000002,8.545288000000001,1003.4784,5.6768180605037095,1000.9287041093954,0,0
2.64,-0.14917995,5.088087000000002,8.545288000000001,1003.48114,5.6764695567736325,1001.0649055014012,0,0
2.66,-0.18740126,4.9546230000000016,8.980855,1003.45306,5.6770484576374125,1001.1938504075728,0,0
2.68,-0.20172924,4.9307895,8.976121000000003,1003.47314,5.67841279099513,1001.3159915691983,0,0
2.7,-0.2543014,4.8068595,9.056607,1003.45557,5.68049345128793,1001.4316179819617,0,0
2.72,-0.36422545,4.4827332,8.829356,1003.46576,5.682477280796743,1001.5411083915443,0,0
2.74,-0.2877372,4.630496,8.677856,1003.4481,5.684225739062892,1001.644719287242,0,0
2.76,-0.28772575,4.5780635,8.303839,1003.438,5.685024949680697,1001.7427256852465,0,0
2.78,-0.26921663,4.6257443,8.384269,1003.4607,5.685175565305557,1001.8355088460562,0,0
2.8,-0.36482537,4.5494795,8.194891,1003.42523,5.6843382802380225,1001.923215043102,0,0
2.82,-0.21188435,4.6924767,8.03392,1003.4582,5.682477717312525,1002.0062381846562,0,0
2.84,-0.17843205,4.6829433,8.114405,1003.4329,5.679852922182647,1002.084733415069,0,0
2.86,-0.31227922,4.468449,9.203317,1003.47064,5.678360283979917,1002.1590810643672,0,0
2.88,-0.39833474,4.5113482000000005,9.331143,1003.4582,5.678157367438509,1002.2294514754557,0,0
2.9,-0.36966223,4.482749,9.582067,1003.4504,5.6795377504252125,1002.2960261853816,0,0
2.92,-0.393574,4.520882,9.241188,1003.45294,5.681709462606577,1002.359016488805,0,0
2.94,-0.36490783,4.5161157,8.796153,1003.4378,5.6837395272612765,1002.41855834155,0,0
2.96,-0.25976482,4.5590153,8.398462,1003.4705,5.684941119280263,1002.474956512606,0,0
2.98,-0.2071933,4.5256495,8.242225999999999,1003.4682,5.685085502362118,1002.5283656131056,0,0
3.0,-0.10683647,4.368353400000001,9.028135,1003.4632,5.685593760560657,1002.5789232981,0,0
3.02,-0.13074180000000002,4.406486,9.255387,1003.4554,5.6868823817692125,1002.626751384688,0,0
3.04,-0.11164164,4.4779849999999985,9.132291,1003.4479,5.68868971964255,1002.6719684170121,0,0
3.06,-0.26938787,4.544717,8.91924,1003.47797,5.6906210741504,1002.7148237924724,0,0
3.08,-0.23593554,4.530417400000001,8.696723,1003.4604,5.692228673814949,1002.7553748765762,0,0
3.1,-0.14513196,4.544718,8.999724,1003.43756,5.694114625658913,1002.7936616809346,0,0
3.12,-0.25985995,4.363589,8.777205,1003.46295,5.6956625820419955,1002.8299013392143,0,0
3.14,-0.24553958,4.2348919999999985,8.900298,1003.4652,5.6970185742361785,1002.8642097764492,0,0
3.16,-0.106937945,4.373122,8.545217,1003.46014,5.697660293906248,1002.8966700603947,0,0
3.18,-0.1738742,4.368356,8.725123,1003.4552,5.697999702561687,1002.9273626750715,0,0
3.2,-0.18344015,4.3302239999999985,8.786669999999999,1003.4577,5.698150426081048,1002.9563918837697,0,0
3.22,-0.1499942,4.4398556,9.070733,1003.44006,5.698763029671353,1002.9837832977936,0,0
3.24,-0.054410838,4.5065875,8.938168,1003.45013,5.699594489063349,1003.0096651993532,0,0
3.26,-0.05441717,4.5161204,9.089669,1003.4753,5.700906788935393,1003.034210732854,0,0
3.28,-0.025460817,4.611445400000001,8.890849000000003,1003.46014,5.702360213167131,1003.0574325116166,0,0
3.3,0.05101472,4.5685453,8.976068,1003.4575,5.704050099323058,1003.0793915182896,0,0
3.32,0.22308515,4.525647,9.080224,1003.4652,5.706100904997952,1003.1001834071201,0,0
3.34,0.22308515,4.525647,9.080224,1003.4703,5.708463236259379,1003.1198875398247,0,0
3.36,0.04145071,4.3111525,8.909786,1003.4726,5.710572903016431,1003.1385678763394,0,0
3.38,-0.14974271,4.287319,8.436345,1003.45245,5.711550391430308,1003.1562037973288,0,0
3.4,-0.14974271,4.287319,8.436345,1003.455,5.711523968101862,1003.1728625634448,0,0
3.42,-0.14496543,4.3254519999999985,8.654128,1003.44745,5.71105026938119,1003.1885707639562,0,0
3.44,-0.2310032,4.2587199999999985,8.564175,1003.46,5.709957396695392,1003.2034276751781,0,0
3.46,-0.28836143,4.2920856,8.441079,1003.46,5.708127258771772,1003.2174789023034,0,0
3.48,-0.07805201,4.377884,9.084958,1003.45496,5.706922293021604,1003.2307494985423,0,0
3.5,-0.22622657,4.2825527,9.137035,1003.4648,5.706291415445945,1003.2433179791847,0,0
3.52,-0.17842977,4.4875145,8.923988,1003.4446,5.705955885065428,1003.2551481039552,0,0
3.54,-0.044595897,4.6495776,8.682533,1003.45215,5.705589168041527,1003.2663104090283,0,0
3.56,-0.12107468,4.3826504,8.834033999999997,1003.427,5.705223155843099,1003.276751904318,0,0
3.58,-0.11151631,4.473215,8.630453999999999,1003.45465,5.704566623556127,1003.2866184427008,0,0
3.6,-0.10673781,4.43985,8.791425,1003.4471,5.703921890429107,1003.295914249622,0,0
3.62,-0.18321592,4.358818,8.635189,1003.4597,5.70292652143495,1003.3047176533188,0,0
3.64,-0.06372209,4.344518,8.942925,1003.43677,5.702181732724464,1003.3129717292734,0,0
3.66,-0.05416313,4.3206854,9.028144,1003.45215,5.701798949408352,1003.3207660725617,0,0
3.68,-0.054165006,4.592379,8.478953,1003.45215,5.700976637378333,1003.3281261364295,0,0
3.7,0.24218155,4.7210765,8.412671000000001,1003.4673,5.699783432463273,1003.3351305147723,0,0
3.72,0.14180441,4.4207835,8.715672999999999,1003.44434,5.698524275621081,1003.3417127376226,0,0
3.74,0.15614255,4.4207835,8.658861,1003.44183,5.697106605606684,1003.347889211878,0,0
3.76,0.31387478,4.530414,8.587844,1003.47455,5.695535868951559,1003.3538027233673,0,0
3.78,0.15614004,4.416017,8.952394,1003.4547,5.694394421944803,1003.3593911323147,0,0
3.8,0.18003775,4.4589157,8.805627000000003,1003.4418,5.693404273026233,1003.3646257223846,0,0
3.82,-0.12587158,4.463682,8.838766,1003.4341,5.6926155623281005,1003.3695011135698,0,0
3.84,-0.13543186,4.4446163,8.871907,1003.4619,5.692051669707569,1003.3741416452119,0,0
3.86,-0.4317816,4.344518,8.597311999999999,1003.4365,5.691103290540353,1003.3784665090483,0,0
3.88,-0.35052553,4.401717700000002,8.502624,1003.46674,5.689690744420207,1003.3826057433017,0,0
3.9,-0.4891411,4.3063865,8.403202,1003.4442,5.687611690645152,1003.3864849100121,0,0
3.92,-0.49870205,4.158623,8.374796,1003.4594,5.684761452508299,1003.390175036041,0,0
3.94,-0.22147465,4.1395564,8.980799000000003,1003.4614,5.6823367228543775,1003.3936920412706,0,0
3.96,0.036633477000000005,4.1490903,9.615209,1003.45667,5.681504033657143,1003.3970263877428,0,0
3.98,0.21348499,4.206289,9.68149,1003.44635,5.68225908125813,1003.40015018129,0,0
4.0,0.19914491,4.139557,9.657818,1003.46686,5.684313639706898,1003.4031505206154,0,0
4.02,0.122666135,4.2158217,8.852967999999997,1003.45667,5.6860475008215206,1003.4059942905693,0,0
4.039999999999999,0.065307885,4.3063865,8.526295,1003.46906,5.686963906713939,1003.4087340822543,0,0
4.06,0.0939848,4.2873199999999985,9.118096,1003.4689,5.688243542144956,1003.4113715594913,0,0
4.079999999999999,-0.011172175,4.091892,9.132299,1003.4766,5.689695974057957,1003.4139368567636,0,0
4.1,-0.07331025599999999,4.0156264,9.231721,1003.4462,5.691421420218037,1003.416319700749,0,0
4.119999999999999,-0.08287112,3.948895,9.174909,1003.4385,5.693218599176849,1003.4185050307718,0,0
4.14,0.04140249,4.125257,9.189111,1003.44867,5.695246706661623,1003.4205445822693,0,0
4.159999999999998,-0.0007703155,4.110937,8.966672,1003.45874,5.697038058191869,1003.4224842334762,0,0
4.18,0.004018321599999999,4.12047,9.023485,1003.4638,5.69872938628,1003.424346846042,0,0
4.199999999999998,-0.08199168,4.058504,9.236536,1003.4586,5.7006784076498205,1003.4261159618596,0,0
4.22,0.018401802,4.272999,8.85305,1003.45856,5.702310074232871,1003.4277959511332,0,0
4.239999999999998,0.027970225,4.2825313,8.649472,1003.4661,5.7032840628926085,1003.4294182842314,0,0
4.26,-0.16798408,4.1586003,8.753631,1003.45355,5.70375873356939,1003.4309386519336,0,0
4.2799999999999985,-0.19186549,4.044203,8.905133,1003.4636,5.703976791385782,1003.4323996296885,0,0
4.3,-0.19185665,4.0060699999999985,9.023494,1003.47363,5.7041592398672165,1003.4338389789656,0,0
4.3199999999999985,0.008921564,4.120467,9.042434,1003.46606,5.704439141754923,1003.4352267836624,0,0
4.34,0.071067825,4.263463,8.933542999999998,1003.4561,5.704725183759616,1003.4365281914716,0,0
4.3599999999999985,0.2049288,4.4350586,9.037703,1003.46356,5.705369671463147,1003.4377754299228,0,0
4.38,0.13802038,4.3778596,8.999829,1003.4838,5.706203286270843,1003.4390431782699,0,0
4.4,0.04244192,4.249162,8.900407000000003,1003.4457,5.7068969391768345,1003.440187325268,0,0
4.42,-0.048356704,4.3063607,8.791518,1003.45825,5.707312493408479,1003.4412633191844,0,0
4.44,-0.39247614,4.4350567000000005,8.886209,1003.476,5.707791672887683,1003.44233911946,0,0
4.46,-0.47372395,4.2729940000000015,9.070851,1003.49585,5.708530801960668,1003.4434823357532,0,0
4.48,-0.39244086,4.0680313,9.402262,1003.4682,5.709941761518023,1003.4445814652616,0,0
4.5,-0.21557046,4.2014947,8.914619,1003.4658,5.711121034854388,1003.44562904282,0,0
4.52,0.10948266,4.239626,8.554807,1003.4605,5.711448894186006,1003.4466082177963,0,0
4.539999999999999,0.2576654,4.34449,8.545339,1003.49084,5.711109349759521,1003.4476326512216,0,0
4.56,0.28157324,4.3587894,8.58795,1003.49835,5.710275089145148,1003.4487204230516,0,0
4.579999999999999,0.18600361,4.2634583,8.583219,1003.48804,5.708904197708738,1003.4498231287176,0,0
4.6,0.061746344,4.2396245000000015,8.905159,1003.4604,5.70764082215826,1003.4508355561808,0,0
4.619999999999999,0.0569842,4.306356,8.460127,1003.47296,5.705708335482519,1003.451809785085,0,0
4.64,0.056993008,4.311123,8.313361,1003.46796,5.702924780407847,1003.4527287545185,0,0
4.659999999999998,-0.0051267890000000005,4.2825227,9.255509,1003.48303,5.701131383911897,1003.4536498403937,0,0
4.68,-0.009561658,4.306347,8.578521,1003.47296,5.698973264527256,1003.4545332284473,0,0
4.699999999999998,0.02392742,4.3349449999999985,8.625867999999999,1003.4655,5.6966153152845,1003.4553532705091,0,0
4.72,0.13390855,4.158582,9.0425,1003.4802,5.694712643544105,1003.4561673079013,0,0
4.739999999999998,0.3203513,4.415975,8.914672999999997,1003.49536,5.693218719662153,1003.4570276850324,0,0
4.76,0.43030208,4.568505,8.625876,1003.4878,5.691710647051821,1003.4578986945993,0,0
4.7799999999999985,0.3347364,4.4445734,8.77738,1003.46515,5.690348784221878,1003.4586944233522,0,0
4.8,0.13401507,4.401674,8.569069,1003.4498,5.688684908180576,1003.4593655093539,0,0
4.8199999999999985,0.07190804,4.277742400000001,8.521728,1003.47253,5.686554425149377,1003.4600058731118,0,0
4.84,0.057614267,4.268208,8.857874,1003.44464,5.684637308630168,1003.4605163813848,0,0
4.8599999999999985,0.13890137,4.392138,8.976236,1003.45746,5.6832510954816255,1003.4609564635216,0,0
4.88,0.076794356,4.1013775,8.919427,1003.4572,5.681971831206224,1003.4613317968292,0,0
4.9,0.076794356,4.1013775,8.919427,1003.4648,5.680791672306517,1003.4616759268712,0,0
4.92,0.16287647,4.0155783,9.075667,1003.4672,5.679928172967631,1003.4619998868396,0,0
4.94,0.20114534,4.0441766,8.649573,1003.4622,5.678567663865848,1003.4622868582753,0,0
4.96,0.11512409,3.9297788,9.104077,1003.462,5.6775341162690935,1003.4625393935457,0,0
4.98,-0.24333078,3.7915483,9.430754,1003.4494,5.677314105413368,1003.4627152318941,0,0
5.0,-0.042548582,3.9488437000000007,9.293459,1003.4723,5.6776690495881725,1003.4629051078236,0,0
5.02,0.0148395,4.001275,9.241383,1003.4468,5.67847406756758,1003.4630149038072,0,0
5.039999999999999,0.09614183,4.0489397,8.952589,1003.4619,5.679166015236308,1003.4631079058844,0,0
5.06,0.06749345,3.9393082,9.227186,1003.45184,5.680185888365152,1003.4631495180583,0,0
5.079999999999999,0.024490401,3.829677,9.563332,1003.44183,5.682049992007875,1003.4631095363104,0,0
5.1,-0.15233189,3.767711,9.1325035,1003.44934,5.683777672179532,1003.4630246381073,0,0
5.119999999999999,-0.109283194,3.834442,9.217726,1003.4518,5.685594120080763,1003.4629092133576,0,0
5.14,-0.17135978,3.8821062999999993,8.952604,1003.4443,5.68701588262748,1003.4627402308807,0,0
5.159999999999998,-0.16248164,3.9440882,9.108777,1003.4695,5.688432480514443,1003.4626152531332,0,0
5.18,-0.09556185,3.8916562,9.307623,1003.4543,5.69017522081182,1003.462474887884,0,0
5.199999999999998,-0.0047430247,3.9059558,9.383373,1003.42914,5.692355677186968,1003.4622308555536,0,0
5.22,-0.05253852,3.9107223,9.023559,1003.46436,5.694230867187012,1003.4620228935063,0,0
5.239999999999998,-0.06209685700000001,3.9154882,8.786839,1003.45654,5.695383245139992,1003.4618193998247,0,0
5.26,-0.038194068,3.7963242999999993,9.241342,1003.47186,5.696663579310965,1003.4616757389683,0,0
5.2799999999999985,-0.057311997,3.801091,9.265014,1003.4364,5.698101833220856,1003.4614578075752,0,0
5.3,-0.047748573,3.9488542,9.033028,1003.48944,5.699350152491063,1003.4613659792892,0,0
5.3199999999999985,-0.009508893,3.98222,8.966746,1003.46405,5.700327814850652,1003.46129450229,0,0
5.34,-0.15767902,3.9059553,9.118249,1003.44885,5.701290654253119,1003.4611865450054,0,0
5.3599999999999985,-0.20069468,3.8582895,9.113514,1003.4561,5.702190682363032,1003.4610728423868,0,0
5.38,-0.119435474,3.9059550000000014,9.255547,1003.4744,5.703339705462117,1003.46102035252,0,0
5.4,6.215274000000001e-05,4.039418,8.966747,1003.4536,5.7042638013417015,1003.460947259205,0,0
5.42,0.07176047599999999,4.1156836000000006,8.900466,1003.45624,5.704926864903554,1003.4608657278186,0,0
5.44,0.12434085,4.0537176,8.928873,1003.4487,5.705358012785286,1003.4607498900656,0,0
5.46,-0.03339015,3.901188,9.080374,1003.4487,5.70574110394527,1003.4606041562224,0,0
5.48,0.052648872,4.0489516000000005,9.0282955,1003.4739,5.706104873435861,1003.4605232508363,0,0
5.5,0.052650124000000006,4.0155854,9.165594,1003.4864,5.706683041461817,1003.4605449191343,0,0
5.52,-0.07162098,4.020352,8.777372999999999,1003.4789,5.706716489512986,1003.4606301435333,0,0
5.539999999999999,-0.009480998,4.0489510000000015,8.819983,1003.47363,5.7063732395908735,1003.4607522472957,0,0
5.56,-0.04771813,3.95362,9.179798,1003.446,5.7063014312930616,1003.46080703009,0,0
5.579999999999999,0.06700097,3.9679193,8.630607000000001,1003.4585,5.7054391713160015,1003.4608471308583,0,0
5.6,0.12913968,3.982219,8.696889,1003.4661,5.704020501348682,1003.4609014742264,0,0
5.619999999999999,0.086125225,4.0108185,8.886265,1003.4331,5.702497196167313,1003.4608494067193,0,0
5.64,0.014430761,4.1490483,8.445966,1003.42285,5.700180647671952,1003.4606666020056,0,0
5.6599999999999975,-0.028586224,4.1538153,8.630607000000001,1003.4686,5.697521059926022,1003.4605336359932,0,0
5.68,-0.23363248,3.910709,8.654325,1003.4736,5.694404866993246,1003.4604631861356,0,0
5.6999999999999975,0.01015906,4.077538,9.037813,1003.4656,5.691759613778586,1003.4604194291707,0,0
5.72,0.029310629,4.0012717,9.440241,1003.47064,5.69024291831666,1003.460417559572,0,0
5.7399999999999975,0.21574454,4.2920313,8.82477,1003.4631,5.688819089259018,1003.46042556438,0,0
5.76,0.048483714,4.0632358,8.602256,1003.4509,5.686855160086242,1003.4603983453965,0,0
5.7799999999999985,0.1823398,4.110901,8.957338,1003.4731,5.6851351981667735,1003.4604200206592,0,0
5.8,0.3544343,4.339695,8.815308,1003.45306,5.683584382142186,1003.4604126768468,0,0
5.8199999999999985,0.3257662,4.3396945,8.867388,1003.4657,5.682283663270347,1003.460425222218,0,0
5.84,0.24931099,4.2681955999999985,9.359768,1003.4579,5.682065571727463,1003.4604272165076,0,0
5.8599999999999985,0.16807587,4.320627,8.796374,1003.4854,5.681789768457112,1003.4605188806827,0,0
5.88,0.12507917,4.363526,8.82005,1003.45276,5.681546182844987,1003.4605719431772,0,0
5.9,0.024714082,4.3015604000000005,8.720628,1003.4554,5.681088040559312,1003.4606002102016,0,0
5.92,-0.06606983400000001,4.220528,8.450769000000001,1003.5032,5.6798650897744185,1003.4607785461882,0,0
5.94,-0.2094424,3.9488342,9.070979,1003.4628,5.678904270864091,1003.4609434010997,0,0
5.96,-0.22377104,3.882102,9.014167,1003.46533,5.678015752636098,1003.4611048586553,0,0
5.98,0.11084758,4.072763,9.336109,1003.48553,5.677961822970957,1003.46133545306,0,0
6.0,0.34507954,4.2014594,9.255627,1003.46533,5.678612383236268,1003.4615535866452,0,0
6.02,0.3690002,4.206226,9.355051,1003.47253,5.680077109968464,1003.4617858445692,0,0
6.039999999999999,0.43592823,4.2586580000000005,9.331379,1003.45496,5.682261565540725,1003.4619664946305,0,0
6.06,0.3833719,4.287256200000002,8.990504,1003.44495,5.684453257176857,1003.4620648576436,0,0
6.079999999999999,0.03925833,4.0250955,9.070992,1003.4597,5.686552456583251,1003.4621432577147,0,0
6.1,0.09185776,4.010795,8.644897,1003.47003,5.68774435392773,1003.4622409242895,0,0
6.119999999999999,0.2639522,4.0393940000000015,9.407139,1003.44464,5.689607413090634,1003.4622638591479,0,0
6.14,0.010644212,3.8582642,9.591784,1003.47015,5.692259601713562,1003.4623125144957,0,0
6.1599999999999975,0.082414865,3.8344297,9.426085,1003.45496,5.695262355104681,1003.4623290373088,0,0
6.18,0.19237442,3.9392931,8.914771,1003.4421,5.697673979552664,1003.4622708123323,0,0
6.1999999999999975,0.12546925,3.8868608,9.080477,1003.4799,5.699824681618567,1003.4622828298184,0,0
6.22,0.09681451,3.882094,8.654384,1003.4521,5.7009213177039575,1003.462256790282,0,0
6.2399999999999975,0.36451966,4.0632220000000006,9.383484,1003.4546,5.702633658598355,1003.4622062173024,0,0
6.26,-0.027388081,4.006022,8.630717,1003.45465,5.703394087073697,1003.4621343286356,0,0
6.2799999999999985,-0.027388081,4.006022,8.630717,1003.49,5.703310668193053,1003.4621711242264,0,0
6.3,-0.18031771,3.9297569,9.01894,1003.4597,5.703156165537133,1003.4621947407633,0,0
6.3199999999999985,-0.17072198,3.8773239,9.018944,1003.47974,5.702895780328642,1003.4622787712683,0,0
6.34,-0.022535995,4.0155535,9.123102,1003.4795,5.702852871800473,1003.462415017046,0,0
6.3599999999999985,0.06353663,4.010786,8.857978999999998,1003.4518,5.702495434317036,1003.4624971897538,0,0
6.38,0.06356071,4.082284,8.384541,1003.4543,5.701033826078987,1003.4625402876753,0,0
6.4,-0.027231477,4.0155516,8.663872999999999,1003.46185,5.699066361533731,1003.4625758839633,0,0
6.42,-0.10368424,3.9154532,9.0710335,1003.4719,5.6973475984580375,1003.4626409036607,0,0
6.44,-0.16102982,3.8248885,9.274614,1003.45404,5.696173001594727,1003.4626673918125,0,0
6.46,-0.017599553,4.067981700000002,9.21307,1003.4566,5.695561539729638,1003.4626689541327,0,0
6.48,0.030222565,4.053682,9.009493,1003.4516,5.695051353546418,1003.4626304863644,0,0
6.5,-0.036682628,3.9869497,9.075777,1003.4669,5.6947020754997775,1003.4626118664928,0,0
6.52,-0.055765674,3.939283,8.924278,1003.4617,5.6941683146646005,1003.4625921312552,0,0
6.539999999999999,-0.11309923,3.8916173,9.094718,1003.4767,5.693759883951588,1003.4626254815266,0,0
6.56,-0.09396799,3.934516,8.862735,1003.4642,5.6930568853815755,1003.462660618093,0,0
6.579999999999999,0.020771429,4.0441456,8.829596,1003.4413,5.6921261211807215,1003.462614766538,0,0
6.6,0.02558738,3.9440475,8.867475,1003.4667,5.690983641803916,1003.4625889589439,0,0
6.619999999999999,0.1833329,4.001246,8.952695,1003.47675,5.689871882419393,1003.4626171351024,0,0
6.64,0.12121959,3.9583464,9.298308,1003.4691,5.689411998919338,1003.4626653698692,0,0
6.6599999999999975,-0.14183325,3.700956,9.3267,1003.4691,5.689381460221488,1003.4627311547777,0,0
6.68,0.04938361,3.9202175,8.985825,1003.45636,5.689249635273495,1003.4627663461656,0,0
6.6999999999999975,0.006373644,3.8201191,9.1941395,1003.4664,5.689345390883132,1003.4628105224298,0,0
6.72,0.01116994,3.677122,9.165735,1003.4687,5.6894748875735495,1003.462870758696,0,0
6.7399999999999975,0.17847954,3.829651600000002,9.056845,1003.4716,5.689548579866138,1003.4629554087295,0,0
6.76,0.13069804,3.7629197,8.786985000000001,1003.45154,5.689000770633205,1003.4629891100276,0,0
6.7799999999999985,0.2788884,3.8868494,8.621283,1003.46155,5.6877007940553925,1003.4630137076988,0,0
6.8,0.24066646,3.739086,8.957427000000003,1003.4688,5.686257206480992,1003.4630562728532,0,0
6.8199999999999985,0.29326075,3.8725488,9.26043,1003.4611,5.6853826627581325,1003.4630868408414,0,0
6.84,0.14988317,3.7009525,9.473479,1003.4712,5.685284309715197,1003.4631430580887,0,0
6.8599999999999985,0.25505537,3.8344157,9.222558,1003.4737,5.685496627420437,1003.4632307366393,0,0
6.88,0.37456697,3.934513,8.990574,1003.4688,5.685628910550749,1003.4633282587546,0,0
6.9,0.29810655,3.781983,8.824869999999997,1003.46625,5.685242725651919,1003.4634249475642,0,0
6.92,0.2837754,3.720017,8.914825,1003.4482,5.68452089402962,1003.4634555719853,0,0
6.94,0.23122226,3.7486162,9.156281,1003.48114,5.683988544840206,1003.4635462956644,0,0
6.96,0.17866091,3.777215,9.208363,1003.45325,5.683745962293612,1003.4635893924428,0,0
6.98,0.13087113,3.7390826,9.10894,1003.4658,5.6835375006465005,1003.4636354309436,0,0
7.0,-0.022066087,3.6580508,9.501897,1003.49347,5.684054922176168,1003.4637835150116,0,0
7.02,-0.050736673,3.5579526,9.785962,1003.46326,5.685692141383653,1003.4639124774401,0,0
7.039999999999999,0.35080808,3.9106767,9.132619,1003.4783,5.687332037386466,1003.4640782237227,0,0
7.06,0.54200846,4.001241,9.255714,1003.49097,5.689295193881385,1003.4643214875329,0,0
7.079999999999999,0.608934,4.02984,9.033197,1003.4557,5.691146025041674,1003.4645053980804,0,0
7.1,0.5276938,4.0060067,8.90537,1003.47833,5.6926189168533625,1003.4647176700067,0,0
7.119999999999999,0.16923319,3.7438457,8.876966,1003.46326,5.693454236278031,1003.4648999858692,0,0
7.14,0.15012224,3.7962778,8.853294,1003.4708,5.693719903113444,1003.4650823202161,0,0
7.1599999999999975,0.120896,3.7629254,9.071028,1003.49084,5.693870426325392,1003.4653361584919,0,0
7.18,0.17347066,3.8058245,9.213058,1003.4579,5.694227118231963,1003.4655336798224,0,0
7.1999999999999975,0.27862,3.9249885,9.194121,1003.4631,5.694829244629357,1003.4656994484224,0,0
7.22,0.29294997,3.7962916,9.426106,1003.4628,5.695989692726897,1003.465835483543,0,0
7.239999999999997,0.26426792,3.7676922999999993,9.2035885,1003.4628,5.697186938248054,1003.4659447564347,0,0
7.26,0.21168377,3.8439577000000007,8.843772999999997,1003.47546,5.697782474255228,1003.4660755648387,0,0
7.2799999999999985,0.053940713,3.9154558,8.635458999999999,1003.45276,5.6975042597600005,1003.4661432111113,0,0
7.3,0.06827696,3.9154558,8.924257,1003.47034,5.697003380563723,1003.4662180917976,0,0
7.3199999999999985,-0.041664913,3.791526,9.634418,1003.4652,5.697571384175958,1003.4662805912416,0,0
7.34,0.020466223,3.8725574,9.018943,1003.45764,5.697962557209004,1003.4663047096216,0,0
7.3599999999999985,0.24510749,3.9249897,9.369288,1003.44995,5.698915107662178,1003.4662671436678,0,0
7.38,0.32157803,3.9917216,8.966864999999997,1003.45245,5.699652181207438,1003.4661842086736,0,0
7.399999999999999,0.3884921,4.0489206,8.91005,1003.45245,5.700142350808567,1003.4660614841616,0,0
7.42,0.2594279,4.0107884,8.71594,1003.46515,5.700003991623608,1003.4659497634398,0,0
7.439999999999999,0.13514663,3.9059246,9.061551,1003.45764,5.699872902036492,1003.4658211318616,0,0
7.46,0.13514663,3.9059246,9.061551,1003.4501,5.6997487077885465,1003.4656508769244,0,0
7.479999999999999,0.23073320000000005,4.0632205,8.962127,1003.44495,5.6995779619505695,1003.465425916505,0,0
7.5,0.24506943,4.039388,9.165707,1003.4575,5.699733388889617,1003.465198608179,0,0
7.52,0.23550029,4.149019,9.179909,1003.4395,5.700295780204793,1003.4649052435526,0,0
7.539999999999999,0.34064966,4.363514,9.165705,1003.4497,5.701382756161138,1003.464591287692,0,0
7.56,0.17335333,4.425479,9.284065,1003.442,5.7031979851949295,1003.4642325476576,0,0
7.579999999999999,0.44101602,4.487445,7.7453823,1003.4723,5.702898174454421,1003.4639446077921,0,0
7.6,0.07774459,3.8630261,9.250923,1003.42926,5.702940225264362,1003.4635653195386,0,0
7.619999999999999,0.16377155,4.4016476,8.124133,1003.4697,5.70165461667466,1003.4632522652877,0,0
7.64,0.38841915,4.706707,8.564432,1003.4446,5.700320581798228,1003.4629085023962,0,0
7.659999999999997,0.011723161,4.0250673,9.118442,1003.4572,5.699337341381604,1003.4625842028968,0,0
7.68,0.17904674,4.134697,9.284149,1003.4417,5.6990780799330825,1003.4622224687288,0,0
7.699999999999997,0.121719554,4.077498,8.697084,1003.452,5.698298535076437,1003.4618660395304,0,0
7.72,0.19821157,4.1394625,8.010597,1003.4445,5.695841694593603,1003.4614885809483,0,0
7.739999999999997,0.16478343,4.411155,8.876996,1003.4545,5.693771568366586,1003.4611298996539,0,0
7.76,-0.13153398,4.62565,7.906446000000001,1003.4441,5.690485824393166,1003.4607516612234,0,0
7.7799999999999985,0.06446843,4.5541506,9.572959,1003.4315,5.689131026043217,1003.4603121437656,0,0
7.8,0.5329349,4.430219,9.700792,1003.46185,5.689646524148643,1003.4599293224228,0,0
7.8199999999999985,0.2939751,4.468351,9.819156,1003.4441,5.692050151591169,1003.4595340759233,0,0
7.84,0.30354995,4.5398483,8.592946000000001,1003.43427,5.693891957955705,1003.4590938854428,0,0
7.8599999999999985,0.11238821,4.6685452000000005,7.423550599999999,1003.4366,5.693249961341364,1003.4586239551468,0,0
7.88,0.3705281,4.711443,7.603461,1003.4569,5.690794455627314,1003.4582025184986,0,0
7.899999999999999,0.13156827,4.3491845,8.829675,1003.46185,5.688597387443137,1003.4578432680098,0,0
7.92,0.3562495,4.482647,8.190533,1003.477,5.685597749836058,1003.457594798513,0,0
7.939999999999999,0.7625633,4.7019085999999986,9.577717,1003.46185,5.684712055786259,1003.4573905695912,0,0
7.96,0.51404387,4.3730145,9.056934,1003.43896,5.684395694180749,1003.4571437628647,0,0
7.979999999999999,0.5188542,4.3634815,9.241578,1003.46155,5.684921391781311,1003.4569415468956,0,0
8.0,0.32769245,4.220484,8.834423,1003.4339,5.6852813450924256,1003.456679919296,0,0
8.02,0.3277381,4.268148,9.023804,1003.4413,5.685891367828377,1003.4563933774396,0,0
8.04,0.15090059,4.2157154000000014,8.995398,1003.4614,5.6866115202208505,1003.4561582128964,0,0
8.059999999999999,0.2560867,4.315812,8.962259,1003.45905,5.687457922686311,1003.4559608319397,0,0
8.08,0.26088178,4.3062787,9.355218,1003.45154,5.689143360696168,1003.4557705111316,0,0
8.1,0.18921514,4.396843,8.943327,1003.43604,5.690868764872178,1003.4555313138254,0,0
8.12,0.17968594,4.3682427000000015,9.014346000000002,1003.44104,5.692729465128995,1003.4552677903557,0,0
8.139999999999999,0.27531248,4.344409,9.19899,1003.4765,5.695032228060915,1003.4551113769728,0,0
8.16,0.055471927,4.220478,8.796569,1003.44104,5.6968439604565635,1003.4549225131503,0,0
8.18,0.2032324,4.401617,8.824936,1003.44354,5.698437742884207,1003.4547146560296,0,0
8.2,0.13154806,4.1775885000000015,8.886486,1003.4511,5.699742837803018,1003.454517980716,0,0
8.219999999999999,0.18413226,4.177588,9.080596,1003.46625,5.701155669142175,1003.4543864336785,0,0
8.24,0.21282373,4.2157207,9.175285,1003.46606,5.702871668303622,1003.4543122235544,0,0
8.26,0.17937781,4.239553,8.607159,1003.4535,5.7038031436400685,1003.4542437274845,0,0
8.28,0.31801116,4.5017133000000005,8.209471,1003.446,5.703563808484365,1003.4541535269376,0,0
8.299999999999999,-0.06435415,4.282451,8.7776,1003.4384,5.703119351783058,1003.4540171130376,0,0
8.32,-0.06435415,4.282451,8.7776,1003.436,5.702495249728179,1003.453831716109,0,0
8.34,0.12685703,4.3587155,8.834415,1003.4611,5.701891752648356,1003.4536940652048,0,0
8.36,0.1651145,4.29675,9.071137,1003.4481,5.701696671381629,1003.4535522982308,0,0
8.379999999999999,0.27983612,4.4826455,8.848621000000003,1003.4384,5.7016232377790965,1003.4533724846593,0,0
8.4,0.33720648,4.611342400000002,8.801278,1003.4229,5.701696286731491,1003.4531039004423,0,0
8.42,0.24161671,4.611342400000002,8.692388000000001,1003.45306,5.70169257587713,1003.4528664213867,0,0
8.44,0.19383134,4.6256413,8.427261,1003.4356,5.701148106441454,1003.4525944257764,0,0
8.459999999999999,-0.29846942,4.282449,8.7065935,1003.4456,5.700319290222414,1003.4523289105223,0,0
8.48,-0.42751777,4.382546400000002,8.332575,1003.4304,5.6986542641238405,1003.4520153571657,0,0
8.5,-0.34624842,4.620874,8.271028999999999,1003.438,5.6963730045541885,1003.4516878461341,0,0
8.52,0.31815702,4.878268,9.090083,1003.4632,5.695302669144014,1003.4514399011405,0,0
8.54,0.45678395,4.8210690000000005,8.929114,1003.4378,5.694966374308704,1003.4511717133,0,0
8.559999999999999,-0.09765425,4.6018066,8.214221,1003.45575,5.693737971594532,1003.4509512243562,0,0
8.58,-0.09764159,4.282447,8.630849000000001,1003.47327,5.692181847959943,1003.4508367479178,0,0
8.6,-0.23146337,4.00122,9.118495,1003.44794,5.691017380189304,1003.4507251682443,0,0
8.62,-0.18843883,4.0488852999999985,9.099558,1003.48083,5.690205325975629,1003.4507349538393,0,0
8.639999999999999,0.021885246,4.3015122,9.094824,1003.4504,5.6899139958540275,1003.450742394557,0,0
8.66,0.11270784,4.3301115,8.966996,1003.4655,5.689871016794172,1003.4508020965548,0,0
8.68,0.041683048,4.1584992,9.293732,1003.45044,5.6905119028258335,1003.4508535456926,0,0
8.7,0.07041897,4.311028,8.976532,1003.4452,5.691290316999294,1003.4508786533859,0,0
8.719999999999999,-0.04427731,4.2109294,8.858172,1003.463,5.691875472433147,1003.450944475392,0,0
8.74,-0.34056807,4.210928,8.853442999999997,1003.4427,5.692290963422476,1003.4509729556047,0,0
8.76,-0.34056807,4.210928,8.853442999999997,1003.46277,5.692555043141057,1003.4510405900808,0,0
8.78,-0.35964924,3.9630666,9.293747,1003.43756,5.693308105276895,1003.4510518217796,0,0
8.799999999999997,-0.4360880999999999,3.9439995,8.93867,1003.45795,5.6938046022051525,1003.4510865795501,0,0
8.82,-0.2735176,4.2538238,9.298491,1003.463,5.69500611876192,1003.4511601798296,0,0
8.84,-0.096626855,4.339621,8.597802,1003.4678,5.6955842436314565,1003.4512851163896,0,0
8.86,-0.05835039,4.253822,9.019167,1003.455,5.6963176964720414,1003.4514088839146,0,0
8.879999999999997,-0.15392742,4.025027,9.061779,1003.46515,5.6970704464562045,1003.4515677129176,0,0
8.9,-0.034375228,3.97736,8.943423,1003.4499,5.69757014596711,1003.4517020504584,0,0
8.92,-0.18730995,3.8915617,9.0144415,1003.44244,5.697911665273862,1003.4517874077277,0,0
8.94,-0.2828679,3.915393,9.00971,1003.46246,5.6981275996004594,1003.4519012507428,0,0
8.959999999999997,0.12825222,4.2395177,8.801402000000003,1003.4526,5.698111888150931,1003.4520043579288,0,0
8.98,0.40075815,4.0440874,9.407411,1003.43713,5.698884173811151,1003.4520419157492,0,0
9.0,0.4390157,4.1394176,9.336396,1003.44495,5.700297273183769,1003.4520495709427,0,0
9.02,0.4390157,4.1394176,9.336396,1003.45483,5.702271508394923,1003.4520663446164,0,0
9.04,-0.010209873,3.4101334000000003,9.937674,1003.4625,5.705325109070906,1003.4521187269941,0,0
9.06,-0.07232829,3.4053660000000003,9.066544,1003.4777,5.707614503769089,1003.4522571046457,0,0
9.08,0.5730023,3.8534212,8.801423,1003.4495,5.70909536120024,1003.4523694495616,0,0
9.1,0.630379,3.8534207,9.038145,1003.4473,5.710314635706147,1003.4524504675113,0,0
9.12,0.47268355,4.0965137,8.280643,1003.4599,5.7100618989799985,1003.4525488732884,0,0
9.14,0.69259256,4.1489449999999986,8.77776,1003.4725,5.709513215557785,1003.4527076486888,0,0
9.16,0.56267,4.091768,8.446272,1003.4295,5.708015959566069,1003.4527643950978,0,0
9.18,0.6726061,4.172799,8.820291000000003,1003.46716,5.706472939618022,1003.4528663604024,0,0
9.2,0.5483331,3.6675441,9.0144005,1003.4521,5.70482572534466,1003.452953698048,0,0
9.22,0.8829207,3.8868058,9.663013,1003.48236,5.704558571318923,1003.4531367322786,0,0
9.24,0.7251878,3.8296072,9.984954,1003.46216,5.706064557567112,1003.4533309450886,0,0
9.26,0.8351252,3.9297047,9.554124,1003.46216,5.7083954667319246,1003.4535343361251,0,0
9.28,0.71085155,3.70091,9.62514,1003.4672,5.711389060599264,1003.4537632488353,0,0
9.3,0.71085155,3.70091,9.62514,1003.4571,5.714957425731834,1003.4539775284096,0,0
9.32,0.43840462,3.2480872000000005,9.14223,1003.4546,5.717722566665933,1003.4541691067398,0,0
9.34,0.36192966,3.476882,8.78715,1003.44464,5.719237923805839,1003.4543040805677,0,0
9.36,0.41450876,3.4816482000000004,9.099621,1003.4621,5.720256286292656,1003.454451408752,0,0
9.38,0.31413347,3.4435158,9.407356,1003.4495,5.721395011914892,1003.4545637628644,0,0
9.4,0.28067553,3.6723108,8.867636,1003.45435,5.721761680971564,1003.4546622694116,0,0
9.42,0.5148878,3.6055787000000006,9.46417,1003.46466,5.722564584320519,1003.4547853016268,0,0
9.44,0.5387875,3.6103451,8.867636,1003.46967,5.722604344079799,1003.4549475978064,0,0
9.46,1.1458238,3.9916697,8.290038000000001,1003.4566,5.721309711903262,1003.4550969513583,0,0
9.48,0.73954177,3.8963385,9.307936,1003.45184,5.7205981190990345,1003.4552171951325,0,0
9.5,0.82080036,3.6818433,9.34581,1003.4315,5.720322732700224,1003.4552380606284,0,0
9.52,0.22332613,3.658011,9.113825,1003.4719,5.7199031092476575,1003.4553164803624,0,0
9.54,0.3619411,3.9249377,7.982302000000002,1003.48956,5.717444034697584,1003.45550904871,0,0
9.56,0.87338203,3.68661,10.50574,1003.45685,5.717900672188011,1003.4556840295264,0,0
9.58,0.6821904999999999,3.3624842000000004,9.663015,1003.4667,5.719032357492662,1003.4558783000696,0,0
9.6,1.0980352,4.063168,9.028606,1003.4742,5.720148309837012,1003.4561159156416,0,0
9.62,0.8877253,3.68661,8.957591,1003.45905,5.720759347868414,1003.4563364354648,0,0
9.64,0.8399278,3.2576196,9.071217,1003.4639,5.7208135209698785,1003.4565585156123,0,0
9.66,0.79213166,3.3815498,8.493619,1003.47156,5.719338976896595,1003.4568087509747,0,0
9.68,0.79213166,3.3815498,8.493619,1003.44366,5.716518966686365,1003.4569825234377,0,0
9.7,0.75389576,3.7771745,8.862903,1003.46375,5.713533291602074,1003.4571604317013,0,0
9.72,0.80647486,3.7962403,9.895003,1003.46906,5.7124181254800295,1003.4573604698887,0,0
9.74,0.7347784,3.7533414,9.587266,1003.46906,5.7123218788270345,1003.45757934194,0,0
9.76,0.71566117,3.638944,9.932878,1003.46155,5.71370966705712,1003.4577870316533,0,0
9.78,0.97377175,3.8915718,8.754012,1003.4183,5.714380887972848,1003.45782839297,0,0
9.8,0.93553406,3.9344707,9.260593,1003.4211,5.715405347884243,1003.4577327176145,0,0
9.82,0.9450949,4.3396277,8.394197,1003.4536,5.715473709822217,1003.4576333010872,0,0
9.84,0.648749,4.1013002,9.431032,1003.43616,5.716376231133998,1003.4574681527596,0,0
9.86,0.8303826999999999,4.3062615,8.001242,1003.4483,5.715559296818102,1003.4572892223475,0,0
9.88,0.7300075,4.048868,9.222718,1003.47406,5.715251299831787,1003.457191494235,0,0
9.9,0.36196452,3.6246443,8.484150999999999,1003.44604,5.713594858534586,1003.4570649962956,0,0
9.92,0.63919437,4.0965333,8.758746,1003.466,5.711703611080179,1003.4569853887292,0,0
9.94,0.50536114,4.0155015,8.806091,1003.4508,5.7096139595287845,1003.4568927800847,0,0
9.96,0.44322497,4.0488677000000015,8.85817,1003.4304,5.707477336444002,1003.4567155770776,0,0
9.98,0.5244823000000001,4.087,8.914983,1003.4506,5.705455436750148,1003.4565369844232,0,0
10.0,0.50536436,3.9869025,9.194313,1003.45074,5.703985043914683,1003.45635831081,0,0
10.02,0.5005852,4.0584006,9.090156,1003.4736,5.702868631045263,1003.4562625048864,0,0
10.04,0.50536686,4.0869994,8.843966499999997,1003.45325,5.7016287919707445,1003.4561670057547,0,0
10.06,0.4629262,4.0869856,8.758800500000001,1003.4507,5.700119600348276,1003.4560629415013,0,0
10.08,0.52029806,4.1012855,9.019194,1003.46326,5.698887198184961,1003.4559968997374,0,0
10.1,0.5537709,4.1966157,8.630974,1003.4379,5.697262735631135,1003.455873396396,0,0
10.12,0.64459425,4.349146,8.626241,1003.4482,5.69544103289487,1003.4557366446162,0,0
10.14,0.5490124,4.3300785999999984,9.0334,1003.4506,5.694180181856357,1003.4555973188233,0,0
10.16,0.3387223,4.2728796,8.806151,1003.47064,5.69292328953109,1003.4555283642046,0,0
10.18,0.44867206,4.0440845,9.554189,1003.45575,5.692902014935442,1003.4554682337924,0,0
10.2,0.33396387,4.0965166,9.165968,1003.4431,5.693267522808047,1003.4553705769188,0,0
10.22,0.65423197,4.6256037,8.626247,1003.4708,5.6934844528064525,1003.455339833228,0,0
10.24,0.23840328,4.1537147,8.754078,1003.4377,5.693325018239771,1003.4552491647032,0,0
10.26,0.5204259,4.539805,8.545765,1003.4781,5.692830032057596,1003.455251313002,0,0
10.28,0.48697436,4.549338,9.128098,1003.4277,5.693120750827997,1003.455154026512,0,0
10.3,0.2480055,4.5398045,8.455814,1003.4431,5.6928369327387065,1003.4550246696741,0,0
10.32,0.2480055,4.5398045,8.455814,1003.4602,5.69204647562531,1003.4549290011612,0,0
10.34,-0.2729647,4.2109112999999985,8.474755,1003.45013,5.690533852940647,1003.4548271920587,0,0
10.36,-0.21082015,4.2061449999999985,8.8251,1003.4477,5.689035547531272,1003.4547115756444,0,0
10.38,-0.18689984,4.6065345,8.394272,1003.4401,5.687136533809879,1003.4545568153087,0,0
10.4,-0.5119123,4.2919416,8.555242999999999,1003.4477,5.684907222989363,1003.4543953845407,0,0
10.42,-0.17253199,4.7876629999999984,8.380071000000001,1003.44006,5.682534762662171,1003.4542011369298,0,0
10.44,-0.14384606,4.7590637000000005,9.184921,1003.4627,5.681484329035755,1003.4540600956476,0,0
10.46,-0.5166495,4.30624,8.73042,1003.4652,5.680364444352598,1003.4539755752268,0,0
10.48,-0.34456939,4.544568,8.285387,1003.44745,5.678579916912098,1003.453877400912,0,0
10.5,-0.56442624,4.5398010000000015,8.200169,1003.4675,5.676076863208289,1003.4538396954442,0,0
10.52,-0.6791202,3.9964135,8.238046,1003.4776,5.672514449534142,1003.4538919159892,0,0
10.54,-0.3588662,4.3205385000000005,8.498439,1003.4549,5.668775005573784,1003.4539416871652,0,0
10.56,-0.20088221,4.701857,8.990839,1003.45233,5.666155576903491,1003.4539798629024,0,0
10.58,0.009477317,5.4931044999999985,8.578951,1003.46747,5.66461593875832,1003.4540621594774,0,0
10.6,-0.090886496,5.6218010000000005,8.683109,1003.47003,5.664363597738974,1003.4541923609568,0,0
10.62,-0.47803855,5.3882394,8.739923,1003.46246,5.66511241535396,1003.4543371704848,0,0
10.64,-0.6309562,4.587457,9.07607,1003.47253,5.666557328401864,1003.4545306183701,0,0
10.66,-0.21508911,4.8972826,9.142353,1003.45734,5.668995638181026,1003.454711662695,0,0
10.68,-0.3728106,4.8019514,8.877227,1003.48755,5.671733468005617,1003.4549898514748,0,0
10.7,-0.2771904000000001,4.67802,8.810947,1003.4649,5.674476695143977,1003.4552713356157,0,0
10.72,-0.53526366,4.8210163,8.190744,1003.4775,5.676257979324872,1003.4556000781944,0,0
10.74,-0.39185756,4.825782299999998,8.541091,1003.4699,5.677803600164608,1003.4559420348552,0,0
10.76,-0.47786987,4.7685833,8.635781,1003.47504,5.679257054153442,1003.4563129404347,0,0
10.78,-0.18149796,4.949712,8.834629,1003.4825,5.681147358925894,1003.4567349460201,0,0
10.8,-0.28662956,4.9973764,8.607379,1003.5378,5.6830608473609185,1003.457399664349,0,0
10.82,-0.5972805999999999,5.059341000000001,7.9587693,1003.5102,5.6839332932959294,1003.4581770906732,0,0
10.84,-0.69286466,4.844846,8.730478999999999,1003.41956,5.685044696342282,1003.4587250030464,0,0
10.86,-0.9366105,4.773347,7.906694,1003.4469,5.684855349951782,1003.4591665684088,0,0
10.88,-0.31999183,4.9211087,9.000342999999997,1003.4921,5.685553476072822,1003.4596752959164,0,0
10.9,-0.59719634,5.2547674,7.8972297,1003.485,5.685457073583247,1003.460215976477,0,0
10.92,-0.9843243,4.7638110000000005,8.294922999999999,1003.42676,5.684890844399796,1003.460573280305,0,0
10.94,-1.0560093000000002,4.8972745,7.187073,1003.4519,5.6821339995143045,1003.4608577701584,0,0
10.96,-0.56844527,4.9401730000000015,7.977721000000002,1003.45483,5.67878128085698,1003.4610874454204,0,0
10.98,-0.22904299,4.8448410000000015,9.15659,1003.4419,5.676911921878071,1003.4612213116781,0,0
11.0,-0.20991172,4.9211054,8.8962,1003.4243,5.675958647787246,1003.4612066791813,0,0
11.02,-0.12861894,4.9926033,8.313872,1003.4243,5.6748410726774265,1003.4610608858625,0,0
11.04,-0.16206552,4.9306374,8.148169000000001,1003.447,5.673221985343168,1003.4608814436964,0,0
11.06,-0.17194444,4.8734470000000005,9.147099,1003.452,5.672912637356801,1003.4606909154013,0,0
11.08,-0.23885158,4.7256827,8.986130000000003,1003.48975,5.6733251830404665,1003.4606271773043,0,0
11.1,-0.30098397,4.759049,8.886708,1003.4797,5.674227582631757,1003.4606395204836,1,1
11.12,-0.29140908,4.7352157,8.593176,1003.462,5.6749994734992715,1003.460655324643,1,1
11.14,-0.12888561,4.7209163,8.88671,1003.4391,5.676168445184546,1003.4605916900296,1,1
11.16,-0.14799468,4.7304487,8.659460000000001,1003.46967,5.677278223890276,1003.4605681444008,1,1
11.18,-0.1240855,4.7971807,8.02505,1003.45667,5.677255040545218,1003.4605333061636,1,1
11.2,-0.16231886,4.773348,8.290177,1003.4819,5.676682240761776,1003.4605794431952,1,1
11.22,0.024108738,4.868678,8.673666,1003.4769,5.676413912406018,1003.4606789638804,1,1
11.24,0.05279261,4.8067126,8.531634,1003.4415,5.676095374325437,1003.4606978560879,1,1
11.26,0.25833434,4.8877444,7.826208599999997,1003.44653,5.674565676746776,1003.4606635449608,1,1
11.28,0.27267885,4.759047,7.8593497,1003.4822,5.6718907444491045,1003.460710758887,1,1
11.3,0.119735256,4.5254855,7.4948015,1003.4717,5.667307237607647,1003.4607920383801,1,1
11.32,0.7506795999999999,5.2929010000000005,7.802539,1003.4666,5.6625134871278275,1003.4608847656019,1,1
11.34,0.8462909,5.2643013,8.986142,1003.47687,5.659610342630204,1003.4610242462192,1,1
11.36,0.24404062,4.7876453,8.896189,1003.48926,5.657674635529274,1003.461249140006,1,1
11.38,0.26317513,4.949708,9.142378,1003.4566,5.657211805299318,1003.4614311192523,1,1
11.4,0.18192856,5.0116725,8.74469,1003.4895,5.657389129558598,1003.4616929640848,1,1
11.42,0.1675993,5.269067,8.275984,1003.4643,5.657573889474372,1003.4619337155079,1,1
11.44,0.27276009999999995,5.4263625,7.9303737,1003.4742,5.657350216258018,1003.46219060209,1,1
11.46,0.4926412,5.8124537000000025,7.5847630000000015,1003.4641,5.656673844551658,1003.462424460906,1,1
11.48,1.1522694,6.174711,9.696308,1003.50183,5.659724758631603,1003.4627729584967,1,1
11.5,1.0423388,6.041248,9.876217,1003.4667,5.666206053284235,1003.4630950283173,1,1
11.52,0.8415973,6.2795752999999985,8.228644000000001,1003.45416,5.673119771773353,1003.4633474431088,1,1
11.54,0.78902966,6.3463072999999985,8.257050999999999,1003.4692,5.680512942579763,1003.4635915460233,1,1
11.56,0.34546596,5.7313975999999975,8.73058,1003.4843,5.688314504228691,1003.4638817857928,1,1
11.58,0.03960669,5.626532,9.653794,1003.5119,5.697954465847431,1003.4643111072244,1,1
11.6,0.04445876,5.821959,10.548603,1003.4993,5.71100236945122,1003.4648164156557,1,1
11.62,-0.32834184,5.340537,10.577011,1003.4618,5.726608648880164,1003.4652520470888,1,1
11.64,0.80454403,4.2680593,9.161431,1003.4893,5.74085568413676,1003.4657235436536,1,1
11.66,0.48910105,3.7056055,10.165127,1003.4772,5.755288133143911,1003.4661814732613,1,1
11.68,-0.56238353,4.067862,6.65694,1003.45166,5.76357865757428,1003.4665338225586,1,1
11.7,-0.619693,4.840043,6.424958,1003.439,5.766923982474955,1003.4667460366368,1,1
11.72,-0.112985566,5.168933999999999,6.4012904000000015,1003.4692,5.766221468815032,1003.4669423832643,1,1
11.74,-0.046020075999999986,5.0497684000000005,7.887898,1003.49927,5.764309113518532,1003.4672322545644,1,1
11.76,-0.43793994,4.6875095,8.209841,1003.47687,5.761538258717997,1003.4675230807287,1,1
11.78,-0.65776265,4.3204837,8.650144000000001,1003.46924,5.75849169630509,1003.4677862356372,1,1
11.8,0.083179176,4.997333,7.1067348,1003.4742,5.753127401750502,1003.4680418488658,1,1
11.82,0.532529,5.3786559999999985,8.214589,1003.4893,5.74811429930296,1003.4683442380586,1,1
11.84,0.47043973,5.8076453,8.257203,1003.47675,5.743996459973045,1003.4686416898925,1,1
11.86,0.4035465,5.602683,9.071524,1003.4617,5.7418563928164845,1003.4688795282492,1,1
11.88,0.5565726,6.1842012,9.208828,1003.4618,5.742379387341861,1003.4690641959196,1,1
11.9,0.5136025,5.812409,8.9295025,1003.48975,5.744339786392707,1003.4693018371678,1,1
11.92,0.14080189,5.3834176,10.046824,1003.47174,5.749084974602928,1003.4695205943608,1,1
11.94,0.7000871999999999,4.968726,8.957916,1003.4621,5.753921822585138,1003.4696871740773,1,1
11.96,1.1733358,4.368139,9.592331,1003.5048,5.7595240275862025,1003.4699607700876,1,1
11.98,1.0873476,4.1345763,9.365083,1003.43195,5.765137080239851,1003.4700656807499,1,1
12.0,1.1160506,4.229907,9.346148,1003.4444,5.7707905637158925,1003.4700659833608,1,1
12.02,0.42302728,4.787593,6.4013524,1003.4366,5.771648863448021,1003.4699457732074,1,1
12.04,0.90107983,5.240414,6.486578,1003.47437,5.769062340902248,1003.4698554827324,1,1
12.06,0.24369459,4.492128,8.19073,1003.46967,5.765431219786754,1003.4697750343312,1,1
12.08,-0.2773313,4.425396,7.447426299999999,1003.49194,5.759482226621077,1003.4697837439998,1,1
12.1,-0.18656954,5.32151,6.4863370000000025,1003.45416,5.750934027055255,1003.4697351943847,1,1
12.12,0.5160070999999999,6.0936933,7.594183,1003.48694,5.742943373372794,1003.4697542332448,1,1
12.14,0.66412646,6.2414584,7.953993,1003.4847,5.736267760917468,1003.4698248607424,1,1
12.16,0.42508173,6.289125,8.517383,1003.4696,5.731742428298531,1003.4698864577002,1,1
12.18,0.5110637,6.332026,9.066567,1003.4667,5.730119399698987,1003.4699294135246,1,1
12.2,-0.15821794,6.332029,9.199121,1003.4595,5.731270903010612,1003.4699298234024,1,1
12.22,-0.22994226,6.4893255,8.399004,1003.4574,5.73372152390499,1003.4698850782061,1,1
12.24,-0.18695128,5.807708,8.356392,1003.4949,5.736400277675132,1003.4699355950688,1,1
12.26,-1.0760493999999998,4.129882,10.084445,1003.42676,5.740876027591632,1003.4698247996267,1,1
12.28,-1.4393691000000002,4.172782,7.8876762,1003.4343,5.7429503732340015,1003.4695990114957,1,1
12.3,-1.1765343,5.087962,7.3432145,1003.4595,5.7428372251329165,1003.4693631486612,1,1
12.32,-1.3534415000000002,4.3682137,8.024963,1003.4825,5.741260759997813,1003.4692020329255,1,1
12.34,-0.82774496,3.8867934,8.451052,1003.4469,5.738609523325508,1003.4689793837433,1,1
12.36,-0.13472793,4.3586836,9.042849,1003.485,5.736474380810199,1003.468840325144,1,1
12.38,-0.058278345,4.630378,8.474717,1003.4774,5.734008909395907,1003.4687482677954,1,1
12.4,0.7064085,5.1594677,7.168014,1003.4624,5.7296031444707545,1003.4686440721581,1,1
12.42,0.6776751999999999,5.2309675,8.522049,1003.457,5.725914711297317,1003.4685100862332,1,1
12.44,0.022787467,5.2500353,9.4783945,1003.4649,5.724563031064179,1003.4683786999592,1,1
12.46,-0.034597427,5.6694927,8.578855,1003.462,5.724133175572088,1003.468239643728,1,1
12.48,-0.37401807,5.502664599999999,9.397902,1003.48956,5.725795003439921,1003.4681935269246,1,1
12.5,-0.34539375,5.6694955999999985,10.283231,1003.48956,5.73106756776193,1003.4682296974202,1,1
12.52,0.65831053,4.8877816,10.363709,1003.467,5.738949848193723,1003.4682572307593,1,1
12.54,0.6248246999999999,4.0917673,10.515208,1003.42426,5.7487421762051145,1003.468123169187,1,1
12.56,0.67828,4.0965123,7.8356156000000015,1003.4449,5.755130636871009,1003.4679211089727,1,1
12.58,0.60179484,4.5064363,7.324299000000001,1003.4574,5.757974679855543,1003.4677046925752,1,1
12.6,1.189686,4.9020614999999985,6.893466,1003.4549,5.757513140744133,1003.4674673701527,1,1
12.62,1.036724,4.6303678,7.5089380000000014,1003.4826,5.754840259246942,1003.4673121495276,1,1
12.64,0.31973702,4.063148,7.570483,1003.43726,5.749631443380461,1003.4670668088452,1,1
12.66,0.09506972,4.687567,6.756164599999999,1003.5052,5.7414227534979325,1003.4669873053064,1,1
12.68,1.141822,6.1080017,6.7845683,1003.4675,5.732622478493798,1003.4669189016804,1,1
12.7,1.2613007,5.7076116,8.526828,1003.48254,5.7256962703506105,1003.4669146961903,1,1
12.72,0.8263303,5.47405,9.473708,1003.48254,5.721770004313173,1003.4669672313133,1,1
12.74,0.7641682,6.136603,9.786177,1003.4926,5.721763306175218,1003.4671059293147,1,1
12.76,0.86930734,6.108003599999999,8.981327,1003.5001,5.723806410413238,1003.4673472615236,1,1
12.78,0.5633916999999999,6.618025,8.725667999999999,1003.5079,5.72779837743546,1003.4677064925216,1,1
12.8,-0.038888365,4.959264,10.1459875,1003.4977,5.7341781274860235,1003.4681318856584,1,1
12.82,-1.1764982,3.9916534,8.976587,1003.4349,5.7397370853063325,1003.468388128246,1,1
12.84,-0.6602958000000001,5.5741505999999985,7.958689,1003.4549,5.7442280321693735,1003.4685659869343,1,1
12.86,-0.64119303,5.0974956,8.654645,1003.4699,5.748436127329253,1003.4687279453186,1,1
12.88,-0.68421954,4.616073,8.086514999999999,1003.44745,5.750865333765131,1003.4687944511436,1,1
12.9,0.08530418599999999,4.2442822,9.052332,1003.4826,5.753089733356585,1003.4689029156668,1,1
12.92,0.018370435,4.106053,8.820345,1003.4703,5.754565976374281,1003.4690037844227,1,1
12.94,0.08049144,4.0679207,7.3100679999999985,1003.4398,5.752542549894607,1003.4689877784316,1,1
12.96,0.6301524000000001,4.4111129999999985,7.0354714000000005,1003.48,5.747354581072665,1003.4690132795357,1,1
12.98,0.84044725,4.5445776,8.043898,1003.5026,5.7413620213198815,1003.4691567245047,1,1
13.0,0.051763177,4.797205,9.289044,1003.4374,5.737127921436454,1003.4691691482714,1,1
13.02,0.3002965,6.0174437,7.916065700000001,1003.46497,5.733409665220406,1003.4691650089777,1,1
13.04,0.49268806,6.1461115,9.199199,1003.5005,5.7325016807003735,1003.4692741574652,1,1
13.06,0.22505201,5.874417,9.274953,1003.46027,5.733886131259973,1003.4693381861024,1,1
13.08,0.19160987,5.140367,9.686848,1003.4876,5.737263820390196,1003.4694605043358,1,1
13.1,0.24423717,4.1155562,9.862025,1003.47546,5.741811086819923,1003.4695901829114,1,1
13.12,0.48324388,3.9773257000000006,10.226576,1003.4627,5.747987139992089,1003.4696799622425,1,1
13.14,1.0138515,4.8257713,7.243905000000002,1003.4403,5.750965094905982,1003.469653523395,1,1
13.16,1.0808016000000005,5.1022305,6.8178115,1003.44495,5.7507342550618565,1003.4695412293453,1,1
13.18,1.0808016000000005,5.1022305,6.8178115,1003.46027,5.747668955192985,1003.4694086298973,1,1
13.2,-0.13321891,4.005922,7.1870995,1003.45013,5.741372896888198,1003.4692220619576,1,1
13.22,-0.19533984,4.392012,7.0971475,1003.4628,5.732492785934372,1003.4690340911028,1,1
13.24,0.2540112,5.779079,6.7610097000000025,1003.46783,5.722503389250695,1003.4688636653276,1,1
13.26,0.73680437,5.99834,8.096115,1003.5107,5.7140743789381165,1003.4688636879172,1,1
13.28,0.35923284,5.302422,9.293921,1003.47784,5.708308157131136,1003.4688960226014,1,1
13.3,0.25411016,5.655146,9.132956,1003.4703,5.704996384505893,1003.4689296478464,1,1
13.32,0.3592823,5.941139,9.128222,1003.49554,5.7041816808356645,1003.4690551563808,1,1
13.34,-0.037408464,6.0126367,10.430186,1003.4827,5.707949731089832,1003.4692151771593,1,1
13.36,-0.14729443,6.274796,8.006176,1003.43744,5.711875121206306,1003.4692421808808,1,1
13.38,-0.05166538,4.668465599999998,10.97465,1003.5058,5.71956950398288,1003.4693976495184,1,1
13.4,-1.1892258,3.7866518,9.341285,1003.45825,5.726873175087768,1003.4694948900681,1,1
13.42,-1.3995042,5.0164227,7.144523,1003.4176,5.731086103357312,1003.4693939902136,1,1
13.44,-1.4329462,5.426346,7.22501,1003.4477,5.733192023501147,1003.4692267367373,1,1
13.46,-0.69201076,4.363403,8.872589,1003.4653,5.735014321310191,1003.4690648153132,1,1
13.48,-0.69201076,4.363403,8.872589,1003.48065,5.736579450152093,1003.468963448208,1,1
13.5,-0.47209024,3.6627173,9.488067,1003.44775,5.738472443967731,1003.4687975118204,1,1
13.52,-0.4911930000000001,3.8009474,8.867861,1003.41003,5.739565798151525,1003.4684393273856,1,1
13.54,-0.38124102,4.0106754,8.261858,1003.4151,5.738974243433349,1003.4679308140404,1,1
13.56,0.95110613,4.954483,7.2012399999999985,1003.448,5.736066260835559,1003.4674097407179,1,1
13.58,0.3344937,5.149912400000002,7.3953485,1003.4401,5.7315905289814895,1003.4668510052637,1,1
13.6,0.32968724,5.7457333,8.479526,1003.4806,5.728302418848666,1003.4664068029973,1,1
13.62,0.023762047,5.6694684,9.682062,1003.48816,5.728095243680537,1003.466092617384,1,1
13.64,0.17192705,5.779099,9.58264,1003.4376,5.730552588169175,1003.4657124295537,1,1
13.66,0.057185143,5.5979705,9.03818,1003.47327,5.734191110155956,1003.4654037028399,1,1
13.68,0.061956093,5.111782,8.990835,1003.47833,5.7382596998553455,1003.4651774465857,1,1
13.7,0.18621321,4.1441717,9.629977,1003.4605,5.742990631778665,1003.4649606877516,1,1
13.72,0.51599306,4.7495246,7.1065380000000005,1003.43054,5.744294238686111,1003.4646452451702,1,1
13.74,0.32479203,5.2309470000000005,7.044989599999999,1003.4506,5.743016927455896,1003.4643159572224,1,1
13.76,-0.17232533,5.378711,6.836674,1003.4655,5.739297279765379,1003.4640292609456,1,1
13.78,0.14790376,5.130851,8.233322,1003.47327,5.735515031422873,1003.4638092027764,1,1
13.8,-0.76983625,4.344369,9.79094,1003.4481,5.733846024201374,1003.463558206248,1,1
13.82,-1.458146,4.3062367,7.3290477,1003.4429,5.729655468258545,1003.4632620561728,1,1
13.84,-0.58345944,5.3119807,6.074429,1003.4505,5.722141729686292,1003.4629544345644,1,1
13.86,-0.35404664,5.564609,8.758835000000001,1003.4482,5.7164836127540575,1003.4626295041468,1,1
13.88,-0.66474277,5.2929153,9.502135,1003.4506,5.713554015444348,1003.4622990894148,1,1
13.9,-0.45445806,4.892525,9.014489,1003.45825,5.711735484682423,1003.4619925582356,1,1
13.92,-0.18202701,5.1785192,9.563679,1003.45544,5.712174282928608,1003.461698118076,1,1
13.94,-0.19159548,5.2643175000000015,9.289083,1003.4431,5.714193650637706,1003.4613709975258,1,1
13.96,0.30069762,5.62181,9.757786,1003.48346,5.7188215902655655,1003.4611614742166,1,1
13.98,0.42974353,5.2929177,10.122334,1003.4733,5.726081380197537,1003.4610200381136,1,1
14.0,0.07124047,5.092723,9.454781,1003.4482,5.734203571751935,1003.4608489130355,1,1
14.02,-0.5979587,3.3862963,9.336419,1003.42554,5.741416930670363,1003.4605705948295,1,1
14.04,-0.5453898,3.190868,8.010785,1003.4231,5.745079716833504,1003.4601897787217,1,1
14.06,-0.5924353,4.1632266000000016,8.43695,1003.44073,5.747227214073106,1003.4597832344052,1,1
14.08,-0.5924353,4.1632266000000016,8.43695,1003.4482,5.748028071029808,1003.4593823122032,1,1
14.1,-1.1612129999999998,4.110794,8.555311999999999,1003.4506,5.747917981531763,1003.4589964410216,1,1
14.12,-1.2281176,4.7638116,8.157623,1003.45844,5.746928091187633,1003.4586534820579,1,1
14.14,-1.0560383,5.0212059999999985,8.337531,1003.4508,5.745712408815352,1003.4583221709822,1,1
14.16,-0.8552736999999999,4.334821,9.74365,1003.4609,5.746190371276156,1003.4580387047,1,1
14.18,-0.38684034,4.091727,10.160279,1003.44824,5.748706492254687,1003.4577529585564,1,1
14.2,-0.33902958,4.325288,9.469057,1003.4761,5.751882948585769,1003.4575665226132,1,1
14.22,-0.5110835,4.5731483,8.943539999999997,1003.44073,5.754887885556142,1003.457341176332,1,1
14.24,-0.38680226,4.8353085999999985,8.574257000000001,1003.43536,5.757300951470567,1003.4570629281234,1,1
14.26,0.4974742,5.350096,8.962480000000003,1003.4329,5.7604262287672725,1003.4567300814647,1,1
14.28,0.14378138,4.725676999999999,9.336498,1003.4534,5.764201945373608,1003.456423989864,1,1
14.3,-0.023499101,5.116534,8.602667,1003.466,5.767590904670774,1003.456188000962,1,1
14.32,-0.75479007,5.817218,5.833042,1003.4761,5.767016112129856,1003.4560511643648,1,1
14.34,-0.40585798,5.230931,8.271261,1003.44855,5.766105396435886,1003.4559032513561,1,1
14.36,-0.27200446,5.5455236,7.0971303,1003.39557,5.7632714846705015,1003.4555553557165,1,1
14.38,-0.20508087,5.321495,7.400133,1003.43616,5.758969293225527,1003.4551781318486,1,1
14.4,0.23945357,5.0974665,8.98616,1003.4586,5.7559145054655465,1003.4548571355645,1,1
14.42,0.43066478,5.207096599999999,8.436971,1003.4384,5.753120233784809,1003.4545142575597,1,1
14.44,0.43066478,5.207096599999999,8.436971,1003.44104,5.7505662134897415,1003.4541627832273,1,1
14.46,0.038733557,5.0641,7.849906,1003.45374,5.7470238321512435,1003.4538506984876,1,1
14.48,-0.17155878,5.4120584,7.9919395,1003.4409,5.743269011949482,1003.4535283178972,1,1
14.5,-0.40098304,5.421591,8.190783999999999,1003.4437,5.739708286358947,1003.4532080804632,1,1
14.52,-0.28624868,5.3119597,8.934088000000003,1003.4435,5.737510754496274,1003.4528901695767,1,1
14.54,-0.36271924,5.1403637,8.877276,1003.451,5.736248437769383,1003.4526024589067,1,1
14.56,-0.28707838,4.940189,8.484243,1003.46155,5.73489705337018,1003.452380448907,1,1
14.58,-0.44962412,5.030754,8.384818,1003.4286,5.733402471461741,1003.4520986712547,1,1
14.6,-0.34447914,5.178518,8.006065,1003.47144,5.731272435958406,1003.4519193213052,0,0
14.62,0.052222997,5.545543,7.963452999999999,1003.44867,5.728927648900387,1003.4517491501327,0,0
14.64,-0.16766953,5.154686,8.45583,1003.4538,5.726817860489647,1003.4516061699443,0,0
14.66,-0.21548912,5.0307559999999985,8.389546000000001,1003.4639,5.724674125366707,1003.4515240904384,0,0
14.68,0.03780815,5.5836773,8.181229,1003.43616,5.722758498151058,1003.4513962542607,0,0
14.7,0.1907403,5.755274,8.640464999999999,1003.46124,5.722045631217267,1003.4513187356993,0,0
14.72,0.25764686,5.555079,8.801434,1003.47644,5.72245539498838,1003.4513406768497,0,0
14.74,0.20981644,5.040292,9.052354,1003.44116,5.7237559054290434,1003.4513234136134,0,0
14.76,0.13332884,5.0879574,8.190691000000001,1003.4059,5.7243426593227325,1003.4511446355287,0,0
14.78,0.34839845,5.173756,7.210667,1003.4614,5.722713544253273,1003.4510235865256,0,0
14.8,0.38660455,5.102258,7.570479400000001,1003.44116,5.719664312035705,1003.4508811187146,0,0
14.82,0.43438107,5.397785,8.384794,1003.45123,5.717125293586135,1003.4507564901297,0,0
14.84,0.2718569000000001,5.440685,8.602576,1003.4614,5.7154636830340575,1003.4506846849472,0,0
14.86,-0.0627509,5.3072214,9.222781,1003.44867,5.715536653897778,1003.4506139850224,0,0
14.88,-0.058003373,4.9115980000000015,9.781438,1003.4313,5.717774966799498,1003.4504819842227,0,0
14.9,-0.067573786,4.8401,8.990791,1003.43854,5.7203920104192925,1003.4503223571727,0,0
14.92,0.32433784,5.3167567,8.479472999999999,1003.43115,5.722924142085849,1003.450112290226,0,0
14.94,0.31953645,5.04983,7.480511,1003.4364,5.723329814465702,1003.4498773108268,0,0
14.96,-0.115447246,4.6303735,8.39425,1003.4364,5.723011194661435,1003.4496211647104,0,0
14.98,0.19521846,5.2929260000000005,7.3858194,1003.44617,5.721017219930849,1003.4493824098092,0,0
15.0,0.24778555,5.4073234,7.5846634,1003.44617,5.718027064339348,1003.4491598813032,0,0
15.02,0.21907438,5.3548923,8.034429,1003.43616,5.71487362093111,1003.4489164555428,0,0
15.04,0.6110076,5.5598535999999985,8.271149000000001,1003.44135,5.712266812079887,1003.4486741253007,0,0
15.06,0.27764434,5.369161599999999,8.257056,1003.4692,5.709878598776503,1003.4485338954477,0,0
15.08,-0.03780876,5.102233999999998,7.972994,1003.4262,5.70688726941905,1003.4483295863264,0,0
15.1,-0.06645966,5.1355996,8.219186,1003.45886,5.703843668251642,1003.4481869682753,0,0
15.12,0.15821902,5.388226,8.209719999999999,1003.4516,5.701033649484104,1003.4480732378801,0,0
15.14,0.25863677,5.1451306,8.886743,1003.45654,5.699376894128938,1003.4480032260465,0,0
15.16,0.15349503,4.978300599999999,8.905682,1003.4516,5.698603497064849,1003.4479543119763,0,0
15.18,0.4498847,5.1975617,8.763653999999999,1003.45654,5.698603279928577,1003.4479419999808,0,0
15.2,0.51681596,5.39299,8.389638,1003.4315,5.69884542464923,1003.4478719299016,0,0
15.22,0.535963,5.040264,8.517468,1003.4288,5.6991443053223,1003.4477413570323,0,0
15.24,0.45473427,5.0211973,8.739987,1003.45935,5.699862991238513,1003.4476677739592,0,0
15.26,0.29226285,4.530241,9.218166,1003.4767,5.7013354563564205,1003.4477072719701,0,0
15.28,0.2779513,4.801933999999998,9.028793,1003.4036,5.703374580835548,1003.4475833862327,0,0
15.3,0.3257633,5.049794,8.356508999999999,1003.45917,5.7049491584391605,1003.4475156326052,0,0
15.32,-0.004015282,4.887731,8.711592,1003.4692,5.7065645559614815,1003.4475338292224,0,0
15.34,-0.09956953,4.616036,8.545892,1003.42395,5.707637193716349,1003.4474650059683,0,0
15.36,-0.08043635,4.5826697,8.460673,1003.454,5.7080372370111165,1003.4474277197194,0,0
15.38,-0.10430747,4.5445366,8.659521,1003.47217,5.708169405438207,1003.4474838457988,0,0
15.4,0.043908328,4.878195,8.403867,1003.44403,5.707933570489388,1003.4475210049576,0,0
15.42,0.23511438,4.9306264,8.081928999999999,1003.46716,5.706859983959832,1003.4476245391728,0,0
15.44,0.21603705,4.7828627,8.6263895,1003.48474,5.705872666754591,1003.447849637664,0,0
15.46,0.06309730000000001,4.630332,8.773157000000001,1003.44684,5.705078076222968,1003.4480448999956,0,0
15.48,0.26865673,4.8305264,8.200296,1003.44403,5.703626893778976,1003.4482029801512,0,0
15.5,0.30693704,5.240449400000001,8.626397,1003.4471,5.702800039949207,1003.4483386890488,0,0
15.52,0.44556528,5.1403513,8.53171,1003.48474,5.7022627453700485,1003.4485896461496,0,0
15.54,0.30699277,5.0402527,8.143493,1003.42664,5.701175674845833,1003.448732373118,0,0
15.56,0.40107685,4.921126,8.067603,1003.4395,5.699350177169044,1003.4488252501241,0,0
15.58,-0.20122792,4.744765,8.522101,1003.44684,5.697496967421692,1003.4489001693463,0,0
15.6,0.2958387,4.902062,8.399004,1003.4496,5.695570636456118,1003.4489688873613,0,0
15.62,0.43443656,5.025992400000002,8.531566999999999,1003.43695,5.6939650516322935,1003.4489863386048,0,0
15.64,0.023323879,4.806732,7.845072999999997,1003.4268,5.691171096877996,1003.4489218877043,0,0
15.66,0.11412366,5.021228,8.171745,1003.4395,5.68815038336537,1003.4488310200933,0,0
15.68,-0.13447562,4.7876678,8.067583,1003.4395,5.684504483260155,1003.4487171377997,0,0
15.7,-0.029336423,4.959264,8.105457000000001,1003.47974,5.680568897197975,1003.4487281937088,0,0
15.72,0.3960331,5.3262897,9.904529,1003.4471,5.680029907031645,1003.4487321012132,0,0
15.74,0.34342235,5.173761,9.317458,1003.42944,5.68126829356895,1003.4486661023192,0,0
15.76,0.33860952,5.393023,8.190667999999999,1003.4318,5.682304995591477,1003.4485470677284,0,0
15.78,0.032669112,5.035532,7.906600999999997,1003.42444,5.682248233184684,1003.4483551033198,0,0
15.8,0.06609475599999999,5.107031299999999,8.166989,1003.4268,5.68176284483006,1003.4481078851967,0,0
15.82,0.08996080000000001,5.164231,7.4615607000000015,1003.442,5.679741257709493,1003.4478674548766,0,0
15.84,0.18552388,5.2547964999999985,8.517329,1003.4444,5.678312488775394,1003.4476425278081,0,0
15.86,0.061215997,5.3262954,7.9207915999999985,1003.4318,5.676447567129745,1003.4473867491499,0,0
15.88,0.037300482,5.1547,8.133839,1003.43463,5.67437952479846,1003.4471148188308,0,0
15.9,-0.04400564,5.135634400000002,8.166975,1003.4497,5.67217659334279,1003.4468838478532,0,0
15.92,0.08981234,5.3930297,7.6367197,1003.4495,5.669242726292944,1003.4466891800447,0,0
15.94,-0.020172581,5.326298,7.949186,1003.4444,5.666129191395378,1003.4465089305214,0,0
15.96,-0.044088095,5.178536,8.26639,1003.41425,5.663254579428148,1003.4462335298924,0,0
15.98,0.24265064,5.4883633000000005,8.166963,1003.4444,5.6607846874960375,1003.4459835851892,0,0
16.0,0.15659769,5.1880703,8.346867999999999,1003.4646,5.658652823987008,1003.4458297531427,0,0
16.02,0.23782136,4.9163775,9.42631,1003.43445,5.6585003806925895,1003.4456528600348,0,0
16.04,0.18519406,5.264338,7.357371,1003.432,5.656802391367918,1003.4454474069887,0,0
16.06,0.2908718,5.6837816,7.8166556,1003.46716,5.655034254762395,1003.4453440340125,0,0
16.08,0.6636794,5.1832933,9.59679,1003.4495,5.655825724250662,1003.4452676551275,0,0
16.099999999999998,0.6636794,5.1832933,9.59679,1003.4546,5.658876012393247,1003.4452337631868,0,0
16.12,0.47724992,5.4692870000000005,7.471041,1003.4218,5.660469364146314,1003.4451194547203,0,0
16.14,-0.23973775,4.663739700000002,8.782469,1003.48474,5.662173686891951,1003.4451610857224,0,0
16.16,-0.019878194,5.1928277000000005,8.730391000000001,1003.4621,5.664408870913508,1003.4452588509672,0,0
16.18,0.39595336,5.4978875999999985,8.233276,1003.432,5.666585599911567,1003.4452975044741,0,0
16.2,0.27645248,5.230960400000002,8.280619999999999,1003.4295,5.6684747775737145,1003.4452747876963,0,0
16.22,0.2668758,5.5979857000000015,7.8166466,1003.43976,5.669728475811333,1003.445234861916,0,0
16.24,0.2668758,5.5979857000000015,7.8166466,1003.4446,5.670416151115781,1003.4451972979937,0,0
16.259999999999998,-0.07251311,5.0879650000000005,8.938699,1003.447,5.6719884422554685,1003.4451705962393,0,0
16.28,0.24294825,5.16423,8.683041000000001,1003.4522,5.673962690961558,1003.4451723084223,0,0
16.3,0.38154548,5.5074224,8.171722,1003.44476,5.675778155582787,1003.4451723369972,0,0
16.32,0.4006533,5.364425700000001,7.693547,1003.4473,5.676461393772668,1003.4451800218325,0,0
16.34,0.46756476,5.292928,8.394238,1003.4649,5.677278589200653,1003.4452578040745,0,0
16.36,0.20466416,5.3501267,8.668833,1003.447,5.6787397651254246,1003.4453328043687,0,0
16.38,0.3432728,5.502657,8.166985,1003.442,5.6800680660898175,1003.445387076533,0,0
16.4,-0.31158316,5.168998200000001,8.181187,1003.45233,5.680917845582933,1003.4454600259419,0,0
16.419999999999998,-0.31158316,5.168998200000001,8.181187,1003.4446,5.681341744297852,1003.4455213879463,0,0
16.44,-0.07261010000000001,5.2643304,8.38003,1003.447,5.681833236848132,1003.4455809304167,0,0
16.46,-0.23991464,5.026002,8.569405999999999,1003.4472,5.6824675284360024,1003.4456393707941,0,0
16.48,-0.22080114,5.2643304,7.584648599999999,1003.44476,5.681766097212548,1003.4456878429763,0,0
16.5,-0.08219823,5.1308669999999985,8.900811000000003,1003.45483,5.682046256149879,1003.4457635847624,0,0
16.52,-0.3116402,5.350129,8.110166,1003.4599,5.6820429381453605,1003.4458814012993,0,0
16.54,-0.07744694,5.135634400000002,8.905543,1003.4599,5.6829523460518026,1003.4460359709462,0,0
16.56,-0.14405414,5.474052,7.721971000000001,1003.4395,5.68297304433411,1003.446149019191,0,0
16.58,0.13317512,5.521718,8.200146,1003.44214,5.683082030337032,1003.4462344761513,0,0
16.599999999999998,-0.26832655,5.5264845000000005,8.185943,1003.4599,5.683255406883848,1003.4463591818068,0,0
16.62,-0.00065623224,5.5598497,8.3705845,1003.4725,5.683834945571762,1003.4465634786701,0,0
16.64,0.03280306,5.397787,8.626242999999999,1003.46466,5.685035462584982,1003.4468091428548,0,0
16.66,0.023244694,5.1546926,8.905572,1003.43475,5.687017122526813,1003.4469827988139,0,0
16.68,-0.01021266,5.2976894,8.110192999999999,1003.43976,5.688429215853097,1003.447110239144,0,0
16.7,0.166642,5.593216,8.3705845,1003.43976,5.69012597565165,1003.4471963845588,0,0
16.72,-0.22052151,5.3262887,8.479476,1003.4395,5.691958565130371,1003.4472447956626,0,0
16.74,-0.32089677,5.3262887,8.380054,1003.447,5.693735610333652,1003.4472866904497,0,0
16.759999999999998,-0.25875738,4.949731,8.550493,1003.4296,5.695350213208902,1003.4472600365981,0,0
16.78,0.018472508,5.3262887,7.807191400000002,1003.45734,5.695917208340992,1003.4472727731227,0,0
16.8,-0.019764647,5.3405886,7.636752599999999,1003.4497,5.695281914509678,1003.447292765133,0,0
16.82,-0.3017718,5.1546926,8.834558,1003.4621,5.6954861452946295,1003.4473637361187,0,0
16.84,-0.2730917,4.921131,8.839292,1003.45984,5.696197986756682,1003.4474713606315,0,0
16.86,0.13797335,5.721912400000001,7.6272845,1003.4596,5.696140805450928,1003.4476101207528,0,0
16.88,-0.29220775,5.4311523,8.479478,1003.4697,5.696522472569847,1003.4478122527614,0,0
16.9,-0.65547156,4.944964,8.640448,1003.4621,5.697088946635916,1003.4480422924942,0,0
16.919999999999998,-0.65547156,4.944964,8.640448,1003.442,5.6978166768138445,1003.4482238033487,0,0
16.94,0.03760189,5.5169510000000015,8.673589,1003.43445,5.699313218810652,1003.4483346006482,0,0
16.96,-0.091450915,4.940197,8.597838000000001,1003.432,5.7007290683282825,1003.4483736965796,0,0
16.98,-0.091450915,4.940197,8.597838000000001,1003.43475,5.702068520913049,1003.4483591964367,0,0
17.0,-0.24440336,5.111793,8.474744,1003.4624,5.703301529982629,1003.4483969310032,0,0
17.02,-0.22528291,5.183291400000001,8.157538,1003.4194,5.703952881900756,1003.4483258843147,0,0
17.04,-0.47383142,5.092727,8.313774,1003.4495,5.704282267354753,1003.4482673342771,0,0
17.06,-0.35933465,5.502656,8.086502000000001,1003.4522,5.704381332247535,1003.4482297570607,0,0
17.08,-0.8325466,5.0260004999999985,8.782458,1003.4395,5.705035909501338,1003.4481651267067,0,0
17.099999999999998,-0.7321745,5.264329,8.683036999999999,1003.4496,5.706236119370115,1003.4481131848697,0,0
17.12,-0.43583435,5.283395,8.522066,1003.4571,5.7076144920428575,1003.4480996415973,0,0
17.14,-0.5744563,5.23573,8.574143,1003.4345,5.709200028550508,1003.4480387160517,0,0
17.16,-0.32113424,5.5074234,8.0865,1003.4345,5.710394134126493,1003.447936142862,0,0
17.18,-0.4549802,5.3977933,8.200124,1003.4545,5.711318479143398,1003.4478691390773,0,0
17.2,-0.58881843,5.154699,8.361092999999999,1003.4495,5.712026529786288,1003.4478158056323,0,0
17.22,-0.2590234,5.5360239999999985,7.7550883000000015,1003.4194,5.711900433473715,1003.4476663833,0,0
17.24,-0.4454434,5.4835916,8.105433,1003.4421,5.711587267488277,1003.4475143147473,0,0
17.259999999999998,-0.54582304,5.288163,8.086496,1003.4546,5.710863146105112,1003.4474054554413,0,0
17.28,-0.45979035,5.307229,8.24273,1003.4621,5.710062865811543,1003.4473621677188,0,0
17.3,0.032518,5.850617400000001,8.034416,1003.46216,5.709457220469758,1003.4473771908832,0,0
17.32,-0.06786547,5.7362199999999985,8.294807,1003.46716,5.709329864022632,1003.4474616834641,0,0
17.34,-0.4406978,5.4740596,8.091227,1003.43695,5.7089888713872465,1003.4474984990483,0,0
17.36,-0.30686706,5.617056400000001,7.764553,1003.4471,5.708063930853008,1003.4475295947017,0,0
17.38,-0.40247834,5.516959,8.081757000000001,1003.4394,5.707053134672442,1003.4475278042804,0,0
17.4,-0.34990429999999995,5.617057,7.89238,1003.44684,5.705762109770678,1003.4475237461684,0,0
17.419999999999998,-0.4598512,5.631357,7.987067,1003.442,5.704415240716763,1003.4475002749347,0,0
17.44,-0.44551557,5.636123,8.129099,1003.4495,5.703269859392588,1003.4474867347626,0,0
17.46,-0.39772516,5.6837893,8.4321,1003.46436,5.702877773384423,1003.4475355144217,0,0
17.48,-0.34515488,5.7981873,7.939721,1003.4342,5.702447918016161,1003.4475306082762,0,0
17.5,-0.34994233,5.7457547,8.436833,1003.434,5.7027677202383416,1003.4474775630164,0,0
17.52,-0.3308345,5.769588,7.854500999999999,1003.4139,5.702788342546741,1003.447309812998,0,0
17.54,-0.33083838,5.8506199999999975,7.8118906,1003.4491,5.702573721326213,1003.4471680337547,0,0
17.56,-0.3887281,5.7839007,7.7644978,1003.42145,5.701994668293085,1003.4469501726944,0,0
17.58,-0.31704503,5.8649325,7.679277000000001,1003.42645,5.7010502917515264,1003.4466838700392,0,0
17.599999999999994,-0.42702234,5.793435,8.0864315,1003.4468,5.700386748812072,1003.446448983081,0,0
17.62,-0.42702234,5.793435,8.0864315,1003.4493,5.699973739198018,1003.4462517006258,0,0
17.64,-0.19285381,5.993632,7.920724400000001,1003.46716,5.699737829410613,1003.4461526517264,0,0
17.66,-0.31237683,5.9650326,7.6413913,1003.4468,5.699169257687276,1003.4460674625722,0,0
17.68,-0.24548748,5.9698,7.9585940000000015,1003.41364,5.698834251938231,1003.4458754505704,0,0
17.7,-0.41280848,5.731473,8.067483,1003.43646,5.698609116116903,1003.4456718931436,0,0
17.72,-0.18818565,5.855404,7.892307799999997,1003.44135,5.698324433863562,1003.445476470986,0,0
17.74,0.041217014,5.9984015999999984,8.053275,1003.4264,5.6984304112206425,1003.445235120672,0,0
17.759999999999994,0.041203067,5.9984015999999984,7.8591630000000015,1003.4566,5.698559046826986,1003.4450627771,0,0
17.78,-0.05920072,5.9364370000000015,7.6981899999999985,1003.4288,5.698363586147928,1003.4448519483225,0,0
17.8,0.08894529999999999,5.9269047,7.953846,1003.46124,5.698294407127446,1003.4447246570004,0,0
17.82,0.026779935,5.8601737,7.930171499999997,1003.4338,5.698214139102999,1003.4445728536232,0,0
17.84,-0.15011467,5.945973,7.3762417,1003.44135,5.6973242067498635,1003.4444271178858,0,0
17.86,0.0028111339000000003,6.060371,7.3430985999999985,1003.4313,5.695816496135143,1003.444251088164,0,0
17.88,0.13185193,6.11757,7.5987550000000015,1003.47406,5.694257191188643,1003.4442028603844,0,0
17.9,-0.040248945,5.8887763,8.569305,1003.4413,5.6939912899793645,1003.444149796021,0,0
17.919999999999995,0.05531922,5.741013,8.233161,1003.4639,5.694120090667738,1003.4441740090836,0,0
17.94,0.15088739,5.7982125,8.133736,1003.47406,5.694498849737549,1003.4443029933133,0,0
17.96,0.2225426,5.7934465,8.181075,1003.4286,5.695174344424268,1003.4443604330023,0,0
17.98,0.12213881,5.5980186,8.280496000000001,1003.4515,5.696044809886772,1003.4444368891527,0,0
18.0,0.012175396000000002,5.555121,8.029569,1003.44366,5.696602050586176,1003.4445016490068,0,0
18.02,-0.011737585,5.574187,8.119522,1003.4413,5.697056952033633,1003.4445473448773,0,0
18.04,-0.1360404,5.4454910000000005,7.996424,1003.4738,5.6970595799828025,1003.4446930313068,0,0
18.06,-0.0715784,5.4025345,8.389593,1003.44366,5.697293171729671,1003.4448180409233,0,0
18.08,-0.109784484,5.3977675000000005,8.361189,1003.44366,5.697675740807446,1003.4449243304728,0,0
18.1,-0.03324291,5.493097,8.190758,1003.45374,5.698000422716492,1003.4450499843292,0,0
18.12,-0.10487522,5.5121617,8.110278,1003.44116,5.698157371305398,1003.4451470081333,0,0
18.14,-0.061792277,5.6742230000000005,7.958783,1003.45886,5.698098814086896,1003.4452821051367,0,0
18.16,0.033836186000000004,5.6170235,8.238114999999999,1003.4384,5.6982580217693055,1003.4453767012712,0,0
18.18,-0.042543583,5.5598226,8.356485000000001,1003.4563,5.698746782829878,1003.4454996102907,0,0
18.2,-0.028139457000000003,5.6408525,8.465383000000001,1003.42316,5.699806610474766,1003.4455277901033,0,0
18.22,-0.051941365,5.7409477,7.670011,1003.4588,5.700136928537503,1003.4456004697412,0,0
18.24,-0.01845038,5.731413400000001,8.072439,1003.44324,5.700485457819825,1003.4456561917784,0,0
18.26,-0.13313335,5.6074824,8.171864,1003.4437,5.700872662869876,1003.4456983854798,0,0
18.28,-0.19998585,5.583648,8.105588000000001,1003.4633,5.701153433716187,1003.4457990336467,0,0
18.3,-0.219008,5.5264473,8.039315,1003.4534,5.701159163642633,1003.445915329846,0,0
18.32,-0.12337954,5.6599097,7.9777713000000015,1003.43317,5.700972314293313,1003.4459722059801,0,0
18.34,-0.056365214,5.6265410000000005,8.299719999999999,1003.4281,5.701125039377799,1003.4459581217908,0,0
18.36,-0.0037550032,5.6551404000000005,8.347066,1003.42816,5.7016917448006925,1003.4458816037624,0,0
18.38,-0.0036902726,5.7600026,8.1103525,1003.4382,5.702342168513978,1003.4457863386592,0,0
18.4,0.07763113,5.893465,7.849966,1003.42554,5.702791372097117,1003.4456292755948,0,0
18.42,0.015558407,5.8791637,7.9588633,1003.4279,5.7032243258905755,1003.4454266692792,0,0
18.44,-0.20421548,5.6408334,8.020419,1003.4506,5.703459863844768,1003.4452662703287,0,0
18.46,-0.16591232,5.6694309999999986,7.7410955,1003.45325,5.703081666845744,1003.4451532832433,0,0
18.48,-0.16587994,5.6408315,7.750567,1003.45325,5.7021433854848,1003.4450825960347,0,0
18.5,-0.08455855400000001,5.6169970000000005,7.992027999999999,1003.45074,5.701090765268848,1003.4450405034717,0,0
18.52,-0.25656676,5.535964,8.124597,1003.438,5.700077833707177,1003.4449779646706,0,0
18.54,-0.122635156,5.655125,8.015714,1003.46075,5.699053399744173,1003.444979484713,0,0
18.56,-0.010148063,5.636113,8.384794,1003.43,5.698630312339264,1003.4449269016774,0,0
18.58,0.061523646,5.6837797,7.882944599999999,1003.4303,5.697941002050787,1003.4448277824613,0,0
18.6,0.094969586,5.721912400000001,7.958694,1003.4658,5.697193570635397,1003.4448157007048,0,0
18.62,-0.1249394,5.626582,7.873471,1003.45557,5.6961387922817455,1003.4448437407424,0,0
18.64,-0.03413579,5.7505126,7.764578999999999,1003.4432,5.6947832109613925,1003.444862599453,0,0
18.66,0.18569715,5.8363123,8.290092999999999,1003.44794,5.6941601082662165,1003.4448903416516,0,0
18.68,0.1809047,5.8077126,8.370578,1003.4706,5.694289333980961,1003.4450074094284,0,0
18.7,0.30037445,5.7552814,7.97762,1003.46576,5.694359332996001,1003.4451855598421,0,0
18.72,0.042227015,5.388257,8.327963,1003.45294,5.694538111927713,1003.445370889532,0,0
18.74,0.17125641,5.5312550000000025,7.849786,1003.4354,5.694157979229696,1003.4454987516436,0,0
18.76,0.13299261,5.516956,8.204864,1003.48584,5.693875130167121,1003.4457569590995,0,0
18.78,0.2715816,5.7409844,8.309016999999999,1003.4431,5.694126131923407,1003.4459755461553,0,0
18.8,0.36716503,5.8935146,7.9349985,1003.438,5.694407188182392,1003.4461399777107,0,0
18.82,0.15682827,5.8744489999999985,7.7882304000000016,1003.4452,5.694434273157178,1003.446281885514,0,0
18.84,0.1090049,5.83155,7.4331474,1003.45514,5.693596182963862,1003.446439164461,0,0
18.86,-0.115671225,5.4692926,8.380025999999999,1003.43756,5.693159035525789,1003.4465461711463,0,0
18.88,0.10895418,5.8029523,7.9302554,1003.45264,5.6927029798843005,1003.4466626600376,0,0
18.9,0.018125251,5.812486,8.455772,1003.42755,5.693133091028779,1003.4466967840456,0,0
18.92,-0.2256828,5.597992,7.4142003,1003.46027,5.69233288006603,1003.4467757995964,0,0
18.94,-0.2926253,5.569393,7.5704335999999985,1003.44775,5.690677053793126,1003.4468491248587,0,0
18.96,0.01803656,5.454996,7.9397144,1003.4602,5.6887495243236685,1003.4469619782112,0,0
18.98,0.32391864,5.5550947,9.293752,1003.47015,5.689081287730051,1003.4471451723116,0,0
19.0,0.20919068,5.6122937,8.877124,1003.44257,5.690726975207904,1003.4472905719985,0,0
19.02,0.14223544,5.774357299999999,8.043865,1003.41724,5.692277254428749,1003.4473108651024,0,0
19.04,-0.19715598,5.6170620000000016,7.7692666,1003.44257,5.693085552891003,1003.4473117289748,0,0
19.06,-0.47440994,5.536031200000001,8.219033,1003.48553,5.69392496066589,1003.4474500780684,0,0
19.08,-0.65128803,5.435934,8.356328999999999,1003.4726,5.694932532289793,1003.4476628630464,0,0
19.1,-0.32150698,5.5550985,8.138544,1003.4498,5.695812454411366,1003.4478585735457,0,0
19.12,-0.08701072,5.416861,8.309009,1003.4423,5.6967015998914174,1003.448011492478,0,0
19.14,-0.1635095,5.302464499999999,7.684064999999999,1003.4449,5.696386620357016,1003.4481354102741,0,0
19.16,0.30011684,5.6837897,7.5988440000000015,1003.45746,5.6953344322648505,1003.4482784725617,0,0
19.18,-0.0918417,5.536027,7.9870644,1003.47504,5.694101036268959,1003.4485012238974,0,0
19.2,0.03241861,5.8220199999999975,7.8260926999999985,1003.4649,5.692786197349702,1003.448757082572,0,0
19.22,-0.09187092,5.6837907,8.659347,1003.45746,5.69266008173605,1003.4490144897992,0,0
19.24,-0.09187092,5.6837907,8.659347,1003.4649,5.693584776051439,1003.4492991226622,0,0
19.26,0.08974700000000001,5.6456585,8.66408,1003.46246,5.695399452885038,1003.4495980034184,0,0
19.28,0.22833209,5.6933246,8.44156,1003.4473,5.697667750627142,1003.449853821642,0,0
19.3,0.16618,5.5407953,8.943406,1003.4549,5.701029986381394,1003.4500980288665,0,0
19.32,0.10403521,5.559861,8.74456,1003.45734,5.7050160843490625,1003.4503398814662,0,0
19.34,0.2856459,5.721925,8.356338000000001,1003.4498,5.709058389106485,1003.4505516388499,0,0
19.36,0.118345425,5.5932283,9.189591,1003.4419,5.7144388236200845,1003.4507076017744,0,0
19.38,0.12311061,5.6313615,7.721925,1003.43976,5.718486942072616,1003.4508059992482,0,0
19.4,-0.18281148,5.8458567000000015,7.560953,1003.4649,5.7213454225643305,1003.4509436816588,0,0
19.42,-0.21629202,5.4645324,7.660374000000001,1003.42426,5.7228371915546,1003.4509692765828,0,0
19.44,-0.24975798,5.3882675,7.371575,1003.47455,5.722538446203438,1003.4510767828616,0,0
19.46,-0.12071788,5.5550976,8.148016,1003.47955,5.7221716245908505,1003.4512742789914,0,0
19.48,0.50541455,6.1223183,7.177461,1003.452,5.720883823862799,1003.4514513991674,0,0
19.5,0.49106783,6.1032524000000015,8.13381,1003.46686,5.720311240308623,1003.4516633735178,0,0
19.52,0.3954571,5.9507227,8.664062,1003.4721,5.721073944678425,1003.4519242459093,0,0
19.54,0.505378,5.936424,7.958634399999997,1003.4697,5.721815334885206,1003.452218745469,0,0
19.56,0.70133525,5.9650235,8.176414999999999,1003.49725,5.722958504865918,1003.4526410777963,0,0
19.58,0.66786206,6.022222,7.65563,1003.437,5.723658580336258,1003.4529579427608,0,0
19.6,0.44319665,5.898292,7.7739887,1003.48444,5.723975184637227,1003.4533512600493,0,0
19.62,0.05714862,5.4692745,7.9776691999999985,1003.4921,5.7237527733851525,1003.4538382906693,0,0
19.64,0.11452149,5.555073,7.755153999999999,1003.4772,5.722779559638963,1003.4543527330783,0,0
19.66,0.0093963,5.6647024,8.204925999999999,1003.4466,5.7220408001189025,1003.4547793845524,0,0
19.68,-0.35861814,5.4406734000000005,7.5468464000000015,1003.46436,5.720140086161533,1003.4551908640103,0,0
19.7,-0.028765991,5.7743316,8.62156,1003.4466,5.719435589490278,1003.4555235201487,0,0
19.72,0.06684534,5.760031,8.204934,1003.4769,5.719059983606702,1003.4558944104404,0,0
19.74,-0.22467704,5.3930054000000025,8.323298,1003.4516,5.718758430751822,1003.4562066692243,0,0
19.76,0.06692149,5.783862,7.6888905,1003.4618,5.717902718349844,1003.4565027170768,0,0
19.78,0.047832713,5.6122656,8.195476,1003.4568,5.717207634313197,1003.4567653751773,0,0
19.8,0.052643,5.493100599999999,8.470073,1003.44904,5.716994607303588,1003.4569696485246,0,0
19.82,0.2916637,5.4502006,8.441669000000001,1003.4666,5.717118798152121,1003.4571848137192,0,0
19.84,0.36815578,5.407302,8.564765,1003.44653,5.717713279225258,1003.4573365763564,0,0
19.86,0.1674497,5.5598297,7.4569187,1003.44147,5.716990669613378,1003.4574135541474,0,0
19.88,-0.057185866,5.516931,7.802532000000001,1003.44904,5.715633014087249,1003.4574514269284,0,0
19.9,0.04801552,5.612261,8.110272,1003.4742,5.71435671024497,1003.457545186181,0,0
19.92,0.27747655,5.678992,8.938796,1003.46655,5.7146762230143375,1003.4576604491864,0,0
19.94,0.15323211,5.678991000000001,7.69365,1003.4465,5.714263738438832,1003.4577221179608,0,0
19.96,0.033767477000000004,5.7790885,7.911435000000001,1003.49176,5.713691511842773,1003.457899144865,0,0
19.98,0.019458503,5.5407596,7.991923299999999,1003.4867,5.7128291666272855,1003.4581592489163,0,0
20.0,0.21544571,5.6027246,7.461671400000001,1003.46387,5.7109002461911205,1003.4584096355597,0,0
20.02,0.09120129,5.3500957,7.9729899999999985,1003.4714,5.7085942106734775,1003.4586776425101,0,0
20.04,-0.123859435,5.454959400000001,7.7741479999999985,1003.4918,5.705746584991027,1003.459033693938,0,0
20.06,-0.25288367,5.764785,7.892511,1003.4688,5.703010709640026,1003.4593834596816,0,0
20.08,-0.6447819,5.4644910000000015,9.227616,1003.5091,5.702392639877101,1003.459871492238,0,0
20.1,-0.8311790000000001,5.416825,8.621614,1003.47644,5.702551296827584,1003.4603623644326,0,0
20.12,-0.18641454,5.721897599999999,8.422722,1003.4664,5.7033296798410085,1003.460817834592,0,0
20.14,-0.54967076,5.316739599999999,8.1481285,1003.43616,5.703739736412189,1003.4611315198204,0,0
20.16,-0.08124110000000001,5.5598335,7.4900465,1003.494,5.702957325644412,1003.4615270186166,0,0
20.18,0.04303825,5.5836663,8.204943,1003.489,5.7023635056483375,1003.461975384086,0,0
20.2,-0.04776469,5.826761,7.352751,1003.4485,5.700809803548439,1003.462323048432,0,0
20.22,0.08129443,5.960224,7.490049000000001,1003.48395,5.698809991440003,1003.4627081016736,0,0
20.24,0.124325976,5.836293,8.110257,1003.5292,5.697296677195173,1003.463287705552,0,0
20.26,0.26772898,5.926857,8.048711,1003.4862,5.696231886138063,1003.4638823277992,0,0
20.28,0.19603638,5.9030247000000005,7.679427,1003.44824,5.694920773235855,1003.4643514236363,0,0
20.3,-0.14331637,5.65993,7.887742,1003.47107,5.693441100881272,1003.464790103593,0,0
20.32,-0.16721097,5.693296,7.8593364,1003.4987,5.691811278222607,1003.4652997968301,0,0
20.34,-0.18153706,5.7504940000000015,7.8782754,1003.4758,5.690156921031357,1003.4657879625054,0,0
20.36,-0.15763362,5.6837620000000015,8.318575,1003.46576,5.68915343925395,1003.4662192050313,0,0
20.38,-0.2579962,5.3739357000000005,8.351718,1003.4962,5.688434558107415,1003.4667081817888,0,0
20.4,-0.12415275,5.4502,8.550564,1003.466,5.688397879817883,1003.4671376921975,0,0
20.42,0.16742416,5.7361937,7.9445605,1003.47363,5.688257003342744,1003.4675405799028,0,0
20.44,0.14831378,5.683761,8.275969,1003.5088,5.688524327979484,1003.4680451053914,0,0
20.46,0.17700149,5.6885276,8.115001,1003.5087,5.688883152326372,1003.4686372617335,0,0
20.48,0.17700149,5.6885276,8.115001,1003.4708,5.689321534049492,1003.4691682769355,0,0
20.5,0.19613405,5.6170287000000005,8.020313,1003.48865,5.6895829777600335,1003.4697076161708,0,0
20.52,0.17224391,5.6122622,8.115003,1003.4909,5.689842059973094,1003.4702604689012,0,0
20.54,0.028858647,5.6980596,7.930361299999999,1003.48083,5.689884163572287,1003.4707870198855,0,0
20.56,-0.0045910925,5.6360946,8.257036,1003.5136,5.690216596097988,1003.4714064070636,0,0
20.58,-0.10017831,5.5645957,8.389600999999999,1003.4834,5.690951038597088,1003.4719968745088,0,0
20.6,-0.08582556,5.512163,8.138679,1003.4907,5.691543892735728,1003.4725859427948,0,0
20.62,-0.06182763,5.4740286,8.157625,1003.501,5.691997476415367,1003.4732087341388,0,0
20.64,-0.13829178,5.364397,7.9966564,1003.52356,5.6919232439852285,1003.4739402971272,0,0
20.66,-0.018777683,5.474028,8.650005,1003.48315,5.692643096208253,1003.4746198611141,0,0
20.68,0.09595029,5.4787936,8.498505999999999,1003.50085,5.693802880097394,1003.4753147523528,0,0
20.7,0.16766004,5.526459,8.304396,1003.49097,5.695065980178957,1003.4759851171433,0,0
20.72,0.16766004,5.526459,8.304396,1003.47546,5.696415823287853,1003.4765755610498,0,0
20.74,0.0051593482,5.297664,8.001395,1003.50604,5.697046833107763,1003.477203349266,0,0
20.76,-0.023500443,5.2547646,8.195508,1003.50104,5.697329827578884,1003.4778438748767,0,0
20.78,-0.109524235,5.1642,8.091352,1003.4703,5.697021738011831,1003.4783826853568,0,0
20.8,-0.06649966,5.1737328,8.053477,1003.4653,5.696136046356957,1003.4788116806294,0,0
20.82,0.1151519,5.283363,8.512716000000001,1003.4802,5.6956728245964925,1003.479195738802,0,0
20.84,0.21554677,5.2976623,8.493781,1003.4727,5.695570296867041,1003.4795117079441,0,0
20.86,0.21554677,5.2976623,8.493781,1003.50287,5.695786847483219,1003.4798749881288,0,0
20.88,0.23945846,5.3214945999999985,8.3706875,1003.4802,5.6960956361057695,1003.480197152543,0,0
20.9,0.17256026,5.2976613,8.432236999999999,1003.48535,5.696563592697553,1003.4805003672703,0,0
20.92,0.0721907,5.2595285999999986,8.309142999999999,1003.5004,5.696909263004421,1003.4808399264813,0,0
20.94,0.10088219,5.2261624000000015,8.389629,1003.4725,5.6972509480764195,1003.4811099372644,0,0
20.96,0.2108367,5.3691587,8.276005,1003.4878,5.697551657329563,1003.4813726030184,0,0
20.98,0.062675446,5.2785945,8.110301,1003.5003,5.697419460044143,1003.4816728331081,0,0
21.0,0.048342362,5.2404613,8.214459,1003.5029,5.697044098568496,1003.4820145342158,0,0
21.02,0.07703388,5.216628599999999,8.512728,1003.49786,5.69695498994567,1003.4823735049913,0,0
21.04,0.14396383,5.3310255999999985,8.503260000000001,1003.50543,5.697229206818593,1003.4827736949508,0,0
21.06,0.024487719,5.1355963,8.427511,1003.4828,5.697473887841729,1003.4831273974968,0,0
21.08,0.3160684,5.3977566,8.086636,1003.4828,5.69739795603854,1003.483438750436,0,0
21.1,0.32085454,5.3834567,8.408575,1003.4778,5.697582867863242,1003.4836935623912,0,0
21.12,0.12966873,5.1403623,8.498529,1003.4853,5.697880377886093,1003.4839244974104,0,0
21.14,0.12567087,5.178475,8.375507,1003.5054,5.69809940421673,1003.4842058634024,0,0
21.16,0.101858065,5.192773000000001,8.470203,1003.50037,5.698430896523367,1003.4845126692849,0,0
21.18,0.07320079,5.1451072999999985,8.399189,1003.4802,5.698682436283237,1003.484768237353,0,0
21.2,0.14974229,5.202304,8.389727,1003.5154,5.698909851492559,1003.4851043316437,0,0
21.22,0.16412483,5.1927695,8.361322,1003.4674,5.6990550013786825,1003.485337568965,0,0
21.24,0.07335168,5.13557,8.266639,1003.52045,5.698894769188527,1003.4856700622138,0,0
21.26,0.054275572,5.10697,8.408675,1003.5305,5.698685452453624,1003.4861252410243,0,0
21.28,0.11643456,5.135568,8.470224,1003.5027,5.6985748314003075,1003.4865871061536,0,0
21.3,0.15471612,5.197532700000001,8.399213,1003.4851,5.698494325489537,1003.4869898565996,0,0
21.32,0.14522116,5.183231,8.460766,1003.5076,5.698533766101098,1003.4874199234104,0,0
21.34,0.15480234,5.154631,8.588596,1003.51013,5.6988756923668875,1003.4878816867198,0,0
21.36,0.23132233,5.19753,8.465506,1003.4974,5.699314345633872,1003.4883239667081,0,0
21.38,0.040173262,5.183228,8.527057000000001,1003.4671,5.699925133256268,1003.4886383590252,0,0
21.4,0.025855437,5.192761,8.351886,1003.50995,5.700385935198388,1003.4889928779843,0,0
21.42,-0.050556794,5.030697,8.489189999999999,1003.4975,5.700781899150745,1003.4893367565757,0,0
21.44,-0.017076611999999998,5.0545290000000005,8.323487,1003.4872,5.700849047995763,1003.4896329153754,0,0
21.46,0.054663554,5.1498594,8.351897,1003.5154,5.7007794881427465,1003.4899873627954,0,0
21.48,0.016468242,5.1117253,8.598091,1003.4897,5.700985769602657,1003.4902995180298,0,0
21.5,-0.08864433,5.083125,8.456063,1003.4974,5.7011519629943646,1003.49060090013,0,0
21.52,-0.059900843,5.044991,8.342443,1003.53,5.701038526598128,1003.4910090381132,0,0
21.54,0.0070379674,5.0592904,8.503414999999999,1003.4921,5.700980245220291,1003.4913735962981,0,0
21.56,-0.045496747,5.0402236,8.375589999999999,1003.4975,5.700722792219825,1003.4917177749633,0,0
21.58,-0.069331154,5.0592875,8.844301,1003.51733,5.701150871336327,1003.492114095242,0,0
21.6,-0.016710146999999998,5.1355515,8.404007,1003.50726,5.701475603935102,1003.4925188090976,0,0
21.62,0.03071642,5.1117277,8.517598,1003.50714,5.701884219804812,1003.4929290505477,0,0
21.64,-0.036187515,5.078361,8.470255,1003.5147,5.702245465225867,1003.4933699153108,0,0
21.66,-0.03616087,5.145093,8.100973,1003.4946,5.7019832045253525,1003.4937638917204,0,0
21.68,0.026003227,5.0878935,8.399242999999998,1003.48975,5.701635053024548,1003.4940975592656,0,0
21.7,-0.04566718,5.083126,8.617028999999999,1003.4946,5.70159585859801,1003.4943941966952,0,0
21.72,-0.0026223212,5.2118225,8.583891,1003.48193,5.701907854265103,1003.4946114344199,0,0
21.74,-0.06951297,5.092658,8.588627,1003.4945,5.702410544247545,1003.4948029845099,0,0
21.76,0.02610977,5.2165875,8.337705999999999,1003.4946,5.702768085409343,1003.4949715074248,0,0
21.78,0.035682693,5.164155,8.408724000000001,1003.49194,5.703064189667129,1003.4951095008458,0,0
21.8,0.04051578,5.1975203,8.318774000000001,1003.5172,5.703182566016138,1003.4953109576297,0,0
21.82,0.04051578,5.1975203,8.318774000000001,1003.5096,5.703143475830097,1003.4955404053962,0,0
21.84,-0.08370587,5.14032,8.456077,1003.49713,5.703146522492959,1003.4957488679834,0,0
21.86,-0.17928863,5.1164865,8.399265,1003.5122,5.703062826714749,1003.4959922896006,0,0
21.88,-0.23182651,5.0354543,8.673865,1003.5122,5.703309428738584,1003.4962657246992,0,0
21.9,-0.27961123,5.021154,8.456083,1003.46655,5.703444290102843,1003.4964003553433,0,0
21.92,-0.17919539,5.1927495000000015,8.3140545,1003.507,5.703408481027273,1003.496557473701,0,0
21.94,-0.19828798,5.159383,8.233572,1003.5045,5.703044201242378,1003.4967248965767,0,0
21.96,-0.18393527,5.1689153,8.361402,1003.4795,5.702626405566252,1003.4968108218021,0,0
21.98,-0.18390863,5.202281,8.493969,1003.5297,5.702433791569781,1003.4970051463724,0,0
22.0,-0.17910218,5.2070465,8.6265335,1003.5041,5.702681195337704,1003.497202393036,0,0
22.02,-0.116938084,5.2785444,8.441895,1003.4915,5.703065431599084,1003.4973561515732,0,0
22.04,-0.10258534,5.2690105,8.4371605,1003.4816,5.703550015787545,1003.4974352904708,0,0
22.06,-0.121677935,5.178446,8.43243,1003.5016,5.7040145118142425,1003.497520210555,0,0
22.08,-0.13119762,5.1689115,8.304605,1003.4766,5.704223459412763,1003.4975199331834,0,0
22.1,-0.17896900000000002,5.154611599999999,8.422966,1003.49927,5.704401132754331,1003.4975259883383,0,0
22.12,-0.20430373,5.2642775,8.233459,1003.5043,5.704338554228929,1003.4975557251154,0,0
22.14,-0.18999606,5.2070794000000005,8.418097999999999,1003.4917,5.704324840098463,1003.4975609199208,0,0
22.16,-0.18045232,5.2118464000000015,8.427566,1003.5017,5.704375925316421,1003.4975804107396,0,0
22.18,-0.17572008,5.154649,8.422827,1003.50903,5.704413235514886,1003.4976388513484,0,0
22.2,-0.15661676,5.159416,8.280793,1003.5143,5.7041916253505685,1003.4977504696053,0,0
22.22,-0.17100373,5.19755,8.347071000000001,1003.4989,5.70390134223221,1003.4978532338063,0,0
22.24,-0.14713643,5.240449400000001,8.389677,1003.5143,5.703672932537415,1003.4980032446127,0,0
22.26,-0.14240423,5.221384,8.489096,1003.50146,5.70365461579567,1003.4981482384807,0,0
22.28,-0.14240423,5.221384,8.489096,1003.5191,5.7038220031275095,1003.4983517814039,0,0
22.3,-0.17111477,5.1403537,8.597984,1003.48627,5.704259986865795,1003.498488137518,0,0
22.32,-0.061211027,5.288118,8.318651,1003.50903,5.704599827952043,1003.4986465724852,0,0
22.34,-0.104260966,5.2309194,8.238164,1003.4939,5.704647535289309,1003.4987694779612,0,0
22.36,-0.10429269,5.1451225,8.531692999999999,1003.51874,5.704861872753978,1003.4989499711193,0,0
22.38,-0.11864796,5.1260567,8.370723,1003.4862,5.704916533037232,1003.4990635549776,0,0
22.4,-0.018319651,5.135591000000002,8.460671000000001,1003.50903,5.704998391981023,1003.4991997968767,0,0
22.42,0.20150374,5.397753,8.436995,1003.4963,5.705354636401116,1003.4993097409504,0,0
22.44,0.26362532,5.407286599999999,8.436994,1003.47363,5.705965722569751,1003.4993144404663,0,0
22.46,0.06284183,5.1641927,8.526944,1003.4887,5.70668444669242,1003.4992803809728,0,0
22.48,-0.2048589,5.030730200000002,8.223939999999999,1003.48364,5.706817610360937,1003.4991939806328,0,0
22.5,-0.27180785,5.0450300000000015,8.5458765,1003.49866,5.707024961101028,1003.4991157149623,0,0
22.52,-0.1714796,5.159429,8.337558,1003.4912,5.707044947601472,1003.499018062842,0,0
22.54,-0.037676834,5.2213945,8.33282,1003.49866,5.706956060970263,1003.4989304884019,0,0
22.56,-0.009029716,5.178496400000001,8.451178,1003.4937,5.706933300399809,1003.4988342778688,0,0
22.58,-0.009045556,5.178497,8.342286,1003.48364,5.7067764139700925,1003.4986945668413,0,0
22.6,0.10085823,5.2213964000000015,8.55533,1003.48096,5.706926461024108,1003.4985072737364,0,0
22.62,0.110855,5.35485,8.195557,1003.5012,5.706863276449227,1003.4983514753636,0,0
22.64,0.09172304,5.249986,8.616916999999999,1003.5063,5.7072358440823425,1003.4982424266104,0,0
22.66,0.09172304,5.249986,8.616916999999999,1003.5062,5.7079921011229535,1003.4981747183963,0,0
22.68,-0.03257086,5.1641884000000005,8.21449,1003.5009,5.708278815757788,1003.4981247024318,0,0
22.7,0.063012525,5.178488,8.498553,1003.49365,5.7086675942427885,1003.4980643993969,0,0
22.72,-0.06604855,5.1069900000000015,8.257098,1003.49335,5.708639767582714,1003.4979941437973,0,0
22.74,-0.08040697,5.1784887,8.31391,1003.47327,5.708422844405763,1003.497843059032,0,0
22.76,-0.17600939,5.0545588,8.403863000000001,1003.51874,5.708067198581218,1003.4977847895207,0,0
22.78,-0.05653332,5.116524,8.616909,1003.49084,5.708033481735735,1003.4977083013383,0,0
22.8,-0.07087911,5.0640917000000005,8.399125999999999,1003.49585,5.707840155473485,1003.4976340264957,0,0
22.82,-0.070891775,5.1165247,8.200279,1003.48834,5.70721117506911,1003.4975349387488,0,0
22.84,-0.20952514,4.8972635,8.62164,1003.506,5.706722894647398,1003.4974778590367,0,0
22.86,-0.1426142,4.9401627,8.635842,1003.4808,5.706428019240002,1003.4973673831104,0,0
22.88,0.05811853700000001,5.2166233,8.200275,1003.48334,5.705825111615168,1003.4972192680028,0,0
22.9,0.18716054,5.24999,8.55062,1003.47327,5.705609731102399,1003.4970021761287,0,0
22.92,0.14413597,5.23569,8.583761,1003.478,5.705779303560956,1003.4967419459148,0,0
22.94,0.06286663,5.2595230000000015,8.517478,1003.501,5.70619516608833,1003.4965273354926,0,0
22.96,-0.18091607,4.9639974,8.593227,1003.46295,5.706650293460782,1003.4962168273157,0,0
22.98,-0.15224993,4.825767,8.612164,1003.4956,5.707029616177512,1003.495940241712,0,0
23.0,-0.03754732,4.9830637000000015,8.361238499999999,1003.5031,5.707050351987148,1003.4957216258027,0,0
23.02,0.16319175,5.192792400000001,8.356504,1003.49817,5.706975061924039,1003.4955372709323,0,0
23.04,0.22053670000000009,5.297657,8.531675,1003.478,5.707241696132983,1003.4953112407933,0,0
23.06,0.077129886,5.1498940000000015,8.645299000000001,1003.4881,5.707847250041097,1003.4950855600956,0,0
23.08,-0.09017591,5.016431,8.451188,1003.48083,5.708261785162161,1003.494834828615,0,0
23.1,-0.114093974,4.983065,8.574281,1003.5134,5.708692032943064,1003.4946801168956,0,0
23.12,-0.17043452,4.9639745,8.370795,1003.5007,5.708751531259956,1003.4945650851996,0,0
23.14,-0.060471155,5.135569599999998,8.465487,1003.4881,5.7088327421124125,1003.4944401688864,0,0
23.16,-0.007879347,5.178468,8.484424,1003.49567,5.709012441451852,1003.4943342202237,0,0
23.18,-0.0365163,5.0450034000000015,8.598054,1003.49554,5.709338848435104,1003.4942449447926,0,0
23.2,-0.007823571999999999,5.006871,8.626461,1003.5006,5.70980462533054,1003.4941889392204,0,0
23.22,0.0017639697,5.135567,8.437087,1003.48553,5.710190201617218,1003.4941082805158,0,0
23.24,-0.03644655,5.1117339999999984,8.252449,1003.4804,5.710150712560197,1003.4939876606744,0,0
23.26,-0.07464312,5.040235,8.654877,1003.50543,5.710376746209708,1003.4939222734039,0,0
23.28,-0.25624776,5.0497665000000005,8.347142,1003.4804,5.710303080414599,1003.493815817028,0,0
23.3,-0.25624776,5.0497665000000005,8.347142,1003.48285,5.7099648653870885,1003.4936822752323,0,0
23.32,-0.27054527,5.078365,8.413428999999999,1003.4702,5.7095435173083064,1003.4934797415112,0,0
23.34,-0.28009093,5.1307964,8.460774,1003.48535,5.7091913345705905,1003.4932715156458,0,0
23.36,-0.19879246,5.1784615999999986,8.456043,1003.5155,5.708940596135258,1003.4931675498148,0,0
23.38,-0.25613615,5.0306983,8.777985000000001,1003.4526,5.7092021303526295,1003.492929642427,0,0
23.4,-0.20351642,5.402488,7.523370699999999,1003.5131,5.708135821194785,1003.4927920407466,0,0
23.42,-0.21306214,5.3691225,7.8453116,1003.48505,5.706408503869946,1003.4926425845548,0,0
23.44,-0.14132318,5.097428,8.976838,1003.5028,5.705797447185263,1003.4925470917597,0,0
23.46,-0.055258818,5.149858999999998,9.052591,1003.49786,5.7063639454095005,1003.4924818407953,0,0
23.48,-0.17473997,5.0592937,8.95317,1003.4776,5.7076990708149244,1003.4923706104164,0,0
23.5,-0.04564339,4.868630400000002,8.54128,1003.4724,5.708765535783881,1003.4922004330562,0,0
23.52,-0.050409228,4.8304973,8.546016,1003.48505,5.709560257478793,1003.4920243227817,0,0
23.54,-0.0456155,4.8447976,8.337703999999999,1003.5104,5.709751087226156,1003.4919348641812,0,0
23.56,0.10738005,5.059291,8.209878999999999,1003.5002,5.709409637231167,1003.4918855730504,0,0
23.58,0.18866466,5.21182,8.711727,1003.5054,5.709657637808294,1003.4918906713443,0,0
23.6,0.1791469,5.173687,8.446606,1003.4646,5.709912858524383,1003.4917969297804,0,0
23.62,0.21246202,5.1879897,8.167262,1003.49,5.7096981230591854,1003.4917076307868,0,0
23.64,0.19814418,5.2070556,8.143592,1003.4925,5.7090480899520575,1003.4916315787254,0,0
23.66,0.15514745,5.14509,8.41819,1003.4593,5.708429770180173,1003.4914479854407,0,0
23.68,0.14081879,5.168922,8.5318165,1003.4621,5.7080687295462145,1003.4911801096664,0,0
23.7,0.054814696,5.1736884000000005,8.508147,1003.48724,5.707897653006903,1003.4909292302376,0,0
23.72,-0.11723672,5.054524,8.285632000000001,1003.4848,5.707372373317252,1003.4906854879456,0,0
23.74,-0.18891227,5.049756,8.366118,1003.4747,5.706676209289322,1003.4904125694997,0,0
23.76,-0.39920208,4.859094,8.863234,1003.4621,5.706542099895568,1003.4900694935104,0,0
23.78,-0.41351992,4.9401245000000005,8.295107000000002,1003.5026,5.705965407052518,1003.4898114613901,0,0
23.8,-0.3465703,4.9782567,8.389797999999999,1003.4974,5.705203792606246,1003.4896107829472,0,0
23.82,-0.37523845,4.987789599999998,8.527097,1003.49506,5.7045394710355675,1003.4894530806564,0,0
23.84,-0.4899214,4.9210567,8.470286,1003.46936,5.703802283845151,1003.4892413998219,0,0
23.86,-0.38952398,4.940122,8.5271015,1003.47217,5.703115942234996,1003.4889929015976,0,0
23.88,-0.34649497,4.9019900000000005,8.749619500000001,1003.4996,5.702836062215617,1003.4888115141204,0,0
23.9,-0.23175812,5.0068536,8.588652,1003.4669,5.702727194969054,1003.4885723586948,0,0
23.92,-0.23651637,5.0354519999999985,8.588654,1003.4643,5.702800054393317,1003.4882736604696,0,0
23.94,-0.23651637,5.0354519999999985,8.588654,1003.4772,5.703033225209999,1003.48796986554,0,0
23.96,-0.26993188,4.8161893,8.815908,1003.4945,5.703595448927072,1003.4877249408245,0,0
23.98,-0.15996411,4.973485,8.886928,1003.49194,5.7047288607041775,1003.4875236995586,0,0
24.0,-0.15996411,4.973485,8.886928,1003.4847,5.706362893968736,1003.4873357174575,0,0
24.02,-0.12648393,4.9687176,8.560255999999999,1003.4667,5.707837657721236,1003.4870953278903,0,0
24.04,-0.22682747,4.797121,8.257257000000001,1003.4616,5.708446591138961,1003.4867911364884,0,0
24.06,-0.12165028,4.873386,8.309338,1003.50476,5.708457680331532,1003.4865870408744,0,0
24.08,-0.116859674,4.840019,8.81592,1003.50964,5.708821832110284,1003.4864896926424,0,0
24.1,-0.13594659,4.9496493,8.853798,1003.4897,5.709676413297294,1003.4864152328513,0,0
24.12,-0.054955006,5.06882,8.522366,1003.50214,5.710486665550595,1003.4864060493416,0,0
24.14,-0.035825633,4.868624,8.683336,1003.4589,5.711336253151785,1003.4862989130147,0,0
24.16,-0.06927918,4.811425700000001,8.493961,1003.4766,5.711816643370963,1003.4861693312697,0,0
24.18,-0.031025551,4.987788,8.347195,1003.4541,5.7118893682778085,1003.4859393832468,0,0
24.2,-0.045354776,5.092651999999998,8.678604,1003.47174,5.712305486701963,1003.4856850833943,0,0
24.22,-0.14572053,5.068819,8.730684,1003.4868,5.713094018598112,1003.4854643977444,0,0
24.24,-0.2986641,4.8781557,8.546043,1003.4642,5.713685698224684,1003.4851928480722,0,0
24.26,-0.3607914,4.8686223,8.432419,1003.4337,5.713891101074162,1003.4847675325287,0,0
24.28,-0.36078125,4.8018904,8.50817,1003.44086,5.713822375745605,1003.4842336565976,0,0
24.3,-0.17435876,4.897221599999999,8.205169,1003.4664,5.7130559290607215,1003.483697722661,0,0
24.32,-0.21258706,4.963953,8.503437,1003.4713,5.712281577743888,1003.483179539633,0,0
24.34,-0.15999906,5.0926504,8.238311999999999,1003.48395,5.711166394390143,1003.4827244467668,0,0
24.36,-0.030934207,5.1498485,8.583924,1003.451,5.7104267896131775,1003.4822081187019,0,0
24.38,-0.04526855,5.111716,8.801706,1003.4868,5.71037133865757,1003.4817684219963,0,0
24.4,-0.07871701,5.0116177,8.328267,1003.46124,5.709968088577027,1003.481306003668,0,0
24.42,-0.07870687,5.02115,8.285658999999999,1003.46375,5.709193409918468,1003.48083420922,0,0
24.44,-0.11215536,4.8447879999999985,8.664411999999999,1003.47406,5.708589867935411,1003.4803929444928,0,0
24.46,-0.13125937,4.997317,8.243052,1003.48413,5.707542957676344,1003.4800164963792,0,0
24.48,-0.13125937,4.997317,8.243052,1003.47144,5.706108056085527,1003.4796529914393,0,0
24.5,-0.20771594,4.878153,8.678618,1003.50433,5.7049951025551175,1003.4794206357053,0,0
24.52,-0.20771594,4.878153,8.678618,1003.4764,5.704170628963599,1003.4792044518898,0,0
24.54,-0.17424206,4.9687166,8.28093,1003.4635,5.702982536717531,1003.4789568958439,0,0
24.56,-0.17424206,4.9687166,8.28093,1003.45605,5.7014774281603975,1003.4786556904968,0,0
24.58,-0.18856123,5.106947,8.351948,1003.47864,5.699973236578372,1003.4783894889661,0,0
24.6,-0.1598773,5.08788,8.527122,1003.48145,5.698765334322614,1003.4781652911332,0,0
24.62,-0.21753733,4.9019923,8.678594,1003.4663,5.6979041013713285,1003.4779244748804,0,0
24.64,-0.16018096,4.949658,8.6501875,1003.47864,5.697347664556787,1003.4777142655296,0,0
24.66,-0.22232223,4.9544244000000015,8.228826,1003.4761,5.6963149291310975,1003.4775227131912,0,0
24.68,-0.18886611,5.073588,8.266701,1003.4687,5.695059453333224,1003.4773216957776,0,0
24.7,-0.14106931,5.1784525000000015,8.228826,1003.48627,5.693658179067183,1003.4771762906861,0,0
24.72,-0.021576807000000003,5.126020400000002,8.820625,1003.4583,5.693127218152165,1003.4769798561008,0,0
24.74,-0.12673503,5.01639,8.749609,1003.4813,5.693127035413276,1003.4768218390193,0,0
24.76,-0.28447106,4.835261,8.437139,1003.4737,5.692852167174561,1003.4766709765056,0,0
24.78,-0.12196156,4.887693,8.531825999999999,1003.4736,5.692553439646318,1003.476526618873,0,0
24.8,-0.05026704,5.030689700000001,8.46081,1003.48096,5.692255746666943,1003.4764150246408,0,0
24.82,-0.026369281,5.0735884,8.560232000000001,1003.4737,5.6921830535416875,1003.4763066458888,0,0
24.84,-0.035931452999999995,5.035456,8.541294,1003.44086,5.6922352793124285,1003.476083274498,0,0
24.86,-0.23668826,4.86386,8.702264,1003.46075,5.692515976257522,1003.4758307037492,0,0
24.88,-0.15543416,5.030689700000001,8.261964,1003.463,5.692378594002366,1003.475561341702,0,0
24.9,-0.15543416,5.030689700000001,8.261964,1003.45575,5.691872291541988,1003.4752520125667,0,0
24.92,-0.0072614998,5.18322,8.143603,1003.4482,5.69099796268933,1003.474881302098,0,0
24.94,-0.34185153,4.9067593,8.361386,1003.45593,5.689900590551432,1003.4744855176398,0,0
24.96,-0.4948091,4.744696599999998,8.337713,1003.4735,5.6884129203512295,1003.4741322546292,0,0
24.98,0.13134266,4.9448919999999985,8.48448,1003.4734,5.687033071142259,1003.4738174753163,0,0
25.0,0.35121107,5.0831222999999985,9.024202,1003.476,5.686880203444521,1003.4735471934044,0,0
25.02,0.46592385,5.18322,9.365078,1003.4735,5.688540772863072,1003.4733082024107,0,0
25.04,0.35120726,5.0831222999999985,9.208843,1003.4455,5.691403985533488,1003.4729969204401,0,0
25.06,0.38466215,5.130788,8.863232,1003.4656,5.694745778418021,1003.4726952427773,0,0
25.08,0.21736772,5.0211573,8.688058999999999,1003.4606,5.698059042463782,1003.4723851375204,0,0
25.1,0.3034004,5.0688233,8.337711,1003.45074,5.700764183672385,1003.4720332060203,0,0
25.12,0.31865633,5.288062,8.247842,1003.47565,5.703006130577007,1003.4717352598053,0,0
25.14,-0.09235545,4.9353356,9.279946,1003.47064,5.706303227767619,1003.4714680515939,0,0
25.16,0.20400952,4.9830008,9.246807,1003.458,5.7105100949568826,1003.4711834614333,0,0
25.18,0.7393818,5.183195,8.120023,1003.4405,5.713750753883527,1003.4708215371055,0,0
25.2,0.79199386,5.0115986,7.987462,1003.4656,5.715712575566722,1003.4704829432363,0,0
25.22,0.07983731,4.406244999999998,8.110560000000001,1003.458,5.716054757449792,1003.4701388230977,0,0
25.24,-0.10176096,4.8924327000000005,7.206291999999999,1003.4682,5.713884234129052,1003.4698277787802,0,0
25.26,-0.07784482,5.264224,7.07373,1003.4753,5.709724085760867,1003.4695726400176,0,0
25.28,-0.4458555,5.130759200000001,8.920150999999997,1003.4706,5.7069015793337865,1003.4693508979027,0,0
25.3,-0.39800608,5.1831903,8.266808000000001,1003.49567,5.7041598705889305,1003.4692497153377,0,0
25.32,-0.16377856,5.2117896,8.626624000000001,1003.47064,5.702153394990348,1003.469165315448,0,0
25.34,-0.0012139082000000002,4.854296,8.962771,1003.44763,5.701038290691731,1003.4690132125696,0,0
25.36,-0.039435185,4.8209300000000015,8.740256,1003.47565,5.700275889387504,1003.4689027069015,0,0
25.38,-0.08719902,4.806629,8.394648,1003.47284,5.699187746110067,1003.4688192383479,0,0
25.4,-0.13018301,4.863827,8.342572,1003.4554,5.6977824575829645,1003.4686971762759,0,0
25.42,0.003702864,4.7827945,8.413592999999999,1003.4808,5.696144073063719,1003.4686328923947,0,0
25.44,0.003702864,4.7827945,8.413592999999999,1003.4477,5.694305623110088,1003.4685007327446,0,0
25.46,0.4195972,4.835225,8.645583,1003.4778,5.692789016057353,1003.4684174338396,0,0
25.48,0.46744657,4.782792,8.612447999999999,1003.47546,5.6914536133191564,1003.4683691841657,0,0
25.5,0.49615967,4.9305544,8.636123,1003.4678,5.690479373828068,1003.4683245016906,0,0
25.52,0.61090916,5.0068183,8.816033000000003,1003.48035,5.690243659177924,1003.4683283120496,0,0
25.54,0.6396223000000001,5.0830827,8.636128,1003.4604,5.690421145882768,1003.4683031369594,0,0
25.56,0.6396223000000001,5.0830827,8.636128,1003.46295,5.6909630983527375,1003.4682616209567,0,0
25.58,0.5775191,5.0497155,8.688211,1003.4628,5.6918756493703535,1003.4682052755812,0,0
25.6,0.2620862,4.9257846,8.233711,1003.478,5.692140775791197,1003.4681907498152,0,0
25.62,0.03653966,4.7875760000000005,8.9864,1003.4829,5.6930466815456935,1003.4682308681492,0,0
25.64,0.0030790865,4.8590746,8.636053,1003.4703,5.693948034412713,1003.4682737655836,0,0
25.66,-0.19289853,4.768511,8.645521,1003.4728,5.694771618325016,1003.4683279642007,0,0
25.68,-0.20723987,4.773276999999998,8.692865,1003.46265,5.695615090681777,1003.4683554134276,0,0
25.7,-0.23592249,4.801876,8.531896000000001,1003.48285,5.6962109690099485,1003.468431848076,0,0
25.72,-0.25504553,4.778043299999998,8.4088,1003.4755,5.6963399193725275,1003.4685248310783,0,0
25.74,-0.18813397,4.820943,8.617113,1003.4751,5.696473511208385,1003.4686306614676,0,0
25.76,-0.10687916,4.873375,8.560300999999999,1003.4777,5.69655893093216,1003.468756822818,0,0
25.78,0.43323296,5.0735707,9.081084,1003.4652,5.6977662493225605,1003.468855494425,0,0
25.8,0.4810291,5.1355357,8.801755,1003.47015,5.699525047507644,1003.4689473408772,0,0
25.82,0.07952367,4.9496403,8.366189,1003.45764,5.700765608275567,1003.468987789975,0,0
