Timestamp,Ax,Ay,Az,P,LPFRMSAcc,LPFPValue,Value,Type
0.0,0.91367453,6.436393700000001,7.638628999999999,996.97784,0.020847970399867348,3.589120224,0,0
0.02,0.83715713,6.1742339999999984,8.855367,996.9879,0.061699177933788825,10.336702461119998,0,0
0.04,0.36389570000000004,6.202834999999999,8.088388,996.9803,0.11877243038126625,19.850783076979198,0,0
0.06,0.3877744,6.2552676,8.13573,996.9477,0.1901201592497672,31.77497361007525,0,0
0.08,0.32081652,6.150404,8.041038499999999,996.9780000000001,0.2735304955592756,45.785919260122654,0,0
0.1,0.24907894,5.9311433,8.2209425,996.95294,0.3673232447696301,61.59019211116811,0,0
0.12,0.23947875,5.873945,7.988952999999999,996.9655,0.4694921350792927,78.92219871075166,0,0
0.14,0.40671098,6.0503097000000015,7.6812105,996.9730000000001,0.5784189424065272,97.541742626785,0,0
0.16,0.42103016,6.0503105999999995,7.8327103000000005,996.97565,0.6931742291063466,117.23193369753555,0,0
0.18,0.4544279000000001,5.931148,7.8327045,996.97064,0.8125191937447104,137.79724587033968,0,0
0.2,0.33967203,5.702354,7.8327007,996.95325,0.9351969847250744,159.06171732109618,0,0
0.22,0.19625764,5.7595534000000015,7.6291194,996.9762,1.0601007233446118,180.86749643262863,0,0
0.24,0.5116841,6.2743425,7.1698785,996.9558,1.1864805179954194,203.0730007484213,0,0
0.26,0.25353414,6.4554725,7.1272649999999995,996.9834599999999,1.3138721873299777,225.55186201516136,0,0
0.28,0.06706092,5.573661,9.295617,997.0009,1.4442334633298581,248.1914003671983,0,0
0.3,0.28213185,5.726191,8.883722,996.9685,1.5761971173001712,270.89129401373617,0,0
0.32,0.14823644,5.8453565,7.7474593999999986,996.96606,1.7073001687506149,293.56278919736764,0,0
0.34,-0.21982872,5.8644238,7.307158,996.9862,1.8364758767491185,316.1276466205139,0,0
0.36,-0.36804324,6.2123833,7.0467615000000015,996.9710699999999,1.963544627621164,338.516990963772,0,0
0.38,0.611776,6.5079107,8.102530499999999,996.9737,2.090391599390662,360.67065977800536,0,0
0.4,0.49699986,5.7738629999999995,8.519152,996.9509,2.216363429188373,382.53625040706106,0,0
0.42,0.6065439,5.869203,8.0078,996.9791,2.340367418798796,404.0686805454293,0,0
0.44,0.3101688,5.75004,8.026735,996.98914,2.4620444006763726,425.22924946972796,0,0
0.46,0.15238072,5.726208,7.562759,997.01666,2.5804137106068845,445.9851628491471,0,0
0.48,-0.14882874,5.640413,7.813675,996.9868,2.695747429752601,466.30869380494505,0,0
0.5,-0.08671856,5.7881765,7.87522,997.0046,2.808266333535121,486.17707101979033,0,0
0.52,-0.005516469,6.012206,7.5059314,996.99445,2.9175667258009623,505.57171169115617,0,0
0.54,-0.08207517,5.8739777,7.5201270000000005,996.98926,3.023475391278997,524.477919362287,0,0
0.56,-0.06776301,5.8644457,7.6668906,996.992,3.1262348501103085,542.884495150794,0,0
0.58,-0.08693677,6.1218405,7.610073599999999,996.9745,3.2260793546832667,560.783269534976,0,0
0.6,0.29061317,6.2934384,8.007758,996.9870599999999,3.3238655416494485,578.168960226513,0,0
0.62,0.33357692,6.374471,7.917799499999999,996.97186,3.4194422459012364,595.0386469607399,0,0
0.64,0.347889,6.2553077,7.742624,996.99725,3.5122849386283903,611.391753130044,0,0
0.66,0.003688618,6.07418,7.3023190000000024,996.987,3.6014185628637385,627.229500629973,0,0
0.68,0.032312855,6.150446400000001,7.0087814,996.9999,3.686593176721616,642.5549077586422,0,0
0.7,0.09917559,6.083716000000001,7.780483999999999,996.99475,3.769110924603008,657.3724209296033,0,0
0.72,0.3094324,6.288679,7.8041515,996.9848599999999,3.8492962903225054,671.6877803481179,0,0
0.74,0.21378176,6.140917,7.5958323000000005,996.9722,3.926597211870484,685.5078558410644,0,0
0.76,0.008168355,6.107553,7.8893580000000005,996.9697,4.001501747822261,698.8405371856038,0,0
0.78,0.065498754,6.331582,7.619495,996.9799,4.073873436143279,711.6945961277706,0,0
0.8,-0.011032671,6.312517,7.5863485,996.9621599999999,4.143667817029175,724.0794058390095,0,0
0.82,0.342591,6.245787,8.173408,996.9949,4.211813110331445,736.0051194788396,0,0
0.84,0.2517202,6.1838235999999975,8.168667999999998,996.9927,4.278164711524913,747.4822353408696,0,0
0.86,0.19911505,5.9836287000000015,7.8419914,996.9625,4.34189793497344,758.5215438693323,0,0
0.88,0.7104722,5.921665,7.9319380000000015,996.9951,4.403208504005705,769.1343816871521,0,0
0.9,0.8586189000000001,5.8120356,7.9366693,997.02545,4.462054940626423,779.3322930289038,0,0
0.92,0.6004550000000001,5.6547410000000005,7.9224615000000025,996.9924,4.518257462536472,789.1267438755721,0,0
0.94,0.6726795,5.9836199999999975,7.240755,996.9926,4.571225686198583,798.5294377257356,0,0
0.96,0.53403336,6.045586,7.6621146,997.0054,4.621888067233462,807.5521714759277,0,0
0.98,0.33324987,5.9931550000000025,7.2028747000000015,996.9926,4.669502309881032,816.2066445602841,0,0
1.0,0.036854446,6.1790514000000005,7.6763105,997.0054,4.7152458821785785,824.5046124972043,0,0
1.02,0.3331864,6.1790519999999995,8.154484,997.0077,4.759966322670691,832.4577080812771,0,0
1.04,-0.39339137,5.630898999999999,7.7804613,997.0028699999999,4.802324328704202,840.0774259222712,0,0
1.06,-0.30737078,5.7023972999999994,7.761522999999999,996.9956699999999,4.842491605010754,847.3751142852534,0,0
1.08,-0.07320797400000001,5.702399,8.06452,997.0007,4.8810798275451885,854.3620038313577,0,0
1.1,-0.15449636,5.8310965999999995,7.520061,996.9953,4.917385598122498,861.0490993005025,0,0
1.12,0.003221303,5.983626999999999,7.127103999999999,997.00824,4.951104698476742,867.447269763557,0,0
1.14,-0.08284692,6.2648544,7.264398,996.9903,4.98301371317986,873.5670480935629,0,0
1.16,-0.38878608,6.1885900000000005,8.069244,997.00824,5.014421264841152,879.4188725168196,0,0
1.18,-0.22630450000000002,5.883531,8.410117999999999,997.0205699999999,5.045459197158928,885.0129106881486,0,0
1.2,0.18952255,6.0122290000000005,9.072934,996.9928,5.077346400682194,890.3589304178578,0,0
1.22,0.50494206,5.8501673,8.788865,997.0081,5.109212688539413,895.466610461524,0,0
1.24,0.46668774,5.6309055999999975,8.689442,996.9703,5.140519629506659,900.3451698304464,0,0
1.26,0.5239978,5.7071724,8.159183500000001,996.9526400000001,5.170400679498495,905.0036517814364,0,0
1.28,0.5048627,5.8168035000000025,7.728350999999999,996.9829,5.198321988016426,909.4510117269181,0,0
1.3,0.52393436,5.7834387000000005,7.2596407,997.00323,5.22360172525541,913.6958869605287,0,0
1.32,0.060261592,5.335383,7.865642,996.9930400000001,5.2468889675108334,917.7465284678892,0,0
1.34,0.12238319,5.4068812999999984,8.45744,996.99316,5.269442041810303,921.6109631773088,0,0
1.36,0.21316771,5.731008,8.154436,996.9781,5.291120516132564,925.2968993791133,0,0
1.38,0.45687429999999996,5.802508,8.774637,996.9804,5.313112906465952,928.8118532092627,0,0
1.4,0.47118193,5.702411,8.244381,997.00085,5.334276370407862,932.1631468020296,0,0
1.42,0.49576133,5.630896599999999,8.220772,996.98315,5.354509123472769,935.3577018321112,0,0
1.44,0.40971917,5.7119279999999995,7.4869375,996.98315,5.372701986340232,938.4022622700958,0,0
1.46,0.32845867,5.5164995,7.9793157999999975,996.9884,5.3896093036962425,941.3033459689264,0,0
1.48,0.32845867,5.5164995,7.9793157999999975,996.9858,5.4053198466958525,944.0672003597252,0,0
1.5,0.27587706,5.4879003,8.007722,996.9834,5.4199278832603826,946.6998404181398,0,0
1.52,0.22807516,5.564165,8.031393,996.98834,5.433636995945232,949.2070797722496,0,0
1.54,0.33800690000000005,5.702395,8.230238,996.9808300000001,5.447012131874292,951.5944619663608,0,0
1.56,0.5387529000000001,5.5784645,8.7841625,996.98584,5.460878186193664,953.867361833999,0,0
1.58,0.443155,5.440233999999999,8.552177,996.97833,5.474558208093456,956.0308956424416,0,0
1.6,0.20893888,5.3782697,7.595827000000001,996.9683,5.486286813221879,958.0899687712683,0,0
1.62,0.1133409,5.4068694000000015,7.4159190000000015,996.9532,5.495976512258558,960.0492734203232,0,0
1.64,-0.015717626000000002,5.4116354000000015,7.610029700000001,996.9909,5.5041615226736775,961.9135048639153,0,0
1.66,-0.09697999,5.6547303,8.291782000000001,996.9783,5.512440086817268,963.6869730299628,0,0
1.68,-0.06352324,5.754828,8.1071415,997.0009,5.520574766912538,965.3739396385744,0,0
1.7,-0.17346255,5.79296,8.334392999999999,996.9959,5.52898775491102,966.978382391245,0,0
1.72,-0.39333734,5.6022987,8.400673,996.9808300000001,5.537520040088649,968.504076818896,0,0
1.74,-0.34554118,5.6213646,8.462221000000001,996.98334,5.5462517631254435,969.9547057626207,0,0
1.76,-0.24995272,5.516500499999999,7.9272323,996.97833,5.554080655794508,971.33376654455,0,0
1.78,-0.03486532,5.5403337,8.310719,996.9909,5.561763702978915,972.6446703319027,0,0
1.8,-0.12090562,5.435469,8.514297500000001,996.9735,5.569526891953754,973.8905687052127,0,0
1.82,-0.14002672,5.416403,8.234967999999999,997.0060000000001,5.576824727695795,975.0746600605304,0,0
1.84,-0.10179210000000001,5.521267,8.002981,996.9757699999999,5.583406014432961,976.1997671778714,0,0
1.86,0.065497234,5.3592043,8.741549000000001,997.0011599999999,5.59043306282992,977.2687968409138,0,0
1.88,0.027255027999999997,5.3163056,8.305982,996.98584,5.597013768435381,978.2843728065504,0,0
1.9,0.07982904,5.201908599999999,8.438545,997.0062,5.603283820983252,979.2491343076832,0,0
1.92,0.08030404,5.1875973,8.552214999999999,996.9834,5.609442853586123,980.1654409265767,0,0
1.94,0.2858432,5.3067603,8.732123,997.01624,5.615937425303055,981.0357523316952,0,0
1.96,0.2858432,5.3067603,8.732123,996.98584,5.622705098922991,981.862179804864,0,0
1.98,0.44360715,5.44499,8.201872,996.99115,5.6289259174639295,982.6468754128584,0,0
2.0,0.38148493,5.4259233,8.258686,996.9685699999999,5.634712373449366,983.3917905525957,0,0
2.02,0.39105976,5.4545226,8.253954,996.9735,5.64011944688169,984.0988917240784,0,0
2.04,0.008690581,5.2257276,8.471737,996.9762,5.645281343728138,984.7700446289937,0,0
2.06,-0.09167766,5.1446958,8.362846000000001,996.99603,5.649927868661567,985.4070888831128,0,0
2.08,0.07563068,5.2257266,8.386521,996.99365,5.654232491669473,986.0116928060727,0,0
2.1,0.10433231,5.1637607,8.400725999999999,996.99365,5.658177385906058,986.5854558782986,0,0
2.12,0.22861482,5.325824,8.258694,996.9837,5.661724270931692,987.1298666077554,0,0
2.14,0.52497786,5.478353,8.433869,996.9683,5.665407555292248,987.6463262885156,0,0
2.16,0.39115858,5.526018,8.168743,996.9762,5.668781189238207,988.1362576077968,0,0
2.18,0.30513734,5.564151,8.102464,996.9685699999999,5.671793603321563,988.6009572461252,0,0
2.2,0.195217,5.4449863,8.37706,996.9861,5.674807087248649,989.0417523604663,0,0
2.22,0.15221400000000002,5.387787,8.249232000000001,996.9814,5.677521643186822,989.4598216550003,0,0
2.24,0.33386170000000004,5.3687205,8.47175,996.9789,5.680338911421366,989.8562963656926,0,0
2.26,0.27174709999999996,5.335354,8.594847999999999,996.9737,5.683412732203946,990.2322440731441,0,0
2.28,0.27174709999999996,5.335354,8.594847999999999,996.9887,5.6867021770631565,990.5887547087848,0,0
2.3,0.23831888,5.464051,8.296583,996.9635,5.689790475346551,990.9267165894853,0,0
2.32,0.1618496,5.392551999999999,8.28238,996.9789400000001,5.692580627998222,991.2471277115496,0,0
2.34,0.13795818,5.4259176,8.201897,996.9407,5.694994750467675,991.5507398392443,0,0
2.36,0.10451482,5.4545164,7.851552000000001,996.966,5.696497707687246,991.8385064518544,0,0
2.38,0.028060734,5.402083999999999,8.078805000000001,996.9762,5.697517974510912,992.1112727275296,0,0
2.4,0.066314355,5.464049,8.059869,996.9714,5.6981477312673485,992.3697854668973,0,0
2.42,0.013751701000000002,5.454515,8.400747,996.966,5.699009155125756,992.6147536957216,0,0
2.44,0.09023622,5.506947,8.604327,996.98114,5.70048767717641,992.8469266134064,0,0
2.46,0.18107526,5.4116154000000005,8.7653,996.9661,5.70268642888093,993.066903627664,0,0
2.48,0.066375196,5.301985,8.197172,996.9814,5.704390834512424,993.2753675044028,0,0
2.5,0.023364574,5.311517,7.950984,996.9689,5.705235182090581,993.4728629028732,0,0
2.52,0.028159574,5.2924504,7.8515630000000005,996.98645,5.7051228984082085,993.6600187505113,0,0
2.54,0.023402572000000003,5.421147,8.022003,996.9636,5.704608986075647,993.8372825499823,0,0
2.56,-0.005261034,5.502178,8.182974,996.9864,5.704113554699753,994.0052496660153,0,0
2.58,0.028212786,5.597509,8.594869000000001,996.9861,5.704459617796807,994.1643964709443,0,0
2.6,-0.019562423,5.411613,8.751106,996.9536,5.705615061039575,994.315059720484,0,0
2.62,-0.019562423,5.411613,8.751106,996.96106,5.7074815129834215,994.4577113687835,0,0
2.64,0.15253331,5.5593753,8.433904,996.99115,5.709581443903155,994.5928787442937,0,0
2.66,0.17643996,5.5355425,8.504921000000001,996.9937,5.711977245847647,994.7209555938147,0,0
2.68,0.07608685,5.478343,8.173513999999999,996.9708,5.7139829835835725,994.842223737914,0,0
2.7,0.013964623,5.2829137,8.343954,996.98895,5.715711328496036,994.9571044845833,0,0
2.72,-0.05772481,5.225715,8.329752000000001,996.9735,5.7171003181086295,995.0658721361957,0,0
2.74,0.14304213,5.282913,7.917860000000001,996.9710699999999,5.71753211466438,995.1688379454704,0,0
2.76,0.41550618,5.6737704,7.879986,996.98114,5.717531046850221,995.2663428219416,0,0
2.78,0.32340837,5.5260386,7.9603534,996.9711,5.7170993746043886,995.3586352566327,0,0
2.8,-0.1545953,5.2734118,7.9224763,996.9786,5.715919846431707,995.446016725002,0,0
2.82,0.11783798,5.311544400000002,9.011388,996.9811,5.716042982995679,995.5287532902428,0,0
2.84,-0.044683136,5.1828475,8.878822999999997,996.9685699999999,5.716942531425892,995.6070426594447,0,0
2.86,0.31855863,5.5355739999999996,8.3391,996.9889,5.71797054945527,995.6811938324976,0,0
2.88,0.31855088,5.449775700000001,8.424317,996.95844,5.7191587561522725,995.7513118952104,0,0
2.9,0.022179708,5.0970515999999995,8.372238000000001,997.0062,5.719992291143536,995.8177858126004,0,0
2.92,0.04606317,5.16855,8.083437,996.9711,5.720079009173625,995.8806740970807,0,0
2.94,0.11775245,5.311547,7.81831,996.99115,5.71921028828933,995.9402398984984,0,0
2.96,0.03169267,5.249582299999998,8.59475,996.98364,5.718786102565758,995.9966284809964,0,0
2.98,-0.06391116,5.1923832999999995,8.556873,996.9735,5.718627489130384,996.0499701699596,0,0
3.0,-0.08303816,5.168551,8.675234,996.9862,5.718889699502356,996.100473313716,0,0
3.02,-0.035255656,5.187618,8.741513000000001,996.9988,5.719660884985564,996.1483318676096,0,0
3.04,-0.10696827,5.1876183,8.429041999999999,996.9657599999999,5.7203242548990305,996.1935624271066,0,0
3.06,-0.12133101,5.068455,8.5379305,996.97833,5.720955868292601,996.2363533127408,0,0
3.08,0.05072637,5.2162185,8.632617,996.9812,5.72188251576826,996.2768447873607,0,0
3.1,0.03637144,5.2305183,8.395895,996.9762,5.7226625587801845,996.3151407331012,0,0
3.12,-0.030569113999999998,5.273418,8.277534,996.99603,5.723149595669684,996.3514302321178,0,0
3.14,-0.006677896,5.2924843,8.495316,997.0135,5.723779996383238,996.3858790846132,0,0
3.16,-0.049719453,5.06369,8.855127,996.9786,5.724933414035883,996.4184518859737,0,0
3.18,0.012410238,5.0636906999999995,8.727298,996.9764,5.72631435579949,996.4492418264664,0,0
3.2,0.04108128,5.135189,8.537922,996.95844,5.727628218991632,996.4782809313105,0,0
3.22,0.15576549,5.2448206,8.4527,996.99603,5.7288480801619075,996.5058037809977,0,0
3.24,0.11273946,5.2448206,8.329605,997.00885,5.729762343380332,996.53193393737,0,0
3.26,0.107951865,5.2305209999999995,8.163899,997.0009,5.730096531989193,996.556710821366,0,0
3.28,-0.12608325,4.9540567000000015,8.424307,996.9837,5.730077973282367,996.5801408371077,0,0
3.3,-0.09262843400000001,5.077987,8.410103999999999,996.9788,5.729853512692957,996.6022787720036,0,0
3.32,0.05553785,5.2829494000000015,8.3390875,996.9909,5.729545919134541,996.6232388876988,0,0
3.34,0.007736012,5.278183,8.239664999999999,996.9834,5.728986049565482,996.6430558259308,0,0
3.36,0.20847256,5.340148999999999,8.315413000000001,996.9912,5.728411904501848,996.6618193915796,0,0
3.38,0.18934576,5.249584,8.708366999999999,996.9758,5.728420330719618,996.6795292083767,0,0
3.4,0.09852566,5.240051,8.45271,996.9712,5.728477128565372,996.6962276173488,0,0
3.42,-0.11657314,5.201919,8.04555,996.9909,5.727819493501087,996.712043152094,0,0
3.44,-0.14525957,5.13042,8.429037,996.9708,5.727129936817695,996.7269492832472,0,0
3.46,-0.31256032,5.0779879999999995,8.694162,996.9959,5.726840013577855,996.7410885633149,0,0
3.48,-0.23131508,5.335383,8.34855,996.9657599999999,5.726565810779074,996.7543908483543,0,0
3.5,-0.3173591,5.2591186,8.46691,996.9685699999999,5.726435012429673,996.7669157923616,0,0
3.52,-0.25522542,5.201919999999999,8.358019,996.99335,5.726172797167178,996.7787979960336,0,0
3.54,-0.26001668,4.987425,8.518987,996.9707599999999,5.725851634436892,996.7899881744124,0,0
3.56,-0.26001668,4.987425,8.518987,996.97833,5.7254795419098965,996.8005538466,0,0
3.58,-0.07361576,5.211453400000001,8.410093,997.0034,5.725103652419794,996.8106199206971,0,0
3.6,-0.04494074,5.192387,8.679955,996.9633,5.725183881762304,996.8200639520552,0,0
3.62,-0.15488383,5.0541577,8.698891999999999,996.9836,5.7255571072333264,996.8289974279352,0,0
3.64,-0.011501118999999999,5.349684,8.239654,996.9758,5.7256937025573,996.8374195364827,0,0
3.66,0.12710555,5.4545484,8.263325,997.0061599999999,5.725782946277268,996.8454687772636,0,0
3.68,-0.049754806,5.354451,8.178105,996.9809,5.725566300590843,996.8530686388195,0,0
3.7,-0.15969786,5.297251999999999,8.088151,996.97815,5.724861085869099,996.8602341693908,0,0
3.72,-0.2887602,5.130423,8.211245,996.9909,5.7237615653370035,996.8670360291936,0,0
3.74,-0.283988,5.268653400000002,8.083414,996.9934,5.722247928231745,996.8735010628104,0,0
3.76,0.021908045,5.492682,8.485838000000001,996.9909,5.7213202732014805,996.8796362026877,0,0
3.78,0.007303193,5.445023,8.959255,996.9884,5.72169465929637,996.8854487619541,0,0
3.8,-0.040503725,5.2495947,8.963988,996.9731400000001,5.723018660915197,996.8909004277783,0,0
3.82,-0.15524562,5.1065984,8.220684,996.9656,5.723702896220144,996.8959864381613,0,0
3.84,-0.01186043,5.1971636,8.20648,996.9809,5.723891809031131,996.9007861257576,0,0
3.86,-0.01186043,5.1971636,8.20648,996.95557,5.723642374800336,996.9052243516652,0,0
3.88,-0.054914184000000005,5.2352962,8.7177925,996.9681,5.723953006352137,996.9093723204112,0,0
3.9,-0.26045457,5.1256657,8.755666999999999,996.9829,5.724715528344582,996.9133021652417,0,0
3.92,-0.5281414000000001,5.0446349999999995,8.537883,996.9829,5.725421299359702,996.9170251283388,0,0
3.94,-0.36086599999999996,5.1399665,8.599428,996.9579,5.7262698712453295,996.9204618880698,0,0
3.96,-0.3226542,5.092302,8.405315,996.99084,5.726842295569584,996.9237519701708,0,0
3.98,-0.30354387,5.1685667,8.315361,996.9731400000001,5.727090982492587,996.9268368836227,0,0
4.0,-0.06458031,5.3687629999999995,7.960278,996.9779699999999,5.726650080010043,996.9297467923676,0,0
4.02,-0.0024517479999999997,5.3925962,8.206467,996.9779699999999,5.7260543889043065,996.9324915912822,0,0
4.04,-0.06938678,5.278199,8.249074,996.9605,5.725269518358456,996.9350177258748,0,0
4.06,-0.09809224,5.2114677,8.490526,996.9982,5.724672396849376,996.9374772745872,0,0
4.08,-0.10288091,5.1495023,8.566276,996.9681,5.7243111146594545,996.9397607736412,0,0
4.1,-0.021642044,5.135203400000001,8.528399,996.9476300000001,5.724075689642737,996.9418068026199,0,0
4.12,-0.112476066,5.3068,7.813503,996.9682,5.722893993831048,996.9437096893364,0,0
4.14,-0.40884167,5.1495037,8.168581,996.97565,5.721335542519853,996.9455060651576,0,0
4.16,-0.52834564,5.1209050000000005,8.173314,996.9906599999999,5.719438574116159,996.9472558969984,0,0
4.18,-0.23680425,5.3497,7.993405,996.9677,5.717169981919903,996.9488756471837,0,0
4.2,-0.27505153,5.178104,8.665689,996.98553,5.715573276185089,996.9504388141175,0,0
4.22,-0.25117028,5.1733384000000004,9.3143015,996.97546,5.715737602218535,996.9519101046897,0,0
4.24,-0.12214218,5.3068027,8.992359,996.9653,5.717009855755032,996.9532583406624,0,0
4.26,-0.050471783,5.383068,8.37215,996.9702,5.718240818035607,996.954510631941,0,0
4.28,-0.21710876,5.2781877999999995,8.130755,996.9828,5.7188959259872405,996.9557189982401,0,0
4.3,-0.26490232,5.3020205,7.969786,996.9828,5.718790021127133,996.9568842023084,0,0
4.32,-0.07847668,5.363985,8.149694,996.9828,5.718388019071711,996.9580070734944,0,0
4.34,-0.0689082,5.1351905,8.67048,996.9653,5.7183919062620365,996.9590254970103,0,0
4.36,-0.15971561,5.0541587,8.722559,996.9906599999999,5.718764827191522,996.9600392602396,0,0
4.38,-0.15015154,5.101824,8.537918,996.9652,5.719181696485799,996.960953600092,0,0
4.4,-0.15014267,5.197155,8.547386999999999,996.9828,5.719755030545093,996.9618401578253,0,0
4.42,-0.1644732,5.282953,8.111823,996.99286,5.719793868133168,996.96273519167,0,0
4.44,-0.12622589,5.3687510000000005,8.159167,996.98535,5.719539078762241,996.9636074568854,0,0
4.46,-0.12622589,5.3687510000000005,8.159167,997.0026,5.7190257578520765,996.9645185635848,0,0
4.48,-0.08318994,5.363983599999999,8.2301855,996.9828,5.718402941522638,996.9653894306357,0,0
4.5,-0.10230469,5.3544507,8.173372,996.9828,5.717576307683906,996.9662216068117,0,0
4.52,-0.12619925,5.3973494,8.107092,997.0028,5.716507325023488,996.967088599896,0,0
4.54,-0.3317175,5.3353834,8.2491255,996.9926,5.715414143695412,996.9679465160257,0,0
4.56,-0.26001155,5.397349,8.268064,996.9828,5.7144021750027685,996.9687580432601,0,0
4.58,-0.111828804,5.5069795,8.7083645,996.98505,5.7143528681398745,996.9695337597686,0,0
4.6,-0.02578345,5.4736133,8.7225685,996.9649699999999,5.715141167666746,996.9702027533408,0,0
4.62,-0.17872825,5.3258495,9.115525,996.9622,5.717209368310432,996.9707650661487,0,0
4.64,-0.12135732,5.3401494000000005,8.069222,996.9725300000001,5.718568136801922,996.9712682795081,0,0
4.66,-0.21694897,5.1780862999999995,8.471646,996.9873699999999,5.719823479227773,996.9717708850256,0,0
4.68,-0.35555443,5.111354,8.135506,996.9952,5.720324720555358,996.9722993320752,0,0
4.7,-0.2169312,5.3163160000000005,8.220725,996.9700300000001,5.720527516181098,996.9727580982927,0,0
4.72,-0.05917994,5.554643,8.201789,996.975,5.720701839003872,996.9731715349684,0,0
4.74,-0.05917994,5.554643,8.201789,996.9675,5.720850375695777,996.9735164300896,0,0
4.76,-0.21212034,5.3639803,8.447980000000001,996.9799,5.721190454984436,996.9738441602699,0,0
4.78,-0.21212034,5.3639803,8.447980000000001,996.9700300000001,5.72169855702614,996.9741200116805,0,0
4.8,-0.10243218400000001,5.306788,8.490566000000001,996.9622,5.7223612418923375,996.9743208419447,0,0
4.82,-0.17413053,4.8491983,9.285947,996.9698,5.724122953045702,996.9744820205353,0,0
4.84,-0.2219292,4.954063,8.187565,996.9547,5.72496833282032,996.974553222664,0,0
4.86,0.38032484,5.821575599999999,6.686758,996.9597,5.723549715839711,996.9745626652632,0,0
4.88,-0.45614278,5.063693499999999,7.6241702999999985,996.9723,5.7207382517046765,996.974562863149,0,0
4.9,-0.08331997,5.4879169999999995,8.552114,996.98236,5.718780355422944,996.9745911076936,0,0
4.92,-0.38922864,5.3639865,8.33433,996.95966,5.717078830011977,996.9745623125856,0,0
4.94,0.04095243,5.907374,8.272783,996.9823,5.7161225033049465,996.9745647249024,0,0
4.96,-0.26495567,5.521283,8.964006,996.95215,5.716588337296928,996.9744861634165,0,0
4.98,-0.49438757,5.383053299999999,8.168626,996.9747,5.716779403387287,996.9744175162987,0,0
5.0,-0.035528243,5.8883085,8.864583999999997,996.97473,5.7184870126532505,996.9743579846472,0,0
5.02,-0.2792995,5.616615,8.807771,996.96967,5.7211290910238635,996.9742885057348,0,0
5.04,-0.28885978,5.435485400000001,8.916661999999997,996.9721699999999,5.724580750476612,996.9742194875473,0,0
5.06,0.04094544,5.445019,8.803036,996.94934,5.728536310643944,996.9740689369216,0,0
5.08,0.23213695,5.5641828,8.211235,996.96967,5.732030397579362,996.973920074216,0,0
5.1,0.088740915,5.3306212,8.272782000000001,996.97705,5.734938396967468,996.9737998068621,0,0
5.12,-0.002076596,5.159025,8.116547,996.9823,5.736851463029049,996.9737241393233,0,0
5.14,-0.030756079,5.197158,8.182828,996.97974,5.738037401415621,996.9736789365843,0,0
5.16,0.036159292,5.425952400000001,8.045531,996.9794300000001,5.738598306192036,996.9736596992727,0,0
5.18,-0.07855666,5.397353,8.154422,996.9847,5.738760593330351,996.9736824462668,0,0
5.2,-0.13591683,5.4831514000000015,8.130749,996.9593,5.738629535098853,996.973650768704,0,0
5.22,-0.15981647,5.502218,8.073936,996.9543,5.738165003746482,996.9735531156424,0,0
5.24,-0.14069854,5.578482599999999,7.936638999999999,996.9594,5.737262453005455,996.9734158781807,0,0
5.26,-0.08334215,5.5737157,8.315392,996.9593,5.73661817039205,996.9732437979982,0,0
5.28,0.041579336,5.688097,8.088199000000001,996.97186,5.735949151697445,996.973086766276,0,0
5.3,-0.15438057,5.568933,8.182888,996.98724,5.7352839366799735,996.9729989646878,0,0
5.32,-0.14957668,5.5450997000000015,8.618455,996.972,5.735351912692603,996.9729177869316,0,0
5.34,-0.04440894,5.4831343,8.788896000000001,996.9543,5.736295741987831,996.9727790342332,0,0
5.36,-0.40287018,5.206673599999999,8.509567,996.9643,5.737230839375648,996.9726259078257,0,0
5.38,-0.13038522,5.4783664000000005,8.111881,996.972,5.737749920708282,996.9724883520636,0,0
5.4,-0.13038522,5.4783664000000005,8.111881,996.967,5.737899541561768,996.972347049725,0,0
5.42,-0.13992076,5.368735,8.443292,996.9568,5.738173638801088,996.9721662255997,0,0
5.44,0.041747898,5.602295400000001,8.253919,996.9742,5.7384925137997325,996.9720137709904,0,0
5.46,-0.18286675,5.530796,8.002997,996.9643,5.738338932275492,996.9718512925218,0,0
5.48,-0.10637787,5.516496,8.211313,996.9667400000001,5.738107133658597,996.971689325894,0,0
5.5,-0.37402284,5.440230400000001,8.296535,996.9540400000001,5.7378804375820875,996.9714826746083,0,0
5.52,-0.46481502,5.5450940000000015,8.296536999999999,996.9667400000001,5.737787225191169,996.971283003904,0,0
5.54,-0.56993455,5.4020967,8.069288,996.9540400000001,5.737266697403925,996.9710445000552,0,0
5.56,-0.56993455,5.4020967,8.069288,996.95135,5.736370467632519,996.9707628578543,0,0
5.58,-0.16839495,5.3973293,8.107167,996.9515,5.73517376385595,996.9704446525177,0,0
5.6,-0.13491224,5.406862,8.452781,996.9667400000001,5.734327152914548,996.9701501495327,0,0
5.62,-0.19702561,5.330596,8.443313999999999,996.94916,5.733693458964182,996.9698143621573,0,0
5.64,-0.25437117,5.4211599999999995,8.017219,996.95905,5.7326146398768305,996.9694789087283,0,0
5.66,-0.49811720000000004,5.554623,7.965142699999999,996.97406,5.73123379134527,996.9691989940072,0,0
5.68,-0.5745579000000001,5.4449916,8.055099499999999,996.954,5.729624916630177,996.9688969449808,0,0
5.7,-0.4502589,5.4306912,8.377042,996.9667400000001,5.728347757689514,996.9686222894596,0,0
5.72,-0.5649501,5.4449906,8.130855,996.9867,5.726970143680887,996.9684446835988,0,0
5.74,-0.5697179,5.511722,8.074043,996.98413,5.725489202394513,996.9683442181993,0,0
5.76,-0.45975834,5.5117215999999996,8.651643,996.9689,5.724911485854257,996.9682574477868,0,0
5.78,-0.23086092,5.1018105,8.7226095,996.96906,5.724799802779069,996.9681836666382,0,0
5.8,-0.010988697,5.297239299999998,8.32492,996.9739400000001,5.724600801350273,996.9681391964154,0,0
5.82,-0.15438153,5.297239,8.211294,996.96136,5.7241290291647235,996.9680754974196,0,0
5.84,-0.53676456,5.3163056,7.6905100000000015,996.9763,5.722569199350244,996.968048821196,0,0
5.86,-0.37425,5.3830376,8.197091,996.9536,5.720987156446557,996.9679732343283,0,0
5.88,-0.23085460000000002,5.3544383,8.348592,996.9686,5.719613707156223,996.9679087021287,0,0
5.9,-0.15915687,5.3639708,8.386467,996.9965,5.718503552886166,996.9679546101497,0,0
5.92,0.041596144,5.4450026,8.670532000000001,996.97864,5.718216434603052,996.9680336418801,0,0
5.94,-0.006200626999999999,5.4402356,8.168685,996.9562400000001,5.7177761288522175,996.9680610172064,0,0
5.96,0.065497085,5.4688349999999994,8.343859,996.95605,5.717539041995343,996.9680419663828,0,0
5.98,0.003361523,5.5879993,8.211295,996.9713,5.717390364810482,996.968036861996,0,0
6.0,-0.14959092,5.5308003,7.993513,997.0014,5.716882234009758,996.9681524590567,0,0
6.02,-0.64668924,5.2400410000000015,8.201827,996.9611,5.716126387769008,996.9682292117668,0,0
6.04,-0.7805225,5.173309,9.082425,996.93085,5.716665949180777,996.9681624652994,0,0
6.06,-0.57976884,5.5308003,7.7520585,996.9762,5.716392173014906,996.9681324232457,0,0
6.08,-0.7136020000000001,5.2495737,8.528501,996.99866,5.716439102259425,996.968215777363,0,0
6.1,-0.8139773,5.568933,7.392243400000001,996.9763,5.715212162697001,996.9683185322626,0,0
6.12,-0.83787435,5.4831343,8.391204,996.9612400000001,5.714460061354548,996.968383843776,0,0
6.14,-0.92869,5.387803599999999,7.553214,996.9684,5.712603571115296,996.9684416111912,0,0
6.16,-0.5463045,5.526033999999999,7.917763000000001,996.97845,5.7104984093457976,996.9685286846793,0,0
6.18,-0.40290909999999996,5.3830366,8.334391,996.9811,5.708719254898747,996.9686508795484,0,0
6.2,-0.154358,5.3449044,8.481157000000001,996.9836,5.7074345764390015,996.9688126677684,0,0
6.22,-0.082659096,5.3639703,8.02192,996.9633,5.705810648760909,996.9689357782356,0,0
6.24,0.022497252000000002,5.40687,8.036123,996.9711,5.703966310136727,996.969052349843,0,0
6.26,0.04161775,5.3830366,8.305984500000001,996.95325,5.702374748402638,996.9690984640556,0,0
6.28,0.29016882,5.459302,8.310719500000001,996.9511,5.701115749264579,996.9690744161034,1,1
6.3,0.41922414,5.611831,8.253907,996.971,5.7002426146652185,996.9690600994348,1,1
6.32,0.1850157,5.4259357,8.457486,996.9536,5.699838935482367,996.9689917928683,1,1
6.34,0.19935568,5.411636,8.291781,996.9787,5.699546848617027,996.9689663867321,1,1
6.36,-0.18780649,5.368737,8.111875999999999,996.9633,5.698992561202178,996.9689235388776,1,1
6.38,-0.24516289,5.130408999999998,8.902519999999997,996.9760000000001,5.699348718074861,996.9689111537737,1,1
6.4,-0.45069385,5.2209735,8.959334,996.96326,5.700718881671399,996.968879866142,1,1
6.42,-0.69924235,5.6451974,7.6621065,996.9786,5.7012413116955205,996.9688872128728,1,1
6.44,-0.91911197,5.0684443,8.372268,996.9611,5.701609719291655,996.9688656704776,1,1
6.46,-1.2728163000000001,5.2400400000000005,7.808873700000001,996.9484,5.701133659364317,996.9687729592036,1,1
6.48,-1.0959622,5.5927653,7.5863565999999985,996.9586,5.6999105543277935,996.9686544168686,1,1
6.5,-1.4018685,5.5784655,8.642128999999999,996.9912,5.6998872191878425,996.9686308369608,1,1
6.52,-0.871309,5.7691274,9.267071000000001,996.9657599999999,5.702107873077724,996.9685996667412,1,1
6.54,-0.7135741999999999,5.5784650000000005,8.888318,996.966,5.705403937472003,996.9685627659347,1,1
6.56,-0.9525630999999999,5.1637745000000015,8.604254,996.9685,5.708727641474693,996.9685299344247,1,1
6.58,-0.8904238000000001,5.054144,8.116611,996.95074,5.711072398340787,996.9684368807386,1,1
6.6,-0.5892948,5.054144,8.092938,996.9586,5.712453765291202,996.9683192457312,1,1
6.62,-0.49831092,5.2352690000000015,8.632676,996.9934,5.7141193915534245,996.9683055941535,1,1
6.64,-0.72295904,4.987408,9.068241,997.0186,5.716583267664891,996.9684745914807,1,1
6.66,-1.4733804,4.243825,9.740527,996.96075,5.720475353855449,996.9685961089896,1,1
6.68,-1.4351367,4.925441999999999,8.736835000000001,996.95825,5.724379088038652,996.9686662358683,1,1
6.7,-0.87111723,5.3687325,8.798382,996.9733,5.728719793291581,996.9687448815292,1,1
6.72,0.03705333,4.0197964,9.8494215,996.9784,5.734042926884737,996.9688491312614,1,1
6.74,0.27604878,3.6098726,9.986719,996.96075,5.740182778548813,996.9689120894524,1,1
6.76,0.19957455,3.6337051,8.822056,996.96826,5.744778423927977,996.968965371788,1,1
6.78,0.43379015,4.310556,7.813628,996.9711,5.7467275431602385,996.9690201367212,1,1
6.8,0.7636019000000001,4.663281,7.4585475999999975,996.9911,5.746113235615585,996.969148014524,1,1
6.82,0.82096475,3.7910013,8.490648,997.0061599999999,5.744286252501122,996.9693942504982,1,1
6.84,0.37644827,3.733802,9.077715,996.9636,5.742408859066397,996.9695909653032,1,1
6.86,-0.57950723,4.6108484,7.0135155,996.9635,5.737564227534719,996.9697428550296,1,1
6.88,0.07533109,6.1742787,8.395961,997.0012,5.734290146630019,996.9699903105144,1,1
6.9,-0.3930844,5.1590023,9.077717,996.9635,5.732470883079559,996.9701855970624,1,1
6.92,-1.5641311000000002,4.091294,8.514322,996.98096,5.730127560121655,996.9703969401069,1,1
6.94,-0.69898134,5.3544307,8.372292,996.99615,5.728135455379652,996.9706763938364,1,1
6.96,-0.45042896,5.4974275000000015,8.82206,996.9861,5.7273792629520734,996.9709788441344,1,1
6.98,-0.63205624,5.0636706,10.266053999999999,996.9710699999999,5.7299208024015655,996.9712464173784,1,1
7.0,-0.6941884,5.325831,9.361783,996.9861,5.733971669665178,996.9715363179944,1,1
7.02,-1.1721636999999998,5.192367,8.296543,996.9861,5.737396826718457,996.971844903434,1,1
7.04,-1.6788177,3.9482962999999995,8.561669,997.0115,5.73967308054536,996.972260327876,1,1
7.06,-2.2667252999999996,3.1046152,9.51802,997.0037,5.7423568720257405,996.9727405797323,1,1
7.08,-2.104207,3.6098702000000014,9.9299135,996.99115,5.746447479849016,996.9732312041859,1,1
7.1,-1.6549003,4.153258,9.674257,996.96606,5.751525653691522,996.9736389036176,1,1
7.12,-1.3057543,4.4344788,8.41019,996.98895,5.755254061432202,996.9740542667827,1,1
7.14,-1.3726575,4.248583,8.107189,996.9739400000001,5.757066412992763,996.9744208703148,1,1
7.16,-1.2579213,4.1389512999999996,8.935713,996.9788,5.7585768118356375,996.974760566063,1,1
7.18,-1.2387952,4.04362,8.410193,996.9588,5.758746429623562,996.975003263188,1,1
7.2,-0.23502238,4.6108403,8.026709,996.98395,5.7574108649154265,996.9752499186203,1,1
7.22,-0.12030011,4.830101,8.452805499999998,996.9763,5.755740464899473,996.975471643653,1,1
7.24,0.70184714,5.397321,7.657427999999999,996.9914,5.753070293391132,996.9757249019748,1,1
7.26,1.0794586000000002,5.435454,8.386527000000001,997.00635,5.750892620436803,996.9760589313812,1,1
7.28,0.5871526999999999,4.267647,10.928904,996.98395,5.7526814705856575,996.9763824876112,1,1
7.3,0.30515826,5.211425299999998,8.429139,996.9889,5.754159886294774,996.9767134449407,1,1
7.32,1.3997471000000001,4.258113400000001,11.312392,996.9839999999999,5.760042021112907,996.9770321104352,1,1
7.34,0.9265675999999999,3.6241608,8.627987,996.9512300000001,5.7640491725182414,996.9772207956688,1,1
7.36,0.93135446,4.0579165999999995,7.5769496,996.97186,5.7648086010962585,996.9773682190767,1,1
7.38,0.78320146,4.439241,7.0088234,996.9488,5.7620467577410075,996.9773956368114,1,1
7.4,0.35781282,4.4058747,7.529609,997.0017,5.757010592556862,996.9775073588291,1,1
7.42,-0.10104139,4.6203694,7.2834210000000015,996.9638699999999,5.7497640065937805,996.9775569819122,1,1
7.44,-0.73674136,5.2924542,7.4207196,996.98145,5.741668038492175,996.9776148437337,1,1
7.46,-1.3198566,5.3973174,6.549591,996.96906,5.7316962500227095,996.9776351730014,1,1
7.48,-1.2146868999999998,5.154223,9.238735,996.9837,5.724384065576185,996.9776749693197,1,1
7.5,-1.3054963,5.249553700000001,10.161942999999999,997.0166,5.721242576589197,996.9778502634572,1,1
7.52,-1.1142969999999999,5.3830175,10.427071,997.0014,5.722369894452622,996.9780899324082,1,1
7.54,-0.38775292,5.526013400000001,11.033076,996.9842,5.728425485669995,996.9783237001367,1,1
7.56,-0.49289465,5.144689,11.080421000000001,996.9641,5.738566109134148,996.9784790519814,1,1
7.58,-1.4345021,5.7214417,7.591166,996.9842,5.746848714392463,996.978636916284,1,1
7.6,-0.80832684,4.839628,9.224538,996.9589,5.755195004479695,996.9787053522833,1,1
7.62,-1.4774923,4.3391395,9.011491,996.9766,5.762864939999579,996.9787582430638,1,1
7.64,-2.1275318,4.525034400000001,7.3923254,997.0191699999999,5.767445250981806,996.9789504596828,1,1
7.66,-1.3962078000000002,4.4297037,9.6222315,996.97925,5.772936972789293,996.979121380632,1,1
7.68,-1.2145615,3.9911800000000004,8.547523,996.99445,5.776775750801463,996.9793275894127,1,1
7.7,-0.50712943,3.9244477999999994,9.347638,996.9691,5.780469145986914,996.9794729761694,1,1
7.72,-0.41151243,4.329604,8.339212,996.9743699999999,5.782471225029454,996.9795830691936,1,1
7.74,0.1381789,4.358203,8.1498375,996.97925,5.7826345611806085,996.9796791483403,1,1
7.76,0.5874944999999999,4.3010044,8.211387,996.9691,5.781266562412225,996.9797259589408,1,1
7.78,0.4862634,4.572719,7.894103,996.9794,5.778233669151766,996.9797661473348,1,1
7.8,0.13732518,5.130406400000001,7.842023399999999,996.9918,5.774231818461352,996.9798449796697,1,1
7.82,0.5483758000000001,5.4068675000000015,8.769965,996.99945,5.771352708292108,996.9799852139937,1,1
7.84,0.5483758000000001,5.4068675000000015,8.769965,997.0019,5.769476016443978,996.980188018272,1,1
7.86,0.2520092,5.0827417,9.465921,996.9616,5.769385208922473,996.9803002992663,1,1
7.88,0.53399885,4.9302125,10.157143,996.9843,5.772028203208048,996.980413909676,1,1
7.9,1.4899472,4.072232700000002,9.873076,996.95154,5.775997024896432,996.9804103497588,1,1
7.92,1.4230237,3.9721352999999997,9.494325,996.9467,5.780304792001632,996.9802858469573,1,1
7.94,0.46705037,4.6013203,7.0182294999999995,996.9339,5.780771725369713,996.9800088472324,1,1
7.96,0.5817532,5.9311905,5.5221567,996.9815,5.777260519258523,996.9797694584256,1,1
7.98,0.7299146,5.4402349999999995,8.007717999999999,996.9993,5.7735383511799165,996.9796282444256,1,1
8.0,-0.10178377,4.239063,9.409101,996.95135,5.770915308415459,996.9794016660553,1,1
8.02,-0.5128594,4.310562,8.135544,996.97687,5.766988255188619,996.9791923474094,1,1
8.04,-0.44116859999999997,4.5584235,7.425383,996.96906,5.760889883933723,996.9789709170032,1,1
8.06,0.9306225,5.7119303,7.174458500000001,996.9743699999999,5.753920684048749,996.9787586977952,1,1
8.08,0.8445674000000001,5.044613,10.076647,996.9691,5.750536134249255,996.9785364095908,1,1
8.1,-0.33606297,4.248598,9.645814,996.95654,5.748761797556369,996.9782608086588,1,1
8.12,-0.07318623,5.2066765,8.822027,996.96185,5.747790556436852,996.9779582087643,1,1
8.14,-0.19746739,5.2686415,8.774682,996.9917,5.747517166517693,996.9777403019459,1,1
8.16,-0.50339353,5.077979599999999,9.404357000000001,997.0093,5.748823216253191,996.9776613743942,1,1
8.18,-0.50339353,5.077979599999999,9.404357000000001,996.9866300000001,5.751520157088499,996.9776239210615,1,1
8.2,0.16098042,4.1199026,8.850430000000003,996.99194,5.753491147991086,996.9776423651813,1,1
8.22,-1.1773772,3.5097837,11.553774,997.0019,5.7597368126808774,996.9777459898904,1,1
8.24,-1.0865733999999998,3.7624116,9.030334,996.96655,5.764978579943747,996.97779724712,1,1
8.26,-0.5990397,4.005506,9.214975,996.9866300000001,5.769777485865368,996.9778743359184,1,1
8.28,0.16093664,3.8720427,10.644766,996.97156,5.776791963311287,996.9779197199713,1,1
8.3,0.23809813,3.247607,10.242402,996.95654,5.784531926654887,996.9778828543283,1,1
8.32,0.71610135,3.6765966,8.462269000000001,996.9442,5.789781130393712,996.9777290215712,1,1
8.34,1.2657938,4.477377400000001,7.908345,996.9616,5.792647176386162,996.9775350304687,1,1
8.36,1.3709649,4.33438,7.198186,996.9766,5.792021134781168,996.9773602538213,1,1
8.38,1.8824192,4.9111332999999995,8.216084,996.9943,5.790892793494325,996.9772668042616,1,1
8.4,2.04494,5.2447919999999995,8.206615,996.9819,5.789732987117483,996.9772009117354,1,1
8.42,0.6779390000000001,4.6680384,8.429135,996.9693599999999,5.787941451943723,996.977114461817,1,1
8.44,-0.10115379,4.205682299999999,8.850498,996.95886,5.785889646150955,996.9769723586064,1,1
8.46,-0.10115379,4.205682299999999,8.850498,996.9766,5.783615251740084,996.9768454557187,1,1
8.48,-0.6460286,4.658504499999999,9.641146,996.9942,5.783080444363563,996.9767958006868,1,1
8.5,-0.20149162,3.7528584,11.473362,996.9716,5.786882510295813,996.9767332206177,1,1
8.52,0.63977665,4.243812999999999,9.167709,996.93646,5.7904485774275285,996.9765329412744,1,1
8.54,1.1177723,5.2686224,6.7673673999999995,996.9413,5.790730531257903,996.9762291358583,1,1
8.56,1.3615499,5.435452,6.8052435,996.97687,5.78845526698108,996.9759630005037,1,1
8.58,0.8166675,4.6251370000000005,7.6242967,996.9789999999999,5.784218641050132,996.9757387765022,1,1
8.6,0.24311386,4.444007,8.48596,996.9789,5.7795683369283415,996.9755520325792,1,1
8.62,0.46300006,5.0684257000000015,7.9557080000000004,996.97675,5.7742826886872125,996.9753913383316,1,1
8.64,0.69243824,5.4449830000000015,7.7189884000000015,996.9614,5.76851110090167,996.9751989800762,1,1
8.66,0.92666394,5.6880774,7.5485516000000015,996.9612400000001,5.7623838902884055,996.9749787599936,1,1
8.68,0.7928446,5.549847,7.9841185,996.946,5.756502345864825,996.9746798499926,1,1
8.7,0.8167512,5.7023764,7.7758055,996.9816,5.750695593877696,996.9744406456559,1,1
8.72,0.97928745,6.2266965,7.875229400000001,996.9992,5.745827929040768,996.9743184183797,1,1
8.74,0.8406882999999999,5.8215394,8.713222,996.99365,5.7426921613693285,996.9742800120517,1,1
8.76,0.42486817,5.8120055,9.390244000000001,996.9713,5.742217906103277,996.9742353481772,1,1
8.78,0.42486817,5.8120055,9.390244000000001,996.9462,5.744097070517587,996.9740949559243,1,1
8.8,-0.3120091,6.479343,7.671582000000001,996.96606,5.7459600340565835,996.9739419794884,1,1
8.82,-0.15429203,6.3268137000000015,8.334397000000001,996.9763,5.748671620318575,996.9738152983832,1,1
8.84,-0.0682638,5.974088,8.77943,996.9711,5.752444478335934,996.9736935878847,1,1
8.86,-0.36941624,4.925447,8.6516,996.9739400000001,5.755775549844363,996.973586931572,1,1
8.88,-0.7613766,4.6775866,8.35333,996.9689,5.757959720182787,996.9734758171002,1,1
8.9,-1.0099347,4.491690599999999,8.585316,996.9739400000001,5.759408974358891,996.9733793074112,1,1
8.92,-0.9287027,5.321072,7.4821963,996.9686,5.7591361032862425,996.9732768259436,1,1
8.94,-0.9573898999999999,5.430703,7.6479,996.9611,5.757759192513947,996.9731424367453,1,1
8.96,-0.4842223,4.5631905,9.858864,996.99615,5.7584168093102965,996.9731065176773,1,1
8.98,-0.53202856,4.463093,9.702628,996.9762,5.760492853179598,996.9730859161252,1,1
9.0,0.017624125,5.1208787000000004,8.154475,996.9635,5.761603137156073,996.973033203296,1,1
9.02,0.06540568,5.2877088,8.509555,996.9760000000001,5.762666130227162,996.9729973067081,1,1
9.04,-0.16404143,5.2877089999999995,8.48588,996.95605,5.763644084045287,996.9729045781787,1,1
9.06,-0.06367378,5.0398483,7.960361,996.95074,5.763342056539647,996.9727428507688,1,1
9.08,-0.14015889,4.9016185,8.372253,997.0010000000001,5.762493594967013,996.9727016741664,1,1
9.1,-0.5034405,5.1923785,7.146041,997.0391,5.759388323101523,996.9729043244936,1,1
9.12,-0.27881444,5.363975,9.035067,996.9335,5.7577575367169525,996.9729415307547,1,1
9.14,-0.30272177,5.092282,9.617397,996.9183300000001,5.758215947556512,996.9727778046963,1,1
9.16,-0.76159936,4.763389599999999,8.182871,996.94855,5.757634535721487,996.9725459162539,1,1
9.18,-0.09245161,5.3401437000000005,8.282291,996.9384,5.756876654328942,996.972218094328,1,1
9.2,-0.10201946,5.0970497,8.296494000000001,996.9459,5.755721592784803,996.9718336857344,1,1
9.22,-0.08769657,4.825356,8.713119500000001,996.9757699999999,5.754682751505588,996.9715081930327,1,1
9.24,0.15605693,5.092283999999999,8.784134,996.99365,5.754153997026871,996.9713002981863,1,1
9.26,0.031765506,5.325844999999998,7.8514557,996.95325,5.75269105117576,996.9710516212268,1,1
9.28,0.12322195,5.3639617,8.670566,996.9685,5.751881463786909,996.970822704429,1,1
9.3,0.12322195,5.3639617,8.670566,996.9534,5.751652098449912,996.9705577118103,1,1
9.32,-0.28304613,5.0160029999999995,8.552207000000001,996.9332,5.751359118278936,996.97018907657,1,1
9.34,-0.06316502,5.197132,8.4669895,996.9686,5.751044842947669,996.969857629796,1,1
9.36,-0.12529741,5.139932599999999,8.485927,996.9509,5.7506858230612,996.9694965159593,1,1
9.38,-0.07748922,4.996936,8.097707000000002,996.9357,5.749444100892098,996.9690557683156,0,0
9.4,-0.06791946,4.82534,8.353365,996.9735,5.747700111304486,996.9686823229318,0,0
9.42,0.20932944,5.3067613,8.29182,996.93567,5.7459336273728026,996.9682335022279,0,0
9.44,0.16631629,5.4020925,8.135585,996.9658,5.743988125079747,996.9678281636462,0,0
9.46,-0.000966728,5.344894,8.362836999999999,996.95575,5.742219374924336,996.9674265250862,0,0
9.48,-0.04397484,5.316294,8.419652000000001,996.96075,5.740681173491392,996.9670476017644,0,0
9.5,-0.13956074,5.235263,8.59956,996.9760000000001,5.739583087033168,996.9667450137506,0,0
9.52,-0.16344963,5.2638617,8.216074,996.9505,5.7382340988436615,996.9664191649324,0,0
9.54,-0.13954051,5.3019940000000005,8.495405,996.95325,5.737200514670786,996.9660838359224,0,0
9.56,-0.37852052,5.1208644,8.69425,996.95557,5.736620269416946,996.9657496894,0,0
9.58,-0.05825846,5.368725,8.424389999999999,996.93304,5.736219229034761,996.9653366826512,0,0
9.6,-0.1634091,5.249561,8.448064,996.95557,5.735890140504536,996.9649365898304,0,0
9.62,-0.120380715,5.211428,8.495409,996.95325,5.7356666282844015,996.9645409960904,0,0
9.64,-0.15382917,5.1875954,8.050375,996.95825,5.7347288032332395,996.9641688018761,0,0
9.66,-0.3402314,5.1256294,8.25869,996.96326,5.733470091799908,996.9638366593813,0,0
9.68,-0.4119234000000001,5.030298,8.552223,996.9608,5.7323574819756375,996.9635322462993,0,0
9.7,-0.30197778,5.049364,8.571162,996.9558,5.731423757956097,996.963235430813,0,0
9.72,-0.15379371,5.125629,8.561694000000001,996.9455,5.73070841872946,996.9629093170987,0,0
9.74,-0.13944417,5.0302978,8.6421795,996.9580699999999,5.730231506669656,996.9626037414787,0,0
9.76,0.05654302200000001,5.3782559999999995,8.192413,996.9407,5.729550664777872,996.962254881392,0,0
9.78,0.11868556,5.4592876,8.003036999999999,996.9808300000001,5.7284598034174,996.9620134990463,0,0
9.8,0.018480897,5.425917,8.358133,996.98334,5.727585126253923,996.9618769890088,0,0
9.82,-0.048419885,5.459283,8.419682,996.9808300000001,5.727049889939733,996.9618245995796,0,0
9.84,-0.2156965,5.411617,8.500167999999999,996.9681,5.726908253570848,996.9618008997212,0,0
9.86,-0.38297313,5.4259157,8.235044,996.97833,5.7266791989969255,996.9618394632877,0,0
9.88,-0.39728779999999997,5.397316,8.822111999999997,996.948,5.727372432431633,996.9618237159868,0,0
9.9,-0.14872149999999998,5.268618599999999,8.912067,996.9808300000001,5.728886825867026,996.9618782242944,0,0
9.92,-0.14872149999999998,5.268618599999999,8.912067,996.9558,5.731121344462657,996.9619045062274,0,0
9.94,0.032927528,5.220952,8.396018,996.95325,5.733013448022673,996.961896572721,0,0
9.96,0.04728344,5.2495513,7.9131103000000005,996.95325,5.733783891360828,996.9618584350128,0,0
9.98,-0.23470849,4.934958,8.0882845,996.9483,5.73352233096795,996.9617759261681,0,0
10.0,-0.24424337,5.0922540000000005,7.5769715,996.9405,5.731631926590077,996.9616264280188,0,0
10.02,-0.086485066,5.240017,8.594871000000001,996.9683,5.730250790552322,996.9615183563127,0,0
10.04,-0.10559603599999999,5.22095,8.538059,996.95325,5.729203569127593,996.9613930980706,0,0
10.06,-0.05778148,5.282915,8.751108,996.95325,5.728899661688086,996.9612531047353,0,0
10.08,-0.029086187000000006,5.2447824,8.751109,996.95074,5.729212536473312,996.9610915594466,0,0
10.1,-0.10076672,5.1208515,8.907347,996.9605,5.7302198601827685,996.9609466884157,0,0
10.12,-0.20112614,5.0064535,8.670628,996.9456,5.7312953277451575,996.9607634322944,0,0
10.14,-0.115073174,5.1542163,8.632753999999998,996.96045,5.732511935186745,996.9606003788297,0,0
10.16,-0.10071725,5.0255184,8.760585,996.94794,5.733942736289697,996.960410727424,0,0
10.18,-0.14850704,5.0493517,8.822133000000003,996.9834,5.735694481737436,996.9603259128237,0,0
10.2,-0.24885821,5.063650599999999,8.485992,996.9655,5.737139549652767,996.9602695973564,0,0
10.22,-0.12457502,5.1446819999999995,8.301352,996.9304,5.738063189494307,996.960112306459,0,0
10.24,-0.18190792,5.0493502999999995,8.272947,996.9580000000001,5.738370574022525,996.9599657199188,0,0
10.26,-0.110194355,5.068416,8.164058,996.9381,5.737958133409821,996.9597574794604,0,0
10.28,-0.05854148400000001,5.1113377,8.784180000000001,996.9632,5.738060905413357,996.959585871265,0,0
10.3,-0.13980897,5.0732055,8.604271,996.9456,5.73825751565508,996.959383889127,0,0
10.32,-0.001216158,5.1971370000000014,8.372284,996.9655,5.73825509574568,996.9592274357092,0,0
10.34,-0.02991654,5.1590047,8.55219,996.93787,5.738354494700335,996.9590123067004,0,0
10.36,0.07043777400000001,5.344901,8.395951,996.9655,5.738471452668367,996.9588455744044,0,0
10.38,-0.11600688,5.1399393,8.391214,996.9529,5.73837039429498,996.9586768456796,0,0
10.4,-0.20683394,5.0255423,8.433823,996.99054,5.738033010691336,996.9586424643339,0,0
10.42,-0.23075451,4.9969434999999995,8.490634,996.9602,5.7375604250941885,996.9586176921052,0,0
10.44,-0.09694151599999999,5.101808,8.429085,996.9881,5.73696730883595,996.9587019396727,0,0
10.46,-0.025266007000000004,5.125642,8.850445,996.9378,5.7370477573925145,996.95870113384,0,0
10.48,-0.034847185,5.144709,8.282314,996.9653300000001,5.736730834138106,996.9587242857248,0,0
10.5,0.032059297,5.1828413,8.324923,996.97046,5.736180973126124,996.9587869913014,0,0
10.52,0.14675303,5.2066745999999995,8.253905,996.9452,5.735330680182452,996.9587934847802,0,0
10.54,0.08937384,5.087511,8.547436,996.9501,5.734607312627107,996.958767925873,0,0
10.56,0.10846077,5.2209754,8.0171795,996.9529,5.733210152827412,996.9587242174894,0,0
10.58,0.008063316,5.1971435999999995,8.348585,996.9526400000001,5.731775828809117,996.9586636935784,0,0
10.6,-0.19270997,4.9969482,8.599507000000001,996.9275,5.730550121003227,996.9584980253541,0,0
10.62,-0.12581426,5.030315,8.75574,996.96515,5.7298267703852845,996.9583755880195,0,0
10.64,0.03666672,5.216211299999999,8.329641,996.9425699999999,5.728987730128735,996.958210502274,0,0
10.66,0.060554995999999986,5.1590133,8.5758295,996.9854,5.7284236378505655,996.9581625147008,0,0
10.68,-0.015954211,5.0732155,8.509545,996.9753400000001,5.727894348588753,996.9581819518286,0,0
10.7,0.084410876,5.1637807,8.282292,996.9602,5.727093147813427,996.958206391448,0,0
10.72,-0.025546126000000002,5.025551,8.537949000000001,996.98785,5.726359481466753,996.9583347032865,0,0
10.74,-0.07336573,5.049384,8.556884,996.9725,5.7257476808773005,996.9584990746948,0,0
10.76,0.026977867000000003,5.1256504000000005,8.6705065,996.9828,5.725529230528247,996.9587317966024,0,0
10.78,-0.04819849,5.011221,8.708501,996.9602,5.725607679745664,996.9589427152124,0,0
10.8,-0.10554026,4.9063563,8.533329,996.94745,5.725524845866957,996.9590877091214,0,0
10.82,0.009222567,5.006452599999999,8.377099000000001,996.95245,5.7251237162479445,996.9591919299864,0,0
10.84,0.11439411,5.068417500000002,8.414975,996.9624,5.724577926343317,996.9592955685948,0,0
10.86,0.023609564,4.9301867,8.784262,996.9498,5.724424062575568,996.9593529596224,0,0
10.88,0.09055853,5.04935,8.235074000000001,996.9649699999999,5.723758650637612,996.9594238916796,0,0
10.9,0.14794786,5.02075,8.945236999999997,996.9724,5.723888092904607,996.9595332812352,0,0
10.92,-0.11490965,4.7681217,8.670645,996.9749,5.7239646537033355,996.9596852580344,0,0
10.94,0.11933245,4.8968177000000015,8.694319,996.9700300000001,5.724167388410105,996.9598567858052,0,0
10.96,0.07156609,4.868217,8.509681,996.9700300000001,5.724116850337719,996.9600449713142,0,0
10.98,0.15285446,4.9254155,8.637512,996.9671599999999,5.724134275663194,996.9602368661334,0,0
11.0,0.05251029,4.9397144,8.509686,996.9521,5.723994073338345,996.9603771316775,0,0
11.02,0.08598477,4.9349475,8.599642,996.9700300000001,5.72387256131926,996.9605358206385,0,0
11.04,0.057369335999999986,4.9444785000000016,8.5901785,996.9546,5.7237603890939335,996.9606546692501,0,0
11.06,0.023926586,4.9254120000000015,8.760618,996.9725300000001,5.723944908465139,996.960802435074,0,0
11.08,-0.023823902,4.887279,8.514434,996.9546,5.723906863346014,996.9609106721896,0,0
11.1,-0.019012421,4.906344,8.642265,996.9621599999999,5.723922662853866,996.961010808085,0,0
11.12,-0.018996552,4.911110400000001,8.542845,996.9694,5.723811471638777,996.9611294892533,0,0
11.14,-0.07154269,4.91111,8.651739,996.9721,5.723785494346696,996.961273849772,0,0
11.16,-0.09064604,4.849144,8.5286455,996.95465,5.7235491689114975,996.9613775608673,0,0
11.18,-0.14795615,4.872975299999999,8.225649,996.95966,5.722609518215574,996.9614630167717,0,0
11.2,-0.28174309999999997,4.715678,8.879000999999997,996.95435,5.722082006027192,996.9615129187488,0,0
11.22,-0.037941404,5.035036,8.576001,996.9518400000001,5.721686464977813,996.961522189628,0,0
11.24,-0.05226498,5.044569,8.793786,996.96466,5.72181053966772,996.9615416774943,0,0
11.26,-0.10479524,5.0016694,8.75118,996.962,5.722272997432443,996.961560546934,0,0
11.28,-0.10955919999999998,4.9635362999999995,8.789057000000001,996.9545,5.723062187425714,996.9615518020018,0,0
11.3,-0.11996213,4.98739,8.547524000000001,996.9847,5.723726810812631,996.9616274084927,0,0
11.32,-0.16298294,4.9683237,8.443368,996.9544,5.7240734652028324,996.9616681957176,0,0
11.34,-0.21078221,4.920657599999998,8.556992999999999,996.9694,5.724294097108391,996.9617320698047,0,0
11.36,-0.33027986,4.877758999999998,8.547524000000001,996.992,5.724348022392348,996.9618974734967,0,0
11.38,-0.18210974,5.006456,8.5854,996.9645,5.7244482606309175,996.9620529932947,0,0
11.4,-0.18210974,5.006456,8.5854,996.9772,5.724589060138526,996.962244939812,0,0
11.42,-0.30160868,4.8777595,8.893135000000003,996.98224,5.725196091625666,996.9624865259717,0,0
11.44,-0.14865746,5.116087,8.396023,996.9617,5.725559451272968,996.9626971600084,0,0
11.46,-0.1343193,5.168519,8.301335,996.9518400000001,5.725595360572719,996.9628441904676,0,0
11.48,-0.019606575,5.1446867,8.471772,996.9366,5.725615746230698,996.9628796274956,0,0
11.5,-0.081746556,5.197118799999998,8.182974,996.9645,5.7251705882433965,996.9629167729944,0,0
11.52,-0.12954715,5.097021,8.476507000000002,996.95917,5.724726339002341,996.9629361063744,0,0
11.54,-0.3589803,4.858693,8.8884,996.95917,5.724792160577514,996.962939631366,0,0
11.56,-0.32552546,4.853927,8.680085,996.97424,5.72492258568317,996.9629834273757,0,0
11.58,-0.16301467,5.0493559999999995,8.391287,996.944,5.724786022301732,996.9629537851912,0,0
11.6,0.15244986,5.259084,8.107222,996.9795,5.724144023500807,996.9629871597307,0,0
11.62,0.11898868,5.2161856,8.618538000000001,996.97675,5.7239099498323345,996.9630661956984,0,0
11.64,0.042510584000000004,5.1303873,8.500176,996.95654,5.723733104948456,996.9631125375752,0,0
11.66,0.13332431,5.297217,8.438628999999999,996.9865,5.723681967394143,996.9632376801221,0,0
11.68,-0.08176942,5.0493559999999995,8.684818,996.9312,5.723912431901952,996.963232920428,0,0
11.7,-0.05309441,5.1160879999999995,8.5191145,996.9490400000001,5.724164543077332,996.9631776202488,0,0
11.72,-0.07221614,5.04459,8.358144,996.93854,5.7240718521784055,996.9630400615777,0,0
11.74,-0.033978984,5.068423,8.580661,996.95905,5.7240968848796605,996.9629041505141,0,0
11.76,-0.11045842,4.973091,8.566458,996.9289,5.724101405612338,996.9626616445564,0,0
11.78,0.03771299,5.0493565,8.263455,996.95654,5.7236266931815765,996.9624253283721,0,0
11.8,-0.06744525,5.0874887000000015,8.301331,996.95654,5.722839090178135,996.962195332209,0,0
11.82,0.028148307999999997,5.1160879999999995,8.566457000000002,996.95905,5.722279707243365,996.9619807844036,0,0
11.84,0.00424549,5.149454,8.58066,996.9536,5.721984863206223,996.9617610391388,0,0
11.86,0.090279415,5.1780534000000005,8.547519,996.9686,5.721897377400029,996.961591492482,0,0
11.88,-0.06281925,5.058893,8.575911999999999,996.9585599999999,5.721916559812128,996.9614307676828,0,0
11.9,-0.019808471,5.139925,8.396004,996.9791,5.7217957996646165,996.961352360487,0,0
11.92,-0.09629272,5.173291000000001,8.130877,996.9435,5.721122010769973,996.961218811391,0,0
11.94,-0.22057873,5.0493608,8.571176,996.9711,5.720612056302673,996.9611363796886,0,0
11.96,-0.12976618,5.144692,8.391268,996.9437,5.720026965789338,996.9610007720695,0,0
11.98,-0.13933691,5.2114244,8.500157000000002,996.9686,5.719643278781519,996.9609083063978,0,0
12.0,-0.13933691,5.2114244,8.500157000000002,996.96405,5.719438933184401,996.9608379138272,0,0
12.02,-0.115449056,5.2686234,8.168747999999999,996.95654,5.718873360772773,996.960760242462,0,0
12.04,-0.01030077,5.3067555,8.637454,996.9385,5.718855917646827,996.9606114751707,0,0
12.06,-0.19194074,5.1256265999999995,8.561702,996.9689,5.718996833474795,996.9605098630819,0,0
12.08,-0.16326559999999998,5.1542262999999995,8.391264,996.9635599999999,5.7190040594087455,996.9604310591327,0,0
12.1,-0.14415759,5.2304910000000016,7.9841039999999985,996.9538,5.718262867609414,996.9603375561508,0,0
12.12,-0.053348713,5.2352586,8.538029,996.9509,5.717838872084853,996.9602209617136,0,0
12.14,-0.34970397,5.0302963,8.566434,996.941,5.717540577206617,996.9600487434067,0,0
12.16,-0.18719432,5.149460299999999,8.348651,996.961,5.717085239595388,996.9598999958343,0,0
12.18,-0.13462391,5.1256275,8.514355,996.92584,5.716759293281193,996.9596459464946,0,0
12.2,-0.12507543,5.201893,8.182945,996.9535,5.7160462306288755,996.9593993430904,0,0
12.22,-0.12030305,5.168527,8.343914,996.9816,5.715240065560803,996.9592613666873,0,0
12.24,-0.1633287,5.19236,8.452805,996.9458,5.714574432132029,996.9590909898177,0,0
12.26,-0.21591394,5.1542277,8.386523,996.97845,5.713878625752312,996.9590101372523,0,0
12.28,-0.105985895,5.2257266,8.538022999999999,996.97614,5.713501026878013,996.9590003634314,0,0
12.3,-0.2063655,5.1446953,8.68479,996.9786,5.71358362259539,996.9590622859747,0,0
12.32,-0.23504801,5.077963,8.5901,996.95325,5.71383390622455,996.9590960765048,0,0
12.34,-0.23028304,5.049364,8.509615,996.95825,5.714057047785133,996.9591228879416,0,0
12.36,-0.15858969,5.1256294,8.471739,996.9657599999999,5.714266418291997,996.9591704721304,0,0
12.38,-0.08586184,5.125604,8.372411,996.9735,5.714284624233537,996.95926410382,0,0
12.4,-0.042826496,5.1685023,8.362943,996.9455,5.7141632180401345,996.9592972860072,0,0
12.42,0.06238056700000001,5.2114005,8.022071,996.95825,5.713368366757388,996.9593228355583,0,0
12.44,0.052838117000000004,5.1399016,8.457638000000001,996.95825,5.712668691509816,996.9593415489336,0,0
12.46,-0.28649372,4.9015727,9.167802,996.9331699999999,5.71310045424569,996.9592638664957,0,0
12.48,-0.18130372,5.068402,8.703834,996.96326,5.713852473284601,996.9592096123744,0,0
12.5,-0.14781085,5.0302687000000015,8.4955225,996.9580000000001,5.714470178043548,996.9591573188279,0,0
12.52,-0.07607955,5.116065,8.651760000000001,996.96326,5.715335561266638,996.9591258819028,0,0
12.54,0.000448734,5.1494303,8.329825999999999,996.9532,5.715879351295905,996.9590767710608,0,0
12.56,-0.13335153,5.0493317000000015,8.481330999999999,996.95026,5.716300205591961,996.9590016363447,0,0
12.58,-0.23849007,5.006432,8.566550999999999,996.9227,5.716722264455822,996.9588045614192,0,0
12.6,-0.2384387,5.082696,8.145192999999999,996.95325,5.716476318748711,996.9586104295937,0,0
12.62,-0.16194463,5.0636287000000015,8.344041,996.98584,5.715968870531008,996.9585369211659,0,0
12.64,-0.28140548,4.9730635,8.812749,996.9657599999999,5.715983258205947,996.9584979722034,0,0
12.66,-0.2335732,5.0969934,8.514485,996.9505,5.716049745607347,996.9584347642,0,0
12.68,-0.22399643,5.1017594000000015,8.400861,996.95825,5.7159644903629605,996.9583782484567,0,0
12.7,-0.3243209,4.8872633,8.538163,996.9881,5.715770622544758,996.958435309452,0,0
12.72,-0.22869056,4.9587607,8.4340105,996.9505,5.715363251837608,996.9584571614332,0,0
12.74,-0.12350062,5.044558,8.438747,996.9657599999999,5.7148641642299856,996.9585027600624,0,0
12.76,-0.20472303,5.011191,8.708611,996.9477,5.714737297925283,996.9585041610753,0,0
12.78,-0.003936991,5.182786,8.519238,996.9557,5.714778340426749,996.9584953040303,0,0
12.8,-0.042141147000000004,5.0636209999999995,8.864853,996.9705,5.7154608158373845,996.9585306948508,0,0
12.82,-0.20463736,4.868192,8.651807000000002,996.9781,5.716126266588841,996.9586324156784,0,0
12.84,-0.094667606,5.001655599999999,8.538184,996.9477,5.716704159510613,996.9586829395054,0,0
12.86,-0.15675364,5.0159535,8.353547,996.98584,5.716889368433732,996.9588253477764,0,0
12.88,-0.15675364,5.0159535,8.353547,996.95026,5.716726935023513,996.9589203444726,0,0
12.9,-0.17191225,4.9063425,8.841115,996.9582,5.717022081513988,996.9590016903136,0,0
12.92,-0.2388295,4.88251,8.935803,996.96826,5.717871768723775,996.9591068974132,0,0
12.94,-0.038077727,5.039807,8.552317,996.9431,5.7186708763358975,996.9591422335758,0,0
12.96,0.028839529,5.0445730000000015,8.599661,996.9882,5.719512198006313,996.9592780645684,0,0
12.98,0.03839913,5.0207405,8.656473,996.9431,5.720464897956848,996.9593398438008,0,0
13.0,-0.071536355,4.930176,8.381878,996.9956,5.7209252087232185,996.9595249684927,0,0
13.02,-0.16235262,4.853911,8.519176,996.9982,5.7211185833167235,996.9598277747843,0,0
13.04,-0.03329792,5.03504,8.391347,996.9605,5.721033415945032,996.9600977544342,0,0
13.06,0.03361933,5.077939,8.64227,996.97327,5.721196400531121,996.9603837285367,0,0
13.08,0.043178945999999996,5.1017714000000005,8.670677,996.99585,5.721654144595388,996.960764093831,0,0
13.1,0.024059728,5.0064405999999995,8.897928,996.9731,5.722681133094486,996.9611445938672,0,0
13.12,-0.08109597,4.992141200000002,8.604395,996.9708,5.723663558022633,996.9615155631616,0,0
13.14,-0.03329792,5.030273,8.391347,996.95026,5.724261337613454,996.9618028316023,0,0
13.16,-0.19581126,4.8634434,8.476566,996.95026,5.724498403398204,996.9620151078027,0,0
13.18,-0.17669202,4.8777432,8.637536,996.9477,5.724720551172945,996.9621511406656,0,0
13.2,-0.17669202,4.8777432,8.637536,996.9579,5.724928717662053,996.9622560351967,0,0
13.22,0.16745384,5.154204,8.471831,996.96326,5.7251169871811225,996.9623523342776,0,0
13.24,-0.03329792,5.0255065000000005,8.552317,996.9628,5.72529047334444,996.9624390357424,0,0
13.26,0.08619718,5.144671,8.471831,996.9529,5.725434346101217,996.9624813046277,0,0
13.28,0.1100962,5.1303706,8.467097,996.9727,5.725528199867856,996.9625554407182,0,0
13.3,-0.03329792,4.996907,8.699083,996.9504,5.725850680438214,996.9625771877812,0,0
13.32,-0.090655565,4.9397087,8.400816,996.97296,5.7257790434433575,996.96263378161,0,0
13.34,-0.038077727,4.992141200000002,8.296658500000001,996.97784,5.725228353548582,996.9627385303032,0,0
13.36,-0.10021518,4.954008,8.661208,996.96277,5.724870687626223,996.9628311995397,0,0
13.38,0.19610123,5.2018699999999995,8.561782000000001,996.9829,5.724771466284418,996.9629853297583,0,0
13.4,0.5067879,5.402065299999999,8.874253,996.9579,5.725693759524781,996.9631032120328,0,0
13.42,0.42075014,5.2638354000000005,8.779566,996.9705,5.727190615977171,996.963234001247,0,0
13.44,0.024025112,4.9826083,8.41975,996.9579,5.7282302172504975,996.9633303641921,0,0
13.46,-0.052453697,5.058873,8.239842999999999,996.94775,5.728623862157455,996.9633594211792,0,0
13.48,-0.3249031,4.806246,8.254046,996.9504,5.728212338942686,996.9633384420172,0,0
13.5,-0.31534475,4.839612000000002,8.377141,996.9757699999999,5.727346158568692,996.963364658438,0,0
13.52,-0.08113567,4.992141999999999,8.272984,996.95026,5.726046175308054,996.963340646497,0,0
13.54,0.15785326,5.2733690000000015,8.452889,996.9504,5.724993880937871,996.9632728432186,0,0
13.56,0.11483313,5.211404,8.604391,997.0058,5.724363812043794,996.9633660300065,0,0
13.58,0.081373215,5.3019685999999995,8.585453999999999,996.9705,5.724173043993571,996.963474052144,0,0
13.6,-0.047682747000000004,5.2733690000000015,8.149889,996.95276,5.723573671684271,996.9635309299167,0,0
13.62,-0.18151785,5.154205,8.547578,996.9428,5.7231884330779765,996.9635065557692,0,0
13.64,-0.12894195,5.220937,8.149889,996.9703400000001,5.7223633192685766,996.9635096191718,0,0
13.66,-0.109823346,5.1399055,8.552313,996.98334,5.721773901523767,996.9635837153653,0,0
13.68,-0.1432839,5.158972,8.282451,996.94775,5.720938027017947,996.9635921853863,0,0
13.7,-0.071587496,5.2495365,8.36767,996.9681,5.720135716467625,996.9636158976297,0,0
13.72,-0.06680956,5.330568,8.448155,996.9707599999999,5.719597157819897,996.9636625685364,0,0
13.74,-0.14328709,5.268602400000002,8.400811000000001,996.97327,5.719143405010548,996.9637383937027,0,0
13.76,-0.21020619999999998,5.259069,8.504968,996.96326,5.7189419526124095,996.9638036706024,0,0
13.78,-0.21976647,5.2066370000000015,8.646999000000001,996.96826,5.719159770680692,996.9638773920567,0,0
13.8,-0.15285048,5.182804,8.320326,996.9707599999999,5.7191398791869625,996.9639673097226,0,0
13.82,-0.014237463999999997,5.2304697,8.575984,996.9781,5.719411901260441,996.9640976386572,0,0
13.84,-0.07637616,5.2352365999999995,8.272982,996.9455,5.719411748421176,996.9641458458044,0,0
13.86,-0.038138352,5.278136,8.183027000000001,996.953,5.719061086152316,996.9641483165947,0,0
13.88,-0.02858001,5.2114043,8.452888,996.95825,5.718802362969326,996.9641292658454,0,0
13.9,0.001184002,5.201844,8.325159,996.9781,5.7183896791970765,996.9641627272464,0,0
13.92,0.044244096,5.2542753,8.533477,996.97833,5.7182680357605005,996.964243295922,0,0
13.94,0.18770097,5.4592357000000025,8.026900999999999,996.96326,5.717755093508075,996.9643109465384,0,0
13.96,0.19250174,5.473535,8.13106,996.9757699999999,5.7170943611991705,996.9644119752156,0,0
13.98,-0.089443915,5.2828712,8.514552,996.9683,5.716756621436479,996.964515241044,0,0
14.0,-0.012946158999999999,5.3782015,8.344116,996.9806,5.716511188467844,996.9646643918624,0,0
14.02,-0.027201861,5.201837,8.60925,996.9457,5.716621663032862,996.9647279097146,0,0
14.04,0.025417835,5.2685676,8.173688,996.9582,5.716351618506067,996.964760533614,0,0
14.06,0.025417835,5.2685676,8.173688,996.9507,5.715746319470044,996.9647387421704,0,0
14.08,-0.15135120000000002,5.0445375,8.561917,996.9557,5.715291878724938,996.9646869477788,0,0
14.1,-0.12265145,5.087436,8.339402,996.9707599999999,5.714620760038898,996.9646630452428,0,0
14.12,-0.10827018,5.1255674,8.254187,996.9656,5.713650960834831,996.9646452979988,0,0
14.14,-0.14170788,5.120801,8.282596,996.98334,5.712466603018648,996.9646969174612,0,0
14.16,-0.12256775,5.1589327,8.254191,996.9431,5.711088087138562,996.9646647795154,0,0
14.18,-0.17030305,5.2685614,8.292072000000001,997.0009,5.709732534056817,996.9647668292205,0,0
14.2,-0.022087231000000002,5.3638916,8.552468,996.9657599999999,5.708962566285442,996.9648605757544,0,0
14.22,-0.19889814,5.263793499999999,8.561941000000001,996.99097,5.7086238063280845,996.9650374041188,0,0
14.24,-0.24187455,5.3352904,8.471991000000001,996.9759,5.708589035621697,996.9652327550074,0,0
14.26,-0.33264893,5.2542577,8.197398,996.9657599999999,5.708256681099119,996.965407265134,0,0
14.28,-0.41862267,5.1303253,8.637705,996.9555,5.708312462231515,996.9655257961276,0,0
14.3,-0.10789356,5.3448199999999995,8.277892999999999,996.9784,5.708293078928525,996.9656768772476,0,0
14.32,-0.0935332,5.378185,8.339442,996.99835,5.708352129671932,996.9659279957667,0,0
14.34,-0.1986261,5.2018213,8.43887,996.9784,5.708462777080951,996.9661947833058,0,0
14.36,-0.16992638,5.2447194999999995,8.547764,996.953,5.708856972923657,996.9663830155554,0,0
14.38,-0.17466432,5.1875196,8.254235000000001,996.9884,5.708919540851498,996.966628598715,0,0
14.4,-0.20443717,5.1160483,8.528729,996.9884,5.70909843656919,996.9669239730396,0,0
14.42,-0.21877909,5.3019443,7.8327727,996.97833,5.708368104967862,996.9672260274898,0,0
14.44,-0.34783632,5.2256794,8.363026,996.9707599999999,5.70768201594008,996.967505645103,0,0
14.46,-0.5485894,5.077916,8.60448,996.9504,5.707325547438607,996.9676911349036,0,0
14.48,-0.40041798,5.235213,8.315681,996.99097,5.706904924683994,996.9679388376061,0,0
14.5,-0.32872596,5.2256800000000005,8.576073,996.9808,5.706873040759352,996.968204007898,0,0
14.52,-0.25703016,5.2399793,8.666027,996.97833,5.707355608952287,996.96847476594,0,0
14.54,-0.22835389999999997,5.2304463,8.225727000000001,996.9808300000001,5.707501564856083,996.9687584865884,0,0
14.56,-0.13753891,5.2828784,8.301477,996.9507,5.707537339278147,996.9689441716014,0,0
14.58,-0.39087233,5.1589480000000005,8.187851,996.9455,5.707152697284138,996.9690238438614,0,0
14.6,-0.6250865,4.977819,8.358289,996.9705,5.706528651681798,996.9690995564323,0,0
14.62,-0.51037246,5.058851,8.206788000000001,996.9658,5.7054996461158085,996.9691545776567,0,0
14.64,-0.4816962,5.0254845999999995,8.609212,996.9809,5.704794247705022,996.9692454779312,0,0
14.66,-0.5103763,4.9825854000000005,8.590275,996.9605,5.704301530685371,996.9692943136928,0,0
14.68,-0.21881208,5.2733455000000005,8.192585000000001,996.9608,5.703586293022098,996.969306885443,0,0
14.7,-0.24749345,5.230447,8.452975,996.9733,5.703088410187997,996.9693323690536,0,0
14.72,-0.33831350000000004,5.0779166,8.7275715,996.98584,5.70311601146165,996.9694143138432,0,0
14.74,-0.03718838,5.2352137999999995,8.538196000000001,996.971,5.70342594559282,996.9694924287296,0,0
14.76,-0.02285023,5.2209134000000015,8.45771,996.97327,5.703826087819941,996.9695750502997,0,0
14.78,0.0058273380000000005,5.182780999999999,8.230457000000001,996.9758,5.7038616960868245,996.969670464538,0,0
14.8,-0.10889053,4.9253874,8.471912,996.9758,5.703728661797472,996.9697768388867,0,0
14.82,-0.027635097999999997,4.9015546,8.514522,996.99097,5.703497771100566,996.9699471266413,0,0
14.84,0.005819693000000001,5.182780999999999,8.164177,996.9608,5.702860541404438,996.9700646632452,0,0
14.86,-0.118459016,4.996886,8.80332,996.9482,5.702808085839294,996.9700898058007,0,0
14.88,-0.052050784,5.168494,8.268286999999999,996.94525,5.702498551592427,996.970022598462,0,0
14.9,-0.061633177000000004,5.125596,8.58549,996.943,5.702479224891984,996.9698659327028,0,0
14.92,-0.24328855,4.9683003,8.3866415,996.96826,5.7021999706535125,996.9697217214804,0,0
14.94,-0.22896051,5.030266,8.381905999999999,996.96826,5.701748818625232,996.9695890342473,0,0
14.96,-0.2911208,4.982600700000001,8.320356,996.9579,5.700990246623236,996.9694297112842,0,0
14.98,-0.06649282,4.982601,8.907421000000003,996.9555,5.701010243897589,996.9692387865537,0,0
15.0,-0.08563483,5.015968,8.623355,996.9602699999999,5.701239934916402,996.9690377978301,0,0
15.02,-0.07609804,5.0969996,8.377164,996.96826,5.701300284570143,996.9688574041215,0,0
15.04,-0.10001989,5.120833,8.538132000000001,996.9403699999999,5.701523202418199,996.9685954535864,0,0
15.06,-0.21953776,4.9635370000000005,8.6991,996.97546,5.7020165983461615,996.9683887064599,0,0
15.08,-0.30560848,4.9778376,8.6564865,996.9407,5.7026898484030655,996.9681063453564,0,0
15.1,-0.3773169,4.9301724,8.46711,996.9428,5.703134665306279,996.9677657482416,0,0
15.12,-0.31997067,5.0255035999999995,8.481311999999999,996.9304,5.703497540557437,996.9673302799374,0,0
15.14,-0.23874825,4.9873724,8.760638,996.99286,5.70424402441166,996.9670374071359,0,0
15.16,-0.15750295,5.0445714000000015,8.741699,996.9329,5.705348424274657,996.966655730063,0,0
15.18,-0.21488342,4.99214,8.661213,996.9582,5.706567990223457,996.9662880395732,0,0
15.2,-0.30094272,4.9683075,8.301396,996.9504,5.707219890922941,996.9659059513136,0,0
15.22,-0.32966712,5.0064405999999995,8.220906,996.9602699999999,5.707267604675938,996.965548048703,0,0
15.24,-0.32966712,5.0064405999999995,8.220906,996.9499,5.7067812870735075,996.9651754729808,0,0
15.26,-0.019025534,5.3591676,8.571249,996.97784,5.706817860211793,996.96489185737,0,0
15.28,-0.028596512999999997,5.3305682999999995,8.495498,996.9727,5.707151389630628,996.9646693639296,0,0
15.3,-0.25327012,5.235238,8.239837,996.95526,5.707197751900697,996.9644388950155,0,0
15.32,-0.5544206,4.9254120000000015,8.845839,996.94775,5.707768024113555,996.9641751726613,0,0
15.34,-0.6643788,5.0112104,8.145144,996.95514,5.707648686092553,996.9639096209672,0,0
15.36,-0.48753756,5.106542,8.05519,997.0028,5.706844793802652,996.963814984855,0,0
15.38,-0.28631616,5.1398964000000005,8.154655,996.9630000000001,5.705633667574005,996.9637284304407,0,0
15.4,-0.12380408,5.3877573,7.515511,997.0108,5.703244916192424,996.9638214086107,0,0
15.42,-0.042549975,5.2447610000000005,8.83641,996.9802,5.701960322773771,996.9639625270503,0,0
15.44,-0.104689956,5.1875625,8.438719,996.9579,5.7008879480138965,996.9640653942064,0,0
15.46,0.014801338,5.5879536,7.671745299999999,996.9954,5.699144097433457,996.9642690922066,0,0
15.48,-0.13337511,5.1208305,8.964236999999997,996.97015,5.698545678380199,996.9644702510274,0,0
15.5,-0.095137954,5.125597,8.973706,996.96765,5.698982639760923,996.9646594420576,0,0
15.52,0.33026206,5.3782244000000015,8.415046,996.9604,5.699621143182992,996.9648112772608,0,0
15.54,0.18208559,5.173262599999998,8.490797,996.9727,5.700335562832718,996.9649738382479,0,0
15.56,0.18208177,5.197096299999999,8.29195,996.9627,5.700789003180966,996.9651092913189,0,0
15.58,0.019567192,5.0969977,8.362967,996.9627,5.7010229032574165,996.9652203042032,0,0
15.6,-0.20030634,5.0112,8.30142,996.9549599999999,5.700864375793817,996.9652814580928,0,0
15.62,-0.18118967,5.0397997000000005,8.514467,996.9702,5.700769401904188,996.9653532004204,0,0
15.64,-0.23854986,4.992134,8.703842999999999,996.95514,5.701023586182912,996.9653798244195,0,0
15.66,-0.29591003,5.087465,8.405576,996.975,5.701155206411241,996.9654379820174,0,0
15.68,-0.24811329,5.116064,8.594952000000001,996.9752,5.701543268114821,996.9655245133356,0,0
15.7,-0.24811709,5.0445660000000005,8.623358,996.9674699999999,5.7021318561442556,996.9656079761604,0,0
15.72,-0.22422057,5.030267,8.760655999999999,996.95514,5.703126275925699,996.965644039198,0,0
15.74,-0.19076324,5.0016675,8.452917999999999,996.9345,5.7038918475120175,996.965563785957,0,0
15.76,-0.12384849999999999,5.0541,8.538138,996.99005,5.704658145315713,996.9655810245638,0,0
15.78,-0.104733095,4.987368,8.490794000000001,996.9523300000001,5.705266663036148,996.9655485529083,0,0
15.8,-0.24335122,4.987368,8.372433000000001,996.9596,5.705526993312705,996.9654984461632,0,0
15.82,-0.099958375,5.0779324,8.220932000000001,996.9648,5.705301888448826,996.9654516574367,0,0
15.84,-0.19077717,4.9349356,8.703841,996.9698,5.705363762466726,996.9654259689515,0,0
15.86,-0.13820314,4.963535299999998,8.438714,996.9673,5.705229760263088,996.9654100171176,0,0
15.88,-0.15694655,4.9158607000000005,8.661265,996.9521,5.705274650065956,996.9653480060156,0,0
15.9,-0.12825504,5.0159583,8.438749000000001,996.947,5.705181195056772,996.9652271601843,0,0
15.92,-0.16169466,5.0397906,8.542908,996.9797,5.705178352312392,996.9651724830308,0,0
15.94,-0.07564548,5.1303544,8.661269,996.9449,5.705560997890871,996.9650511893593,0,0
15.96,-0.15689579999999995,5.068389,8.538176,996.9696,5.705999115266343,996.9649603899893,0,0
15.98,-0.15689579999999995,5.068389,8.538176,996.9774,5.706484670299084,996.9649249422624,0,0
16.0,-0.29549113,4.834827400000001,8.571319,996.99725,5.706833481013125,996.9650099908583,0,0
16.02,-0.22377503,4.9110923,8.860119000000003,996.9696,5.70765740875802,996.9651016638304,0,0
16.04,-0.061249025,5.058855,8.514508,996.9748,5.708423298402969,996.9652175800792,0,0
16.06,-0.10425457,5.0159554,8.746495,996.98956,5.709507348127117,996.9654076363884,0,0
16.08,-0.11858127,5.0445547,8.443494,996.9723,5.710355500166908,996.9656003826519,0,0
16.1,-0.10901536,5.087453400000001,8.666012,996.9721,5.711435283742995,996.9657940918727,0,0
16.12,-0.29062885,4.9396895999999995,8.684952000000001,996.952,5.712603820425595,996.9659155946097,0,0
16.14,-0.3432004,4.8824906,8.656547,996.957,5.713740139978117,996.9659908582872,0,0
16.16,-0.30016312,4.987354799999999,8.415092,996.9748,5.714515797756783,996.9660890741832,0,0
16.18,-0.30016312,4.987354799999999,8.415092,996.99457,5.714969982424067,996.9662783890816,0,0
16.2,-0.18064897,5.054086,8.618673,996.98236,5.715567249572165,996.9665035615253,0,0
16.22,-0.15195745,5.058852,8.547658,996.98456,5.716165670088311,996.9667675270747,0,0
16.24,-0.26188028,4.887256,8.746506,996.98456,5.716948101837253,996.9670648199367,0,0
16.26,-0.18061727,4.9539870000000015,8.505051,996.98456,5.717519466109952,996.9673904905583,0,0
16.28,-0.26184857,4.906321,8.509788499999999,996.9317599999999,5.717864927492374,996.9675499833533,0,0
16.3,-0.32397968,4.9063206,8.571336,996.982,5.718124249455812,996.9677429312468,0,0
16.32,-0.23314439,5.0254845999999995,8.481384,996.9946,5.718264306923858,996.9680101054528,0,0
16.34,-0.23313805,5.015951,8.552401,996.9468,5.718415538484558,996.9681698242018,0,0
16.36,-0.30004263,4.9921184,8.637621000000001,996.9942599999999,5.718707927966577,996.9684048763213,0,0
16.38,-0.15185627,5.120815,8.599747,996.98926,5.719184469753017,996.9686876468193,0,0
16.4,-0.27133870000000004,4.987351,8.7891245,996.99445,5.7200280637881376,996.9690302473027,0,0
16.42,-0.30955815,5.0493155,8.377233,996.9794300000001,5.720521569102077,996.9693704081998,0,0
16.44,-0.48639822,5.0159497,8.306217,996.9664300000001,5.72055689430818,996.9696603888988,0,0
16.46,-0.38601595,5.0731480000000015,8.467188,997.00714,5.720525585056791,996.9700515424443,0,0
16.48,0.47914755,5.464005,8.926427,996.9815,5.721679915178895,996.9704383801643,0,0
16.5,0.7181504,5.282876,8.945364999999997,996.9942599999999,5.723746195406407,996.9708659478054,0,0
16.52,0.63690007,5.08268,8.367769000000001,996.98395,5.725358584803674,996.9712908491608,0,0
16.54,0.63690007,5.08268,8.367769000000001,996.9693599999999,5.726564111661508,996.9716593409413,0,0
16.56,0.3644703,4.567891599999999,7.5723910000000005,996.9739400000001,5.725410069247255,996.9719931506512,0,0
16.58,0.49354398,4.849118,8.249413,996.9939999999999,5.723694219285402,996.9723673295688,0,0
16.6,0.41229367,4.853884,8.424585,996.9941,5.721799521255425,996.9727761916736,0,0
16.62,-0.022655845,5.363906,8.026896,996.9989999999999,5.719592709993553,996.9732318679393,0,0
16.64,-0.27119297,4.8777165,8.391448,996.98145,5.717233875846302,996.9736640887633,0,0
16.66,0.17334779,4.8824825,9.096875,996.98645,5.716029307499745,996.9740920283638,0,0
16.68,0.35021323,5.015946,9.319393,996.98914,5.716396709314092,996.9745243284926,0,0
16.7,0.37889838,5.096977,9.210503,996.98914,5.71803593221321,996.974958925304,0,0
16.72,-0.0034669490000000004,5.24474,8.363046,996.97644,5.719417088297925,996.9753482669153,0,0
16.74,-0.07037154,4.896781400000001,8.926441,996.9765,5.721209613125912,996.975696435402,0,0
16.76,-0.42406434,4.9587455,7.8659360000000005,996.9513,5.721543791213155,996.9759162499097,0,0
16.78,-0.31412247,5.106509,7.71917,996.9939999999999,5.720489531193483,996.9761755795088,0,0
16.8,-0.6534696,4.815748,8.5903015,996.9689300000001,5.719478090250693,996.9763786390564,0,0
16.82,-0.36667502,4.9301457000000015,8.557161,996.9789400000001,5.7185348592085985,996.9765672833722,0,0
16.84,-0.1754765,4.968278400000001,8.850696000000003,996.9865,5.718213827839088,996.9767697272696,0,0
16.86,0.12567009,4.953978,8.784415,996.9589,5.718307564847058,996.9768842756787,0,0
16.88,0.21171929,4.911079,7.899083,997.0015,5.717141883353803,996.9770741072607,0,0
16.9,0.21577485,4.763333,8.334581,996.9385,5.715487854802372,996.9771029756604,0,0
16.92,-0.3817336,4.148448,8.381923,996.951,5.712905257207093,996.977034513066,0,0
16.94,-0.8931892,3.557396,8.945314999999997,996.9763,5.710151514326397,996.9769713752706,0,0
16.96,-0.5586111,3.7861903,8.628111,996.9889,5.706780009232371,996.9769585297637,0,0
16.98,0.6458746999999999,5.4592529999999995,8.2967,996.9710699999999,5.703942795083282,996.9769259807664,0,0
17.0,-0.013746515,5.1112943,8.599701,996.9864,5.7016945994973325,996.9769313269417,0,0
17.02,-0.37703633,4.601273,8.348774,996.99115,5.699010979039414,996.9769872380454,0,0
17.04,-0.45830125,4.653705599999999,8.415055,996.9859,5.696132748225003,996.9770687270396,0,0
17.06,-0.94585776,3.9673218999999995,8.992650999999997,996.9786,5.693606840250305,996.9771462432974,0,0
17.08,-0.44877464,4.8634353,9.319324,996.9736,5.692746711590719,996.977201970187,0,0
17.1,-0.38666195,4.701372599999999,8.954773,996.9786,5.692529505592788,996.977256243374,0,0
17.12,-0.74037564,4.5011773,8.741724000000001,996.9658,5.692338827667368,996.9772629566858,0,0
17.14,-0.7834021,4.300982,8.28722,996.9633,5.691152358859037,996.977218621924,0,0
17.16,-0.92681277,4.3867807,8.727518,997.0035,5.690009393452728,996.9772740606898,0,0
17.18,-0.764316,4.5154777,9.328787,996.9886,5.690115433873126,996.9773638197644,0,0
17.2,-0.5014598,4.3248167,8.741716,996.99365,5.690022789234535,996.9775017611316,0,0
17.22,-0.51102763,4.3200502,8.912155,996.9834,5.690069321146487,996.9776448797836,0,0
17.24,-0.7309150999999999,4.768107,8.291945,996.9635599999999,5.689564839878483,996.9777206338575,0,0
17.26,-1.1276553999999999,4.3438835,9.210419,996.98596,5.689931770061919,996.9778172318753,0,0
17.28,-0.6018934,4.3152847,9.035244,996.9856599999999,5.690621135333287,996.9779308198488,0,0
17.3,-0.257764,4.8586730000000005,8.599677999999999,996.9454300000001,5.691280605941312,996.9779141832312,0,0
17.32,-0.38204718,4.8348403,8.500254,997.0060000000001,5.691715602253102,996.9780005920557,0,0
17.34,-0.26257682,5.1065345,9.030505999999999,996.97046,5.693179335338364,996.978049796762,0,0
17.36,-0.34862983,4.963538,9.158333,996.9734,5.6956404832693925,996.9780765347716,0,0
17.38,-0.47769278,4.9826045,8.987894,996.98334,5.698693431284534,996.9781191089523,0,0
17.4,-0.38505733,5.3686514,8.850762,996.9956,5.702406275664704,996.978219658706,0,0
17.42,-0.8343043,4.877694,9.830789999999999,996.9829,5.708033857638299,996.9783253536972,0,0
17.44,-0.97289145,4.9015265,8.912317,996.96796,5.713694505021424,996.9783814305176,0,0
17.46,-0.7051406,5.020688,8.623526,996.9830300000001,5.718918808013942,996.9784477148463,0,0
17.48,-0.7051406,5.020688,8.623526,996.9829,5.723738749612151,996.978522311906,0,0
17.5,-0.25097739999999996,5.1303167,8.287391,996.99585,5.727657343633175,996.978650605545,0,0
17.52,-0.27001485,5.0254507,7.591439999999999,996.9833,5.729431138659085,996.9787807036245,0,0
17.54,-0.030970097000000002,5.31621,8.396294000000001,996.98285,5.731027938726194,996.9789103077544,0,0
17.56,-0.15519047,5.1779779999999995,7.989140499999999,996.9804,5.73159755811771,996.9790301888556,0,0
17.58,-0.14079657,5.4067717,8.116975,996.9705,5.731740193411557,996.9791054071167,0,0
17.6,-0.27938357,5.306673,8.112243,996.9526400000001,5.731388459528137,996.9790765945066,0,0
17.62,-0.30322808,5.3019050000000005,8.509938,996.9828,5.731293734581449,996.9790645399443,0,0
17.64,-0.22191687,5.1350739999999995,8.216409,996.99786,5.7307210439430305,996.9791215521892,0,0
17.66,0.06495315,5.5354633,7.3168797,996.96765,5.72865448800915,996.9791306306207,0,0
17.68,0.35176867,5.830989,7.5109935,996.9398,5.7259823129977026,996.9789970620527,0,0
17.7,-0.07835917,5.397231,8.169081,996.96277,5.723358538356286,996.9788206234424,0,0
17.72,-0.42723036,5.320965,8.491025,996.99036,5.721282194213233,996.9787062640422,0,0
17.74,-0.28380895,5.411529,8.519434,996.95734,5.719836784944444,996.9785282975256,0,0
17.76,-0.39846970000000004,5.2446980000000005,8.438953,996.9802,5.7186362603677905,996.9783770644403,0,0
17.78,-0.13552596,5.4782577,8.855587,996.98285,5.718633448891878,996.9782595374544,0,0
17.8,0.108325854,5.406758,8.339544,996.9599,5.718702653003597,996.9780895962746,0,0
17.82,0.0748945,5.3876905,8.325343,996.98773,5.718788283044523,996.9779741417017,0,0
17.84,0.027178257999999997,5.3733889999999995,8.192787,997.02045,5.718640538470241,996.9780250391306,0,0
17.86,0.032012567,5.3495545,8.292214999999999,996.96234,5.718433366139915,996.978013545958,0,0
17.88,0.16109459,5.349554,8.19753,996.97,5.718011983519458,996.9779745418256,0,0
17.9,0.8573287,5.726152,8.254194,996.95746,5.718010759705598,996.9778662254233,0,0
17.92,0.62788665,5.6498870000000005,7.8565035000000005,996.97,5.717580565441732,996.9777421986388,0,0
17.94,0.025619894,5.3734274000000015,7.705001400000001,996.9751,5.71614157523115,996.977623096657,0,0
17.96,0.24069970000000002,5.4163260000000015,8.301536,996.9648,5.714900207653503,996.9774716949976,0,0
17.98,-0.06521918,5.254264,7.9322505,996.9775400000001,5.713005913875518,996.9773381623896,0,0
18.0,0.6039361999999999,5.9072824,8.168969,996.9572,5.7117559783573055,996.9771476755926,0,0
18.02,0.6039361999999999,5.9072824,8.168969,996.9774,5.711079897565295,996.9769802698266,0,0
18.04,0.38404244,5.6451225,8.571392,996.94476,5.711269507627293,996.9767163571204,0,0
18.06,0.49397218,5.692788,8.348873,996.94476,5.711904454977435,996.9763681209675,0,0
18.08,0.05421312,5.506892700000001,8.348872,996.9748,5.712690622210633,996.9760547742676,0,0
18.1,-0.022269427999999997,5.4830604,8.429357000000001,996.95984,5.713720118426813,996.9757195279358,0,0
18.12,-0.084418304,5.49736,7.75707,996.9469,5.713822195118352,996.9753195539764,0,0
18.14,-0.14656714,5.473528,9.470922999999999,996.9522,5.716080591656349,996.9748829065918,0,0
18.16,-0.69625604,5.158935,8.306258999999999,996.952,5.717872791828553,996.9744147064987,0,0
18.18,-0.07489294,5.754755,7.1084538,996.9924,5.7178820524580525,996.9740657519536,0,0
18.2,-0.37603766,6.0550485,6.9143414000000005,997.0096,5.7164246656182005,996.9738853390103,0,0
18.22,0.19753306,5.8929860000000005,8.746555,996.9318,5.716482206325932,996.973574418913,0,0
18.24,-0.710641,5.2924,7.8754240000000015,996.9519,5.7157304427581845,996.973221662007,0,0
18.26,-0.45732290000000003,5.3972644999999995,7.728656299999999,996.9699,5.714105617216952,996.9728980080217,0,0
18.28,-0.041497074,5.5068955000000015,8.817568,997.0046,5.71370685231927,996.9727261545313,0,0
18.3,-0.25659394,5.3257660000000016,8.135813,996.9772,5.713003048419846,996.9725904106308,0,0
18.32,-0.3139573,5.216136,7.9369679999999985,997.0097,5.711565434608435,996.9726040618422,0,0
18.34,0.044510825999999996,5.416332,8.382,996.9644,5.710476163828086,996.9725865894301,0,0
18.36,-0.079775475,5.344834,8.329922,996.96924,5.709527611851104,996.9725591030844,0,0
18.38,-0.18015707,5.2685685,8.372530000000001,996.94434,5.7086992854737595,996.9724332273784,0,0
18.4,0.111393824,5.3781996,8.164214,996.95917,5.707737395049353,996.972274255986,1,2
18.42,0.025351672999999998,5.435398999999999,7.960634,996.987,5.706374500678521,996.9721868015422,1,2
18.44,-0.03201738,5.5497966,8.055322,996.95917,5.704959012005496,996.97206266631,1,2
18.46,-0.13240469,5.6403620000000005,8.060056,996.95935,5.703619333456928,996.9719072148202,1,2
18.48,0.28342116,5.9263554,8.959591,996.9591,5.704237683296045,996.9717237519104,1,2
18.5,0.16392033,5.602229599999999,8.902776,996.96655,5.706114296583557,996.9715430185763,1,2
18.52,0.02528888,4.9635115,8.675525,996.96655,5.708004864633262,996.9713653477356,1,2
18.54,0.04440239,4.8586472999999994,8.045848,996.9366,5.708662327701245,996.9710832025287,1,2
18.56,0.6992241,5.2590384000000014,7.3120136,996.95905,5.707468754443451,996.9707905794952,1,2
18.58,1.057698,5.506899400000001,7.1321054,996.9642,5.704724215916369,996.9705082916963,1,2
18.6,1.334915,5.549799,7.832796000000001,996.9920699999999,5.701906588521334,996.9703364843473,1,2
18.62,1.1580508999999999,5.1017427,8.339376,996.98676,5.699351464764183,996.9702438000296,1,2
18.64,0.85213214,5.211374,8.045843,996.98193,5.696579066793113,996.9702039744867,1,2
18.66,1.0719916999999999,5.716629,7.704964,996.9741,5.693686697884576,996.9701828103287,1,2
18.68,1.0101030999999998,5.7070904,7.757065299999999,996.96405,5.690759762617185,996.9701420315616,1,2
18.7,0.7519865,5.7881217000000005,7.8659563,996.97406,5.688045215053728,996.9701201041294,1,2
18.72,0.7376448,5.8405538,7.894362400000001,996.9717,5.685637732961882,996.9701064166752,1,2
18.74,0.3839321,5.964484,7.733392,996.9769,5.6833567177972295,996.9701187793409,1,2
18.76,0.19273518,6.1265472999999995,8.012721,996.9641,5.681849434278365,996.9701080353864,1,2
18.78,0.082797304,6.0121503,7.851752,997.0016,5.680617944015866,996.970211913101,1,2
18.8,-0.08450301,6.48404,8.400942,996.98676,5.681137299012263,996.9703632725624,1,2
18.82,0.11146413,6.913029700000001,8.7512865,996.9614,5.684324996598012,996.9704647460014,1,2
18.84,0.37913078,7.175191000000001,9.238931,997.01685,5.691004502011127,996.9707213948464,1,2
18.86,-0.78236866,6.245712,11.776571,997.0042,5.704173055762834,996.9710686927444,1,2
18.88,-0.6867774,5.831022,10.550360000000001,996.96155,5.720369199353273,996.9713412978732,1,2
18.9,-0.44779205,5.3448334000000015,9.338351,996.9466,5.736469844708937,996.9714931030924,1,2
18.92,0.03974557,5.0064077000000005,9.063756,996.96655,5.751566678263396,996.9716094430133,1,2
18.94,0.35998762,3.6860716,9.428305,996.9744,5.7652546661912325,996.9717222869723,1,2
18.96,0.21181135,3.423911,9.002208,996.95654,5.776617682220591,996.9717673396616,1,2
18.98,-0.24227725,4.1674940000000005,6.559253999999999,996.9692,5.7820222391996365,996.9717979057947,1,2
19.0,-0.6772418,4.329557,6.3982844000000005,996.9792,5.782101123476031,996.9718515615692,1,2
19.02,-0.5625312,4.196093599999998,6.947475,996.98413,5.778265180071696,996.9719431741901,1,2
19.04,-0.2996468,3.9005669999999997,7.936965,996.9792,5.7724656790106765,996.9720502476747,1,2
19.06,-0.28531218,4.277125,7.6244936,996.9694,5.764740435186456,996.9721353169141,1,2
19.08,-0.16104206,5.1065062999999995,7.0658335999999995,996.99445,5.7552843255261275,996.9722908169533,1,2
19.1,-0.29010156,5.340068,6.3320003,996.9766,5.743436640552571,996.9724437298463,1,2
19.12,-0.8015453,5.2018375,7.794931,996.9766,5.731840520211184,996.9725938062517,1,2
19.14,-0.7824333000000001,6.3315114999999995,8.150011,996.9765,5.722471675510392,996.972740476061,1,2
19.16,-1.3846934,6.007386,8.860171000000003,997.0094,5.716027206140332,996.9730020477904,1,2
19.18,-1.1072847,5.773820400000001,9.314691,997.0018,5.712649075895272,996.9733368451988,1,2
19.2,-1.1025022,5.7356877,7.9748545,996.9844400000001,5.7096440737431156,996.9736726435457,1,2
19.22,-0.065283485,6.188510400000001,8.623467,996.96655,5.7084958118561335,996.9739437134483,1,2
19.24,1.1822479,5.9549494,9.91596,997.00684,5.711096733446508,996.9743016574464,1,2
19.26,0.90980166,4.3104873,9.319426,997.0224599999999,5.7142602268548925,996.9747913067956,1,2
19.28,0.39836508,3.376242,10.062728,997.0046,5.7185605198653535,996.9753312722563,1,2
19.3,0.78075194,4.0483265,7.5203524,996.9441,5.719599103181633,996.9756959531574,1,2
19.32,0.9289283000000002,4.2056227,6.7959886,996.98175,5.716649214634316,996.9760399797699,1,2
19.34,0.57522416,4.010194,7.207882400000001,997.01465,5.710648261000968,996.976482957758,1,2
19.36,0.08290689999999999,3.8099983,8.34414,997.01215,5.70385362672365,996.97700277446,1,2
19.38,-0.01746647,3.5335379000000002,10.574043,996.9816,5.700488438687775,996.9774786345099,1,2
19.4,-0.13217792,4.8538737,8.542985,996.944,5.697417202304237,996.9777785813658,1,2
19.42,-0.39506584,5.216132,7.851762299999999,996.94916,5.6938024906101,996.9779405875148,1,2
19.44,-0.96863973,5.564091,7.1794767,996.9897,5.689096904420794,996.9781260700328,1,2
19.46,-1.1693891,5.187533,8.353609,996.9971300000001,5.6850403901766215,996.9783583765336,1,2
19.48,-1.6760457999999998,4.777609,9.224739999999999,997.0046,5.682861254951629,996.9786581124024,1,2
19.5,-1.4274935,4.7442427,10.559842,997.0046,5.684721257936149,996.9790163498112,1,2
19.52,-1.6091235000000002,4.177022,10.744485000000001,996.9845,5.690092255498731,996.9793526295264,1,2
19.54,-1.7668543,4.877706,9.1158495,996.98236,5.696154058126558,996.9796605928163,1,2
19.56,-1.8959078999999999,5.0397696,8.505111,996.9795,5.7019265510020976,996.9799321310454,1,2
19.58,-2.4981603999999997,4.577413,8.63294,996.98956,5.707462905754294,996.9802067225528,1,2
19.6,-2.0201764,2.9520173,9.518274,996.98926,5.7129422476224825,996.9804819434073,1,2
19.62,-1.9054598000000005,2.3847973,10.413077000000001,996.9669,5.719771157263772,996.9806762335584,1,2
19.64,-1.9628148999999997,2.0654378,10.67347,996.962,5.728175274652653,996.9807806738949,1,2
19.66,-2.3929949,2.9377177000000003,8.178439,996.9569,5.733713963412146,996.9807869869502,1,2
19.68,-1.9619526000000005,4.2199,6.800805,996.982,5.735094378586132,996.9807969320128,1,2
19.7,-1.5843298000000001,4.0578365,7.108543400000001,996.98956,5.732996146869294,996.9808372665152,1,2
19.72,-1.770687,2.8661962000000005,10.19538,997.0021,5.732821058539798,996.9809494519217,1,2
19.74,-1.8375859,2.5563695,10.654619,996.972,5.735119947774828,996.98101636092,1,2
19.76,-1.2496148,3.0568569,8.642502,996.9519,5.735734650916784,996.9809706628116,1,2
19.78,-1.1396241000000005,4.339059,7.6530166,996.947,5.734067208342436,996.980807989577,1,2
19.8,-1.2160826,4.5011215,7.861332400000001,996.9845,5.73094833587898,996.9806775427445,1,2
19.82,-1.1778075000000001,4.300925299999999,9.400017,996.9797,5.729185623078878,996.9805587607692,1,2
19.84,-0.9101016,4.124562,9.840321000000001,996.9744,5.729260244553934,996.980431633477,1,2
19.86,-0.7762486999999999,4.258025,9.916072,996.9946,5.731188774966389,996.9803703099212,1,2
19.88,-1.0103856,3.967263200000001,9.508921,996.9594,5.733778351961992,996.9802406313116,1,2
19.9,-0.8574135,4.2913885,9.054419000000001,996.972,5.736326992915625,996.9800963810196,1,2
19.92,-0.76657873,4.6345797,8.912389,996.9494,5.738867866480493,996.9798584144896,1,2
19.94,-0.6135883000000001,4.7060775999999995,9.788258,996.942,5.7430628208712005,996.9795118569716,1,2
19.96,-0.10689227,4.958704,9.504196,996.9621,5.748376674075277,996.9791429560637,1,2
19.98,-0.5465975000000001,4.1007233,9.750389,996.9646,5.754392340228195,996.9787646405797,1,2
20.0,-1.3256502000000001,4.000624,7.9797259999999985,996.9648,5.7577486691989135,996.9783800883116,1,2
20.02,-1.7605755,3.7813617999999996,9.239081,996.98456,5.7610558027326215,996.9780625456101,1,2
20.04,-1.6171448,3.2236736,9.182272,996.9645,5.7637425314694415,996.9777331397144,1,2
20.06,-1.6171448,3.2236736,9.182272,996.98456,5.7658713983042835,996.977466653362,1,2
20.08,-1.9803363999999999,2.7327166000000003,9.390592999999999,996.9924,5.767735484793677,996.9772849460692,1,2
20.1,-2.0806937,2.5658865,8.836668,996.9494,5.768226879124778,996.9770240036992,1,2
20.12,-1.5644381,3.4524652999999996,8.869813,996.9974,5.767943781127827,996.9768667886076,1,2
20.14,-0.8665316999999999,3.829022,9.220163000000001,996.9699,5.7677576326824695,996.976702792914,1,2
20.16,-0.76613736,3.666958,9.722012,996.9924,5.768484260798362,996.9766143962644,1,2
20.18,-0.48503917,3.333322,9.968119,996.98456,5.770229056910481,996.9765648931584,1,2
20.2,0.11243506,3.3190224,9.878165,996.9873699999999,5.772658518695456,996.9765600505986,1,2
20.22,0.9966975,3.5954826,10.039133,996.9745,5.776284033738661,996.9765483555304,1,2
20.24,1.3743013000000002,3.7432456,9.707725,996.9823,5.7805059177231755,996.9765587276885,1,2
20.26,1.183108,3.5573504000000002,9.916038499999999,996.95734,5.785460426159992,996.9764987051076,1,2
20.28,0.73380446,3.8099778,8.680359,996.9445,5.788772684998226,996.9763304738167,1,2
20.3,0.5521713,3.9815736000000004,8.5998745,996.9624,5.790590493478787,996.9761316749423,1,2
20.32,-0.03574583,3.8099778,8.689829,996.94214,5.7910719182793935,996.975833646227,1,2
20.34,-0.6045444000000001,4.787122,7.7855563,996.9698,5.7896871614954515,996.975548586928,1,2
20.36,-1.2259208000000001,4.3104663,8.642484,996.9773,5.787855100595503,996.975303013618,1,2
20.38,-1.2259208000000001,4.3104663,8.642484,996.9848,5.785634397197892,996.9751202141928,1,2
20.4,-1.6226465,3.9339085,9.196409,996.9673,5.783905444019557,996.9749305398492,1,2
20.42,-1.785161,3.7480127999999997,9.139595,996.9723,5.782419806030916,996.9747534736557,1,2
20.44,-1.5557312,3.8814763999999995,9.698256,996.94745,5.7822417598383,996.9744987254622,1,2
20.46,-1.9381166,4.329532,8.647217,996.9547,5.781767884520455,996.9742023545468,1,2
20.48,-3.0326936,3.7146470000000003,7.6056490000000005,996.9748,5.779222668189802,996.9739426327292,1,2
20.5,-2.8510623,3.5525842000000005,9.579895,996.9572,5.778216252807416,996.9736528690538,1,2
20.52,-2.2010104999999998,3.9291417999999996,9.608302,996.9572,5.778580811843069,996.9733376035414,1,2
20.54,-2.0910754000000003,4.100738,9.6840515,996.9572,5.780386100303741,996.9730009395621,1,2
20.56,-1.6465551,4.110271,9.617769000000001,996.947,5.783178726527063,996.9726098598873,1,2
20.58,-1.0251818000000001,4.4868293,9.920772,996.9548300000001,5.78755768133804,996.9722002943907,1,2
20.6,-1.2020364,4.7013245,9.049641000000001,996.9671,5.791934521482222,996.9718200412588,1,2
20.62,-1.1494591,4.768056,8.997562,996.9519,5.796250010608647,996.9714123374423,1,2
20.64,-1.2068186,4.715624,7.993868400000001,997.0174599999999,5.798649500626088,996.9712178619355,1,2
20.66,-1.1064435,5.4496737,6.464656,997.0628,5.797618223305707,996.9713757190747,1,2
20.68,-0.6910104,5.7309103,8.831820500000003,996.9999,5.797765233390168,996.9716178890544,1,2
20.7,-0.5906523,5.2542553,9.272119,996.9046599999999,5.799208083279193,996.9715908220476,1,2
20.72,-1.4366955,5.092193,6.867039699999999,996.9422599999999,5.797623918189336,996.9714613146813,1,2
20.74,-0.46164197,5.7881107000000025,8.187936,996.9699,5.7962159006414256,996.9713412612393,1,2
20.76,-0.7627785,5.3686543,8.509875,996.9823,5.795078527878253,996.9712746334776,1,2
20.78,-0.915741,5.182758,8.448327,996.9546,5.7938993939320245,996.971155732507,1,2
20.8,-0.28004497,5.7309127,8.249479,996.9920699999999,5.792885233529798,996.9711259629722,1,2
20.82,-0.4186859000000001,5.4115543,8.774997,996.95734,5.792580261213717,996.9710500291444,1,2
20.84,-0.27530065,5.4639864000000005,8.514603,996.93695,5.792493064260026,996.9708601739096,1,2
20.86,0.021029397999999998,5.602217,8.557211,996.9472,5.792821454797332,996.9706072411976,1,2
20.88,0.035351098,5.50212,8.107441,996.9748,5.792622687490042,996.9703988437852,1,2
20.9,-0.026812986,5.421089,7.776030499999999,996.9671,5.791295799798324,996.970202827994,1,2
20.92,0.040086477999999995,5.235194,8.088499,997.0026,5.789300609523482,996.97014625826,1,2
20.94,-0.16068304,5.092198000000002,7.993810000000001,996.9799,5.786398550831208,996.9701313867132,1,2
20.96,-0.10812295,5.154163,7.5819154000000015,996.977,5.7820597551099375,996.9701429732228,0,0
20.98,0.04003322,5.320993,8.3536215,996.9848,5.777996533190045,996.9702059763583,0,0
21.0,0.0639056,5.5211887000000015,8.372557,996.9773,5.774451039128702,996.9702871844144,0,0
21.02,0.10213517,5.5974544999999996,8.495650999999999,996.9898,5.771677269162897,996.9704291859888,0,0
21.04,0.12123661,5.568855999999999,8.68976,996.9897,5.7699017086642685,996.9706240335105,0,0
21.06,0.15946616,5.568855999999999,8.917009,996.9673,5.7694147524330965,996.9707842342598,0,0
21.08,0.025605008,5.487825,8.093221,996.9696,5.768538607372958,996.9709215243988,0,0
21.1,-0.003091574,5.2828636,8.528785000000001,996.9773,5.76784963577155,996.9710657964772,0,0
21.12,-0.007889122,5.2161317,8.11689,996.9648,5.766530464750852,996.9711707184188,0,0
21.14,0.22630347,5.3543625,8.642407,996.982,5.76574151673069,996.9713024128604,0,0
21.16,0.2023956,5.354362999999998,8.486171,996.9873699999999,5.765147578109372,996.9714766213824,0,0
21.18,0.045657337,5.216108,8.614091,996.9773,5.764799121812353,996.9716515161953,0,0
21.2,-0.23154847,5.25424,7.780838,996.967,5.7632580166193925,996.9717893077938,0,0
21.22,-0.29845429999999995,5.311438,8.311091000000001,996.99963,5.761658531305021,996.972011286942,0,0
21.24,-0.3079797,5.106476,8.63777,996.962,5.760368976611162,996.9721713870848,0,0
21.26,-0.030739605,5.411535,8.538348,996.97675,5.7595030679024015,996.972329334577,0,0
21.28,0.12701671,5.5402317000000005,8.670914,996.9923,5.7593922091659255,996.9725407913768,0,0
21.3,-0.2075467,5.220871400000001,8.453132,996.9594,5.759215368777558,996.9726803277562,0,0
21.32,-0.26489294,5.2113385,8.036506,996.9719,5.7582416333633075,996.972800812921,0,0
21.34,-0.13580403,5.5116309999999995,8.2542925,996.9644,5.7572828338267374,996.9728770306862,0,0
21.36,-0.12144177,5.3209677000000015,8.079121,996.962,5.755817887508428,996.9729052193927,0,0
21.38,-0.011483416000000001,5.3305,8.315844,996.97925,5.75433279013802,996.9729529681443,0,0
21.4,0.08413549,5.564061,8.197485,996.97424,5.752897947507231,996.972999792256,0,0
21.42,0.0028902290000000002,5.5068617,8.079125999999999,996.9644,5.751241659893791,996.9730102067888,0,0
21.44,-0.11180225,5.359098,8.27324,996.97955,5.74956303245546,996.9730429523256,0,0
21.46,-0.2312631,5.3972297,8.131210000000001,996.9566,5.747671679241535,996.9730126916536,0,0
21.48,-0.35073537,5.4544277,8.074399,996.95917,5.7455746250724005,996.9729361196337,0,0
21.5,-0.34592134,5.468726,8.448421000000002,996.9795,5.743967447754509,996.9728920905659,0,0
21.52,-0.48452425,5.430594,8.10281,996.93646,5.742168045938017,996.972722030956,0,0
21.54,-0.49882936,5.368628,8.514706,996.9591,5.740853548331274,996.9725227269732,0,0
21.56,-0.6469919,5.26853,8.661474,996.934,5.740139237514678,996.9722079401567,0,0
21.58,-0.64695764,5.359093700000002,8.415287,996.9744,5.739623555278567,996.9719376859413,0,0
21.6,-0.7568703,5.2017964999999995,8.784574000000001,996.949,5.739782875912664,996.9716163136474,0,0
21.62,-0.7903175,5.0492669999999995,8.983419,996.9669,5.740742261610153,996.9713153703588,0,0
21.64,-0.67557937,5.096932,8.457903,996.9769,5.7414959977951785,996.971069561536,0,0
21.66,-0.6038709,5.1827292,7.856634,996.9666,5.741095491144256,996.9708362744386,0,0
21.68,-0.41359848,5.297149,8.083801,996.9792,5.740179876153554,996.9706602513713,0,0
21.7,-0.2893312,5.3972473,7.9749089999999985,996.9614,5.738729998791619,996.9704713804844,0,0
21.72,-0.40406929999999996,5.301916599999998,8.339457000000001,996.9742,5.737346282402101,996.9703179171986,0,0
21.74,-0.43753552,5.216119,8.405738000000001,996.96655,5.736050751209164,996.9701687525377,0,0
21.76,-0.41843915,5.2685512999999995,8.5383,996.9791,5.735127472304457,996.9700691031337,0,0
21.78,-0.4662524,5.201820400000001,8.486218,996.9716,5.734376128869085,996.9699865641493,0,0
21.8,-0.46148783,5.2685523000000005,8.386795,996.9717,5.733676608504747,996.9699198010718,0,0
21.82,-0.46627522,5.297151599999999,8.22109,996.96906,5.732767473798621,996.9698577139328,0,0
21.84,-0.51408845,5.1875215,8.377325,996.9766,5.7318340106258026,996.9698271259662,0,0
21.86,-0.6861841999999999,5.039758999999999,8.419931,996.9614,5.7308202821353085,996.9697697607857,0,0
21.88,-0.6431736,5.1017237,8.472010000000001,996.96655,5.7298919973268205,996.9697074817732,0,0
21.9,-0.48545533,5.2018223,8.443602,996.9792,5.72908161086807,996.9696866251036,0,0
21.92,-0.52371657,5.015927,8.708725999999999,996.97644,5.728657624942271,996.9696925082995,0,0
21.94,-0.47114635,5.0206940000000015,8.538287,996.97144,5.728270328362693,996.969703997662,0,0
21.96,-0.34210685,5.1112585,8.249487,996.9664,5.727489473398019,996.969702255271,0,0
21.98,-0.5333142,4.9730287,8.467267999999999,996.9613,5.726620398251582,996.9696704675754,0,0
22.0,-0.56200063,5.0016284,8.396252,996.9739400000001,5.725583198947277,996.9696577502842,0,0
22.02,-0.5428967,5.063594,8.282624,996.9816,5.724263490346685,996.9696895053846,0,0
22.04,-0.60983676,5.058828,8.58089,996.9362,5.723232558198048,996.969597001972,0,0
22.06,-0.59552014,5.177993,8.590357000000001,996.9463,5.722602177452935,996.9694313967494,0,0
22.08,-0.55250955,5.1875257,8.438854,996.9664,5.722064604614153,996.9692741549466,0,0
22.1,-0.35177296,5.3066900000000015,8.519338000000001,996.9688,5.721864360447178,996.9691335091318,0,0
22.12,-0.6337965999999999,5.1112614,8.60929,996.95636,5.721940407493628,996.9689632498568,0,0
22.14,-0.691177,5.0111647,8.557210000000001,996.9638699999999,5.722069746643497,996.968794473062,0,0
22.16,-0.8106874,4.958732,8.382035,996.9638699999999,5.721896657579966,996.9686276137833,0,0
22.18,-0.8959398000000001,4.868149,8.443653999999999,996.9789,5.721488007418528,996.9685171575146,0,0
22.2,-0.68082404,5.0635769999999996,8.391579,996.9739400000001,5.7209495267648975,996.9684390805887,0,0
22.22,-0.65691674,5.101709400000002,8.235344,996.9789400000001,5.7200597101590045,996.9684078951268,0,0
22.24,-0.5708638,5.0588098,8.4768,996.9664,5.7192331842279005,996.9683731112303,0,0
22.26,-0.4800393,5.1398410000000005,8.448395,996.9638699999999,5.718491836657482,996.9683261649787,0,0
22.28,-0.31272137,5.273304,8.557286999999999,996.9689,5.718152202220686,996.9682867490773,0,0
22.3,-0.4943375,5.1684394000000005,8.216412,996.9664,5.717468128155874,996.9682451288896,0,0
22.32,-0.5134484,5.211339,8.164335000000001,996.9638699999999,5.716440586059541,996.968192602828,0,0
22.34,-0.5038640999999999,5.154139,8.263759,996.9688,5.715223386291638,996.9681483774301,0,0
22.36,-0.43215883,5.197038,8.514683,996.9763,5.714326035755367,996.9681386457092,0,0
22.38,-0.6137749,5.0588074,8.713531,996.9815,5.7139420668408265,996.9681781476364,0,0
22.4,-0.6233097,5.1064725,8.296905,996.9359,5.71332323531896,996.9680968502076,0,0
22.42,-0.6041823000000001,5.1636705,8.211687,996.9515,5.712409180966632,996.9679652671389,0,0
22.44,-0.6089373,5.111238,8.765614,996.9714,5.712164847133414,996.9678613653776,0,0
22.46,-0.64238775,5.0063734,8.855568,996.98395,5.7125709407232845,996.967827476866,0,0
22.48,-0.41293240000000003,5.1636690000000005,8.429474,996.95874,5.712928675011836,996.9677648180603,0,0
22.5,-0.33166748,5.2208676,8.311114,996.9763,5.7130897366647275,996.9677401793947,0,0
22.52,-0.35077024,5.144603,8.481555,996.9836,5.713295865177134,996.9677755040241,0,0
22.54,-0.5084873,5.0302050000000005,8.438946000000001,996.94635,5.713357092717709,996.967729585052,0,0
22.56,-0.50369096,5.0778694,8.353728,996.9736300000001,5.713189025603539,996.9677102525419,0,0
22.58,-0.56582016,5.0349708,8.259041,996.9811,5.712611905821581,996.9677413734269,0,0
22.6,-0.5849064,5.030203299999998,8.481562,996.96106,5.712068341244067,996.9677448188963,0,0
22.62,-0.56099087,4.9968367,8.590454,996.9711,5.711713275432542,996.9677599419654,0,0
22.64,-0.49883693,5.073102,8.689878,996.9561,5.711777201134617,996.967731328918,0,0
22.66,-0.45103067,5.177965599999999,8.457892999999999,996.9738,5.711904733359373,996.9677278936454,0,0
22.68,-0.38027385,5.1207905,8.614042999999999,996.99365,5.712298205277215,996.9678181778212,0,0
22.7,-0.38027385,5.1207905,8.614042999999999,996.9711,5.712925245008968,996.9679097674788,0,0
22.72,-0.5045919,5.044526,8.576162,996.96106,5.713619538564447,996.9679660369374,0,0
22.74,-0.47592384,5.063593,8.47674,996.94855,5.714210453005506,996.967945858898,0,0
22.76,-0.4902956,5.125559,8.514611,996.9636,5.714842933407462,996.9679123844903,0,0
22.78,-0.46162754,5.120792400000001,8.595096,996.9633,5.71564529329434,996.9678662019196,0,0
22.8,-0.40906048,5.154158,8.54775,996.9558,5.716541407364431,996.9677819566733,0,0
22.82,-0.32782537,5.4353857,8.102715,996.97614,5.717044477168453,996.9677376065292,0,0
22.84,-0.5285986999999999,5.244724,8.599826,996.9711,5.717872651632423,996.9677105233587,0,0
22.86,-0.7006932,5.034996499999999,8.732388,996.95575,5.7190214661184475,996.9676435347853,0,0
22.88,-0.6290177,5.020697,8.618758999999999,996.9657599999999,5.720220847510589,996.9675775629562,0,0
22.9,-0.42351848,5.192293599999998,8.358364,996.97327,5.721158453776405,996.9675397630217,0,0
22.92,-0.40920067,5.282858999999998,8.055361,996.9836,5.721430919510236,996.9675641798525,0,0
22.94,-0.38532317,5.206595,8.666097,996.9736300000001,5.722102786570032,996.9676075915164,0,0
22.96,-0.37099457,5.1541624000000015,8.6045475,996.9806,5.722958380219496,996.9676927227338,0,0
22.98,-0.089007676,5.3495917,8.604546000000001,996.9680000000001,5.724171400862322,996.9677690508754,0,0
23.0,-0.13682732,5.177996599999998,8.339417,996.95575,5.725040752090311,996.967793225838,0,0
23.02,-0.09861039999999999,5.3543595999999996,7.98907,996.9681,5.725189207906617,996.9678156912222,0,0
23.04,-0.017375335,5.1064989999999995,8.637681,996.9630000000001,5.7255654986682725,996.9678182051473,0,0
23.06,-0.050866283,5.3066955,7.8943768,996.96045,5.725057000174121,996.9677939009127,0,0
23.08,-0.15126370000000006,5.3495946,8.0269375,996.9884,5.724049277665657,996.967846607648,0,0
23.1,-0.16562471,5.31623,8.552455,996.9633,5.723485404187247,996.9678768115317,0,0
23.12,-0.16562471,5.31623,8.552455,996.9808300000001,5.723315745656303,996.9679501311616,0,0
23.14,-0.18477623,5.282864599999999,8.566655,997.0032,5.723484308575107,996.9681418159146,0,0
23.16,-0.1895884,5.3734303,7.8328195,996.9633,5.722775482077628,996.9682937580252,0,0
23.18,-0.1895884,5.3734303,7.8328195,996.9655,5.721293946067318,996.9684179565448,0,0
23.2,-0.25175816,5.340065,8.310991,996.9533,5.7199273776602375,996.9684732737137,0,0
23.22,-0.4620803,5.1541690000000004,8.367803,996.9956,5.718577396611633,996.9686198081782,0,0
23.24,-0.45733290000000004,5.0874386,8.623458,996.97833,5.71762953780385,996.968784242722,0,0
23.26,-0.36654896,5.1684704,8.457751,996.9731400000001,5.716824214756034,996.9689452178109,0,0
23.28,-0.36177996,5.068373,8.585579,996.9656,5.7162679241761225,996.9690754126152,0,0
23.3,-0.26620540000000004,5.2971683,8.282575999999999,996.9809,5.715639981287164,996.9692330212594,0,0
23.32,-0.2184397,5.316236,8.263635,996.99084,5.714936804312266,996.9694500693803,0,0
23.34,-0.2566889,5.316236,8.381993,996.9856,5.7143788503683215,996.9696999928503,0,0
23.36,-0.15634538,5.192305999999999,8.642384,996.9628,5.714272065864023,996.9698959852543,0,0
23.38,-0.15157634,5.254272,8.268364,996.9779699999999,5.7139706031263175,996.9700982305956,0,0
23.4,-0.1229299,5.2733383,8.20208,996.9779699999999,5.713402642497532,996.9703052729487,0,0
23.42,-0.09904162,5.2590394,8.273094,996.9734,5.712709029432095,996.9704993565897,0,0
23.44,-0.18508887,5.0922103,8.590297999999999,996.9655,5.712289854174127,996.9706528512106,0,0
23.46,-0.103864565,5.1065106,8.206809,996.9981,5.711446426360459,996.9708872887936,0,0
23.48,-0.084766895,5.1351104,8.476668,996.9705,5.710739857690594,996.9710930436024,0,0
23.5,-0.08955746,5.1112779999999995,8.566621000000001,996.9605,5.710291555364701,996.9712367135942,0,0
23.52,-0.12304847,5.1351113,8.54768,996.9879,5.710065482082378,996.9714236482301,0,0
23.54,-0.13739866,5.125578400000001,8.476664,996.99316,5.709900340923706,996.9716670745407,0,0
23.56,0.20194586,5.2542763,8.391442,996.94244,5.709781264826367,996.9717769485608,0,0
23.58,-0.10262319,5.011149,8.651957000000001,996.9680000000001,5.7099032124560924,996.9718604362296,0,0
23.6,0.021660745,5.3162084,7.8613114,996.9906,5.709180199468999,996.9720016683636,0,0
23.62,-0.09782979,5.2256436,8.325284,996.96014,5.708419396045855,996.9720837590712,0,0
23.64,-0.24599469,5.07788,8.812928,996.9827,5.708343388488027,996.9721945128873,0,0
23.66,-0.093031846,5.292375,8.528865,996.9727,5.708589574321388,996.9722941947133,0,0
23.68,-0.26031592,5.1827440000000005,8.263739999999999,996.9450699999999,5.708537743570219,996.9722842664734,0,0
23.7,-0.45149451,5.073112999999998,8.363161999999999,996.9725300000001,5.708293450759246,996.9722763785214,0,0
23.72,-0.43715054,5.1446114000000005,8.358429,996.97015,5.707947647041219,996.9722617537643,0,0
23.74,-0.20770182,5.211343,8.429446,996.9776,5.707696137490075,996.9722680490156,0,0
23.76,-0.08820218,5.2923737,8.599886,996.9599599999999,5.707915055673822,996.9722293025231,0,0
23.78,-0.08820218,5.2923737,8.599886,996.9501,5.708548855698656,996.9721154006332,0,0
23.8,-0.18856448,5.2399416,7.927601299999999,996.9700300000001,5.708313262766616,996.9720072494812,0,0
23.82,-0.33194953,5.0540457000000005,8.268479,996.9547,5.707708876275189,996.9718493810248,0,0
23.84,-0.45143557,5.020679,8.306355,996.9751,5.70682204508297,996.9717215906853,0,0
23.86,-0.20287673,5.239941,8.273216,996.9776,5.705852642262761,996.9716298374144,0,0
23.88,-0.33670209999999995,5.1303095999999995,8.623562,996.9547,5.705322515004848,996.97148781681,0,0
23.9,-0.030781082999999997,5.3638699999999995,8.528875,996.9726,5.705256266627294,996.9713663312633,0,0
23.92,-0.16461109,5.2351737,8.599892,996.9801,5.7055876068254925,996.9712904278416,0,0
23.94,-0.21717529999999996,5.187507,8.457861,996.9825400000001,5.705967646529388,996.971263858038,0,0
23.96,-0.20760661,5.187507,8.528877,996.9851,5.706514862560784,996.9712901910707,0,0
23.98,-0.14546464,5.22564,8.419988,996.9549599999999,5.7070542150503325,996.9712546702503,0,0
24.0,-0.054643854000000006,5.316204,8.334767,996.9575,5.707533094285236,996.9711737672408,0,0
24.02,-0.25538197,5.1875067,8.330035,996.97504,5.7078124579673855,996.9711161997792,0,0
24.04,-0.20279512,5.011143700000001,8.675647999999999,996.9826,5.708339344383594,996.9711066748512,0,0
24.06,0.1365846,5.2351722999999994,8.391584,996.9700300000001,5.708814248803417,996.9710943825952,0,0
24.08,0.1365846,5.2351722999999994,8.391584,996.9801,5.709241512275323,996.9711159413803,0,0
24.1,0.11305021,5.1207657,8.221179,996.9372599999999,5.70919819746014,996.971013109334,0,0
24.12,0.18475868,5.316194,8.036538,996.9951,5.708638042317292,996.9710089597444,0,0
24.14,-0.0016194279999999998,5.273294,8.334808,996.9851,5.708091630244388,996.9710560209115,0,0
24.16,-0.1497819,5.273294,8.443700999999999,996.9501,5.7077532880226105,996.971022162484,0,0
24.18,-0.2883734000000001,5.2780595,8.221186999999999,996.9726,5.707221072393303,996.970997925392,0,0
24.2,-0.25489193,5.1922607,8.789317,996.9700300000001,5.707429208570403,996.9709730249664,0,0
24.22,-0.30266717,5.139828,8.273269,996.96,5.707320056928513,996.9709115200606,0,0
24.24,-0.26439446,5.220859,8.49579,996.9700300000001,5.707410437396378,996.9708540008536,0,0
24.26,-0.3121811,5.125528,8.434242999999999,996.9547,5.707467298547231,996.9707450224788,0,0
24.28,-0.25958043,5.101694599999999,8.75145,996.9576400000001,5.708032201999973,996.9706015511059,0,0
24.3,-0.2022,5.197025,8.410574,996.9726,5.708535850576673,996.9704819742174,0,0
24.32,-0.1591475,5.015895400000002,8.670971,996.96,5.709253199398455,996.9703385809712,0,0
24.34,-0.03962958,5.239923,8.363235000000001,996.9726,5.709846584812452,996.9702200198076,0,0
24.36,-0.001368299,5.139824,8.538411,996.965,5.710529509080508,996.9700964670917,0,0
24.38,-0.13997121,5.0063605,8.372708,996.96,5.710853132746492,996.9699509486304,0,0
24.4,0.0655832,5.244688,8.25435,996.9625,5.71090703923218,996.9697955451034,0,0
24.42,0.14685126,5.2208543,8.680447000000001,996.95734,5.711451461193247,996.969613390584,0,0
24.44,0.0034914020000000002,5.2685194000000015,8.225947999999999,996.9499,5.7116747264632854,996.9693814706446,0,0
24.46,-0.082510814,5.1588883,8.230685000000001,996.9672,5.711500499256207,996.969168692892,0,0
24.48,-0.09204760000000001,5.301883999999999,8.652049,996.9499,5.711876808412497,996.9689113151757,0,0
24.5,-0.010768101,5.2685175000000015,8.689927,996.9799,5.712768490570563,996.9687234554904,0,0
24.52,-0.21149705,4.8585935,9.049744,996.9673,5.714343860032349,996.9685523382327,0,0
24.54,0.03707558,5.325715,8.18335,996.95734,5.715457900234887,996.9683607746066,0,0
24.56,-0.15887354,5.173185,8.434275999999999,996.9700300000001,5.716434361699205,996.9681975181978,0,0
24.58,-0.26879759999999997,5.092153,8.533698,996.98755,5.717380272014874,996.9681229337697,0,0
24.6,-0.016089528999999998,5.201798999999999,8.699346,996.9722,5.718700697142119,996.9680717084067,0,0
24.62,-0.049551964000000004,5.2923636,8.420016,996.9473,5.719950941280258,996.9679516675264,0,0
24.64,-0.049551964000000004,5.2923636,8.420016,996.95215,5.721134672617524,996.9677887134012,0,0
24.66,-0.22162998,5.292364,8.121748,996.9499,5.721738213293659,996.9675803277679,0,0
24.68,-0.22162998,5.292364,8.121748,996.9726,5.721826924755187,996.9674142690424,0,0
24.7,-0.35546827,5.0778685,8.58572,996.95984,5.72205240748683,996.967240272184,0,0
24.72,-0.09736141,5.1350675,8.415280000000001,996.9572,5.7221433228543255,996.9670503835803,0,0
24.74,-0.10692355,5.1112347,7.9560429999999975,996.9499,5.7212799367461376,996.9668208566287,0,0
24.76,-0.18340167,5.1446010000000015,7.7524633000000005,996.9547,5.719262554881424,996.9665744115306,0,0
24.78,-0.0878094,5.430594,8.027059,996.9673,5.717034866804018,996.9663592647604,0,0
24.8,-0.11170973,5.406761599999999,8.315858,996.95734,5.715102718309832,996.9661366917212,0,0
24.82,-0.006556556,5.468726,8.779828,996.97015,5.714320104668244,996.9659544740937,0,0
24.84,-0.06391675,5.4067620000000005,8.64253,996.97504,5.714246175899923,996.9658261744908,0,0
24.86,0.0364566,5.5354589999999995,8.282716,996.9675,5.714315671716424,996.9657188347336,0,0
24.88,-0.22643644,5.3400300000000005,8.230637,996.9549599999999,5.714203132407568,996.9655852575194,0,0
24.9,-0.068705425,5.3686295,8.533638,996.965,5.714487930266827,996.9654651217658,0,0
24.92,-0.09260696,5.35433,8.292183,996.9572,5.714684023425381,996.9653292153756,0,0
24.94,-0.11172747599999999,5.3924623,8.145417,996.9698,5.714589508698476,996.9652252233136,0,0
24.96,-0.102170385,5.4067620000000005,8.330059,996.9575,5.7145755728395535,996.965105525124,0,0
24.98,-0.097394384,5.4067620000000005,8.254308,996.9523300000001,5.714500906942191,996.964953767913,0,0
25.0,-0.09739691,5.3352637000000005,8.642529,996.9501,5.714973982667952,996.964766201677,0,0
25.02,-0.068719365,5.3352637000000005,8.240105,996.9526,5.7152218718503045,996.9645566698247,0,0
25.04,-0.011364281,5.525926,8.055462,996.9649,5.715169858559487,996.9643727634686,0,0
25.06,-0.19299935,5.4019957000000005,7.733522,996.9802,5.7141603321890795,996.964267241864,0,0
25.08,-0.27903834,5.4067625999999995,8.050728,996.965,5.712862176076434,996.9641766409034,0,0
25.1,-0.34159538,5.4306054,8.083829,996.9802,5.711402509561885,996.9641542699871,0,0
25.12,-0.3702933,5.411539599999999,8.320547999999999,996.9725300000001,5.710195891477777,996.9641646556737,0,0
25.14,-0.28427583,5.4735055,8.268467999999999,996.9751,5.7091914810651305,996.9642131997059,0,0
25.16,-0.21737757,5.4115405,8.557264,996.9776,5.708799742073697,996.964304285694,0,0
25.18,-0.045333162,5.5164056,8.339478999999999,996.96014,5.708684421941937,996.9643697778444,0,0
25.2,-0.07402152599999999,5.525939,8.258992999999998,996.9700300000001,5.708685814367168,996.9644480235083,0,0
25.22,-0.05492132,5.4878073,8.20218,996.965,5.708647858683047,996.9645191484924,0,0
25.24,-0.23179308,5.3591104000000005,8.415225999999999,996.96765,5.708805127580353,996.9645932655935,0,0
25.26,-0.007161319,5.535474,8.263722999999999,996.9625,5.7090655719189725,996.964651219708,0,0
25.28,-0.016730458,5.478275,8.391552,996.9700300000001,5.7095723050399885,996.9647217915727,0,0
25.3,-0.11712535,5.4401426,8.301596,996.955,5.7100963861902585,996.9647491504228,0,0
25.32,-0.069346346,5.4496765,8.273188000000001,996.9599599999999,5.7105945112695995,996.964756083761,0,0
25.34,-0.069365375,5.397245,8.249514,996.9549599999999,5.7109669716492535,996.9647269441573,0,0
25.36,-0.15542084,5.3591127,8.22584,996.9675,5.711144573741543,996.9647111794045,0,0
25.38,-0.08852264,5.449678,8.306322,996.955,5.711390639775822,996.9646622894226,0,0
25.4,-0.112440675,5.4067793,8.3868065,996.9725300000001,5.711788434699629,996.9646474139928,0,0
25.42,-0.09334047,5.4210796,8.13588,996.96,5.711898561585572,996.964617539373,0,0
25.44,-0.050341255999999994,5.425846599999999,8.3726,996.9852,5.712170074055157,996.964665239017,0,0
25.46,-0.10771796,5.4163136,8.315785,996.9928,5.712474341550339,996.9648086715621,0,0
25.48,-0.16509463,5.368649,8.367861,996.9806,5.712845205661628,996.9649922573414,0,0
25.5,-0.2559394,5.363883,8.424671,996.9675,5.7133717034491305,996.965163501609,0,0
25.52,-0.31331605,5.3114514,8.576171,996.9853,5.714245835113722,996.9653873044383,0,0
25.54,-0.4089312,5.4115496,8.031711999999999,996.9977,5.714594124289775,996.9657013823224,0,0
25.56,-0.23687729,5.3877172,9.622471,996.93256,5.7172561390371275,996.9658595925644,0,0
25.58,-0.54214615,5.497332,6.6919330000000015,996.9477,5.717061723921362,996.965934012601,0,0
25.6,-0.06894177,5.573597,7.7098308000000015,996.99536,5.7160824514482265,996.9661057036999,0,0
25.62,-0.3605022,5.7499595,7.9039416,997.0105,5.714968306040696,996.9664172294217,0,0
25.64,0.65282387,6.3553120000000005,8.760869999999999,996.92035,5.7159465567230585,996.9665266515234,0,0
25.66,-0.96274227,5.3114357000000005,7.2695327,996.96277,5.715052997275431,996.9666098129468,0,0
25.68,-0.7141849,5.2494707,7.7098336,997.0028699999999,5.713132427858911,996.9668138310544,0,0
25.7,-0.13582097,5.392467,9.125421000000001,996.9831,5.7129008473539535,996.9670527316624,0,0
25.72,-0.15971237,5.411533,8.363182,996.9502,5.712836614531343,996.9672031544052,0,0
25.74,-0.17882396,5.320968,8.0223055,996.99817,5.712225466016616,996.9674475485853,0,0
25.76,0.10797186,5.516397,8.637779,996.9779699999999,5.7124247579411636,996.9677013761076,0,0
25.78,-0.19792798,5.3495674000000015,8.102791999999999,996.9755,5.712220995497698,996.9679537331523,0,0
