Timestamp,Ax,Ay,Az,P,Value,Type
0.0,0.36295158,6.827394,6.307728,996.9446,0,0
0.04,0.29601657,6.7654295,6.9468713000000015,997.025,0,0
0.08,0.037853897000000004,6.5890679999999975,7.131508,996.9772300000001,0,0
0.12,0.013937086000000001,6.579535000000001,7.0273495,996.9976,0,0
0.16,0.01869917,6.646267999999999,7.0368166,997.0202,0,0
0.2,0.036751747,6.670126400000001,7.169282400000001,997.0098,0,0
0.24,-0.015902147,6.603396400000001,7.4012613,996.9951,0,0
0.28,0.11307646,6.6129317,7.2024097000000005,997.0154,0,0
0.32,0.19903682,6.7034984,7.292356,997.0278300000001,0,0
0.36,0.09854683,6.641535799999999,7.1266418000000025,997.0079,0,0
0.4,0.098508775,6.746401,7.22606,997.03033,0,0
0.44,0.10799225,6.7988342999999976,7.5385237000000025,997.0507,0,0
0.48,-0.12155246,6.698739999999999,7.140824,997.0179,0,0
0.52,-0.17898619,6.684442,7.297052000000001,996.9978,0,0
0.56,-0.21248289999999997,6.593878299999999,7.3538613,996.9776,0,0
0.6,-0.040524065,6.746411,7.249694,996.9952,0,0
0.64,-0.083618395,6.655848,7.107655,996.9977,0,0
0.68,-0.040676266,6.636784,7.4485254,996.9852,0,0
0.72,0.030982762999999997,6.608186,7.4295839999999975,996.9575,0,0
0.76,0.11698116,6.655852,7.3206897,996.9904,0,0
0.8,0.21242507,6.651089,7.216518400000001,997.0004,0,0
0.84,0.16933073,6.7750216,6.9845257,996.9856599999999,0,0
0.88,0.13583405,6.6892247000000005,6.809349,997.0029,0,0
0.92,0.11660065,6.698761,7.524234,997.01575,0,0
0.96,0.16436069,6.7225943,7.3159160000000005,996.9981,0,0
1.0,0.35065883,6.8703600000000025,7.4958134,996.9981,0,0
1.04,0.4796755999999999,6.91326,7.225949000000001,997.0034,0,0
1.08,0.6038744,6.817931,6.9276743000000005,996.9779699999999,0,0
1.12,0.25005472,6.6368046000000005,6.8850546,997.0233,0,0
1.16,0.19882287,6.6939699999999975,6.856771000000001,996.98065,0,0
1.2,0.2657097,6.8179016,7.3444119999999975,996.9957,0,0
1.24,0.30871773,6.7368703,7.4533024,997.0386,0,0
1.28,0.34214592,6.6653724,7.4012213000000004,996.9957,0,0
1.32,0.533328,6.7225714000000005,7.0745463000000015,996.9831,0,0
1.36,0.73884934,6.770237,6.975123,996.99835,0,0
1.4,0.7340494000000001,6.593876,7.169232000000001,996.9607,0,0
1.44,0.36598414,6.0266557,7.041401,996.9555,0,0
1.48,0.2894768,6.207784999999999,6.814147,997.00366,0,0
1.52,0.25600803,6.3698487,6.7857394,996.9909,0,0
1.56,-0.0021216720000000002,6.450881,7.514836,997.0009,0,0
1.6,0.38502216,6.622477000000001,8.324417,997.0034,0,0
1.64,0.39456147,6.851272,8.201321,996.98834,0,0
1.68,0.16511054,6.741642,8.026145,997.0059,0,0
1.72,0.026475951,6.746409,8.286537,996.9758,0,0
1.76,0.10770221,6.4794827,7.969328999999999,996.98096,0,0
1.8,0.06466368,6.4508843,7.481683,996.9963,0,0
1.84,0.17458902,6.4365845,7.5479636,996.99615,0,0
1.88,0.6525491,6.7654770000000015,7.3917259999999985,996.9507,0,0
1.92,0.3466112,6.603414999999999,6.7857194000000005,996.9733,0,0
1.96,0.117160335,6.5938826,6.5679355,996.99603,0,0
2.0,-0.12185018,6.4127540000000005,6.5205894,996.9811,0,0
2.04,-0.09796127,6.3317227,6.8046527,997.01624,0,0
2.08,0.19357629,6.7511806,7.088714599999999,997.0013,0,0
2.12,0.06451149,6.7368809999999995,6.8283214999999995,997.0011599999999,0,0
2.16,0.026146725,6.574821000000001,7.4011726,996.9759,0,0
2.2,0.054813504000000006,6.5033236,7.1928577,997.0063,0,0
2.24,0.13126625,6.6749196,6.9987449999999995,997.0138,0,0
2.28,0.23161806,6.3936934,7.6899652000000005,996.9761,0,0
2.32,0.27461225,6.875116,7.694698,996.97614,0,0
2.36,0.21245064,7.1372776,7.017676,996.98096,0,0
2.4,0.37971973,6.8322186,7.576333,996.9812,0,0
2.44,0.18850343,6.546225499999999,7.23072,996.9735,0,0
2.48,0.14068131,6.674923,6.9466534,996.9737,0,0
2.52,0.14543702,6.779788000000001,7.07448,996.99115,0,0
2.56,-0.012308568,6.6463246,6.9797907000000015,996.9710699999999,0,0
2.6,-0.045791282999999995,6.5986595,7.2212429999999985,996.97614,0,0
2.64,0.021089822,6.517629,7.4816318,996.99396,0,0
2.68,-0.05061932,6.4985633,7.505303,996.99146,0,0
2.72,-0.007625133,6.741658,6.9466410000000005,996.97614,0,0
2.76,0.20265009,6.8560567,7.330124400000001,996.99396,0,0
2.8,-0.055483452999999995,6.57483,7.500561,996.9887,0,0
2.84,-0.11285314,6.531932,7.5431695,996.97614,0,0
2.88,-0.031620532,6.5795975,7.36326,996.9839,0,0
2.92,-0.045996115,6.6463304,7.5242257,996.9764,0,0
2.96,-0.07947886,6.6749300000000025,7.2354255000000025,996.9866300000001,0,0
3.0,-0.0125736445,6.755961999999999,7.2780333,996.9764,0,0
3.04,0.073426664,6.9227924,7.372719,996.9864,0,0
3.08,-0.07955114,6.698765,7.377451,996.9914,0,0
3.12,-0.09869446,6.5462356,6.9844933000000005,996.9864,0,0
3.16,-0.068958215,6.5176105,7.060340400000001,996.98413,0,0
3.2,-0.16932459,6.4175124000000014,6.946715400000001,996.99896,0,0
3.24,-0.016342357,6.808369,7.1171565,997.0092,0,0
3.28,-0.035442552999999995,6.846500999999999,7.363347,996.9435,0,0
3.32,-0.040203333,6.7178035000000005,7.519584700000001,996.9814,0,0
3.36,0.06975114,6.7607026,7.3112726,996.9916400000001,0,0
3.4,0.045871124000000006,6.7035029999999995,7.0414133,996.9813,0,0
3.44,0.0076422094999999985,6.6415377000000015,7.263930999999999,996.95605,0,0
3.48,0.0028908849,6.7416350000000005,7.017744500000001,996.99396,0,0
3.52,0.07459746,6.8083663,6.998808,997.0115400000001,0,0
3.56,0.0076992065,6.755934,7.1976542000000014,996.9813,0,0
3.6,-0.011400998,6.765466,7.420172999999999,996.9713,0,0
3.64,-0.17389534,6.627235400000001,7.1266419999999995,996.9966,0,0
3.68,-0.03526199,6.736866,7.3065515,996.9714,0,0
3.72,0.017344326,6.6606007,7.254475599999999,996.9789400000001,0,0
3.76,0.017344326,6.6606007,7.254475599999999,996.9839,0,0
3.8,0.060391112999999996,6.6939654000000015,6.9798822,996.98914,0,0
3.84,-0.07820424,6.593868,7.16926,996.9764,0,0
3.88,-0.03517648,6.636766400000001,7.041432,996.97406,0,0
3.92,0.11301647,6.7654630000000004,7.263951,996.96106,0,0
3.96,0.09391622,6.708264,7.533814,996.96155,0,0
4.0,0.12739389,6.732096,7.155063,996.9789,0,0
4.04,0.09873402,6.69873,7.202409299999999,996.96106,0,0
4.08,0.050955012,6.6796630000000015,7.282896000000001,996.9663,0,0
4.12,0.027093992,6.7177944000000025,7.211883,996.9635599999999,0,0
4.16,0.0032044798,6.5700307,7.2971034,996.9991,0,0
4.2,-0.06370327,6.5700307,7.306573399999999,996.9613,0,0
4.24,0.11316846,6.8846229999999995,7.0225100000000005,996.9889,0,0
4.28,-0.039756745,6.708259599999999,7.3207808000000005,996.97614,0,0
4.32,-0.13534331,6.651061,7.4391418000000025,996.9991,0,0
4.36,-0.04450804,6.631994199999999,7.301845,996.97614,0,0
4.4,-0.08272748,6.403199,7.4060039999999985,996.98914,0,0
4.44,0.14194234,6.746390299999999,7.5243660000000006,996.9914,0,0
4.48,0.19931896,6.9275193,7.1219434999999995,996.9814,0,0
4.52,0.10853122,6.717789999999999,7.2024307,996.99646,0,0
4.56,0.05119255,6.6033919999999995,7.2829175,996.9939,0,0
4.6,-0.0061460583999999995,6.5938587,7.1976995,996.9736300000001,0,0
4.64,0.027322068999999997,6.6176910000000015,7.169294,996.9862,0,0
4.68,-0.034786887,6.7177880000000005,7.008327499999999,996.9887,0,0
4.72,-0.029997557,6.6844220000000005,7.2261105,996.9661,0,0
4.76,0.23292015,6.860784,7.263988,996.96106,0,0
4.8,0.23293914,6.798817999999999,7.2119117,996.97864,0,0
4.84,0.14213239,6.751152499999999,7.197709599999999,996.9987,0,0
4.88,0.118242875,6.751152499999999,7.1693039999999995,996.9659,0,0
4.92,0.19951852,6.7273191999999975,7.079352,996.9635,0,0
4.96,0.094391346,6.6510534,7.036745,996.9685699999999,0,0
5.0,0.08319022,6.665393400000001,7.1170793,996.9559300000001,0,0
5.04,0.1261997,6.770258,7.1312820000000015,996.99854,0,0
5.08,0.22654928,6.7893247999999975,7.08867,996.99603,0,0
5.12,0.1643943,6.746426,7.3111854,997.0112,0,0
5.16,0.24086241,6.7940917,7.344325,996.99084,0,0
5.2,0.08309382,6.7654934,7.3916660000000025,996.9811,0,0
5.24,0.049617693,6.6510963000000025,6.9466304999999995,996.9861,0,0
5.28,0.083058804,6.736895,7.02238,996.9836,0,0
5.32,0.24556334,6.8941913,7.0697227,996.9635,0,0
5.36,0.40328813,7.018122,7.083925,996.9836,0,0
5.4,0.10213418,6.746428999999999,7.178611,996.9811,0,0
5.44,0.020860016000000002,6.6081996,7.3727202000000025,996.971,0,0
5.48,-0.07476235,6.674932000000001,7.3395767,996.96326,0,0
5.52,-0.07476235,6.674932000000001,7.3395767,996.99835,0,0
5.56,-0.022210777,6.6415668000000005,7.1691350000000025,996.98334,0,0
5.6,0.10683517,6.736897999999999,7.2496195000000005,996.98584,0,0
5.64,0.0016531795,6.727365499999999,6.8045835000000015,996.9836,0,0
5.68,0.14024122,6.689234,7.349036999999999,996.9861,0,0
5.72,0.14024122,6.689234,7.349036999999999,996.9861,0,0
5.76,0.03028819,6.7369,7.3490357,997.0108,0,0
5.8,-0.036655300000000016,6.689234700000001,7.320626700000001,996.98334,0,0
5.84,-0.122700535,6.6749353000000005,7.3300943,996.9554400000001,0,0
5.88,0.0875933,6.775033500000001,7.4910630000000005,996.97565,0,0
5.92,0.08756702,6.6606369999999995,7.3016844,996.95294,0,0
5.96,0.10667749,6.67017,7.259073700000001,996.9680000000001,0,0
6.0,0.14621495,6.7178035000000005,7.121894999999999,997.0057400000001,0,0
6.04,0.36295158,6.827394,6.307728,996.9446,0,0
6.08,0.29601657,6.7654295,6.9468713000000015,997.025,0,0
6.12,0.037853897000000004,6.5890679999999975,7.131508,996.9772300000001,0,0
6.16,0.013937086000000001,6.579535000000001,7.0273495,996.9976,0,0
6.2,0.01869917,6.646267999999999,7.0368166,997.0202,0,0
6.24,0.036751747,6.670126400000001,7.169282400000001,997.0098,0,0
6.28,-0.015902147,6.603396400000001,7.4012613,996.9951,0,0
6.32,0.11307646,6.6129317,7.2024097000000005,997.0154,0,0
6.36,0.19903682,6.7034984,7.292356,997.0278300000001,0,0
6.4,0.09854683,6.641535799999999,7.1266418000000025,997.0079,0,0
6.44,0.098508775,6.746401,7.22606,997.03033,0,0
6.48,0.10799225,6.7988342999999976,7.5385237000000025,997.0507,0,0
6.52,-0.12155246,6.698739999999999,7.140824,997.0179,0,0
6.56,-0.17898619,6.684442,7.297052000000001,996.9978,0,0
6.6,-0.21248289999999997,6.593878299999999,7.3538613,996.9776,0,0
6.64,-0.040524065,6.746411,7.249694,996.9952,0,0
6.68,-0.083618395,6.655848,7.107655,996.9977,0,0
6.72,-0.040676266,6.636784,7.4485254,996.9852,0,0
6.76,0.030982762999999997,6.608186,7.4295839999999975,996.9575,0,0
6.8,0.11698116,6.655852,7.3206897,996.9904,0,0
6.84,0.21242507,6.651089,7.216518400000001,997.0004,0,0
6.88,0.16933073,6.7750216,6.9845257,996.9856599999999,0,0
6.92,0.13583405,6.6892247000000005,6.809349,997.0029,0,0
6.96,0.11660065,6.698761,7.524234,997.01575,0,0
7.0,0.16436069,6.7225943,7.3159160000000005,996.9981,0,0
7.04,0.35065883,6.8703600000000025,7.4958134,996.9981,0,0
7.08,0.4796755999999999,6.91326,7.225949000000001,997.0034,0,0
7.12,0.6038744,6.817931,6.9276743000000005,996.9779699999999,0,0
7.16,0.25005472,6.6368046000000005,6.8850546,997.0233,0,0
7.2,0.19882287,6.6939699999999975,6.856771000000001,996.98065,0,0
7.24,0.2657097,6.8179016,7.3444119999999975,996.9957,0,0
7.28,0.30871773,6.7368703,7.4533024,997.0386,0,0
7.32,0.34214592,6.6653724,7.4012213000000004,996.9957,0,0
7.36,0.533328,6.7225714000000005,7.0745463000000015,996.9831,0,0
7.4,0.73884934,6.770237,6.975123,996.99835,0,0
7.44,0.7340494000000001,6.593876,7.169232000000001,996.9607,0,0
7.48,0.36598414,6.0266557,7.041401,996.9555,0,0
7.52,0.2894768,6.207784999999999,6.814147,997.00366,0,0
7.56,0.25600803,6.3698487,6.7857394,996.9909,0,0
7.6,-0.0021216720000000002,6.450881,7.514836,997.0009,0,0
7.64,0.38502216,6.622477000000001,8.324417,997.0034,0,0
7.68,0.39456147,6.851272,8.201321,996.98834,0,0
7.72,0.16511054,6.741642,8.026145,997.0059,0,0
7.76,0.026475951,6.746409,8.286537,996.9758,0,0
7.8,0.10770221,6.4794827,7.969328999999999,996.98096,0,0
7.84,0.06466368,6.4508843,7.481683,996.9963,0,0
7.88,0.17458902,6.4365845,7.5479636,996.99615,0,0
7.92,0.6525491,6.7654770000000015,7.3917259999999985,996.9507,0,0
7.96,0.3466112,6.603414999999999,6.7857194000000005,996.9733,0,0
8.0,0.117160335,6.5938826,6.5679355,996.99603,0,0
8.04,-0.12185018,6.4127540000000005,6.5205894,996.9811,0,0
8.08,-0.09796127,6.3317227,6.8046527,997.01624,0,0
8.12,0.19357629,6.7511806,7.088714599999999,997.0013,0,0
8.16,0.06451149,6.7368809999999995,6.8283214999999995,997.0011599999999,0,0
8.2,0.026146725,6.574821000000001,7.4011726,996.9759,0,0
8.24,0.054813504000000006,6.5033236,7.1928577,997.0063,0,0
8.28,0.13126625,6.6749196,6.9987449999999995,997.0138,0,0
8.32,0.23161806,6.3936934,7.6899652000000005,996.9761,0,0
8.36,0.27461225,6.875116,7.694698,996.97614,0,0
8.4,0.21245064,7.1372776,7.017676,996.98096,0,0
8.44,0.37971973,6.8322186,7.576333,996.9812,0,0
8.48,0.18850343,6.546225499999999,7.23072,996.9735,0,0
8.52,0.14068131,6.674923,6.9466534,996.9737,0,0
8.56,0.14543702,6.779788000000001,7.07448,996.99115,0,0
8.6,-0.012308568,6.6463246,6.9797907000000015,996.9710699999999,0,0
8.64,-0.045791282999999995,6.5986595,7.2212429999999985,996.97614,0,0
8.68,0.021089822,6.517629,7.4816318,996.99396,0,0
8.72,-0.05061932,6.4985633,7.505303,996.99146,0,0
8.76,-0.007625133,6.741658,6.9466410000000005,996.97614,0,0
8.8,0.20265009,6.8560567,7.330124400000001,996.99396,0,0
8.84,-0.055483452999999995,6.57483,7.500561,996.9887,0,0
8.88,-0.11285314,6.531932,7.5431695,996.97614,0,0
8.92,-0.031620532,6.5795975,7.36326,996.9839,0,0
8.96,-0.045996115,6.6463304,7.5242257,996.9764,0,0
9.0,-0.07947886,6.6749300000000025,7.2354255000000025,996.9866300000001,0,0
9.04,-0.0125736445,6.755961999999999,7.2780333,996.9764,0,0
9.08,0.073426664,6.9227924,7.372719,996.9864,0,0
9.12,-0.07955114,6.698765,7.377451,996.9914,0,0
9.16,-0.09869446,6.5462356,6.9844933000000005,996.9864,0,0
9.2,-0.068958215,6.5176105,7.060340400000001,996.98413,0,0
9.24,-0.16932459,6.4175124000000014,6.946715400000001,996.99896,0,0
9.28,-0.016342357,6.808369,7.1171565,997.0092,0,0
9.32,-0.035442552999999995,6.846500999999999,7.363347,996.9435,0,0
9.36,-0.040203333,6.7178035000000005,7.519584700000001,996.9814,0,0
9.4,0.06975114,6.7607026,7.3112726,996.9916400000001,0,0
9.44,0.045871124000000006,6.7035029999999995,7.0414133,996.9813,0,0
9.48,0.0076422094999999985,6.6415377000000015,7.263930999999999,996.95605,0,0
9.52,0.0028908849,6.7416350000000005,7.017744500000001,996.99396,0,0
9.56,0.07459746,6.8083663,6.998808,997.0115400000001,0,0
9.6,0.0076992065,6.755934,7.1976542000000014,996.9813,0,0
9.64,-0.011400998,6.765466,7.420172999999999,996.9713,0,0
9.68,-0.17389534,6.627235400000001,7.1266419999999995,996.9966,0,0
9.72,-0.03526199,6.736866,7.3065515,996.9714,0,0
9.76,0.017344326,6.6606007,7.254475599999999,996.9789400000001,0,0
9.8,0.017344326,6.6606007,7.254475599999999,996.9839,0,0
9.84,0.060391112999999996,6.6939654000000015,6.9798822,996.98914,0,0
9.88,-0.07820424,6.593868,7.16926,996.9764,0,0
9.92,-0.03517648,6.636766400000001,7.041432,996.97406,0,0
9.96,0.11301647,6.7654630000000004,7.263951,996.96106,0,0
10.0,0.09391622,6.708264,7.533814,996.96155,0,0
10.04,0.12739389,6.732096,7.155063,996.9789,0,0
10.08,0.09873402,6.69873,7.202409299999999,996.96106,0,0
10.12,0.050955012,6.6796630000000015,7.282896000000001,996.9663,0,0
10.16,0.027093992,6.7177944000000025,7.211883,996.9635599999999,0,0
10.2,0.0032044798,6.5700307,7.2971034,996.9991,0,0
10.24,-0.06370327,6.5700307,7.306573399999999,996.9613,0,0
10.28,0.11316846,6.8846229999999995,7.0225100000000005,996.9889,0,0
10.32,-0.039756745,6.708259599999999,7.3207808000000005,996.97614,0,0
10.36,-0.13534331,6.651061,7.4391418000000025,996.9991,0,0
10.4,-0.04450804,6.631994199999999,7.301845,996.97614,0,0
10.44,-0.08272748,6.403199,7.4060039999999985,996.98914,0,0
10.48,0.14194234,6.746390299999999,7.5243660000000006,996.9914,0,0
10.52,0.19931896,6.9275193,7.1219434999999995,996.9814,0,0
10.56,0.10853122,6.717789999999999,7.2024307,996.99646,0,0
10.6,0.05119255,6.6033919999999995,7.2829175,996.9939,0,0
10.64,-0.0061460583999999995,6.5938587,7.1976995,996.9736300000001,0,0
10.68,0.027322068999999997,6.6176910000000015,7.169294,996.9862,0,0
10.72,-0.034786887,6.7177880000000005,7.008327499999999,996.9887,0,0
10.76,-0.029997557,6.6844220000000005,7.2261105,996.9661,0,0
10.8,0.23292015,6.860784,7.263988,996.96106,0,0
10.84,0.23293914,6.798817999999999,7.2119117,996.97864,0,0
10.88,0.14213239,6.751152499999999,7.197709599999999,996.9987,0,0
10.92,0.118242875,6.751152499999999,7.1693039999999995,996.9659,0,0
10.96,0.19951852,6.7273191999999975,7.079352,996.9635,0,0
11.0,0.094391346,6.6510534,7.036745,996.9685699999999,0,0
11.04,0.08319022,6.665393400000001,7.1170793,996.9559300000001,0,0
11.08,0.1261997,6.770258,7.1312820000000015,996.99854,0,0
11.12,0.22654928,6.7893247999999975,7.08867,996.99603,0,0
11.16,0.1643943,6.746426,7.3111854,997.0112,0,0
11.2,0.24086241,6.7940917,7.344325,996.99084,0,0
11.24,0.08309382,6.7654934,7.3916660000000025,996.9811,0,0
11.28,0.049617693,6.6510963000000025,6.9466304999999995,996.9861,0,0
11.32,0.083058804,6.736895,7.02238,996.9836,0,0
11.36,0.24556334,6.8941913,7.0697227,996.9635,0,0
11.4,0.40328813,7.018122,7.083925,996.9836,0,0
11.44,0.10213418,6.746428999999999,7.178611,996.9811,0,0
11.48,0.020860016000000002,6.6081996,7.3727202000000025,996.971,0,0
11.52,-0.07476235,6.674932000000001,7.3395767,996.96326,0,0
11.56,-0.07476235,6.674932000000001,7.3395767,996.99835,0,0
11.6,-0.022210777,6.6415668000000005,7.1691350000000025,996.98334,0,0
11.64,0.10683517,6.736897999999999,7.2496195000000005,996.98584,0,0
11.68,0.0016531795,6.727365499999999,6.8045835000000015,996.9836,0,0
11.72,0.14024122,6.689234,7.349036999999999,996.9861,0,0
11.76,0.14024122,6.689234,7.349036999999999,996.9861,0,0
11.8,0.03028819,6.7369,7.3490357,997.0108,0,0
11.84,-0.036655300000000016,6.689234700000001,7.320626700000001,996.98334,0,0
11.88,-0.122700535,6.6749353000000005,7.3300943,996.9554400000001,0,0
11.92,0.0875933,6.775033500000001,7.4910630000000005,996.97565,0,0
11.96,0.08756702,6.6606369999999995,7.3016844,996.95294,0,0
12.0,0.10667749,6.67017,7.259073700000001,996.9680000000001,0,0
12.04,0.14621495,6.7178035000000005,7.121894999999999,997.0057400000001,0,0
12.08,0.1510119,6.760702,7.140834299999999,997.0033599999999,0,0
12.12,0.06500967,6.665369999999999,7.1076960000000025,996.9731,0,0
12.16,-0.040111787999999995,6.8750978000000025,7.320748,996.9981,0,0
12.2,-0.09265537,6.774999,7.344423,996.9705,0,0
12.24,-0.13085955,6.5605035,7.3917699999999975,996.9929,0,0
12.28,0.17987905,6.760698,7.079304,996.9831,0,0
12.32,0.2468134,6.7559309999999995,7.3207607,996.9904,0,0
12.36,0.22772844,6.679664999999999,7.102981,996.9726,0,0
12.4,0.08438569,6.627231,7.013032000000001,996.9755,0,0
12.44,-0.01595594,6.655829400000001,7.131395299999999,997.0029,0,0
12.48,0.113133,6.765460000000001,7.278164999999999,996.9653,0,0
12.52,0.18486429999999998,6.808358,7.2071520000000024,997.01025,0,0
12.56,0.079742834,6.7845244000000005,7.3397183,997.0281,0,0
12.6,0.074980155,6.7463913,7.424939,997.0305,0,0
12.64,-0.049260497,6.5986275999999995,7.169285,997.0032,0,0
12.68,0.008148490999999999,6.6987243,7.0319914999999975,996.9977,0,0
12.72,0.06552328,6.722556,6.9988523,997.0232,0,0
12.76,0.10379596,6.727322,7.4202175000000015,997.0028,0,0
12.8,0.036930054,6.6891880000000015,7.292393,996.9999,0,0
12.84,-0.010833725,6.770219,7.084082,997.0052,0,0
12.88,0.017862216,6.7988176,7.226116,996.9953,0,0
12.92,0.017913565,6.722551299999999,7.287667999999999,997.0504,0,0
12.96,-0.020290583,6.7177843999999975,7.1787800000000015,996.9622,0,0
13.0,-0.020273492,6.679651700000001,7.2119225999999985,997.0052,0,0
13.04,-0.16017053,6.598651400000001,7.3396339999999975,997.00494,0,0
13.08,0.0692423,6.7750144,7.098177400000001,996.9823,0,0
13.12,-0.09329763,6.7321157000000005,7.235473,997.0001,0,0
13.16,-0.035966627,6.74165,7.197595,996.98236,0,0
13.2,-0.040755294,6.7464166,7.282814,997.0047599999999,0,0
13.24,-0.04077308,6.755950500000001,7.031888499999999,997.00745,0,0
13.28,-0.002543494,6.7702503,6.9608717,996.9745,0,0
13.32,-0.13639579999999998,6.598654700000001,7.1881213000000015,997.03,0,0
13.36,-0.13163371,6.6224875,7.140776,996.98724,0,0
13.4,-0.09820172,6.7178197,7.178649000000001,997.0172,0,0
13.44,-0.107779115,6.7607183000000015,7.216522,997.0199,0,0
13.48,0.07861552,6.822685000000001,6.9561285999999996,996.9769,0,0
13.52,0.12640463,6.8608174,7.060284599999999,997.00714,0,0
13.56,0.054698706,6.784553,7.453239,997.0148300000001,0,0
13.6,-0.16041909,6.632024,7.2259850000000005,996.9895,0,0
13.64,-0.20345506,6.6892229999999975,7.282797,996.997,0,0
13.68,-0.12221619,6.489028,7.429561599999999,997.0098,0,0
13.72,-0.093555085,6.560527,7.1076202,997.0169,0,0
13.76,0.088068545,6.7797884999999996,6.8235550000000025,997.01965,0,0
13.8,0.15974785,6.894186500000001,7.21651,996.9894400000001,0,0
13.84,0.0019877106,6.7845554,7.1407566,996.97687,0,0
13.88,-0.15577243,6.6892257,7.259114,997.0145,0,0
13.92,-0.23704687,6.6558600000000006,7.3490663,997.0245,0,0
13.96,-0.2035971,6.565295,7.315924000000001,996.9942599999999,0,0
14.0,-0.11756952,6.536696,7.188094,997.0016,0,0
14.04,0.12633689,6.6653899999999995,7.3869524,997.0145,0,0
14.08,0.14545039999999998,6.6653905,7.3964205000000005,996.9792,0,0
14.12,0.25059468,6.81792,7.1881056,997.0092,0,0
14.16,0.030712306,6.751189,7.0602756,997.04175,0,0
14.2,-0.040996194,6.8179206999999975,7.2165103,997.03174,0,0
14.24,-0.08402583,6.703523599999999,7.192837,997.0093,0,0
14.28,-0.33737254,6.6606255,7.282789,997.02435,0,0
14.32,-0.2848004,6.7225904000000005,6.975052400000001,997.02167,0,0
14.36,-0.017142817,6.6749253,7.363272,997.0166,0,0
14.4,0.07844187,6.6844589999999995,7.500569299999999,997.0143400000001,0,0
14.44,-0.0076117516,6.6892257,7.0413303,997.0342,0,0
14.48,-0.10321924,6.574828599999999,7.2070336,997.00903,0,0
14.52,-0.069772005,6.627260700000001,7.405877,996.9989999999999,0,0
14.56,-0.045878699999999994,6.703525999999999,7.2165008,997.0041,0,0
14.6,-0.22274286,6.6224947,7.581049,997.0442,0,0
14.64,-0.15583704,6.560529700000001,7.5195007,997.00397,0,0
14.68,0.11182059,6.908489,6.7951355,997.0241,0,0
14.72,0.14048798,7.061019,6.8992910000000025,996.9736300000001,0,0
14.76,0.11657752,6.894190299999999,6.7809300000000015,997.00635,0,0
14.8,-0.04595291,6.736894,6.998711599999999,997.02155,0,0
14.84,-0.055523947000000004,6.755960000000001,7.2212270000000025,997.0012,0,0
14.88,-0.19892377,6.684462,7.543166,997.0088,0,0
14.92,-0.11768423,6.7273616999999994,7.1360054,997.0063,0,0
14.96,-0.17026775,6.5652985999999975,7.5763050000000005,997.01105,0,0
15.0,-0.18939266,6.5748320000000025,7.481616499999999,997.00854,0,0
15.04,-0.016492203,6.965669,6.989314,997.0163,0,0
15.08,-0.11684653,6.684442,7.3349275999999985,997.0311,0,0
15.12,0.050478965,6.7511735,7.268649000000001,997.00085,0,0
15.16,0.050478965,6.7511735,7.268649000000001,997.0034,0,0
15.2,0.040962458,6.6606073000000015,7.339668799999999,997.0211,0,0
15.24,0.040962458,6.6606073000000015,7.339668799999999,997.0007300000001,0,0
15.28,-0.049832232000000004,6.512843,7.235514,997.02356,0,0
15.32,-0.12150774,6.3889127,7.3633447,996.99585,0,0
15.36,0.23223008,6.7368703,7.240253,997.0136,0,0
15.4,0.20834185,6.808368700000001,7.202379,997.0086699999999,0,0
15.44,-0.0067277253,6.57004,7.44857,997.0109,0,0
15.48,-0.16443974,6.6415377000000015,7.4864473,997.01575,0,0
15.52,-0.24567483,6.5986385,7.2023850000000005,997.0283,0,0
15.56,-0.19307545,6.655836,7.5053887,997.0235,0,0
15.6,-0.42726427,6.6081705,7.2876080000000005,997.0335,0,0
15.64,-0.31251663,6.5319047,7.3491589999999976,997.0005,0,0
15.68,-0.31251663,6.5319047,7.3491589999999976,997.008,0,0
15.72,-0.35072273,6.5128374,7.3254895000000015,996.9954,0,0
15.76,-0.32203308,6.4842379999999995,7.065098299999999,997.0002,0,0
15.8,-0.41280627,6.5414357,7.1171803,997.003,0,0
15.84,-0.4462433,6.6796656,7.1645265,996.998,0,0
15.88,-0.25502962,6.7988285999999984,7.1408567,996.99554,0,0
15.92,-0.35538393,6.684431,7.339703599999999,996.9903,0,0
15.96,-0.2549865,6.565266,7.6332383,997.0129400000001,0,0
16.0,-0.18310922,6.5986275999999995,7.1740174,996.9827,0,0
16.04,-0.07314583,6.689192,7.155082000000001,997.0079300000001,0,0
16.08,-0.23563129,6.5652604000000006,7.145616499999999,997.02045,0,0
16.12,-0.19259906,6.603392599999999,7.1030083,997.0179,0,0
16.16,-0.0109386295,6.6796570000000015,7.150354400000001,997.0077,0,0
16.2,-0.020484269,6.8274193,7.174028,997.0204,0,0
16.24,-0.05868087,6.6653557,7.4486275,996.9851,0,0
16.28,-0.029974103,6.679655,7.382347599999999,997.02026,0,0
16.32,-0.010840952,6.7320867,7.3586774,996.9976,0,0
16.36,0.027439341000000003,6.7273191999999975,7.2592587,997.0075699999999,0,0
16.4,-0.0012115538,6.579555,7.088823,997.03265,0,0
16.44,-0.025096647000000003,6.627220599999999,7.226121400000001,997.0001,0,0
16.48,-0.12544462,6.550955,7.5338607,997.00006,0,0
16.52,-0.2114532,6.5032887000000015,7.462847,997.0174,0,0
16.56,-0.14928782,6.598619,7.4107714000000025,997.03796,0,0
16.6,0.013267353,6.727314999999999,7.2924147,997.0147,0,0
16.64,0.1327764,6.784513499999999,7.1361804000000015,996.99,0,0
16.68,0.18538217,6.798812,7.2734814,996.97473,0,0
16.72,0.022896722,6.6748815000000015,7.2166710000000025,996.9946,0,0
16.76,-0.039198868,6.5795483999999975,7.5291452,997.0199,0,0
16.8,-0.12042763,6.536649,7.4344597000000014,997.0148300000001,0,0
16.84,-0.34027070000000004,6.446084,7.2024764999999995,996.9998,0,0
16.88,-0.26854572,6.45085,7.3303080000000005,997.00726,0,0
16.92,-0.34500864,6.4031844000000016,7.3681839999999985,996.98956,0,0
16.96,-0.34020090000000003,6.4746814000000015,7.363453,997.00214,0,0
17.0,-0.23025149,6.598612299999999,7.472345,996.9820599999999,0,0
17.04,-0.101606116,6.7130194,7.2403216,996.9794300000001,0,0
17.08,-0.16372834,6.636753999999999,7.472309,997.02716,0,0
17.12,-0.15894344,6.5652555999999995,7.462841,996.9769,0,0
17.16,-0.09679586,6.627220599999999,7.3728880000000006,996.9895,0,0
17.2,-0.33577588,6.47469,7.3018727,996.98425,0,0
17.24,-0.23538482,6.679652000000001,7.320811999999999,996.9939999999999,0,0
17.28,-0.18280187,6.665352,7.1929836,997.02185,0,0
17.32,-0.14933310000000002,6.6081533,7.3823605,996.9942599999999,0,0
17.36,-0.40265256,6.474689,7.249798299999999,996.98413,0,0
17.4,-0.30704638,6.5318879999999995,7.330284,996.96906,0,0
17.44,-0.24490386,6.512821,7.401300999999999,996.9889999999999,0,0
17.48,-0.14451274,6.5747860000000005,7.6758976,996.97406,0,0
17.52,-0.082365155,6.584319,7.169317200000001,997.0067,0,0
17.56,-0.15405205,6.5128207,7.4912577,996.9916400000001,0,0
17.6,-0.2592026,6.398423,7.3965697,996.9992,0,0
17.64,0.08495845,6.9179773,7.297149,996.9739,0,0
17.68,-0.14924692,6.7463809999999995,7.316087,996.97156,0,0
17.72,-0.3882218,6.5128193,7.5386047000000005,996.9789999999999,0,0
17.76,-0.4025511,6.565251400000001,7.0793686000000005,996.9788,0,0
17.8,-0.42166525,6.5700183,7.316089,996.97614,0,0
17.84,-0.29737514,6.503286,7.6427646,996.9787,0,0
17.88,-0.07271422400000001,6.7273134999999975,7.505468,996.9941,0,0
17.92,-0.1348466,6.6319823000000016,7.2261380000000015,997.0038,0,0
17.96,-0.10615258,6.6033826,7.121983,996.9761,0,0
18.0,-0.15394549,6.646281699999999,7.1219835000000025,996.9987,0,0
18.04,-0.14424741,6.6558113,7.339778999999999,997.0113,0,0
18.08,-0.16812359,6.67011,7.335047,997.0038,0,0
18.12,-0.34974092,6.5461800000000006,7.126734700000001,996.9941,0,0
18.16,-0.20633158,6.603378,7.0699229999999975,996.9808300000001,0,0
18.2,-0.25412205,6.589078,7.112533,996.97833,0,0
18.24,-0.28277797,6.574778,7.325583,996.99365,0,0
18.28,-0.23975217,6.6510425,7.292443,996.9756,0,0
18.32,-0.22539753,6.665341400000001,7.642790299999999,996.98584,0,0
18.36,-0.26840052,6.7082405,7.2687740000000005,996.9758,0,0
18.4,-0.32096314,6.6653410000000015,7.282978999999999,996.9758,0,0
18.44,-0.26358265,6.5604762999999995,7.211964599999999,996.98334,0,0
18.48,-0.4547595999999999,6.4127126,7.718547,996.9956699999999,0,0
18.52,-0.5503405,6.6033744999999975,6.7811365000000015,997.0235,0,0
18.56,0.09972806,7.3135905,7.226172,996.9656,0,0
18.6,-0.3686851,6.7559036999999975,6.8379517000000005,996.9856599999999,0,0
18.64,-0.4977246,6.1314839999999995,7.870052999999999,996.9680000000001,0,0
18.68,-0.81795615,6.279247,7.614396000000001,997.00824,0,0
18.72,0.047203496,7.2325587,6.203545,996.99817,0,0
18.76,-0.21089074,6.7320695000000015,7.974214599999999,996.9856,0,0
18.8,-0.55502135,6.183915,7.0699440000000005,997.02576,0,0
18.84,-0.41161203,6.6033716,7.6522770000000016,997.0131,0,0
18.88,-0.31600833,6.5747724000000005,7.1551657,997.0361,0,0
18.92,0.009033531,6.9989953,6.6296479999999995,997.0282,0,0
18.96,-0.09610689,6.565238000000001,7.5954685,997.01575,0,0
19.0,-0.005275428299999999,6.7463665,7.2119827,997.0007300000001,0,0
19.04,-0.13915227,6.550939,7.055743,997.0106,0,0
19.08,-0.14870553,6.5557054999999975,7.1030884000000025,997.0056,1,1
19.12,-0.086555414,6.6510367,7.292464999999999,997.0133,1,1
19.16,-0.09131619,6.846464999999999,7.159903999999999,997.0208,1,1
19.2,0.07599598,6.703467999999999,7.600205,997.0154,1,1
19.24,0.076002315,6.627203,7.765910000000001,997.0155599999999,1,1
19.28,-0.10083772,6.512805,7.320877,996.9932,1,1
19.32,-0.02912166,6.5032716,7.1835814,997.0131,1,1
19.36,-0.0052163154,6.5557035999999975,7.0462837,997.0005,1,1
19.4,-0.029108963999999998,6.617667999999999,7.0746910000000005,997.008,1,1
19.44,0.06650613,6.722532000000001,7.0604897,997.02045,1,1
19.48,0.023494229,6.717766,7.131506,997.0282,1,1
19.52,-0.22503653,6.5509353,7.0983667,997.0079,1,1
19.56,-0.11030859,6.6605663,7.051024000000001,997.0001,1,1
19.6,0.0044193864,6.6557994,7.5386686,997.033,1,1
19.64,0.21952327,6.6319666,7.3587627000000015,997.0204,1,1
19.68,0.2577744,6.6557984,6.9942145,997.0052,1,1
19.72,0.25778073,6.6081330000000005,6.861652,996.9776,1,1
19.76,0.037922427,6.622432000000001,7.2404056,997.0202,1,1
19.8,0.042721257,6.9179580000000005,7.3682360000000005,996.9825400000001,1,1
19.84,-0.44958586,7.3564820000000015,6.9563445999999995,997.0053,1,1
19.88,-0.44958586,7.3564820000000015,6.9563445999999995,997.0479,1,1
19.92,-0.90365446,6.841692999999999,7.5528803,997.0079,1,1
19.96,-1.4198544,6.3936357,7.1693954,997.0179,1,1
20.0,-1.3385913,6.4603677,7.567086,996.96765,1,1
20.04,-1.1999583,7.1229186,7.069975,997.00775,1,1
20.08,-0.9514021,7.1991830000000006,7.4771347000000015,997.0079,1,1
20.12,-1.051759,6.369802,7.2546196,997.0154,1,1
20.16,-1.2285992000000001,6.1362404999999995,6.2651296,996.9777,1,1
20.2,-1.1712288,6.1886725,6.312475,997.0307,1,1
20.24,-1.0708467,6.1553062999999995,6.577602400000001,996.97504,1,1
20.28,-1.3719553,6.1982045,6.9610906,997.03296,1,1
20.32,-1.5201166000000002,6.3602669999999994,8.376679,997.0328400000001,1,1
20.36,-1.0516768,6.608128,9.262014,997.0429,1,1
20.4,-0.889157,6.52233,9.091577000000001,997.01526,1,1
20.44,0.0907218,7.0752497000000005,7.747007400000001,997.0028,1,1
20.48,0.6929834,6.469896299999999,9.290422999999999,997.0483,1,1
20.52,0.9080935,5.6023836,9.086846000000001,997.0053,1,1
20.56,0.9080935,5.6023836,9.086846000000001,996.9776,1,1
20.6,0.74559295,5.7310795999999975,7.5813065,997.0056,1,1
20.64,0.45882368,4.9541306,8.20625,997.04034,1,1
20.68,0.23895906,4.773001,8.518721000000001,997.0131,1,1
20.72,0.5353196,5.273489,6.9184933000000015,996.9902,1,1
20.76,0.14339463,5.559482,6.814338,997.01276,1,1
20.8,0.3584985,6.493727,6.842746000000001,997.0205699999999,1,1
20.84,0.42064232,6.565225,7.0652633,997.0429,1,1
20.88,-0.1577013,6.226799,7.704409,997.0353,1,1
20.92,0.004824713,6.331663,8.087897,997.0629,1,1
20.96,0.13389204,7.180110000000001,9.882237,997.03796,1,1
21.0,-0.22458056,7.995191,8.71284,996.9826,1,1
21.04,-0.9367904,7.575734599999999,7.879583999999999,997.0129,1,1
21.08,-1.4769026,6.870284,8.092633,997.068,1,1
21.12,-0.047723985999999996,4.8921623,11.141591,997.0554,1,1
21.16,-0.49224007,4.444106,11.326233,996.9575,1,1
21.2,-1.094484,5.1543225999999995,7.1694270000000015,996.9625,1,1
21.24,-1.333457,5.5594790000000005,6.4687366,997.0104,1,1
21.28,-1.3238918,5.2401204,6.0426407,997.0505400000001,1,1
21.32,-0.8936921999999998,5.3926497000000015,7.9222006999999985,997.0154,1,1
21.36,-0.6594760000000001,5.473681,7.230977999999999,997.0052,1,1
21.4,-0.93669325,5.583311,6.648648,997.0179,1,1
21.44,-0.6212148000000001,6.1028660000000015,6.2698965,997.0483,1,1
21.48,-0.42522568,6.3316607000000005,7.496108500000001,997.03314,1,1
21.52,-0.33917204,6.846448,6.6202455,997.0102,1,1
21.56,-0.18143278,6.965611999999999,7.216781,997.0378400000001,1,1
21.6,-0.26267803,6.5223217,9.958003,997.04315,1,1
21.64,-0.60681254,6.3650246,8.892762,997.03046,1,1
21.68,0.06715128,6.6128855,7.533989,997.0053,1,1
21.72,0.09584722,5.926501,7.429834,997.0231,1,1
21.76,0.09584722,5.926501,7.429834,996.9928,1,1
21.8,-0.15269114,5.8168697,7.2878027,996.9901,1,1
21.84,0.731584,5.673873,8.11159,997.0152,1,1
21.88,0.5882069999999999,5.478443599999999,6.5113626,997.008,1,1
21.92,0.11979766,5.554708,5.8911567000000025,996.9851,1,1
21.96,-0.22912233,5.569008,5.4650607,996.9903,1,1
22.0,0.009884983,6.5795174,6.852243,997.0229,1,1
22.04,-0.5254416000000001,6.4984856,10.194734,997.0936,1,1
22.08,-0.023550778999999997,7.4565635,8.831226,997.0129,1,1
22.12,-0.13347479999999998,7.2182355,9.886999000000001,997.03796,1,1
22.16,-0.89345795,6.9465413,9.830186999999999,997.0079,1,1
22.2,-1.2995025,7.041867,7.6287107,997.03046,1,1
22.24,-0.20969757,6.4269805,7.325710000000001,997.03296,1,1
22.28,-1.1990979,4.663354,11.3404875,996.9476,1,1
22.32,-2.4083688,4.6919527,7.0369152999999995,997.0278,1,1
22.36,-1.3711228000000002,5.6643300000000005,9.034836,996.9854,1,1
22.4,-0.5155092,5.459367299999999,7.420407000000001,997.0179400000001,1,1
22.44,-0.27649984,5.2782373,7.803895,996.9753,1,1
22.48,-0.21435282,5.154307,7.794427400000001,997.0129,1,1
22.52,0.38793130000000003,5.9169555,6.9090962,996.9827,1,1
22.56,0.58870214,6.2124809999999995,6.473533,996.9579,1,1
22.6,0.1728688,6.0790176,6.880692999999999,996.9932,1,1
22.64,-0.20949638,5.902654599999999,5.233121400000001,996.9830300000001,1,1
22.68,0.76083255,6.574738000000001,9.011178999999998,997.0808,1,1
22.72,0.21594448,6.369776,9.778153,997.0409,1,1
22.76,0.29244053,7.294488,8.443052999999999,997.0356400000001,1,1
22.8,0.9855408000000001,5.8740525,10.549866,997.033,1,1
22.84,0.9855408000000001,5.8740525,10.549866,996.9656,1,1
22.88,0.7322401,5.8597527000000005,7.3778175999999975,996.96014,1,1
22.92,0.48848915,5.869285,5.531401,996.9906599999999,1,1
22.96,0.7131590999999999,6.0265812999999975,7.032209,997.0534,1,1
23.0,0.84700316,6.088546,7.917544,996.9956699999999,1,1
23.04,-0.14716729999999995,6.1552773,6.2747082999999995,996.96014,1,1
23.08,-0.08979045,6.603333,6.5777116,997.0131,1,1
23.12,-0.15668853,6.3125725,7.283139999999999,996.97046,1,1
23.16,-0.11844055,6.5270677,7.160046,996.99786,1,1
23.2,-0.041944525999999996,7.2325177,7.396767999999999,996.99817,1,1
23.24,-0.1675658,7.2992820000000025,7.3256288,997.033,1,1
23.28,-0.5213226,6.7654295,8.528163000000001,997.0231,1,1
23.32,-0.4831013,7.0895557,8.41927,996.9928,1,1
23.36,-0.6169872,6.7797303,7.817996000000001,997.02545,1,1
23.4,-0.55486685,6.2744756,9.20991,996.99536,1,1
23.44,-1.4344021999999998,6.069515,6.776420599999999,996.9906,1,1
23.48,-1.0759338999999999,6.4079413,7.1551714,996.9928,1,1
23.52,-0.7127201999999999,5.187703599999999,8.040500999999999,996.9932,1,1
23.56,-0.70317775,5.049474,8.102046000000001,996.9978,1,1
23.6,-0.6888725,5.5118313,7.713822,997.01044,1,1
23.64,-0.56942874,5.440334,7.1930327000000025,996.9804,1,1
23.68,-0.56942874,5.440334,7.1930327000000025,997.0054,1,1
23.72,-0.0054632723,5.8883915,7.1409492,997.03046,1,1
23.76,-0.51217383,5.6452985,7.8605741999999985,997.0079,1,1
23.8,-0.30189675,6.6987085,7.216692,996.99536,1,1
23.84,-0.2828117,7.027601700000001,8.698557000000001,997.0635,1,1
23.88,-0.14421456,7.447058,9.517609,997.01526,1,1
23.92,0.0039422363,7.8569830000000005,9.385043,996.998,1,1
23.96,0.4627350000000001,6.5938478000000025,8.774299000000001,997.02795,1,1
24.0,-0.15867376,5.1495814000000015,8.992078,997.0003,1,1
24.04,-0.47417504,5.0828505,6.979953299999999,996.9677,1,1
24.08,0.23798151,5.959898,6.373946,996.9576400000001,1,1
24.12,0.29054220000000003,5.9837313,6.9136667,997.0079,1,1
24.16,-0.07753694,5.9313,7.2498064,996.9903,1,1
24.2,-0.16708963,6.326893,6.34565,997.0005,1,1
24.24,-0.17663148,6.5413879999999995,6.961125,996.9978,1,1
24.28,-0.0188891,6.6367188,6.909047599999999,996.9902,1,1
24.32,-0.24829306,6.2220273,7.567132000000001,997.0328,1,1
24.36,-0.004514143,6.3936230000000025,7.775446400000001,997.0028,1,1
24.4,0.05287011,6.9131775,7.2215240000000005,997.0202,1,1
24.44,0.20583276,6.8941107000000015,7.505588499999999,997.0284,1,1
24.48,-0.40596443,7.4470304999999986,8.622910000000001,997.00037,1,1
24.52,0.29668449999999996,7.790222999999999,5.9905824999999995,997.04034,1,1
24.56,-0.47760820000000004,6.012296,8.480884,997.0229,1,1
24.6,-0.47760820000000004,6.012296,8.480884,996.97504,1,1
24.64,-0.5779574000000001,6.1695914000000025,7.0037503,996.98773,1,1
24.68,-0.616187,6.112393,6.591858,996.9825400000001,1,1
24.72,0.22985603,6.117159,7.1221130000000015,997.0303,1,1
24.76,0.79389066,6.4079185,7.851213499999999,997.0177,1,1
24.8,0.20599256,5.707234400000001,7.4724619999999975,997.0104,1,1
24.84,0.45933104,6.0408926,7.7423244,997.0026,1,1
24.88,0.45456898,5.9741607000000005,6.6060686,997.0104,1,1
24.92,0.27296309999999996,6.3411846,6.823853999999999,996.9952,1,1
24.96,0.19173305,7.127666499999999,7.216811999999999,997.0126,1,1
25.0,-0.1571749,6.6843762,8.016928,997.0002,1,1
25.04,-0.14759754,6.913170299999999,7.8606944000000025,997.0073,1,1
25.08,-0.57776207,6.851204400000001,8.244183,997.0024400000001,1,1
25.12,0.62676626,6.6271759999999995,8.798109,997.0202,1,1
25.16,0.9852603999999999,6.355482,9.593491,997.0175,1,1
25.2,1.2098027,5.8978953,9.541402,996.97473,1,1
25.24,1.3293042,5.840696299999999,8.906993,996.9901,1,1
25.28,1.2958646,6.2172540000000005,6.3362120000000015,996.9625,1,1
25.32,1.0138689,6.3364177,6.326745,996.9926,1,1
25.36,0.5502406,6.1409883,6.9895625,996.99475,1,1
25.4,0.61238444,6.031357,7.5529575,997.055,1,1
25.44,-0.11891292,5.616667,8.13529,997.05786,1,1
25.48,-0.42958748,5.778729,7.6476479999999984,997.0123,1,1
25.52,-0.13800043,6.398381,8.201575,996.91437,1,1
25.56,-0.50603896,6.636709,6.6534247,996.9621,1,1
25.6,0.5072985,7.361225,7.5624323,996.9721,1,1
25.64,0.54076344,6.894102,8.447767,997.0148300000001,1,1
25.68,0.3926022,6.384081,7.642919,996.9898,1,1
25.72,0.44041932,6.6605406,7.212089999999999,997.0149,1,1
25.76,0.36872852,6.6605406,7.2499660000000015,997.0021,1,1
25.8,0.05806032,6.7415714000000015,6.4072432999999975,996.9945,1,1
25.84,0.029387847,6.3125805999999995,7.1032020000000005,997.02716,1,1
25.88,0.22059266,6.2744480000000005,7.72341,997.00684,1,1
25.92,0.26361722,6.5652075,7.3067827,996.97705,1,1
25.96,0.45482849999999997,6.8035355,6.582421000000001,996.98193,1,1
26.0,0.1776125,6.7892356,7.117408999999999,996.9870599999999,1,1
26.04,0.24932225,7.051396,7.249974000000001,997.0045,0,0
26.08,-0.5871244000000001,5.9789195,7.818104300000001,997.0096,0,0
26.12,-0.7448515,5.9455542999999995,7.605057,997.0046,0,0
26.16,0.3927607,7.1085935,7.661871400000001,997.0043300000001,0,0
26.2,0.3639627,7.0799970000000005,7.552969,997.01215,0,0
26.24,0.16799833,6.827369,6.9990444000000025,996.9996,0,0
26.28,-0.14745732,6.3840794999999995,7.2357655,996.9870599999999,0,0
26.32,-0.11877469,6.3411800000000005,7.2831100000000015,997.0222,0,0
26.36,-0.008827791,6.7129710000000005,6.8996243,997.01215,0,0
26.4,0.024634644,6.8273683000000025,6.923297,997.0143400000001,0,0
26.44,0.04376149,6.984665,6.9706415999999995,997.01184,0,0
26.48,-0.12352402,6.898866,7.0274553,997.0272,0,0
26.52,-0.14263947,7.0561630000000015,6.7860007,997.0169,0,0
26.56,0.25887167,7.0084963,7.164753999999999,997.0121,0,0
26.6,0.12504475,6.6367054,7.605054400000001,997.0071,0,0
26.64,0.16807441,6.870266,6.776534599999999,996.99457,0,0
26.68,0.1011648,6.6414714,7.2689133,997.0194,0,0
26.72,0.039034948,6.5985723,7.316258,996.9992699999999,0,0
26.76,0.15853767,6.67007,7.420415400000001,997.0194,0,0
26.8,0.015151143,6.508007,7.3683375999999985,996.9920699999999,0,0
26.84,0.16810866,6.5366063,7.193165,997.0723,0,0
26.88,0.30195079999999996,6.684369599999999,7.4440894,997.01215,0,0
26.92,0.29239879999999996,6.746334599999999,6.9564460000000015,997.01465,0,0
26.96,0.12511326,6.541373,7.060604,996.98956,0,0
27.0,-0.027829021000000002,6.3983754999999976,7.160027499999999,997.0069,0,0
27.04,-0.027829021000000002,6.3983754999999976,7.160027499999999,997.0094,0,0
27.08,-0.013478205,6.579503999999999,7.2925916,997.0369999999999,0,0
27.12,0.10124473,6.589036999999999,7.969612599999999,997.04205,0,0
27.16,0.07735328400000001,6.5985702999999996,7.6666107000000006,997.02185,0,0
27.2,0.02397047,6.665322,7.5339740000000015,997.0445,0,0
27.24,-0.04776463,6.6176566999999995,7.728080999999999,996.9993,0,0
27.28,8.0913305e-06,6.4126964000000015,7.609719,996.99695,0,0
27.32,0.08123939,6.4222293,7.3114490000000005,997.0094,0,0
27.36,0.11468531,6.4317627,7.4676833,997.0222,0,0
27.4,0.095528066,6.384099,7.472414,997.0219,0,0
27.44,0.2484564,6.569995,7.207285400000001,997.0143400000001,0,0
27.48,0.20542555,6.5032635,7.5150204,997.0244,0,0
27.52,0.10023184,6.3793334999999995,7.5244856,997.0345,0,0
27.56,0.20537485,6.441299,7.619173,997.0345,0,0
27.6,0.004584998,6.3555019999999995,7.477137,997.00684,0,0
27.64,-0.014546871000000001,6.126708,7.99792,997.01935,0,0
27.68,-0.071917176,6.0313764,8.130483,996.98676,0,0
27.72,-0.048043497000000004,6.1076417,7.3919130000000015,997.0242,0,0
27.76,0.42991155,6.67963,7.1835966,997.0319999999999,0,0
27.8,0.38208812,6.641497599999999,7.396642,997.0269,0,0
27.84,0.27212733,6.689164599999999,7.1599197,997.0091,0,0
27.88,0.11435573,6.5986009999999995,7.3540273,997.0268599999999,0,0
27.92,0.013954505,6.446071,7.524463000000001,997.04675,0,0
27.96,0.09996563,6.5461697999999995,7.3634914999999985,997.0545,0,0
28.0,-0.07213268,6.474672,7.5718026,997.0395,0,0
28.04,0.01387842,6.674867999999999,7.21672,997.03436,0,0
28.08,0.08078301,6.693934,7.292469500000001,997.0369,0,0
28.12,0.03295961,6.498506,7.4344993000000015,997.0214,0,0
28.16,0.03293425,6.4985065,7.387153,997.0139999999999,0,0
28.2,-0.11890438,6.5080123,7.3541145000000006,997.01404,0,0
28.24,-0.11890438,6.5080123,7.3541145000000006,997.02405,0,0
28.28,-0.15234270000000005,6.503245400000001,7.3635850000000005,996.9964,0,0
28.32,-0.12364358,6.5747433000000015,7.2120857,997.0415,0,0
28.36,0.07235882,6.584275999999999,7.6145130000000005,997.0388,0,0
28.4,-0.037556358,6.565208999999999,7.349388,997.05145,0,0
28.44,0.19667433,6.7034383,7.415672,997.0539,0,0
28.48,0.26839173,6.6271733999999975,7.893848399999999,997.0161,0,0
28.52,0.27796143,6.6748385,7.7944270000000015,997.0339,0,0
28.56,0.043771356,6.617639,6.9422355,997.0364,0,0
28.6,-0.07091345,6.484175,7.2925844,997.0260599999999,0,0
28.64,-0.09480232,6.4794083,7.41568,997.01355,0,0
28.68,0.03428282,6.693902499999999,7.160025,997.0186,0,0
28.72,0.0008343458000000001,6.6796026,7.2499795,997.0160000000001,0,0
28.76,-0.037373647,6.6081038,7.2547174,996.99097,0,0
28.8,0.034343734,6.7082005,7.4251575,997.04364,0,0
28.84,0.020014465,6.693900999999999,7.3920174,997.0512,0,0
28.88,-0.037322864,6.684367,7.160033,997.0336,0,0
28.92,-0.037312724,6.6939,7.1553,997.04846,0,0
28.96,-0.013393401999999999,6.5985684000000004,7.278396000000001,997.0232,0,0
29.0,-0.08984995,6.546136,7.3352113,997.0408,0,0
29.04,-0.018132597,6.593800999999999,7.2878690000000015,997.04364,0,0
29.08,0.09660300599999999,6.698664999999999,7.2641982999999986,997.0409,0,0
29.12,-0.013302043000000001,6.5461339999999995,7.302076299999999,997.01575,0,0
29.16,0.10143353,6.670064,7.2831410000000005,997.01544,0,0
29.2,0.06320527,6.703429700000001,7.2215943,997.0433,0,0
29.24,0.025241852000000002,6.712956,7.316308,997.03076,0,0
29.28,0.025241852000000002,6.712956,7.316308,997.0433300000001,0,0
29.32,0.08262865,6.646224,7.4820147,997.0305,0,0
29.36,0.020520373999999997,6.593791,7.0606556,997.0634,0,0
29.4,0.15441318,6.674821400000001,7.2500367,997.05334,0,0
29.44,0.27871728,6.68912,7.3731339999999985,997.0509,0,0
29.48,0.27871728,6.68912,7.3731339999999985,997.04565,0,0
29.52,0.17837055,6.527056,7.1932297000000025,997.0581,0,0
29.56,0.22619773,6.6557520000000014,6.866558,997.0458,0,0
29.6,0.03025496,6.4746227,7.0275307,997.03534,0,0
29.64,0.14021961,6.636685000000001,7.302128999999999,997.0429,0,0
29.68,0.14024879,6.6605167000000005,7.567258,997.0278300000001,0,0
29.72,0.29801148,6.736781,7.3731503,997.02527,0,0
29.76,0.29804063,6.703415,7.4252315000000015,997.0429,0,0
29.8,0.269391,6.6795807,7.3542175,997.0455300000001,0,0
29.84,0.063888595,6.5032177,7.0654216,997.0328,0,0
29.88,0.14517443,6.579481599999999,7.008611999999999,997.04535,0,0
29.92,0.035268113,6.4603167,7.5151954,997.0428,0,0
29.96,0.09743473,6.617613,7.3542285000000005,997.0428,0,0
30.0,0.08790429,6.603312,7.387372,997.0504,0,0
30.04,0.19788353,6.622378,7.5862206999999975,997.0829,0,0
30.08,0.12143583599999999,6.5604119999999995,7.3021593,997.0478,0,0
30.12,0.21704651,6.6033100000000005,7.250082499999999,997.0352,0,0
30.16,0.2361949,6.550877,7.368444999999999,997.0277,0,0
30.2,0.09760973,6.560410000000001,7.041774,997.0448,0,0
30.24,0.11197831,6.5985413,7.373185,997.0600599999999,0,0
30.28,0.09766807,6.5461087,7.6335797,997.0704,0,0
30.32,0.11205123,6.5413413,7.482083,997.05005,0,0
30.36,0.049928367,6.5032086,7.4158025,997.0325300000001,0,0
30.4,0.06428237,6.536574,7.340053599999999,997.0450400000001,0,0
30.44,0.049986735,6.37451,7.259572500000001,997.0549,0,0
30.48,0.09260702,6.412652,7.4063025,997.0299699999999,0,0
30.52,0.26948340000000004,6.6176133,7.794525599999999,997.0423,0,0
30.56,0.26948340000000004,6.6176133,7.794525599999999,997.0551,0,0
30.6,0.15479167,6.541348,7.368431599999999,997.0676,0,0
30.64,0.12612079,6.5318146,7.732981,997.0397300000001,0,0
30.68,0.116576895,6.4984484,7.4631224000000005,997.04486,0,0
30.72,0.18830545,6.5508795,7.292686,997.05475,0,0
30.76,0.18830545,6.5508795,7.292686,997.0475,0,0
30.8,0.17398967,6.6128445000000005,7.0985774999999975,997.0424,0,0
30.84,0.15009855,6.6033106,7.444189999999999,997.04443,0,0
30.88,0.05929798,6.450781,7.5483484,997.0266,0,0
30.92,0.059321642,6.4317136,7.5767565,997.057,0,0
30.96,0.21229108,6.4650793,7.3921164999999975,997.0495,0,0
31.0,0.17884822,6.5365777000000005,7.003897,997.0341,0,0
31.04,0.19798316,6.5651765,7.335307000000001,997.0567599999999,0,0
31.08,0.19798316,6.5651765,7.335307000000001,997.0468,0,0
31.12,0.20756643,6.627141,7.538888,997.0642,0,0
31.16,0.23626097,6.612841,7.2690287,997.0617,0,0
31.2,0.26018363,6.6223740000000015,7.382656599999999,997.07416,0,0
31.24,0.26018363,6.6223740000000015,7.382656599999999,997.0592,0,0
31.28,0.15504368,6.579474,7.2311573000000005,997.072,0,0
31.32,0.15027966,6.503209,7.477347999999999,997.0391,0,0
31.36,0.25545895,6.5937734,7.226425999999999,997.057,0,0
31.4,0.21246438,6.5842395000000025,7.155411999999999,997.0595,0,0
31.44,0.21246438,6.5842395000000025,7.155411999999999,997.0667,0,0
31.48,0.21269359,6.536568,7.482107000000001,997.0818,0,0
31.52,0.1840268,6.5318010000000015,7.463171000000001,997.05164,0,0
31.56,0.21274179999999995,6.5318003,7.377954499999999,997.0967400000001,0,0
31.6,0.1984144,6.5460997,7.4442369999999976,997.0514,0,0
31.64,0.14586066,6.5032,7.321145,997.0617,0,0
31.68,0.27974337,6.5174985,7.3306179999999985,997.0686599999999,0,0
31.72,0.3132261,6.588996400000001,7.467918400000001,997.0363,0,0
31.76,0.23677329999999996,6.5794619999999995,7.363764,997.05115,0,0
31.8,0.23677329999999996,6.5794619999999995,7.363764,997.0487,0,0
31.84,0.26548833,6.5651617,7.3827043,997.0638,0,0
31.88,0.2224821,6.527029,7.4631906,997.0234,0,0
31.92,0.20817883,6.4936624000000025,7.3400993,997.0335699999999,0,0
31.96,0.21297069,6.4936624000000025,7.235944,997.05115,0,0
32.0,0.2655726,6.5603933,7.444259,997.0459599999999,0,0
32.04,0.29427552,6.531793599999999,7.344839,997.0310699999999,0,0
32.08,0.21305503,6.50796,7.2643576,997.0636599999999,0,0
32.12,0.117483065,6.4698267,7.6573157000000025,997.0636599999999,0,0
32.16,0.026690885,6.4269276,7.160205,997.0434,0,0
32.2,0.14619802,6.4888926,7.1554723,997.0685,0,0
32.24,0.22271101,6.5937557,7.354319999999999,997.0534,0,0
32.28,0.19405629,6.5031905,7.4868855,997.0384,0,0
32.32,0.17494915,6.4745903,7.3827300000000005,997.0735,0,0
32.36,0.17497320000000002,6.503189599999999,7.567373799999999,997.05853,0,0
32.4,0.04116282,6.450757,7.1980925000000004,997.0585,0,0
32.44,0.11287190000000001,6.5031886,7.4537516,997.0433300000001,0,0
32.48,0.11290808,6.5699195999999995,7.354332,997.0681,0,0
32.52,0.16525103,6.522259,7.633641000000001,997.05304,0,0
32.56,-0.006800994300000001,6.4173946,7.396922,997.0455300000001,0,0
32.6,-0.064151645,6.32683,7.4111259999999985,997.0505400000001,0,0
32.64,0.021891802999999998,6.4269276,7.4063919999999985,997.0455300000001,0,0
32.68,0.08405718,6.5460910000000005,7.202816,997.0455300000001,0,0
32.72,0.031493247,6.550857,7.472678,997.05286,0,0
32.76,-0.02107066,6.3840275,7.5389605,997.0681,0,0
32.8,-0.025843448999999998,6.360194,7.4206014000000025,997.0579,0,0
32.84,0.060213922999999996,6.403093,7.548432400000001,997.0581,0,0
32.88,0.055448115,6.5031905,7.273838499999999,997.03534,0,0
32.92,0.14149149,6.574688,7.3495893,997.0704,0,0
32.96,0.15585189,6.493656,7.7046714000000005,997.0526,0,0
33.0,0.15585886,6.479357,7.5579057,997.0503,0,0
33.04,0.15587279999999998,6.5079556,7.21703,997.0426,0,0
33.08,0.14154734,6.4364567,7.4916267,997.0577,0,0
33.12,0.11287551,6.422157,7.562643,997.0374,0,0
33.16,0.22283189,6.4936547,7.1933618,997.0350300000001,0,0
33.2,0.21327929,6.426923,7.4632229999999975,997.0350300000001,0,0
33.24,0.21808003,6.522253,7.486897,997.0575,0,0
33.28,0.17984857,6.4650545,7.7378216,997.0601,0,0
33.32,0.12729166,6.507953,7.482165299999999,997.0473,0,0
33.36,0.23246126,6.6271167,7.425354,997.08484,0,0
33.4,0.1751106,6.5365519999999995,7.633668400000001,997.03705,0,0
33.44,0.060409248,6.369722,7.614732000000001,997.0523699999999,0,0
33.48,0.10822125,6.4412203,7.231246499999999,997.04706,0,0
33.52,0.11333738,6.4030795,7.2170744000000004,997.05206,0,0
33.56,0.15161578,6.4984093000000005,7.425391,997.06213,0,0
33.6,0.11339067,6.4650435,7.6715817,997.0545699999999,0,0
33.64,0.07517886,6.5079417,7.335441,997.052,0,0
33.68,0.075205475,6.479342,7.6668515,997.0219,0,0
33.72,0.09913114,6.4888744,7.269164999999999,997.0419300000001,0,0
33.76,0.060932665999999996,6.4126080000000005,7.340184,997.0545,0,0
33.8,0.15655537,6.4984055,7.4869533,997.0445,0,0
33.84,0.15655537,6.4984055,7.4869533,997.0671,0,0
33.88,0.041893348,6.4126067,7.4112077,997.07965,0,0
33.92,0.018007621,6.4555050000000005,7.2313012999999975,997.0721,0,0
33.96,-0.0058647543,6.4269050000000005,7.6384630000000024,997.0368699999999,0,0
34.0,0.12800972,6.636632400000001,7.4064803,997.04425,0,0
34.04,0.12325655,6.4698024000000025,7.6242657000000005,997.04895,0,0
34.08,0.07069203,6.441203,7.5153756,997.0468,0,0
34.12,0.07069203,6.441203,7.5153756,997.02655,0,0
34.16,0.01338762,6.4459677000000015,7.307067,997.04395,0,0
34.2,0.15680839,6.5412989999999995,7.5674615,997.08417,0,0
34.24,0.08035816,6.4936323,7.2833996,997.0389,0,0
34.28,0.0899311,6.503165,7.250260000000001,997.04895,0,0
34.32,-0.06298269,6.3601675,7.501187,997.0816699999999,0,0
34.36,0.0039612054999999995,6.431665,7.510658,997.0337,0,0
34.4,-0.015131384,6.4316645,7.5059266000000004,997.0838,0,0
34.44,0.12349625,6.550828,7.56274,997.0412,0,0
34.48,0.007908195,6.3983197,7.515316499999999,997.05145,0,0
34.52,0.041356698,6.39832,7.264392,997.05145,0,0
34.56,0.041356698,6.39832,7.264392,997.0461,0,0
34.6,0.113038525,6.3601875,7.4821734,997.05145,0,0
34.64,0.12736274,6.479352,7.212311,997.05853,0,0
34.68,0.04131615,6.345889,7.714156599999999,997.0584,0,0
34.72,0.017406955,6.3220563,7.505841999999999,997.06616,0,0
34.76,0.08909893,6.3840218,7.3543406000000004,997.05347,0,0
34.8,0.09386858,6.360189,7.643138,997.04584,0,0
34.84,0.09863317,6.417388,7.434823,997.0258,0,0
34.88,0.09863317,6.417388,7.434823,997.0408,0,0
34.92,0.050814852,6.37449,7.3780084000000015,997.0382699999999,0,0
34.96,0.036470382999999995,6.3315907,7.628931,997.04584,0,0
35.0,0.07469864,6.312525,7.543711,997.04065,0,0
35.04,0.017325774,6.2743926,7.5815850000000005,997.02795,0,0
35.08,0.0077611059999999985,6.3363580000000015,7.4253490000000015,997.0479,0,0
35.12,0.17026429,6.4173894,7.5721149999999975,997.05804,0,0
35.16,0.050759047,6.29346,7.7330831999999985,997.05066,0,0
35.2,0.07464792,6.3792577,7.6573324000000005,997.0554,0,0
35.24,0.03639424,6.3172927,7.8751130000000025,997.0631,0,0
35.28,0.036389187,6.3697248,7.6478615,997.0452,0,0
35.32,-0.13569894,6.1790633,7.695203999999999,997.0426,0,0
35.36,-0.0018745959,6.2553287000000015,7.4206076,997.0552,0,0
35.4,-0.0018745959,6.2553287000000015,7.4206076,997.0351,0,0
35.44,0.117605284,6.2743945,7.695201400000001,997.0479,0,0
35.48,0.13281201,6.3125057,7.4680300000000015,997.0275,0,0
35.52,0.14238434,6.345872,7.307061,997.07275,0,0
35.56,0.099391446,6.283906,7.8231134,997.0451,0,0
35.6,-0.07743593,6.1504416,7.879929,997.0523699999999,0,0
35.64,-0.0057135075,6.264838,7.5674604999999975,997.0473599999999,0,0
35.68,-0.05825328,6.183806,7.572198399999999,997.0374,0,0
35.72,-0.010429889,6.198105,7.600607000000001,997.04486,0,0
35.76,-0.005637422,6.2267036,7.581670799999999,997.0397,0,0
35.8,0.08042444,6.202871,7.690564,997.0649400000001,0,0
35.84,-0.12028928,6.2791343,7.6668954,997.02716,0,0
35.88,-0.058126442,6.3125,7.2408012999999976,997.05975,0,0
35.92,-0.18715578,6.1599693,7.766323,997.05475,0,0
35.96,-0.18715578,6.1599693,7.766323,997.06995,0,0
36.0,-0.053283274000000005,6.198100599999999,7.913092599999999,997.07745,0,0
36.04,-0.029358841,6.221933,7.8184070000000006,997.05975,0,0
36.08,-0.0580123,6.202866,7.681111299999999,997.04474,0,0
36.12,-0.053194463,6.2695975,7.439661,997.0748,0,0
36.16,-0.043609507,6.2838959999999995,7.5864296,997.06976,0,0
36.2,-0.11528122,6.2743626,7.8373547000000015,997.0369,0,0
36.24,-0.10569621,6.245763,7.894170299999999,997.0573,0,0
36.28,-0.08178453,6.3077273,7.7284675000000025,997.052,0,0
36.32,-0.10087837,6.3124933,7.3118424,997.0573,0,0
36.36,-0.15343082,6.2457614,7.719003,997.0671,0,0
36.4,-0.0052315295,6.3172584,7.5248947,997.0545,0,0
36.44,0.11430158,6.3887563,7.6906023,997.04175,0,0
36.48,0.061736465,6.3744559999999995,7.586447200000001,997.0442,0,0
36.52,-0.02428729,6.3363233,7.4917603,997.0518,0,0
36.56,-0.038601384,6.2457585,7.5106997,997.0493,0,0
36.6,0.023574159,6.412587,7.359202400000001,997.07935,0,0
36.64,-0.062436976,6.3220215,7.5485805999999975,997.04663,0,0
36.68,-0.0719712,6.336320400000001,7.7237563,997.0641,0,0
36.72,-0.03848721,6.369685,7.4349593999999986,997.05444,0,0
36.76,0.014115988999999999,6.4268837,7.482305999999999,997.0617699999999,0,0
36.8,-0.00021071732000000004,6.3887515,7.6669490000000025,997.06433,0,0
36.84,0.023713663,6.41735,7.3213399999999975,997.0641,0,0
36.88,0.004619822,6.4268823,7.581734700000001,997.06396,0,0
36.92,-0.057479575,6.34585,7.543863000000001,997.079,0,0
36.96,0.0046832412,6.374448999999999,7.690632000000001,997.0637,0,0
37.0,0.01426819,6.341082,7.264538000000001,997.0687,0,0
37.04,-5.850196e-05,6.3363156,7.501259299999999,997.0636599999999,0,0
37.08,-0.095641926,6.269583,7.5201974,997.0463,0,0
37.12,-0.033466414,6.3267809999999995,7.5486073000000005,997.02094,0,0
37.16,0.08127423,6.3839793,7.671705,997.05615,0,0
37.2,0.11475824,6.42211,7.7190509999999986,997.0687,0,0
37.24,0.13390286,6.393511,7.8374133000000015,997.05615,0,0
37.28,0.09568973,6.383977400000001,7.3308344,997.0459599999999,0,0
37.32,0.12440662,6.264812,7.903701,997.0358,0,0
37.36,0.148331,6.2743444,7.657514,997.05347,0,0
37.4,0.15313618,6.5174384000000005,7.340311,997.04315,0,0
37.44,0.18662019,6.4030404,7.3592515,997.04095,0,0
37.48,0.11971559,6.3029423,7.7380047,997.0531599999999,0,0
37.52,-0.072131045,6.164728599999999,7.6858664,997.0456,0,0
37.56,-0.043452844000000004,6.255293,7.619584599999999,997.05066,0,0
37.6,0.018683359,6.3553904999999995,7.7710853,997.0632,0,0
37.64,0.10471855,6.3553904999999995,7.510692999999999,997.0604,0,0
37.68,0.15729447,6.383991,7.676397,997.0554,0,0
37.72,0.16207369,6.3601575,7.685866000000001,997.0429,0,0
37.76,0.028237239,6.279125,7.33552,997.0479,0,0
37.8,0.028237239,6.279125,7.33552,997.043,0,0
37.84,-0.019563347,6.2409940000000015,7.406535000000001,997.0352,0,0
37.88,-0.019563347,6.2409940000000015,7.406535000000001,997.0755,0,0
37.92,0.32936108,6.4364230000000004,7.761616,997.073,0,0
37.96,0.45363402,6.388757,7.2076907000000014,997.0555400000001,0,0
38.0,0.34369797,6.2219276,7.2502995,997.0603,0,0
38.04,0.09036645,6.326792,7.0041103000000025,997.0756,0,0
38.08,0.18596126,6.388757,7.5769734,997.0852699999999,0,0
38.12,0.07124533,6.2838926,7.7190056,997.08026,0,0
38.16,0.14294048,6.3744574,7.7521462,997.0856,0,0
38.2,-0.05303277,6.3696904000000005,7.3828619999999985,997.08,0,0
38.24,-0.06259295,6.2981925,7.591175999999999,997.06506,0,0
38.28,-0.04347568,6.26006,7.487019,997.0400400000001,0,0
38.32,0.06645852,6.3458586,7.6432543000000015,997.0854,0,0
38.36,-0.04825802,6.488855,7.420737299999999,997.0549,0,0
38.4,-0.07215831,6.393523,7.434940299999999,997.0599,0,0
38.44,-0.057820134,6.3553915000000005,7.685864,997.10504,0,0
38.48,0.015201718000000001,6.58892,7.846955,997.0975300000001,0,0
38.52,0.35939968,6.5889190000000015,8.131024,997.0799599999999,0,0
38.56,0.34989196,6.4649873,8.192575999999999,997.0776,0,0
38.6,0.27344114,6.512652,7.53923,997.0623,0,0
38.64,0.13965861,6.4840517,7.2314987,997.0394,0,0
38.68,0.03936073,6.4220843,7.3593350000000015,997.0545699999999,0,0
38.72,0.17802708,6.3315187,7.6102633,997.0498,0,0
38.76,0.20673187,6.264786,7.6907505999999985,997.0723,0,0
38.8,0.33583856,6.5698441999999995,6.786484,997.057,0,0
38.84,0.28331274,6.56031,7.2883353,997.0745,0,0
38.88,0.43156463,6.560308,7.3546243,997.0668,0,0
38.92,0.46985507,6.550773599999999,7.435114,997.0643,0,0
38.96,0.46985507,6.550773599999999,7.435114,997.0546,0,0
39.0,0.22138329,6.684235,6.5545216,997.0894,0,0
39.04,0.36482942,6.569837,7.610298599999999,997.0718,0,0
39.08,0.21190168,6.403007,7.5392847000000005,997.049,0,0
39.12,0.29801613,6.7795630000000005,6.919085000000001,997.0718,0,0
39.16,0.26458353,6.703297,7.207886699999999,997.0768,0,0
39.2,0.2503221,6.660396,7.458817,997.09186,0,0
39.24,0.025723338,6.4602,7.241039,997.05426,0,0
39.28,0.025749326,6.5841293000000025,7.0563993,997.0894,0,0
39.32,0.011487886000000001,6.379165599999999,7.6434727,997.0617699999999,0,0
39.36,-0.050597526,6.4268300000000025,7.4919767,997.0592,0,0
39.4,0.011565909,6.450662,7.501448,997.0542,0,0
39.44,0.15023224,6.4506607,7.3878270000000015,997.0768400000001,0,0
39.48,0.29716367,6.5174227,7.4492607,997.0768,0,0
39.52,0.23980476,6.4983562999999975,7.321431599999999,997.0643,0,0
39.56,0.21112464,6.484057,7.572355,997.0615,0,0
39.6,0.21112464,6.484057,7.572355,997.0867,0,0
39.64,0.2971586,6.555556,7.520275999999999,997.1044300000001,0,0
39.68,0.19200163,6.3744264,7.3119625999999975,997.08185,0,0
39.72,0.12030332,6.479291,7.2598834000000005,997.0665,0,0
39.76,-0.032651044,6.4506917,7.2551494000000005,997.0916,0,0
39.8,-0.21428487,6.326761,7.5912914,997.0589,0,0
39.84,-0.18560793,6.431625,7.4776664,997.07886,0,0
39.88,-0.26686522,6.388726,7.349837299999999,997.06616,0,0
39.92,0.08205916,6.464991,7.9226994999999985,997.07385,0,0
39.96,0.6699738000000001,6.779584,7.766464,997.06635,0,0
40.0,0.2302299,6.555556,7.648103999999999,997.0815,0,0
40.04,0.26846707,6.4888244,7.4729304,997.0839,0,0
40.08,0.11551209,6.35536,7.671775999999999,997.0812400000001,0,0
40.12,0.04381439,6.350594,7.4113836,997.06354,0,0
40.16,0.10117079,6.2838626,7.2267413000000005,997.0888,0,0
40.2,0.08205029,6.2552633,7.3735085000000025,997.05585,0,0
40.24,0.23022293,6.4697580000000015,7.1936007,997.08374,0,0
40.28,0.03902954,6.450692,7.2977570000000025,997.08575,0,0
40.32,0.019909665,6.4268594000000006,7.5581493,997.0682400000001,0,0
40.36,0.08204584,6.5126567,7.652837299999999,997.0636599999999,0,0
40.4,0.024686322000000004,6.4745245,7.4539924,997.0759,0,0
40.44,0.029465467000000002,6.4840574,7.5202737000000015,997.0632300000001,0,0
40.48,-0.036890163999999996,6.3410473,7.3593554,997.0758,0,0
40.52,0.17344277,6.4697437,7.4019675000000005,997.0909,0,0
40.56,0.10654704,6.4220777,7.4019694000000005,997.0555400000001,0,0
40.6,0.13045685,6.512642,7.250469,997.0682,0,0
40.64,0.087460205,6.3934774,7.6481614,997.06067,0,0
40.68,-0.04635279,6.369644,7.5629434999999985,997.09326,0,0
40.72,0.0779437,6.407776,7.5629453999999985,997.0782,0,0
40.76,-0.0033021718,6.3505769999999995,7.7570570000000005,997.0732,0,0
40.8,0.08755723,6.4316077000000025,7.41145,997.0731,0,0
40.84,0.06844877,6.4506736,7.2552156000000005,997.0656,0,0
40.88,-0.01755537,6.345809,7.648174000000001,997.078,0,0
40.92,-0.16570772,6.255244,7.648175699999999,997.0626,0,0
40.96,-0.084440246,6.3410410000000015,7.7570679999999985,997.0551,0,0
41.0,-0.017501459,6.4173055,7.4398656,997.0602,0,0
41.04,0.04465753,6.484037,7.468273599999999,997.05536,0,0
41.08,-0.007898733,6.422071,7.3309774,997.09296,0,0
41.12,0.020801648,6.3934712,7.7049975,997.04535,0,0
41.16,-0.084332466,6.298139599999999,7.6671243,997.0577,0,0
41.2,-0.09865033599999999,6.3458046999999995,7.515625999999999,997.0628,0,0
41.24,-0.041271105,6.422068599999999,7.4351425,997.08026,0,0
41.28,0.035227284,6.436368,7.7050056,997.0802,0,0
41.32,0.040028647,6.4792666,7.458818400000001,997.04755,0,0
41.36,-0.017307416000000003,6.4316005999999994,7.4588202999999975,997.0727,0,0
41.4,-0.11766176,6.4268335999999975,7.5487759999999975,997.045,0,0
41.44,-0.122419976,6.374401,7.529841,997.0601,0,0
41.48,0.12137158,6.5984286999999995,7.5487800000000025,997.0526,0,0
41.52,0.13075097,6.5841330000000005,7.387794,997.0726300000001,0,0
41.56,0.13554476,6.5841327000000005,7.6150465,997.0450400000001,0,0
41.6,0.22638194,6.660397,7.3357186,997.0701,0,0
41.64,0.06865537,6.5221667000000005,7.288375,997.0623,0,0
41.68,0.011318624,6.431602,7.392533999999999,997.0096,0,0
41.72,-0.074696876,6.4697337,7.1558156,997.0623,0,0
41.76,-0.074696876,6.4697337,7.1558156,997.0648,0,0
41.8,-0.09379518,6.469733,7.4209437000000005,997.0722,0,0
41.84,-0.09856803,6.4554334,7.6245246,997.05225,0,0
41.88,-0.002951026,6.5888963,7.3120556,997.04224,0,0
41.92,0.025734767000000002,6.5221643,7.368869,997.04974,0,0
41.96,0.059207335,6.550763,7.2647133,997.0672599999999,0,0
42.0,0.16915675,6.6317945000000025,7.3215274999999975,997.067,0,0
42.04,0.17873727,6.631794,7.236310499999999,997.0296,0,0
42.08,0.107047215,6.560295599999999,7.3357334000000005,997.05725,0,0
42.12,0.006692260500000001,6.5364623,7.250516,997.0598,0,0
42.16,0.006692260500000001,6.5364623,7.250516,997.0748,0,0
42.2,0.059284045999999986,6.6365595,7.3594089999999985,997.067,0,0
42.24,0.049745366,6.6460924,7.4209576,997.0242,0,0
42.28,0.13101597,6.7032905,6.9901279999999995,997.0672599999999,0,0
42.32,-0.0028045774,6.545994,7.236317999999999,997.04926,0,0
42.36,0.045007408,6.7175894,6.777083,997.0342,0,0
42.4,0.021122292,6.5602927,7.0706167,997.0672599999999,0,0
42.44,0.059374705,6.6270247000000015,7.0611496,997.0893599999999,0,0
42.48,0.04026939,6.6651564,6.956994,997.0745,0,0
42.52,0.1933343,6.479258,7.260006,997.09686,0,0
42.56,0.37976438,6.4792575999999995,8.443608,997.0541400000001,0,0
42.6,0.20292939,6.4411244000000005,7.941763000000001,997.06934,0,0
42.64,0.27464426,6.3314934,8.595113000000001,997.08185,0,0
42.68,0.026112184,6.1837295999999995,8.206894,997.0616,0,0
42.72,0.054808795,6.345792299999999,7.8802210000000015,997.0541400000001,0,0
42.76,-0.06467744,6.1360636,7.9323006,997.0616,0,0
42.8,-0.18414587,6.0645647,7.3689084000000005,997.05927,0,0
42.84,-0.050293595,6.202794,7.3831130000000025,997.0743,0,0
42.88,0.016641378000000002,6.2075605000000005,7.378381,997.04663,0,0
42.92,0.25086957,6.350557,7.47307,997.0566,0,0
42.96,0.13616316,6.2599915999999975,7.4351954,997.04663,0,0
43.0,0.06927255,6.431587,7.3168380000000015,997.07153,0,0
43.04,0.021483362000000002,6.4554195,7.861295,997.0413,0,0
43.08,0.27961946,6.5078510000000005,7.695593400000001,997.0515,0,0
43.12,-0.05016931,6.517384,7.6529856,997.0363,0,0
43.16,0.0024263263,6.498317,7.6671906000000005,997.0363,0,0
43.2,0.035902724,6.6365466,7.9133809999999984,997.0643,0,0
43.24,-0.097914025,6.388685,7.439942999999999,997.0187400000001,0,0
43.28,-0.12179526,6.4315844,7.0138474,997.0413,0,0
43.32,-0.24604358,6.336252,6.952302499999999,997.0310699999999,0,0
43.36,-0.16477801,6.321953,6.990178599999999,997.0413,0,0
43.4,-0.585383,6.484015,6.900226600000001,997.0487699999999,0,0
43.44,-0.045247376,6.5269129999999995,7.269512,997.05853,0,0
43.48,-0.16016583,6.774779,6.867069,997.0338,0,0
43.52,0.45643777,7.0607724,7.529886200000001,997.0459599999999,0,0
43.56,-0.011974171,6.889175999999999,6.7629137,997.04846,0,0
43.6,0.12664463,6.8939429999999975,6.573538,997.03577,0,0
43.64,-0.026295781,6.784312,6.9049473,997.04346,0,0
43.68,-0.026295781,6.784312,6.9049473,997.05365,0,0
43.72,-0.5950747,6.5650496,6.829199000000001,997.0307,0,0
43.76,-0.5950747,6.5650496,6.829199000000001,997.06573,0,0
43.8,-0.24135591,6.5841155,7.9891289999999975,997.0536,0,0
43.84,-0.41819978,6.3410206,7.383126,997.0057400000001,0,0
43.88,-0.2748012,6.4077525,7.0659213,997.0179400000001,0,0
43.92,0.10281665599999999,6.4983163,7.4162690000000016,997.0511,0,0
43.96,-0.1457243,6.436351999999999,7.7902869999999975,997.0411,0,0
44.0,0.031141758,6.574580999999999,7.207957,997.02576,0,0
44.04,0.031141758,6.574580999999999,7.207957,997.0356400000001,0,0
44.08,0.13630633,6.607947,7.553569299999999,997.0004,0,0
44.12,0.0024851412,6.5459814000000005,7.8234309999999985,997.028,0,0
44.16,-0.56152284,5.86913,7.2884445000000015,997.02795,0,0
44.2,-0.35597798,6.250454,6.7818646,997.0285,0,0
44.24,-0.5232666,6.226621,6.919162299999999,997.0433300000001,0,0
44.28,-0.73834896,5.8071637,8.074359,997.0582,0,0
44.32,-0.09784635,6.6079454,7.2174320000000005,997.0631,0,0
44.36,-0.27947447,6.6937429999999996,7.2505727,997.0507,0,0
44.4,-0.43719465,6.2599864,7.7855615999999985,997.0404699999999,0,0
44.44,-0.370273,6.5316800000000015,8.330019,997.0404699999999,0,0
44.48,-0.35079497,6.42204,7.473124,997.04034,0,0
44.52,-0.16913962,6.4697055999999975,7.738253,997.0681,0,0
44.56,-0.37465972,5.907252,7.7855979999999985,997.0377,0,0
44.6,-0.38897634,6.136046,7.6909122000000005,997.0177,0,0
44.64,-0.36982292,5.8119190000000005,7.425789,997.04803,0,0
44.68,-0.10692225,6.140811,7.8376827,997.01245,0,0
44.72,-0.17859648,6.2361417,8.083874,997.0528,0,0
44.76,-0.12597297,6.331472,7.847158,997.0327,0,0
44.8,-0.12597297,6.331472,7.847158,997.0273,0,0
44.84,-0.11161077,6.579332000000001,6.7961225999999995,997.0452,0,0
44.88,-0.5895683,5.8452816,8.292195,997.04755,0,0
44.92,-0.27407843,5.621253,8.102822,997.04785,0,0
44.96,0.5002840999999999,6.2409050000000015,7.9465904000000025,997.02716,0,0
45.0,-0.006363764399999999,5.9406114,7.8661059999999985,997.0323,0,0
45.04,-0.49389229999999995,6.2027717,6.8150697000000005,997.0649400000001,0,0
45.08,-0.48906689999999997,6.5554960000000015,7.913455,997.0047599999999,0,0
45.12,-0.21182682,6.7461576,7.1228110000000004,997.0549,0,0
45.16,-0.48903263,6.4982963,8.599947,997.0247,0,0
45.2,-0.45555115,6.560261,7.2648470000000005,997.0349,0,0
45.24,-0.34560424,6.364831400000001,7.8282422999999985,997.0146,0,0
45.28,-0.57023215,6.136037,6.9665823000000024,997.0246599999999,0,0
45.32,-0.23083188,6.817653,6.990257700000001,997.0498,0,0
45.36,-0.46978784,6.603157,7.392685,997.0349,0,0
45.4,-0.34072173,6.6269899999999975,7.4731710000000025,997.0598,0,0
45.44,-0.17818551,6.72232,6.857701,997.03217,0,0
45.48,-0.16860309,6.622222,6.800889999999999,997.0672599999999,0,0
45.52,0.084749326,6.603155,7.6530848,997.0722,0,0
45.56,0.2759757,6.7938165999999995,7.5441970000000005,997.0193,0,0
45.6,0.29510635,6.917747,7.089695,997.0093,0,0
45.64,0.42895234,7.1131759999999975,6.914523,997.00903,0,0
45.68,-0.09679191,6.688950999999999,7.279075,996.99646,0,0
45.72,-0.32621104,6.3934239999999996,6.97134,996.9967,0,0
45.76,0.26651883,6.9749436000000005,6.8482485,997.00903,0,0
45.8,0.47207326,7.1131735,6.701484,997.0193,0,0
45.84,0.40994728,6.8367124000000015,6.8813925000000005,997.05176,0,0
45.88,0.5294766,7.017840400000001,6.9950213,997.0016,0,0
45.92,0.3143968,6.784279,6.7677712,997.0141,0,0
45.96,0.36221766,7.0130734,6.725164,997.0065,0,0
46.0,0.3813597,6.8510100000000005,6.767775500000001,997.05426,0,0
46.04,0.34314412,6.7509117,6.800917599999999,997.0617699999999,0,0
46.08,0.55347836,7.0321380000000016,6.952421000000001,997.0139999999999,0,0
46.12,0.3623857,7.1179333,6.677835000000001,997.01886,0,0
46.16,0.22857551,6.9129710000000015,6.9713707,997.04895,0,0
46.2,0.22857551,6.9129710000000015,6.9713707,997.0314,0,0
46.24,0.023092836000000002,6.8224050000000025,7.0755315,997.02655,0,0
46.28,0.023092836000000002,6.8224050000000025,7.0755315,997.01135,0,0
46.32,0.056600317000000004,6.874836,7.0329266000000015,997.0113,0,0
46.36,0.085291356,6.9987664,6.924036,997.0113,0,0
46.4,0.26696056,6.912967,7.3122606,997.03894,0,0
46.44,0.19528793,6.974932000000001,7.013995599999999,997.0013,0,0
46.48,0.13316269,6.836701400000001,7.0613410000000005,996.9934699999999,0,0
46.52,0.10928814,6.8271675000000025,6.942982700000001,997.0160000000001,0,0
46.56,0.07107413,6.684170699999999,7.5347857000000005,997.079,0,0
46.6,-0.08663495,6.8081007,6.985597,997.0464,0,0
46.64,-0.24434410000000004,6.569772,8.950376499999997,996.98596,0,0
46.68,-0.6936211999999999,6.5125722999999995,5.271746599999998,997.00604,0,0
46.72,0.24324481,6.769966,8.140798,997.04865,0,0
46.76,0.028178066,7.3896174,6.3038516,997.07874,0,0
46.8,-0.18688870000000002,6.6889334000000025,8.192882,996.98596,0,0
46.84,-0.7747801,6.81763,5.7972746,997.0108,0,0
46.88,-0.48319989999999996,6.946326700000001,6.4506235,997.05615,0,0
46.92,-0.5309735,6.6746324999999995,7.028223,997.04846,0,0
46.96,-0.22504163,6.8414617,7.719448599999999,997.07874,0,0
47.0,-0.43531632,6.622198599999999,6.9098687000000005,997.0762300000001,0,0
47.04,-0.42574453,6.6031320000000004,7.0424333,997.0134,0,0
47.08,-0.44005948,6.760428,6.692089599999999,997.05835,0,0
47.12,-0.3599097,6.7127895,7.39268,997.0409,0,0
47.16,-0.52244335,6.588858999999999,7.411616,997.0612,1,2
47.2,-0.5798211999999999,6.5554943,7.2932534,997.0208,1,2
47.24,-0.47467577,6.760456,7.0281262,997.0284,1,2
47.28,-0.39821917,7.013084399999999,7.023389999999999,997.0634,1,2
47.32,-0.6898075,7.022618,7.042325999999999,997.0383,1,2
47.36,-0.41738915,6.631761,7.482622599999999,997.04315,1,2
47.4,-0.1975283,6.6841936,7.274308,997.0358,1,2
47.44,-0.14975056,6.851023,6.4694575999999975,997.0307,1,2
47.48,-0.063724235,6.836723299999999,6.2422047,997.06573,1,2
47.52,0.42856514,7.008320299999999,7.416334599999999,997.05347,1,2
47.56,0.49068224,6.827192,6.7961254,997.04315,1,2
47.6,0.6388359,7.151317999999999,6.5262628,997.04065,1,2
47.64,1.040319,7.0273886,6.1238364999999995,997.0459,1,2
47.68,0.8538863999999999,6.5650325,6.478915,997.04584,1,2
47.72,1.2410302,6.9415917,5.8303,997.04834,1,2
47.76,1.3031473999999998,7.1703863,6.005470799999999,997.03076,1,2
47.8,1.2314198,7.17992,5.877639,997.04083,1,2
47.84,1.0784459,7.408715700000001,6.033872,997.03314,1,2
47.88,1.1262236,7.952103599999999,6.867126,997.0683,1,2
47.92,1.3556441000000001,8.090335000000001,7.6956453,997.096,1,2
47.96,1.5037875,7.9521046,9.073355000000001,997.0985,1,2
48.0,1.2743467,7.8520080000000005,9.087557,997.0885,1,2
48.04,0.18931104,7.3133864,8.301644,997.05835,1,2
48.08,-0.47032219999999997,7.327686999999999,7.1133070000000025,997.05084,1,2
48.12,-0.7614569999999999,7.0941149999999995,6.994986,997.04065,1,2
48.16,-0.53681,6.6937246,8.017616,997.0585,1,2
48.2,0.16581868,5.988274,9.362188,997.08606,1,2
48.24,0.39046687,5.749946,9.243828,997.0409,1,2
48.28,0.51952034,6.2552012999999995,7.378472,996.98315,1,2
48.32,0.43348134,6.8271880000000005,6.2090735,997.0459599999999,1,2
48.36,0.23750685,6.288567,5.95815,997.0532,1,2
48.4,0.38089848,5.7785454000000005,7.3500648,997.06085,1,2
48.44,0.2422816,5.659382,6.8813585999999995,997.0231,1,2
48.48,0.12756248,6.4124985,6.0102277000000015,997.01807,1,2
48.52,0.18969865,6.7604565999999995,5.532052999999999,997.0735,1,2
48.56,0.28051240000000005,6.3409996,5.759303599999999,997.0609,1,2
48.6,0.7250291,7.1894474000000015,8.448445,997.0959,1,2
48.64,0.7250291,7.1894474000000015,8.448445,997.066,1,2
48.68,0.7059085999999999,7.3944087,8.315882,997.06104,1,2
48.72,1.1169692,8.042661,8.576274,997.0433300000001,1,2
48.76,0.37609583,8.481183999999999,7.657799199999999,997.0183,1,2
48.8,0.6342014,6.4982967,7.4873600000000025,997.076,1,2
48.84,2.2880107999999995,6.636527,7.018654,997.06354,1,2
48.88,1.6570743000000001,6.1789374000000015,5.901333999999999,997.0434,1,2
48.92,1.3463858,6.093139,5.948678,997.01575,1,2
48.96,0.8253847,5.993042,5.8113800000000015,997.0208,1,2
49.0,0.99267405,5.9978089999999975,5.858724,997.06616,1,2
49.04,1.1073879,6.321934,6.7914014000000025,997.05615,1,2
49.08,0.76364845,6.951110000000001,6.6730785,997.04846,1,2
49.12,-0.4838664000000001,6.960642999999999,5.820887,997.0210000000001,1,2
49.16,-1.0096379999999998,6.6746492,5.4752754999999995,997.03864,1,2
49.2,-1.4350266,6.2742580000000014,6.3180013,997.081,1,2
49.24,-1.3346436000000002,6.364822,7.534744,997.0936,1,2
49.28,-0.21137568,7.0512065999999995,9.125505,997.0559699999999,1,2
49.32,-0.14443749,7.3228993000000004,8.334862,997.0635,1,2
49.36,-0.254359,7.065505,8.358535,997.0637,1,2
49.4,-0.52202106,7.098871000000001,8.306457,997.0484,1,2
49.44,-0.5745779999999999,6.793810400000001,7.941909299999999,997.0409,1,2
49.48,-0.20174631,6.550716,7.743065400000001,997.05347,1,2
49.52,-0.053551405999999996,5.1874804,9.27228,997.0735,1,2
49.56,-0.70359075,4.8681199999999984,9.054499,997.0511,1,2
49.6,-0.8469709000000001,5.5163720000000005,8.694685,997.0484,1,2
49.64,-0.7131224,5.702267,9.400112,996.99585,1,2
49.68,-0.6796568000000001,5.4401064,8.107621,997.0234,1,2
49.72,-0.22077477,5.2828093,8.898269,997.0384,1,2
49.76,-0.60792494,5.1493459999999995,7.875638,997.0360000000001,1,2
49.8,-0.31156307,5.182711,8.093422,997.0740400000001,1,2
49.84,-0.28765009999999996,5.5402026,8.225986500000001,997.0260599999999,1,2
49.88,-0.2255057000000001,5.79283,7.7383437000000015,997.0361300000001,1,2
49.92,-0.2493977000000001,5.8881616999999995,7.714672,997.02856,1,2
49.96,0.41024315,6.6841755,7.515830499999999,997.0486,1,2
50.0,0.41024315,6.6841755,7.515830499999999,997.06616,1,2
50.04,0.15216164,6.1169543,8.102899,997.06647,1,2
50.08,0.4150579000000001,6.4839787000000015,7.7856936,997.0260599999999,1,2
50.12,0.0034270883,6.1979995,7.7193604,997.03864,1,2
50.16,0.15637638,6.4506273,8.012893,997.0311,1,2
50.2,0.8064164,7.356274000000001,7.331137700000001,997.02356,1,2
50.24,0.9737051,6.93205,8.230674,997.06396,1,2
50.28,0.7060272,5.821442,9.224899,997.02356,1,2
50.32,0.24237289,6.355297,6.815086,997.0060000000001,1,2
50.36,-0.03486018,6.4935274000000005,6.8671637,997.0163,1,2
50.4,-0.039648876,6.827186,6.355847,997.0464,1,2
50.44,0.094176784,6.522126999999999,7.686213499999999,997.0238,1,2
50.48,-0.9048110999999999,6.174168,6.460001999999999,996.9884599999999,1,2
50.52,-0.35036272,6.979717,6.7440657999999996,997.0311,1,2
50.56,-0.5081007000000001,6.9129853,7.013926,997.0414400000001,1,2
50.6,-0.11138587400000001,6.898686,6.5830946,997.06396,1,2
50.64,0.09413682,6.846253999999999,7.1654253,997.0515,1,2
50.68,0.10368751,6.2981,6.994986,997.0615,1,2
50.72,0.839764,6.6222259999999995,7.539441,997.069,1,2
50.76,1.3607538000000001,6.793823,7.6956754,997.0386,1,2
50.8,1.4324462,6.750924,7.6767383,997.02856,1,2
50.84,0.99747103,6.708025,6.7629967,997.0210599999999,1,2
50.88,0.60551375,7.2752456999999975,7.141747500000001,997.059,1,2
50.92,0.60551375,7.2752456999999975,7.141747500000001,997.0514,1,2
50.96,0.43820727,7.8567657,6.2848196,997.0389,1,2
51.0,0.2948087,7.53264,6.5262733,997.0213,1,2
51.04,-0.063689925,6.893922,6.54521,997.0336,1,2
51.08,-0.17840967,6.7556914999999975,6.706179,997.04865,1,2
51.12,-1.4398357,6.727081299999999,7.4589896,997.0812400000001,1,2
51.16,-1.5641018,6.0883627,7.9134936,997.0514,1,2
51.2,-1.8413216000000001,5.811902,7.975042,997.0138,1,2
51.24,-1.7074826,5.978731,7.482664,997.04364,1,2
51.28,-1.09087,6.6412826,7.359571499999999,997.0238,1,2
51.32,-1.09087,6.6412826,7.359571499999999,997.08655,1,2
51.36,-0.5794222,5.988264,8.869847,997.07654,1,2
51.4,-0.68456453,5.5688066,8.685207,997.0414400000001,1,2
51.44,-0.5650649999999999,5.7070370000000015,7.818811,997.03894,1,2
51.48,-0.3212862,5.892932,7.2364798,997.04645,1,2
51.52,-0.06794771,6.0692945,7.672046000000001,997.01855,1,2
51.56,-0.06315901,6.326689,7.4258574999999984,997.0163,1,2
51.6,0.3383534,6.5316505,7.7383294000000005,997.05615,1,2
51.64,0.39093566,6.674647,7.866159,997.01855,1,2
51.68,0.5869209,6.9987726,6.535792400000001,997.0260599999999,1,2
51.72,0.5439116,6.765211,6.87667,997.0286,1,2
51.76,0.5725948000000001,6.5840815999999975,7.03764,997.0313,1,2
51.8,1.0649278,7.380096400000001,6.924016,997.0235,1,2
51.84,1.3803993,7.656556599999999,7.1891427,997.06396,1,2
51.88,1.2274545000000001,7.685156,6.900345,997.0384,1,2
51.92,0.7399279000000001,7.089336,8.25912,997.04865,1,2
51.96,0.61088204,6.7509103,8.344339999999999,997.0715,1,2
52.0,0.7112668000000001,6.288553,8.562123,997.05115,1,2
52.04,0.95504564,6.1264905999999995,8.325403999999999,997.0537,1,2
52.08,1.5812087,6.9654039999999995,7.2175546000000015,997.04865,1,2
52.12,1.8824047,6.855772,7.217561,997.05865,1,2
52.16,1.2849407,5.945359,8.287538,997.1189,1,2
52.2,0.12823962,6.3362169999999995,5.754632,997.0961,1,2
52.24,0.9742822,6.803339,8.969294,996.9657,1,2
52.28,0.13782214,6.3600492,8.188118,996.9733,1,2
52.32,-0.24933055,6.360049,5.266991,997.0310000000001,1,2
52.36,0.50589556,6.5411773,8.083963,997.0712,1,2
52.4,0.7305520999999999,6.617442,8.192855,997.06854,1,2
52.44,0.515478,6.7318387,7.0897407999999995,997.0711699999999,1,2
52.48,0.55372787,6.5268764,7.2317740000000015,997.0459599999999,1,2
52.52,0.4007799,6.426779,7.5726514000000025,997.0862400000001,1,2
52.56,0.41991049999999996,6.307615,7.951405,997.0635,1,2
52.6,0.06622212,6.727072,6.9098377000000015,997.0360000000001,1,2
52.64,0.023215338999999998,6.855767999999999,6.8388224000000015,997.05615,1,2
52.68,0.18574010000000002,7.0464296000000015,7.231778999999999,997.0839,1,2
52.72,-0.0054406524,6.774736,7.515845,997.05347,1,2
52.76,-0.42127216,6.4124775000000005,7.5158460000000025,997.0409,0,0
52.8,-0.32089055,6.6984710000000005,6.9950614,997.00323,0,0
52.84,-0.445154,6.779502000000001,6.54056,997.03314,0,0
52.88,-0.52639925,6.507807700000001,7.340675,997.03314,0,0
52.92,-0.789277,6.4458423,7.004534,997.05347,0,0
52.96,-0.38776207,6.722302,7.146567,997.0307,0,0
53.0,0.008973047,6.955863000000001,7.534789,997.0006,0,0
53.04,-0.010140479,6.855765299999999,7.241256,996.99054,0,0
53.08,-0.14874336,6.7223015,6.90038,997.0157,0,0
53.12,-0.25882345,6.6508064,7.0423990000000005,997.0382699999999,0,0
53.16,-0.30183917,6.712772,7.1512904000000015,997.0483,0,0
53.2,-0.2779351,6.808103,7.1891665,997.0559,0,0
53.24,-0.24924861,6.808103,7.6436696,997.0505400000001,0,0
53.28,0.051884055,7.0273647,7.757296000000001,997.05566,0,0
53.32,0.118803844,7.051197,7.738359,997.0205699999999,0,0
53.36,0.066233635,6.8700676,6.5074143,997.0431,0,0
53.4,0.31957078,7.3371906000000005,6.668384599999999,997.0253,0,0
53.44,0.38649315,7.260925,6.4932127,997.0505400000001,0,0
53.48,0.38649315,7.260925,6.4932127,997.05334,0,0
53.52,0.24310412,7.2323255999999985,6.147601,997.023,0,0
53.56,0.30046934,7.246625,6.692058,997.0253,0,0
53.6,0.15707777,7.156060000000001,6.5879020000000015,997.0757,0,0
53.64,0.2909199,7.2704573,6.957186,997.0404699999999,0,0
53.68,-0.10579878,7.122694,6.4648085,997.0454,0,0
53.72,-0.11535582,7.141761,6.4411364,997.0705,0,0
53.76,0.31005429999999995,7.1369934000000015,7.3264710000000015,997.0556,0,0
53.8,0.34351546,7.0607285000000015,7.364346,997.0454,0,0
53.84,0.080631316,6.9463315,6.6967955,997.0581699999999,0,0
53.88,0.10453544599999999,7.1655926999999995,6.464810400000001,997.0504,0,0
53.92,0.0041671395,7.094094,6.602109,997.0405,0,0
53.96,0.06630713,7.070261,6.521624,997.04803,0,0
54.0,0.16190825,7.1179266000000005,6.564234,997.03534,0,0
54.04,-0.2587094,7.203725299999999,6.232826,997.03046,0,0
54.08,-0.0005949139599999999,7.3753199999999985,6.5926414000000015,997.08057,0,0
54.12,0.16588692,7.141779400000001,7.5725894,997.0604,0,0
54.16,0.16588692,7.141779400000001,7.5725894,997.02795,0,0
54.2,-0.015772253,7.2132783,6.7488003,997.0201400000001,0,0
54.24,0.25187016,7.4849725000000005,6.744063400000001,997.0352,0,0
54.28,-0.08274276,6.903453,6.8340144,997.0704300000001,0,0
54.32,0.21357848,7.2418795,6.909763000000001,997.0328400000001,0,0
54.36,0.008020282,7.117949,6.597289599999999,997.07324,0,0
54.4,-0.035024599999999996,7.017853,6.980774,997.0807,0,0
54.44,0.055765033,7.065519,6.6020193,997.0429,0,0
54.48,0.17045368,7.151317,6.961831,997.0453,0,0
54.52,0.15130787,7.194217,6.6872334,997.0303,0,0
54.56,0.17038713,7.1084204,6.952356299999999,997.05286,0,0
54.6,0.09866343400000001,7.060755,6.573601700000001,997.03015,0,0
54.64,0.3185078,7.113188,6.900273299999999,997.0454,0,0
54.68,0.3184945,7.132254,6.9050063999999995,997.0227,0,0
54.72,0.23719786,7.1417885,6.871861999999999,997.0581,0,0
54.76,-0.011378586000000001,7.151322,6.469435,997.0402,0,0
54.8,0.07464461,7.1751556,6.6635447,997.0454,0,0
54.84,0.23711796,7.260954400000001,7.1133093999999994,997.0375,0,0
54.88,0.3040219,7.3276863,7.0896363,997.0252,0,0
54.92,0.16060112,7.146558,6.573583599999999,997.0402,0,0
54.96,0.122336105,7.156092,6.5546429999999996,997.05035,0,0
55.0,0.10319026,7.1322594,6.6824699999999995,997.05505,0,0
55.04,0.074484825,7.1227274000000005,6.942859599999999,997.0427,0,0
55.08,0.088797584,7.222825,6.6303864,997.0527,0,0
55.12,0.013989656999999999,7.3228827,6.5642576,997.04034,0,0
55.16,-0.22973976,7.184651,6.4506354,997.0402,0,0
55.2,-0.26793754,7.1655836,6.6684220000000005,997.0578,0,0
55.24,-0.28699592,7.089318,6.445911,997.07025,0,0
55.28,-0.24395740000000002,7.0988503,6.677898399999999,997.0352,0,0
55.32,0.14802714,7.2561455000000015,6.9146220000000005,997.05536,0,0
55.36,0.34881943,7.470639699999999,6.3654345999999995,997.0453,0,0
55.4,0.07163143,7.156046000000001,6.663706299999999,997.04034,0,0
55.44,0.12424986,7.237075999999999,6.4790683,997.0454,0,0
55.48,0.028674096,7.2180100000000005,6.654242999999999,997.0627,0,0
55.52,-0.08120048,7.1322100000000015,6.834156,997.0653,0,0
55.56,0.100472614,7.3276377,6.8436284,997.0227,0,0
55.6,-0.023781985,7.2323065,6.76788,997.0601,0,0
55.64,0.033616275,7.284737,6.786821400000001,997.0227,0,0
55.68,0.17705096,7.165572,6.8531059999999995,997.0450400000001,0,0
55.72,0.091075405,7.132204499999999,6.6021886,997.05,0,0
55.76,0.10069591,7.065472,6.83418,997.08777,0,0
55.8,0.2441306,7.275199400000001,6.7868395,997.06244,0,0
55.84,0.21069227,7.203701,6.7063565,997.0600599999999,0,0
55.88,-0.02347751,7.098836,6.677954,997.05756,0,0
55.92,0.09129867,7.1321993,7.0235715,997.055,0,0
55.96,0.09129867,7.1321993,7.0235715,997.0476,0,0
56.0,-0.15717,7.008267,7.037781699999999,997.0626,0,0
56.04,-0.2909842,7.0130334,6.6069520000000015,997.0299,0,0
56.08,-0.18744305,7.055972,7.0092297000000015,997.0653,0,0
56.12,-0.09186028,7.0559726,7.5016065,997.0450400000001,0,0
56.16,-0.18271646,7.2371016,6.8009105,997.05505,0,0
56.2,-0.35481605,7.0750399999999996,6.7677674,997.0624,0,0
56.24,-0.2592466,7.0798073000000015,7.1370482000000015,997.0574,0,0
56.28,-0.13020521,7.1513057,7.440049,997.05756,0,0
56.32,-0.058534794,7.2371044000000015,7.047091,997.0576,0,0
56.36,-0.0012037307,7.241872,6.895588,997.0600599999999,0,0
56.4,-0.17808310000000002,7.070276299999999,7.17965,997.0601,0,0
56.44,-0.13031173,6.917747,7.047084,997.0549,0,0
56.48,-0.1829162,6.932048,6.597313400000001,997.0501,0,0
56.52,-0.04910835,6.8891490000000015,6.7772179999999995,997.0224599999999,0,0
56.56,-0.06347433,7.0321465,6.251696599999999,997.0450400000001,0,0
56.6,0.25196612,7.0988793,7.331138,997.0498,0,0
56.64,0.094205916,7.1513114,6.3747864000000005,997.0726,0,0
56.68,0.14677043,7.299075,6.4268637,997.05255,0,0
56.72,0.0033496916,7.055982000000001,7.009192999999999,997.045,0,0
56.76,0.16104327,7.284776700000001,6.905032,997.0675699999999,0,0
56.8,0.07976,7.0083175,6.8766229999999995,997.0700699999999,0,0
56.84,0.15144373,7.170381,6.639902,997.0523699999999,0,0
56.88,-0.049347997000000005,7.132249400000001,6.3463650000000005,997.0574,0,0
56.92,0.11791850599999999,7.2418809999999985,7.0612582999999995,997.05255,0,0
56.96,0.06530073,7.027386999999999,6.682502,997.05756,0,0
57.0,0.08440663,7.060753,6.890814,997.0448,0,0
57.04,-0.020775646000000002,6.955889,6.7866550000000005,997.0222,0,0
57.08,-0.09729248,7.027389,6.431571,997.0523699999999,0,0
57.12,-0.016049147,7.022622599999999,6.8197913,997.0674,0,0
57.16,0.22292773,7.15132,7.307433599999999,997.0523,0,0
57.2,0.33760315,7.3944154000000015,6.573597,997.0476,0,0
57.24,0.31845725,7.051224,7.2553490000000025,997.0700699999999,0,0
57.28,0.20371534,7.1274896,6.521514,997.0549,0,0
57.32,-0.03052169,7.0559916,6.360542,997.05255,0,0
57.36,-0.11657148,6.955894,6.625667,997.0424,0,0
57.4,-0.087919265,6.9129963000000005,6.9618073,997.0247,0,0
57.44,-0.049720787,7.1227255000000005,6.762958500000001,997.0523,0,0
57.48,0.06498119,7.2037580000000005,6.592519,997.04755,0,0
57.52,0.39476103,7.2323575,7.406834,996.9997599999999,0,0
57.56,0.33737670000000003,7.179925999999999,6.672999400000001,997.0424,0,0
57.6,0.3612625,7.179925999999999,6.6777320000000016,997.0473599999999,0,0
57.64,0.29430526,7.0512304000000015,6.781885000000001,997.0649400000001,0,0
57.68,0.31817764,7.170395,6.4410057,997.0322,0,0
57.72,0.26080668,7.103663,6.530958,997.04755,0,0
57.76,0.16518398,6.9988,6.942848700000001,997.0299,0,0
57.8,0.16616891,7.156072,6.9855490000000025,997.05756,0,0
57.84,0.27132237,7.2943025,7.028158,997.0599,0,0
57.88,-0.20666137,7.2085037,6.7724996,996.9999,0,0
57.92,-0.09194722,7.218037599999999,6.9097976999999995,997.0699,0,0
57.96,-0.13018788,6.989242599999999,6.8955946,997.0424,0,0
58.0,0.0036444068,7.0941066999999975,6.2138395,997.0448,0,0
58.04,0.1374767,6.984476,6.8624529999999995,997.02496,0,0
58.08,0.056217775,7.065508,6.6825449999999975,997.06244,0,0
58.12,0.1470318,7.003543,7.421112,997.06506,0,0
58.16,-0.24491552,6.860546,6.616263000000001,997.0298,0,0
58.2,-0.16843973,6.9272776,6.8435144,997.0448,0,0
58.24,-0.26881784,6.941577400000001,7.0660315,997.0399,0,0
58.28,-0.14932609,6.851012700000001,7.250673,997.0776,0,0
58.32,-0.14932609,6.851012700000001,7.250673,997.0600599999999,0,0
58.36,-0.28316283,6.7270823,7.378502,997.0424,0,0
58.4,0.15179597,7.1799050000000015,7.4826584,997.0701,0,0
58.44,0.022738993,7.175139,6.980811,997.0525,0,0
58.48,-0.18757458,6.836714,7.2554064,997.0627,0,0
58.52,-0.49826294,6.607919,7.2554064,997.0274,0,0
58.56,-0.61776024,6.5936193,6.583121,997.0678,0,0
58.6,-0.5365059,6.698483500000001,7.4305787,997.0478,0,0
58.64,-0.31185842,6.746149000000001,7.184389,997.0727,0,0
58.68,-0.47437406,6.8414803,7.028154,997.04755,0,0
58.72,-0.13023034,6.898679,7.3595624000000015,997.0501,0,0
58.76,-0.33098322,6.7461495,7.369030499999999,997.0325,0,0
58.8,-0.43571132,6.798570599999999,6.7867380000000015,997.0478,0,0
58.84,-0.23495197,6.8176369999999995,7.2838516,997.0225,0,0
58.88,-0.23970895,6.8557690000000004,6.99032,997.0401,0,0
58.92,-0.07239296,7.0845633,6.862493499999999,997.0478,0,0
58.96,-0.07239296,7.0845633,6.862493499999999,997.03,0,0
59.0,-0.21098445,6.7938023,6.947715,997.0478,0,0
59.04,-0.30177790000000004,6.774735499999999,7.1276245,997.0553,0,0
59.08,-0.34000114,6.6555715,6.848296,997.0602,0,0
59.12,-0.32086664,6.8557663,7.0140020000000005,997.068,0,0
59.16,-0.28261304,6.998763,6.9619246,997.07275,0,0
59.2,-0.28261304,6.998763,6.9619246,997.073,0,0
59.24,-0.40686512,6.755667999999999,7.2223186,997.0956,0,0
59.28,-0.22042993,6.8843646,7.1323667,997.0555400000001,0,0
59.32,-0.21564251,6.884364,7.2317905,997.05786,0,0
59.36,-0.26342535,6.860531,7.203385400000001,997.0601,0,0
59.4,-0.33987940000000005,6.622202400000001,7.3406850000000015,997.0348,0,0
59.44,-0.45458704,6.6412687,7.236528999999999,997.0653,0,0
59.48,-0.32551712,6.8176309999999996,6.990341,997.0777,0,0
59.52,-0.27771148,6.7842645999999975,7.0708265,997.0452,0,0
59.56,-0.19643958,6.8176303,7.208125999999999,997.0527,0,0
59.6,-0.25377437,6.831929,6.9714084000000005,997.02,0,0
59.64,-0.18206212,6.8509949999999975,7.170253999999999,997.05536,0,0
59.68,-0.2872026,6.9272594,7.0897710000000025,997.0504,0,0
59.72,-0.17725186,6.8652940000000005,7.160788,997.0655,0,0
59.76,-0.15812504,6.903426,7.2933520000000005,997.0350300000001,0,0
59.8,-0.13421084,6.884360000000001,7.089774,997.04785,0,0
59.84,-0.36866242,6.8224,6.9666576000000004,997.05304,0,0
59.88,-0.31130219,6.789034399999999,6.867235000000001,997.03046,0,0
59.92,-0.20614144,6.779501400000001,7.198643700000001,997.0604,0,0
59.96,-0.11054033,6.8081007,7.227050999999999,997.03534,0,0
60.0,0.042421028,6.989229700000001,7.037675999999999,997.05804,0,0
60.04,0.04242614,7.027361999999999,7.1891766000000015,997.0757,0,0
60.08,-0.034045674,6.9463304999999975,6.9808636,997.03296,0,0
60.12,0.02331449,6.96063,7.12763,997.03033,0,0
60.16,-0.17743216,6.7604337,7.089755499999999,997.03796,0,0
60.2,-0.08660831,6.9177303,6.8435673999999995,997.02795,0,0
60.24,-0.07226636,6.951096499999999,6.834098299999999,997.0504,0,0
60.28,-0.22043267,6.789033,7.1134295,997.0505400000001,0,0
60.32,-0.22043267,6.789033,7.1134295,997.0556,0,0
60.36,-0.17262447,6.8366985,7.032945,997.0454,0,0
60.4,-0.12482388,6.855764999999999,6.9713984,997.0405,0,0
60.44,-0.11047943,6.9653955000000005,7.0187425999999995,997.07324,0,0
60.48,-0.11525160000000001,6.879597,7.241260499999999,997.01025,0,0
60.52,-0.15348752,6.936795699999999,7.0045404000000016,997.0455300000001,0,0
60.56,-0.17259908,6.927262299999999,7.2412615,997.0356,0,0
60.6,-0.24907087,6.8795967000000005,6.9429940000000006,997.04065,0,0
60.64,-0.10567427,6.960628,6.862509700000001,997.0028,0,0
60.68,-0.124785855,6.9463285999999975,7.198653,996.9978,0,0
60.72,-0.124785855,6.9463285999999975,7.198653,997.0656,0,0
60.76,-0.34464923,7.213255,5.948771,997.04803,0,0
60.8,-0.68901306,6.750905,7.563183,997.0132,0,0
60.84,-0.68901306,6.750905,7.563183,997.0408,0,0
60.88,-0.5982006,6.7318380000000015,5.839859,997.0129,0,0
60.92,0.008830667,7.1131635,7.814106,997.05334,0,0
60.96,0.066184446,7.8329134000000025,5.9629536,997.0205699999999,0,0
61.0,-1.1239924,6.565009,5.8019824,997.0507,0,0
61.04,-0.63167447,6.9511009999999995,5.8209205000000015,997.06573,0,0
61.08,-0.1345787,7.1989617,6.857754700000001,997.06854,0,0
61.12,0.1283067,7.1655955,7.321726299999999,997.0683,0,0
61.16,-0.2301824,6.8128705,6.9666452,997.0557,0,0
61.2,0.16653754,7.13223,7.156021000000001,997.066,0,0
61.24,0.14741452,7.1369967,7.0423946,997.0382699999999,0,0
61.28,-0.04378336,6.8414702000000025,7.051863000000001,997.0433,0,0
61.32,0.018352196,6.874836,7.061332000000001,997.06854,0,0
61.36,0.06614642,7.051199,6.990315400000001,997.0509,0,0
61.4,0.037465706,6.965400999999999,7.0139875,997.0409,0,0
61.44,-0.21586767,6.831938,7.2033634000000015,997.0459,0,0
61.48,-0.06769759,6.936802,6.9761114,997.0157,0,0
61.52,-0.12027924,7.0035339999999975,6.8861574999999995,997.06104,0,0
61.56,-0.15852529,6.9558682,7.0139856,997.0285,0,0
61.6,-0.10594933,7.0083,7.108673599999999,997.0108,0,0
61.64,-0.06771472,7.1036315000000005,6.729921000000001,997.0309,0,0
61.68,-0.16331461,7.0178337,7.047125299999999,997.0309,0,0
61.72,-0.25413653,6.8939037,7.0755315,997.05347,0,0
61.76,-0.21112025,6.893903999999999,6.796201700000001,997.04865,0,0
61.8,-0.20628127,6.903434799999999,6.748862299999999,997.0439,0,0
61.84,-0.31143826,6.9558672999999995,6.573689999999999,997.02356,0,0
61.88,-0.10590799,7.1083975000000015,6.7914724,997.0361,0,0
61.92,-0.20150533,6.903434799999999,7.326460000000001,997.0286,0,0
61.96,-0.005534634,7.089331,6.871957000000001,997.0159,0,0
62.0,-0.11069161,6.994,7.0897393,997.04364,0,0
62.04,-0.19672868,6.9129686,6.9098320000000015,997.039,0,0
62.08,-0.10113387,7.0416656,7.061333,997.0617699999999,0,0
62.12,-0.17761199,7.0273660000000016,6.701517599999999,997.03394,0,0
62.16,-0.019879714,7.0893315999999995,7.217567999999999,997.02386,0,0
62.2,0.042256445,7.1131644,6.9193006,997.039,0,0
62.24,-0.20151481,7.017832799999999,6.8956285,997.0291,0,0
62.28,-0.29233235,7.0130663,6.777267999999999,997.0392,0,0
62.32,-0.2588756,6.8605366,6.909831,997.05164,0,0
62.36,-0.20151927,6.750906,7.402209299999999,997.0744,0,0
62.4,0.15218495,7.1226970000000005,7.0755353,997.05975,0,0
62.44,0.12828468,7.1655960000000025,7.122878599999999,997.0518,0,0
62.48,-0.067688555,7.0130669999999995,6.7725325,997.0568,0,0
62.52,-0.010332197,7.0607320000000025,6.8814244,997.05225,0,0
62.56,-0.16806763,6.9987674,6.8482833,997.0422,0,0
62.6,-0.16806763,6.9987674,6.8482833,997.03217,0,0
62.64,-0.12982981,7.084565,6.9192990000000005,997.0368699999999,0,0
62.68,-0.043794595,7.0559660000000015,7.2175664999999976,997.0596300000001,0,0
62.72,-0.05335612,7.0893320000000015,6.805673,997.0272,0,0
62.76,-0.05335737,6.970167599999999,6.9524393,997.0600599999999,0,0
62.8,0.013245255,6.917742999999999,6.8861289999999995,997.02484,0,0
62.84,-0.0011150688000000001,7.22757,6.2611856,997.00214,0,0
62.88,0.13749228,7.260936,6.706219,997.04224,0,0
62.92,0.07055409,7.013076,6.876655599999999,997.0399,0,0
62.96,0.07531996,7.0321419999999994,6.9524050000000015,997.0653699999999,0,0
63.0,-0.0011708438,7.198972,6.441088,997.0298,0,0
63.04,-0.15891835,7.013077,6.663603999999999,997.03,0,0
63.08,0.04659927,7.1370070000000005,6.857713,997.0428,0,0
63.12,-0.13026743,6.9654117,7.080228999999999,997.0653,0,0
63.16,-0.13026743,6.9654117,7.080228999999999,997.0328,0,0
63.2,-0.09683671599999999,7.117942,6.8245683,997.0653699999999,0,0
63.24,-0.09683671599999999,7.117942,6.8245683,997.03033,0,0
63.28,-0.15899509,7.1179422999999975,6.79616,997.0202,0,0
63.32,-0.07774539999999999,7.1179422999999975,6.9239883,997.0227,0,0
63.36,-0.08253912,6.979713,7.009207000000001,997.05804,0,0
63.4,-0.10645211,6.9606476,6.862438,997.04034,0,0
63.44,-0.08735381,7.194209,6.7961550000000015,997.0458,0,0
63.48,-0.077801205,7.1131782999999995,6.895577,997.05084,0,0
63.52,0.12293662,7.241875,7.1654367,997.0082,0,0
63.56,-0.044377454000000004,7.089346000000001,6.909776700000001,997.0353,0,0
63.6,-0.14476027,7.0416803,6.8766356,997.0179400000001,0,0
63.64,-0.14000145,7.0273813999999994,6.6777887000000025,997.0511,0,0
63.68,-0.14000839999999998,7.032147999999999,6.663584700000001,997.0433300000001,0,0
63.72,-0.09222430000000001,7.065514,7.0044603,997.013,0,0
63.76,0.03204365,7.151312400000001,6.9192405,997.01324,0,0
63.8,0.108506516,7.23711,6.9523797000000025,997.0310699999999,0,0
63.84,-0.049431935,7.179917,6.5925465,997.0285,0,0
63.88,-0.08770266,7.046454400000001,6.7582474,997.05853,0,0
63.92,-0.092504025,7.1084204,7.018637700000001,997.0283,0,0
63.96,-0.09730539,7.1322529999999995,6.682492999999999,997.0335,0,0
64.0,-0.13078558,7.0607553,7.004430999999999,997.0285,0,0
64.04,-0.020871654,7.2323523000000005,6.4647074,997.0489,0,0
64.08,-0.06869124,7.0893559999999995,6.942879,997.0309,0,0
64.12,0.04122269,7.1322556,6.701422999999999,997.0260000000001,0,0
64.16,-0.07830479,7.1560893,6.852921,997.0388,0,0
64.2,0.036399767,7.2132883,6.6114654999999996,997.0388,0,0
64.24,0.050717592,7.2180557,6.7913713000000016,997.0439,0,0
64.28,-0.040131025,7.0941253,6.7771645000000005,997.0487699999999,0,0
64.32,-0.025802359,7.113192,6.800835,997.054,0,0
64.36,-0.06406236,7.079827000000001,6.9618034,997.0492,0,0
64.4,0.050631344,7.275256,6.663533999999999,997.0617699999999,0,0
64.44,-0.016307443,7.122726400000001,6.8150334,997.0392,0,0
64.48,0.074487284,7.175160000000001,6.758217999999999,997.0442,0,0
64.52,0.093584925,6.998798,6.9049830000000005,997.05164,0,0
64.56,0.14137219,6.984497999999999,6.8529029999999995,997.0291,0,0
64.6,0.09833239,7.098896000000001,6.426805,997.0289300000001,0,0
64.64,-0.23628624,7.179928,5.9486275,997.0465,0,0
64.68,-0.08812305,7.208527,6.616177,997.04663,0,0
64.72,-0.04035738,6.9130020000000005,6.767675,997.03406,0,0
64.76,0.14603339,6.960667999999999,7.037534,997.05164,0,0
64.8,0.11204605,7.1322765,6.762890299999999,997.0442,0,0
64.84,0.021208837999999997,7.179943,6.3462605000000005,997.03156,0,0
64.88,-0.12702784,7.1036797000000025,6.7108045,997.0618,0,0
64.92,-0.12226896,7.046481599999999,6.8007554999999975,997.0416,0,0
64.96,0.10709883,7.032183,6.956986,997.0392,0,0
65.0,0.09751828,6.994051,6.9664526,997.03925,0,0
65.04,0.07835722,7.0035853,6.39832,997.0316,0,0
65.08,-0.24673225,6.865357,6.39358,997.03674,0,0
65.12,-0.34712905,6.789092999999999,6.540344,997.0342400000001,0,0
65.16,-0.34239107,6.851058999999999,6.431449400000001,997.0316,0,0
65.2,0.15464576,6.8844259999999995,6.966431,997.0442,0,0
65.24,0.025570095,6.8272276,6.564005,997.0341,0,0
65.28,-0.07962746,6.998825,5.815965,997.0392,0,0
65.32,-0.27088237,6.789098700000001,6.5734644,997.05695,1,3
65.36,-0.251805,6.674702000000001,6.3272714999999975,997.0417,1,3
65.4,-0.22314712,6.7223679999999995,6.526114,997.062,1,3
65.44,-0.21362935,6.631804499999999,6.535579,997.0497,1,3
65.48,-0.065497294,6.7891020000000015,6.0479317,997.067,1,3
65.52,-0.094238915,6.798636,6.308318,997.0417,1,3
65.56,-0.008244290999999999,6.9082685,6.0384535999999995,997.0292,1,3
65.6,-0.013045028,6.874903,6.507158,997.0317,1,3
65.64,-0.16601968,6.7319070000000005,6.4408746,997.067,1,3
65.68,-0.23775860000000001,6.7223744000000005,6.1047277,997.072,1,3
65.72,-0.27128,6.6890100000000015,6.355645,997.05975,1,3
65.76,-0.21396420000000002,6.7462100000000005,6.582892999999999,997.0573,1,3
65.8,-0.17909549,6.798608,6.104847,997.0622599999999,1,3
65.84,-0.1026104,6.8415065,6.1332545,997.0571,1,3
65.88,-0.16951117,6.8462725,6.3131633,997.0695,1,3
65.92,-0.12647644,6.8510385,6.0196314000000015,997.0674,1,3
65.96,-0.16468191,6.8701043,6.459934,997.06976,1,3
66.0,-0.24592209,6.817672,6.3747168,997.067,1,3
66.04,-0.24592209,6.817672,6.3747168,997.06464,1,3
66.08,-0.10251148,6.836736999999999,6.246889,997.0797,1,3
66.12,-0.3175779,6.722339,5.778185400000001,997.0772,1,3
66.16,-0.28888259999999993,6.7271056,6.1522045,997.0871,1,3
66.2,-0.14546375,6.8415027,6.109597,997.0695,1,3
66.24,-0.14546375,6.8415027,6.109597,997.0797,1,3
66.28,-0.18846549,6.798603,6.14274,997.1047,1,3
66.32,-0.030715495,6.970198599999999,6.2563667,997.0719,1,3
66.36,-0.16931331,6.8939333,6.426807,997.1148699999999,1,3
66.4,-0.02590271,7.041696000000001,6.5404344000000005,997.1199,1,3
66.44,-0.001987189,6.984497,6.5925139999999995,997.1024,1,3
66.48,-0.068887986,6.9701967000000025,6.7156100000000025,997.1098599999999,1,3
66.52,-0.18836658,7.0083284,5.891825,997.1249,1,3
66.56,-0.16445109,7.017861999999999,6.5262364999999996,997.1223,1,3
66.6,-0.28392968,6.8033667,6.8765845,997.1249,1,3
66.64,-0.18353732,6.9463625,6.6446,997.12463,1,3
66.68,-0.09270455,7.03216,6.4457564000000005,997.12494,1,3
66.72,-0.05922941,7.0893583,6.6588062999999975,997.13745,1,3
66.76,-0.111782536,6.994026700000001,6.4126195999999975,997.1575300000001,1,3
66.8,-0.111782536,6.994026700000001,6.4126195999999975,997.1575,1,3
66.84,-0.18381456,7.0274005000000015,6.658778,997.1673,1,3
66.88,-0.092997,7.170397299999999,6.706122,997.1174,1,3
66.92,-0.15035209,7.084599000000001,6.559356,997.1401,1,3
66.96,-0.12644927,7.0559997999999995,6.7345289999999975,997.1573,1,3
67.0,-0.15512684,7.0035677,6.8907647,997.1623,1,3
67.04,-0.26983833,7.0750660000000005,6.5877633,997.1422,1,3
67.08,-0.20769835,7.0512333,6.7534676,997.1873,1,3
67.12,-0.20291728,7.0798326000000005,7.080141499999999,997.1748,1,3
67.16,-0.15989523,7.246662,6.6445765,997.1901,1,3
67.2,-0.19813114,7.2228284,6.796078,997.1952,1,3
67.24,-0.2889449,7.141797500000001,6.6493115000000005,997.2077,1,3
67.28,-0.17900558,7.2657285000000025,6.909704,997.2102,1,3
67.32,-0.28415999999999997,7.170397,6.838688,997.2202,1,3
67.36,-0.18378029999999998,7.16563,6.810282000000001,997.20514,1,3
67.4,-0.18378029999999998,7.16563,6.810282000000001,997.2303,1,3
67.44,-0.31283242,7.022633,6.6351094,997.2072,1,3
67.48,-0.19811335,6.970200999999999,6.706125699999999,997.2579,1,3
67.52,-0.04993692,7.198995599999999,6.9097050000000015,997.24255,1,3
67.56,-0.13119105,7.30386,6.6067038,997.2402,1,3
67.6,-0.1885474,7.2514270000000005,7.0659410000000005,997.2624,1,3
67.64,-0.4896713,6.8701034,6.805549000000001,997.27515,1,3
67.68,-0.22200099,7.117964,6.5735636,997.2725,1,3
67.72,-0.16942063,7.0464654000000015,7.1274896,997.2701400000001,1,3
67.76,-0.45142645,6.9320683,6.5877669999999995,997.3205,1,3
67.8,-0.28466284,7.079844500000001,6.9191270000000005,997.2850300000001,1,3
67.84,-0.03135225,7.046479,7.454113499999999,997.2975,1,3
67.88,-0.06961924,7.137044,7.032748,997.2775,1,3
67.92,-0.18912384,7.017881,6.791293,997.3001,1,3
67.96,0.049837797999999996,7.137045,6.8339,997.295,1,3
68.0,0.107185945,7.070314,6.7581487000000005,997.3375,1,3
68.04,0.030699566,6.984516,6.772351,997.3226,1,3
68.08,0.20275347,7.1322794000000025,6.92385,997.3254400000001,1,3
68.12,0.14537682,7.2991095,6.5687685,997.33765,1,3
68.16,-0.12709102,7.075082000000001,6.8954406000000015,997.34015,1,3
68.2,-0.18447721,7.1322813,6.833889999999999,997.3276,1,3
68.24,-0.21316555,7.036950599999999,6.758139,997.3450300000001,1,3
68.28,-0.22753349,6.994052000000001,7.0753417,997.33746,1,3
68.32,-0.060259394,7.1561155,6.4740699999999975,997.38275,1,3
68.36,0.030537843999999998,7.084617,7.293121000000001,997.3477,1,3
68.4,-0.055508100000000005,7.0417190000000005,6.885961,997.3577,1,3
68.44,-0.20849037,7.094152,6.8859580000000005,997.3602,1,3
68.48,-0.11291334,7.051253,7.160552,997.3777,1,3
68.52,-0.13682187,7.060786200000001,7.2599740000000015,997.3751,1,3
68.56,-0.29935426,7.051253999999999,6.601889599999999,997.40765,1,3
68.6,-0.03650307,7.056021,6.961701400000001,997.3725,1,3
68.64,-0.03650307,7.056021,6.961701400000001,997.3625,1,3
68.68,-0.046081714,7.0607880000000005,6.511931,997.3725599999999,1,3
68.72,-0.09868806599999999,7.0226564,7.0563845999999995,997.4176,1,3
68.76,-0.098707095,7.0226564,6.7675842999999976,997.4027,1,3
68.8,-0.15607426,7.032190299999999,6.938022,997.4027,1,3
68.84,-0.15560679,7.0989113,6.7392199999999995,997.4303,1,3
68.88,-0.09346934,7.0655449999999975,6.9854093,997.3901400000001,1,3
68.92,0.0069065540000000005,7.156110000000001,7.070628,997.4177,1,3
68.96,-0.22730386,6.9749804000000015,6.8812523,997.43787,1,3
69.0,-0.26076245,6.9273148,6.8055020000000015,997.4351,1,3
69.04,-0.15560679,7.1036773,6.919127499999999,997.4452,1,3
69.08,-0.098249145,7.1036773,6.9901433000000015,997.4403,1,3
69.12,-0.174726,7.1179767000000025,6.9049244000000005,997.4426,1,3
69.16,-0.16994621,7.0941443,6.9806743,997.4604,1,3
69.2,-0.19862503,7.1132107000000016,7.141644500000001,997.45026,1,3
69.24,-0.15082698,7.060778,6.743954,997.4854,1,3
69.28,-0.016992494,7.1084437000000005,6.6492662,997.4554,1,3
69.32,-0.21774423,7.079844500000001,6.4267497,997.4278,1,3
69.36,-0.11258857,7.1179767000000025,6.843377,997.4752,1,3
69.4,-0.22730386,7.027412400000001,7.1511130000000005,997.46783,1,3
69.44,-0.18906543,7.146576,6.772361,997.4854,1,3
69.48,-0.15560679,7.137042999999999,6.8149705,997.4825,1,3
69.52,-0.15560679,7.137042999999999,6.8149705,997.4674699999999,1,3
69.56,-0.13648759,7.146576,6.758157700000001,997.4878,1,3
69.6,-0.07912994,7.218075,6.8575800000000005,997.4903,1,3
69.64,-0.19384523,7.084611,6.8670490000000015,997.48004,1,3
69.68,-0.09346934,7.151342999999999,6.876517999999999,997.50775,1,3
69.72,-0.03133189,7.2323747,6.767626299999999,997.53015,1,3
69.76,-0.03133189,7.179942,6.6587353,997.5051,1,3
69.8,-0.16010164,7.060771000000001,6.8149967,997.54034,1,3
69.84,-0.18398926,7.0989036999999975,6.6066833,997.5151400000001,1,3
69.88,-0.2939133,7.0321712,6.777123,997.48975,1,3
69.92,-0.11226365,7.2609660000000025,6.7487183,997.5401,1,3
69.96,-0.19828872,7.117967999999999,6.890751400000001,997.5249,1,3
70.0,-0.12658024,7.1799335000000015,6.9286274999999975,997.5427,1,3
70.04,-0.12658024,7.1799335000000015,6.9286274999999975,997.5503,1,3
70.08,-0.05964585400000001,7.260965,6.7723937,997.5352,1,3
70.12,-0.17434973,7.108434700000001,6.710848299999999,997.5678,1,3
70.16,-0.26038049999999996,7.0369363,6.7439895000000005,997.5402,1,3
70.2,-0.16476732,7.108434,6.9759765,997.5854,1,3
70.24,-0.17910102,7.098901299999999,6.886023,997.5473599999999,1,3
70.28,-0.11217805,7.1894655,6.6398350000000015,997.5675699999999,1,3
70.32,-0.18385796,7.0941339999999995,6.928635000000001,997.6051,1,3
70.36,-0.23164463,7.146565,6.6066966,997.56,1,3
70.4,-0.3128898,7.056000699999999,6.9333715,997.6,1,3
70.44,-0.21250257,7.127499,6.781872,997.5674,1,3
70.48,-0.15991329999999998,7.175164,6.8907637999999976,997.58,1,3
70.52,-0.12644897,7.1989965,6.824483,997.5948,1,3
70.56,-0.15510495,7.16563,6.786609599999999,997.585,1,3
70.6,-0.18855791,7.170397,6.654047,997.6054,1,3
70.64,-0.2554637,7.1703963,6.6540479999999995,997.60504,1,3
70.68,-0.26023779999999996,7.156096499999999,6.725065,997.6098,1,3
70.72,-0.18374953,7.1131972999999995,7.0848804,997.6048,1,3
70.76,-0.116815135,7.2085276,6.710864,997.5948,1,3
70.8,-0.22161302,7.132254,6.8718667,997.6123,1,3
70.84,-0.23592709,7.13702,6.502585,997.6249,1,3
70.88,-0.17376427,7.141786,6.796120599999999,997.6227,1,3
70.92,-0.29323405,7.0702869999999995,7.0423117,997.6202,1,3
70.96,-0.24541068,7.113186,6.710906,997.62994,1,3
71.0,-0.12111039,7.160850999999999,6.8624089999999995,997.6299,1,3
71.04,-0.07328703,7.2418814,6.5925503,997.62,1,3
71.08,-0.06849453,7.227581,6.677771000000001,997.6753,1,3
71.12,-0.14493337,7.1799145000000015,6.602024,997.6727,1,3
71.16,-0.20704547,7.0941160000000005,7.042325999999999,997.67,1,3
71.2,-0.23093185,7.184680499999999,6.6067615,997.6850599999999,1,3
71.24,-0.11619116,7.179913000000001,6.805609,997.6678,1,3
71.28,-0.09703393,7.284776,6.464736,997.66254,1,3
71.32,-0.2212835,7.0416813,7.0281324000000005,997.6773,1,3
71.36,-0.22605065,7.055981,7.0281334000000015,997.71295,1,3
71.4,-0.101750374,7.1894445000000005,6.644648599999999,997.6751,1,3
71.44,-0.17818919,7.327673,6.852966,997.69006,1,3
71.48,-0.20207557,7.227575,6.767747999999999,997.6849,1,3
71.52,-0.24027601,7.2085075,6.639922,997.6796,1,3
71.56,-0.14465454,7.2371063,6.6920033,997.6976,1,3
71.6,-0.044265985,7.270472,6.7062078,997.7275,1,3
71.64,-0.16851555,7.1894407000000005,6.583114999999999,997.7375,1,3
71.68,-0.12547195,7.1465397,6.829306599999999,997.7477,1,3
71.72,-0.17324464,7.160839999999999,6.7204175,997.7425,1,3
71.76,-0.12543395,7.160839599999999,6.7251534,997.7299,1,3
71.8,-0.07838195,7.203757,6.772428999999999,997.74,1,3
71.84,-0.10228729,7.2704887000000005,6.5925210000000005,997.7524400000001,1,3
71.88,-0.19310993,7.184691,6.8103027,997.7473,1,3
71.92,-0.34607,7.1227255000000005,6.8008337,997.76996,1,3
71.96,-0.2887187,7.141792,6.7582235,997.7299,1,3
72.0,-0.264826,7.089360000000001,6.9097240000000015,997.7749,1,3
72.04,-0.13099466,7.232357,6.928661,997.7874,1,3
72.08,-0.07842637,7.24189,6.625658500000001,997.73975,1,3
72.12,-0.17880857,7.2323575,6.654064,997.74725,1,3
72.16,-0.30787283,7.0988940000000005,6.7960954,997.7749,1,3
72.2,-0.31265575,7.1131934999999995,6.75822,997.7973,1,3
72.24,-0.3270015,7.1084274999999995,6.848172999999999,997.7745,1,3
72.28,-0.38914216,7.070295,6.630389999999999,997.7799,1,3
72.32,-0.47518498,7.1465592000000004,6.6540612999999995,997.8074,1,3
72.36,-0.15972745,7.203759,6.976000999999999,997.7874,1,3
72.4,-0.11193257599999999,7.237124400000001,6.994937400000001,997.8149,1,3
72.44,0.045794636,7.375355,6.573575,997.81244,1,3
72.48,0.0075498223,7.227591499999999,6.7960910000000005,997.7997,1,3
72.52,-0.13107084,7.046463,6.786622,997.84,1,3
72.56,-0.18365499999999998,7.05123,6.8387,997.7945,1,3
72.6,-0.21712315,7.208525999999999,6.6871979999999995,997.8325,1,3
72.64,-0.030717157000000002,7.2132929999999975,7.009137,997.8095,1,3
72.68,-0.03072349,7.32769,6.9949330000000005,997.8273300000001,1,3
72.72,-0.15500472,7.165627499999999,6.61618,997.8247,1,3
72.76,-0.13111204,7.0559970000000005,7.122761,997.8547,1,3
72.8,-0.13111204,7.0559970000000005,7.122761,997.8573,1,3
72.84,0.02170211,7.165630999999999,6.4788694000000016,997.837,1,3
72.88,-0.14082265,7.022635,6.886027,997.8723,1,3
72.92,-0.026118747999999997,7.0655339999999995,6.990183,997.8471,1,3
72.96,-0.0022368282000000002,7.0321684000000015,6.526209400000001,997.8570599999999,1,3
73.0,-0.0022368282000000002,7.0321684000000015,6.526209400000001,997.8902,1,3
73.04,0.012079731000000002,7.0893679999999994,6.720317999999999,997.8872,1,3
73.08,0.040752828,7.0893683,6.8102713,997.8598599999999,1,3
73.12,-0.08353345,7.2800307,6.7723949999999995,997.8974599999999,1,3
73.16,-0.27474272,7.0369368,7.2126927,997.8644400000001,1,3
73.2,-0.10268126,6.9940380000000015,7.1984887,997.8539999999999,1,3
73.24,-0.035775386,7.0893692999999995,6.8434076,997.88995,1,3
73.28,-0.007102295799999998,7.189467999999999,6.649296799999999,997.8924599999999,1,3
73.32,-0.21265095,7.0226380000000015,7.037516,997.9148,1,3
73.36,-0.29391336,6.979739,7.094328,997.94006,1,3
73.4,-0.33216316,6.9177740000000005,7.0801240000000005,997.9045,1,3
73.44,-0.2031199,6.9320745,6.8718095,997.9273,1,3
73.48,-0.05973716,7.1084369999999995,6.942824400000001,997.8946,1,3
73.52,-0.1601245,7.0131063,6.710837400000001,997.9399,1,3
73.56,-0.22704744,7.0131070000000015,6.7913217999999995,997.9422599999999,1,3
73.6,-0.30354142,6.9845076,7.037509399999999,997.9323,1,3
73.64,-0.30354714,6.994041,7.1227279999999995,997.9197,1,3
73.68,-0.05978854,7.127505,6.819725,997.9472,1,3
73.72,0.045355722,7.179937,7.0327716,997.9169300000001,1,3
73.76,-0.22232471,6.846278,6.928614,997.9371,1,3
73.8,-0.22233614,7.0703070000000015,6.8765345,997.9548300000001,1,3
73.84,-0.32692006,7.008327499999999,6.938134,997.9371,1,3
73.88,-0.15483573,7.022627000000001,7.028089,997.96234,1,3
73.92,-0.15960415,7.1036577,6.6919475,997.9674,1,3
73.96,-0.11179467,7.0369262999999975,7.0044193,997.9596,1,3
74.0,-0.1739207,6.9749603,6.9239354,997.95715,1,3
74.04,-0.17390926,6.960661,6.919202,997.9772,1,3
74.08,-0.15955845,7.0226254,6.8339834,997.9774,1,3
74.12,-0.13086824,7.017858500000001,7.1795964,997.9797,1,3
74.16,0.026876748,7.1370225000000005,6.7771729999999994,997.98975,1,3
74.2,0.23241968,7.1656213000000015,7.155925999999999,997.9773,1,3
74.24,0.23720522,7.170387700000001,7.084910400000001,998.0048,1,3
74.28,-0.18339470000000002,6.960659,6.5167847000000005,998.0024,1,3
74.32,-0.11168624,7.0321565,6.9192100000000005,997.98425,1,3
74.36,-0.13079402,7.075055,6.7014284,998.03,1,3
74.4,0.21336325,7.2847834,6.886070699999999,998.0274699999999,1,3
74.44,0.08431998,7.280017,6.9665565,997.9822,1,3
74.48,0.108224705,7.351515299999999,6.9428854000000015,998.0473,1,3
74.52,0.026979476000000002,7.0083227,7.297967,998.0399,1,3
74.56,0.14648594,7.151319,6.819792999999999,998.0399,1,3
74.6,0.0031089783,6.9654229999999995,6.4221044,998.0273,1,3
74.64,0.027019367000000002,7.017854700000001,6.9239526,998.0274,1,3
74.68,0.09872216,7.075053,6.744045699999999,998.0219999999999,1,3
74.72,0.24212767,7.213283500000001,6.905017,998.0395,1,3
74.76,0.036613226,7.151317,6.720376,998.0624,1,3
74.8,0.0029073209000000004,7.1465570000000005,6.8434479999999995,998.0751,1,3
74.84,-0.1213663,7.022626400000001,7.070699,998.0599,1,3
74.88,-0.08790642,7.084591400000001,7.0280905,998.0549,1,3
74.92,-0.17394161,6.9082294000000015,6.758229300000001,998.0799599999999,1,3
74.96,-0.15482175,6.9606614,6.6777444,998.06714,1,3
75.0,-0.08790262,6.9701943,6.852917,998.085,1,3
75.04,-0.035324126000000004,7.0369262999999975,6.824511,998.1177,1,3
75.08,0.15586992,7.237121000000001,7.0849032,998.1076,1,3
75.12,0.036376074,7.1131910000000005,6.8813243,998.1256,1,3
75.16,0.06505555,7.227588000000001,6.6588073,998.1227,1,3
75.2,-0.16915298,6.9415949999999995,6.999685,998.1228,1,3
75.24,-0.078336045,6.9797273,6.9428716,998.1404,1,3
75.28,0.007702321,6.998794,6.852917999999999,998.1152,1,3
75.32,0.16065668,7.151323,6.744027,998.14276,1,3
75.36,0.3040521,7.227587700000001,6.8576527,998.1276,1,3
75.4,0.20367746,7.117956599999999,6.687214999999999,998.14545,1,3
75.44,0.017267018999999998,7.0512257,6.914466,998.1376300000001,1,3
75.48,-0.044869177,7.060758,6.8197779999999995,998.1451400000001,1,3
75.52,-0.13090436,7.022626,7.0612330000000005,998.1300699999999,1,3
75.56,0.05550927,7.122723599999999,6.9239354,998.1276,1,3
75.6,0.04595092,7.0941243,6.7487619999999975,998.1401400000001,1,3
75.64,0.12242839999999999,7.1274904999999995,6.8103093999999995,998.17285,1,3
75.68,0.05551307,7.075058,6.7108880000000015,998.1831,1,3
75.72,0.06029348,7.151323,6.5451837,998.2030599999999,1,3
75.76,0.012497351,7.041692299999999,7.0091553,998.198,1,3
75.8,-0.0062747747,7.0416837,7.023390299999999,998.1933,1,3
75.84,0.017631844,7.0655164999999975,6.9713125,998.2131,1,3
75.88,0.055893122999999996,7.113181599999999,6.649375,998.2058,1,3
75.92,0.060688152999999995,7.0941149999999995,6.919237,998.22565,1,3
75.96,-0.030112892000000002,7.0845814,6.6257057,998.21075,1,3
76.0,-0.14003322,7.0321484,6.919239999999999,998.2184,1,3
76.04,-0.14002557,7.0035490000000005,7.0376009999999996,998.2309,1,3
76.08,-0.0013960451,7.1179457,6.881367,998.2180000000001,1,3
76.12,0.20893817,7.222810000000001,6.99026,998.1927,1,3
76.16,0.12291692,7.156078,6.5831029999999995,998.2384,1,3
76.2,-0.08259942,7.0988789999999975,6.62098,998.2509,1,3
76.24,-0.063472606,7.0750455999999975,6.559433500000001,998.2535,1,3
76.28,0.24245767,7.28954,7.1938452999999996,998.27356,1,3
76.32,-0.015636548,7.256173599999999,7.0234084,998.2735,1,3
76.36,-0.11121738,7.1131773,7.1985826,998.2457,1,3
76.4,-0.11121738,7.1131773,7.1985826,998.2934,1,3
76.44,-0.13987339,7.098877000000001,6.9665985,998.2535,1,3
76.48,-0.04426209,7.1989740000000015,6.942928,998.26074,1,3
76.52,0.065688625,7.31337,7.0802274,998.2557,1,3
76.56,0.12306912,7.389635,6.9760729999999995,998.26324,1,3
76.6,-0.01553002,7.308603999999999,7.2838106,998.2835,1,3
76.64,-0.025074348,7.3229027,6.8813877,998.2785,1,3
76.68,-0.044186004,7.356269,6.876653,998.2833,1,3
76.72,-0.115867786,7.2609367,7.1275783,998.31854,1,3
76.76,0.041888535,7.422999400000001,7.1039080000000006,998.3113,1,3
76.8,0.07911827,7.518355400000001,7.037534700000001,998.3013,1,3
76.84,0.05042678,7.4992895000000015,7.0612054,998.33136,1,3
76.88,-0.14080344,7.384893400000001,7.004389,998.3088,1,3
76.92,0.036023945,7.513590299999999,7.174825,998.32605,1,3
76.96,-0.02613885,7.370594500000001,7.439949499999999,998.32605,1,3
77.0,0.08855104400000001,7.5946235999999985,7.1748204,998.31854,1,3
77.04,-0.0070576966000000015,7.527891,7.032787,998.31604,1,3
77.08,-0.021409765,7.542191499999999,7.0990677,998.3361,1,3
77.12,0.050236552999999996,7.499294,7.544097,998.3389,1,3
77.16,0.093242094,7.566026,7.321579499999999,998.32355,1,3
77.2,0.14580725,7.6089259999999985,7.127467,998.3285,1,3
77.24,0.09797117,7.5707936,7.1748075,998.3537,1,3
77.28,0.069279686,7.6422919999999985,7.099056,998.33386,1,3
77.32,-0.12671767,7.4516306,7.4825399999999975,998.35895,1,3
77.36,-0.1267557,7.418265299999999,7.4257244999999985,998.3389,1,3
77.4,-0.10286938,7.4659320000000005,7.4493956999999975,998.3489,1,3
77.44,0.04527922,7.5231309999999985,7.2174070000000015,998.3537,1,3
77.48,0.07871245,7.537431,7.1795297000000025,998.34644,1,3
77.52,-0.10772528,7.5278990000000015,7.2789497,998.35895,1,3
77.56,-0.26549685,7.346771,7.501463,998.3841,1,3
77.6,-0.17469326,7.4230356,7.79973,998.35144,1,3
77.64,0.102497324,7.623232400000001,7.340489,998.37146,1,3
77.68,0.14550288,7.6661315000000005,7.5014577000000005,998.37646,1,3
77.72,-0.012268692,7.4421043000000004,7.245796,998.3439300000001,1,3
77.76,-0.06485923,7.408738599999999,7.0848246,998.38904,1,3
77.8,-0.14086181,7.3896604,7.118009,998.3789999999999,1,3
77.84,-0.116970375,7.418259599999999,7.241103,998.37897,1,3
77.88,-0.13609217,7.418259599999999,7.3310559999999985,998.3712,1,3
77.92,-0.016602129,7.389661,7.5393696,998.37396,1,3
77.96,-0.059627957999999995,7.2657313,7.018584700000001,998.3486300000001,1,3
78.0,-0.059630483,7.2180657,6.9475684000000015,998.3865,1,3
78.04,0.08375853,7.2514305,7.056458999999999,998.3815300000001,1,3
78.08,0.10765253,7.32293,6.8576136,998.38904,1,3
78.12,-0.030966885,7.237131599999999,7.231631299999999,998.3839999999999,1,3
78.16,-0.050093733,7.175167,7.1558800000000025,998.3893,1,3
78.2,-0.0070780367,7.113202,7.3641934000000004,998.3941,1,3
78.24,0.026375532,7.1656337,7.326318,998.37646,1,3
78.28,0.16976456,7.275264999999999,6.753454,998.3916,1,3
78.32,0.059821500000000014,7.0846024000000005,6.999642999999999,998.3993,1,3
78.36,-0.02143769,7.046469999999999,6.938095599999999,998.3866,1,3
78.4,-0.09313731,7.046469999999999,6.966500999999999,998.3841,1,3
78.44,-0.021447852000000003,7.127502400000001,7.326316,998.40436,1,3
78.48,0.18885843,7.165634,7.4304724,998.3866,1,3
78.52,0.246211,7.2657332,6.9522967000000016,998.3966,1,3
78.56,0.16494928,7.0798372999999994,6.786592,998.387,1,3
78.6,0.08846988,6.9988055,6.696638,998.3841,1,3
78.64,0.05978596200000001,6.960673299999999,6.8812795,998.4071,1,3
78.68,-0.09317284,6.9797397,6.833935,998.4016,1,3
78.72,0.088452086,7.0798380000000005,7.288437400000001,998.4016,1,3
78.76,0.16014408,7.10367,6.961763,998.35645,1,3
78.8,0.16553114,7.0702896,6.881334,998.3842,1,3
78.84,0.13686188,7.0607557,6.881335000000001,998.3539999999999,1,3
78.88,0.03650503,7.032156,6.819789,998.3968,1,3
78.92,-0.15943842,6.9606576,7.056512,998.3966,1,3
78.96,-0.15943842,6.9606576,7.056512,998.37146,1,3
79.0,-0.10684155,7.0178556,7.0233726999999995,998.3941,1,3
79.04,0.012672543500000001,7.084587,7.2032820000000015,998.37646,1,3
79.08,0.12741642,7.113185400000001,7.0186424,998.3842,1,3
79.12,0.15610476,7.098886,7.004440299999999,998.3815,1,3
79.16,0.041417986000000004,6.9511213000000005,6.772456599999999,998.3539400000001,1,3
79.2,-0.030269556,6.922522,6.9050217000000025,998.3741,1,3
79.24,0.007997423,6.912988,6.980774,998.3839999999999,1,3
79.28,0.0032271296000000002,7.008319,6.9286966,998.37396,1,3
79.32,-0.015863597,6.9940186,6.919231,998.3689999999999,1,3
79.36,-0.015854076,6.998785499999999,6.933435,998.37646,1,3
79.4,-0.015835017,6.951119,7.198562599999999,998.3895,1,3
79.44,-0.06839385,6.8891535,7.099142,998.36694,1,3
79.48,0.041551158,7.051216,6.8434854000000005,998.3665,1,3
79.52,-0.05402588,6.974951299999999,7.0233946,998.3789999999999,1,3
79.56,-0.12091462,6.927284200000001,6.843489599999999,998.3692,0,0
79.6,-0.0922263,6.9558835000000006,6.852958999999999,998.38666,0,0
79.64,-0.0013909935999999999,6.912984,7.231714,998.3916,0,0
79.68,0.03208667,6.979715,7.160699,998.3665,0,0
79.72,0.12771125,7.0273805,6.97606,998.38904,0,0
