Timestamp,Ax,Ay,Az,P,Value,Type
0.0,5.25656,0.22970238,5.4943550000000005,999.4809,0,0
0.04,6.0356190000000005,0.5347633,5.4612102999999985,999.4744,0,0
0.08,6.4895535,0.27260622,7.691101,999.48755,0,0
0.12,5.9780655,-0.8380003,7.695831299999999,999.49567,0,0
0.16,6.4272695,-0.4328406,7.4259615,999.4938,0,0
0.2,7.0006995,-0.037212852000000005,7.2176337,999.512,0,0
0.24,6.909835,-0.35180438,7.0803323,999.4975,0,0
0.28,7.8512607,0.16298866,6.9808917,999.4859,0,0
0.32,7.148532,-0.08010343,6.213908999999999,999.48193,0,0
0.36,7.23452,-0.16590023,6.2896550000000016,999.49225,0,0
0.4,7.420833999999997,-0.29459488,6.715742999999999,999.49713,0,0
0.44,7.568958999999999,-0.1992626,6.5263620000000016,999.4946,0,0
0.48,7.535403,-0.46618736,6.327508,999.50824,0,0
0.52,7.4970183000000015,-0.3470198,6.081306,999.48615,0,0
0.56,7.4300523,-0.39468414,5.565251,999.50494,0,0
0.6,8.075178999999999,-0.6091757,5.011312,999.5093,0,0
0.64,8.3093405,-0.86180204,6.526317,999.4992,0,0
0.68,8.610372,-0.87133276,5.6646465999999975,999.48444,0,0
0.72,8.825269,-0.6425331,4.755624,999.52057,0,0
0.76,9.389184,-0.4089695,5.176975700000002,999.51575,0,0
0.8,9.193111,-0.8808560999999999,4.8692303,999.5044,0,0
0.84,8.91578,-0.91421956,5.328459,999.5221,0,0
0.88,8.848813,-0.95711726,4.817138,999.5052,0,0
0.92,8.595381,-0.8617836,3.73295,999.4956,0,0
0.96,9.34571,-1.0619766000000002,4.106959,999.4907,0,0
1.0,9.206994,-1.1620718,4.2537165,999.50903,0,0
1.04,9.096957000000002,-1.3860974,3.9222982,999.49994,0,0
1.08,9.211572,-1.3193631,3.7755227,999.5073,0,0
1.12,8.881561,-1.8293797,4.1779284,999.4906,0,0
1.16,8.523025500000001,-2.1487380000000003,3.6334672,999.5267,0,0
1.2,8.073572,-1.8293748,3.6003125,999.5124,0,0
1.24,8.34119,-1.8007741999999998,4.443032,999.52246,0,0
1.28,8.608708,-2.1010633,4.7034097,999.48846,0,0
1.32,8.570416999999999,-1.9056336,4.566107700000001,999.5159,0,0
1.36,8.46994,-1.8484323,4.196815,999.5021,0,0
1.4,8.436432,-1.9580618000000003,4.064247,999.48553,0,0
1.44,8.149542,-2.143955,4.2110043,999.5155,0,0
1.48,8.374092,-2.2631166,5.0205784000000016,999.5085,0,0
1.52,8.574692,-2.0057187,4.8406568,999.5065,0,0
1.56,8.737153999999999,-1.8436546000000005,4.8690586,999.49713,0,0
1.6,8.584099,-1.9389833,4.845377,999.47797,0,0
1.64,8.392805000000001,-1.6625205,4.5328975,999.4781,0,0
1.68,8.335345,-1.9675776000000005,4.8311553,999.51654,0,0
1.72,8.495067,-2.5539129000000003,4.589883,999.49194,0,0
1.76,8.475938000000001,-2.7255087,4.6324916,999.5328,0,0
1.8,8.523707,-2.7112083,4.7177086,999.5029,0,0
1.84,8.538037,-2.4871798,4.9544277,999.48846,0,0
1.88,8.609716,-2.4109144,4.9875665,999.50867,0,0
1.92,8.265551,-2.010523,3.8086984,999.4996,0,0
1.96,8.413706,-2.1201537,4.4147005,999.51715,0,0
2.0,8.303751,-2.463345,4.433636,999.5129,0,0
2.04,8.724356,-2.7493380000000003,4.793449,999.52045,0,0
2.08,8.643078,-2.7684040000000003,4.5472584000000005,999.4934,0,0
2.12,9.025435,-2.768403,4.3294735,999.48944,0,0
2.16,9.183158,-2.5205421,4.381551,999.5124,0,0
2.2,8.805525999999997,-2.3870776,4.0927496,999.523,0,0
2.24,8.599985,-2.4204433,3.993326,999.51324,0,0
2.28,8.064627999999999,-2.9352312,3.960183400000002,999.5066,0,0
2.32,8.098067,-3.1497257000000003,4.400481,999.49115,0,0
2.36,8.265342,-3.0496275,4.514106,999.48987,0,0
2.4,8.370486999999999,-3.1020594,4.457292,999.50494,0,0
2.44,8.317881,-3.18309,4.4620233,999.50494,0,0
2.48,8.36088,-3.073459,4.514100599999999,999.51855,0,0
2.52,8.403889,-2.887563,4.4336147000000015,999.5016,0,0
2.56,8.470787,-2.5872693,4.457285,999.507,0,0
2.6,8.561584,-2.4919376,4.1353436000000015,999.52,0,0
2.64,8.313005,-3.4118826,4.717673,999.518,0,0
2.68,8.083566000000001,-3.478614,4.6892653,999.50775,0,0
2.72,8.559353,-2.901807,4.106733,999.51886,0,0
2.76,8.774341,-2.4156158,3.997832,999.53156,0,0
2.8,8.798138,-2.6348746,4.1209173,999.5321,0,0
2.84,8.382193,-2.8255343,4.2818775,999.53,0,0
2.88,8.458567,-3.030494,3.8273654,999.508,0,0
2.92,8.534991999999999,-3.3212528,4.163503,999.5031,0,0
2.96,8.649606,-3.0161905,4.314995,999.51355,0,0
3.0,8.792896,-2.9589891,4.3528605,999.5141,0,0
3.04,8.902678,-2.844588,4.101923,999.525,0,0
3.08,8.639686,-2.9732826,3.8983345,999.5177,0,0
3.12,8.558327,-2.8064506,4.0498257,999.52057,0,0
3.16,8.424439,-2.701585,4.2818074,999.5104,0,0
3.2,8.61075,-2.5013871,4.097155600000002,999.5091,0,0
3.24,8.457642,-2.6634464,4.286518,999.49194,0,0
3.28,8.467151,-2.60148,4.352795,999.5073,0,0
3.32,8.634341000000001,-2.420348,4.7315383,999.49036,0,0
3.36,8.395247999999999,-2.858869,4.1681339999999985,999.5004,0,0
3.4,8.294821,-2.997098,4.12552,999.4932,0,0
3.44,8.438112,-2.877931,4.4379816,999.479,0,0
3.48,8.700898,-2.5967019,4.4095654,999.47845,0,0
3.52,8.915887,-2.310706,4.3480086,999.48413,0,0
3.56,8.695862,-2.7110932,3.7846005,999.4848,0,0
3.6,8.624114,-2.825489,3.6993766,999.4607,0,0
3.64,8.6382475,-2.8540833,3.3821526,999.50574,0,0
3.68,8.563037,-2.9589787,3.4627535000000003,999.4882,0,0
3.72,8.132806,-3.3689015,3.789423,999.46936,0,0
3.76,8.084958,-3.426099,3.8557,999.494,0,0
3.8,8.629782,-3.059072,4.1302886,999.47424,0,0
3.84,8.629782,-3.059072,4.1302886,999.4777,0,0
3.88,8.969097999999997,-2.6396139,4.24391,999.47534,0,0
3.92,8.796975999999997,-2.61578,3.7988713,999.4853,0,0
3.96,8.925956,-2.4680150000000003,3.8414742999999993,999.4745,0,0
4.0,8.935492,-2.5156798,4.026114,999.4594,0,0
4.04,8.801583,-2.496612,4.168139,999.4724,0,0
4.08,8.873256,-2.4727783,4.224949400000002,999.4749,0,0
4.12,8.744150999999999,-2.6348403,4.2438827,999.48535,0,0
4.16,8.605464,-2.7301695,4.21547,999.4758,0,0
4.2,8.533741000000001,-2.7778344,4.092373,999.4788,0,0
4.24,8.524108,-2.9160628,4.0686936000000005,999.4985,0,0
4.28,8.4380455,-3.0161598,4.035551,999.4967,0,0
4.32,8.519252999999999,-3.001859,3.8887799,999.4842,0,0
4.36,8.562197,-2.820728,3.9077106,999.4597,0,0
4.4,8.600411,-2.7635286,3.9077082,999.4653,0,0
4.44,8.662499,-2.6062312000000003,3.9597824,999.48004,0,0
4.48,8.681567999999999,-2.701561,4.2391076,999.46155,0,0
4.52,8.738877,-2.6872602000000003,4.286447,999.471,0,0
4.56,8.58585,-2.9017534,4.267503,999.45374,0,0
4.6,8.456769,-2.8254876,4.0544524,999.45734,0,0
4.64,8.466279,-2.8350197999999995,3.8035243,999.47217,0,0
4.68,8.441987,-2.825477,4.0875525,999.45264,0,0
4.72,8.494502,-2.8588414,4.2106414,999.46466,0,0
4.76,8.580442999999999,-2.6443439,4.134882,999.5113,0,0
4.8,8.599530999999999,-2.6157439,4.0354567,999.4661,0,0
4.84,8.714183,-2.6443417,4.0591230000000005,999.4965,0,0
4.88,8.733238,-2.6538732000000005,4.106461,999.4895,0,0
4.92,8.63761,-2.5680742000000003,4.177474,999.5024,0,0
4.96,8.718803,-2.7539685,4.0733120000000005,999.5073,0,0
5.0,8.561007,-2.8874304,4.1395874,999.49036,0,0
5.04,8.689999,-2.6062024,4.1963944,999.5083,0,0
5.08,8.737701,-2.3488057,4.234261,999.4901,0,0
5.12,8.728109,-2.3774045,4.3100085,999.5129,0,0
5.16,8.551193,-2.458434,4.205846,999.5034,0,0
5.2,8.608488000000001,-2.4488995,4.3952165,999.48413,0,0
5.24,8.751819,-2.4774973,4.470961,999.49927,0,0
5.28,8.636975999999999,-2.758721,4.172682,999.48694,0,0
5.32,8.665623,-2.696755,4.253164,999.50006,0,0
5.36,8.684711,-2.5251582000000004,4.2010827000000015,999.4951,0,0
5.4,8.6177,-2.5823548,4.1584644,999.4902,0,0
5.44,8.560309,-2.925546,4.096914,999.50037,0,0
5.48,8.550655,-2.896944,4.1016397000000016,999.48065,0,0
5.52,8.598421,-2.9112432,4.125309,999.50037,0,0
5.56,8.79433,-2.7015128,4.0874276,999.4613,0,0
5.6,8.67955,-2.8969402,4.1110940000000005,999.4761,0,0
5.64,8.569552,-2.8492732000000003,3.9075086,999.4889,0,0
5.68,8.670944,-2.5537715,4.1301193,999.49713,0,0
5.72,8.690055000000001,-2.558538,4.1301184,999.4795,0,0
5.76,8.6470175,-2.5537708,4.1206474,999.4745,0,0
5.8,8.584861,-2.5490037999999995,4.1443176,999.49536,0,0
5.84,8.479686000000001,-2.4346063,4.0354247,999.50006,0,0
5.88,8.446197999999999,-2.1772113,3.874452,999.5003,0,0
5.92,8.790335,-1.9245836,3.8839202,999.4655,0,0
5.96,9.191828999999998,-1.8816843,3.5761830000000003,999.47815,0,0
6.0,8.900242,-2.5728347,4.0117464,999.4934,0,0
6.04,5.25656,0.22970238,5.4943550000000005,999.4809,0,0
6.08,6.0356190000000005,0.5347633,5.4612102999999985,999.4744,0,0
6.12,6.4895535,0.27260622,7.691101,999.48755,0,0
6.16,5.9780655,-0.8380003,7.695831299999999,999.49567,0,0
6.2,6.4272695,-0.4328406,7.4259615,999.4938,0,0
6.24,7.0006995,-0.037212852000000005,7.2176337,999.512,0,0
6.28,6.909835,-0.35180438,7.0803323,999.4975,0,0
6.32,7.8512607,0.16298866,6.9808917,999.4859,0,0
6.36,7.148532,-0.08010343,6.213908999999999,999.48193,0,0
6.4,7.23452,-0.16590023,6.2896550000000016,999.49225,0,0
6.44,7.420833999999997,-0.29459488,6.715742999999999,999.49713,0,0
6.48,7.568958999999999,-0.1992626,6.5263620000000016,999.4946,0,0
6.52,7.535403,-0.46618736,6.327508,999.50824,0,0
6.56,7.4970183000000015,-0.3470198,6.081306,999.48615,0,0
6.6,7.4300523,-0.39468414,5.565251,999.50494,0,0
6.64,8.075178999999999,-0.6091757,5.011312,999.5093,0,0
6.68,8.3093405,-0.86180204,6.526317,999.4992,0,0
6.72,8.610372,-0.87133276,5.6646465999999975,999.48444,0,0
6.76,8.825269,-0.6425331,4.755624,999.52057,0,0
6.8,9.389184,-0.4089695,5.176975700000002,999.51575,0,0
6.84,9.193111,-0.8808560999999999,4.8692303,999.5044,0,0
6.88,8.91578,-0.91421956,5.328459,999.5221,0,0
6.92,8.848813,-0.95711726,4.817138,999.5052,0,0
6.96,8.595381,-0.8617836,3.73295,999.4956,0,0
7.0,9.34571,-1.0619766000000002,4.106959,999.4907,0,0
7.04,9.206994,-1.1620718,4.2537165,999.50903,0,0
7.08,9.096957000000002,-1.3860974,3.9222982,999.49994,0,0
7.12,9.211572,-1.3193631,3.7755227,999.5073,0,0
7.16,8.881561,-1.8293797,4.1779284,999.4906,0,0
7.2,8.523025500000001,-2.1487380000000003,3.6334672,999.5267,0,0
7.24,8.073572,-1.8293748,3.6003125,999.5124,0,0
7.28,8.34119,-1.8007741999999998,4.443032,999.52246,0,0
7.32,8.608708,-2.1010633,4.7034097,999.48846,0,0
7.36,8.570416999999999,-1.9056336,4.566107700000001,999.5159,0,0
7.4,8.46994,-1.8484323,4.196815,999.5021,0,0
7.44,8.436432,-1.9580618000000003,4.064247,999.48553,0,0
7.48,8.149542,-2.143955,4.2110043,999.5155,0,0
7.52,8.374092,-2.2631166,5.0205784000000016,999.5085,0,0
7.56,8.574692,-2.0057187,4.8406568,999.5065,0,0
7.6,8.737153999999999,-1.8436546000000005,4.8690586,999.49713,0,0
7.64,8.584099,-1.9389833,4.845377,999.47797,0,0
7.68,8.392805000000001,-1.6625205,4.5328975,999.4781,0,0
7.72,8.335345,-1.9675776000000005,4.8311553,999.51654,0,0
7.76,8.495067,-2.5539129000000003,4.589883,999.49194,0,0
7.8,8.475938000000001,-2.7255087,4.6324916,999.5328,0,0
7.84,8.523707,-2.7112083,4.7177086,999.5029,0,0
7.88,8.538037,-2.4871798,4.9544277,999.48846,0,0
7.92,8.609716,-2.4109144,4.9875665,999.50867,0,0
7.96,8.265551,-2.010523,3.8086984,999.4996,0,0
8.0,8.413706,-2.1201537,4.4147005,999.51715,0,0
8.04,8.303751,-2.463345,4.433636,999.5129,0,0
8.08,8.724356,-2.7493380000000003,4.793449,999.52045,0,0
8.12,8.643078,-2.7684040000000003,4.5472584000000005,999.4934,0,0
8.16,9.025435,-2.768403,4.3294735,999.48944,0,0
8.2,9.183158,-2.5205421,4.381551,999.5124,0,0
8.24,8.805525999999997,-2.3870776,4.0927496,999.523,0,0
8.28,8.599985,-2.4204433,3.993326,999.51324,0,0
8.32,8.064627999999999,-2.9352312,3.960183400000002,999.5066,0,0
8.36,8.098067,-3.1497257000000003,4.400481,999.49115,0,0
8.4,8.265342,-3.0496275,4.514106,999.48987,0,0
8.44,8.370486999999999,-3.1020594,4.457292,999.50494,0,0
8.48,8.317881,-3.18309,4.4620233,999.50494,0,0
8.52,8.36088,-3.073459,4.514100599999999,999.51855,0,0
8.56,8.403889,-2.887563,4.4336147000000015,999.5016,0,0
8.6,8.470787,-2.5872693,4.457285,999.507,0,0
8.64,8.561584,-2.4919376,4.1353436000000015,999.52,0,0
8.68,8.313005,-3.4118826,4.717673,999.518,0,0
8.72,8.083566000000001,-3.478614,4.6892653,999.50775,0,0
8.76,8.559353,-2.901807,4.106733,999.51886,0,0
8.8,8.774341,-2.4156158,3.997832,999.53156,0,0
8.84,8.798138,-2.6348746,4.1209173,999.5321,0,0
8.88,8.382193,-2.8255343,4.2818775,999.53,0,0
8.92,8.458567,-3.030494,3.8273654,999.508,0,0
8.96,8.534991999999999,-3.3212528,4.163503,999.5031,0,0
9.0,8.649606,-3.0161905,4.314995,999.51355,0,0
9.04,8.792896,-2.9589891,4.3528605,999.5141,0,0
9.08,8.902678,-2.844588,4.101923,999.525,0,0
9.12,8.639686,-2.9732826,3.8983345,999.5177,0,0
9.16,8.558327,-2.8064506,4.0498257,999.52057,0,0
9.2,8.424439,-2.701585,4.2818074,999.5104,0,0
9.24,8.61075,-2.5013871,4.097155600000002,999.5091,0,0
9.28,8.457642,-2.6634464,4.286518,999.49194,0,0
9.32,8.467151,-2.60148,4.352795,999.5073,0,0
9.36,8.634341000000001,-2.420348,4.7315383,999.49036,0,0
9.4,8.395247999999999,-2.858869,4.1681339999999985,999.5004,0,0
9.44,8.294821,-2.997098,4.12552,999.4932,0,0
9.48,8.438112,-2.877931,4.4379816,999.479,0,0
9.52,8.700898,-2.5967019,4.4095654,999.47845,0,0
9.56,8.915887,-2.310706,4.3480086,999.48413,0,0
9.6,8.695862,-2.7110932,3.7846005,999.4848,0,0
9.64,8.624114,-2.825489,3.6993766,999.4607,0,0
9.68,8.6382475,-2.8540833,3.3821526,999.50574,0,0
9.72,8.563037,-2.9589787,3.4627535000000003,999.4882,0,0
9.76,8.132806,-3.3689015,3.789423,999.46936,0,0
9.8,8.084958,-3.426099,3.8557,999.494,0,0
9.84,8.629782,-3.059072,4.1302886,999.47424,0,0
9.88,8.629782,-3.059072,4.1302886,999.4777,0,0
9.92,8.969097999999997,-2.6396139,4.24391,999.47534,0,0
9.96,8.796975999999997,-2.61578,3.7988713,999.4853,0,0
10.0,8.925956,-2.4680150000000003,3.8414742999999993,999.4745,0,0
10.04,8.935492,-2.5156798,4.026114,999.4594,0,0
10.08,8.801583,-2.496612,4.168139,999.4724,0,0
10.12,8.873256,-2.4727783,4.224949400000002,999.4749,0,0
10.16,8.744150999999999,-2.6348403,4.2438827,999.48535,0,0
10.2,8.605464,-2.7301695,4.21547,999.4758,0,0
10.24,8.533741000000001,-2.7778344,4.092373,999.4788,0,0
10.28,8.524108,-2.9160628,4.0686936000000005,999.4985,0,0
10.32,8.4380455,-3.0161598,4.035551,999.4967,0,0
10.36,8.519252999999999,-3.001859,3.8887799,999.4842,0,0
10.4,8.562197,-2.820728,3.9077106,999.4597,0,0
10.44,8.600411,-2.7635286,3.9077082,999.4653,0,0
10.48,8.662499,-2.6062312000000003,3.9597824,999.48004,0,0
10.52,8.681567999999999,-2.701561,4.2391076,999.46155,0,0
10.56,8.738877,-2.6872602000000003,4.286447,999.471,0,0
10.6,8.58585,-2.9017534,4.267503,999.45374,0,0
10.64,8.456769,-2.8254876,4.0544524,999.45734,0,0
10.68,8.466279,-2.8350197999999995,3.8035243,999.47217,0,0
10.72,8.441987,-2.825477,4.0875525,999.45264,0,0
10.76,8.494502,-2.8588414,4.2106414,999.46466,0,0
10.8,8.580442999999999,-2.6443439,4.134882,999.5113,0,0
10.84,8.599530999999999,-2.6157439,4.0354567,999.4661,0,0
10.88,8.714183,-2.6443417,4.0591230000000005,999.4965,0,0
10.92,8.733238,-2.6538732000000005,4.106461,999.4895,0,0
10.96,8.63761,-2.5680742000000003,4.177474,999.5024,0,0
11.0,8.718803,-2.7539685,4.0733120000000005,999.5073,0,0
11.04,8.561007,-2.8874304,4.1395874,999.49036,0,0
11.08,8.689999,-2.6062024,4.1963944,999.5083,0,0
11.12,8.737701,-2.3488057,4.234261,999.4901,0,0
11.16,8.728109,-2.3774045,4.3100085,999.5129,0,0
11.2,8.551193,-2.458434,4.205846,999.5034,0,0
11.24,8.608488000000001,-2.4488995,4.3952165,999.48413,0,0
11.28,8.751819,-2.4774973,4.470961,999.49927,0,0
11.32,8.636975999999999,-2.758721,4.172682,999.48694,0,0
11.36,8.665623,-2.696755,4.253164,999.50006,0,0
11.4,8.684711,-2.5251582000000004,4.2010827000000015,999.4951,0,0
11.44,8.6177,-2.5823548,4.1584644,999.4902,0,0
11.48,8.560309,-2.925546,4.096914,999.50037,0,0
11.52,8.550655,-2.896944,4.1016397000000016,999.48065,0,0
11.56,8.598421,-2.9112432,4.125309,999.50037,0,0
11.6,8.79433,-2.7015128,4.0874276,999.4613,0,0
11.64,8.67955,-2.8969402,4.1110940000000005,999.4761,0,0
11.68,8.569552,-2.8492732000000003,3.9075086,999.4889,0,0
11.72,8.670944,-2.5537715,4.1301193,999.49713,0,0
11.76,8.690055000000001,-2.558538,4.1301184,999.4795,0,0
11.8,8.6470175,-2.5537708,4.1206474,999.4745,0,0
11.84,8.584861,-2.5490037999999995,4.1443176,999.49536,0,0
11.88,8.479686000000001,-2.4346063,4.0354247,999.50006,0,0
11.92,8.446197999999999,-2.1772113,3.874452,999.5003,0,0
11.96,8.790335,-1.9245836,3.8839202,999.4655,0,0
12.0,9.191828999999998,-1.8816843,3.5761830000000003,999.47815,0,0
12.04,8.900242,-2.5728347,4.0117464,999.4934,0,0
12.08,8.73293,-3.1019217999999995,4.7219057,999.4913,0,0
12.12,8.709002499999999,-2.5156348,4.243728,999.496,0,0
12.16,8.27402,-2.1390762000000003,4.0306783,999.4911,0,0
12.2,8.331358999999999,-2.2010412,3.8602378,999.5219,0,0
12.24,8.316991,-2.873125,4.721896599999999,999.4843,0,0
12.28,8.508175,-2.8302257,4.5656605,999.48236,0,0
12.32,8.742366,-2.7158277,4.2437196,999.4948,0,0
12.36,8.766246,-2.6252625,4.523048,999.4744,0,0
12.4,8.594153,-2.3821678,4.0069957,999.4996,0,0
12.44,8.785316,-2.263003,4.025931,999.51746,0,0
12.48,8.785316,-2.263003,4.025931,999.49536,0,0
12.52,9.148563,-2.1247728,4.2531805,999.5081,0,0
12.56,8.842628,-2.6776927,4.6840085999999985,999.50256,0,0
12.6,8.799601,-2.7062917,4.5135694000000015,999.5151,0,0
12.64,8.450644500000001,-2.9779847000000004,4.172689,999.4957,0,0
12.68,8.503204,-3.1972458,4.15375,999.5241,0,0
12.72,8.598791,-3.063782,3.9833105,999.4713,0,0
12.76,8.699138,-3.1114469,3.9501672,999.50116,0,0
12.8,8.708689,-3.0065823,4.106402,999.4987,0,0
12.84,8.613073,-2.5775917,3.883883,999.502,0,0
12.88,8.569389,-2.9541335,3.7654617,999.4889,0,0
12.92,8.378135,-3.211526,4.082661,999.49347,0,0
12.96,8.378135,-3.211526,4.082661,999.4864,0,0
13.0,8.454549,-3.130493,4.0353117,999.5044,0,0
13.04,8.535764,-3.1638580000000003,3.8269937000000014,999.4646,0,0
13.08,8.363648,-3.2639546000000004,4.0637097,999.52765,0,0
13.12,8.463983,-3.1304898,3.8033142,999.5177,0,0
13.16,8.526058,-3.0971224,3.860121,999.47784,0,0
13.2,8.502137,-3.1447875,4.006886,999.50085,0,0
13.24,8.530775,-2.935058,3.9453347,999.52606,0,0
13.28,8.616769999999999,-3.0065553,4.2625365,999.5029,0,0
13.32,8.545031,-3.0589864,4.096828,999.5108,0,0
13.36,8.869995,-2.9302878,4.23412,999.4985,0,0
13.4,8.984689999999997,-2.730092,3.845897,999.48596,0,0
13.44,8.654819999999999,-2.8444877,4.238847,999.48596,0,0
13.48,8.659578999999999,-2.6776576000000003,4.148891000000001,999.48694,0,0
13.52,8.702577,-2.5632598,3.983185,999.48694,0,0
13.56,8.697755,-2.8444858,3.8222115,999.49115,0,0
13.6,8.654674,-2.5441911,4.1062699999999985,999.4915,0,0
13.64,8.506478999999999,-2.5918562,4.144143,999.5019,0,0
13.68,8.482517,-2.548956,4.333514,999.51996,0,0
13.72,8.558973,-2.5727877999999995,4.19148,999.52484,0,0
13.76,8.601951,-3.2734709,4.2719607,999.52014,0,0
13.8,8.281641,-2.5823185,3.9831562000000007,999.5127,0,0
13.84,8.219461,-2.8397114,3.9831526,999.5281,0,0
13.88,8.678722,-2.8635542000000003,4.4755673,999.49304,0,0
13.92,8.745617,-2.7253234,4.4329557,999.506,0,0
13.96,8.922433,-2.53466,4.1914973,999.5004,0,0
14.0,9.070594,-2.3678305,3.7085872,999.47577,0,0
14.04,8.893728999999997,-2.5823252,3.5002720000000003,999.49304,0,0
14.08,8.028549,-3.5451689,4.2293673,999.50604,0,0
14.12,7.870791400000001,-3.2448752,3.8080032,999.5012,0,0
14.16,8.162335,-3.240108,3.808001,999.49115,0,0
14.2,8.224461999999999,-3.2877734,4.021048,999.5286,0,0
14.24,8.654619,-3.0065458,4.0305147,999.4892,0,0
14.28,8.731060000000001,-2.8015830000000004,3.7511814,999.49615,0,0
14.32,8.927019999999997,-2.6633527000000004,3.3345528,999.5069,0,0
14.36,8.931764,-3.0208435,4.219883,999.50934,0,0
14.4,8.907841000000003,-2.9779437,4.163068,999.4819,0,0
14.44,8.86003,-2.8873792000000003,4.0920506,999.5069,0,0
14.48,8.812221000000003,-2.763448,4.1299253,999.49963,0,0
14.52,8.816975999999997,-2.5012867,4.101516200000002,999.4948,0,0
14.56,8.869530000000003,-2.4345546,4.205671,999.5243,0,0
14.6,8.592265,-2.691948,4.1867304,999.5219,0,0
14.64,8.606581,-2.8111112,4.2104,999.48975,0,0
14.68,8.487061,-2.6252146,4.1062407,999.50757,0,0
14.72,8.697349,-2.6538134,4.1535826,999.47546,0,0
14.76,8.477442,-2.9159732000000003,4.181986,999.5323,0,0
14.8,8.496549,-2.830175,4.129906,999.52484,0,0
14.84,8.592108,-2.8444736,4.0920277,999.48004,0,0
14.88,8.592108,-2.8444736,4.0920277,999.49786,0,0
14.92,8.749915,-2.6633463,4.0541589999999985,999.5002,0,0
14.96,8.654288000000001,-2.8158753,4.167782,999.5205,0,0
15.0,8.568232,-2.7539096,3.8695126,999.4934,0,0
15.04,8.654247,-2.6204455,3.9452612,999.51575,0,0
15.08,8.663796000000001,-2.6728776,3.9878702000000006,999.5057,0,0
15.12,8.759373,-2.8826056,4.2624636,999.4927,0,0
15.16,8.615959,-3.011302,4.3524150000000015,999.5182,0,0
15.2,8.8023405,-2.9112036,3.9405193,999.504,0,0
15.24,8.850128,-2.873071,3.4386716,999.4934,0,0
15.28,8.649345,-2.9588683,4.0494075,999.47565,0,0
15.32,8.606317,-2.8778362,4.0162654,999.5058,0,0
15.36,8.482013,-2.8683026000000003,3.907371,999.47327,0,0
15.4,8.482013,-2.8683026000000003,3.907371,999.52325,0,0
15.44,8.458072999999999,-2.9826992000000003,3.9973214,999.48553,0,0
15.48,8.458072999999999,-2.9826992000000003,3.9973214,999.47644,0,0
15.52,8.448473,-2.7682028,3.5049393,999.509,0,0
15.56,8.448473,-2.7682028,3.5049393,999.50464,0,0
15.6,8.706542,-3.4355197,3.9262977,999.501,0,0
15.64,8.916843,-3.5928159,4.1961575,999.4991,0,0
15.68,9.179711,-3.1876580000000003,4.4139385,999.5289,0,0
15.72,8.859433000000003,-2.1342482999999994,3.4859924,999.48944,0,0
15.76,8.7972765,-1.8863868,3.443381,999.49603,0,0
15.8,8.802036,-2.4679065,3.973632,999.49927,0,0
15.84,8.6873,-2.8110979,4.560697,999.509,0,0
15.88,8.76839,-2.8158603,4.6506352,999.4769,0,0
15.92,8.902198,-2.7824938,4.404443700000002,999.50714,0,0
15.96,8.816148,-2.768194,4.2387385,999.49866,0,0
16.0,8.247311999999999,-2.8396912,4.0209517,999.49927,0,0
16.04,8.223398,-2.8825898,3.7605586,999.4714,0,0
16.08,8.223371499999999,-3.3211124,3.7794938,999.4948,0,0
16.12,8.146855,-3.6833699,3.7321458,999.4924,0,0
16.16,8.3428135,-3.4498081,3.5569718,999.4845,0,0
16.2,8.725159,-2.868287,3.4291391000000004,999.4943,0,0
16.24,8.906777,-2.7109907000000004,3.4480755,999.50464,0,0
16.28,8.844586,-2.7729545,3.7558072,999.5091,0,0
16.32,8.725079,-2.8349195,3.8599627,999.50464,0,0
16.36,8.639014999999999,-2.882584,4.0446019999999985,999.4943,0,0
16.4,8.576852,-2.715754,4.073006,999.5091,0,0
16.44,8.50992,-2.725287,4.2765846,999.49927,0,0
16.48,8.533793,-2.7681854,4.508568,999.50226,0,0
16.52,8.562446000000001,-2.7348187000000004,4.361799,999.48987,0,0
16.56,8.595864,-2.8587482000000004,4.16295,999.4948,0,0
16.6,8.629296,-2.8158486000000003,4.030384,999.49927,0,0
16.64,8.638843,-2.8730469,3.8504758,999.46893,0,0
16.68,8.677052999999999,-2.9779105,3.7368476,999.49005,0,0
16.72,8.705693,-2.9540765,3.831532,999.49927,0,0
16.76,8.657882,-2.9445434,3.8031242,999.5122,0,0
16.8,8.514461,-2.9683752,3.8741379,999.5096,0,0
16.84,8.571778,-2.9207091,4.1013856,999.5126,0,0
16.88,8.553335,-2.9445584,4.1914015,999.49976,0,0
16.92,8.519877000000001,-2.958858,4.234010700000002,999.5048,0,0
16.96,8.572455,-2.9111924,4.1914015,999.5054,0,0
17.0,8.734971,-2.8539937,4.002025,999.49976,0,0
17.04,8.734973,-2.9683912,3.7795086,999.50714,0,0
17.08,8.715854,-2.9922237000000003,3.8031805,999.51764,0,0
17.12,8.625041,-3.0303564,3.746368,999.4991,0,0
17.16,8.610702,-3.0112903,3.8268528,999.5298,0,0
17.2,8.562905,-2.9779243,4.011494600000002,999.4876,0,0
17.24,8.605925,-2.9064262000000003,3.9830885,999.5073,0,0
17.28,8.629826,-2.8968928,4.020964,999.5048,0,0
17.32,8.586807,-2.911193,4.006761,999.48987,0,0
17.36,8.586807,-2.911193,4.006761,999.5171,0,0
17.4,8.639388,-2.853994,3.8978696,999.50226,0,0
17.44,8.644169999999999,-2.8635273,3.9546826,999.5097,0,0
17.48,8.668069000000001,-2.768196,3.9404793,999.5059,0,0
17.52,8.672851,-2.7634296000000003,3.9357452,999.5199,0,0
17.56,8.625053999999999,-2.8396945,3.9925582,999.485,0,0
17.6,8.639393,-2.8921268,4.063574299999999,999.5171,0,0
17.64,8.529459,-2.9064267000000004,4.0399027,999.49854,0,0
17.68,8.663296,-2.7729628,4.120387,999.5127,0,0
17.72,8.663296,-2.7729628,4.120387,999.51764,0,0
17.76,8.725435000000001,-2.911193,4.054106,999.5002,0,0
17.8,8.524685,-2.9493252999999995,3.9310117,999.5048,0,0
17.84,8.644181,-3.0017576,3.9878244,999.5207,0,0
17.88,8.701097,-2.677621,4.144019,999.5076,0,0
17.92,8.696307000000001,-2.5298576,4.044596,999.5101,0,0
17.96,8.653255999999999,-3.0637112,4.039859,999.5298,0,0
18.0,8.653255999999999,-3.0637112,4.039859,999.5224,0,0
18.04,8.839653,-3.2686727,4.1771544999999985,999.4943,0,0
18.08,8.758379,-3.0255775000000003,3.9499018,999.4968,0,0
18.12,8.476346000000001,-2.5918205000000003,3.4575217000000005,999.5145,0,0
18.16,8.399861,-2.5727541,3.6042876000000006,999.5096,0,0
18.2,8.25645,-2.6251857000000003,3.9877727,999.4702,0,0
18.24,8.591012,-2.7824817000000004,3.8741448,999.4904,0,0
18.28,8.791747,-3.0732412,4.224489,999.5027,0,0
18.32,8.7535,-3.0541747000000004,4.229223,999.4943,0,0
18.36,8.849071499999997,-2.4917204,3.6705608,999.52386,0,0
18.4,8.815603999999997,-2.3534900000000003,3.6090126,999.5096,0,0
18.44,8.590938000000001,-2.6537826,3.8409972,999.49725,0,0
18.48,8.533563000000001,-3.4259648,3.9688244,999.48737,0,0
18.52,8.705627999999999,-3.7596235,4.167669,999.4924,0,0
18.56,8.375796000000001,-2.811078,4.1913385000000005,999.5023,0,0
18.6,8.375772,-2.4345195,3.9356785,999.5219,0,0
18.64,8.514378,-2.4631183,4.115585,999.4968,0,0
18.68,8.50959,-2.6204145,4.314429799999999,999.5052,0,0
18.72,9.006658,-2.5679815,4.215003500000001,999.4968,0,0
18.76,9.126137,-2.5107825,3.9830163,999.5145,0,0
18.8,9.083109,-2.534615,3.9404058,999.4975,0,0
18.84,8.968378,-2.6537787999999995,3.6563404,999.519,0,0
18.88,8.525025,-3.197195,3.7511356,999.49725,0,0
18.92,8.525025,-3.197195,3.7511356,999.5171,0,0
18.96,8.362574,-3.1733634,4.110956,999.5322,0,0
19.0,8.3721485,-3.1018655,4.1725044,999.4739,0,0
19.04,8.300467,-3.078033,4.2009120000000015,999.4917,0,0
19.08,8.391328,-3.0828009,4.044681,999.517,0,0
19.12,8.515618,-3.1876655,4.0683546,999.5159,0,0
19.16,8.811997,-2.9827044,4.101498,999.4819,0,0
19.2,8.816807,-2.7110112,3.8127022,999.5096,0,0
19.24,8.850296,-2.7396114,3.9121275,999.4917,0,0
19.28,8.563554,-3.0732715,4.3098215999999985,999.485,0,0
19.32,8.597028,-3.0971048,4.215135,999.5214,0,0
19.36,8.659196000000001,-3.0589726,4.1535907,999.4819,0,0
19.4,8.434575,-3.1638381,4.0541706,999.4942,0,0
19.44,8.46808,-3.2877696000000003,3.8979397,999.48865,0,0
19.48,8.46808,-3.2877696000000003,3.8979397,999.4911,0,0
19.52,8.496803,-3.3545027000000003,3.793787000000002,999.5083,0,0
19.56,8.544617,-3.354503,3.7464442,999.49603,0,0
19.6,8.501659,-3.1733751,3.8079972,999.5018,0,0
19.64,8.458657,-3.240107,3.803264,999.4936,0,0
19.68,8.415669,-3.3878715,4.0163155,999.5109,0,0
19.72,8.382226,-3.3688056000000004,3.9831755,999.4909,0,0
19.76,8.525681,-3.2115107000000003,3.9358373,999.4937,0,0
19.8,8.420555,-3.3306754,3.855355,999.5108,0,0
19.84,8.468384,-3.3545089,3.8600922,999.509,0,0
19.88,8.5583315,-3.3497212,3.8836849,999.48865,0,0
19.92,8.644363,-3.216257,3.7937307,999.5108,0,0
19.96,8.620459,-3.2448564,3.699042,999.4985,0,0
20.0,8.639573,-3.1685915,3.8647459,999.5207,0,0
20.04,8.572650999999999,-3.201957,3.822135700000002,999.5213,0,0
20.08,8.596547,-3.1924240000000004,3.8505418,999.4985,0,0
20.12,8.534402,-3.2734551,3.916823,999.4634,0,0
20.16,8.477043,-3.3115876,3.926291200000001,999.50323,0,0
20.2,8.563071,-3.1685908,3.9026186,999.5131,0,0
20.24,8.558286,-3.21149,3.8363364,999.5133,0,0
20.28,8.615639999999999,-3.2734547000000003,3.9215553,999.4959,0,0
20.32,8.6251955,-3.249622,3.907352,999.5159,0,0
20.36,8.663428999999999,-3.1352243,3.7700536,999.52295,0,0
20.4,8.543925999999999,-3.1638236,3.8363347,999.5107,0,0
20.44,8.510463,-3.1209245,3.8552718,999.5281,0,0
20.48,8.553479,-3.1399908,3.9262877,999.49536,0,0
20.52,8.390957,-3.3735517999999995,3.997303,999.49603,0,0
20.56,8.462649,-3.3830848,3.9641619,999.5053,0,0
20.6,8.558243,-3.3068197,3.8221295,999.5131,0,0
20.64,8.610816,-3.2162552000000004,3.6280184,999.53033,0,0
20.68,8.615591,-3.249621,3.7179716,999.50073,0,0
20.72,8.639482000000001,-3.244854,3.8031902,999.50256,0,0
20.76,8.653819,-3.2162547000000004,3.8126588,999.4948,0,0
20.8,8.639474,-3.1828887000000003,3.9073462,999.5082,0,0
20.84,8.519972000000001,-3.2257876,3.8600016,999.51514,0,0
20.88,8.553334,-3.182886,3.8410552,999.48724,0,0
20.92,8.462503,-3.3258824,3.874194600000002,999.5095,0,0
20.96,8.433819999999999,-3.2925165,3.940476,999.51245,0,0
21.0,8.519844,-3.173352,3.931006,999.51245,0,0
21.04,8.562858,-3.163819,3.9073336,999.50507,0,0
21.08,8.5963125,-3.1066203,3.8978646,999.48694,0,0
21.12,8.572399,-3.135219,3.9357386,999.5219,0,0
21.16,8.624969,-3.2162504000000003,3.8883934,999.49426,0,0
21.2,8.505465,-3.3544803,3.878924,999.49176,0,0
21.24,8.438543,-3.3354142,3.9025955,999.48694,0,0
21.28,8.40985,-3.1733506,3.8647192,999.4744,0,0
21.32,8.45764,-3.125685,4.049360299999999,999.51184,0,0
21.36,8.443292,-3.2448487,4.2860794,999.4971,0,0
21.4,8.519755,-3.135217700000001,3.9878109,999.4769,0,0
21.44,8.5484295,-3.130451,3.935732,999.48676,0,0
21.48,8.581883,-3.1113844,3.9167937999999993,999.4966,0,0
21.52,8.624898,-3.106618,3.968872,999.5065,0,0
21.56,8.763503,-3.073252,3.954668,999.47943,0,0
21.6,8.586637,-3.1781156000000004,3.8836508,999.49365,0,0
21.64,8.404991,-3.3878437999999993,3.926259,999.50854,0,0
21.68,8.390642,-3.3878436,3.9215236,999.50366,0,0
21.72,8.467115,-3.3973765,3.8741794,999.504,0,0
21.76,8.500565,-3.435509,3.9073193,999.51154,0,0
21.8,8.529235,-3.3211114,3.8078961,999.50885,0,0
21.84,8.557903999999999,-3.2496127999999995,3.836301600000001,999.499,0,0
21.88,8.572578,-3.201955,3.8978796,999.5236,0,0
21.92,8.548687,-3.4164505,3.9641619,999.5084,0,0
21.96,8.500892,-3.4831824,3.9357557,999.5281,0,0
22.0,8.572592,-3.6643116,3.997303500000001,999.4913,0,0
22.04,8.873724000000003,-3.5165489,4.006773,999.5004,0,0
22.08,8.92153,-2.525105,3.2492685000000003,999.5035,0,0
22.12,8.099412,-3.3735523,4.2719007000000015,999.51843,0,0
22.16,7.932123700000001,-3.8978736000000014,4.4518085,999.5035,0,0
22.2,8.113762,-3.7215111,4.0257125,999.4881,0,0
22.24,8.238039,-3.6023476000000003,3.8742118,999.5029,0,0
22.28,8.414899,-3.34972,3.7889931,999.4887,0,0
22.32,8.529617,-3.2496223,3.7085085,999.49054,0,0
22.36,8.730373,-3.2114902,3.6232896,999.50885,0,0
22.4,8.759058,-3.2496228,3.6469622,999.4805,0,0
22.44,8.668249000000001,-3.2114904,3.774792,999.5084,0,0
22.48,8.634792,-3.1781247,3.8126674,999.51025,0,0
22.52,8.577437,-3.1495252,3.817402,999.50775,0,0
22.56,8.429272000000001,-3.368787,3.9736378,999.5004,0,0
22.6,8.391035,-3.368787,4.03992,999.52094,0,0
22.64,8.247649000000001,-3.416453,3.9262948,999.49054,0,0
22.68,8.109036,-3.54515,4.1204057,999.5084,0,0
22.72,8.864251,-2.996996,3.8410764,999.50714,0,0
22.76,8.658725,-3.1733587000000005,3.703779,999.5225,0,0
22.8,8.711310000000001,-3.2400906000000003,3.689576600000001,999.5029,0,0
22.84,8.739991,-3.1256936,3.4291844,999.5224,0,0
22.88,8.481887,-3.3020562999999994,3.6280297999999993,999.5127,0,0
22.92,8.668847,-3.2305715,3.5333922,999.5053,0,0
22.96,8.668847,-3.2305715,3.5333922,999.5194,0,0
23.0,8.664081,-3.3259025,3.9926305,999.5063,0,0
23.04,8.90311,-2.8254151000000003,3.8269298,999.49054,0,0
23.08,8.640244500000001,-2.7777503,4.025777,999.5127,0,0
23.12,8.664169000000001,-2.9970126,4.030514,999.52686,0,0
23.16,8.597278999999999,-2.8111174,4.2056894,999.5121,0,0
23.2,8.759816,-2.544191,4.0873313,999.48224,0,0
23.24,9.027523,-2.2391322,4.030522,999.50476,0,0
23.28,8.458752,-2.4011955,4.219900599999999,999.49677,0,0
23.32,8.387068,-2.6919558,4.6270604,999.5324,0,0
23.36,8.339295,-2.6442912,3.7701354,999.5186,0,0
23.4,8.645228,-1.6480811999999998,4.5323769999999985,999.51416,0,0
23.44,7.698852499999999,-2.5918603,4.021064,999.50714,0,0
23.48,8.224642999999999,-2.9350524,3.8269541,999.5186,0,0
23.52,9.018129,-2.4297984,4.816448,999.51654,0,0
23.56,8.8412895,-2.6156945,4.9253407,999.4867,0,0
23.6,8.664474,-2.158106,4.622342,999.5219,0,0
23.64,8.339459,-2.2582037,4.617609,999.4845,0,0
23.68,8.009705,-2.6728957,5.0721164000000005,999.53546,0,0
23.72,8.067086999999999,-2.5727987,5.3372455,999.50574,0,0
23.76,8.272632000000002,-2.3916698,5.327778,999.5029,0,0
23.8,7.7803497,-2.3964372000000003,5.1099987,999.48816,0,0
23.84,7.727797,-2.7634625,5.4698160000000025,999.4936,0,0
23.88,7.894819,-2.6204593,5.772793,999.50085,0,0
23.92,7.608044,-3.001784,6.175218599999999,999.5009,0,0
23.96,7.9139657,-2.5584948,5.7301855,999.5009,0,0
24.0,8.090839,-2.425032,5.460326,999.4978,0,0
24.04,8.090839,-2.425032,5.460326,999.5034,0,0
24.08,7.8423038,-2.363067,5.0010905,999.4906,0,0
24.12,7.870996000000001,-2.5537293,5.469798,999.5108,0,0
24.16,7.5698895,-3.0923512000000004,5.626035,999.4806,0,0
24.2,7.928382000000001,-2.7634585,5.5076756,999.53864,0,0
24.24,7.942735000000001,-2.5584972,5.550287,999.5104,0,0
24.28,7.3978515,-3.1209512000000004,5.431928,999.5052,0,0
24.32,7.761131,-2.9159894,5.7538686,999.47296,0,0
24.36,7.436125,-3.1686175,5.540822,999.48553,0,0
24.4,7.254506,-3.2496493,5.8911695,999.48553,0,0
24.44,7.565214,-2.882625,5.5644975,999.5104,0,0
24.48,7.5604415,-2.8778586,5.4603415,999.49255,0,0
24.52,7.4170547,-3.182918,5.692328,999.4929,0,0
24.56,7.2688947,-3.4689121,5.938518,999.4971,0,0
24.6,7.6847587,-3.0017898,5.4035325,999.5098,0,0
24.64,7.354965700000001,-3.3831148,5.8485675000000015,999.502,0,0
24.68,7.3406334000000015,-3.4832125,5.9669285000000025,999.52,0,0
24.72,7.565305,-3.120955,5.4319425,999.50244,0,0
24.76,7.512734,-3.2830184,5.7870230000000005,999.497,0,0
24.8,7.3406754,-3.4927468,5.7728214000000015,999.4897,0,0
24.84,7.345469,-3.421249,5.725478599999999,999.50494,0,0
24.88,7.5738754,-3.254394,5.6354313,999.4794,0,0
24.92,7.4161134,-3.3735578,5.6401629999999985,999.4815,0,0
24.96,7.2535729999999985,-3.6357174,5.8153334,999.48224,0,0
25.0,7.277444,-3.4307550000000004,5.464985,999.4941,0,0
25.04,7.6884785,-3.044663,5.3655599999999986,999.5044,0,0
25.08,7.6836853,-3.1685932,5.6354194,999.49756,0,0
25.12,7.1100807,-3.7596457,5.867403,999.4773,0,0
25.16,7.559354300000001,-3.3926199999999995,5.625946,999.4667,0,0
25.2,7.7887435,-2.9540956,5.3513465,999.50635,0,0
25.24,7.482822,-3.1447575,5.133563,999.51807,0,0
25.28,7.205551,-3.6738446,6.1845965,999.4724,0,0
25.32,6.8374925000000015,-3.816841,5.6306699999999985,999.4713,0,0
25.36,7.243747999999999,-3.731042,5.5596514,999.46643,0,0
25.4,7.286724,-3.3878489000000003,5.564382,999.52045,0,0
25.44,8.070584,-2.5918334,5.4649568,999.5155,0,0
25.48,6.975981,-3.7882383,6.515992,999.4498,0,0
25.52,6.9472747,-3.6595407,5.8815794000000015,999.4535,0,0
25.56,6.9759392999999985,-3.9169345,5.6637955,999.45935,0,0
25.6,7.429993,-3.3163474,5.256634,999.4798,0,0
25.64,7.406066,-3.4736432999999995,5.796354,999.5044,0,0
25.68,7.4155974,-3.425977,5.488615,999.4861,0,0
25.72,7.358198,-3.564206,5.857895,999.4938,0,0
25.76,7.45378,-3.3830764,5.630642,999.50006,0,0
25.8,7.229100999999999,-3.6357036,5.6495776,999.51105,1,1
25.84,7.2529593,-3.4688728,5.1477265,999.50824,1,1
25.88,7.348541,-3.4831722000000003,5.019896,999.5081,1,1
25.92,7.57315,-3.4355056000000004,5.8910227,999.4879,1,1
25.96,7.424962,-3.611868,5.7016454,999.48096,1,1
26.0,7.472746000000001,-3.4879372,5.4459863,999.48364,1,1
26.04,7.4966035,-3.4641035,5.2187304,999.50616,1,1
26.08,7.792922999999999,-3.5165348,5.176119,999.4889,1,1
26.12,7.7690104999999985,-3.5260673,4.882584,999.4963,1,1
26.16,7.783308,-4.231517,4.4044056,999.4787,1,1
26.2,7.659005,-4.913133599999999,4.016182,999.5107,1,1
26.24,8.466764,-4.0503860000000005,3.542739,999.5118,1,1
26.28,8.543213,-4.2410483,3.703706,999.4938,1,1
26.32,7.7831964,-4.102817,3.1497781,999.51843,1,1
26.36,7.8500857,-4.0074854,3.5190592000000005,999.4765,1,1
26.4,7.8213789999999985,-3.8025227,3.0456161,999.4889,1,1
26.44,7.711415299999999,-3.8263547,3.9688225,999.5286,1,1
26.48,7.608101,-3.659570200000001,4.750168,999.4889,1,1
26.52,8.865208,-2.753925,4.6460123,999.52094,1,1
26.56,11.106956,-0.8234700999999999,5.99532,999.5143,1,1
26.6,12.392742,-1.2238613,5.569225,999.49255,1,1
26.64,14.471976000000002,-1.2143286,6.729156,999.502,1,1
26.68,15.160276,-0.15615326,6.298326,999.5177,1,1
26.72,15.356268,-1.3096606000000002,6.2746559999999985,999.52466,1,1
26.76,14.29995,-3.1638515,5.323042,999.499,1,1
26.8,12.588799,-4.26016,4.688634,999.52045,1,1
26.84,9.544094,-4.9846773,1.8243215,999.5074,1,1
26.88,8.5068865,-5.284971,2.0279016,999.4823,1,1
26.92,5.466958999999999,-5.766393700000001,0.9484601,999.52246,1,1
26.96,4.936411,-5.8855580000000005,0.9389921999999998,999.5202,1,1
27.0,3.9900382,-6.0952873,0.05366116,999.49255,1,1
27.04,3.7271585,-6.800738000000001,-0.2588087,999.4879,1,1
27.08,4.7118273,-7.5014224,0.25724408,999.50146,1,1
27.12,5.7394943,-8.421369,0.66440374,999.46014,1,1
27.16,7.818728,-8.979055,-0.08836486,999.4934,1,1
27.2,10.399841,-9.160186,2.2362297000000004,999.498,1,1
27.24,12.254434,-9.203085,2.6575942,999.518,1,1
27.28,12.60815,-9.417581,2.9227216,999.52264,1,1
27.32,12.612947,-9.941902,2.9653332000000003,999.5029,1,1
27.36,13.463773000000002,-8.898026,3.3109465,999.5131,1,1
27.4,13.01927,-7.2916979999999985,3.3582926,999.49115,1,1
27.44,11.770641,-5.0180225,2.7048438,999.5042,1,1
27.48,11.230497,-3.3687932000000003,3.2445633,999.48615,1,1
27.52,10.613889,-2.4726803,3.2492967,999.4845,1,1
27.56,9.662682,-0.98551404,2.1651156000000005,999.49927,1,1
27.6,9.748704,-0.58512294,2.3450217,999.48785,1,1
27.64,11.048771,-0.17519805,2.4775815,999.4875,1,1
27.68,12.052516,0.28715837,3.4765396,999.50934,1,1
27.72,13.806664,-3.1495283,4.778497,999.51025,1,1
27.76,13.701469,-6.6672463,6.350316,999.47217,1,1
27.8,13.701469,-6.6672463,6.350316,999.48004,1,1
27.84,14.08858,-10.34226,4.6506596,999.46155,1,1
27.88,14.160263,-11.424269,4.5843763,999.4854,1,1
27.92,15.044501,-12.325147,5.105159,999.49304,1,1
27.96,14.776805,-11.4052,5.493377,999.49304,1,1
28.0,13.667877,-11.252671,5.289797,999.4954,1,1
28.04,8.65859,-10.375623,2.7710888,999.4783,1,1
28.08,7.4731855,-9.417544,1.8573475,999.49554,1,1
28.12,6.359478,-8.836024,1.8620807,999.4862,1,1
28.16,2.8892999,-6.900801,0.9578058,999.4764,1,1
28.2,0.62364644,-7.1629615000000015,-0.67083186,999.4739,1,1
28.24,0.40376216,-7.7921467,-0.83180285,999.4764,1,1
28.28,1.7659796000000003,-8.178237,-0.746586,999.48315,1,1
28.32,6.63178,-10.184957,0.6074501,999.4741,1,1
28.36,9.1937275,-10.728342,2.2171452,999.4889,1,1
28.4,11.201232,-10.790308,2.9273047,999.48395,1,1
28.44,14.250721,-12.291772,3.3533988,999.4769,1,1
28.48,16.449913000000002,-11.8484955,3.6895854,999.51434,1,1
28.52,15.976705,-9.755977,4.5228405,999.5188,1,1
28.56,14.49018,-8.5929365,5.1335783,999.5336,1,1
28.6,13.9882965,-8.397508,5.469720400000001,999.5041,1,1
28.64,13.429053,-6.614814999999999,5.2945465999999985,999.5016,1,1
28.68,12.219756,-5.2515793,5.294546,999.51154,1,1
28.72,12.018995,-1.2190721000000002,4.413946,999.4917,1,1
28.76,12.635581,0.8877463,4.9678707000000015,999.49207,1,1
28.8,12.716834,0.8639134,4.7595563,999.48724,1,1
28.84,12.67859,-0.036965564,5.015214,999.5069,1,1
28.88,12.6212225,-5.2420454,5.8200617,999.502,1,1
28.92,12.888888,-6.428918,6.066251,999.51245,1,1
28.96,13.075294,-7.4823265,6.4781427,999.52966,1,1
29.0,13.840056,-9.398483,5.8247943,999.50995,1,1
29.04,14.652614000000002,-13.059197,6.231952,999.53217,1,1
29.08,14.64783,-13.240327,6.4071254999999985,999.5028,1,1
29.12,14.33236,-12.868535,6.255624,999.5281,1,1
29.16,13.438529999999998,-11.486234,5.275601999999999,999.50256,1,1
29.2,11.469245,-10.809382,4.4044704,999.518,1,1
29.24,8.152052000000001,-9.9704685,2.9557416,999.4731,1,1
29.28,5.35586,-8.969491,1.4833415,999.48553,1,1
29.32,3.964934,-8.402271,0.93415004,999.4913,1,1
29.36,1.7184166,-6.5194807,0.14350364,999.4363,1,1
29.4,1.7184166,-6.5194807,0.14350364,999.4565,1,1
29.44,1.2499864,-6.719676,-0.15476474,999.4739,1,1
29.48,4.280856,-9.655887,0.56964254,999.4839,1,1
29.52,7.712766999999999,-11.295583,2.1793412999999995,999.4591,1,1
29.56,12.134099,-11.195485,4.2861524000000015,999.46893,1,1
29.6,15.413056,-11.505312,3.694353,999.4843,1,1
29.64,17.191157999999998,-11.777006,4.224608,999.50073,1,1
29.68,16.732310000000002,-10.509102,5.5975866,999.51843,1,1
29.72,15.728556,-9.946648,5.9621363,999.5256,1,1
29.76,13.353012,-6.7578225000000005,5.389274,999.5115,1,1
29.8,12.779442,-6.0094730000000025,4.915835,999.5085,1,1
29.84,11.020488,-5.8378773,3.7322347,999.48926,1,1
29.88,9.792096,-3.7215266,4.8968997000000005,999.49615,1,1
29.92,10.121916,-1.2619834,4.7785406,999.5196,1,1
29.96,10.604683,-0.2705397,4.631775,999.50464,1,1
30.0,11.4555,0.33957922,4.5796980000000005,999.48145,1,1
30.04,11.608466,-0.81392795,4.110993,999.4967,1,1
30.08,11.809232000000002,-3.3545032,4.0589156000000015,999.49927,1,1
30.12,11.814016,-5.0942965,4.039979,999.50073,1,1
30.16,12.105604,-8.273591,3.8979483,999.5015,1,1
30.2,12.483222,-9.031473,4.035247,999.55084,1,1
30.24,12.937309,-9.660659,4.281437,999.54114,1,1
30.28,12.358966,-10.285078,3.8884823,999.50116,1,1
30.32,11.207052,-12.878085,4.892178,999.5073,1,1
30.36,7.9376845,-11.905708,3.026824,999.5495,1,1
30.4,7.717826400000001,-9.417566,2.6859484,999.5171,1,1
30.44,6.671056,-8.37369,2.5439167,999.5199,1,1
30.48,5.1649165,-6.8293133,2.766388,999.46783,1,1
30.52,5.317859,-5.232517,2.8516060000000003,999.485,1,1
30.56,5.7575974,-5.0609207000000005,3.5238912000000004,999.47284,1,1
30.6,5.967905,-4.865491400000002,3.7558765,999.4605,1,1
30.64,6.780464,-3.5928206,3.0883248,999.49286,1,1
30.68,7.7411966,-1.4955355,3.088324,999.4474,1,1
30.72,7.172393,-1.3334723999999998,4.882663,999.50037,1,1
30.76,8.047089999999999,-1.6337652,6.7953615,999.4781,1,1
30.8,7.6885962,-0.53745705,6.68647,999.4777,1,1
30.84,8.195248,-0.1894982000000001,6.3408574999999985,999.4856,1,1
30.88,7.745935,-0.80915034,6.5302324,999.49725,1,1
30.92,7.4209046,-1.466935,7.174111,999.4876,1,1
30.96,7.8271804,-0.8282162000000001,6.520763,999.5048,1,1
31.0,6.770832,-1.6003982,6.402402,999.47943,1,1
31.04,7.377863400000002,-1.1618749,6.1467433,999.4726,1,1
31.08,7.6503043,-1.2619724,6.7574806,999.54175,1,1
31.12,7.745893,-0.9616791,6.0804605,999.55835,1,1
31.16,8.133045,-0.86634773,8.059441,999.4455,1,1
31.2,8.20474,-1.023644,7.122028,999.4112,1,1
31.24,6.603497,-1.7100278999999998,5.6164865,999.4682,1,1
31.28,6.9763103000000015,-1.6623621,6.885306,999.4583,1,1
31.32,7.100581,-1.6671287,7.150431599999999,999.4881,1,1
31.36,7.0384364,-1.4716996,6.9752589999999985,999.4978,1,1
31.4,7.3825707,-1.0856081,6.648584,999.49976,1,1
31.44,6.989899,-1.6146781,6.885236999999999,999.533,1,1
31.48,7.219311699999999,-1.3572836,7.1693,999.4776,1,1
31.52,6.9754863,-1.4573798999999998,6.4070554,999.5097,1,1
31.56,7.0901833,-1.2142853,6.5774927,999.4918,1,1
31.6,7.338696499999997,-1.3286815,6.9231005,999.50226,1,1
31.64,7.1666045,-1.2667159,6.4543934,999.4678,1,1
31.68,7.262164,-1.1952167,6.6390314,999.4776,1,1
31.72,7.3242655,-1.3286793,6.6295595,999.4918,0,0
31.76,7.223834,-1.4192425,6.501725,999.5073,0,0
31.8,7.285953,-1.3572768,6.568005,999.4975,0,0
31.84,7.381512,-1.2905441999999998,6.6958303,999.48944,0,0
31.88,7.3480163,-1.1999787,6.364419,999.509,0,0
31.92,7.438796000000001,-1.1189463,6.6674175,999.4697,0,0
31.96,7.247549,-1.0998787,6.4543643,999.4924,0,0
32.0,7.151916,-1.0665118999999998,6.3928137000000005,999.48737,0,0
32.04,7.008485,-1.2524067,6.1134806,999.5101,0,0
32.08,6.860293,-1.4669014,6.17976,999.48737,0,0
32.12,6.4969725999999985,-2.0388868,5.8294096,999.49725,0,0
32.16,6.6212106,-2.1389837000000003,5.919359,999.4574,0,0
32.2,6.9701185,-2.1151505,5.938296,999.49286,0,0
32.24,7.424163,-1.9435534,6.0424495,999.4879,0,0
32.28,7.2568326,-2.4392745,5.7347097,999.4672,0,0
32.32,7.6630607,-2.4917052,5.3938274,999.4975,0,0
32.36,8.021527,-2.7062,5.4174976,999.4747,0,0
32.4,8.580729,-2.7633977,5.2849307,999.4991,0,0
32.44,8.781443,-2.6489992,4.6173769999999985,999.4845,0,0
32.48,8.921483,-2.8158638,4.499147,999.5096,0,0
32.52,8.754201,-2.9874601000000003,4.466007,999.50464,0,0
32.56,8.4530945,-3.545148,4.4328685,999.5018,0,0
32.6,8.553504,-3.7739432,4.432872,999.49725,0,0
32.64,8.410119,-4.0742364,4.57017,999.4917,0,0
32.68,8.008649,-4.131436,4.821096400000001,999.4913,0,0
32.72,7.927403,-4.0790042999999985,4.986801,999.487,0,0
32.76,7.946542999999999,-4.079005,5.1714454000000005,999.48987,0,0
32.8,7.965706,-3.8454444,4.7737594,999.49927,0,0
32.84,7.831882000000001,-3.9693751000000006,4.6648693,999.4968,0,0
32.88,7.793665400000001,-4.0742400000000005,4.6411989999999985,999.4776,0,0
32.92,7.908413,-4.0456414,4.470763,999.5023,0,0
32.96,7.784148700000001,-4.193405,4.5938587,999.5052,0,0
33.0,7.750711999999999,-4.250604,4.5512510000000015,999.5073,0,0
33.04,7.6264585999999985,-4.4365005,4.5512533,999.4953,0,0
33.08,7.5452228,-4.5508986,4.267191,999.49927,0,0
33.12,7.8463726,-4.565198400000001,3.907378,999.495,0,0
33.16,7.841603299999999,-4.603331,3.907379,999.5101,0,0
33.2,7.707790400000001,-4.7558618,4.1014915,999.5199,0,0
33.24,7.645685,-4.8797927,4.1441040000000005,999.4948,0,0
33.28,7.81778,-4.8702602,4.338217,999.48737,0,0
33.32,7.803451,-4.832128,4.257733,999.4904,0,0
33.36,7.7174363,-4.5747347000000005,4.0446870000000015,999.5126,0,0
33.4,7.6218615,-4.503237,3.5759823,999.4876,0,0
33.44,7.526298,-4.8130636,3.8411121,999.50037,0,0
33.48,7.745642,-5.094278,4.1772065000000005,999.5054,0,0
33.52,7.7265224,-5.385037400000001,4.5464897,999.50037,0,0
33.56,7.678725,-5.342139,4.451802,999.4978,0,0
33.6,7.568789,-5.122877,4.3145045999999985,999.51465,0,0
33.64,7.984632,-4.3220954,3.8173916,999.5002,0,0
33.68,7.960733,-4.512758,3.7937198,999.4756,0,0
33.72,7.951173299999999,-5.0180125,4.2576914000000015,999.4726,0,0
33.76,7.712183,-5.0323124,4.1772065000000005,999.50037,0,0
33.8,7.5305505,-4.8750160000000005,4.125128299999999,999.5108,0,0
33.84,8.113686999999999,-4.5985559999999985,4.5891,999.49554,0,0
33.88,8.065888000000001,-4.6986537,4.821086,999.50104,0,0
33.92,8.032430999999999,-4.226764,4.3618484,999.4862,0,0
33.96,7.669165,-4.059935,3.7227037,999.47314,0,0
34.0,7.4397345,-4.393594,3.6516876,999.5101,0,0
34.04,7.4110556,-4.674821,4.6080375,999.4979,0,0
34.08,7.664385,-4.555657,4.5843654,999.506,0,0
34.12,8.314439,-4.360228,4.47074,999.49304,0,0
34.16,8.8449955,-4.112367,4.3476453,999.52496,0,0
34.2,8.735061,-4.112367,4.1772065000000005,999.4862,0,0
34.24,7.955953,-5.4851356,4.366583,999.5034,0,0
34.28,7.6548257,-5.394571,4.475474,999.5116,0,0
34.32,7.640486200000002,-4.7653856,3.8221262,999.4808,0,0
34.36,7.4397345,-4.670054,4.025706,999.49365,0,0
34.4,7.673944500000001,-4.684354,3.784251,999.5084,0,0
34.44,7.707403699999999,-4.9894137,3.4954524,999.4788,0,0
34.48,7.042657000000001,-5.261099,3.4622793,999.49603,0,0
34.52,6.7988800000000005,-5.2467985,3.3581216,999.5116,0,0
34.56,6.8944554,-5.3611955999999985,3.19715,999.49115,0,0
34.6,7.5827327,-5.213432,3.6895268,999.47394,0,0
34.64,7.945991,-5.060902,3.8362925,999.49115,0,0
34.68,8.414391,-4.9322047,3.4480696,999.4813,0,0
34.72,8.404824000000001,-5.0180025000000015,3.2776303,999.50867,0,0
34.76,8.247069,-5.0990334000000015,2.9036105,999.4895,0,0
34.8,8.180145,-5.237263,3.0503762,999.4764,0,0
34.84,7.960260400000001,-5.323061,3.448065,999.506,0,0
34.88,8.1131935,-5.1085650000000005,3.6516426,999.4943,0,0
34.92,8.008030999999999,-4.917903,3.6563764,999.50616,0,0
34.96,7.778579,-4.555644,3.3912477,999.4988,0,0
35.0,7.654290700000002,-4.7510724,3.7747333,999.5166,0,0
35.04,7.4535313,-5.046599400000002,4.2434387000000005,999.4856,0,0
35.08,6.9611907,-4.936968,3.9120283,999.4667,0,0
35.12,6.7126346,-5.2849260000000005,3.9120278,999.4963,0,0
35.16,7.0041949999999975,-5.2849260000000005,4.167685,999.45416,0,0
35.2,7.2479444000000015,-5.1133294000000005,3.7889307,999.4993,0,0
35.24,7.74025,-4.946499299999998,3.3533642,999.47577,0,0
35.28,7.826273,-5.141928,3.6989744,999.5166,0,0
35.32,8.122607,-4.3125467,3.7841926,999.4943,0,0
35.36,8.509757,-4.546108,3.5285332,999.4968,0,0
35.4,8.232514,-4.822568,3.822065,999.4813,0,0
35.44,8.136905,-4.8082676,3.5190618,999.5169,0,0
35.48,8.141669,-4.8559327,3.2728715,999.49976,0,0
35.52,7.950464,-5.4469852,3.5664036,999.5143,0,0
35.56,7.673221000000002,-5.5947485,2.931992,999.49365,0,0
35.6,7.4772425,-5.651947,2.785225,999.5168,0,0
35.64,7.4294305,-5.871208,2.851505,999.4862,0,0
35.68,7.0279130000000025,-6.190567,3.424367,999.4772,0,0
35.72,7.8691372999999984,-6.104769,3.4764435,999.5046,0,0
35.76,7.725736,-6.0571027000000015,3.3344107000000003,999.5118,0,0
35.8,7.2142835,-5.6090465,3.6042705,999.4938,0,0
35.84,7.319417999999999,-5.1895885,2.9745924,999.52094,0,0
35.88,7.4054475,-5.170522,2.8657007,999.4993,0,0
35.92,7.9312053,-5.1323895,4.290755,999.512,0,0
35.96,7.959877,-5.10379,4.6789755999999985,999.52435,0,0
36.0,7.061253,-5.0370574,4.499066,999.5239,0,0
36.04,7.1138163,-4.8940606,4.740519,999.49115,0,0
36.08,7.238085000000001,-4.6652656,4.589018,999.4914,0,0
36.12,7.352792999999999,-4.6509657,4.456454,999.50116,0,0
36.16,7.4627146999999985,-4.8606940000000005,4.1771226000000015,999.5135,0,0
36.2,7.625207400000002,-5.165753,3.774696,999.4887,0,0
36.24,7.261928599999999,-5.637642,3.7320852,999.5239,0,0
36.28,7.2055554000000015,-5.4708365999999975,3.5759401,999.487,0,0
36.32,7.984677,-4.984648,3.7179732,999.5141,0,0
36.36,8.022923,-5.2754080000000005,3.7274432,999.5232,0,0
36.4,7.7934966,-5.4660707,3.7700531,999.4936,0,0
36.44,7.454139,-5.8426290000000005,3.8173978,999.52435,0,0
36.48,7.301193700000002,-5.8902946,3.5333345,999.47144,0,0
36.52,7.286859,-5.728232,3.547538,999.4808,0,0
36.56,7.286867599999999,-5.5375695,3.4386475,999.49005,0,0
36.6,7.439833,-5.3755074,3.3534293,999.49854,0,0
36.64,7.654933,-5.761598,4.2056227,999.4887,0,0
36.68,7.664497,-5.723466,4.4612813,999.5052,0,0
36.72,7.932183,-4.5222940000000005,3.410245,999.50287,0,0
36.76,7.932183,-4.5222940000000005,3.410245,999.4975,0,0
36.8,8.634827,-4.6795907,3.3202922,999.49554,0,0
36.84,8.692186999999999,-4.474629,2.8989308,999.49304,0,0
36.88,7.5450434999999985,-5.809265,3.6280296,999.4854,0,0
36.92,7.1961308000000015,-5.489906,3.9973142,999.4953,0,0
36.96,7.9370084,-5.103815,3.3108265,999.50287,0,0
37.0,7.702802,-5.04185,2.9084024,999.4975,0,0
37.04,7.6693606,-5.513739599999999,3.1356554,999.50037,0,0
37.08,7.7793,-5.2992444,2.7900443,999.49286,0,0
37.12,7.889240299999999,-5.284945,2.8563266,999.4808,0,0
37.16,7.9179273,-5.3373775000000006,3.3960493,999.50775,0,0
37.2,8.2525215,-4.8988543,3.708521,999.5152,0,0
37.24,7.9036092999999985,-5.0990505,2.6858904,999.5002,0,0
37.28,7.9847565,-5.0513816,2.468098,999.4978,0,0
37.32,7.870044999999997,-5.003716000000002,2.4823012,999.487,0,0
37.36,7.979984799999999,-5.1753125,2.8610544,999.52997,0,0
37.4,8.199862,-4.922685,2.3970830000000003,999.48987,0,0
37.44,8.199862,-4.922685,2.3970830000000003,999.5145,0,0
37.48,8.276344,-5.1657796,3.1356506,999.5043,0,0
37.52,8.089935,-5.218212,3.1309166,999.52637,0,0
37.56,7.946544599999997,-5.222978,2.8468528,999.4943,0,0
37.6,7.784037599999999,-5.094281700000002,2.856322,999.4943,0,0
37.64,7.8174977,-5.0990486,3.0504330000000004,999.49927,0,0
37.68,7.7840414,-5.037083,3.1687932,999.4918,0,0
37.72,7.908321400000001,-5.0990486,2.9368079,999.4917,0,0
37.76,7.860529,-5.04185,3.0030901,999.5133,0,0
37.8,8.013485000000001,-4.917919,2.917871,999.5018,0,0
37.84,8.20946,-4.8511877,3.1214507,999.48926,0,0
37.88,8.247705,-4.9322195,3.2398114,999.5337,0,0
37.92,8.132992,-4.8178220000000005,3.2066705,999.5188,0,0
37.96,8.104315,-4.689125,3.1687956,999.48846,0,0
38.0,8.199914,-4.6462264000000015,3.3439689,999.49603,0,0
38.04,7.865332,-4.8416553,3.6185648,999.49286,0,0
38.08,7.6550245,-5.108582,3.310829,999.5155,0,0
38.12,7.779305,-4.984652,3.3913142999999994,999.47363,0,0
38.16,7.588116599999997,-5.2086806,3.1830008,999.5057,0,0
38.2,7.4208255,-5.213446599999998,2.7947798,999.49207,0,0
38.24,7.9752884,-4.7129583,2.9131403,999.47815,0,0
38.28,8.0995655,-4.7129583,3.069376,999.5082,0,0
38.32,7.8029947,-5.394571,2.993605,999.50507,0,0
38.36,7.927262299999999,-5.161009,3.34395,999.52783,0,0
38.4,7.92726,-4.96558,3.0882921000000003,999.51184,0,0
38.44,7.970267999999999,-5.0847440000000015,3.4765124,999.50256,0,0
38.48,7.970267999999999,-5.0847440000000015,3.4765124,999.50464,0,0
38.52,8.309626,-4.9322143,3.2587292000000003,999.4971,0,0
38.56,8.395660000000001,-4.779684,3.211385,999.4971,0,0
38.6,8.376536,-5.0466113,3.310807,999.4948,0,0
38.64,8.056283,-5.2086739999999985,3.6848245,999.4795,0,0
38.68,7.898544999999999,-4.9560466,3.310806,999.5095,0,0
38.72,7.8268433,-5.008478,3.1119606,999.4995,0,0
38.76,7.487472,-5.508967,3.253992,999.51154,0,0
38.8,7.477905000000002,-5.6567297,3.2066474,999.4887,0,0
38.84,7.487462,-5.570932,2.946255,999.4819,0,0
38.88,7.6356306,-5.251572,2.5532987,999.514,0,0
38.92,7.807696000000001,-5.094276,3.0788171,999.5016,0,0
38.96,7.874608,-4.9751115,3.362881,999.49304,0,0
39.0,7.874608,-4.9751115,3.362881,999.4913,0,0
39.04,8.075353,-5.0609097,3.651679,999.5291,0,0
39.08,7.8506966,-5.4565334000000005,3.5522559,999.51154,0,0
39.12,7.6260386,-5.5184989999999985,3.3676136,999.49365,0,0
39.16,7.6260386,-5.5184989999999985,3.3676136,999.51355,0,0
39.2,7.951057,-5.0084767,2.9320476,999.50775,0,0
39.24,8.147026,-4.9560447,3.022001,999.5035,0,0
39.28,8.089663999999999,-5.032309,3.2776582000000003,999.50287,0,0
39.32,8.004008,-4.908388,3.6469767,999.51025,0,0
39.36,7.8749647,-4.956054,3.5333521,999.4748,0,0
39.4,7.6551037,-5.0752180000000005,3.3581800000000004,999.5004,0,0
39.44,7.6933570000000016,-5.1133513,3.5191510000000004,999.51514,0,0
39.48,7.774624,-4.979888,3.2966352,999.53955,0,0
39.52,7.846325999999999,-4.956055,3.2445571,999.52014,0,0
39.56,8.018419,-5.0180206,3.4670758000000004,999.4977,0,0
39.6,8.018419,-5.0180206,3.4670758000000004,999.4881,0,0
39.64,7.956297,-5.2086835,3.206685,999.50226,0,0
39.68,7.827252400000001,-5.1181192000000015,3.0267787,999.53955,0,0
39.72,7.918073700000001,-5.0704536,3.1356704,999.48303,0,0
39.76,7.8989644,-5.1324190000000005,3.2824379999999995,999.51917,0,0
39.8,7.894195,-4.975123,3.2303605,999.51904,0,0
39.84,7.918104,-5.046622,3.254033,999.50433,0,0
39.88,7.78428,-5.070455,3.3771286,999.4867,0,0
39.92,7.8081884000000015,-5.079988,3.3581922,999.4965,0,0
39.96,7.769961,-4.9941900000000015,3.4670842000000004,999.5084,0,0
40.0,7.693499,-5.065689,3.6138523,999.51154,0,0
40.04,7.7652009999999985,-5.041857,3.5333679,999.52264,0,0
40.08,8.075903,-5.0227904,3.235102,999.52856,0,0
40.12,8.114147,-4.813062,3.291915,999.48816,0,0
40.16,8.152395,-5.0275574,3.3818696000000004,999.50085,0,0
40.2,8.042465,-5.1562543,3.3155885,999.50574,0,0
40.24,8.152416,-5.237286599999999,3.1025417,999.4902,0,0
40.28,7.994688000000001,-5.3183184,3.1356828,999.4985,0,0
40.32,7.961309399999997,-5.127658,2.9510486,999.4852,0,0
40.36,7.8848449999999985,-5.2182226,3.093082,999.5104,0,0
40.4,7.7749224,-5.141958,3.3582098,999.5151,0,0
40.44,7.9661274,-4.7558669999999985,3.2019752999999995,999.5003,0,0
40.48,7.6076546,-4.9608292999999986,3.2682583,999.51965,0,0
40.52,7.6554656,-5.060928,3.6470118,999.4625,0,0
40.56,7.4260410000000014,-5.0275617,3.3676825,999.5098,0,0
40.6,7.5359955,-5.5947830000000005,3.5523260000000003,999.5077,0,0
40.64,8.047447,-5.423187,3.9784234,999.4827,0,0
40.68,8.109591499999999,-5.0942945,3.471843,999.5123,0,0
40.72,8.133509,-4.8178344000000015,2.657527,999.4921,0,0
40.76,8.04748,-5.0227966,2.884779,999.4966,0,0
40.8,7.84674,-5.0942955,3.3392832,999.48425,0,0
40.84,7.865877999999999,-5.180094,3.6848962,999.5168,0,0
40.88,7.947141,-5.0609307,3.6706939,999.48425,0,0
40.92,7.9806127999999985,-4.9512997,3.4339747000000003,999.50635,0,0
40.96,7.741641,-5.1419625,3.500258,999.4938,0,0
41.0,7.732094999999997,-5.265893,3.429243,999.48596,0,0
41.04,7.751225999999999,-5.2420607000000015,3.3345563,999.5032,0,0
41.08,7.870727499999999,-5.208695,3.34876,999.50635,0,0
41.12,7.8086023,-5.189628599999999,3.216198,999.49335,0,0
41.16,7.69868,-5.2372947,3.310887,999.4608,0,0
41.2,7.7799497,-5.227762,3.471858,999.4787,0,0
41.24,7.760849,-5.141965,3.5476103,999.4959,0,0
41.28,7.7560444,-5.132430599999998,3.4955297,999.4966,0,0
41.32,7.6986979999999985,-5.165797,3.386639,999.50616,0,0
41.36,7.7560673,-5.1038322,3.4955318,999.5081,0,0
41.4,7.698721000000001,-5.127665,3.4150476000000003,999.5058,0,0
41.44,7.674833299999999,-5.256363,3.419783,999.5076,0,0
41.48,7.7369823,-5.1943974000000015,3.4718628,999.5132,0,0
41.52,7.789572,-5.118133,3.4481916,999.485,0,0
41.56,7.866060000000001,-5.003736,3.4008486,999.5099,0,0
41.6,7.856505999999999,-5.046635,3.448193,999.5096,0,0
41.64,7.7274685,-5.103834,3.5097423,999.4923,0,0
41.68,7.7083607,-5.1991653,3.5050087,999.5021,0,0
41.72,7.75139,-5.1562667,3.5002754,999.48975,0,0
41.76,7.8278785000000015,-5.099068,3.3913853,999.4903,0,0
41.8,7.8326697,-5.089535700000001,3.4576678,999.4847,0,0
41.84,7.8326755000000015,-5.070469,3.462403,999.4936,0,0
41.88,7.7896743000000015,-5.1372013,3.4718730000000004,999.5015,0,0
41.92,7.741887599999999,-5.103836,3.4766088,999.51733,0,0
41.96,7.789697,-5.0704699999999985,3.4387343,999.4843,0,0
42.0,7.674993,-5.1419690000000005,3.5523612,999.4917,0,0
42.04,7.6750045,-5.1419690000000005,3.4671428,999.48627,0,0
42.08,7.780172,-5.127669999999998,3.410331,999.4837,0,0
42.12,7.832766499999999,-5.108604,3.4908175000000004,999.4942,0,0
42.16,7.832766499999999,-5.108604,3.4908175000000004,999.50354,0,0
42.2,7.9474936,-5.0132732,3.405599,999.49585,0,0
42.24,8.062225999999999,-4.913176,3.3440535,999.5093,0,0
42.28,7.966635000000001,-4.9656080000000005,3.4671485,999.4913,0,0
42.32,7.8088527,-5.0466385,3.5286913,999.5003,0,0
42.36,7.8088570000000015,-5.0514054,3.5381606,999.4904,0,0
42.4,7.7945266,-4.994207,3.4908173,999.5053,0,0
42.44,7.9092509999999985,-5.018039,3.4671462,999.4828,0,0
42.48,7.923595,-4.9894404,3.4434748,999.4806,0,0
42.52,7.8662505,-5.0323395999999985,3.4482102,999.4884,0,0
42.56,7.8471354999999985,-5.094305,3.452945,999.50006,0,0
42.6,7.746773200000002,-4.956075,3.3771956,999.4934,0,0
42.64,7.7611175,-4.9608417000000005,3.4008682,999.49713,0,0
42.68,7.63208,-5.0704727,3.4482136,999.4948,0,0
42.72,7.7850432,-5.08954,3.5050275,999.47296,0,0
42.76,8.000143,-5.065706700000002,3.4008712999999995,999.49786,0,0
42.8,8.000143,-5.065706700000002,3.4008712999999995,999.4948,0,0
42.84,7.8041839999999985,-5.199171,3.3487940000000003,999.49457,0,0
42.88,7.832872,-5.032342,3.301451,999.4828,0,0
42.92,7.832876,-5.013275599999999,3.3487954,999.4766,0,0
42.96,7.7516327,-5.1848717,3.552376,999.482,0,0
43.0,7.8663615999999985,-5.1562730000000006,3.4529548,999.4643,0,0
43.04,7.9141636,-5.080008,3.4245489,999.48724,0,0
43.08,7.737319999999999,-5.1181410000000005,3.2967205,999.4745,0,0
43.12,7.708646000000001,-5.137207,3.30619,999.4741,0,0
43.16,7.761232400000001,-5.232538,3.4150817000000004,999.4913,0,0
43.2,7.7516820000000015,-5.2754379999999985,3.4576926,999.4864,0,0
43.24,7.852067,-5.1515074,3.4860995000000004,999.4766,0,0
43.28,7.852075599999999,-5.103842299999998,3.339334,999.4962,0,0
43.32,7.7988615,-5.175325,3.4292295,999.4884,0,0
43.36,7.770166400000001,-5.203924,3.5286503,999.4786,0,0
43.4,7.7844887,-5.175324,3.4528985,999.48395,0,0
43.44,7.774912400000002,-5.1800904,3.4292247,999.4711,0,0
43.48,7.8083467,-5.1371902999999985,3.4150193,999.4687,0,0
43.52,7.736625,-5.1848555,3.4150171,999.4938,0,0
43.56,7.7366166,-5.151489700000001,3.4197507000000007,999.5012,0,0
43.6,7.803517299999997,-5.175322,3.5191715,999.50604,0,0
43.64,7.741371000000001,-5.1800885,3.4765613,999.4884,0,0
43.68,7.679209700000001,-5.161021,3.5144346,999.4773,0,0
43.72,7.550138499999999,-5.1657877,3.4670887,999.48065,0,0
43.76,7.54535,-5.1896195,3.467088,999.50287,0,0
43.8,7.63615,-5.165787,3.5286338,999.48773,0,0
43.84,7.746069,-5.1133547,3.5617730000000005,999.4951,0,0
43.88,7.870327,-5.070455,3.5333652,999.4951,0,0
43.92,7.8942103,-4.970357,3.490754,999.4672,0,0
43.96,7.846387400000001,-4.9417567,3.4528766,999.48956,0,0
44.0,7.8654899999999985,-5.013255,3.713267,999.4697,0,0
44.04,7.798564999999999,-5.0752196,3.6895945,999.51483,0,0
44.08,7.7220710000000015,-5.118119,3.5712328,999.47424,0,0
44.12,7.7698526,-5.1324177,3.5428247,999.4945,0,0
44.16,7.679011999999997,-5.1991487,3.4197283,999.4872,0,0
44.2,7.679011999999997,-5.1991487,3.4197283,999.47925,0,0
44.24,7.736353,-5.14195,3.4860082,999.48285,0,0
44.28,7.7036567,-5.184867400000001,3.5381565000000004,999.4943,0,0
44.32,7.732359,-5.1562686,3.4766114000000004,999.5066,0,0
44.36,7.842302,-5.118137,3.4434712,999.497,0,0
44.4,7.784959,-5.146736,3.3393157,999.4912,0,0
44.44,7.8136606,-5.1372037000000015,3.48135,999.48914,0,0
44.48,7.8136606,-5.1372037000000015,3.48135,999.51666,0,0
44.52,7.7133,-5.1562705,3.3629910000000005,999.506,0,0
44.56,7.703763,-5.2182364,3.6233854,999.4937,0,0
44.6,7.86152,-5.0800066,3.4056050000000004,999.49615,0,0
44.64,7.86152,-5.0800066,3.4056050000000004,999.4911,0,0
44.68,7.9284672999999986,-5.1658053,3.5571089,999.4915,0,0
44.72,7.961933,-5.151506,3.4718902000000003,999.4886,0,0
44.76,7.966720599999999,-5.11814,3.353531,999.49316,0,0
44.8,7.761211999999999,-5.2659035,3.3535328,999.5003,0,0
44.84,7.737328,-5.2230053,3.4766288,999.46857,0,0
44.88,7.780353999999999,-5.1419739999999985,3.438754,999.4851,0,0
44.92,7.713452,-5.137208,3.4150834000000003,999.4851,0,0
44.96,7.660889,-5.151508,3.4529602999999995,999.5006,0,0
45.0,7.718261999999997,-5.1944075,3.4292896,999.4851,0,0
45.04,7.8186607000000015,-5.1801080000000015,3.2872596,999.4851,0,0
45.08,7.852127,-5.1086097000000015,3.3014636,999.4778,0,0
45.12,7.985977,-4.9227147,3.372481,999.4975,0,0
45.16,7.5844884000000015,-5.2134748,3.2257159,999.48474,0,0
45.2,7.809162,-5.1038446,3.4813757000000005,999.49255,0,0
45.24,7.809162,-5.1038446,3.4813757000000005,999.49457,0,0
45.28,7.7477589999999985,-5.261158999999998,3.2920668,999.4962,0,0
45.32,7.7143435,-5.251627,3.2115857999999995,999.49194,0,0
45.36,7.7860837,-5.223029,3.192652,999.487,0,0
45.4,7.867383500000001,-5.122932,3.3110160000000004,999.4634,0,0
45.44,7.8769865,-5.099100599999999,3.4104428,999.49194,0,0
45.48,7.82443,-5.1515330000000015,3.3441627,999.4691,0,0
45.52,7.771895,-5.1706004,3.3062918,999.4716,0,0
45.56,7.8053966,-5.223033999999998,3.3441708,999.4876,0,0
45.6,7.767201400000001,-5.232568,3.277893,999.4711,0,0
45.64,7.8054614,-5.213502,3.1974103,999.4938,0,0
45.68,7.862862,-5.1944370000000015,3.4104626,999.4589,0,0
45.72,7.843807000000001,-5.15154,3.263702,999.4861,0,0
45.76,7.8581686,-5.1372404000000005,3.287376,999.46716,0,0
45.8,7.810413400000002,-5.251638400000001,3.4010055,999.4606,0,0
45.84,7.7817993,-5.1706085,3.3584018,999.47565,0,0
45.88,7.800961999999997,-5.18491,3.2968583,999.44507,0,0
45.92,7.786644,-5.180144,3.292126,999.4803,0,0
45.96,7.829726700000001,-5.170612,3.3820856,999.48315,0,0
46.0,7.7341957,-5.208746,3.3489506,999.47015,0,0
46.04,7.7342167,-5.237346,3.3915625,999.45734,0,0
46.08,7.805957,-5.142016,3.306347,999.49475,0,0
46.12,7.8490186,-5.13725,3.2921474,999.4618,0,0
46.16,7.7869244,-5.156317700000002,3.4057775,999.44916,0,0
46.2,7.7774076,-5.1372523,3.4105158,999.4698,0,0
46.24,7.75353,-5.108653,3.3537047,999.46234,0,0
46.28,7.805504300000001,-5.146771,3.3867903,999.4815,0,0
46.32,7.81508,-5.132472,3.3725886,999.4541,0,0
46.36,7.7816296,-5.1324725,3.311042,999.4738,0,0
46.4,7.7912064,-5.1658387,3.3536532,999.4689,0,0
46.44,7.7482039999999985,-5.1610723,3.3962642999999995,999.4611,0,0
46.48,7.843825,-5.1706059999999985,3.448345,999.48596,0,0
46.52,7.839053,-5.099108,3.4010017,999.4407,0,0
46.56,7.88208,-5.003776599999999,3.3583932,999.46356,0,0
46.6,7.920343400000001,-5.0371437000000014,3.4767551,999.4687,0,0
46.64,7.929911,-5.0371437000000014,3.382068,999.48596,0,0
46.68,7.934707,-5.0848093,3.3583975,999.4761,0,0
46.72,7.8582550000000015,-5.0609775,3.4341502,999.4632,0,0
46.76,7.757903999999999,-5.0800447,3.4104805,999.45294,0,0
46.8,7.767472,-5.0705113,3.4862316,999.4657,0,0
46.84,7.944341,-4.9751806,3.519374,999.47797,0,0
46.88,7.882228,-5.04668,3.4057505,999.4632,0,0
46.92,7.820107000000001,-5.056213,3.3726112999999995,999.4597,0,0
46.96,7.7388673,-5.0514474,3.363144,999.4751,0,0
47.0,7.7388673,-5.0514474,3.363144,999.48004,0,0
47.04,7.801029700000001,-5.122946,3.4815062999999995,999.46027,0,0
47.08,7.810597,-5.0657477,3.5241168,999.48737,0,0
47.12,7.8106217,-5.0037827,3.3631492,999.45294,0,0
47.16,7.781951400000001,-5.089581,3.3773532,999.45795,0,0
47.2,7.772417,-5.0276165,3.4152305,999.4394,0,0
47.24,7.820231,-5.080049,3.3962946000000005,999.4399,0,0
47.28,7.8252177,-5.103887,3.4910016,999.4721,0,0
47.32,7.954296,-4.994257,3.4199877,999.4645,0,0
47.36,7.9782076,-4.9751906,3.4199888999999994,999.44965,0,0
47.4,7.9495524999999985,-4.946592,3.4105225,999.4622,0,0
47.44,7.7822833,-5.06099,3.4483995000000003,999.4669,0,0
47.48,7.7871,-5.2135205,3.5099502,999.4721,0,0
47.52,7.7632127,-5.237354,3.4247322,999.4694,0,0
47.56,7.806255,-5.1944550000000005,3.3773901,999.46655,0,0
47.6,7.8684287,-5.0037937,3.3442526,999.4458,0,0
47.64,7.811082400000001,-5.0895925,3.438942,999.43646,0,0
47.68,7.763309,-5.2325897,3.6046484,999.46155,0,0
47.72,7.8302502999999986,-5.099126999999998,3.5620408,999.4541,0,0
47.76,7.6821009999999985,-5.046695,3.3726668,999.473,0,0
47.8,7.749042,-5.1181936,3.4862947,999.47833,0,0
47.84,7.835102,-5.203993,3.5336410000000003,999.46155,0,0
47.88,7.9689727,-5.108662000000002,3.4105496,999.4931,0,0
47.92,7.949866,-5.0514636,3.4247541,999.4557,0,0
47.96,7.868645699999999,-5.070531,3.4152884,999.48535,0,0
48.0,7.6870365,-5.256428,3.5904639,999.44073,0,0
48.04,7.644031,-5.294560400000001,3.5904648,999.4776,0,0
48.08,7.8304667000000014,-5.1992292,3.4437008,999.4681,0,0
48.12,7.9643134999999985,-5.0752997,3.4200294,999.4527,0,0
48.16,7.787485,-5.0228677,3.3490157,999.4483,0,0
48.2,7.4959526,-5.146799,3.4010975,999.4778,0,0
48.24,7.472065400000001,-5.2087650000000005,3.396364,999.46747,0,0
48.28,7.744539,-5.251664,3.6188836,999.44257,0,0
48.32,8.034798,-4.965639,3.3725746,999.43756,0,0
48.36,8.077802,-4.9465723,3.0743058,999.45764,0,0
48.4,7.7049210000000015,-5.2182646,3.476725,999.46967,0,0
48.44,7.523275,-5.0562015,3.457786,999.46655,0,0
48.48,7.6714205999999985,-4.8178730000000005,3.254204,999.48224,0,0
48.52,7.470639999999999,-5.2182629999999985,3.6850326,999.45166,0,0
48.56,7.4610534,-5.3946247000000005,3.8554685,999.4625,0,0
48.6,7.881634,-5.037132,3.3110082000000003,999.4524,0,0
48.64,7.881634,-5.037132,3.3110082000000003,999.48224,0,0
48.68,8.163615,-4.727305,3.1784422,999.4521,0,0
48.72,8.220958,-4.80357,3.2163162,999.4724,0,0
48.76,7.981926,-4.9513316,3.528783,999.46686,0,0
48.8,7.762013400000002,-5.0704947,3.6092641,999.46967,0,0
48.84,7.8336825,-4.984696,3.5051045,999.4742,0,0
48.88,7.881467,-4.9656296,3.552447,999.4709,0,0
48.92,7.8527603,-4.913197,3.4435537000000003,999.4488,0,0
48.96,7.9148693,-5.01806,3.5098326,999.45654,0,0
49.0,7.972199400000001,-4.9513273,3.4530172,999.46716,0,0
49.04,8.034309,-4.917961,3.4198737,999.4546,0,0
49.08,7.843089,-4.989459,3.4908872000000004,999.48846,0,0
49.12,8.015134,-4.689165,3.3109772000000004,999.4589,0,0
49.16,8.005546,-4.7606626,3.642383,999.42615,0,0
49.2,7.957734599999997,-4.655798,3.7228668,999.4652,0,0
49.24,8.153651,-4.341204,3.4482663,999.4709,0,0
49.28,8.1256485,-4.512817,3.642439,999.47864,0,0
49.32,7.7767234,-4.2935553,3.8980968,999.4176,0,0
49.36,7.896219,-4.050461,3.9549098,999.4455,0,0
49.4,7.924897,-4.555715599999999,3.9880502,999.4728,0,0
49.44,7.6859074,-4.4794507,4.1064105,999.4619,0,0
49.48,7.618989999999997,-4.3030887,4.362068,999.443,0,0
49.52,7.733705499999999,-4.284022,4.3052554,999.44965,0,0
49.56,7.7862835000000015,-4.3602867,4.1442857,999.4451,0,0
49.6,7.838861,-4.2029905,4.1348166,999.48236,0,0
49.64,7.9726954,-3.9551296,4.5372415,999.44476,0,0
49.68,7.848420599999999,-4.23159,4.6792736,999.45776,0,0
49.72,7.623769800000002,-4.131492,4.475694,999.457,0,0
49.76,7.8054023,-4.0790606,4.778696,999.4546,0,0
49.8,7.6859074,-4.131492,4.8781184999999985,999.4349,0,0
49.84,7.5998706999999985,-4.207757,5.081698,999.42914,0,0
49.88,7.451697,-4.3030887,4.9159937000000005,999.494,0,0
49.92,7.6094303,-4.1600914,5.0059476,999.4622,0,0
49.96,7.757604,-4.088593,5.124307599999999,999.4664,0,0
50.0,7.4421372,-4.255422599999998,4.9444003,999.4541,0,0
50.04,7.509053999999999,-4.198224,4.7360864000000005,999.4685,0,0
50.08,7.3847795,-4.2935553,5.048557,999.48083,0,0
50.12,7.3417616,-4.2744894,5.0959010000000005,999.4263,0,0
50.16,7.3513207,-4.2601895,5.2474017,999.4689,0,0
50.2,7.13623,-4.455618,5.1148386,999.4589,0,0
50.24,7.193587299999999,-4.350754,5.0911665,999.4608,0,0
50.28,7.1176733999999975,-4.5271300000000005,5.0722804,999.4288,0,0
50.32,7.1607146,-4.493765,5.053344999999998,999.45593,0,0
50.36,7.2420053,-4.512832,4.9633946,999.43066,0,0
50.4,7.394971000000001,-4.4127345,5.181178,999.4509,0,0
50.44,7.3854337,-4.4318013,5.327947,999.44885,0,0
50.48,7.031751,-4.7273283,5.23326,999.478,0,0
50.52,7.1082625,-4.803594,5.048622,999.46576,0,0
50.56,7.156083,-4.7130303,5.110171299999998,999.4879,0,0
50.6,7.156083,-4.7130303,5.110171299999998,999.46326,0,0
50.64,7.093969,-4.8131285,5.0391574,999.4602,0,0
50.68,7.180039,-4.7034984,5.114911,999.46246,0,0
50.72,7.041448,-4.8464956,5.006022,999.4699,0,0
50.76,7.1753054,-4.6891994000000015,5.162259,999.4423,0,0
50.8,7.060612700000001,-4.7035,4.991823,999.4643,0,0
50.84,7.098862599999999,-4.7225660000000005,5.0486364,999.4674,0,0
50.88,6.998521,-4.8417315,5.2143440000000005,999.45465,0,0
50.92,7.1036990000000015,-4.7607,5.1149235,999.4699,0,0
50.96,7.0272455,-4.741635,5.077050700000001,999.4799,0,0
51.0,6.9842386,-4.8131332,5.1054583,999.48914,0,0
51.04,7.01294,-4.827433,5.10546,999.47437,0,0
51.08,7.0846715,-4.7178035000000005,5.0865254,999.47394,0,0
51.12,6.9173899999999975,-4.898933,5.1670113,999.4699,0,0
51.16,7.103836,-4.879868,5.1906867,999.4847,0,0
51.2,7.1755447,-4.870335,5.2711725,999.46936,0,0
51.24,7.0990906,-4.7988367,5.0107822,999.4815,0,0
51.28,7.046536,-4.9132347,5.0107846,999.4669,0,0
51.32,7.0888314,-4.9227504999999985,4.906561,999.4645,0,0
51.36,6.974107000000001,-4.9704156,4.94917,999.476,0,0
51.4,7.064919500000001,-4.9322834,5.0864677,999.45624,0,0
51.44,7.060133500000001,-4.917983,5.0201855,999.4684,0,0
51.48,7.050567599999999,-4.8989167,5.110139,999.4684,0,0
51.52,6.9501853,-4.9370494,5.058059,999.4634,0,0
51.56,6.9931974000000015,-4.8893833,5.067528,999.4914,0,0
51.6,6.9549494,-4.922749,4.9444323,999.4912,0,0
51.64,6.9549494,-4.922749,4.9444323,999.5031,0,0
51.68,6.9549365000000005,-4.8750834,5.1196046,999.4634,0,0
51.72,6.9979515,-4.8893830000000005,5.176416400000001,999.5006,0,0
51.76,7.0361805,-4.8178844000000005,5.110134,999.4981,0,0
51.8,7.0074954,-4.875083,5.133805799999998,999.5109,0,0
51.84,7.0839690000000015,-4.8178844000000005,5.1338053,999.5031,0,0
51.88,6.907109700000001,-5.013313,5.1006637,999.4606,0,0
51.92,6.9071035000000025,-5.0323787000000015,5.039116,999.48236,0,0
51.96,7.00747,-4.956114,4.9254894,999.48303,0,0
52.0,7.002687,-4.994246,5.0154432999999985,999.47034,0,0
52.04,7.0217967,-4.9322805,5.058052,999.5002,0,0
52.08,7.0743713,-4.870315,5.020176,999.47284,0,0
52.12,7.0887074000000005,-4.884615,5.0769887,999.46265,0,0
52.16,6.978762599999999,-5.008545,5.10066,999.4881,0,0
52.2,6.9596399999999985,-5.008545,5.110128400000002,999.4501,0,0
52.24,7.055227,-4.9704127,5.1148615,999.4827,0,0
52.28,6.9563313,-5.046714,5.0297785,999.46515,0,0
52.32,7.090192299999999,-4.960916,5.0913277,999.49994,0,0
52.36,7.171502,-4.908485400000001,4.987175499999998,999.47003,0,0
52.4,6.951685,-5.0800824,5.0724,999.48944,0,0
52.44,6.9756637,-4.9656873,4.7930769999999985,999.49927,0,0
52.48,7.047414,-4.9227896,4.9777239999999985,999.4845,0,0
52.52,6.9757440000000015,-4.93709,4.935117,999.46924,0,0
52.56,6.951925,-4.970458,5.214454,999.5172,0,0
52.6,6.9998016000000005,-4.9132614000000014,5.171852,999.49927,0,0
52.64,6.9807362999999985,-4.8941965,5.0771685,999.4673,0,0
52.68,7.0333405,-4.8846636,5.077171,999.4964,0,0
52.72,6.9282384000000015,-4.9799967,5.0724415999999986,999.4714,0,0
52.76,7.0525660000000014,-4.8942,5.0819154000000015,999.49896,0,0
52.8,7.162555,-4.775037,5.0440445,999.4892,0,0
52.84,7.110003999999999,-4.808403500000002,5.0298440000000015,999.496,0,0
52.88,6.890213,-4.999068,5.0535235,999.4808,0,0
52.92,6.8997993000000015,-5.0324339999999985,5.05826,999.5054,0,0
52.96,7.0767050000000005,-4.8608400000000005,5.1198120000000005,999.4758,0,0
53.0,7.0289607000000025,-4.884673599999998,5.029864,999.48895,0,0
53.04,6.981242,-4.9514074,5.034605,999.48816,0,0
53.08,6.9286910000000015,-5.0324397,4.9020443,999.4759,0,0
53.12,7.1247163,-4.8656115999999985,5.351818,999.47473,0,0
53.16,7.0434866,-5.0086083,5.4181019999999975,999.4611,0,0
53.2,6.871465700000001,-4.965711,4.920994,999.48535,0,0
53.24,7.1248493,-4.8370156,5.0725,999.45013,0,0
53.28,6.9480495,-5.037212,5.0346293,999.4822,0,0
53.32,6.9175179999999985,-5.0705323,4.9161,999.46765,0,0
53.36,7.0369916,-5.442323,4.868754,999.5312,0,0
53.4,7.1086674,-4.770238,5.2711763,999.5341,0,0
53.44,7.438452199999999,-4.6653733,6.3790255,999.45575,0,0
53.48,6.5207086,-4.918,3.6567404,999.44714,0,0
53.52,6.3342743,-6.0619736,5.0770593,999.47504,0,0
53.56,8.227044,-4.00282,3.8887212,999.4764,0,0
53.6,7.3140907,-3.9789872,4.797726,999.5362,0,0
53.64,6.291191,-5.6901803,6.369546400000001,999.4726,0,0
53.68,6.6783447,-5.180159,5.4936805,999.4279,0,0
53.72,7.0176786999999985,-5.2182903,4.6509532999999985,999.43726,0,0
53.76,6.8025656,-4.8655643,4.5089197,999.48285,0,0
53.8,6.9650683,-5.060993,5.7872076,999.4767,0,0
53.84,7.0463033,-4.9751945,5.2332800000000015,999.4672,0,0
53.88,6.8885484,-4.6463017,4.499446,999.49365,0,0
53.92,6.9219740000000005,-5.1372557,5.498402,999.4813,0,0
53.96,6.8072490000000005,-5.027625,5.266415,999.4742,0,0
54.0,6.826346000000001,-4.913227,4.85452,999.47144,1,2
54.04,7.1513515,-4.765463400000002,5.3895054,999.46405,1,2
54.08,6.859762,-4.9084597,5.351629,999.4739,1,2
54.12,6.6972265,-5.032389,5.408439,999.4697,1,2
54.16,6.745014,-4.9036922,5.148046,999.48645,1,2
54.2,6.8071084000000015,-4.913224,5.261668,999.4711,1,2
54.24,6.8883543000000005,-4.8989244,5.304277,999.4859,1,2
54.28,6.8032994,-4.9752135000000015,5.3185697,999.49115,1,2
54.32,6.8080982999999975,-4.932315,5.190742500000002,999.4764,1,2
54.36,6.7937784,-4.937081299999999,5.1434,999.4816,1,2
54.4,7.0758147,-4.956149,5.4037957,999.4739,1,2
54.44,6.8607335,-5.161110400000001,5.3091073,999.4862,1,2
54.48,6.7842755000000015,-5.142045,5.290172,999.49115,1,2
54.52,6.951587700000001,-5.0419480000000005,4.471122,999.5091,1,2
54.56,7.224056,-5.041949,4.8593445,999.48413,1,2
54.6,7.4200463,-5.556737,4.4521875,999.47174,1,2
54.64,7.171525,-5.618703,3.3680115,999.471,1,2
54.68,7.171525,-5.618703,3.3680115,999.47833,1,2
54.72,7.3436270000000015,-5.9428296,3.3301387000000005,999.4845,1,2
54.76,7.133325,-5.9809623,2.7525423,999.48645,1,2
54.8,7.061647,-5.8665650000000005,2.0187113,999.4816,1,2
54.84,6.7796674,-6.4337870000000015,2.6862652,999.46655,1,2
54.88,7.0043273,-6.3575215,2.5442338,999.487,1,2
54.92,7.9172983,-5.366079,3.2354596,999.4968,1,2
54.96,8.428747,-5.0610194,3.9692934,999.4895,1,2
55.0,7.874327,-3.8407815,3.9266868,999.4767,1,2
55.04,7.874327,-3.8407815,3.9266868,999.4673,1,2
55.08,10.737468,-3.8407824,5.900937,999.46765,1,2
55.12,12.759344,-3.0829005,6.502208,999.45746,1,2
55.16,13.614939,-2.5442796000000003,6.521147,999.4951,1,2
55.2,14.556579,-3.2544968,6.7957444,999.48737,1,2
55.24,14.527909,-3.535724,5.408564,999.4968,1,2
55.28,14.279067,-5.204012400000001,4.864081,999.5021,1,2
55.32,13.275317,-6.019093,4.3575006,999.4968,1,2
55.36,12.9502945,-6.204989,3.6757464,999.5018,1,2
55.4,10.684672,-7.7016883,2.1039248,999.473,1,2
55.44,8.184842,-8.616867,1.8340642,999.5091,1,2
55.48,5.847524,-9.1602545,0.58891636,999.4878,1,2
55.52,3.8256738,-9.322317,-0.4195113,999.48737,1,2
55.56,2.0571558000000003,-9.608312,-0.012351585,999.4808,1,2
55.6,2.0571558000000003,-9.608312,-0.012351585,999.455,1,2
55.64,2.7980351000000003,-13.311926,-0.6562298000000001,999.4733,1,2
55.68,5.704162,-11.924859,1.616285,999.4858,1,2
55.72,6.5454106,-11.686531,1.4600499,999.5054,1,2
55.76,11.052775,-11.953458,2.610511,999.4652,1,2
55.8,12.438925,-12.191786,2.7951536,999.48364,1,2
55.84,12.893013,-9.517748,3.66155,999.48865,1,2
55.88,11.597689,-9.717944,3.6047378,999.48615,1,2
55.92,11.908385,-8.264142999999999,3.7799115,999.48364,1,2
55.96,11.573809,-5.609172,4.6415744000000005,999.50146,1,2
56.0,11.497335,-4.2650027,4.9635143,999.4766,1,2
56.04,12.429403,-1.5861981,4.5563555,999.4842,1,2
56.08,11.721999,-1.8292928,3.287536,999.48364,1,2
56.12,11.167547,-2.7015727000000003,3.5195222000000004,999.50616,1,2
56.16,11.325284,-3.063831,3.6142106,999.4759,1,2
56.2,11.89409,-4.9323215,3.5337267,999.48364,1,2
56.24,12.764021,-5.9094663,2.7904255,999.4788,1,2
56.28,13.17031,-6.0905957000000015,0.37114534,999.48895,1,2
56.32,12.754474,-8.345177,0.7025543000000001,999.53534,1,2
56.36,13.361513,-9.798977,2.7478173,999.5458,1,2
56.4,13.471454,-12.816207,3.2307274,999.54114,1,2
56.44,13.136758,-14.236639000000002,5.735217,999.56116,1,2
56.48,12.8069515,-13.068832,6.4737844,999.516,1,2
56.52,10.866353,-12.439648,5.768358,999.5243,1,2
56.56,8.681985000000001,-11.8152275,5.129214,999.4689,1,2
56.6,5.446062,-9.52728,3.1644363,999.4867,1,2
56.64,4.676514,-8.540602999999999,2.799887,999.4694,1,2
56.68,2.9175487,-7.577758999999999,1.6162862,999.463,1,2
56.72,0.15960391,-7.3584976,0.47056043,999.4257,1,2
56.76,-1.3603716,-6.743612,-0.85980713,999.438,1,2
56.8,-0.65773815,-8.068714,-0.49999213,999.4229,1,2
56.84,3.2186852000000004,-10.037303,-0.81719697,999.4324,1,2
56.88,7.2815210000000015,-12.592177,-0.56153893,999.4328,1,2
56.92,11.889254,-12.573112,0.944002,999.4476,1,2
56.96,16.109823000000002,-13.040235,0.84931403,999.45496,1,2
57.0,16.568686,-14.160375,1.3322235,999.4574,1,2
57.04,16.315360000000002,-11.834295,3.0034688,999.4624,1,2
57.08,16.119389,-10.0325365,3.4153616,999.5052,1,2
57.12,12.658813,-7.5729933,1.0055503,999.47534,1,2
57.16,12.658813,-7.5729933,1.0055503,999.48975,1,2
57.2,10.670419,-5.7950673,0.5131725,999.47003,1,2
57.24,10.938089,-4.7702575,0.23857714,999.4756,1,2
57.28,11.812796,-2.7540042,-0.7935229,999.47284,1,2
57.32,13.337557,-2.66344,2.7904217,999.49445,1,2
57.36,13.557429,-2.105753,3.7088966,999.4873,1,2
57.4,10.761246,-4.641561,5.545846,999.475,1,2
57.44,8.973262,-8.712192,7.217059,999.5073,1,2
57.48,7.6874766,-10.347121,11.004581,999.502,1,2
57.52,9.03059,-10.409086,10.507468,999.495,1,2
57.56,9.15964,-10.3185215,10.521671,999.5695,1,2
57.6,11.65946,-11.977282,12.169243,999.5094,1,2
57.64,11.186253,-12.444405,12.022476,999.5172,1,2
57.68,12.266477,-12.272809,10.540606,999.5052,1,2
57.72,12.295152,-12.577868,9.001924,999.4879,1,2
57.76,10.172906,-13.559778,8.258621,999.5101,1,2
57.8,8.313552,-12.654132,6.852501400000001,999.49036,1,2
57.84,6.506774,-11.662688,4.759894,999.4783,1,2
57.88,3.787054,-10.280386,4.2343736,999.47076,1,2
57.92,2.7785041,-8.240299,3.012896,999.45135,1,2
57.96,2.1714575000000003,-7.4776506,2.3926883,999.42847,1,2
58.0,2.0567253,-7.701678299999997,1.9287149,999.429,1,2
58.04,3.2755637,-8.435727,2.293263,999.4192,1,2
58.08,3.6531622,-8.702655,2.4116225,999.4264,1,2
58.12,4.3653474,-8.759853,1.9855257,999.42847,1,2
58.16,8.318228,-9.055379,0.9108143,999.4019,1,2
58.2,10.387872,-11.233696,1.6777866999999995,999.444,1,2
58.24,12.113371,-10.504412,-0.42902434,999.45184,1,2
58.28,13.131462,-9.74653,-1.2291393,999.4536,1,2
58.32,12.409689,-10.375714,-0.86459225,999.45184,1,2
58.36,11.348561,-11.133596,-0.8551244,999.4536,1,2
58.4,11.262519,-10.123087,-1.5037383999999998,999.48315,1,2
58.44,11.214615,-7.7588716,-1.958251,999.4684,1,2
58.48,10.033988,-5.8617816,-0.6278847,999.5031,1,2
58.52,8.657389,-5.156331,0.78296655,999.4802,1,2
58.56,8.891575999999997,-4.3698483,4.0070944,999.50287,1,2
58.6,9.546394,-3.864593,5.531571,999.4979,1,2
58.64,9.622864,-4.188719,6.3979664000000005,999.4879,1,2
58.68,9.5081415,-4.937068,6.6914988,999.4661,1,2
58.72,8.4709015,-8.206926,6.634684,999.49286,1,2
58.76,7.86385,-9.589227,6.161242,999.45605,1,2
58.8,7.878182400000001,-9.474829,6.2085852999999975,999.4848,1,2
58.84,8.561671,-10.728433,6.331678,999.4756,1,2
58.88,8.069336,-12.287096,5.815626,999.49554,1,2
58.92,7.9163747,-12.382427,5.3753257,999.4684,1,2
58.96,7.6008925,-12.072601,4.513662999999998,999.4758,1,2
59.0,5.7415185,-11.176488,3.1785579,999.48566,1,2
59.04,5.7415185,-11.176488,3.1785579,999.47034,1,2
59.08,5.129681,-8.678811,1.6067334,999.44855,1,2
59.12,4.3553376,-7.4967046,1.3084645,999.4606,1,2
59.16,5.1392097,-5.2754884,2.3310945,999.45807,1,2
59.2,5.856173,-4.2745120000000005,3.6614616,999.4535,1,2
59.24,6.549229,-3.6929913,3.0791285,999.436,1,2
59.28,7.538626,-2.6967807,5.129123,999.44794,1,2
59.32,7.538626,-2.6967807,5.129123,999.443,1,2
59.36,7.925759299999997,-2.2677896,5.924501,999.46826,1,2
59.4,7.653295,-3.0066056,6.7009416,999.4184,1,2
59.44,7.2526655,-2.8064318,6.487973,999.44086,1,2
59.48,7.3339424,-2.549038,6.3128023,999.46265,1,2
59.52,8.127419999999999,-2.7635338,6.2891330000000005,999.463,1,2
59.56,8.481136,-2.8969977000000005,6.6347460000000025,999.463,1,2
59.6,8.289953,-2.8254995,6.719966,999.4802,1,2
59.64,7.730747,-3.3593545,5.0392547,999.53937,1,2
59.68,6.836944,-3.5929163,6.445375,999.5218,1,2
59.72,7.367512700000002,-3.2354248,7.605305,999.3667,1,2
59.76,7.7021194,-3.1400943,5.6073879999999985,999.44824,1,2
59.8,7.716479,-3.0495303,5.1670904,999.44794,1,2
59.84,7.6017839999999985,-2.9160671,5.6215954,999.45074,1,2
59.88,7.463189999999999,-3.1400957000000003,5.9624742999999985,999.44794,1,2
59.92,6.999579,-3.5023546000000003,5.9814143,999.48303,1,2
59.96,7.0330586,-3.3402927000000004,6.0145574,999.45276,1,2
60.0,7.009179,-3.5643213,5.934074,999.47687,1,2
60.04,6.9136039999999985,-3.4499242,6.128186,999.46674,1,2
60.08,7.061808,-3.0257015,6.033501,999.49963,1,2
60.12,6.961452499999999,-3.1877646,5.7257667,999.4946,1,2
60.16,6.961452499999999,-3.1877646,5.7257667,999.47034,1,2
60.2,7.219582000000001,-3.235431,6.080849,999.45526,1,2
60.24,7.401235000000002,-3.283097,6.024038,999.4848,1,2
60.28,6.7942204,-3.9694817,6.132931,999.457,1,2
60.32,6.717764,-3.8693845,6.0287760000000015,999.47687,1,2
60.36,7.0906086,-3.5357258000000003,5.896215,999.47253,1,2
60.4,7.0858493000000005,-3.4832942000000005,5.711575,999.4842,1,2
60.44,6.965809299999999,-3.764508,6.0855427,999.4694,1,2
60.48,7.1617804000000005,-3.578612,5.7162595000000005,999.44464,1,2
60.52,6.9705850000000025,-3.7883403,5.948245,999.47687,1,2
60.56,6.717253,-3.936104,6.1328864,999.4766,1,2
60.6,6.760269,-4.002835299999999,5.867759,999.4566,1,2
60.64,7.0327163,-3.6167443,5.4700694000000025,999.4911,1,2
60.68,6.679007,-4.379393,6.431153299999999,999.435,1,2
60.72,7.1426440000000015,-3.683476,5.7020545,999.4365,1,2
60.76,7.5632652999999985,-3.950403,6.066603700000001,999.45905,1,2
60.8,6.5069265,-3.7120755,5.034503,999.5501,1,2
60.84,6.894087,-3.974236,6.360136,999.4892,1,2
60.88,7.314707799999999,-3.969469,6.999281,999.45905,1,2
60.92,6.9371,-3.669176,4.8403915999999985,999.4635,1,2
60.96,6.521256,-3.8979704,4.5373898,999.4487,1,2
61.0,6.664647,-4.460424,6.6299963,999.4533,1,2
61.04,7.0183506,-3.945636,5.7636,999.46155,1,2
61.08,6.808037,-4.2173295,5.929303599999999,999.45374,1,2
61.12,6.6741996,-4.4270580000000015,6.0571327,999.4484,1,2
61.16,6.9275265,-4.2792949999999985,5.986116,999.4763,1,2
61.2,6.980103,-4.312661,5.990851,999.4381,1,2
61.24,6.6837525,-4.35556,5.9151,999.4635,1,2
61.28,6.5881543,-4.369859,5.4037843,999.4755,1,2
61.32,6.712426,-4.3889255999999985,5.8251457,999.4635,1,2
61.36,6.822358,-4.250695,5.5836906,999.45245,0,0
61.4,6.788898,-4.388925,5.6973166,999.4808,0,0
61.44,6.8462534,-4.46519,5.9008956,999.45013,0,0
61.48,6.97059,-4.4032264,5.9435105,999.4529,0,0
61.52,6.6312240000000005,-4.4699583,5.6594462,999.47015,0,0
61.56,6.798517,-4.4032264,5.9103703,999.4657,0,0
61.6,6.683802,-4.465192,5.853557,999.45013,0,0
61.64,6.722040700000001,-4.4365926,5.7872753,999.4681,0,0
61.68,6.6790223,-4.489024,5.981386,999.4734,0,0
61.72,6.6503434000000015,-4.503324,5.86776,999.4976,0,0
61.76,6.7363796,-4.4318256,5.8724947,999.4767,0,0
61.8,6.640784,-4.5319233,5.9056354,999.4649,0,0
61.84,6.722040700000001,-4.4318256,5.616837,999.4673,0,0
61.88,6.636004400000001,-4.503324,5.6121025,999.4657,0,0
61.92,6.325317,-4.608188,5.361179,999.48486,0,0
61.96,6.5260687000000015,-4.908481,5.3517103,999.443,0,0
62.0,6.5929856,-4.8941817,5.23335,999.4459,0,0
62.04,6.49261,-5.142043,4.9540205,999.48,0,0
62.08,6.798517,-5.0085793,4.6936282999999985,999.4332,0,0
62.12,6.7268205000000005,-5.3231720000000005,5.252288,999.4681,0,0
62.16,6.903673,-5.137276,4.7315035000000005,999.5001,0,0
62.2,7.214360000000001,-5.0657783,4.660487,999.4833,0,0
62.24,7.477249599999999,-5.0610113,5.020302,999.48285,0,0
62.28,6.908452499999999,-5.218308,5.077114599999999,999.46075,0,0
62.32,6.9897100000000005,-5.3088727,5.0960526,999.48035,0,0
62.36,7.3003964,-5.2040086,5.2144127000000005,999.4927,0,0
62.4,7.2860575,-5.385136599999999,4.8924727,999.441,0,0
62.44,6.9849935,-5.4852366,4.7078370000000005,999.48,0,0
62.48,6.9133005,-5.5948677,4.2059903,999.4561,0,0
62.52,6.9563193,-5.265975,4.049755,999.4709,0,0
62.56,7.2000923,-5.5519680000000005,4.8072605,999.46643,0,0
62.6,7.0662600000000015,-5.5281353,4.253335,999.466,0,0
62.64,6.9897857000000005,-5.7426309999999985,4.1823190000000015,999.47833,0,0
62.68,6.9180913,-5.857028,3.9834743,999.4763,0,0
62.72,7.080606,-5.7759967,3.8651145,999.4984,0,0
62.76,7.147525999999999,-5.6520667,4.02135,999.48816,0,0
62.8,7.209665299999997,-5.7521644,4.0402879999999985,999.4685,0,0
62.84,7.1762093999999985,-5.6473002,3.727817500000001,999.4763,0,0
62.88,6.9515615,-5.9189935,3.7278178,999.4709,0,0
62.92,6.722134599999999,-5.9332933,3.855647,999.46185,0,0
62.96,6.6265397,-5.790297,3.7088807,999.46185,0,0
63.0,6.8894315000000015,-5.7855300000000005,3.4863636,999.4689,0,0
63.04,7.209682000000001,-5.723565,3.9124606,999.4685,0,0
63.08,7.3244,-5.8760953,4.3432917999999985,999.434,0,0
63.12,7.281384,-5.327941,4.3716984000000005,999.5094,0,0
63.16,7.238367599999999,-5.4423385,4.1586504,999.49225,0,0
63.2,7.061516,-5.7187986,3.9882119,999.4697,0,0
63.24,6.956364,-5.4471050000000005,3.439021,999.4799,0,0
63.28,7.0376244,-5.895162,4.158651,999.4646,0,0
63.32,6.9611487000000025,-6.019092,4.4237776,999.49896,0,0
63.36,6.875115400000001,-6.0381584,4.3717,999.46155,0,0
63.4,6.8655589999999975,-6.0715246,3.7325554,999.47217,0,0
63.44,6.6882663,-6.100113,3.6851711,999.4574,0,0
63.48,6.6452246,-6.081046,3.8698106,999.45557,0,0
63.52,6.745593,-6.023847,3.8982165,999.5094,0,0
63.56,7.1805325,-5.718787,3.633087600000001,999.45465,0,0
63.6,7.0084443,-5.685421,3.7561808,999.44543,0,0
63.64,6.912841,-5.790285,3.6472888,999.4845,0,0
63.68,6.955836,-5.9285145,4.1491337,999.4772,0,0
63.72,6.955836,-5.9285145,4.1491337,999.4799,0,0
63.76,6.821986,-6.0810437,4.2106795,999.42755,0,0
63.8,7.0705132,-5.866548000000001,4.2248807,999.4778,0,0
63.84,7.056159,-6.0381436,4.1301913,999.48303,0,0
63.88,7.0896095999999975,-5.9571123,4.1065182999999985,999.45807,0,0
63.92,7.0943747,-5.933279,3.7940462,999.4806,0,0
63.96,6.4060597,-5.8665466,3.4105575,999.47034,0,0
64.0,7.0752169999999985,-5.756915599999999,3.0980852000000003,999.46765,0,0
64.04,7.1708054999999975,-5.761682,3.183304,999.4876,0,0
64.08,6.630665,-6.1048737,4.3574343,999.451,0,0
64.12,6.754925,-6.0476747,4.523136599999999,999.4655,0,0
64.16,6.903091000000001,-5.9142103,4.305353599999999,999.46265,0,0
64.2,6.9652133,-5.9046774000000015,3.9739437,999.4978,0,0
64.24,7.0655660000000005,-5.7187805,3.874519,999.4879,0,0
64.28,7.0225325,-5.918976,4.2438015999999985,999.5097,0,0
64.32,7.003406,-5.9714074,4.357426599999998,999.4405,0,0
64.36,7.1276584000000005,-5.804578,4.0780945,999.4827,0,0
64.4,7.156329,-5.8141108,4.082828,999.46124,0,0
64.44,7.017628,-5.714011,3.9644601,999.4781,0,0
64.48,6.917242999999999,-5.7807426,3.950256,999.4532,0,0
64.52,6.883767,-5.9571047,4.0212703,999.4501,0,0
64.56,6.86463,-6.0095363,4.115957,999.4932,0,0
64.6,6.7212095000000005,-5.9904699999999975,3.7987492,999.45856,0,0
64.64,6.7164207,-5.8903713,3.6614509,999.4387,0,0
64.68,6.764209299999999,-5.8474727,3.66145,999.46674,0,0
64.72,6.7785225,-5.9571023,3.5194154,999.47845,0,0
64.76,6.821523,-6.0429,3.727728,999.44855,0,0
64.8,6.8501925,-6.0238337999999985,4.002322,999.42847,0,0
64.84,6.816716,-5.9189687000000015,3.68985,999.4659,0,0
64.88,7.0222125,-5.9380345000000005,3.8650198,999.46674,0,0
64.92,6.8835807,-5.7950373,3.7513924,999.4767,0,0
64.96,7.0747550000000015,-5.7855034000000005,3.8366098,999.4511,0,0
65.0,7.103416,-5.880833999999999,4.040188,999.4463,0,0
65.04,7.103416,-5.880833999999999,4.040188,999.4217,0,0
65.08,6.936087599999999,-5.9237328,3.789261,999.45386,0,0
65.12,6.969537,-5.8998995,3.7797916,999.47107,0,0
65.16,6.902602000000001,-5.9904637,3.8081963,999.47394,0,0
65.2,6.8595753,-6.0095296,3.8223987,999.4616,0,0
65.24,6.969492999999999,-5.999996,3.902882,999.4641,0,0
65.28,6.950347,-5.933264,3.8271291,999.4733,0,0
65.32,6.969457000000001,-5.947563,3.9218163,999.44604,0,0
65.36,6.8833942,-5.856998,3.784516,999.45605,0,0
65.4,6.945523,-5.8808303,3.7750466,999.50287,0,0
65.44,6.931164999999999,-5.9999943,4.0117650000000005,999.4684,0,0
65.48,6.945487,-5.895129,4.111186,999.4691,0,0
65.52,6.8785524,-5.8331637,3.8176513,999.47437,0,0
65.56,6.8594065,-5.942794,3.9928217,999.4595,0,0
65.6,6.8020305999999975,-6.0333576,4.0685706,999.4568,0,0
65.64,6.8211417,-6.004758,4.0685699999999985,999.46185,0,0
65.68,6.9023805,-5.9332595,3.7466288,999.4641,0,0
65.72,6.888032000000001,-5.976158,3.760831,999.45135,0,0
65.76,6.8115377000000015,-6.02859,3.8886585,999.4915,0,0
65.8,6.9501339999999985,-5.923725,3.7466247,999.45184,0,0
65.84,7.0696115000000015,-5.8522263,3.8413112,999.4423,0,0
65.88,6.8927226,-5.9284906,3.8933864,999.45184,0,0
65.92,6.911834,-5.9427900000000005,3.9738703,999.4641,0,0
65.96,6.849678,-5.9761553,3.950197,999.476,0,0
66.0,6.8018713,-5.947556,3.869711,999.46185,0,0
66.04,6.8305240000000005,-5.895123,3.9880686,999.4815,0,0
66.08,6.730129700000001,-5.976154,3.9928014,999.4641,0,0
66.12,6.7970295,-5.942788,4.0543475,999.4666,0,0
66.16,6.9308460000000025,-6.0714846,3.907579,999.45624,0,0
66.2,6.836292,-5.8713145,4.125457,999.43396,0,0
66.24,6.6737850000000005,-5.985712,3.8745341,999.4733,0,0
66.28,6.6833477,-6.004778400000001,3.902941,999.4789,0,0
66.32,6.4109087,-6.0524445,3.7135656,999.4536,0,0
66.36,6.430032,-6.0953436,3.7088315,999.45856,0,0
66.4,6.912801299999999,-5.9666467,3.680426,999.4463,0,0
66.44,6.946263,-6.0715113,3.9976313,999.45074,0,0
66.48,7.209161999999999,-6.028612,4.3527125999999985,999.4412,0,0
66.52,7.147032,-5.8379498,4.049711,999.451,0,0
66.56,6.8411303,-5.9714136,4.0591807,999.4543,0,0
66.6,6.888935000000001,-5.9380484,4.1870103,999.4709,0,0
66.64,6.8220243,-6.033379,4.248558,999.46826,0,0
66.68,6.8602690000000015,-6.042913,4.0497136,999.48083,0,0
66.72,6.946308599999999,-6.0572124,4.0970580000000005,999.44855,0,0
66.76,6.726448,-6.1287107,3.955027,999.45605,0,0
66.8,6.654754,-6.204975599999999,3.812995200000002,999.4606,0,0
66.84,6.693002000000001,-6.1239447999999985,3.6899016,999.4783,0,0
66.88,6.769482000000001,-6.0953455000000005,3.5715415,999.4633,0,0
66.92,6.7647122999999985,-6.119179,3.7798564,999.4608,0,0
66.96,6.836412400000001,-6.0572133,3.8319352,999.451,0,0
67.0,6.965477000000001,-6.000015,3.704107,999.4802,0,0
67.04,7.0658593,-5.9666489999999985,3.9124212,999.4781,0,0
67.08,6.927251299999999,-5.9428163,3.7041082,999.47003,0,0
67.12,6.922475,-5.961883,3.7372491,999.49994,0,0
67.16,6.8125463,-6.066747,3.6614995,999.45557,0,0
67.2,6.8511796,-5.9523597000000015,3.6568012,999.4778,0,0
67.24,6.8511796,-5.9523597000000015,3.6568012,999.4648,0,0
67.28,6.717377000000001,-6.085824,3.8840554,999.45465,0,0
67.32,6.7460774999999975,-6.0619917,3.6994157,999.45465,0,0
67.36,6.942071,-6.014327,3.7704337,999.4532,0,0
67.4,6.9181940000000015,-5.8236647,3.8982646,999.45215,0,0
67.44,6.9516740000000015,-5.890397,3.9124699,999.48206,0,0
67.48,6.7748423,-5.9571295,3.8603933,999.4774,0,0
67.52,6.626689999999999,-6.042928,3.8603954,999.4624,0,0
67.56,6.7796660000000015,-5.9857297,3.879335,999.4599,0,0
67.6,6.7557990000000006,-6.1191945,3.7893841,999.46155,0,0
67.64,6.684112,-6.190693,3.8035884,999.45276,0,0
67.68,6.7558312,-6.023864,3.6284173,999.46155,0,0
67.72,6.9805036,-5.9523664000000025,3.6520915,999.4842,0,0
67.76,6.8992577000000015,-6.009565,3.7562494,999.47955,0,0
67.8,6.947088000000001,-6.009566,4.106598399999998,999.4741,0,0
67.84,6.904080400000002,-5.9571342000000005,4.0308485,999.4791,0,0
67.88,6.932791,-5.947602,3.9030228,999.4772,0,0
67.92,6.8611054000000005,-5.980968,3.8178043,999.47174,0,0
67.96,6.6986240000000015,-5.9809685,3.8840892,999.4833,0,0
68.0,6.827700599999999,-5.947603,3.964576,999.46924,0,0
68.04,6.827711,-6.0191016,3.9787803,999.5058,0,0
68.08,6.6843386,-6.066768,4.011923,999.4586,0,0
68.12,6.8468738,-6.0763016,3.921971,999.4759,0,0
68.16,7.009419,-6.033403400000001,3.8983023,999.4763,0,0
68.2,7.075175,-5.9761763,3.9881496,999.4808,0,0
68.24,6.979553,-5.809346,4.182258,999.4808,0,0
68.28,6.8600330000000005,-5.723547,3.675674,999.5182,0,0
68.32,7.0034018,-5.6234493,3.973939,999.45825,0,0
68.36,6.9173399999999985,-5.899909,3.9644682,999.48486,0,0
68.4,6.879063,-5.9571066,4.063887,999.4808,0,0
68.44,6.979426400000001,-5.890374,3.9834013,999.4685,0,0
68.48,6.9029110000000005,-5.9332724,4.182243,999.48816,0,0
68.52,6.9554768,-5.8141084,4.1775074,999.4484,0,0
68.56,6.974571000000001,-5.5900793,4.2674584000000015,999.4979,0,0
68.6,6.8980684000000005,-5.737842,4.1348925,999.4898,0,0
68.64,6.898043,-5.628210500000002,4.409486,999.4627,0,0
68.68,6.783289999999999,-5.690175,4.1490903,999.4878,0,0
68.72,7.0318270000000025,-5.46138,4.3005896,999.4632,0,0
68.76,7.0079026,-5.609143,4.5136356,999.4895,0,0
68.8,6.8023457999999986,-5.509044,4.357398,999.4722,0,0
68.84,6.826232000000001,-5.342214599999998,4.300584,999.5018,0,0
68.88,6.7114910000000005,-5.227816000000002,4.7219440000000015,999.487,0,0
68.92,7.03648,-5.2516484000000005,4.5609712999999985,999.4813,0,0
68.96,7.0412474000000005,-5.3279133000000005,4.788221,999.48413,0,0
69.0,6.7018557,-5.5233417000000005,5.053344999999998,999.46436,0,0
69.04,7.0364036999999975,-5.461375,5.3894844000000015,999.49194,0,0
69.08,6.9121039999999985,-5.4899735,5.138559,999.46893,0,0
69.12,6.3862877000000005,-5.6377362999999985,4.6225047,999.46686,0,0
69.16,6.617112,-5.404209,4.9114312999999985,999.4736,0,0
69.2,6.688825,-5.385143,4.8214793,999.4616,0,0
69.24,6.6506023,-5.3279448,4.8830276,999.47845,0,0
69.28,6.8275027,-5.180183,4.797813400000001,999.45135,0,0
69.32,7.0521850000000015,-4.979988,4.7930813,999.4789,0,0
69.36,6.822802499999999,-5.1849513,5.0534782,999.4809,0,0
69.4,6.822802499999999,-5.1849513,5.0534782,999.471,0,0
69.44,6.765492,-5.289817,4.9398565,999.4734,0,0
69.48,6.8276453,-5.246918,4.8451695,999.48566,0,0
69.52,6.9328327000000005,-5.1325216,4.78836,999.46533,0,0
69.56,6.770351,-5.4089823,4.987208,999.458,0,0
69.6,6.822961,-5.2707534,4.963539,999.48083,0,0
69.64,7.300988,-5.02766,4.7126199999999985,999.48083,0,0
69.68,7.300988,-5.02766,4.7126199999999985,999.46936,0,0
69.72,6.866074,-5.170657599999998,4.9351410000000016,999.4555,0,0
69.76,6.947378,-4.922798,4.215516,999.46783,0,0
69.8,7.0525494,-5.065795400000002,4.4285655,999.47455,0,0
69.84,6.722775,-5.304124,4.991963,999.46936,0,0
69.88,6.5889564,-5.2945910000000005,5.0866523,999.46936,0,0
69.92,6.761092,-5.537687,4.722109,999.4798,0,0
69.96,6.651189,-5.4804893,4.3670316,999.4625,0,0
70.0,6.6081862000000005,-5.43759,4.2960167,999.4795,0,0
70.04,6.8472085000000025,-5.63302,4.390708,999.44434,0,0
70.08,6.7516437000000025,-5.5376897000000005,4.092443,999.47003,0,0
70.12,6.9189687000000015,-5.742652400000001,4.4238544,999.4666,0,0
70.16,7.0480550000000015,-5.723587,4.494873,999.49115,0,0
70.2,7.113979,-5.818894,4.4000945,999.4639,0,0
70.24,7.113979,-5.818894,4.4000945,999.489,0,0
70.28,7.156979,-5.6949625,4.494781,999.4664,0,0
70.32,7.0852776,-5.661597,4.456906,999.4409,0,0
70.36,7.0470304000000015,-5.509067,4.461639,999.4789,0,0
70.4,6.712431,-5.895158,4.314871299999999,999.4951,0,0
70.44,6.6598440000000005,-5.8856244,4.1870413,999.4577,0,0
70.48,6.7124175999999975,-5.909456700000002,4.068681,999.4709,0,0
70.52,6.9131603,-5.8427253,4.139696,999.4861,0,0
70.56,6.8127755999999975,-5.928522599999999,4.224914599999999,999.47327,0,0
70.6,6.6311339999999985,-5.895157,4.0260687000000015,999.4639,0,0
70.64,7.032628999999999,-5.656829,3.88877,999.4683,0,0
70.68,7.0947580000000015,-5.828424,4.078146,999.45526,0,0
70.72,7.128203,-5.871323,3.841424,999.47327,0,0
70.76,7.061281,-5.842724,3.950315,999.49054,0,0
70.8,6.927438,-5.8474900000000005,4.1302214,999.46765,0,0
70.84,6.693218700000001,-5.6425276,3.652046,999.4577,0,0
70.88,7.075589,-5.399433599999999,3.6993885,999.4748,0,0
70.92,7.075589,-5.399433599999999,3.6993885,999.4374,0,0
70.96,6.9656410000000015,-5.785524,4.0828742999999985,999.4725,0,0
71.0,6.769660000000001,-6.004785,4.371672,999.477,0,0
71.04,6.8652425,-5.852255,4.6841415999999985,999.48474,0,0
71.08,6.750522599999999,-6.0476837,4.740954,999.46967,0,0
71.12,6.855664999999999,-5.475696599999999,4.3195906,999.48413,0,0
71.16,6.903797999999999,-5.389907,4.2249336,999.48114,0,0
71.2,6.8846820000000015,-5.5043044000000005,4.1302457000000015,999.477,0,0
71.24,7.0328584,-5.561503,4.3717003,999.4799,0,0
71.28,6.965951,-5.399441,4.348029,999.4822,0,0
71.32,6.965951,-5.399441,4.348029,999.4599,0,0
71.36,7.491737,-5.2612104,5.1528788,999.4817,0,0
71.4,7.037658,-5.3851404,4.651032,999.47675,0,0
71.44,6.5405636,-5.5376706,4.4900627,999.48413,0,0
71.48,6.4736567,-5.7045007000000005,4.295953,999.49927,0,0
71.52,6.4736567,-5.7045007000000005,4.295953,999.4733,0,0
71.56,6.8034729999999985,-5.184946,4.461658,999.49927,0,0
71.6,6.918191,-5.0371833,4.5800185,999.49097,0,0
71.64,7.009010000000001,-5.0514827,4.783598400000002,999.4763,0,0
71.68,6.6457524,-5.599637,5.1481485000000005,999.47675,0,0
71.72,6.765252,-5.3422427,4.6084266,999.48114,0,0
71.76,6.7604775,-5.3231769999999985,4.400113,999.466,0,0
71.8,6.8560762,-5.261212,4.641568,999.441,0,0
71.84,6.6123119999999975,-5.6330028,4.82621,999.496,0,0
71.88,6.6409949999999975,-5.342243700000001,4.7031160000000005,999.47577,0,0
71.92,6.9994855,-5.2993445,4.6889133,999.50037,0,0
71.96,6.784402,-5.580571,4.7788677,999.4656,0,0
72.0,6.798744,-5.556739,4.6463046,999.4751,0,0
72.04,6.913464500000001,-5.485241,4.513742,999.45544,0,0
72.08,7.0329647,-5.332710700000002,4.4711328,999.4881,0,0
72.12,6.889575999999999,-5.3899097000000005,4.523212,999.4604,0,0
72.16,6.8895807,-5.442342,4.504274400000001,999.4702,0,0
72.2,6.8668619999999985,-5.523402,4.698493,999.4627,0,0
72.24,6.771343700000001,-5.5758367,4.7884536,999.48004,0,0
72.28,6.694893,-5.6378026,4.6464243,999.4948,0,0
72.32,6.6280017,-5.671169,4.5943484,999.47217,0,0
72.36,6.71409,-5.6759367,4.6227593,999.4647,0,0
72.4,6.838469,-5.542475700000002,4.589628,999.482,0,0
72.44,6.900633,-5.5043445,4.5517554,999.462,0,0
72.48,6.8720054999999975,-5.56631,4.665385700000002,999.4697,0,0
72.52,6.6569660000000015,-5.6759424,4.6369834,999.4571,0,0
72.56,6.7239356,-5.8284736,4.788489299999998,999.48364,0,0
72.6,6.6570444,-5.5472474,4.471287,999.47186,0,0
72.64,6.575892,-5.6950129999999985,4.6038594,999.47705,0,0
72.68,6.6523949999999985,-5.6711802,4.570721,999.4669,0,0
72.72,6.628574,-5.6854825,4.7080264000000005,999.4762,0,0
72.76,6.6811776,-5.666417,4.6228094,999.4738,0,0
72.8,6.7098823,-5.6187515,4.6086082,999.4787,0,0
72.84,6.614364,-5.723618,4.6701627,999.4762,0,0
72.88,6.690867,-5.6521206,4.745916,999.45825,0,0
72.92,6.67658,-5.5663238,4.6038885,999.4735,0,0
72.96,6.71965,-5.6521230000000005,4.7601285,999.4858,0,0
73.0,6.7149215,-5.594926,4.7838054,999.4858,0,0
73.04,6.695881,-5.685492,4.7648745,999.4907,0,0
73.08,6.6003110000000005,-5.66166,4.599173,999.4858,0,0
73.12,6.5621505,-5.7426934,4.608649,999.4755,0,0
73.16,6.6577983,-5.7093287,4.5518410000000005,999.5026,0,0
73.2,6.58874,-5.7998405,4.5090356,999.4907,0,0
73.24,6.7034210000000005,-5.6902089999999985,4.622657299999998,999.4675,0,0
73.28,6.6651482999999985,-5.690208,4.395403400000001,999.4787,0,0
73.32,6.6316724,-5.737873,4.556371,999.4852,0,0
73.36,6.7272344,-5.6711407,4.845166000000001,999.49005,0,0
73.4,6.593348,-5.7235713,4.5989733,999.47473,0,0
73.44,6.5598725999999985,-5.7283382000000005,4.76941,999.4652,0,0
73.48,6.6745367,-5.6187057000000005,4.613169999999998,999.5024,0,0
73.52,6.502446,-5.747402,4.5610905,999.4697,0,0
73.56,6.6458062999999985,-5.7045026,4.8072762,999.452,0,0
73.6,6.6553315999999985,-5.613937,4.622631,999.4673,0,0
73.64,6.636195699999999,-5.6902013,4.679442400000001,999.4717,0,0
73.68,6.540548,-5.7616987,4.6652346,999.48395,0,0
73.72,6.5118519999999975,-5.790298,4.8309370000000005,999.4766,0,0
73.76,6.4305267,-5.7378635,4.7267737,999.45404,0,0
73.8,6.4878674000000025,-5.666365,4.7362410000000015,999.4589,0,0
73.84,6.545191,-5.6425314,4.561065,999.48895,0,0
73.88,6.5499363,-5.6949625,4.8025165,999.47614,0,0
73.92,6.545122599999999,-5.7187943,5.0629053,999.4836,0,0
73.96,6.468629,-5.6901946,4.745699,999.444,0,0
74.0,6.7458053,-5.5519633000000015,4.963476999999999,999.4735,0,0
74.04,6.530698,-5.599629,4.864053,999.4589,0,0
74.08,6.5210867,-5.76169,4.911392,999.4882,0,0
74.12,6.669225999999999,-5.537661,4.854576,999.4783,0,0
74.16,6.6787686,-5.5662603,5.006076,999.4836,0,0
74.2,6.370663,-5.857084,4.82167,999.52295,0,0
74.24,6.6957245,-5.289864,5.2572384,999.45135,0,0
74.28,6.6910149999999975,-5.3232317,5.5318403,999.4661,0,0
74.32,5.82116,-5.9571853,4.1399317,999.44885,0,0
74.36,6.958823,-6.0858836,4.992131,999.54504,0,0
74.4,7.274394999999997,-4.7369514000000015,6.1804757000000015,999.46356,0,0
74.44,6.681734,-5.2612734,4.2109666,999.42114,0,0
74.48,4.8415794000000005,-7.5873547000000015,5.209933,999.48334,0,0
74.52,8.115849,-4.465262999999998,5.1389265,999.45526,0,0
74.56,7.633124400000002,-4.579660400000002,4.632348,999.4803,0,0
74.6,5.7403913,-6.295623,4.816996,999.47046,0,0
74.64,6.38099,-5.9428997,5.7875586,999.4932,0,0
74.68,7.155353,-5.5472775,5.88225,999.4828,0,0
74.72,6.6392039999999986,-5.332783,4.0926513999999985,999.4852,0,0
74.76,6.3238062999999975,-5.733176,4.9590535,999.45526,0,0
74.8,6.123124,-5.8857074,5.205249299999998,999.4569,0,0
74.84,6.639448,-5.385221499999999,4.9496007,999.4655,0,0
74.88,6.5630064,-5.51392,5.143715,999.47534,0,0
74.92,6.266728,-5.690283999999999,4.873860400000001,999.4709,0,0
74.96,6.625317599999999,-5.5139236,5.200544,999.49506,0,0
75.0,6.5440955,-5.5711236,5.408861,999.4827,0,0
75.04,6.362568,-5.542527,5.006446,999.4981,0,0
75.08,6.4773182999999985,-5.5425277,5.049059,999.4648,0,0
75.12,6.3244690000000015,-5.552063,4.7839417,999.4827,0,0
75.16,6.2910457000000015,-5.59973,4.845492,999.4901,0,0
75.2,6.4153895,-5.6426300000000005,5.1769066,999.4799,0,0
75.24,6.391526,-5.6521645,5.0159400000000005,999.47534,0,0
75.28,6.420309,-5.585435,4.892855,999.4778,0,0
75.32,6.262611,-5.6998334,4.807639,999.4778,0,0
75.36,6.506485,-5.6235714,5.0964480000000005,999.47253,0,0
75.4,6.4539423,-5.6712375,5.1295910000000005,999.44794,0,0
75.44,6.549608,-5.5616083,5.0065035999999985,999.4996,0,0
75.48,6.4034986,-5.7236047,5.1435523000000005,999.4981,0,0
75.52,6.575554,-5.556775,5.1246133,999.4852,0,0
75.56,6.50861,-5.556774,5.0346575,999.48236,0,0
75.6,6.4655824,-5.5710735,4.954171700000002,999.45276,0,0
75.64,6.355629,-5.737902,5.077264,999.4778,0,0
75.68,6.542014,-5.5663056,4.741119,999.4655,0,0
75.72,6.283878,-5.737900700000001,4.8547425,999.468,0,0
75.76,6.341226,-5.7236013,4.7742567000000005,999.5049,0,0
75.8,6.4320245000000025,-5.742667,4.8642087,999.4655,0,0
75.84,6.379428400000001,-5.7093005,4.831066000000001,999.4783,0,0
75.88,6.350741,-5.747433,4.9020815,999.4783,0,0
75.92,6.484548,-5.699767,5.077252,999.4956,0,0
75.96,6.479759,-5.642568,4.9304843,999.4655,0,0
76.0,6.484521,-5.718832,5.001499,999.48065,0,0
76.04,6.455824,-5.704532,4.8784027000000005,999.45807,0,0
76.08,6.4892645,-5.709298,4.9636207,999.44824,0,0
76.12,6.4414487000000005,-5.7092977,4.9399467,999.5006,0,0
76.16,6.541797,-5.7045302000000015,4.840522,999.4981,0,0
76.2,6.5035496,-5.6425653,4.797911,999.48334,0,0
76.24,6.341018,-5.823693799999999,4.859457,999.4932,0,0
76.28,6.3553305,-5.761728,4.8357825,999.46356,0,0
76.32,6.3553305,-5.761728,4.8357825,999.4956,0,0
76.36,6.450908,-5.7092953,4.9020624,999.46124,0,0
76.4,6.45089,-5.709295,4.935201,999.47107,0,0
76.44,6.541688400000001,-5.6711620000000025,4.9351997,999.4909,0,0
76.48,6.5469046,-5.6807055,4.8973646,999.46387,0,0
76.52,6.446528400000001,-5.7998695,4.873693,999.4713,0,0
76.56,6.40829,-5.8666015,5.0015220000000005,999.47614,0,0
76.6,6.484767,-5.7569704,4.868958,999.4913,0,0
76.64,6.475207,-5.7140718,5.006256,999.4717,0,0
76.68,6.656839999999999,-5.637807,4.7932076,999.48334,0,0
76.72,6.6233807,-5.728371,4.902099,999.47925,0,0
76.76,6.5038857000000005,-5.8904343,5.086741,999.47925,0,0
76.8,6.661619,-5.8332357,5.0109900000000005,999.48413,0,0
76.84,6.5373445,-5.8523016,5.105678599999999,999.4742,0,0
76.88,6.6329410000000015,-5.7236047,4.992053,999.47437,0,0
76.92,6.6855183,-5.728371,5.086741,999.49896,0,0
76.96,6.7428765,-5.8523016,5.1104129999999985,999.4728,0,0
77.0,6.628161,-5.9762325,5.167226,999.49896,0,0
77.04,6.6855183,-6.004832,5.1814290000000005,999.47925,0,0
77.08,6.7333164000000005,-5.8761344000000015,4.949443,999.45496,0,0
77.12,6.7572155,-5.847535,5.0630690000000005,999.487,0,0
77.16,6.7333164000000005,-5.8904343,4.9068336,999.475,0,0
77.2,6.7858944,-5.9190335,4.9399742999999985,999.47186,0,0
77.24,6.709417299999999,-6.0620303,5.2619143,999.49255,0,0
77.28,6.790674,-5.9476333,5.09621,999.4742,0,0
77.32,6.8145732999999975,-5.9095005999999985,5.029928,999.46796,0,0
77.36,6.6855183,-5.990532,5.233507,999.4873,0,0
77.4,6.6138214999999985,-6.0763297,5.2429760000000005,999.45996,0,0
77.44,6.9484076,-5.9238,5.1482882000000005,999.4374,0,0
77.48,6.776203,-6.0572610000000005,5.2050886,999.4673,0,0
77.52,6.8526773,-6.0572605,5.1482754,999.44086,0,0
77.56,6.876571,-6.152591,5.134072,999.4753,0,0
77.6,6.8478875,-6.119226,5.1435404,999.476,0,0
77.64,6.881341,-6.009594,4.9588980000000005,999.45135,0,0
77.68,6.866994,-6.0191274,5.020445,999.476,0,0
77.72,6.8191929999999985,-6.071559400000001,5.096195,999.4602,0,0
77.76,6.8574266,-6.0572599999999985,5.157742,999.46075,0,0
77.8,6.7044683,-6.247922,5.361321,999.4639,0,0
77.84,6.8287372999999985,-6.052493,5.2713666,999.44885,0,0
77.88,6.761817999999999,-6.085858999999999,5.171944,999.44086,0,0
77.92,6.823948,-6.1621237,5.119865,999.4605,0,0
77.96,6.675769,-6.2193217,5.044114,999.441,0,0
78.0,6.8765160000000005,-6.1430573,5.1672077000000005,999.44635,0,0
78.04,6.8334923,-6.1573567,5.153004,999.444,0,0
78.08,6.838267,-6.1192245000000005,5.086722,999.4187,0,0
78.12,6.642289999999999,-6.257454,5.02044,999.439,0,0
78.16,6.785681200000001,-6.1764220000000005,5.228753,999.43616,0,0
78.2,6.69964,-6.1287565000000015,5.100924,999.42676,0,0
78.24,6.8334694,-6.0143595,5.332909,999.4316,0,0
78.28,6.6757307,-6.057258,5.0725164000000005,999.43616,0,0
78.32,6.713964,-6.152589,5.1530010000000015,999.43695,0,0
78.36,6.647042,-6.152589,5.157735,999.40607,0,0
78.4,6.6183553,-6.100157,5.1435309999999985,999.407,0,0
78.44,6.7663660000000005,-5.9094906,4.8263110000000005,999.41974,0,0
78.48,6.613401,-6.009588,4.9967484,999.37994,0,0
78.52,6.599056,-6.0429535,4.987279,999.38684,0,0
78.56,6.5177875,-6.081086,4.958872,999.39966,0,0
78.6,6.5894732000000005,-5.985754,4.9967456,999.3597,0,0
78.64,6.5177646,-6.0763187000000025,5.0014796,999.36475,0,0
78.68,6.6133494000000015,-6.0095870000000025,5.0772285,999.3473,0,0
78.72,6.6229033,-5.9142550000000025,4.9872746,999.3525,0,0
78.76,6.575083,-5.795091,4.831036599999999,999.348,1,3
78.8,6.575083,-5.795091,4.831036599999999,999.35535,1,3
78.84,6.579845,-5.923788,5.129303,999.3357,1,3
78.88,6.4412203,-5.9094877,4.916254,999.3325,1,3
78.92,6.5033400000000015,-5.823689,4.9493933,999.33,1,3
78.96,6.5033400000000015,-5.823689,4.9493933,999.3212,1,3
79.0,6.4555197,-5.7998557,4.854703,999.31006,1,3
79.04,6.5176506,-5.799855,4.920984,999.3209,1,3
79.08,6.3933589999999985,-5.7807894,4.925717400000001,999.29913,1,3
79.12,6.3981330000000005,-5.8236876,5.0204043,999.30646,1,3
79.16,6.412466,-5.7855554000000025,5.039341,999.28436,1,3
79.2,6.5797424,-5.547227,4.7221346,999.28644,1,3
79.24,6.335962,-5.7664886,4.9304476,999.30566,1,3
79.28,6.4984636,-5.675924,4.9067745,999.2889,1,3
79.32,6.450654,-5.7140555,5.029868,999.2909,1,3
79.36,6.488887,-5.6806893,5.0298676,999.28925,1,3
79.4,6.4076185,-5.6806893,4.8973026,999.24854,1,3
79.44,6.4984236,-5.6139574,4.8641615,999.26385,1,3
79.48,6.393609,-5.6520980000000005,4.793176,999.2766,1,3
79.52,6.4653087,-5.6997643,4.916271,999.2417,1,3
79.56,6.4079537,-5.761729,4.783708,999.2317,1,3
79.6,6.336259,-5.7998614,5.0630383000000005,999.22424,1,3
79.64,6.5656934000000025,-5.480502,4.7837086,999.24896,1,3
79.68,6.5274563,-5.5377007,4.9636164,999.2495,1,3
79.72,6.494003,-5.6759309999999985,4.8547254,999.2342,1,3
79.76,6.494003,-5.6759309999999985,4.8547254,999.2342,1,3
79.8,6.3745112,-5.776029,5.020429599999999,999.22,1,3
79.84,6.4127507,-5.6759315,4.916273,999.2294,1,3
79.88,6.5035686,-5.5901337,4.911539,999.21265,1,3
79.92,6.3697395,-5.6425657,4.8547263,999.2097,1,3
79.96,6.41754,-5.7188306,5.0062275000000005,999.18,1,3
80.0,6.3697433,-5.7617292,5.0819782999999985,999.20526,1,3
80.04,6.4557824,-5.6997647,5.025165,999.19965,1,3
80.08,6.513142,-5.6520987,5.0867133,999.1954,1,3
80.12,6.613522,-5.494803,4.802649,999.20233,1,3
80.16,6.4844685,-5.613967,4.939947,999.1592,1,3
80.2,6.5944059999999975,-5.5567684,4.826321599999999,999.1846,1,3
80.24,6.4366765,-5.780796499999999,4.949416,999.1603,1,3
80.28,6.4366765,-5.780796499999999,4.949416,999.14215,1,3
80.32,6.4796977,-5.718831,4.9872913,999.14026,1,3
80.36,6.403225,-5.490036,4.589601999999998,999.14026,1,3
80.4,6.446244,-5.4471374,4.68429,999.1477,1,3
80.44,6.269394,-5.5234027,4.826322599999999,999.1723,1,3
80.48,6.3930764,-5.6234856,4.9067535000000015,999.1175,1,3
80.52,6.220983,-5.6759176,4.849939,999.1301,1,3
80.56,6.3213377,-5.537687,4.8309989999999985,999.11505,1,3
80.6,6.4360323,-5.4185224000000005,4.684231,999.09283,1,3
80.64,6.268718700000001,-5.485253299999999,4.679494999999998,999.0847,1,3
80.68,6.3786335,-5.3660893,4.617945,999.083,1,3
80.72,6.287797,-5.5281515,4.6652875,999.0927,1,3
80.76,6.2399783,-5.6234827,4.868865,999.10004,1,3
80.8,6.2160583,-5.40422,4.660549,999.0776,1,3
80.84,6.235157,-5.3613205000000015,4.617938,999.07794,1,3
80.88,6.225587,-5.3279543,4.6274056,999.0634,1,3
80.92,6.1825485,-5.380386,4.6132007,999.07996,1,3
80.96,6.206416,-5.447117,4.7457614,999.0855,1,3
81.0,6.168167,-5.4709496,4.755229,999.0576,1,3
81.04,6.1490273,-5.3994513,4.542178599999999,999.0609,1,3
81.08,6.1728954000000025,-5.2564535,4.5232387,999.0307,1,3
81.12,6.1250870000000015,-5.2564535,4.49483,999.0627,1,3
81.16,6.129836,-5.246919,4.5469065,999.0551,1,3
81.2,6.1967425,-5.304117,4.5800467000000005,999.0603,1,3
81.24,6.0103097000000005,-5.4471135,4.759951999999998,999.03314,1,3
81.28,6.1393437,-5.265983599999998,4.6652616999999985,999.03033,1,3
81.32,6.2110305,-5.1277537,4.542166,999.04285,1,3
81.36,6.0819445,-5.2707496,4.527960299999998,999.0353,1,3
81.4,6.115393,-5.3279476,4.6510534,999.0355,1,3
81.44,6.1536007,-5.2707486,4.561097,999.04034,1,3
81.48,6.1070824,-5.304146,4.547011,999.0274,1,3
81.52,6.1548967,-5.304146299999998,4.7079825,999.02545,1,3
81.56,6.1023664,-5.2564816,4.352906,999.01514,1,3
81.6,6.226657,-5.2612486,4.490206,999.0324,1,3
81.64,6.10243,-5.380414,4.627508,999.0102,1,3
81.68,6.212381400000001,-5.3470483,4.712728500000001,999.0324,1,3
81.72,6.1837339999999985,-5.2612510000000015,4.6701217,999.02246,1,3
81.76,6.112068,-5.2231197,4.4949512,999.02,1,3
81.8,6.2268157,-5.1420884,4.4807510000000015,999.0127,1,3
81.84,6.2029324,-5.2135873,4.528096700000001,998.98004,1,3
81.88,5.9783134,-5.4233165,4.783758,999.01154,1,3
81.92,6.1743174000000005,-5.2660212999999985,4.618057,999.02,1,3
81.96,6.2364864,-5.33752,4.760092,998.99927,1,3
82.0,6.0835643,-5.418553,4.7127504,999.0123,1,3
82.04,6.3704,-5.351822,4.779036,999.0042,1,3
82.08,6.3656526,-5.3613563,4.8121800000000015,999.02924,1,3
82.12,6.3609037000000015,-5.337524,4.7080264000000005,999.0296,1,3
82.16,6.475635,-5.337524,4.826388,999.00903,1,3
82.2,6.3609514,-5.4757547,4.807453,999.00366,1,3
82.24,6.3753543,-5.4137917,4.7695837,999.02136,1,3
82.28,6.3753543,-5.4137917,4.7695837,999.01404,1,3
82.32,6.418404,-5.4137926,4.8548055,998.99927,1,3
82.36,6.3897734,-5.5043583,4.9731703000000005,999.01886,1,3
82.4,6.4376025000000014,-5.480526,4.760125,999.0144,1,3
82.44,6.42328,-5.518659,4.8832207,999.0096,1,3
82.48,6.422473,-5.5281720000000005,4.925757,999.0012,1,3
82.52,6.5132875,-5.4328410000000025,4.835803,998.99426,1,3
82.56,6.369889700000001,-5.561538,4.916287400000001,999.00903,1,3
82.6,6.3842278,-5.580604,4.9020844000000015,998.9914,1,3
82.64,6.5419589999999985,-5.4614400000000005,4.954162,999.0009,1,3
82.68,6.3029660000000005,-5.6997684999999985,4.935224,998.9882,1,3
82.72,6.4798155,-5.4614395999999985,4.949427,999.0058,1,3
82.76,6.4798155,-5.4614395999999985,4.949427,999.003,1,3
82.8,6.551507,-5.4852724,5.020443,999.0005,1,3
82.84,6.551507,-5.4852724,5.020443,999.01044,1,3
82.88,6.4367876,-5.59967,4.9588947,999.0336,1,3
82.92,6.5515019999999975,-5.4995723,4.9588947,999.0102,1,3
82.96,6.5323806,-5.5949035,4.9588947,998.9881,1,3
83.0,6.5323769999999985,-5.4376063,4.8310657,998.99316,1,3
83.04,6.6088514000000025,-5.3947077000000005,4.906816,998.9847,1,3
83.08,6.446335,-5.5853699999999975,5.001504,999.0157,1,3
83.12,6.460672,-5.6521015,5.001504,998.9847,1,3
83.16,6.470229,-5.5996695,4.8831430000000005,999.0002,1,3
83.2,6.4797864,-5.556771,4.8405333,998.99976,1,3
83.24,6.465445,-5.594903,4.8784084000000005,999.01514,1,3
83.28,6.5466986,-5.609203,5.0677843000000005,998.99554,1,3
83.32,6.594494,-5.513871,4.8500013,999.0002,1,3
83.36,6.4415374000000005,-5.633035,4.9636273,998.9872,1,3
83.4,6.4128574999999985,-5.652101,4.8926105,999.02655,0,0
83.44,6.685303,-5.523404,4.8310633,999.00433,0,0
83.48,6.4797697,-5.5853696,4.736375,999.0083,0,0
83.52,6.446983,-5.7188497000000025,5.10572,999.0063,0,0
83.56,6.5521746,-5.5091220000000005,4.8027215,998.98914,0,0
83.6,6.590425,-5.461456299999999,4.788519,998.9915,0,0
83.64,6.4757338,-5.561555,4.9400225,998.987,0,0
83.68,6.475758,-5.623521,4.7033043,999.0066,0,0
83.72,6.4949010000000005,-5.776051,5.001574,998.99347,0,0
83.76,6.4423475,-5.6711870000000015,5.0631237,999.02405,0,0
83.8,6.557099000000001,-5.59969,4.7695940000000006,999.0066,0,0
83.84,6.4710746,-5.6854879999999985,4.854814,999.0032,0,0
83.88,6.5906057,-5.580625,4.840614,998.9965,0,0
83.92,6.5906057,-5.580625,4.840614,998.9989,0,0
83.96,6.3373246,-5.761755,5.001589,999.0161,0,0
84.0,6.6719345999999975,-5.523428,4.7222605,998.98663,0,0
84.04,6.719745,-5.4805293,4.760137,999.0182,0,0
84.08,6.3899627,-5.7522235,4.8169518,999.0131,0,0
84.12,6.6481075,-5.5949282999999985,4.82169,998.99335,0,0
84.16,6.6624594,-5.5424967,4.798019,999.02295,0,0
84.2,6.5238814000000005,-5.737926,4.812226,998.99835,0,0
84.24,6.6099296,-5.6568947,4.9163833,998.9989,0,0
84.28,6.457000700000001,-5.699795,4.788557,998.9981,0,0
84.32,6.5812990000000005,-5.63783,4.7743554,998.98785,0,0
84.36,6.6052103,-5.6235304,4.902186,998.98615,0,0
84.4,6.476192,-5.7045627,4.854845,999.008,0,0
84.44,6.5287814000000015,-5.6425977,4.82644,999.0032,0,0
84.48,6.509687,-5.7093300000000005,4.8075047,998.9907,0,0
84.52,6.528254,-5.6473517,4.859533,999.01324,0,0
84.56,6.4995765999999975,-5.6616516,4.755376,999.02026,0,0
84.6,6.561715,-5.5853867999999975,4.7411723,998.97253,0,0
84.64,6.4135423,-5.7665157,4.87847,999.0341,0,0
84.68,6.6142970000000005,-5.6473517,4.812189,998.9858,0,0
84.72,6.5617194,-5.7045502999999975,4.7459073,999.03253,0,0
84.76,6.6620965,-5.795115,4.5612655,999.067,0,0
84.8,6.1554379999999975,-5.9953103,5.0205026,999.11304,0,0
84.84,6.4709067000000005,-5.532954,4.575469,999.0515,0,0
84.88,7.4555473,-5.1754622,6.014728,998.9485,0,0
84.92,5.753938,-6.3385024,5.096254,998.9558,0,0
84.96,5.4002339999999975,-5.6950173,3.5196970000000003,998.98596,0,0
85.0,6.963231,-5.370891,5.4892097,998.99976,0,0
85.04,6.585628,-5.4042572999999985,4.9778943,999.004,0,0
85.08,6.0502915,-5.799882,4.736439,999.0291,0,0
85.12,6.399218,-5.995311,5.688054599999999,999.0021,0,0
85.16,6.365761,-5.6378193,4.665424,998.9932,0,0
85.2,6.4231195,-5.685484400000001,4.911613,999.01434,0,0
85.24,6.3848825,-5.709317,4.930550599999999,999.0115,0,0
85.28,6.4661403,-5.652118700000001,5.176739,998.9971,0,0
85.32,6.5760770000000015,-5.528188,5.129395,999.0359,0,0
85.36,6.475702,-5.652118700000001,5.0867863,999.03644,0,0
85.4,6.418346400000001,-5.680718,5.1104584000000015,999.0242,0,0
85.44,6.5187230000000005,-5.6187525,5.015770400000001,999.00885,0,0
85.48,6.351432,-5.714084,4.9210825,999.0283,0,0
85.52,6.413439,-5.652116,4.9116015,999.017,0,0
85.56,6.427777,-5.5996833,4.708022,999.00885,0,0
85.6,6.4994698,-5.675948,5.1009769999999985,999.0285,0,0
85.64,6.4707870000000005,-5.59015,4.940007,999.0283,0,0
85.68,6.470783,-5.5996833,5.0015545,999.0244,0,0
85.72,6.5329169999999985,-5.5901494000000005,5.082039,999.0213,0,0
85.76,6.3273835,-5.695014,5.0252256,999.00385,0,0
85.8,6.413414,-5.6473484,4.8121767,999.02875,0,0
85.84,6.4516506,-5.6044493,4.873724,999.0113,0,0
85.88,6.4659863,-5.6711807,4.7837695999999985,999.008,0,0
85.92,6.4946613,-5.6235155999999975,4.797973000000002,999.0267,0,0
85.96,6.4659786,-5.695014,4.7648315000000006,999.0258,0,0
86.0,6.738423299999999,-5.4995847,4.542314,999.02167,0,0
86.04,6.609363,-5.7379120000000015,4.826378,999.0113,0,0
86.08,6.790992,-5.537717,4.376608999999998,999.0587,0,0
86.12,7.0299788,-5.451919,4.769564599999999,999.00146,0,0
86.16,6.8818025999999985,-5.6187477,4.8784556,998.9967,0,0
86.2,6.6428065,-5.8427763,4.3387327,999.014,0,0
86.24,6.6428065,-5.8427763,4.3387327,998.98663,0,0
86.28,6.829211,-5.680713,3.8179474,999.00385,0,0
86.32,6.9773817,-5.790344,3.9363074,998.98645,0,0
86.36,7.0825353,-5.981006,4.6796093,999.02167,0,0
86.4,7.039513,-5.9762397000000025,4.333997,999.0242,0,0
86.44,7.154223,-5.7474446,3.9883847,999.00885,0,0
86.48,7.326294,-5.7045455,4.5707164,999.0341,0,0
86.52,7.336398599999999,-5.3756666,3.2261953,999.0046,0,0
86.56,7.178683,-5.6282945,3.7091062,999.0464,0,0
86.6,6.7915449999999975,-5.961954,3.8842819,998.9695,0,0
86.64,7.054443400000001,-5.761759,3.7327814,999.00653,0,0
86.68,7.2838917,-5.523432,3.6570327000000007,999.0439,0,0
86.72,6.925432700000001,-5.8904567000000005,3.628628500000002,999.03644,0,0
86.76,7.102295,-5.8046594,3.6665049,999.0145,0,0
86.8,7.2887163,-5.6330633,3.5860207,999.00226,0,0
86.84,7.580302199999997,-5.5186667,3.699648,999.0094,0,0
