Timestamp,Ax,Ay,Az,P,LPFRMSAcc,LPFPValue,Value,Type
0.0,9.312724,-1.0509518,4.131755,998.3731,0.021288019687647243,3.59414316,0,0
0.02,8.414122,-2.018563,4.145958,998.37823,0.059963983818282114,10.3511507688,0,0
0.04,7.615895299999999,-2.1615592999999995,4.354272,998.3579,0.11270139613598625,19.878466989168,0,0
0.06,8.94861,-1.5514194,5.49992,998.3806,0.18096273669978946,31.819411280324154,0,0
0.08,9.445676,-1.8660114,4.7187405,998.3908,0.2629130273558273,45.85008665538057,0,0
0.1,8.7669115,-1.2320584,3.8239346,998.4034,0.35442168072626706,61.67678334482104,0,0
0.12,8.594808,-1.3941207,4.335248,998.4008,0.4542193729023351,79.03345899956928,0,0
0.14,8.6138935,-1.6801133,4.4725423,998.39075,0.5612385891034833,97.67950385570637,0,0
0.16,8.833733,-1.4370181999999998,4.5340867,998.373,0.6746331680699296,117.39764567670856,0,0
0.18,8.589929,-1.8326415,4.676116,998.3807,0.7930815669326883,137.99213478530996,0,0
0.2,8.527758,-1.6181457,4.7897387,998.38574,0.9154928429481456,159.28684234044303,0,0
0.22,8.503829,-1.7611414,4.8323455,998.40326,1.041015882201783,181.12366503973305,0,0
0.24,8.986558,-1.5085133,4.8844213,998.38824,1.1696692374058273,203.36083404668256,0,0
0.26,8.498985000000001,-1.770673,4.5766816,998.34033,1.2995344902405954,225.8715227666552,0,0
0.28,7.9827323,-1.989934,4.6997733,998.3832,1.4292980930025658,248.543009357663,0,0
0.30000000000000004,8.766587,-1.8040375,4.5103936,998.3729,1.5596431913832882,271.2749225157899,0,0
0.32,8.494108,-1.8707683,4.557735,998.3606,1.6896108536670695,293.978349421254,0,0
0.34,7.844019,-2.3521898,3.9375248,998.373,1.817253736698469,316.5749181770056,0,0
0.36000000000000004,7.6288967,-2.6095831,3.809693,998.40576,1.9420317768544828,338.9958373601505,0,0
0.38,8.321937,-2.871743,5.6892486,998.3982,2.0670804462723456,361.18081005588067,0,0
0.4,7.867821000000001,-4.049082,3.1374013,998.3957,2.189645262681739,383.0774255336268,0,0
0.42,9.58852,-3.1386685,2.427238,998.3856,2.311629032142643,404.6403843978421,0,0
0.44,9.167864,-2.876507,3.6960552,998.3907,2.43248956212798,425.83091598643057,0,0
0.46,9.526317,-3.7869186,3.1942055,998.3757,2.5528424880727223,446.61603092055634,0,0
0.48,9.37811,-3.3150284,1.8969755,998.3757,2.671042698935625,466.9680932850357,0,0
0.5,9.2777,-4.1062765,2.2473185,998.38824,2.787467417945181,486.8642881184635,0,0
0.52,9.162954,-4.010945,1.655515,998.37823,2.9013777862187577,506.2860160640538,0,0
0.54,9.143803,-4.0729094,2.4556265,998.37317,3.013006077156436,525.2185686309471,0,0
0.56,9.091887,-3.882263,1.5656191000000002,998.378,3.1215978956214823,543.6507460319823,0,0
0.5800000000000001,9.168359,-3.9394615,1.6887131999999998,998.3983,3.22734749228285,561.5745091778219,0,0
0.6,9.197034,-3.7154331,0.9028015,998.3704,3.3298712034215527,578.9844115004456,0,0
0.62,9.029736,-4.1873226,2.351529,998.3832,3.4297308476793233,595.8776368313144,0,0
0.64,8.633006,-3.744032100000001,0.031670094,998.3579,3.5251780576962832,612.2534196810773,0,0
0.66,9.306953,-2.9575503,3.161111,998.3528,3.6181588470488197,628.1130191762759,0,0
0.68,8.475264,-3.8774955,1.8638837,998.3881,3.7070464280425255,643.4595515811988,0,0
0.7000000000000001,9.39776,-3.38654,2.28998,998.3578,3.793543113262335,658.2973813084963,0,0
0.72,9.407315,-3.9918926,2.0343213,998.3907,3.8779718782957215,672.6324236028257,0,0
0.74,8.336634,-4.292186,2.1668844,998.36786,3.9586151493653854,686.4715145451253,0,0
0.76,8.446564,-4.5305133,2.801294,998.3856,4.036375732985922,699.8226260093785,0,0
0.78,8.303165,-4.3636837,1.6413645,998.3704,4.1103462154229335,712.6944400855589,0,0
0.8,7.9255548,-4.8737054,2.4509473,998.3555,4.180907340349156,725.0963548189637,0,0
0.8200000000000001,8.365293,-4.6925764,3.2605298,998.3378,4.249259981477644,737.0383558800522,0,0
0.84,8.288811,-4.721175700000001,3.0711534,998.36035,4.315187859727621,748.5310671964618,0,0
0.86,8.503898,-4.3064847,2.3325857999999995,998.3755,4.378303849738932,759.5854668737338,0,0
0.88,8.618607,-4.6210775,2.7681506,998.3881,4.439435751157528,770.2128239078262,0,0
0.9,8.460868,-4.5305123,3.1232305,998.3731,4.498447605307546,780.4245335770821,0,0
0.92,8.274451,-4.582945,2.3136468,998.4033,4.554635506646688,790.2323237999587,0,0
0.94,8.403501,-4.840338,2.9480567000000004,998.3654,4.608953753775669,799.6477663152132,0,0
0.96,8.53733,-5.0310006,2.7160702000000003,998.3327,4.661713146325512,808.6825170829567,0,0
0.98,8.766755999999999,-4.8832374000000005,3.0711503,998.3477,4.713361532647566,817.3484175198364,0,0
1.0,8.977062,-4.5495787000000005,2.8107574,998.3757,4.763748287662371,825.6573053627919,0,0
1.02,8.632912,-4.230219,2.2947068,998.3581,4.811663423228622,833.6207615215213,0,0
1.04,8.154926,-4.3303165,2.455676,998.3579,4.856537505207603,841.2503250818972,0,0
1.06,7.816092,-4.392295,2.384709,998.3654,4.897987449230849,848.5574217135505,0,0
1.08,8.380125,-4.3636956,1.6982214,998.34784,4.936932255631048,855.5532178031108,0,0
1.1,8.375361,-4.783153,1.8733959,998.3731,4.9739922549511135,862.2488548037546,0,0
1.12,8.375377,-4.840351999999998,2.2000713,998.37573,5.0094514640800885,868.6551764082303,0,0
1.14,8.585706,-4.797454,2.0533063,998.3681,5.043631883322363,874.7827687028752,0,0
1.16,8.824712,-4.8117537000000015,1.6035393,998.3579,5.076832036897823,880.641979727093,0,0
1.18,8.80561,-5.1501794,1.7645106,998.3757,5.109408601024725,886.2430199810742,0,0
1.2,8.753047,-5.1501800000000015,1.6556208,998.3629,5.141186459280953,891.5957307175604,0,0
1.22,8.375457,-4.87372,1.5656686000000002,998.3833,5.171159158806987,896.7098211737366,0,0
1.24,8.088687,-4.3065,1.0638232,998.3731,5.198201104293792,901.594619304588,0,0
1.26,8.385052,-4.8498883,1.2058568,998.3556,5.223670497571218,906.259166463512,0,0
1.28,8.901285000000003,-4.8022230000000015,1.4899226,998.3732,5.248618589458808,910.7123708538684,0,0
1.3,8.98734,-4.6496935,1.5420026000000002,998.3606,5.273042214440254,914.9627558781135,0,0
1.32,8.757924000000001,-4.5162306,1.6887706999999998,998.36566,5.296419340297423,919.0186465403754,0,0
1.34,8.920454,-4.320802,1.6603656999999998,998.3579,5.3188965998704205,922.8880528420044,0,0
1.36,8.839212,-3.9871433,1.5704135,998.3681,5.340026608081883,926.5787884198927,0,0
1.38,8.844008,-4.0538754,1.9302294,998.35046,5.360088153063499,930.0983003942032,0,0
1.4,8.848805,-4.4256673,2.010716,998.3505,5.379502528006878,933.4538490932848,0,0
1.42,8.585933,-4.740261,2.190625,998.37823,5.398177806800884,936.6525396950574,0,0
1.44,8.571609,-4.549599,1.987047,998.3531,5.415834117634301,939.7010247278816,0,0
1.46,8.92055,-4.473334,2.0107205,998.36304,5.433096711198788,942.6058493578644,0,0
1.48,8.767614,-4.8022269999999985,1.6935169,998.3756,5.449864421060462,945.3733235032292,0,0
1.5,8.366127,-4.907092,1.6367054,998.3834,5.465504973840896,948.0094999334616,0,0
1.52,8.122372,-4.5353002999999985,1.3052986,998.3606,5.4791740385958745,950.5200893874547,0,0
1.54,7.9359746,-4.2111754,1.0591109,998.34796,5.4903293634362065,952.9106265632083,0,0
1.56,8.217464,-4.1968627,1.3762685,998.3935,5.4998114580263255,955.1866435560763,0,0
1.58,8.733678,-4.6782846,1.9443966,998.3481,5.509376195327229,957.3531134141729,0,0
1.6,9.04914,-4.7021174000000014,2.1006315,998.3756,5.519634753708389,959.4150871324956,0,0
1.62,9.063475,-4.568654,2.1385064,998.35065,5.530387731054836,961.3772151363287,0,0
1.64,8.920075,-4.4065910000000015,1.8828479,998.3556,5.541025650928748,963.2440736260248,0,0
1.66,8.628502000000001,-4.7640824,1.537236,998.37335,5.551211314290385,965.0200951824668,0,0
1.68,8.427746,-4.9595113,1.3383905,998.3834,5.560741209529394,966.7094957270821,0,0
1.7,8.336925,-5.073909,1.4662191,998.39075,5.569655646754597,968.3163025636863,0,0
1.72,8.384718,-4.8975453,1.2673736,998.3608,5.577835290827558,969.8442372752808,0,0
1.74,8.236539,-4.9261446,1.2294979,998.3834,5.585093178850658,971.2970613722548,0,0
1.76,8.618917,-4.98811,1.3052479,998.401,5.592274806816009,972.6783509234006,0,0
1.78,8.599793,-4.830814,1.4520139,998.35815,5.599210627378818,973.9913056474687,0,0
1.8,8.561551,-4.735482,1.5230296,998.3808,5.605762351770999,975.2392346213247,0,0
1.82,8.580665,-4.6353846,1.67453,998.3809,5.611937883383046,976.4252146579872,0,0
1.84,8.733613,-4.5257535,1.7881553,998.396,5.617971637088061,977.5522414456128,0,0
1.86,8.881783,-4.454255,1.906515,998.396,5.624106930901314,978.6231198459552,0,0
1.88,8.924796,-4.3207917,1.8070921,998.36053,5.630230157969772,979.640402677052,0,0
1.9,8.910452000000003,-4.3064914000000005,1.8970453,998.37585,5.636315935470603,980.6067213969716,0,0
1.92,8.786171000000001,-4.339857,1.8402319,998.35815,5.642126588990389,981.5244657608638,0,0
1.94,8.69057,-4.425655,1.8402314,998.34033,5.647577245642557,982.3959217920597,0,0
1.96,8.604529,-4.683049,1.9017782,998.386,5.652803669918022,983.2235046227727,0,0
1.98,8.599743,-4.683049,1.7597456000000002,998.37573,5.657750319307723,984.0093048233493,0,0
2.0,8.58062,-4.697348000000002,1.7644798,998.36554,5.662413378945416,984.7553203272142,0,0
2.02,8.561496,-4.6878150000000005,1.6934631999999998,998.338,5.666739652840737,985.4633972732516,0,0
2.04,8.561491,-4.711648,1.6792595,998.3808,5.670771225510464,986.1355567125863,0,0
2.06,8.375199,-4.86418,1.7455522,998.35315,5.6743735017042205,986.7734601290172,0,0
2.08,8.313062,-4.9642787,1.6461297,998.3808,5.677542220967293,987.3788980113112,0,0
2.1,8.437337,-4.9309125,1.6271921,998.34033,5.680494436145202,987.9533240792653,0,0
2.12,8.513814,-4.8117485,1.6271921,998.36053,5.683258918460767,988.4983528942239,0,0
2.14,8.59029,-4.7164173,1.6366608,998.3682,5.68589265915071,989.0154718047023,0,0
2.16,8.666767,-4.678285,1.6177233,998.3731,5.688495307598624,989.5060855355043,0,0
2.18,8.671548,-4.711651,1.6129888,998.37335,5.691100736373202,989.9715139801132,0,0
2.2,8.62375,-4.5829535,1.5940511999999998,998.37823,5.693481564552207,990.4130307314407,0,0
2.22,8.652428,-4.6306195,1.7786931,998.35815,5.695818281403461,990.8317573622808,0,0
2.24,8.671548,-4.6639857000000005,1.8449748,998.36316,5.698199262646612,991.2288572627873,0,0
2.26,8.705006,-4.573421,1.953866,998.3531,5.700627216812045,991.6053820087282,0,0
2.28,8.652428,-4.530522,1.9017875,998.36566,5.702931449044947,991.9624162750102,0,0
2.3,8.752804,-4.4828563,1.8165683,998.348,5.7052223044097214,992.300879854107,0,0
2.32,8.633308,-4.6830516,1.7502866999999998,998.348,5.707443254205463,992.6217159051222,0,0
2.34,8.513814,-4.7831492,1.6887394,998.36316,5.709457201964173,992.9258758385408,0,0
2.36,8.523373,-4.75455,1.6840049,998.35046,5.711267788092113,993.2141600586908,0,0
2.38,8.475575,-4.7831492,1.5845824,998.35815,5.712801230043475,993.487406359404,0,0
2.4,8.470796,-4.8308153,1.6603328999999998,998.3606,5.714149831887733,993.7463902878204,0,0
2.42,8.451675999999999,-4.8260484,1.6934738,998.36566,5.7153030841689585,993.9918578579327,0,0
2.44,8.480354,-4.8546476,1.6792706000000002,998.3732,5.7163546047587195,994.2245258345956,0,0
2.46,8.475575,-4.8498807,1.6792706000000002,998.34784,5.717299103134098,994.4449551897702,0,0
2.48,8.408658,-4.8498807,1.6792706000000002,998.3606,5.718026791610812,994.6538228893193,0,0
2.5,8.542492,-4.7831492,1.5514417,998.3579,5.718687834833152,994.8517130662393,0,0
2.52,8.59985,-4.8546476,1.5609105,998.36053,5.719465261042192,995.0392005675276,0,0
2.54,8.571171000000001,-4.8022155999999985,1.579848,998.3807,5.720244860533251,995.2168939216227,0,0
2.56,8.732706,-4.6734943,1.6034305,998.39075,5.721195233910625,995.3853296511833,0,0
2.58,8.689649000000001,-4.611528400000001,1.5134732,998.3832,5.722126081851862,995.5449517950788,0,0
2.6,8.775649000000001,-4.654426,1.6933771,998.3505,5.72329329729031,995.6960938949624,0,0
2.62,8.746927000000001,-4.7068577000000005,1.5986854,998.34784,5.724631704895438,995.839189340398,0,0
2.64,8.622619,-4.749756,1.7833241000000002,998.3757,5.72599960685494,995.9747599143593,0,0
2.66,8.507861,-4.6019917,1.5986784,998.3453,5.726971852383107,996.1030840178197,0,0
2.68,8.455245,-4.5638576,1.7170348999999998,998.36816,5.727500734693179,996.2246254691732,0,0
2.7,8.450425,-4.630589,1.8353914,998.36786,5.727737122955619,996.3397351399002,0,0
2.72,8.440828,-4.5829225,1.7927784,998.3453,5.727633972509499,996.4486660784507,0,0
2.74,8.469467999999999,-4.749751,1.8969318,998.3856,5.7274875486577175,996.5518904178715,0,0
2.76,8.45509,-4.878447,1.7975055,998.3704,5.727369319862954,996.6496460786798,0,0
2.78,8.588885000000001,-4.892746,1.6838761999999998,998.35046,5.727487322927336,996.7421459106863,0,0
2.8,8.555389,-4.8498454,1.5181688,998.35803,5.727655204508588,996.8296959449692,0,0
2.82,8.545793,-4.8164787,1.4140085,998.3631,5.7277836696548174,996.9125754098593,0,0
2.84,8.655685,-4.7926449999999985,1.3808638999999998,998.378,5.728040674703894,996.991083233561,0,0
2.86,8.727344500000001,-4.7640449999999985,1.508689,998.36804,5.72854944112338,997.0654097909427,0,0
2.88,8.717748,-4.7783437000000015,1.5749674,998.35284,5.729296744385247,997.1357194857981,0,0
2.9,8.679472,-4.7163773,1.5607608999999998,998.3631,5.730117597935353,997.2022637020233,0,0
2.92,8.559938,-4.744975599999999,1.8306183,998.3883,5.7309093666211615,997.2653319021524,0,0
2.94,8.464303,-4.7926400000000005,1.7880049999999998,998.3706,5.731533540551291,997.3250379289387,0,0
2.96,8.459485,-4.77834,1.8684865,998.3579,5.732015352215041,997.3815124776633,0,0
2.98,8.344728,-4.897503,2.0105150000000003,998.3551,5.7323460464643725,997.4349183039965,0,0
3.0,8.344689,-4.9928327,1.972636,998.3604,5.732625069201786,997.48543942625,0,0
3.02,8.416347,-4.9308667,1.8306001,998.373,5.732862240926403,997.5332751079387,0,0
3.04,8.545364999999999,-4.8927336,1.480251,998.3957,5.733129927373646,997.5786474458904,0,0
3.06,8.647439,-4.9642735,1.3620462,998.36536,5.733644125309883,997.6215706088992,0,0
3.08,8.590112,-4.9309080000000005,1.2626265,998.3502,5.734210563732168,997.6621205815418,0,0
3.1,8.523225,-5.002407,1.4662087,998.3577,5.7348337234432325,997.7004546232753,0,0
3.12,8.53759,-4.868944,1.5514305,998.37286,5.7354197887761975,997.7367472419072,0,0
3.14,8.528062,-4.6973486,1.442542,998.3603,5.735747276278336,997.7710601896592,0,0
3.16,8.485076,-4.826047,2.0154078,998.3779,5.736104811139138,997.8035637336104,0,0
3.18,8.451646,-4.8927794,1.9443944,998.35785,5.736466867426226,997.8342792956043,0,0
3.2,8.532931,-4.873714,1.8449745,998.3628,5.736916776303206,997.8633222407184,0,0
3.22,8.547301,-4.764084,1.6982107,998.36285,5.737303867954955,997.8907828869543,0,0
3.24,8.576012,-4.759318,1.759761,998.393,5.737702911050707,997.9168550955754,0,0
3.26,8.642959,-4.7926845999999985,1.6035283,998.37537,5.738209505320227,997.941543152769,0,0
3.28,8.647765,-4.7593193,1.5325147,998.3729,5.738761682303696,997.9649104047553,0,0
3.3,8.657356,-4.7545533,1.4804392,998.3754,5.73934837453703,997.9870354711533,0,0
3.32,8.533111,-4.8737183,1.5514579,998.36285,5.739882845488242,998.0079381121263,0,0
3.34,8.427986,-4.897551999999999,1.5798671,998.3855,5.740216045664715,998.0277669084863,0,0
3.36,8.322861,-5.0024166,1.6319485,998.3552,5.740311659087786,998.0464663920797,0,0
3.38,8.380248,-4.8689537000000005,1.6319511,998.36786,5.740159081596977,998.0641462727713,0,0
3.4,8.547572,-4.859421299999998,1.6935011999999998,998.3603,5.740096744403582,998.080834368768,0,0
3.42,8.571499000000001,-4.8355894,1.6366909,998.34753,5.740113260506084,998.0965400746637,0,0
3.44,8.509392,-4.6925936,1.6366937,998.383,5.739945406207527,998.111448892124,0,0
3.46,8.619356,-4.630629,1.5230706,998.34753,5.739714853992737,998.1254722152204,0,0
3.48,8.676746000000001,-4.6401629999999985,1.6224961000000002,998.35254,5.7395754885381605,998.1386806675334,0,0
3.5,8.547721000000001,-4.768861,1.8308125,998.3651,5.739486736941744,998.1511667655942,0,0
3.52,8.4951725,-4.740262,1.8781594,998.3575,5.739339246515278,998.1629422814847,0,0
3.54,8.495203,-4.787928599999999,1.6225044,998.3752,5.7390941540470815,998.174111255112,0,0
3.56,8.509573,-4.821295,1.6651167000000002,998.34753,5.7388376911652275,998.1846044676906,0,0
3.58,8.528719,-4.806996,1.6461815,998.3524,5.738585281992425,998.1944803342417,0,0
3.6,8.571769999999999,-4.835596,1.6177781,998.34753,5.738433369911461,998.2037576287224,0,0
3.62,8.57658,-4.864196,1.6035776000000002,998.34503,5.7384035118203425,998.2124636266626,0,0
3.64,8.547930000000001,-4.849897,1.5562363,998.3703,5.738400396627345,998.2207244573863,0,0
3.66,8.600537,-4.8117657,1.5515045,998.3677,5.7384750580343376,998.2285528393677,0,0
3.68,8.4523945,-4.911864,1.6130546,998.35,5.738476210101111,998.2359072074645,0,0
3.7,8.485884,-4.878499,1.7692927,998.36005,5.738492910819978,998.2428524411677,0,0
3.72,8.557609,-4.721203,1.6414665000000002,998.35504,5.738447558008095,998.2493931248796,0,0
3.74,8.524182000000001,-4.797469,1.7219543000000002,998.33484,5.738392126639007,998.2554800817579,0,0
3.76,8.514650999999999,-4.816536,1.7835041,998.3703,5.738352739053696,998.2612718685614,0,0
3.78,8.5768175,-4.7927040000000005,1.6604123,998.35,5.738370431876677,998.2667089126539,0,0
3.8,8.667663000000001,-4.8022375,1.5941331,998.35254,5.738588383987522,998.2718220767288,0,0
3.82,8.619897,-4.7736387,1.6509491000000005,998.33215,5.738887515234474,998.2765572490288,0,0
3.84,8.5428095,-4.835589,1.6272211,998.36237,5.739173340495384,998.2810501731767,0,0
3.86,8.490244,-4.8546559999999985,1.5798782,998.3676,5.739356110451668,998.2853317003304,0,0
3.88,8.442461,-4.8784895,1.688771,998.35736,5.739423947269285,998.2893741596024,0,0
3.9,8.557189,-4.8212905,1.5988184,998.36237,5.739505159646207,998.2932088616403,0,0
3.92,8.561983,-4.797458,1.6366948,998.3372,5.739595327020768,998.296755572459,0,0
3.94,8.590674,-4.7974586,1.6272274,998.3499,5.739741200070863,998.3000807660776,0,0
3.96,8.504653999999999,-4.8451242,1.6414318,998.3473,5.739835021672668,998.3031888964014,0,0
3.98,8.495107,-4.849891,1.7929342,998.3523,5.739924797501335,998.3061120403282,0,0
4.0,8.504681,-4.8308253,1.6887784,998.3397,5.739970461533255,998.3088158469568,0,0
4.02,8.476015,-4.835592,1.6035603,998.37756,5.7399013283780285,998.3114524094448,0,0
4.039999999999999,8.538165,-4.7497945,1.5940927,998.3397,5.739752515129879,998.3138837673848,0,0
4.06,8.54774,-4.7450285,1.5893595,998.34973,5.739544671174928,998.3161611616986,0,0
4.079999999999999,8.495174,-4.8832593,1.6982521000000002,998.3523,5.739368456140273,998.3183035671319,0,0
4.1,8.461727999999999,-4.9166245,1.6887846000000002,998.37756,5.739192354839224,998.3204099197313,0,0
4.119999999999999,8.581239,-4.7688622,1.5420192,998.365,5.7390307443679305,998.3224316171768,0,0
4.14,8.562133,-4.7926955,1.5609581,998.3474,5.738878243202683,998.3243078752178,0,0
4.159999999999998,8.619504,-4.749796400000001,1.5941001,998.38763,5.738805440269696,998.326193696472,0,0
4.18,8.629077,-4.7831626,1.6414455,998.35986,5.738869550387912,998.3279812068248,0,0
4.199999999999998,8.590853,-4.8117623,1.5183521999999998,998.3472,5.738973957245957,998.3296298386284,0,0
4.22,8.566966,-4.78793,1.7503395,998.3699,5.739126072657162,998.3312315422706,0,0
4.239999999999998,8.552642,-4.8260627000000005,1.6603868999999998,998.3549,5.739300457628191,998.3327320140567,0,0
4.26,8.514416,-4.7879305,1.636716,998.3497,5.739379103380808,998.3341189156764,0,0
4.2799999999999985,8.523989,-4.8308300000000015,1.6887956999999998,998.3927,5.7394513043327855,998.3355552738514,0,0
4.3,8.519223,-4.8403635000000005,1.6603906000000002,998.3495,5.739508751684617,998.3368746409483,0,0
4.3199999999999985,8.614831,-4.802231,1.6035788,998.32935,5.739666108912532,998.3380133450082,0,0
4.34,8.49985,-4.778392,1.6319609,998.3648,5.739691150138508,998.3391159358732,0,0
4.3599999999999985,8.456833999999999,-4.821291,1.513601,998.352,5.739526539068724,998.3401365677928,0,0
4.38,8.5141945,-4.735493,1.5893518,998.35223,5.739235892042893,998.3410819345123,0,0
4.4,8.547656,-4.6878275999999985,1.6935089,998.34216,5.738883683575662,998.341921141582,0,0
4.42,8.48552,-4.8355904,1.6414305,998.3545,5.73849673542541,998.3427079488388,0,0
4.44,8.480742,-4.8975563,1.7787285,998.33966,5.738184279919079,998.3433921991153,0,0
4.46,8.542882,-4.7259603,1.7408535,998.37744,5.73786274604954,998.3441193747424,0,0
4.48,8.552444,-4.783159,1.5893528,998.347,5.737555594020708,998.3447722773776,0,0
4.5,8.595467,-4.802225,1.5846186000000002,998.3901,5.737356829617777,998.3455123619476,0,0
4.52,8.485533,-4.86419,1.6082909,998.3573,5.737128785769834,998.3462087361703,0,0
4.539999999999999,8.538113000000001,-4.830824400000001,1.6082911,998.37225,5.736935535897244,998.3469178009835,0,0
4.56,8.514216000000001,-4.8451242,1.5514785,998.36725,5.736726770367023,998.347617526569,0,0
4.579999999999999,8.471200999999999,-4.8641906,1.5136034,998.3724,5.736435608883793,998.3483250210006,0,0
4.6,8.571579,-4.840358,1.5798854,998.3623,5.73624902704004,998.3490004730047,0,0
4.619999999999999,8.542902999999999,-4.806992,1.6130265,998.3544,5.736081711353285,998.3496167406928,0,0
4.64,8.585923,-4.8546580000000015,1.6082923,998.3876,5.736055320075643,998.3502980145554,0,0
4.659999999999998,8.528568,-4.888023400000002,1.7219182000000002,998.3671,5.736124601350473,998.3509604752879,0,0
4.68,8.509451,-4.8689575,1.693512,998.35187,5.736214679290971,998.3515490998803,0,0
4.699999999999998,8.499895,-4.8355913,1.6935122,998.36194,5.736271945575813,998.3521066158104,0,0
4.72,8.480777,-4.9070907,1.6887782,998.3746,5.736337251634742,998.3526802130693,0,0
4.739999999999998,8.523798,-4.8832574,1.5372773000000002,998.352,5.736410416054458,998.3531845948404,0,0
4.76,8.490343,-4.9785886,1.6698409,998.3494,5.73657329875413,998.353616642032,0,0
4.7799999999999985,8.504684,-4.868958,1.6224971,998.3367,5.7367113722022784,998.3539374990187,0,0
4.8,8.624182000000001,-4.7307277,1.5988253,998.3243,5.73689425672076,998.3541143132561,0,0
4.8199999999999985,8.609846000000001,-4.7783932999999985,1.5988256,998.36957,5.737137568894117,998.3543261867883,0,0
4.84,8.533624,-4.8022323,1.6461929,998.3392,5.737336853978822,998.3544589439692,0,0
4.8599999999999985,8.533636999999999,-4.830832,1.6414598000000002,998.36206,5.737523730462612,998.3546036120157,0,0
4.88,8.514529,-4.868965,1.6935393,998.3647,5.737721723811065,998.3547677876984,0,0
4.9,8.567119,-4.787934,1.6840715,998.382,5.737937578711089,998.3550108892958,0,0
4.92,8.528893,-4.8498993,1.6604006999999998,998.3593,5.7381542962050345,998.355241134666,0,0
4.94,8.567144,-4.8022337,1.6698707,998.35425,5.738394522514096,998.3554410113901,0,0
4.96,8.50502,-4.8451333,1.660403,998.3643,5.7385837816935386,998.3556495148227,0,0
4.98,8.4285555,-4.930932,1.7361547,998.372,5.738706510384468,998.3558926102023,0,0
5.0,8.452467,-4.9118657,1.631999,998.3394,5.738755878684508,998.3560480358832,0,0
5.02,8.452478999999999,-4.8928,1.6035936000000002,998.38464,5.738711011212584,998.3562883010852,0,0
5.039999999999999,8.428593,-4.9071,1.6698763,998.4098,5.7385781965015195,998.356693241534,0,0
5.06,8.442945,-4.940466000000002,1.5988615,998.35925,5.7384036795795295,998.357060251245,0,0
5.079999999999999,8.419058,-4.949999299999999,1.6935507,998.36676,5.738193284846823,998.3574194601213,0,0
5.1,8.533787,-4.854668599999999,1.6556766,998.3441,5.738044362745867,998.3576889070276,0,0
5.119999999999999,8.619835,-4.78317,1.6982872,998.36456,5.738047121933363,998.357951726249,0,0
5.14,8.586389,-4.816537,1.7882421999999998,998.36206,5.7381899697713745,998.3581987430985,0,0
5.159999999999998,8.505144999999999,-4.849903,1.7314305,998.3743,5.738324180270332,998.3584749717115,0,0
5.18,8.505158,-4.7736382000000015,1.6036028,998.3796,5.7383286694435895,998.358795097416,0,0
5.199999999999998,8.529067999999999,-4.85467,1.745636,998.36426,5.738392652012387,998.3590976341376,0,0
5.22,8.53864,-4.892803,1.6604179,998.377,5.738534480629943,998.3594294041015,0,0
5.239999999999998,8.471736,-4.9690676,1.613075,998.3464,5.738688180557713,998.3596756501877,0,0
5.26,8.447848,-4.921403,1.7172330000000002,998.3794,5.738796537401472,998.3599642408881,0,0
5.2799999999999985,8.562577000000001,-4.840371599999999,1.6225461,998.3945,5.738952647196918,998.360343568364,0,0
5.3,8.510011,-4.840372,1.5609999,998.3743,5.739036093903303,998.3607289852756,0,0
5.3199999999999985,8.462225,-4.9071045,1.736174,998.37177,5.739098702775644,998.3611092873116,0,0
5.34,8.562647,-4.8594394,1.7740535,998.3868,5.7392862259154205,998.3615378087565,0,0
5.3599999999999985,8.490962,-4.7927084,1.7929921999999998,998.3617,5.739395715078626,998.3619170341934,0,0
5.38,8.4861965,-4.830840599999998,1.6888366,998.3614,5.7394278289845015,998.3622502564664,0,0
5.4,8.467091,-4.8499074,1.7456505,998.3843,5.739397310019928,998.3626240707435,0,0
5.42,8.467103999999999,-4.8308415,1.6367605,998.4045,5.7392535362768164,998.3631051263844,0,0
5.44,8.562714999999999,-4.807009,1.6651683000000002,998.3792,5.739166511198027,998.3635881286934,0,0
5.46,8.634424000000001,-4.7879434000000005,1.6083567,998.36664,5.739219927119152,998.3640258962704,0,0
5.48,8.467146000000001,-4.8546752999999985,1.679374,998.3944,5.739190120740701,998.3645220544748,0,0
5.5,8.4576,-4.9214077000000005,1.6320312,998.3968,5.739121909805101,998.3650766604684,0,0
5.52,8.448053999999999,-4.911874299999999,1.6130949,998.3716,5.738986819929445,998.3655901943463,0,0
5.539999999999999,8.471967,-4.868976,1.6367681,998.37897,5.738799622441344,998.3660921201813,0,0
5.56,8.514997,-4.883276,1.6983163,998.3741,5.7386795793108085,998.3665644502164,0,0
5.579999999999999,8.548471000000001,-4.811778,1.5752233,998.37396,5.738564469861445,998.3670084250148,0,0
5.6,8.543704,-4.854677,1.7125224,998.33374,5.73853604125728,998.3672809548165,0,0
5.619999999999999,8.572397,-4.821312,1.5894291,998.3966,5.73855947675655,998.3676273107117,0,0
5.64,8.553291999999999,-4.8499117,1.7077905,998.4396,5.738664056245207,998.3681924524623,0,0
5.6599999999999975,8.47683,-4.8499120000000016,1.7077917,998.35394,5.738703915027914,998.3686405028843,0,0
5.68,8.515080000000001,-4.907111,1.7125273999999997,998.3589,5.738814370507895,998.3690013344267,0,0
5.6999999999999975,8.538994,-4.8213134,1.622575,998.3766,5.738910950608388,998.3693475203737,0,0
5.72,8.45775,-4.921411,1.7456706999999998,998.3764,5.7389958591649775,998.3696787992031,0,0
5.7399999999999975,8.467323,-4.8880453,1.6557182,998.3738,5.739020821373018,998.3699863534996,0,0
5.76,8.553374,-4.8594465,1.532625,998.3689,5.739075709745588,998.3702541976036,0,0
5.7799999999999985,8.529489,-4.8165483,1.6036423,998.39154,5.739094079724734,998.370567493542,0,0
5.8,8.553401,-4.835614,1.6320499,998.3486,5.739151651078255,998.370765238857,0,0
5.8199999999999985,8.496058999999999,-4.930946400000002,1.6557233,998.36365,5.739246914032361,998.3709143517572,0,0
5.84,8.476827,-4.8975773,1.6651819,998.3712,5.739310046131008,998.3710471362494,0,0
5.8599999999999985,8.581991,-4.826079,1.7551363999999998,998.3788,5.739491220978949,998.3711923749364,0,0
5.88,8.577219,-4.7831800000000015,1.6083707,998.37897,5.739673151948699,998.3713487072904,0,0
5.9,8.524650999999999,-4.8499126,1.7077938,998.39624,5.739862773649768,998.371576451212,0,0
5.92,8.486422,-4.8594456,1.6367786,998.39124,5.739975322751981,998.3718484745168,0,0
5.94,8.486431,-4.8785124,1.6509827,998.3686,5.740043722045715,998.3720771398007,0,0
5.96,8.495998,-4.807014,1.6036393999999998,998.3938,5.740001121583228,998.3723573907423,0,0
5.98,8.496006,-4.921412,1.636781,998.35846,5.739988408407939,998.3725549898676,0,0
6.0,8.457778,-4.8785133,1.6225785,998.3837,5.739885430525657,998.3727697104912,0,0
6.02,8.519924000000001,-4.7593492999999985,1.6320482,998.38873,5.739696494856651,998.3730168946763,0,0
6.039999999999999,8.524712,-4.878514,1.6367834,998.3611,5.7395626964212525,998.3731924058017,0,0
6.06,8.443465,-4.902346,1.6509875,998.3835,5.739363098461052,998.373384594771,0,0
6.079999999999999,8.543849,-4.8070154,1.7030667000000002,998.36334,5.739205994040187,998.3735182524033,0,0
6.1,8.543858,-4.8117824,1.6131139,998.33826,5.739060635210422,998.3735094225784,0,0
6.119999999999999,8.481729,-4.8260818,1.6841307,998.38104,5.738854333330396,998.3735287306237,0,0
6.14,8.4196,-4.878515,1.6415218,998.40137,5.738523132302926,998.3736460197824,0,0
6.1599999999999975,8.472186,-4.8546815,1.7125387,998.4011,5.738176745752077,998.3738484908116,0,0
6.18,8.5008745,-4.845149,1.6462578999999995,998.4063,5.737836194695593,998.3741442196463,0,0
6.1999999999999975,8.515222,-4.849916,1.6888683,998.36334,5.737547271701166,998.374366630454,0,0
6.22,8.558249,-4.8213167000000015,1.6273218,998.3862,5.737331528168925,998.3746057527736,0,0
6.2399999999999975,8.606056,-4.7450519999999985,1.6036506,998.4063,5.737182737802973,998.3749311405456,0,0
6.26,8.591725,-4.773651,1.5847136999999998,998.40375,5.737090030058129,998.375322401075,0,0
6.2799999999999985,8.591735,-4.7688847,1.5705115,998.4289,5.7370378011488565,998.3758609982347,0,0
6.3,8.591743,-4.740286,1.7030756,998.4138,5.737038453927593,998.3764734830916,0,0
6.3199999999999985,8.567852,-4.787952,1.7172793999999998,998.4188,5.7370955112593425,998.3771670501718,0,0
6.34,8.457925999999999,-4.8117847000000005,1.6083889999999998,998.3732,5.736992025746963,998.3777656046632,0,0
6.3599999999999985,8.453155,-4.969081,1.750422,998.4059,5.736949926428361,998.3783957712352,0,0
6.38,8.448383,-4.8832836,1.6699378,998.396,5.736836505580611,998.3790159616417,0,0
6.4,8.510530000000001,-4.7736526,1.508969,998.3834,5.736606187710862,998.3795797444228,0,0
6.42,8.615692999999998,-4.797486,1.5563138,998.39343,5.736500990779088,998.3801277638084,0,0
6.44,8.554437,-4.787974,1.6936921000000005,998.37317,5.736434102627452,998.380586945788,0,0
6.46,8.487563,-4.821341,1.6510863999999998,998.39856,5.7363006158841205,998.38105738198,0,0
6.48,8.482819000000001,-4.835642,1.7173713,998.4086,5.736138226281072,998.3815722128244,0,0
6.5,8.497196,-4.8022766,1.7173748,998.37335,5.735942763723545,998.3819975173919,0,0
6.52,8.549812,-4.7450790000000005,1.736316,998.4162,5.735762387809527,998.3824964454456,0,0
6.539999999999999,8.583307000000001,-4.768913,1.6937096,998.4184,5.735664365891293,998.38306655107,0,0
6.56,8.549884,-4.7832136,1.8168073,998.4033,5.735639057564892,998.383643136816,0,0
6.579999999999999,8.521241,-4.8356466,1.726857,998.3857,5.7356464240420575,998.3841600126884,0,0
6.6,8.54518,-4.878546,1.6511102999999998,998.4134,5.73574203062842,998.3847219881636,0,0
6.619999999999999,8.483082000000001,-4.9357457,1.655848,998.39825,5.735865165429604,998.3852672505362,0,0
6.64,8.449657,-4.9405136,1.722133,998.42334,5.735981358715013,998.3858861062668,0,0
6.6599999999999975,8.5022745,-4.954814,1.5753700000000002,998.4059,5.736148382847151,998.3865049772077,0,0
6.68,8.57879,-4.9452824999999985,1.6179831,998.3781,5.736499883294736,998.387021553653,0,0
6.6999999999999975,8.51191,-4.8833175,1.6037834,998.42865,5.736826071680571,998.3876278630072,0,0
6.72,8.559747,-4.8308864,1.6700686000000002,998.4031,5.737183448516638,998.3882192976454,0,0
6.7399999999999975,8.578904,-4.811821,1.4806957,998.4412,5.737519908003505,998.3889326198204,0,0
6.76,8.5168,-4.8070555,1.7600287,998.39557,5.737815526342327,998.3895868058627,0,0
6.7799999999999985,8.535962,-4.9119205,1.7221575,998.38293,5.738200576834386,998.3901408801488,0,0
6.8,8.55034,-4.840423,1.7268955,998.40326,5.7386179704352935,998.3906776890193,0,0
6.8199999999999985,8.4978,-4.854724,1.7884461,998.4334,5.739006037882673,998.3913058136568,0,0
6.84,8.4452505,-4.8880906,1.8168553,998.4156,5.739318391923437,998.3919482836574,0,0
6.8599999999999985,8.483533,-4.8785586,1.5990765,998.4055,5.739542929445301,998.3925647563287,0,0
6.88,8.560047,-4.826127,1.6274865,998.3854,5.73978180584492,998.3930836784584,0,0
6.9,8.593541,-4.8404274,1.7316467,998.42316,5.740143068537012,998.3936504728096,0,0
6.92,8.598360000000001,-4.764164,1.6227587,998.4307,5.74050557928912,998.394284670596,0,0
6.94,8.560564999999999,-4.835673,1.6796124,998.41315,5.7408914173789825,998.3949129629464,0,0
6.96,8.450687,-4.8595076,1.7885089,998.4031,5.741164737147577,998.3954975953999,0,0
6.98,8.455523,-4.8452085999999985,1.6654195,998.41315,5.741287032940067,998.3960777252928,0,0
7.0,8.450792999999999,-4.8928757,1.6606897,998.4031,5.741314140698261,998.3966156082553,0,0
7.02,8.460408000000001,-4.9214764,1.7743205000000002,998.4106,5.741344318889449,998.397141225451,0,0
7.039999999999999,8.556061999999999,-4.768948,1.5849495,998.40533,5.7413262100590625,998.3976351403937,0,0
7.06,8.54177,-4.8690467,1.608626,998.4105,5.741348699007353,998.3981178771312,0,0
7.079999999999999,8.546603999999999,-4.8070827000000005,1.7080534,998.4181,5.741387443159491,998.3986163589548,0,0
7.1,8.560998,-4.8023176,1.6039015,998.42816,5.741425319335527,998.3991631746023,0,0
7.119999999999999,8.489355999999999,-4.921483,1.5944376,998.43066,5.74145256754722,998.3997597294797,0,0
7.14,8.393814,-4.931018,1.7222716,998.3977,5.741355529400461,998.4002794303433,0,0
7.1599999999999975,8.43688,-4.835687,1.6986039000000002,998.40533,5.74111880838671,998.4007568200767,0,0
7.18,8.475177,-4.859521400000001,1.8169693,998.4078,5.7408953833226155,998.4012039970936,0,0
7.1999999999999975,8.499129,-4.8452234,1.6938798,998.41046,5.740667316981022,998.4016324443156,0,0
7.22,8.599558,-4.873824,1.6654781000000003,998.413,5.7406338671857675,998.4020519434818,0,0
7.239999999999997,8.513575999999999,-4.878592,1.5992014,998.38763,5.7406016403097935,998.4023706939483,0,0
7.26,8.652244999999999,-4.8261614,1.5376591999999998,998.40533,5.740745326795851,998.4026629953624,0,0
7.2799999999999985,8.590161,-4.8118625,1.5423986,998.40027,5.74091983108388,998.4029126581083,0,0
7.3,8.494614,-4.864296,1.5187309,998.4002,5.740995689025247,998.4031234945418,0,0
7.3199999999999985,8.470778,-4.945329,1.6986442,998.4128,5.7410855565940775,998.4033446250336,0,0
7.34,8.466046,-4.8499994000000015,1.7223206000000002,998.3927,5.74108985457648,998.4035016952864,0,0
7.3599999999999985,8.513899,-4.792802,1.7223256999999998,998.4127,5.74104588783167,998.4036735964586,0,0
7.38,8.523514,-4.788037,1.6418456999999995,998.395,5.740943442736338,998.4037942633873,0,0
7.399999999999999,8.494886,-4.9024353,1.6891944,998.4229,5.740871208321593,998.4039696653372,0,0
7.42,8.490164,-4.8786044,1.5613708,998.40753,5.740749686971128,998.4041374677046,0,0
7.439999999999999,8.47435,-4.9357667,1.6085798999999998,998.3872,5.740631365950656,998.4042247629927,0,0
7.46,8.526921000000002,-4.840435,1.5754384,998.3824,5.740501263054656,998.4042233279628,0,0
7.479999999999999,8.622512,-4.8118352999999985,1.6180476,998.42523,5.740517529587746,998.4042976839895,0,0
7.5,8.546028,-4.8785669999999985,1.6464533,998.4201,5.740603395693372,998.4044202733127,0,0
7.52,8.479105,-4.8738003,1.6227807,998.42505,5.740618450725562,998.4046028602544,0,0
7.539999999999999,8.412182000000001,-4.807069,1.7079995,998.40265,5.740413820659385,998.4047571637793,0,0
7.56,8.431294,-4.8690333,1.6653893,998.40027,5.740097804076267,998.4048773525842,0,0
7.579999999999999,8.488646000000001,-4.8880997000000015,1.7079983,998.37213,5.739820841978737,998.404865660943,0,0
7.6,8.512539,-4.9405317,1.6653881,998.3924,5.739660519408691,998.4048104538292,0,0
7.619999999999999,8.555551,-4.7927685,1.6085749,998.3974,5.739510963105618,998.40473499519,0,0
7.64,8.579444,-4.826134,1.5470269,998.38983,5.739427448064832,998.4046146619536,0,0
7.659999999999997,8.550758,-4.888099,1.613308,998.3946,5.739435936327043,998.4044722827227,0,0
7.68,8.62723,-4.8690324,1.655917,998.40247,5.739657187618188,998.4043392682164,0,0
7.699999999999997,8.531627,-4.816600299999998,1.7506046000000002,998.38226,5.739875870878992,998.4041422512332,0,0
7.72,8.545960000000001,-4.835666000000002,1.6085718999999998,998.3771,5.740086452410481,998.4038708149224,0,0
7.739999999999997,8.436017,-4.9309980000000015,1.6322433,998.3972,5.740199176971611,998.4036069588644,0,0
7.76,8.407332,-4.935764,1.6843212,998.41986,5.74019737927307,998.4034323265996,0,0
7.7799999999999985,8.474244,-4.9166975,1.6227733999999998,998.4047,5.7401717903963885,998.4032825851547,0,0
7.8,8.450338,-4.959596,1.6795857,998.4048,5.740146890428719,998.4031557363077,0,0
7.8199999999999985,8.459891,-4.9214635,1.5896313999999998,998.38464,5.740069376061782,998.4029769960156,0,0
7.84,8.59372,-4.94053,1.5186148000000002,998.39233,5.740180090671531,998.4027807319078,0,0
7.8599999999999985,8.364282000000001,-4.9834285000000005,1.7316623,998.4074,5.7401673916476526,998.4026239423073,0,0
7.88,8.455093,-4.935763,1.5186136,998.4099,5.740083708875222,998.4025115968236,0,0
7.899999999999999,8.512445,-4.7832327,1.3339713,998.3796,5.739828644428742,998.4023298466064,0,0
7.92,8.5458975,-4.787999,1.4712684,998.3947,5.7395283961250225,998.402141784666,0,0
7.939999999999999,8.61848,-4.8023205,1.7033353999999998,998.3947,5.739410520846263,998.401948822711,0,0
7.96,8.570705,-4.7689557,1.7696192,998.3945,5.7393595063822245,998.4017515057657,0,0
7.979999999999999,8.542059,-4.854755,1.8074974,998.39966,5.739416806874268,998.4015696270924,0,0
8.0,8.456049,-4.8166227,1.6986084,998.37683,5.739338153145063,998.4013198564387,0,0
8.02,8.446521,-4.978686,1.7128146,998.3944,5.7392942262788615,998.4010742476061,0,0
8.04,8.379632,-4.9500875,1.65127,998.3717,5.739111668034456,998.40075148035,0,0
8.059999999999999,8.508714999999999,-4.8404574,1.5944595,998.4223,5.738904135385408,998.4005438578737,0,0
8.08,8.513521,-4.9024234,1.5281804,998.392,5.738725366347289,998.4003296447653,0,0
8.1,8.532668,-4.940556,1.4950421,998.41705,5.7386354374894495,998.4002005593409,0,0
8.12,8.451449,-4.9643903,1.6276089,998.3693,5.738548181591427,998.3999752574466,0,0
8.139999999999999,8.50883,-4.9453244000000005,1.5187196000000005,998.4247,5.7385097449053575,998.3998651897659,0,0
8.16,8.527975999999999,-4.764196,1.6134101,998.40717,5.7383956984055695,998.3997942312803,0,0
8.18,8.532783,-4.845228,1.7270384,998.39935,5.738345025781013,998.3997299331296,0,0
8.2,8.518473,-4.873828,1.7743851000000002,998.4019,5.73837135656942,998.3996809315244,0,0
8.219999999999999,8.532844,-4.873829,1.6418246,998.3615,5.7384439684474815,998.3995001823528,0,0
8.24,8.532872,-4.8309307,1.6749681,998.39166,5.738525278789238,998.399312247728,0,0
8.26,8.633275,-4.830931,1.6560328999999998,998.3741,5.738786731245322,998.3990554246018,0,0
8.28,8.485130999999999,-4.9500957,1.6181605,998.3615,5.7390510047212375,998.3986932961592,0,0
8.299999999999999,8.446927,-4.954863,1.5897572,998.3764,5.739244588494155,998.3982930636008,0,0
8.32,8.47085,-4.9596305,1.5376809,998.3791,5.739405277485048,998.3978703230832,0,0
8.34,8.451756,-4.9119654000000015,1.6371057,998.36896,5.739486264866173,998.3973927123986,0,0
8.36,8.408778,-4.969165,1.6465782,998.3588,5.739483076488991,998.3968317618336,0,0
8.379999999999999,8.475723,-4.926267,1.6560495,998.36646,5.739482714601809,998.3962267675713,0,0
8.4,8.5331,-4.821403,1.651317,998.36646,5.739478378564018,998.3955850342779,0,0
8.42,8.552247999999999,-4.821404,1.6276478,998.3488,5.73949662284608,998.3948495726164,0,0
8.44,8.484726,-4.9071875,1.6323266,998.39667,5.739503342286786,998.3942062722313,0,0
8.459999999999999,8.451271,-4.864288,1.6417958,998.3788,5.739399754435412,998.3935823894307,0,0
8.48,8.513411999999999,-4.9262533,1.6086553,998.3992,5.739361658832762,998.393051349986,0,0
8.5,8.456058500000001,-4.950086,1.6465307,998.38385,5.7393173863390174,998.392548998673,0,0
8.52,8.451282,-4.9071875,1.6323279,998.3891,5.739210187909904,998.3920927046573,0,0
8.54,8.503863,-4.8881207,1.5660466,998.3588,5.739099393874192,998.3915696695284,0,0
8.559999999999999,8.537326,-4.8785887,1.6086565000000002,998.3638,5.739049797890173,998.3910075448782,0,0
8.58,8.527769000000001,-4.854756,1.5707817,998.36615,5.739000619012763,998.3904213643756,0,0
8.6,8.518215,-4.7689575999999985,1.6512669999999998,998.3611,5.738875586023352,998.389797858372,0,0
8.62,8.527777,-4.8642883,1.6938769,998.3384,5.738812040594207,998.3890618961767,0,0
8.639999999999999,8.561239,-4.9119544,1.6228611000000002,998.35345,5.738886574985258,998.3882833971553,0,0
8.66,8.475207000000001,-4.8595223,1.6181272,998.37616,5.7388747080969775,998.3875518711895,0,0
8.68,8.5182295,-4.7975574,1.5991899,998.37115,5.738794070561895,998.3868464481103,0,0
8.7,8.460875,-4.9405537000000015,1.6938783,998.37866,5.738729449687496,998.3861936650644,0,0
8.719999999999999,8.43698,-4.9405537000000015,1.5897217,998.3659,5.7386011184520695,998.3855438087704,0,0
8.74,8.5039015,-4.869056,1.5755187,998.3762,5.7384575573941925,998.3849359580378,0,0
8.76,8.527803,-4.9214883,1.5092375,998.376,5.738375887380711,998.3843666916814,0,0
8.78,8.599504,-4.8785896,1.5092378,998.3762,5.738433287763464,998.3838342878388,0,0
8.799999999999997,8.446553999999999,-4.9024220000000005,1.5897231,998.3759,5.7383914101362645,998.3833352923673,0,0
8.82,8.475237,-4.892889,1.584989,998.37854,5.738301514846982,998.382877116916,0,0
8.84,8.413103,-4.921489,1.6702087,998.38354,5.7381179546937595,998.3824746594664,0,0
8.86,8.441786,-4.9691540000000005,1.7459595,998.39105,5.73797944404908,998.38214991929,0,0
8.879999999999997,8.484807,-4.9024224,1.5802556,998.3684,5.737830864232298,998.3818134791603,0,0
8.9,8.49915,-4.8928895,1.580256,998.3735,5.737689644566043,998.3814862721373,0,0
8.92,8.40356,-4.9977535999999985,1.6086628,998.39856,5.7375043223273705,998.3812586174316,0,0
8.94,8.494982,-4.9739356,1.6039839,998.3762,5.7374157967876025,998.3810392507112,0,0
8.959999999999997,8.538029,-4.892905000000002,1.4950954,998.3837,5.737371007744756,998.3808549969742,0,0
8.98,8.499817,-5.0120697,1.6371296999999998,998.37836,5.737466486162959,998.3806832083832,0,0
9.0,8.413806,-4.9501050000000015,1.5803193000000002,998.35583,5.737449951829857,998.3804419444341,0,0
9.02,8.523767999999999,-4.90244,1.490368,998.4187,5.737451517839912,998.3803664926083,0,0
9.04,8.490339,-4.892908,1.5945276000000002,998.386,5.7374334280170265,998.3803201040021,0,0
9.06,8.480807,-4.854776,1.6039989,998.3608,5.737345298487407,998.3802088426552,0,0
9.08,8.533413000000001,-4.883375599999999,1.7460337,998.4011,5.737367968008188,998.3801857402952,0,0
9.1,8.447403,-4.954875,1.6797543999999998,998.371,5.737385782151335,998.3801322583853,0,0
9.12,8.423528999999998,-4.9215097000000005,1.6797569,998.3984,5.73732250936755,998.3801507656392,0,0
9.14,8.41878,-5.0073085,1.5898058000000002,998.3984,5.737237913416287,998.3802328158923,0,0
9.16,8.356675,-5.064508,1.7271066000000002,998.3985,5.737133699867629,998.380371077359,0,0
9.18,8.500089,-4.935811,1.5329978000000002,998.3883,5.737064582334541,998.3805217893124,0,0
9.2,8.557478,-4.8929133,1.5235318000000002,998.406,5.737081845844455,998.3807466799527,0,0
9.22,8.504926,-4.907213700000002,1.5850815,998.37067,5.737116404331098,998.3809091172748,0,0
9.24,8.581436,-4.869082,1.5945534,998.38574,5.737266662936642,998.3810700380703,0,0
9.26,8.547998,-4.8881483,1.6608368999999998,998.4261,5.7375008291910525,998.3813743355485,0,0
9.28,8.500228,-4.897682700000002,1.6703084,998.3908,5.7377364092821965,998.3816771451919,0,0
9.3,8.447683,-4.9501157,1.6561081000000002,998.3982,5.737928335238402,998.3820041900702,0,0
9.32,8.342549,-4.9882483,1.7981421999999998,998.38574,5.7379870535015405,998.3823066158403,0,0
9.34,8.361695,-4.9930153,1.6229718000000002,998.34784,5.737903465896982,998.382449759434,0,0
9.36,8.409522,-4.95965,1.6182398999999998,998.3754,5.737742242885188,998.3825508619792,0,0
9.38,8.399989999999999,-4.9262853,1.5140855,998.378,5.737427099423456,998.3826238130852,0,0
9.4,8.567311,-4.940585,1.5093538,998.3957,5.737287482280699,998.3827353469553,0,0
9.42,8.543438,-4.888154,1.5519657,998.40814,5.737220885313,998.382925355034,0,0
9.44,8.505764,-4.9215339999999985,1.6325021999999998,998.3932,5.737212957321812,998.383130234894,0,0
9.46,8.520164999999999,-4.85957,1.5851638,998.4135,5.737203289248575,998.3834205978926,0,0
9.48,8.496303999999999,-4.8881702,1.6893241,998.3729,5.7372144715506606,998.3836392884856,0,0
9.5,8.520255,-4.840506,1.736673,998.3629,5.737255116425206,998.3837578620556,0,0
9.52,8.577661500000001,-4.8214407,1.7130057,998.4106,5.73739624824412,998.3839592653584,0,0
9.54,8.506021,-4.9167733,1.6277913,998.41315,5.737565204833791,998.3842423119612,0,0
9.56,8.491717999999999,-4.9072413,1.632529,998.39825,5.7377245816337465,998.3845428396166,0,0
9.58,8.463089,-4.9358416,1.5425799,998.39056,5.737823694367124,998.3848300476303,0,0
9.6,8.482258,-4.91201,1.53785,998.3678,5.737877117365727,998.3850225164597,0,0
9.62,8.487083,-4.95491,1.5851983,998.4106,5.7379582644259335,998.385284660858,0,0
9.64,8.482351,-4.931079,1.6278123,998.3854,5.738044923681084,998.3855167068692,0,0
9.66,8.458513,-4.8929480000000005,1.4337074,998.39795,5.737992206240546,998.3857665025804,0,0
9.68,8.444211,-4.9835134000000005,1.6893686,998.3753,5.737968659472915,998.385949542661,0,0
9.7,8.458597,-4.9167830000000015,1.6657008000000002,998.39545,5.737919006943178,998.3861454785228,0,0
9.72,8.516003999999999,-4.8405185,1.5946892,998.4256,5.737846340422768,998.3864606437276,0,0
9.74,8.535175,-4.8309875,1.5426157,998.3904,5.7377610690994025,998.3867533053852,0,0
9.76,8.473084,-4.888187,1.5994328000000002,998.3753,5.737631275367121,998.3869706693263,0,0
9.78,8.487486,-4.921554,1.6231103,998.3778,5.737530426395879,998.3871297176953,0,0
9.8,8.511417999999999,-4.8881893,1.5994415000000002,998.3726,5.73745585514853,998.3872179458504,0,0
9.82,8.487573,-4.8691244000000005,1.6136495000000002,998.3929,5.737347665036286,998.3873163596428,0,0
9.84,8.482851,-4.888192,1.5663109,998.40295,5.737205482429961,998.3874595991756,0,0
9.86,8.516346,-4.8834267,1.5521109,998.403,5.7370838730692935,998.3876421110697,0,0
9.88,8.502066000000001,-4.8977275,1.5899917,998.39514,5.736982540451046,998.3878303709793,0,0
9.9,8.506883,-4.8738956,1.5947294,998.40265,5.736885280291323,998.3880500680997,0,0
9.92,8.440014999999999,-4.8977294,1.6042027,998.39795,5.7367007439095135,998.3882798322304,0,0
9.94,8.486116,-4.9358206,1.5945786,998.4027,5.7365575463401735,998.3885347644199,0,0
9.96,8.4622,-4.9310535999999985,1.6703275000000002,998.4077,5.736429953754749,998.3888290173512,0,0
9.98,8.466961,-4.92152,1.637185,998.41296,5.736303744769432,998.3891758907782,0,0
10.0,8.509959,-4.826188,1.6845272,998.4053,5.736174812424513,998.3895404349316,0,0
10.02,8.495595,-4.845254,1.6845249,998.4002,5.736037668389798,998.3899009205801,0,0
10.04,8.572056,-4.9262853,1.5330225,998.4253,5.736061605141352,998.3903468823848,0,0
10.06,8.49078,-4.8738527000000005,1.5188175,998.4379,5.736024870073763,998.390912125459,0,0
10.08,8.428618,-4.9834830000000006,1.5898315,998.42554,5.735960830938983,998.3915362345875,0,0
10.1,8.485957,-4.9262834,1.5850952,998.39764,5.735913503484576,998.3921096709693,0,0
10.12,8.414244,-4.9167495,1.6277034,998.40515,5.735758531683795,998.3926633045404,0,0
10.14,8.457241999999999,-4.983482,1.6182328,998.3874,5.735651069886233,998.3931335472673,0,0
10.16,8.557597,-4.869084,1.5992934,998.40515,5.7356401667260055,998.393592312971,0,0
10.18,8.528899000000001,-4.84525,1.6182292,998.39764,5.7356456460077005,998.39401225002,0,0
10.2,8.466742,-4.883382,1.6418993000000002,998.4002,5.735601900165635,998.3944055822965,0,0
10.22,8.48584,-4.9644127000000005,1.6182255,998.4276,5.735624054360032,998.3948726305997,0,0
10.24,8.557518,-4.8452487,1.6087549,998.4126,5.735706664478692,998.39534913301,0,0
10.26,8.45712,-4.850014,1.6560968,998.39764,5.735684579195546,998.395778417661,0,0
10.28,8.414081,-4.983478,1.6182196000000002,998.38495,5.735618588646905,998.396118751275,0,0
10.3,8.457081,-5.0311427,1.7034373,998.4102,5.735669241085051,998.3964701625521,0,0
10.32,8.461843,-4.869079599999999,1.6987011000000003,998.3949,5.735661899944183,998.3967750169709,0,0
10.34,8.547853,-4.8595457,1.6513547999999998,998.4253,5.735730020974178,998.3971470762745,0,0
10.36,8.52872,-4.878611599999998,1.6229472,998.40497,5.735840162706308,998.3975039904004,0,0
10.38,8.428325,-4.940576,1.6655548999999998,998.4276,5.735887258230123,998.3979277053568,0,0
10.4,8.418743,-4.9215097000000005,1.6750218,998.39996,5.735845121013408,998.3983094161528,0,0
10.42,8.499979,-4.869077,1.5850661,998.4024,5.735783839460933,998.3986614219141,0,0
10.44,8.433994,-4.921532,1.6845740000000002,998.4377,5.735676678862715,998.3991129930856,0,0
10.46,8.481811,-4.931065599999998,1.641966,998.39996,5.735609027596363,998.399515050598,0,0
10.48,8.481832,-4.888167,1.6372335,998.39984,5.735530889166213,998.3998714784337,0,0
10.5,8.457946000000002,-4.9167666,1.6751101000000002,998.4074,5.735443896868633,998.4002135207472,0,0
10.52,8.462743,-4.945367,1.6467052,998.42236,5.735377526918738,998.4005954766603,0,0
10.54,8.5248995,-4.9072347,1.4999403999999998,998.4072,5.735352438197492,998.4009567491893,0,0
10.56,8.481898,-4.9167676,1.6230365,998.39966,5.735337449493836,998.4012713012987,0,0
10.58,8.462794,-4.921535,1.6325067,998.4526,5.735305699248937,998.401734022858,0,0
10.6,8.405456,-4.9549007000000005,1.5851643,998.4048,5.735176367689874,998.4021539211457,0,0
10.62,8.415032,-4.897703,1.6656508,998.4198,5.7349464683216205,998.4025884691563,0,0
10.64,8.496307,-4.8500375999999985,1.6561836,998.3997,5.7347207404024765,998.4029620372896,0,0
10.66,8.491545,-4.873871,1.6940606,998.3872,5.734528581528256,998.4032353787578,0,0
10.68,8.53936,-4.8834047,1.6798589,998.39716,5.734456469169508,998.4034550319158,0,0
10.7,8.434221,-4.8929386,1.6751261000000002,998.3971,5.7343121329737725,998.4036262393312,0,0
10.72,8.4342375,-4.859573,1.6277834999999998,998.3997,5.734053861098737,998.4037633837421,0,0
10.74,8.429477,-4.892939599999999,1.6514572,998.4073,5.733729804035042,998.4038972963617,0,0
10.76,8.477292,-4.9120054,1.64199,998.3971,5.733449895061115,998.4039911512856,0,0
10.78,8.515546,-4.9024725,1.6988043000000002,998.3817,5.733287926219053,998.4039938333516,0,0
10.8,8.410409,-4.9406056,1.6988058999999998,998.38684,5.733083889935383,998.4039344494252,0,0
10.82,8.424767,-4.935839700000002,1.6230573999999998,998.3971,5.732837436128515,998.4038573737699,0,0
10.84,8.520380000000001,-4.9120073,1.6561996,998.4021,5.732710671183307,998.4037829431752,0,0
10.86,8.501282000000002,-4.945374,1.684608,998.4147,5.732700405440407,998.4037564777063,0,0
10.88,8.5395355,-4.9263077000000015,1.6514685000000002,998.3944,5.732829857691745,998.4036994094985,0,0
10.9,8.553894,-4.7070465,1.566251,998.3971,5.732858505554459,998.4036252261557,0,0
10.92,8.52045,-4.859577,1.5946587,998.3969,5.732900504598065,998.4035354669397,0,0
10.94,8.3012,-5.012122,1.6752005,998.4145,5.7327524948134645,998.4034956280155,0,0
10.96,8.401617,-5.050256,1.7793612,998.3895,5.73269119925623,998.4034100420813,0,0
10.98,8.449457,-5.007357,1.8172402,998.4044,5.732759971990057,998.4033379821983,0,0
11.0,8.535535000000001,-4.945393599999999,1.6231334,998.40967,5.732961887839234,998.40329710535,0,0
11.02,8.449539,-4.9024954,1.5284489,998.4194,5.733052701375098,998.4033189569873,0,0
11.04,8.4447975,-4.983528,1.5047807,998.40936,5.733113138061636,998.4033600128488,0,0
11.06,8.540436,-4.9406295,1.6988949,998.39185,5.733336361398966,998.403354853762,0,0
11.08,8.511809,-4.9453974,1.6515558,998.4119,5.7336402841790655,998.4033810577192,0,0
11.1,8.4831705,-4.912032599999999,1.6752313,998.38666,5.7339375620511435,998.403344015728,0,0
11.12,8.497551,-4.9596996,1.6420944,998.40186,5.7342910058239545,998.403305942968,0,0
11.14,8.492813,-4.916801,1.7793958,998.3943,5.734689219863332,998.4032398804824,0,0
11.16,8.440266000000001,-4.907269,1.7273202,998.4395,5.735003699756643,998.4033120441003,0,0
11.18,8.512006,-4.89297,1.7083863999999995,998.42706,5.735348755169487,998.4034613005147,0,0
11.2,8.516827000000001,-4.878672,1.5710926,998.4018,5.735666555545867,998.4035872028004,0,0
11.22,8.445171,-4.916805,1.6326437,998.40393,5.735891615754995,998.40369968413,0,0
11.24,8.449991,-4.8882065,1.6610537,998.41437,5.736022861972223,998.4038374857699,0,0
11.26,8.383115,-4.983539,1.7841522,998.42664,5.736095857958571,998.4040413363499,0,0
11.28,8.359256,-4.9549403,1.7604836,998.42444,5.736036505614079,998.404294893912,0,0
11.3,8.593508,-4.8357773,1.6752682,998.437,5.736123059813907,998.4046366757556,0,0
11.32,8.58877,-4.821479,1.7036785,998.42413,5.7363253900356606,998.4050088501596,0,0
11.34,8.58403,-4.8262467,1.7320884,998.40155,5.736635758131411,998.4053252516028,0,0
11.36,8.498035,-4.87868,1.5900602,998.41675,5.736891105737152,998.4056459530119,0,0
11.38,8.445497,-4.931113,1.8173152,998.42664,5.737138595705551,998.4060049033465,0,0
11.4,8.502895,-4.8929815,1.8078502,998.40155,5.737437080172162,998.4063060342096,0,0
11.42,8.541177000000001,-4.8167176,1.7036971,998.4116,5.737732222780875,998.4065911717177,0,0
11.44,8.473446000000001,-4.888196,1.6089348,998.43427,5.737942515058365,998.4069427630012,0,0
11.46,8.406536000000001,-4.9596944,1.6610136999999998,998.40155,5.7380503244704375,998.4072340151123,0,0
11.48,8.478241,-4.9739943,1.575795,998.39404,5.7381799221878325,998.4074438670236,0,0
11.5,8.502147,-4.954928,1.5947334999999998,998.39905,5.738357167438183,998.4075990742513,0,0
11.52,8.387439,-4.988294000000002,1.6136716999999998,998.4064,5.738414201133497,998.40773189869,0,0
11.54,8.463924,-4.940629,1.5095156,998.40906,5.7384162616714685,998.407854043529,0,0
11.56,8.358775,-4.888197,1.5710634,998.3913,5.73814903353605,998.407902376152,0,0
11.58,8.44004,-4.902496299999999,1.6515491000000002,998.41394,5.737830905908601,998.4079668183036,0,0
11.6,8.440047,-4.9644623,1.7888474,998.39636,5.73758242319455,998.4079819748426,0,0
11.62,8.420935,-4.916796700000001,1.7462384999999998,998.4191,5.737297593444968,998.4080353920513,0,0
11.64,8.530878,-4.883431400000001,1.6846918999999998,998.40393,5.737120266946127,998.4080678120853,0,0
11.66,8.449632000000001,-4.878665,1.6184112,998.40894,5.7368664324808325,998.4080995983037,0,0
11.68,8.430519,-4.950163,1.6515527,998.3787,5.736597173433138,998.4080218460524,0,0
11.7,8.454424000000001,-4.8881984,1.6657563000000002,998.3886,5.736298595051467,998.4078832255176,0,0
11.72,8.569147000000001,-4.8119335,1.6042098,998.4064,5.736081067166842,998.4077554008012,0,0
11.74,8.430541,-4.907265,1.6704922999999998,998.4239,5.7358089925890265,998.4077005754386,0,0
11.76,8.420989,-4.916798,1.7367746,998.4063,5.73550633991593,998.4076470896769,0,0
11.78,8.511811,-4.8977323,1.6515558999999995,998.3911,5.735288885601928,998.4075402601352,0,0
11.8,8.540498,-4.9072657,1.7415102999999998,998.3913,5.735239946706545,998.4073874006152,0,0
11.82,8.368432,-4.9787636,1.6941668999999997,998.3886,5.7350928741531755,998.4071846993013,0,0
11.84,8.483155,-4.940631400000001,1.5994794,998.3986,5.734989918021995,998.4069746875027,0,0
11.86,8.56442,-4.8310013,1.5521362,998.4087,5.734943535631585,998.4067953322027,0,0
11.88,8.554867,-4.8453007,1.6752313,998.3809,5.7349861177117605,998.4065436306636,0,0
11.9,8.569214,-4.811935,1.5758095,998.4239,5.735065457984189,998.4063837101132,0,0
11.92,8.444948,-5.0264305999999985,1.7083737,998.4036,5.735221982546866,998.4062323829587,0,0
11.94,8.479183,-4.8929860000000005,1.7037103,998.3985,5.735366790810046,998.406070833706,0,0
11.96,8.541349,-4.8310213,1.5616809,998.39624,5.735499864670937,998.4058926977851,0,0
11.98,8.4649105,-4.8786883,1.6516380000000002,998.39594,5.7355646927782855,998.4056994671733,0,0
12.0,8.441054,-4.9597206,1.6705796999999998,998.42865,5.735616843172264,998.4056113505228,0,0
12.02,8.412405999999999,-4.935889,1.6753167000000002,998.4161,5.735583934195678,998.4055712497889,0,0
12.04,8.474582,-4.897757,1.6658514,998.3734,5.735543435037485,998.4054200002807,0,0
12.06,8.474619,-4.8691587,1.713199,998.3809,5.735483947144539,998.4051980842146,0,0
12.08,8.388629,-4.9358916,1.7321408,998.42365,5.735331247509098,998.4050684260753,0,0
12.1,8.455574,-4.935892,1.7037368999999998,998.3909,5.735204732192272,998.4049028538094,0,0
12.12,8.484292,-4.897760400000001,1.6374586000000002,998.38324,5.735090308664657,998.4046785678817,0,0
12.14,8.426978,-4.9358945,1.7037445,998.37836,5.734947940311687,998.4043856419916,0,0
12.16,8.412675,-5.002627,1.7226855,998.38074,5.734832408578758,998.4040416883638,0,0
12.18,8.422266,-4.997861,1.6706098000000005,998.3883,5.7347344264213325,998.4036811008602,0,0
12.2,8.417523,-4.974029,1.7510983,998.4034,5.734647898182242,998.403361473779,0,0
12.22,8.40323,-4.9025316,1.618539,998.4034,5.734425515190018,998.4030791899844,0,0
12.24,8.436714,-4.969264,1.7132294,998.4034,5.734245330970758,998.4028309189397,0,0
12.26,8.55626,-4.773836599999999,1.9073446,998.38074,5.734189695045134,998.4025320193359,0,0
12.28,8.589747000000001,-4.8119698,1.7747838,998.4135,5.734291274164865,998.4023073963768,0,0
12.3,8.403373,-4.9597344,1.6706306,998.4186,5.7343139927884055,998.4021675729033,0,0
12.32,8.346058,-5.0693660000000005,1.6848376,998.4083,5.734286588658548,998.4020661016193,0,0
12.34,8.331758500000001,-5.0598335,1.6848413,998.38824,5.734179828754948,998.401926667627,0,0
12.36,8.365252499999999,-5.016935299999999,1.6801102,998.3981,5.734014997820896,998.401789687748,0,0
12.38,8.365283,-5.021703,1.6753786,998.39575,5.733802860186909,998.4016469094513,0,0
12.4,8.3844385,-4.988338,1.7795388,998.3933,5.7335860524532,998.401490701674,0,0
12.42,8.499199,-4.859642,1.8032149,998.3754,5.733444865657807,998.401258749956,0,0
12.44,8.460357,-4.916825299999998,1.8268317,998.41583,5.733369548193169,998.401106253918,0,0
12.46,8.431689,-4.9406586,1.841036,998.4032,5.7333321036146225,998.4009790459047,0,0
12.48,8.345666,-5.0693564,1.7936932,998.39557,5.733294052289344,998.4008471723394,0,0
12.5,8.264422,-5.1789875,1.7936943,998.41565,5.733231938850873,998.4007839390359,0,0
12.52,8.422169,-4.9025273,1.5759127,998.4005,5.733055441965588,998.4007270439087,0,0
12.54,9.177389,-4.1303453,0.6337674,998.40814,5.7332195691772245,998.4007034580163,0,0
12.56,9.110485,-4.8167300000000015,1.8599794,998.388,5.734490502312503,998.4006368850728,0,0
12.58,8.192776,-5.531714,1.9451997,998.43866,5.735909787597881,998.4007149444341,0,0
12.6,8.001595,-5.522181,2.0824988,998.39343,5.737180056913504,998.4007576918854,0,0
12.62,7.9872679999999985,-4.869163,1.6800754,998.41565,5.737402512460768,998.4008490758424,0,0
12.64,8.044639,-5.055059,2.2340020000000003,998.41064,5.737230523955673,998.400965070034,0,0
12.66,8.369678,-4.9358954000000015,1.509639,998.4208,5.736862633528284,998.4011389682497,0,0
12.68,8.288433,-5.059826,1.4622961,998.393,5.7362959680496095,998.4012633244272,0,0
12.7,8.264546000000001,-5.107492,1.9688787,998.39276,5.735748182337368,998.4013425935776,0,0
12.72,8.489208999999999,-4.9835625,1.575924,998.3776,5.7353361786544745,998.4013271624623,0,0
12.74,8.560918,-4.9263635,1.5427845,998.4081,5.735103145463308,998.4013379097437,0,0
12.76,8.465336,-4.9549629999999985,1.7463651000000002,998.38794,5.734958780636598,998.4012991735665,0,0
12.78,8.470128,-4.95973,1.8410543,998.3827,5.734942052838871,998.4011979892557,0,0
12.8,8.48926,-4.878699299999999,1.6611481,998.39294,5.734923084157307,998.401078854037,0,0
12.82,8.517951,-4.978797,1.7511028999999998,998.39777,5.7350878029033385,998.4009616742833,0,0
12.84,8.823871,-4.959731,1.6611503,998.40283,5.735907123801664,998.4008648602256,0,0
12.86,8.718727000000001,-4.8739333,1.5711977,998.398,5.7369979273081055,998.4007690018273,0,0
12.88,8.240761000000001,-5.1742268,1.7226999,998.398,5.73784755573041,998.4006743329401,0,0
12.9,8.307691,-5.0550632,1.6658883000000002,998.42566,5.738449040249996,998.4006806319127,0,0
12.92,8.393739,-4.9168330000000005,1.8315934,998.42316,5.7388962172669675,998.40076712341,0,0
12.94,8.555567,-5.0216804,1.9404222,998.4156,5.739641281577332,998.4008969456528,0,0
12.96,8.33568,-4.788119,1.5664028,998.3954,5.73988065880712,998.400991867582,0,0
12.98,8.24007,-5.059812,1.7699808999999995,998.3952,5.739860336897857,998.4010548898757,0,0
13.0,8.302192,-5.1789760000000005,2.1629353,998.39264,5.740007766212447,998.4010802827704,0,0
13.02,8.082305,-5.1217766,1.7321028000000005,998.3979,5.739684988380151,998.4010912709143,0,0
13.04,8.12053,-5.1885085,2.229214,998.418,5.739295093361495,998.4011618514634,0,0
13.06,8.479,-5.0169120000000005,2.162931,998.43304,5.7392538908973805,998.4013389777707,0,0
13.08,8.407288000000001,-4.926347,2.5038066000000003,998.39545,5.739467226652278,998.4014742862564,0,0
13.1,8.211303,-4.959713,2.357039,998.4203,5.7395252114668285,998.4016616174033,0,0
13.12,8.249525,-4.9978447,2.3807094,998.4027,5.73956331713095,998.4018308813825,0,0
13.14,8.325987,-4.9692445,2.5558810000000003,998.4178,5.739776038798704,998.4020379318613,0,0
13.16,8.153898,-4.9597115999999986,2.3996444,998.40265,5.7397547084174025,998.4022230851095,0,0
13.18,8.282936999999999,-4.859613,2.6410978,998.4105,5.739773868931953,998.4024164834134,0,0
13.2,8.354619999999999,-4.807181,2.6032212,998.40295,5.739879505595147,998.4025892908144,0,0
13.22,8.2303295,-4.9263444000000005,2.8020647000000003,998.413,5.740079206282103,998.402779461987,0,0
13.24,8.101261000000001,-5.140839,2.8588762,998.4055,5.740400064738942,998.402957291172,0,0
13.26,8.187283,-4.8786783,2.8304687000000004,998.37994,5.740682329247052,998.4030315587917,0,0
13.28,8.177707,-4.7452145,2.233932,998.39264,5.7404576562802525,998.4030597720488,0,0
13.3,8.201591,-5.012140799999999,2.4469788,998.4206,5.7402085679919725,998.4031478461033,0,0
13.32,8.220696,-4.974008,2.7026353,998.3625,5.7400693075905975,998.4030793360918,0,0
13.34,8.158545,-4.978774,2.4848514,998.4181,5.739807747162567,998.4030728750356,0,0
13.36,8.297143,-5.0216727,2.626882,998.4078,5.739797491756887,998.4030841836965,0,0
13.38,8.402283,-4.759512,2.5984743,998.4206,5.739910120346558,998.4031572329677,0,0
13.4,8.450067,-4.773811299999998,2.4422376,998.3851,5.740146926514492,998.4031567732652,0,0
13.42,8.359236,-4.8214765,2.5984714,998.42035,5.7404633083896135,998.4032182626885,0,0
13.44,8.413191000000001,-4.826276999999998,2.693286,998.4078,5.740999413715338,998.403289088997,0,0
13.46,8.375005999999999,-4.7309470000000005,2.6175404,998.4105,5.741524980934941,998.4033776304027,0,0
13.48,8.226873,-4.807213,2.608075,998.4228,5.741852803540157,998.4035257861196,0,0
13.5,8.207780999999999,-4.9168444,2.6222807999999995,998.40265,5.742091490529472,998.4036535436808,0,0
13.52,8.327328,-4.8644133,2.5938790000000003,998.4153,5.742387928938719,998.4038083575048,0,0
13.54,8.255661,-4.74525,2.608085,998.4077,5.7424978383624925,998.4039591609123,0,0
13.56,8.336957,-4.8453493,2.6743705,998.4177,5.742720546773135,998.4041418778244,0,0
13.58,8.356114,-4.7309527000000005,2.4849975,998.4304,5.742859290048625,998.4043978557272,0,0
13.6,8.356155000000001,-4.716654,2.3855789,998.40265,5.742858423631913,998.404617745522,0,0
13.62,8.356196,-4.769087,2.4234579,998.4102,5.742805571177603,998.4048321362607,0,0
13.64,8.289328,-4.726189,2.3761182,998.4153,5.742523109134407,998.4050592562268,0,0
13.66,8.308475999999999,-4.797688,2.376121,998.38495,5.7421440641046075,998.4051875461064,0,0
13.68,8.318077,-4.726191,2.622314,998.38495,5.741755483505393,998.4052280478779,0,0
13.7,8.346794000000001,-4.7309585,2.6933334,998.3724,5.741454069437005,998.4051456542708,0,0
13.72,8.327717999999999,-4.7071266,2.8022287,998.4077,5.741236540617968,998.4050820469245,0,0
13.74,8.495056,-4.5164657,2.712279,998.4228,5.741152267967429,998.4050896281044,0,0
13.76,8.499881,-4.607031,2.7122831,998.40015,5.74128026036737,998.4050785441733,0,0
13.78,8.528589,-4.516467,2.6744107999999995,998.3851,5.741539240447713,998.4049968276532,0,0
13.8,8.4712715,-4.5784335,2.5181792,998.40265,5.7417858226651,998.4049161743562,0,0
13.82,8.356602,-4.735731,2.6602154,998.4253,5.742048835664518,998.4049182908752,0,0
13.84,8.370985000000001,-4.702366400000002,2.4945150000000003,998.39514,5.742228384209278,998.4048849591844,0,0
13.86,8.399692,-4.7547994000000005,2.5560648,998.4178,5.742468046861018,998.4049020014496,0,0
13.88,8.361502,-4.778633,2.5892103,998.38495,5.742734724003383,998.4048452327896,0,0
13.9,8.361537,-4.7881665,2.4803221,998.39264,5.742976296749193,998.4047511331638,0,0
13.92,8.256419000000001,-4.8453665,2.6223576,998.4203,5.743145558181329,998.4047239626548,0,0
13.94,8.275166,-4.907323,2.6791365000000003,998.40515,5.743377153794558,998.4047014885277,0,0
13.96,8.366011,-4.7929260000000005,2.6507328,998.4153,5.743689065517849,998.4047197850302,0,0
13.98,8.332571000000002,-4.826292,2.5749838,998.40265,5.744004900119327,998.4047285005936,0,0
14.0,8.284797,-4.878725,2.5797205,998.3723,5.744295876207698,998.4046194590636,0,0
14.02,8.327838999999999,-4.907325,2.6270666,998.40765,5.744693038901402,998.4045340199144,0,0
14.04,8.390005,-4.688064,2.527647,998.4077,5.745018328793077,998.4044699234108,0,0
14.06,8.380467,-4.802462,2.5371177000000005,998.4153,5.745380515438943,998.4044522760164,0,0
14.08,8.323135,-4.745264,2.646011,998.4153,5.7456760177506565,998.4044757345844,0,0
14.1,8.270576,-4.750031,2.5892003,998.3977,5.745793645551902,998.4044720699308,0,0
14.12,8.237145,-4.8119974,2.707563,998.39264,5.745823761790137,998.4044262363913,0,0
14.14,8.251503,-4.750032,2.7075646,998.3901,5.745739127355287,998.4043341634247,0,0
14.16,8.265867,-4.7690988,2.7312386,998.3925,5.745610806301651,998.4042102047628,0,0
14.18,8.294568,-4.6737685,2.6838968,998.3975,5.745372897438473,998.4040765181524,0,0
14.2,8.399749,-4.607037,2.589211,998.4127,5.745105860859674,998.4039894371978,0,0
14.22,8.351975999999999,-4.6880693,2.7927926,998.39514,5.744923566590848,998.4038806344923,0,0
14.24,8.318539999999999,-4.759568,2.6933725,998.4153,5.744772244854352,998.4038256061377,0,0
14.26,8.332902,-4.759568700000001,2.6176238,998.38245,5.744631797208292,998.4037000309016,0,0
14.28,8.414183999999999,-4.759569,2.6602361,998.37994,5.7446665196609255,998.4035035365117,0,0
14.3,8.328169,-4.7452703000000005,2.5986905,998.3925,5.744658059404137,998.4032903013373,0,0
14.32,8.342533999999999,-4.692839,2.6744435,998.40015,5.74462654458197,998.4030905816522,0,0
14.34,8.371241,-4.697606,2.5655546,998.40765,5.744569960429756,998.4029305232448,0,0
14.36,8.318686999999999,-4.7691050000000015,2.6365728,998.4156,5.74450911619108,998.402834705752,0,0
14.38,8.290026,-4.759572,2.5986990000000003,998.4181,5.744364613544117,998.4028049964747,0,0
14.4,8.33307,-4.7166739999999985,2.560826,998.4028,5.744158625239085,998.4027787273703,0,0
14.42,8.30442,-4.8024726,2.7312675,998.4356,5.74402886703511,998.4028736725708,0,0
14.44,8.322827,-4.71189,2.726468,998.3901,5.743906207854128,998.402911580929,0,0
14.46,8.39452,-4.611793,2.7832804,998.4228,5.743850601803747,998.4030166750628,0,0
14.48,8.423194,-4.5688934,2.735936,998.3977,5.7438364191942615,998.4030903962092,0,0
14.5,8.389728999999999,-4.607025599999999,2.593903,998.4105,5.7437575116015385,998.4031822107877,0,0
14.52,8.408844,-4.602258999999999,2.6459813,998.413,5.74367926423942,998.4032986821904,0,0
14.54,8.351481,-4.740489,2.802216,998.4306,5.743724958413818,998.403499881066,0,0
14.56,8.322797,-4.716656,2.721731,998.413,5.7437603695998405,998.4037118608207,0,0
14.58,8.327571,-4.6785235,2.598636,998.3902,5.743688778271547,998.4038505234332,0,0
14.6,8.298888,-4.702357,2.6838546,998.40045,5.743543552778357,998.4039608038327,0,0
14.62,8.308442999999999,-4.7738547,2.726464,998.4128,5.74344536261132,998.4040900687004,0,0
14.64,8.317997,-4.7214220000000005,2.5891657,998.39264,5.743277290425702,998.4041630668901,0,0
14.66,8.337111,-4.6546903,2.5323524,998.4153,5.74298522944747,998.4042676610492,0,0
14.68,8.317988,-4.7500215,2.6365087000000003,998.41284,5.742701778914586,998.4043909408687,0,0
14.7,8.365781,-4.5974913,2.6649146,998.39294,5.742376914719485,998.4044586475302,0,0
14.72,8.384895,-4.649924,2.754868,998.39264,5.742151719748748,998.4044759260053,0,0
14.74,8.389669,-4.735721,2.7169921,998.38763,5.742085923102801,998.404430547932,0,0
14.76,8.404003,-4.7214217000000005,2.6223037,998.41815,5.7421196292790695,998.404439841894,0,0
14.78,8.32752,-4.750021,2.7832727000000004,998.40283,5.74222670400741,998.4044422586078,0,0
14.8,8.384872999999999,-4.6403904,2.6412404,998.403,5.742310442021228,998.4044392018852,0,0
14.82,8.313171,-4.7357206,2.5512862000000003,998.42554,5.7422925445654736,998.4045124638384,0,0
14.84,8.246249,-4.8262854000000015,2.6507082000000004,998.4307,5.742213746960245,998.4046714732305,0,0
14.86,8.461336,-4.7214212,2.6223013,998.39276,5.742335851319687,998.4047690926255,0,0
14.88,8.451771,-4.621323599999998,2.6365042,998.39526,5.742528928593988,998.4048211163896,0,0
14.9,8.36095,-4.645156,2.6601758,998.3954,5.742660792460035,998.4048331685684,0,0
14.92,8.360946,-4.6642220000000005,2.5891595,998.41034,5.742717632791858,998.4048636424667,0,0
14.94,8.308425999999999,-4.659456700000002,2.7122593,998.4056,5.742679949777164,998.4048932200908,0,0
14.96,8.337102,-4.6975894,2.7832747,998.4106,5.742686955396152,998.4049398992868,0,0
14.98,8.351439,-4.649924,2.6554458,998.4281,5.742639200598545,998.4050645213872,0,0
15.0,8.3801155,-4.735721599999999,2.764337,998.4307,5.742738742968693,998.4052669251978,0,0
15.02,8.365772999999999,-4.645157299999998,2.5986326,998.41815,5.742761755500535,998.4054921482742,0,0
15.04,8.423129,-4.7118883,2.61757,998.40027,5.742893033823233,998.4056723556508,0,0
15.06,8.317971,-4.678522599999999,2.6649137,998.4208,5.742929110713817,998.4058860464083,0,0
15.08,8.404005,-4.6403904,2.6317728,998.43317,5.742975927863972,998.4061730857946,0,0
15.1,8.437461,-4.6689897,2.5986316,998.42804,5.74310047675875,998.4065054346877,0,0
15.12,8.38488,-4.65469,2.6649130000000003,998.41034,5.743223531365983,998.4068129026043,0,0
15.14,8.403997,-4.5450587,2.6365066,998.39276,5.743257120078577,998.4070339908064,0,0
15.16,8.370536,-4.6022573,2.6175685,998.41034,5.743197105088961,998.4072412459744,0,0
15.18,8.380092999999999,-4.6880555,2.7596004,998.4056,5.743234379981786,998.4074184681558,0,0
15.2,8.418329,-4.564125,2.735928,998.41565,5.7432913907965295,998.4076046951898,0,0
15.22,8.365748,-4.616557,2.712256,998.41815,5.743310242100331,998.4078072084944,0,0
15.24,8.408766,-4.587958,2.726459,998.393,5.743351272631594,998.4079328432996,0,0
15.26,8.413542,-4.5974903,2.6791146,998.43365,5.743402566220253,998.4081364359777,0,0
15.28,8.403979,-4.616557,2.660177,998.3802,5.743453736940488,998.4082157592984,0,0
15.3,8.370519,-4.5736575,2.5938947,998.41815,5.743367999059405,998.4083216126512,0,0
15.32,8.341837,-4.702355000000002,2.6743796000000004,998.3779,5.743280941340884,998.4083056268685,0,0
15.34,8.341834,-4.7166543,2.6080976,998.4081,5.7431704935117365,998.4082907615738,0,0
15.36,8.327492999999999,-4.754787,2.5654879,998.41565,5.74302948421638,998.4083041198578,0,0
15.38,8.274911999999999,-4.807219,2.6270347000000003,998.403,5.742856530317282,998.408296828406,0,0
15.4,8.380066000000001,-4.602257,2.6033626,998.4135,5.74262442163868,998.408309117097,0,0
15.42,8.427861,-4.6117897,2.5844247000000005,998.4236,5.742423873884813,998.4083750225627,0,0
15.44,8.399212,-4.6070237,2.6507092,998.4208,5.742233227954798,998.408477986551,0,0
15.46,8.3322935,-4.668989,2.6270368,998.393,5.741981869293374,998.4085132447797,0,0
15.48,8.37531,-4.6070237,2.6554434,998.41565,5.7417085868914235,998.4085700912692,0,0
15.5,8.456566,-4.6546892999999985,2.6980526,998.41565,5.741629232764237,998.4086458084987,0,0
15.52,8.375308,-4.61179,2.6601777,998.41064,5.7415164372709775,998.4087198913319,0,0
15.54,8.380086,-4.64039,2.5465515,998.4005,5.741348623033215,998.4087557593148,0,0
15.56,8.4709015,-4.6737556,2.8542879,998.41565,5.741496877179855,998.408812271531,0,0
15.58,8.375304,-4.6451564,2.612833,998.4183,5.741591866378355,998.4088963615477,0,0
15.6,8.3705225,-4.6070237,2.6412394,998.42065,5.741609735424923,998.4090129765848,0,0
15.62,8.451778,-4.621323599999998,2.499207,998.43835,5.741639833151707,998.409221630916,0,0
15.64,8.413539,-4.6308565,2.4708006,998.4056,5.741607619379419,998.4093929600116,0,0
15.66,8.35618,-4.678522,2.6743798,998.4332,5.741575857565337,998.4096300517443,0,0
15.68,8.360959,-4.7357206,2.6649107999999995,998.43085,5.741603870807718,998.4099159378133,0,0
15.7,8.332279,-4.7881527,2.6270356,998.4209,5.741665849476013,998.4102080893674,0,0
15.72,8.351396000000001,-4.678522,2.5986290000000003,998.4335,5.741666943930711,998.4105500853592,0,0
15.74,8.380074,-4.707121400000001,2.7264578,998.44086,5.741763410284841,998.41096138871,0,0
15.76,8.380073,-4.6594553,2.6175663,998.4184,5.741836549803053,998.4113515953516,0,0
15.78,8.423091000000001,-4.6165566,2.5654879,998.4032,5.741894562734146,998.4116670361967,0,0
15.8,8.427868,-4.683288,2.6223006,998.41565,5.742042832890742,998.4119600983972,0,0
15.82,8.370509,-4.702355000000002,2.6270347000000003,998.40576,5.742191152292122,998.4121967278032,0,0
15.84,8.394408,-4.6928215,2.5986283,998.4056,5.742355956139535,998.4123820653264,0,0
15.86,8.346608,-4.726187,2.6128314,998.39075,5.742491715183468,998.4124679541268,0,0
15.88,8.384845,-4.6642220000000005,2.6601756,998.40576,5.742633444694625,998.4125196968356,0,0
15.9,8.456541,-4.730954,2.6507065,998.4109,5.742965326460133,998.4125595857847,0,0
15.92,8.341824,-4.7023544,2.6270342,998.4005,5.743222451486827,998.4125514171512,0,0
15.94,8.317828,-4.7929163,2.6743696,998.4033,5.743486883612277,998.4125108942453,0,0
15.96,8.370401,-4.697585,2.6649003,998.3857,5.7437486897926835,998.4123785689858,0,0
15.98,8.346498,-4.7118845,2.5086644,998.4463,5.743894954572964,998.4123837635384,0,0
16.0,8.289135,-4.816749,2.565477,998.4261,5.7439735233033975,998.4124377318964,0,0
16.02,8.250891000000001,-4.7261844,2.5560074,998.401,5.743829535862366,998.4124442425026,0,0
16.04,8.375162,-4.702351599999999,2.589148,998.4134,5.7437006792600585,998.4124534360013,0,0
16.06,8.403834,-4.6737523,2.7075076,998.4034,5.743673208093513,998.412428967007,0,0
16.08,8.4325075,-4.60702,2.612819,998.4261,5.743668699235008,998.4124565619226,0,0
16.099999999999998,8.399044,-4.6642184,2.5418024,998.4337,5.743642812629311,998.412557421167,0,0
16.12,8.37992,-4.726184,2.5560052000000004,998.3858,5.7436329657413925,998.4125502136792,0,0
16.14,8.308219,-4.697584,2.6743650000000003,998.3882,5.743548711411271,998.4124561843736,0,0
16.16,8.442048,-4.6594515,2.6506925,998.3983,5.743582600915163,998.4123221378153,0,0
16.18,8.4372635,-4.6832843,2.5181286,998.39575,5.743664223951845,998.4121440345804,0,0
16.2,8.375121,-4.697584,2.6648946,998.3984,5.7437721014658205,998.4119371840376,0,0
16.22,8.442033,-4.6165524000000016,2.6033470000000003,998.40857,5.743907614964553,998.4117422890351,0,0
16.24,8.39423,-4.678518,2.503924,998.39606,5.7439901171487255,998.4115136235707,0,0
16.259999999999998,8.365547,-4.7214165,2.6506903,998.3734,5.744096419731867,998.4111743657215,0,0
16.28,8.384661,-4.692817,2.6033456000000004,998.3985,5.744202728007629,998.4108289697693,0,0
16.3,8.3703165,-4.740482,2.518126,998.3884,5.744284931877409,998.4104430336148,0,0
16.32,8.327293,-4.7071166,2.5796726000000003,998.36316,5.7442701693763425,998.4099318015076,0,0
16.34,8.370308,-4.68805,2.5133908,998.4135,5.744190909807393,998.409492922332,0,0
16.36,8.41332,-4.668984,2.6222816000000004,998.3985,5.744170175483958,998.4090655541723,0,0
16.38,8.432435,-4.7023497,2.6838284,998.3909,5.7443011560615655,998.4086225356714,0,0
16.4,8.360731,-4.6689835,2.54653,998.37836,5.74433264155445,998.4081221393956,0,0
16.419999999999998,8.332047,-4.750015,2.598608,998.401,5.744333950236796,998.4076543495444,0,0
16.44,8.255094,-4.7595363,2.617502,998.4111,5.7441945565187895,998.4072534147734,0,0
16.46,8.388897,-4.740469,2.7974064,998.406,5.744246525911048,998.4068946365168,0,0
16.48,8.455789999999999,-4.5784054,2.617497,998.40857,5.744326299209753,998.4065836513576,0,0
16.5,8.379289,-4.6308370000000005,2.5038688,998.4388,5.744285208134192,998.4064248437261,0,0
16.52,8.336248,-4.7690663,2.56068,998.4111,5.744228382734424,998.4063013518652,0,0
16.54,8.450939,-4.702334400000002,2.589084,998.40356,5.744307829346602,998.4061823655908,0,0
16.56,8.393558500000001,-4.6642013,2.5370035,998.40356,5.7443416230166875,998.406067788802,0,0
16.58,8.403093,-4.6928,2.6458924,998.4061,5.744438505774405,998.4059666647122,0,0
16.599999999999998,8.364832,-4.6499004,2.5369992000000003,998.42114,5.744422822833622,998.4059319354732,0,0
16.62,8.360028999999999,-4.6403666,2.6269503,998.3909,5.744338737190383,998.40584713375,0,0
16.64,8.336107,-4.6784987000000005,2.6648238,998.401,5.744210894534228,998.405754753266,0,0
16.66,8.350422,-4.673732,2.6790245,998.3985,5.744073122228862,998.4056470087584,0,0
16.68,8.388637,-4.640365,2.6695538,998.41364,5.743956150019085,998.4055805804801,0,0
16.7,8.436417,-4.6022325,2.702693,998.4114,5.743923612249638,998.4055428343632,0,0
16.72,8.431611,-4.592698,2.532252,998.3908,5.743855052530407,998.4054564076912,0,0
16.74,8.316869,-4.7642940000000005,2.6127346,998.4111,5.7437651595260455,998.4054003580156,0,0
16.759999999999998,8.264265,-4.721394,2.6553416000000003,998.401,5.743546112527832,998.4053349912336,0,0
16.78,8.345504,-4.6498957,2.622199,998.3988,5.743266715583919,998.4052537071768,0,0
16.8,8.374153999999999,-4.697560299999999,2.6790092,998.4237,5.743063179451688,998.405248291238,0,0
16.82,8.335894999999999,-4.707093,2.6695387000000004,998.42145,5.7428647284062935,998.4053018318663,0,0
16.84,8.3119755,-4.754758,2.6884747000000004,998.4111,5.7426876082561416,998.4053700137706,0,0
16.86,8.383642,-4.635593,2.4801580000000003,998.40607,5.7424253062126605,998.4054327792516,0,0
16.88,8.364500999999999,-4.7023244,2.480156,998.40857,5.742120430066725,998.4054995328253,0,0
16.9,8.426616000000001,-4.6165257,2.4706848,998.401,5.741799631634808,998.4055423179648,0,0
16.919999999999998,8.464833,-4.5736265,2.518027,998.396,5.7415169189828825,998.4055457705696,0,0
16.94,8.508399,-4.583173,2.537015,998.3833,5.7413650849157465,998.4054687365172,0,0
16.96,8.341104,-4.630838400000001,2.622234,998.42114,5.741126676297108,998.4054570857768,0,0
16.98,8.40802,-4.3877440000000005,2.551218,998.4213,5.7406609265126525,998.4055038256737,0,0
17.0,8.321982,-4.5498066,2.5275457,998.4085,5.73998420482026,998.4055559112744,0,0
17.02,8.474935,-4.444942500000002,2.603296,998.4288,5.739335696543143,998.4056856128308,0,0
17.04,8.494053,-4.335312,2.745328,998.3985,5.738727180416019,998.4057743489192,0,0
17.06,8.345877999999999,-4.525974,2.7263904,998.42395,5.7380607407201145,998.4059181884712,0,0
17.08,8.326757,-4.645137999999998,2.816344,998.4039,5.737478979565282,998.4060380196208,0,0
17.099999999999998,8.350655,-4.5927057,2.877891,998.4187,5.7370017807001785,998.406189485554,0,0
17.12,8.441469999999999,-4.6689706,2.7879372000000004,998.40356,5.7367976395910585,998.4063138547044,0,0
17.14,8.43191,-4.6356044,2.84475,998.40607,5.736819795110582,998.4064228694087,0,0
17.16,8.427128,-4.654671,2.787937,998.4265,5.737018665746497,998.406591472472,0,0
17.18,8.35065,-4.907298,2.8210776,998.37585,5.737509218367741,998.4066297808374,0,0
17.2,8.259832000000001,-5.121793299999998,2.7169206000000004,998.4236,5.738262516617201,998.4067247228984,0,0
17.22,7.973043,-5.2600235999999985,2.6885142,998.406,5.738894895705919,998.4068060047008,0,0
17.24,7.805747999999999,-5.12656,2.584357,998.40607,5.7389333004484495,998.4068751756844,0,0
17.259999999999998,7.949141,-4.897765,2.560685,998.406,5.738429975035504,998.4069331445332,0,0
17.28,8.19769,-4.8167339999999985,2.901562,998.4034,5.737988725938913,998.4069716464876,0,0
17.3,8.41278,-4.7309356,3.1146102000000004,998.42865,5.738021548355241,998.4070837088872,0,0
17.32,8.63265,-4.673737,3.2187672000000003,998.42615,5.738865987860023,998.4072513658716,0,0
17.34,8.3363,-4.878699299999999,3.1761572,998.4111,5.740085533442769,998.4074133626656,0,0
17.36,8.054291000000001,-4.912064599999999,2.8305454,998.39594,5.740970545477906,998.4075151989273,0,0
17.38,8.0638485,-4.8500996,2.6411693,998.4034,5.741399268345598,998.4075903667322,0,0
17.4,8.030389,-5.0645947,2.759529,998.4161,5.741658741369289,998.4076874196844,0,0
17.419999999999998,8.078186,-5.0836606,2.816342,998.4265,5.74190185756363,998.4078409009616,0,0
17.44,8.292957000000001,-4.969255,2.7689686,998.42365,5.7423479357629175,998.408033429775,0,0
17.46,8.254706,-4.9501886,2.5701225,998.396,5.742776165695207,998.4081602278873,0,0
17.48,8.197333,-4.9549546,2.5701213,998.3985,5.743093331723312,998.4082374898787,0,0
17.5,8.240339,-4.8596234,2.617464,998.4186,5.743312988375808,998.4083430636107,0,0
17.52,8.288122999999999,-4.8262577,2.6221970000000003,998.42865,5.743497121921183,998.4085094535317,0,0
17.54,8.24509,-4.730925599999999,2.697946,998.42114,5.74352133824901,998.408701945633,0,0
17.56,8.331114,-4.735692,2.7500231,998.401,5.743587894375131,998.4088443046494,0,0
17.58,8.460154,-4.559329,2.6742716,998.40607,5.74370376760265,998.4089601055797,0,0
17.599999999999994,8.235489999999999,-4.7547574,2.7642243,998.42615,5.743712085195902,998.4091243109012,0,0
17.62,8.240255,-4.79289,3.0293493,998.3908,5.743831933888013,998.4092034352043,0,0
17.64,8.378855999999999,-4.649893,2.9393947,998.42114,5.7440930990217804,998.409316321072,0,0
17.66,8.354946,-4.606993,2.9678,998.3933,5.744412828482147,998.4093584082684,0,0
17.68,8.139839,-4.7976556,3.0104084,998.38074,5.744626520229772,998.4092925702456,0,0
17.7,8.163725999999999,-4.807188,2.858906,998.3935,5.744702923153461,998.4091775425155,0,0
17.72,8.115911500000001,-4.8024206,3.0104058,998.42615,5.744664565866494,998.4091370048607,0,0
17.74,8.05376,-4.778588,2.9535913,998.4187,5.744359230491737,998.4091356125708,0,0
17.759999999999994,8.340534,-4.6308246,2.906246,998.4059,5.744137669446234,998.4091227341388,0,0
17.78,8.3739805,-4.5974584,2.8541665000000003,998.39856,5.74398583577075,998.4090733289128,0,0
17.8,8.369185,-4.521193,2.8399618,998.43616,5.743806679416393,998.4091271864712,0,0
17.82,8.335714999999999,-4.611757,2.8210232000000004,998.3884,5.7436208513728655,998.4091001571388,0,0
17.84,8.273562,-4.630823,2.901507,998.4211,5.7433883837850725,998.4091194734548,0,0
17.86,8.259209,-4.792886,2.8920367,998.4059,5.743244586100311,998.4091249512468,0,0
17.88,8.139702,-4.769053,2.9299107,998.411,5.742973736392745,998.4091365415998,1,1
17.9,8.091888,-4.7261534,2.84469,998.39594,5.742414563447483,998.4090992752858,1,1
17.919999999999995,8.087096,-4.721386,2.8210166,998.41614,5.741575382957494,998.40909169338,1,1
17.94,8.283373,-4.807192,2.8447168,998.4135,5.740929667532287,998.4091008639116,1,1
17.96,8.441105,-4.645128700000001,2.8305137000000005,998.42365,5.740563621756399,998.409161343883,1,1
17.98,8.503242,-4.3114696,3.0767024,998.4286,5.740396142247376,998.4092847631481,1,1
18.0,8.2977085,-4.711860700000001,2.5795898,998.42096,5.740127756102128,998.4094358472632,1,1
18.02,8.345506,-4.306703,2.8257787,998.4261,5.739609928173416,998.4096293361372,1,1
18.04,8.708771,-3.629852,3.6069555,998.41595,5.7394841539224855,998.409823057296,1,1
18.06,8.383741,-3.7013505,4.189287,998.43616,5.739654631325728,998.4100890423058,1,1
18.08,9.033793,-2.8052375,4.326585,998.44366,5.7407623105256365,998.410444922108,1,1
18.1,10.386477,-1.894825,5.1503706,998.4462,5.7454903087846185,998.4108880957815,1,1
18.12,12.264937,0.9031437,6.1966743,998.4108,5.757606891150805,998.4112793668953,1,1
18.14,14.544904,1.1271719,7.896325599999999,998.4259,5.782064166478951,998.4116777283299,1,1
18.16,14.912948000000002,-0.12166591,6.608567,998.43097,5.816763207125738,998.412099172672,1,1
18.18,13.283032,-1.928191,5.7563744,998.4209,5.8568379066014735,998.4125032438707,1,1
18.2,10.821432,-3.2628267,4.2981777,998.4008,5.896296671682098,998.4128181495042,1,1
18.22,8.890391000000003,-4.225671299999999,2.7452927000000003,998.4083,5.931175970055499,998.4130801347836,1,1
18.24,6.629542,-5.3696449999999984,1.7605363,998.4081,5.958748782585287,998.4132936964912,1,1
18.26,5.735717299999999,-6.1275277,1.2208141,998.38544,5.979289041017556,998.4133821263088,1,1
18.28,5.104782,-8.229579,1.0314378,998.4056,5.996155158909862,998.4134322472412,1,1
18.3,4.3352323,-10.155268,0.25026095,998.4311,6.012427968391799,998.4135401380064,1,1
18.32,3.613481,-13.267829,-0.77710503,998.3831,6.033788592587577,998.4135258857899,1,1
18.34,6.337968,-14.044778,1.64691,998.39825,6.06314983203604,998.4134582993428,1,1
18.36,9.755527,-12.185821,2.5559156,998.38293,6.1001423989788846,998.4132886780801,1,1
18.38,12.800261,-9.359252,-1.3404995000000002,998.39575,6.143944089905605,998.4130756614917,1,1
18.4,14.946391,-8.429775,-2.8223681000000003,998.38544,6.196674061615727,998.4127879516524,1,1
18.42,15.682481,-8.291545,0.16977535,998.43085,6.2578307889078975,998.4125987546124,1,1
18.44,13.125794,-7.190482,3.3418734,998.43085,6.321213569008467,998.4124972845917,1,1
18.46,10.649876,-5.893979,3.564392,998.3955,6.380823775188335,998.4123464354567,1,1
18.48,11.223471,-4.954968,3.966818,998.4032,6.437323936024463,998.4121802179933,1,1
18.5,10.544757,-3.1961086,2.3287158,998.4081,6.487480488743674,998.4120186594575,1,1
18.52,9.985538,-1.9711039,3.3371456,998.3955,6.530706986804238,998.4118164391617,1,1
18.54,10.721645,0.25011107,4.1041207,998.4056,6.569258410049174,998.4116153781273,1,1
18.56,11.132729,0.5075048,3.2613986,998.42334,6.603807614810637,998.411479929236,1,1
18.58,11.892735,-0.37430876,2.7264125,998.4106,6.635933334698407,998.4113570788504,1,1
18.6,13.680402,-2.3190646,3.739577,998.41064,6.6702991186346425,998.4112459467656,1,1
18.62,14.999645999999998,-4.8834724000000005,3.943158,998.42316,6.710447332954527,998.4111906410474,1,1
18.64,16.008202,-5.9940805,3.9005501,998.42316,6.758206325156758,998.4111848626068,1,1
18.66,16.28067,-8.687186,3.6259565,998.43115,6.815164681054583,998.4112516312716,1,1
18.68,16.634394,-11.327859,3.8437407,998.45844,6.883544011055631,998.411480506191,1,1
18.7,18.058788,-13.043819,4.6722627,998.47107,6.966492355124752,998.4118972622476,1,1
18.72,15.640232999999998,-13.706371,5.3350816,998.4458,7.059329906996528,998.412387557755,1,1
18.74,12.055399,-12.114343,4.0331220000000005,998.4509,7.152445498264374,998.4129594276576,1,1
18.76,9.264011,-10.546145,3.3276975,998.4204,7.23895802528305,998.4134915179635,1,1
18.78,7.0031815,-9.664333,2.3713493,998.44116,7.314631552502504,998.4140612794936,1,1
18.8,4.919207599999999,-8.053238,2.546524,998.3981,7.375479624473125,998.4145072601754,1,1
18.82,4.202255,-6.9759955,1.4528781000000002,998.4131,7.41988732997481,998.414896262569,1,1
18.84,1.5877188,-8.091371,0.3071538,998.4206,7.4495645815353,998.4152605185388,1,1
18.86,0.22549613,-9.835931,0.5628135999999999,998.3577,7.469451370527508,998.4153751572467,1,1
18.88,3.3180482,-10.036126,1.1593503,998.3829,7.482235217335483,998.4153595414432,1,1
18.9,6.2241864,-10.670078,1.078867,998.388,7.492367475807673,998.41524724897,1,1
18.92,10.01459,-11.876019,1.3676674,998.388,7.506761303958405,998.4150499372444,1,1
18.94,14.555614000000002,-13.19636,2.5654912,998.39044,7.533637816289445,998.4147869968297,1,1
18.96,17.538237,-12.433712,2.4092584,998.403,7.575228382611287,998.4145122294904,1,1
18.98,19.053461,-10.798783,1.1215024,998.3877,7.630286731506171,998.4141729210434,1,1
19.0,18.207462,-9.630977,2.9111102000000004,998.40533,7.694704338093902,998.4138412735837,1,1
19.02,15.76979,-7.853052000000001,3.8390555,998.4081,7.761398266483336,998.4135275613036,1,1
19.04,14.087325,-5.641371,4.175201,998.418,7.825100487201295,998.413266465912,1,1
19.06,12.911518,-4.297202,3.2472596,998.41815,7.8822949159551206,998.4130533427467,1,1
19.08,11.993823,-2.6336741000000004,2.972667,998.42316,7.930715488579023,998.4129014110842,1,1
19.1,11.864792,-0.26469606,3.0768259,998.42804,7.970431483579769,998.4128216631873,1,1
19.12,12.4622965,0.8316114,2.7264826,998.39764,8.003402309956593,998.412696543958,1,1
19.14,12.78735,0.5837496999999999,3.0957687000000003,998.3904,8.031095780953091,998.4125057210488,1,1
19.16,13.480441,-0.24086504,4.080526399999999,998.40784,8.05593213961706,998.4123203133304,1,1
19.18,14.187883,-3.8491495,5.226255,998.4078,8.081304559158408,998.4121402139424,1,1
19.2,14.90966,-7.743427,5.2783365,998.4153,8.111233064610042,998.4119924533528,1,1
19.22,16.0186,-8.858803,5.1268377,998.4482,8.147987809786791,998.4119922392641,1,1
19.24,15.999509,-11.8522,5.0605583,998.4406,8.193832068195535,998.4120950380336,1,1
19.26,17.347439,-13.854155,5.3825,998.4355,8.252322358950094,998.4122701288898,1,1
19.28,17.729847,-14.149682,6.646589,998.4632,8.323425935726513,998.4126081867059,1,1
19.3,14.417473,-12.686351,6.835967,998.4505,8.398657601572607,998.4130433051204,1,1
19.32,12.687209,-11.866502,5.5387425000000015,998.4656,8.472794540668767,998.4136169798528,1,1
19.34,10.220858,-11.542377,4.402488,998.4405,8.541124960359326,998.4142206577188,1,1
19.36,7.8692193,-9.95988,3.5266256,998.4304,8.598135837475278,998.4148123131135,1,1
19.38,6.6169367,-7.748199499999999,3.6071131,998.38763,8.640022985546148,998.4152372434932,1,1
19.4,5.417225,-7.1333137,3.270972,998.3977,8.66574998610074,998.4155495778999,1,1
19.42,2.3199437,-7.581371300000002,1.6707459999999998,998.36487,8.674126421483704,998.4156431101017,1,1
19.44,0.99953276,-7.6337747999999985,0.73322546,998.37,8.666375324377434,998.4155614399583,1,1
19.46,0.8752361999999999,-8.429789999999999,-0.16631344,998.37256,8.645946069315837,998.4153344710361,1,1
19.48,2.8062568,-8.701482,0.40654773,998.34216,8.615791112737723,998.4148704932004,1,1
19.5,7.2562323000000015,-8.944575,0.5059682,998.38257,8.582091605391573,998.4143442406096,1,1
19.52,10.927103,-10.794,-0.25627267,998.3854,8.553347605036832,998.4137750445536,1,1
19.54,15.592169,-13.639632999999998,0.87051356,998.3829,8.54025288444268,998.4131609527586,1,1
19.56,20.87861,-15.303162,2.4328651000000003,998.3801,8.551978341693918,998.4124993218184,1,1
19.58,21.342228,-12.529024,0.7332119,998.36224,8.583012308509414,998.4117337711612,1,1
19.6,19.33469,-9.955083,0.6337874,998.4052,8.62475465045112,998.4110338090244,1,1
19.62,17.719095000000006,-6.3229666,2.9157686000000003,998.43536,8.670158943270089,998.4105028967675,1,1
19.64,16.366395999999998,-4.7261696,3.895789,998.44794,8.715386539801356,998.4101685562692,1,1
19.66,12.915349,-3.93492,2.5464811000000003,998.4228,8.752531307953554,998.4099186062024,1,1
19.68,11.988048,-1.994931,2.7263865000000003,998.42786,8.779730477244327,998.4097623393408,1,1
19.7,11.390551,-1.3943443000000002,2.4328516,998.41,8.796538284335066,998.40962511752,1,1
19.72,12.365611,-0.46486533,2.693242,998.4253,8.806043844151807,998.4095602978964,1,1
19.74,14.894104,0.07375618,4.596471,998.3873,8.815139020199725,998.4094228862047,1,1
19.76,15.075717,-2.5430832000000003,5.4723334,998.4277,8.825192237937163,998.4093672668434,1,1
19.78,14.592934,-6.079868,5.917366,998.39996,8.837388949475152,998.4092842554152,1,1
19.8,14.353922,-7.457402,5.0841084,998.4178,8.851593143661118,998.4092415631976,1,1
19.82,14.258306,-11.365978,4.4591650000000005,998.4554,8.871294047031457,998.4093700107268,1,1
19.84,14.631108,-13.115304,4.700618,998.4352,8.898757031441688,998.4095764949247,1,1
19.86,15.625285,-13.162969,5.7658567000000005,998.47546,8.935110857013324,998.4099961249804,1,1
19.88,14.621507,-12.066661,6.8926435,998.45294,8.976992986557029,998.4105215080476,1,1
19.9,13.139748,-11.146714,5.6806335,998.4428,9.019392571204458,998.4111019390966,1,1
19.92,11.4285555,-10.879787,3.7111194,998.4226,9.058078239139245,998.4116562009912,1,1
19.94,9.818921,-10.627189,3.015268,998.4175,9.090370889986168,998.4121669844777,1,1
19.96,7.830545,-8.920761,2.8022218,998.3999,9.11152888525101,998.412574151622,1,1
19.98,6.444430400000001,-7.443128999999999,2.234096,998.4,9.118405988885597,998.4128886575647,1,1
20.0,5.2925167,-7.2143345,1.9500334,998.3974,9.110689862770183,998.4131107958486,1,1
20.02,3.160756,-6.3849550000000015,1.2872195,998.3595,9.086121089108186,998.4131140783714,1,1
20.04,2.0470855,-6.456454,0.75696844,998.36975,9.045867579080808,998.4129608681262,1,1
20.06,2.118808,-6.451688,0.11309175,998.37994,8.991850619303058,998.4127066164284,1,1
20.08,3.686609,-6.9760094,-0.21831422,998.34955,8.92815639117399,998.4122545958087,1,1
20.1,6.0096173,-8.01512,-0.57339245,998.3922,8.860590631532832,998.4117829938446,1,1
20.12,10.18241,-9.340223,0.21725535,998.37225,8.797713928766369,998.4112239675712,1,1
20.14,14.990920999999998,-11.914164,0.955825,998.3823,8.750333806293247,998.4106258856726,1,1
20.16,18.599693,-12.929442,1.0789216,998.37964,8.72410247386817,998.4099858713188,1,1
20.18,18.714437,-11.742569,2.2435875,998.3974,8.71567412518292,998.4093750454988,1,1
20.2,17.328318,-8.553742999999999,2.991626,998.4276,8.717494125118174,998.4089009296408,1,1
20.22,15.698432,-5.8511066,2.2199202,998.4099,8.722844935702799,998.4084855975217,1,1
20.24,14.254953,-5.2886534,2.7596445,998.4149,8.728288721900443,998.4081417019099,1,1
20.26,12.433873,-4.778632599999999,2.9300854,998.3922,8.730025111179812,998.4077804456207,1,1
20.28,11.415802,-3.6775584,3.0531824,998.4299,8.725854454756439,998.4075408699596,1,1
20.3,11.650037,-2.9196763,2.9916375,998.42,8.716481939409261,998.4073740337732,1,1
20.32,12.49608,-1.4754101,2.4140418,998.4123,8.703451030264139,998.4072443507976,1,1
20.34,13.657603,-0.5745316999999999,2.7785938,998.4225,8.689597408373887,998.4071846832576,1,1
20.36,12.582173,-1.6899064,3.1952232999999994,998.4072,8.67328309125622,998.407132016159,1,1
20.38,11.927363,-4.873967,3.2425697,998.4149,8.655259469384005,998.4071134442528,1,1
20.4,13.108005,-9.12097,3.3230574,998.4197,8.642077014399783,998.4071423457173,1,1
20.42,13.332679,-10.241112,4.113705,998.44244,8.635291306768858,998.4072949546063,1,1
20.44,13.207629,-11.265902,4.7243724,998.44507,8.635602323031534,998.4075657899845,1,1
20.46,8.509076,-13.916108,4.672292700000002,998.42224,8.640055052954061,998.4078579272805,1,1
20.48,6.9508533,-12.891297,2.357169,998.41724,8.643717778699388,998.4081498352573,1,1
20.5,6.0379043,-12.662503,-0.0857846,998.4449,8.644994751654046,998.4085400657382,1,1
20.52,5.2253323,-11.394599,0.20774798,998.4247,8.641059413442862,998.4089430491548,1,1
20.54,6.491974,-8.706261,2.1015093,998.4373,8.629465631518611,998.4094012103244,1,1
20.56,5.4738684,-6.904502000000001,2.8211381,998.392,8.607384615013599,998.409743397177,1,1
20.58,6.0617785,-5.6461305999999984,2.6128237000000003,998.41455,8.574941258814626,998.4100630572501,1,1
20.6,6.8886786,-5.3553705,2.1488516,998.4222,8.534081947247525,998.4103892018843,0,0
20.62,7.9593479999999985,-5.79866,1.0836098,998.3995,8.487847407387184,998.4106381821564,0,0
20.64,8.676312,-6.122786,1.7985044,998.41724,8.438824173344551,998.4108819476692,0,0
20.66,8.274803,-5.3315372000000005,2.2340693,998.41223,8.386107449721402,998.4111021918646,0,0
20.68,7.5865045,-4.3114944,1.2445779,998.41724,8.327657276968582,998.4113188957448,0,0
20.7,7.796809,-4.173264,0.23141474,998.4474,8.264418167146532,998.411640267269,0,0
20.72,8.848361,-4.554588,0.15092936,998.40717,8.199474932471992,998.4119081381856,0,0
20.74,10.000288,-4.4544907,0.5012747999999999,998.42975,8.135350819419639,998.4122090596296,0,0
20.76,10.851086,-4.7738495,1.5475776,998.3971,8.074252245403802,998.4124205612034,0,0
20.78,10.726806,-4.2876606,1.9594702,998.4298,8.015551549846583,998.4126700099733,0,0
20.8,10.353973,-3.8396041,1.0220575,998.43225,7.957878119603169,998.4129609108703,0,0
20.82,9.589199,-3.8872693,0.13198888,998.4021,7.8997774211957825,998.413178851624,0,0
20.84,8.915239999999997,-4.459256,0.27402043,998.3968,7.8407269385548375,998.4133124602084,0,0
20.86,8.628446,-4.8453474000000005,1.0788686,998.4346,7.7810132879127725,998.4135071518964,0,0
20.88,8.747935,-4.764315,1.5949181,998.43207,7.721206284287354,998.4137460077252,0,0
20.9,8.896102,-4.8691797,1.8269035,998.43225,7.661982417848637,998.4140236751076,0,0
20.92,8.891316,-4.5974855,1.7322148000000002,998.4371,7.603182895392441,998.4143520967766,0,0
20.94,8.776914999999999,-4.4115973,1.4055696000000002,998.40967,7.544481388534344,998.4146254346147,0,0
20.96,8.628746000000001,-4.7118907,1.6991031000000003,998.427,7.486189783505354,998.414911504364,0,0
20.98,8.4519005,-5.0074177,1.855339,998.43463,7.428512569148036,998.4152352621786,0,0
21.0,8.523603999999999,-4.993118,1.5807441,998.3943,7.371599446610638,998.4154459676398,0,0
21.02,8.571408,-4.993118,1.3440245000000002,998.4295,7.315579329320895,998.4156827415018,0,0
21.04,8.289407,-5.150415,1.3961036,998.4245,7.260234388854169,998.4159236970168,0,0
21.06,8.255953,-5.126582,1.3961042,998.40424,7.205600935767697,998.4160945440004,0,0
21.08,8.341996,-5.07415,1.2019941,998.43713,7.151833965067924,998.416321232037,0,0
21.1,8.279864,-4.969285500000002,1.0504937,998.41925,7.098768147996839,998.4165320771507,0,0
21.12,8.437605,-4.8310559999999985,0.7948365,998.40924,7.0465994417410895,998.4166921284152,0,0
21.14,8.547545,-4.711892,0.9747444,998.4147,6.995522625076621,998.4168263780507,0,0
21.16,8.61925,-4.711892,1.220934,998.3966,6.945781310585829,998.4168721860672,0,0
21.18,8.772209,-4.607028,1.4671236,998.4419,6.897643824905492,998.4170027621608,0,0
21.2,8.89649,-4.297202,1.3534986,998.4169,6.851004922562723,998.4171177692534,0,0
21.22,8.8248005,-4.444966,1.3014206,998.4247,6.805845880863001,998.417246685551,0,0
21.24,8.690971000000001,-4.764325,1.7085799,998.41174,6.762346190878861,998.4173407719237,0,0
21.26,8.762675,-4.921622,1.7937999,998.4167,6.7207845154577806,998.4174215998636,0,0
21.28,8.77702,-4.916855,1.5002673,998.4448,6.681007160201031,998.417591581672,0,0
21.3,8.533257,-5.040786,1.277751,998.40936,6.642578177891764,998.4177121439036,0,0
21.32,8.480685000000001,-4.8691900000000015,1.1451881000000002,998.4295,6.605173444465443,998.4178611089737,0,0
21.34,8.3611965,-4.8977895,0.92267174,998.42676,6.568575578250117,998.4180247705168,0,0
21.36,8.466358,-4.9835877,0.9368754,998.41437,6.533102735210978,998.4181562246828,0,0
21.38,8.4759245,-4.988354,1.1167834,998.4067,6.498812554072071,998.418231135175,0,0
21.4,8.490269999999999,-4.9120893,1.1925344,998.45215,6.46565543262445,998.4184194339991,0,0
21.42,8.475936,-4.869191000000002,1.2966919,998.4218,6.433576364386963,998.4185979848779,0,0
21.44,8.424068,-4.883507700000001,1.5145394,998.42694,6.402552220660403,998.4187857836888,0,0
21.46,8.543598,-4.9025745,1.5950274,998.41943,6.37283022551707,998.4189540418968,0,0
21.48,8.605766000000001,-4.807245,1.4387948999999998,998.41675,6.344331049139078,998.4190947802983,0,0
21.5,8.596242,-4.7691126,1.5240175,998.4394,6.316986087345152,998.4192922355412,0,0
21.52,8.653628,-4.8453784,1.5713643,998.4419,6.290953839814493,998.4195480949456,0,0
21.54,8.70624,-4.7548146,1.6234457,998.4066,6.266196975759591,998.4197275591736,0,0
21.56,8.782755,-4.688084,1.5619018999999998,998.4067,6.2427090319635585,998.4198392345523,0,0
21.58,8.811465,-4.697618,1.3535911,998.4419,6.220425551400181,998.4200173296726,0,0
21.6,8.696776,-4.7881827,1.3062493999999998,998.4721,6.199154663621429,998.4203621921339,0,0
21.62,8.433928,-5.0122123,1.5477078000000002,998.4167,6.178686463054301,998.4206537287134,0,0
21.64,8.357486999999999,-5.0312796,1.3962101,998.4293,6.158839640756048,998.4209424570116,0,0
21.66,8.438775999999999,-5.0026813,1.2825873,998.452,6.139694781697434,998.4213093844903,0,0
21.68,8.553525,-4.964549,1.2210432,998.4116,6.121387269214528,998.4215986478267,0,0
21.7,8.701734,-4.873985299999998,1.2021087,998.41205,6.1040538576329375,998.4218198657784,0,0
21.72,8.572711,-4.8024879999999985,1.2873309,998.40424,6.087361469387687,998.4219520464436,0,0
21.74,8.524947000000001,-4.907353,1.4246318,998.42444,6.07135567863953,998.4220777979125,0,0
21.76,8.587119,-4.831089,1.4577757,998.43427,6.056057713806576,998.4222328038372,0,0
21.78,8.491559,-4.8453894,1.6329521,998.42194,6.041340660876688,998.4223687129788,0,0
21.8,8.563288,-4.802491000000002,1.6613615000000002,998.437,6.027284344654354,998.4225414749301,0,0
21.82,8.510742,-4.940722,1.6613644,998.4446,6.013909333161763,998.4227735380802,0,0
21.84,8.42952,-4.978855,1.6376954,998.4496,6.0010721516178025,998.4230751643422,0,0
21.86,8.453453,-4.9121246,1.4483224,998.4445,5.988668237450553,998.4234188107159,0,0
21.88,8.463045,-4.9454910000000005,1.4199189,998.4368,5.9767348464903085,998.4237706289333,0,0
21.9,8.620813,-4.8072615,1.2068739,998.4419,5.965342638679969,998.4241467612458,0,0
21.92,8.5539255,-4.8930607,1.2636895,998.4141,5.954451217262715,998.4244429434166,0,0
21.94,8.499731,-4.997885,1.4718552,998.4621,5.944112719216047,998.4248402153868,0,0
21.96,8.595289999999999,-4.8930206,1.3392886999999998,998.42426,5.934323310125627,998.4251891561238,0,0
21.98,8.614378,-4.9216190000000015,1.3818954,998.43677,5.925129683601433,998.4255391711972,0,0
22.0,8.58089,-4.9835835,1.4387056,998.3993,5.91651613751595,998.4257539834996,0,0
22.02,8.561741,-4.8167534000000005,1.3866245,998.4371,5.9082262670431565,998.4259846373096,0,0
22.04,8.480450999999999,-4.8882504,1.4955127,998.41156,5.9002126429622175,998.4261365143216,0,0
22.06,8.446959,-4.978814,1.490775,998.41693,5.8925047321847925,998.426237569398,0,0
22.08,8.475610000000001,-4.9263816,1.4671006000000002,998.41187,5.8850837420418936,998.4262751384134,0,0
22.1,8.485138000000001,-4.9025474,1.4670976,998.41925,5.877935370219567,998.4262830438972,0,0
22.12,8.451647999999999,-4.988345,1.3818754999999998,998.4368,5.871057666695088,998.4263278902248,0,0
22.14,8.442056,-5.0169435,1.5144358999999998,998.3943,5.864497087824723,998.426252216035,0,0
22.16,8.52328,-4.850113,1.2635094999999998,998.4142,5.8581391423350855,998.4261419623433,0,0
22.18,8.690544000000001,-4.807214,1.2351004,998.4293,5.852233226250722,998.4260559111168,0,0
22.2,8.618818,-4.8358120000000016,1.3250513000000002,998.4192,5.846671472630447,998.4259551949726,0,0
22.22,8.556646,-4.9406753,1.3771267,998.4544,5.8414440628397974,998.425968603486,0,0
22.24,8.5374975,-4.8596435,1.2824359,998.4544,5.836387341733934,998.426082804276,0,0
22.26,8.527906,-4.8834753,1.3534491000000002,998.40906,5.831526449904414,998.4261224299986,0,0
22.28,8.441837,-4.8834743,1.4765407,998.4117,5.826739241746253,998.4261055225387,0,0
22.3,8.489606,-4.8501077000000015,1.3771154,998.45465,5.822055466521867,998.4261933432266,0,0
22.32,8.503912,-4.9216056,1.4575973,998.41693,5.817602712599433,998.4262375935505,0,0
22.34,8.441744,-4.954971,1.5286106000000002,998.4698,5.8133164939824695,998.4264335178,0,0
22.36,8.422605,-4.9120708,1.5238742,998.4519,5.8091129245769215,998.4266983158028,0,0
22.38,8.594636999999999,-4.8072057,1.4055103999999998,998.44684,5.805161304841255,998.4270048013808,0,0
22.4,8.4416485,-4.8882365,1.4007729,998.4192,5.801254034275282,998.4272475147528,0,0
22.42,8.508536,-4.935901,1.3534262,998.42163,5.79755462038517,998.4274417532354,0,0
22.44,8.581287,-4.945461,1.4150698999999998,998.4265,5.7942094645965625,998.4276099920468,0,0
22.46,8.581298,-4.864429,1.1546786,998.4443,5.791036759211371,998.4278187318887,0,0
22.48,8.638668,-4.7976975,1.3014464,998.43677,5.7881013487420665,998.4280353989787,0,0
22.5,8.614778999999999,-4.8596629999999985,1.3582602,998.43176,5.785421326161772,998.4282402545833,0,0
22.52,8.562213999999999,-4.854897,1.4482149,998.41156,5.782903958829576,998.4283612160788,0,0
22.54,8.567005,-4.783399,1.4198095,998.4393,5.780467329418085,998.428507477278,0,0
22.56,8.5192175,-4.873963400000001,1.4671546,998.44934,5.778131220152211,998.4287117107556,0,0
22.58,8.447533,-4.9645286,1.5618438,998.4141,5.775888317340168,998.4288395692978,0,0
22.6,8.562259,-4.9073305,1.4576878999999998,998.42175,5.773847855614327,998.4289270226562,0,0
22.62,8.624406,-4.9216304000000015,1.4529543,998.40894,5.772117719854535,998.4289323431624,0,0
22.64,8.528821,-4.959763,1.3535328000000002,998.42413,5.770507739803945,998.4289197559258,0,0
22.66,8.509715,-4.993129,1.3345964,998.4191,5.7690050961909405,998.4288732827223,0,0
22.68,8.519285,-4.9311643,1.2541125,998.3938,5.7675336638267325,998.4287059551821,0,0
22.7,8.490614,-4.9740634,1.3345982,998.4316,5.766110348563129,998.4285685231288,0,0
22.72,8.395033999999999,-4.9406977,1.4955691999999998,998.42163,5.764578237196658,998.4284221094832,0,0
22.74,8.48108,-4.9359317,1.37721,998.44934,5.7630675110527525,998.4283680427916,0,0
22.76,8.528891999999999,-4.9073324000000005,1.5476497,998.4391,5.761688890611802,998.4283589045093,0,0
22.78,8.53368,-4.873966,1.5571195,998.42145,5.76040949027654,998.4283259578664,0,0
22.8,8.600609,-4.864433999999998,1.5097765,998.39124,5.7593170647183225,998.4281633367647,0,0
22.82,8.681877,-4.792936,1.3961518999999998,998.4342,5.7584336523812425,998.4280413767468,0,0
22.84,8.562393,-4.854902,1.3866842,998.45685,5.757583022089001,998.4280373239183,0,0
22.86,8.485928999999999,-4.8453684,1.4056228000000002,998.44916,5.756623512735791,998.4281097844736,0,0
22.88,8.543297,-4.893035,1.3914205,998.42645,5.755718246128793,998.4281678353957,0,0
22.9,8.471611,-4.897801,1.4529688,998.4039,5.7547595943339775,998.4281317649832,0,0
22.92,8.50986,-4.993132599999999,1.5429235,998.44916,5.7539518956957245,998.4281755948127,0,0
22.94,8.467077,-4.9264064,1.4624602,998.42145,5.753110159947505,998.4281901107088,0,0
22.96,8.471876,-4.9883723,1.4245868999999998,998.4265,5.752302807764408,998.428196852556,0,0
22.98,8.476677,-4.9550066,1.4103854,998.4466,5.751498314378494,998.428269060983,0,0
23.0,8.58185,-4.8978085999999985,1.3914493,998.4566,5.750822237345031,998.4284348557296,0,0
23.02,8.667904,-4.8263106,1.2967628,998.45416,5.750317666513307,998.4286739624868,0,0
23.04,8.648809,-4.831078,1.3109684,998.4618,5.749940723886068,998.4290044909527,0,0
23.06,8.529336,-4.8644443,1.4908776,998.45166,5.749550149284952,998.4293781057381,0,0
23.08,8.601052000000001,-4.807246,1.3914568,998.4362,5.749189574674113,998.4297327905812,0,0
23.1,8.615406,-4.792947,1.4814119,998.4463,5.7488952314977535,998.4301058320627,0,0
23.12,8.69191,-4.764348,1.405664,998.4416,5.748747023496529,998.4304768305203,0,0
23.14,8.644131,-4.72145,1.5240258,998.4543,5.74863604094062,998.4308904081676,0,0
23.16,8.591573,-4.8215474999999985,1.4340739,998.4543,5.7485357394973455,998.4313401199074,0,0
23.18,8.572473,-4.854914,1.3630596,998.44916,5.748423973478963,998.4318016367688,0,0
23.2,8.572493,-4.90258,1.4719527,998.4138,5.748383214674687,998.4321446271756,0,0
23.22,8.539053,-4.864448,1.5098296,998.4214,5.748318595395412,998.4324090128407,0,0
23.24,8.500836,-4.8787484,1.4530188,998.43396,5.748161906905524,998.4326482075684,0,0
23.26,8.443498,-4.926414,1.3630669,998.4388,5.747844827604427,998.4328817064827,0,0
23.28,8.362259,-4.893049,1.4482878,998.4367,5.747233572975032,998.4331017719796,0,0
23.3,8.491337,-4.8978157,1.4624931,998.45404,5.746603302457912,998.4333715994736,0,0
23.32,8.524815,-4.845383999999999,1.3867443000000002,998.44403,5.745942028387429,998.4336483892896,0,0
23.34,8.543947,-4.8358517,1.4766993999999998,998.4312,5.745307290491778,998.4338841465692,0,0
23.36,8.596551,-4.8835180000000005,1.2825912,998.44403,5.744784916221343,998.434128986774,0,0
23.38,8.663487,-4.769121,1.2210457,998.4589,5.744352967311089,998.4344345032263,0,0
23.4,8.653949,-4.7881875,1.367814,998.4413,5.7440438377315255,998.434729173352,0,0
23.42,8.663528999999999,-4.783421499999998,1.4340978000000002,998.4312,5.743876170343912,998.4349768388513,0,0
23.44,8.639361,-4.7691154,1.3441195,998.44147,5.743750292434479,998.4352190514662,0,0
23.46,8.409941,-4.8549137,1.4340739,998.4438,5.7433637392331125,998.4354639619477,0,0
23.48,8.323912,-4.950245,1.5287628,998.4288,5.742724483118905,998.4356563745861,0,0
23.5,8.352597,-4.964544999999998,1.4719505,998.44885,5.74191184695276,998.4358738874448,0,0
23.52,8.505564,-4.869214,1.4577483999999998,998.4314,5.741117404256957,998.4360499758121,0,0
23.54,8.586828,-4.807249,1.3109826999999998,998.44354,5.7403820323020005,998.4362325315802,0,0
23.56,8.715891000000001,-4.8263154,1.2257642,998.4363,5.739930590536432,998.4363940807434,0,0
23.58,8.725461,-4.8453817,1.1026704,998.4338,5.739738352071664,998.4365274868933,0,0
23.6,8.696791000000001,-4.797716599999998,1.1405464,998.4565,5.7396851676784175,998.4367172656148,0,0
23.62,8.701578999999999,-4.80725,1.1642194,998.4335,5.739778878133057,998.4368733719364,0,0
23.64,8.596430999999999,-4.764351,1.2825801,998.44635,5.739799650710611,998.4370454233432,0,0
23.66,8.553422,-4.8263164000000005,1.3535972,998.4237,5.739760503472188,998.4371494044426,0,0
23.68,8.457832000000002,-4.9359474,1.5287708,998.44635,5.739663211092825,998.4372744042861,0,0
23.7,8.429164,-4.912115,1.5003651000000002,998.43353,5.7394303266178825,998.437371374292,0,0
23.72,8.51521,-4.883516,1.604523,998.44867,5.739235925158782,998.4374977320418,0,0
23.74,8.548675999999999,-4.8644495,1.5003667,998.45135,5.739082683835852,998.4376592499144,0,0
23.76,8.67296,-4.745286,1.2447098,998.42847,5.738996991023513,998.4377688858067,0,0
23.78,8.644291,-4.845383999999999,1.1594913,998.42865,5.7389982516703615,998.4378329320924,0,0
23.8,8.701656,-4.845383999999999,1.1642264,998.4136,5.7391808667252056,998.4378022848348,0,0
23.82,8.7638035,-4.8406177,1.2447121,998.4412,5.739650480492827,998.4377874366924,0,0
23.84,8.725574,-4.778653,1.2967913999999998,998.43353,5.740255033316452,998.4377589901019,0,0
23.86,8.567848,-4.826318700000002,1.4293555,998.42584,5.740778012796496,998.4376909463301,0,0
23.88,8.5105,-4.897817,1.3962153999999998,998.44366,5.7411874836100125,998.4376523114466,0,0
23.9,8.481829,-4.9168835,1.4388258,998.4311,5.7414763929800925,998.4375945853424,0,0
23.92,8.491398,-4.9550160000000005,1.5524524,998.43866,5.741749689922234,998.4375474140493,0,0
23.94,8.391063,-4.9407177,1.4909089,998.4311,5.74179592582629,998.437482522804,0,0
23.96,8.496227000000001,-4.9931498,1.3867528,998.4462,5.741850969875678,998.437456567818,0,0
23.98,8.472339999999999,-5.0312824,1.3725507,998.4435,5.741907096273513,998.4374553903476,0,0
24.0,8.352853999999999,-5.0312824,1.3394105,998.4384,5.741743412576017,998.4374577505299,0,0
24.02,8.563175,-4.9883842000000005,1.249458,998.45605,5.741689520318585,998.4375267680851,0,0
24.04,8.630104,-4.8930535000000015,1.097958,998.4334,5.741717543584592,998.4375728956315,0,0
24.06,8.529738,-4.9740853,1.2826006,998.4334,5.741767479792293,998.4375986315075,0,0
24.08,8.453271,-5.0026845999999985,1.3536177,998.436,5.741750197643932,998.4376156166542,0,0
24.1,8.453281,-4.935953,1.382025,998.446,5.741612143216868,998.4376608085097,0,0
24.12,8.48675,-4.883521,1.4483075,998.46375,5.741393055097048,998.4377946611226,0,0
24.14,8.524998,-4.8692217000000015,1.372558,998.45856,5.741134369234151,998.4379876885112,0,0
24.16,8.548906,-4.888287999999998,1.4530437,998.44855,5.740927585350881,998.4381962718331,0,0
24.18,8.5584755,-4.840623,1.4293725,998.4484,5.740728925832701,998.438417309478,0,0
24.2,8.587164999999999,-4.869222,1.4104359,998.4281,5.7406128945341175,998.4385754760268,0,0
24.22,8.615851,-4.8692226,1.3299516000000002,998.41565,5.7405987158543885,998.4386327002754,0,0
24.24,8.496367999999999,-4.8930554000000015,1.3252184,998.4257,5.7404838237994325,998.4386367059004,0,0
24.26,8.434239999999999,-5.031286,1.3583602,998.446,5.740323262953153,998.4386667531296,0,0
24.28,8.410353,-5.0551195,1.4104395,998.4434,5.740121063886037,998.4387103425504,0,0
24.3,8.529858,-5.007453400000001,1.358362,998.44867,5.740029106762811,998.438784712929,0,0
24.32,8.529867,-4.916889,1.3110190000000002,998.43604,5.739927920261994,998.4388405456293,0,0
24.34,8.544216,-4.8215585,1.2352694,998.4256,5.739727055845743,998.4388422134384,0,0
24.36,8.496429,-4.9216566,1.2494735,998.4332,5.7394594541937165,998.4388233751466,0,0
24.38,8.443861,-4.9740887,1.4057097,998.43585,5.739138379256692,998.4387960254812,0,0
24.4,8.4964485,-4.8978243,1.3915073999999998,998.461,5.738781521441468,998.4388517936252,0,0
24.42,8.553816000000001,-4.8501587,1.3820395,998.44324,5.738445385652188,998.4389168679004,0,0
24.44,8.53509,-4.8740015,1.3820757,998.4332,5.738119552218974,998.4389537868053,0,0
24.46,8.525556,-4.8883014000000005,1.4152186000000002,998.40295,5.737811286734475,998.4388567947173,0,0
24.48,8.582936,-4.8644690000000015,1.3631424,998.44086,5.737582835544555,998.4387783040472,0,0
24.5,8.645100999999999,-4.826338,1.3915513000000002,998.4203,5.737506933149293,998.4386424277966,0,0
24.52,8.559089,-4.902603,1.3252716999999998,998.4483,5.737470474014577,998.4385571348014,0,0
24.54,8.516097,-4.8883038,1.3489462,998.44086,5.7373841615299686,998.4384900602257,0,0
24.56,8.46832,-4.983636,1.3252761,998.4359,5.737261065009062,998.4384214689136,0,0
24.58,8.358411,-5.0074687,1.4862483999999998,998.4306,5.736984098459331,998.4383327043422,0,0
24.6,8.501831,-4.897839,1.4152347,998.40796,5.736690564905689,998.4381449302314,0,0
24.62,8.468397,-4.8978395,1.438909,998.4356,5.736330986671704,998.4379698512781,0,0
24.64,8.564017999999999,-4.8644743,1.3868328,998.4003,5.736035461446623,998.4376795400503,0,0
24.66,8.640519,-4.835875499999998,1.3489598,998.44037,5.7358950741546115,998.4374327067053,0,0
24.68,8.645325999999999,-4.80251,1.3915719,998.42786,5.735879610493237,998.4371801430176,0,0
24.7,8.568872,-4.916908,1.5288718,998.4204,5.7359950496859025,998.4368965692281,0,0
24.72,8.46852,-4.9312086,1.5241395,998.43286,5.736060485126065,998.4366314717786,0,0
24.74,8.535463,-4.9312096,1.5099386,998.4481,5.736195950140037,998.4364385183736,0,0
24.76,8.578505999999999,-4.9502760000000015,1.4057841,998.4231,5.736457455950731,998.4362200060792,0,0
24.78,8.478158,-4.983643,1.5052091,998.4407,5.736715770391935,998.4360430565936,0,0
24.8,8.47818,-4.9931765,1.4247261999999998,998.4355,5.736955672218111,998.4358847490248,0,0
24.82,8.506884,-5.0074763,1.3395092,998.42786,5.7372196879954025,998.4357159793599,0,0
24.84,8.559488,-4.9073796,1.3253083,998.45575,5.737490230195728,998.4356389769588,0,0
24.86,8.511714,-4.983645,1.3726546,998.4582,5.737772508378495,998.43565215732,0,0
24.88,8.506960000000001,-5.0646772,1.4720795,998.42035,5.738169914219372,998.4356087157208,0,0
24.9,8.526102999999999,-4.940747,1.4436753,998.42804,5.738563870674772,998.4355430833473,0,0
24.92,8.550028999999999,-4.897849,1.4910218000000002,998.4456,5.738966447698657,998.4355212954815,0,0
24.94,8.487117999999999,-4.983628,1.5809046,998.44293,5.7393806053599485,998.43552871506,0,0
24.96,8.496671000000001,-4.959795,1.5903729,998.4607,5.739798843123569,998.4356258876253,0,0
24.98,8.511004,-5.012226999999998,1.5051531,998.448,5.7402715471933226,998.4357562961084,0,0
25.0,8.544457000000001,-4.912129,1.5193557,998.4254,5.740751123772483,998.4358342423784,0,0
25.02,8.606589,-4.921662,1.3678541000000002,998.4606,5.74131014738011,998.4359922724296,0,0
25.04,8.539664,-4.974094,1.4530728000000002,998.453,5.741897002962222,998.4361931356019,0,0
25.06,8.496641,-4.9550276,1.4057282,998.42505,5.742396012848936,998.4363305030133,0,0
25.08,8.58267,-4.931195,1.4625405,998.4404,5.742961174392723,998.436466531047,0,0
25.1,8.487067999999999,-4.9359612,1.5761656000000002,998.4251,5.743453604947863,998.4365458059058,0,0
25.12,8.444042999999999,-4.9407277,1.5193523000000002,998.4354,5.743790210667161,998.4366117282697,0,0
25.14,8.396239999999999,-5.016992,1.5335549,998.43036,5.7439876828316745,998.4366474710488,0,0
25.16,8.381893,-5.0312915,1.4956791,998.43536,5.744039265100493,998.4366744184724,0,0
25.18,8.439245,-5.0455914,1.4814752,998.4452,5.744073522930733,998.4367289213096,0,0
25.2,8.458358,-4.9311940000000005,1.4246618999999998,998.4377,5.743989307839788,998.4367805758997,0,0
25.22,8.563507000000001,-4.8644614,1.3773171999999998,998.4302,5.7439058474296365,998.4368025278222,0,0
25.24,8.6112995,-4.9216604,1.3394414,998.4326,5.743956447285737,998.4368067954407,0,0
25.26,8.458339,-4.9407263,1.4672698999999998,998.4253,5.743909873907947,998.4367691418453,0,0
25.28,8.472672,-4.964559,1.4672693,998.4427,5.7438277745853386,998.4367572222172,0,0
25.3,8.472667,-4.9836254,1.4625342,998.4351,5.743732963603574,998.4367407240339,0,0
25.32,8.448761,-4.997925,1.5335497,998.4479,5.743622134813093,998.4367663196327,0,0
25.34,8.472653,-4.955025,1.4672675,998.4277,5.743474360041474,998.4367562971534,0,0
25.36,8.486988,-4.997925,1.4720013,998.4426,5.743365974945114,998.4367684786206,0,0
25.38,8.530000999999999,-4.9216595000000005,1.3915159,998.45276,5.743266152901355,998.436836811642,0,0
25.4,8.467855,-4.964558,1.3820466,998.4477,5.743105334842642,998.4369362981779,0,0
25.42,8.558666,-4.9693246,1.4672652,998.4324,5.743082829535487,998.4370078738077,0,0
25.44,8.582685000000001,-4.9359617,1.4104635,998.4351,5.7431740772141024,998.4370642496884,0,0
25.46,8.506207,-5.0360594,1.476745,998.46045,5.743353307485597,998.4371982521176,0,0
25.48,8.510985,-4.9264283,1.3394471,998.42523,5.743463810775236,998.4372735709564,0,0
25.5,8.4823065,-4.9836273,1.4814792,998.42255,5.743563406545043,998.4372871178267,0,0
25.52,8.381928,-4.9788604,1.4767447,998.42737,5.743468938006201,998.4372633862176,0,0
25.54,8.515761999999999,-4.8882957000000005,1.4009941,998.42737,5.743324169447964,998.4372068007773,0,0
25.56,8.582678,-4.912129,1.3252435,998.42737,5.743257831059191,998.4371213893993,0,0
25.58,8.444061999999999,-4.9168944,1.4909475,998.4351,5.743067783255977,998.4370386429036,0,0
25.6,8.477519000000001,-4.9550276,1.3725873,998.42737,5.7428324807579445,998.436930720986,0,0
25.62,8.501418,-4.9264283,1.4246657,998.42,5.742586199019133,998.4367744105837,0,0
25.64,8.534875,-4.9216614000000005,1.3583838,998.42487,5.742366511436166,998.4365934388344,0,0
25.66,8.544435,-4.9168944,1.4341342,998.4351,5.7422053495053325,998.4364281558168,0,0
25.68,8.487075,-4.931195,1.4578061000000002,998.4402,5.742016245580001,998.4362956903814,0,0
25.7,8.482294,-4.9597940000000005,1.4436028,998.4223,5.741819937948012,998.4361282594374,0,0
25.72,8.491852,-4.931195,1.3820553999999998,998.42487,5.741587127313441,998.4359397877213,0,0
25.74,8.558767999999999,-4.8930620000000005,1.3205081,998.42755,5.7413856830839105,998.4357430508772,0,0
25.76,8.50141,-4.907362,1.3347111,998.42725,5.741128855152657,998.4355386392184,0,0
25.78,8.434491,-4.9740934,1.4341335,998.4298,5.7408031654504645,998.4353373619756,0,0
25.8,8.444048,-4.9502606,1.4388678,998.44507,5.7404113306790965,998.4351945509012,0,0
25.82,8.39625,-5.0265260000000005,1.5382901000000002,998.4324,5.7399889092038325,998.435058302652,0,0
25.84,8.343671,-5.0169926,1.5808997,998.465,5.739452352013534,998.4350457038097,0,0
25.86,8.506183,-4.9121284,1.5004148000000002,998.42725,5.738968991999228,998.4350065069387,0,0
25.88,8.467943,-4.8501629999999984,1.4530704,998.4499,5.738388081563629,998.4350254891588,0,0
25.9,8.596996,-4.8501625,1.3347104,998.4324,5.737919343306505,998.4350328100876,0,0
25.92,8.587436,-4.8644620000000005,1.3489133999999998,998.4172,5.7375527377057765,998.4349750807436,0,0
25.94,8.535271,-4.9407377,1.4483738000000002,998.4575,5.737291557979884,998.4350051608046,0,0
25.96,8.520947,-4.9264383,1.4767817,998.44495,5.737092930676278,998.4350675409676,0,0
25.98,8.5114,-4.912139,1.4057667,998.42975,5.7368971783654015,998.4351035169324,0,0
26.0,8.463617,-4.959805,1.4531121,998.44495,5.736683177839649,998.435170752634,0,0
26.02,8.449294,-5.0074706,1.514661,998.4172,5.736497321399784,998.43516546739,0,0
26.04,8.482769000000001,-4.978872,1.4673184,998.40717,5.736351640498817,998.4350600136662,0,0
26.06,8.583159,-4.8978405,1.3489596,998.4449,5.736302461860823,998.4350022587064,0,0
26.08,8.64053,-4.845409,1.2400695,998.4346,5.736359075942363,998.4349497782924,0,0
26.1,8.501933,-4.964573400000001,1.4057752,998.4574,5.736428818716264,998.4349842273973,0,0
26.12,8.573644,-4.773911,1.4909956,998.44226,5.736469599613688,998.4350408594072,0,0
26.14,8.592778,-4.83111,1.4767939,998.4498,5.736571957594153,998.4351440323576,0,0
26.16,8.468518,-4.9550410000000005,1.6330307,998.422,5.736684379291388,998.4351878774596,0,0
26.18,8.506772,-4.8358774,1.6614384999999998,998.4346,5.736760966267128,998.4352245026332,0,0
26.2,8.506786,-4.8978434,1.547814,998.42474,5.736830597062316,998.4352191204273,0,0
26.22,8.468563,-4.93121,1.5099401,998.43964,5.736848111022749,998.4352302798764,0,0
