Timestamp,Ax,Ay,Az,P,Value,Type
0.0,8.458629,-0.3233469,3.688248,1005.1635,0,0
0.04,8.91273,-0.28521508,4.6966785999999985,1005.1731,0,0
0.08,8.482571,-0.6522404,4.890791,1005.1934,0,0
0.12,8.702461,-0.30904877,4.1285534,1005.2159,0,0
0.16,9.075308,-0.09455435,4.715621499999999,1005.168,0,0
0.2,8.578228,-0.33764923,4.545185,1005.18304,0,0
0.24,8.779002,-0.30905032,4.5641246,1005.1809,0,0
0.28,8.860282000000002,-0.15652113,4.351078,1005.18054,0,0
0.32,8.769485000000001,-0.26138579999999995,4.322674,1005.19037,0,0
0.36,9.008497,-0.10885657,4.464708,1005.1906,0,0
0.4,8.755189,-0.21372135,4.313209,1005.20044,0,0
0.44,8.678730999999999,-0.30905294,4.3274136,1005.20844,0,0
0.48,8.707433,-0.35195255,4.4268384,1005.1955,0,0
0.52,8.8173895,-0.10409202,4.175917,1005.21045,0,0
0.56,8.750491,-0.08979286,3.9912767,1005.1781,0,0
0.6,8.736175,-0.15175872,4.521532,1005.2054,0,0
0.64,8.306014,-0.40915328,3.9249995,1005.2005,0,0
0.68,8.329934,-0.56168365,3.7545629,1005.21045,0,0
0.72,8.597622,-0.5283182,3.6362042,1005.1675,0,0
0.76,8.965689999999997,-0.8286118,3.9770834,1005.185,0,0
0.8,9.165626,-0.8905571,3.2384417,1005.185,0,0
0.84,10.011641,-0.6093299,3.2384408,1005.213,0,0
0.88,9.065228,-1.0764521,3.3236592000000003,1005.1627,0,0
0.92,9.371125,-1.1813161,2.7555292,1005.18286,0,0
0.96,9.15602,-1.8819997,3.4751575,1005.1849,0,0
1.0,9.552735,-1.4768422,2.8644187000000003,1005.1876,0,0
1.04,10.546923,-0.7094263000000001,0.44513676,1005.1855,0,0
1.08,10.355719,-1.3290783000000002,-0.27922818,1005.2105,0,0
1.12,9.853829,-1.7151691000000002,2.1684582000000003,1005.19495,0,0
1.16,9.490552,-1.6961026,1.7565638,1005.1826,0,0
1.2,9.9972,-1.4291751,1.6287338,1005.2024,0,0
1.24,9.342356,-2.0678935000000003,1.6145296,1005.21277,0,0
1.28,9.074676,-2.3205209,2.0737658,1005.19495,0,0
1.32,8.969508,-2.4444509,1.8039036,1005.203,0,0
1.36,9.184588,-2.797176,3.1248016,1005.21014,0,0
1.4,9.131999,-1.9820945,1.1079441,1005.1929,0,0
1.44,9.710342,-1.9773276,2.078496,1005.21515,0,0
1.48,8.993360000000003,-2.29192,2.0595572,1005.185,0,0
1.52,8.902532,-1.6913334,1.145816,1005.21265,0,0
1.56,9.619492,-1.8104973,3.546158,1005.2124,0,0
1.6,9.361375,-1.1717784,2.0690234,1005.20764,0,0
1.64,9.213188,-2.1584554,2.0879598,1005.20764,0,0
1.68,9.093681,-2.2156537,1.8275663,1005.1924,0,0
1.72,9.05065,-2.1965873,1.7044706000000005,1005.2155,0,0
1.76,9.1988125,-2.3634164,1.7991578999999998,1005.2149,0,0
1.8,9.877891,-1.6770406999999998,1.0890286,1005.2024,0,0
1.84,9.858774,-3.202339,3.1626983,1005.1974,0,0
1.88,10.03085,-2.8305478,3.7260926,1005.20734,0,0
1.92,9.462055,-2.406324,3.001729,1005.21765,0,0
1.96,9.084453,-1.6865741,1.7707838,1005.2099,0,0
2.0,8.936281,-2.1441636,2.4809449,1005.20514,0,0
2.04,8.649496000000001,-2.3634253,2.3483818,1005.2149,0,0
2.08,8.888489,-2.7733493,2.3531165,1005.22797,0,0
2.12,9.127481,-2.6398857,1.6429558000000002,1005.22034,0,0
2.16,8.931513,-2.5540876,2.5898373,1005.1949,0,0
2.2,9.141826,-2.7876492,2.888105,1005.19495,0,0
2.24,9.194406,-2.563621,3.1295598,1005.1974,0,0
2.28,9.132271,-2.3348262,2.1732101000000004,1005.2096,0,0
2.32,9.619813,-1.8438709,1.3920336000000002,1005.1824,0,0
2.36,9.691512,-2.1727636,2.0311785,1005.1745,0,0
2.4,9.074921,-2.7209175,1.9980378,1005.1949,0,0
2.44,9.313913,-2.511189,1.6618953,1005.16187,0,0
2.48,9.404733,-2.6541858,1.2736742,1005.2096,0,0
2.52,9.299579,-2.687552,1.1837208,1005.1946,0,0
2.56,9.438196,-2.48259,0.6866087,1005.20734,0,0
2.6,9.132291,-2.6780188,0.4262166,1005.2198,0,0
2.64,9.084496,-2.720918,0.93279815,1005.1999,0,0
2.68,9.27569,-2.2728617,0.8570479,1005.21014,0,0
2.72,9.624619,-2.2394958,0.6061247,1005.1921,0,0
2.76,9.5959425,-2.2585623,0.50196797,1005.2094,0,0
2.8,9.739858,-2.5874674,1.0606755,1005.17505,0,0
2.84,9.935852,-2.3491402000000003,1.2926633,1005.1924,0,0
2.88,9.28582,-2.4111056,1.1506331,1005.2226,0,0
2.92,9.706465,-2.0679142,0.66772604,1005.2099,0,0
2.96,9.548755,-2.2204447,0.65825933,1005.18207,0,0
3.0,9.362364,-2.4444735,0.74821496,1005.17206,0,0
3.04,9.524899,-2.3634427,0.55884075,1005.1874,0,0
3.08,9.06128,-2.6256037,0.04752709,1005.2278,0,0
3.12,9.400672,-2.4158757,0.5399074,1005.1874,0,0
3.16,9.634902,-2.2013812,1.0464907,1005.21265,0,0
3.2,9.606247,-1.9773533,0.9376015,1005.2029,0,0
3.24,9.720984,-1.8963227,1.2974182,1005.20496,0,0
3.28,9.596732,-1.9535217,1.1127784,1005.22015,0,0
3.32,9.448579,-1.9058566000000003,1.0843741000000002,1005.1999,0,0
3.36,9.563319,-1.8867912,0.8571247999999999,1005.1846,0,0
3.4,9.606358,-2.106053,0.7482354,1005.2071,0,0
3.44,10.036563,-2.4730787,0.6156742,1005.1946,0,0
3.48,10.041366,-2.7543063,1.1601328000000002,1005.19495,0,0
3.52,9.443913,-1.8200616000000005,0.7435073,1005.2278,0,0
3.56,9.157146,-1.8820274,0.7529781,1005.1999,0,0
3.6,9.243206,-2.4254155,1.2974366000000002,1005.21265,0,0
3.64,9.396183,-2.3682172,1.2974386999999998,1005.20514,0,0
3.68,9.558719,-2.1203568,1.4820826,1005.1825,0,0
3.72,9.501382,-2.2490547000000003,1.2832396,1005.1924,0,0
3.76,9.515498,-2.2776482,0.9092012,1005.2049,0,0
3.8,9.48683,-2.3539135,0.89973336,1005.1999,0,0
3.84,9.639796,-2.4063458,0.84765595,1005.1999,0,0
3.88,9.831,-2.52551,0.8760636,1005.20013,0,0
3.92,9.926609,-2.2299838,0.7292982,1005.1926,0,0
3.96,9.639833,-2.1060536,0.8145187,1005.19745,0,0
4.0,9.333938,-2.1632526000000003,0.9660207,1005.20514,0,0
4.04,9.214455,-2.2919502,1.2264141000000002,1005.19495,0,0
4.08,9.028054,-2.5350447,1.1127893999999998,1005.1971,0,0
4.12,9.123664,-2.9116027,1.0370401,1005.20013,0,0
4.16,9.185814,-2.9640353,0.7103674,1005.1899,0,0
4.2,9.281424,-2.9878685000000003,0.0996304,1005.2071,0,0
4.24,9.420049,-2.7257082,-0.0944791,1005.20764,0,0
4.28,9.46308,-2.4158823,0.014413318,1005.2124,0,0
4.32,9.4200735,-2.4826145,0.50205815,1005.1824,0,0
4.36,9.372289,-2.5398135,0.84293634,1005.20496,0,0
4.4,9.463119,-2.5064478,0.65356135,1005.1949,0,0
4.44,9.625643,-2.3729846,0.8571419,1005.1999,0,0
4.48,9.55396,-2.3682182000000003,0.74825174,1005.20496,0,0
4.52,9.592209,-2.4206505000000003,0.6204239,1005.1974,0,0
4.56,9.444047,-2.4158845,0.5541434000000001,1005.2225,0,0
4.6,9.515757,-2.382519,0.6346294,1005.2096,0,0
4.64,9.620926,-2.334854,0.814538,1005.1971,0,0
4.68,9.4345255,-2.430185,0.7813983,1005.1849,0,0
4.72,9.534914,-2.5255165,0.8429466999999998,1005.1946,0,0
4.76,9.644862,-2.5207503,0.84768224,1005.1824,0,0
4.8,9.5007715,-2.4778342,0.85708725,1005.1995,0,0
4.84,9.529435,-2.3110044,0.75766337,1005.17957,0,0
4.88,9.381246,-2.4301677,0.6819115,1005.1899,0,0
4.92,9.319092,-2.401568,0.7055819999999999,1005.1825,0,0
4.96,9.381216,-2.4825993,0.8334096999999999,1005.18207,0,0
5.0,9.452898,-2.5207314,0.8760180000000001,1005.2121,0,0
5.04,9.476783,-2.4635324,0.80500066,1005.1974,0,0
5.08,9.438527,-2.5302637000000003,0.606154,1005.1874,0,0
5.12,9.438514,-2.606528,0.5872151999999999,1005.2045,0,0
5.16,9.433719,-2.5683954,0.7434491999999999,1005.1874,0,0
5.2,9.510181,-2.4253982999999995,0.60141575,1005.20734,0,0
5.24,9.295075,-2.6255932,0.7103056999999999,1005.1945,0,0
5.28,9.3380785,-2.5874605,0.696101,1005.2221,0,0
5.32,9.524475,-2.5111952,0.8476005999999999,1005.207,0,0
5.36,9.476664,-2.4825954,0.78605205,1005.1845,0,0
5.4,9.371491,-2.5207276000000003,0.62981516,1005.2099,0,0
5.44,9.428834,-2.5064275,0.52092254,1005.20734,0,0
5.48,9.395363,-2.5588596000000003,0.5729998000000001,1005.2024,0,0
5.52,9.409685,-2.5969913,0.63927996,1005.1895,0,0
5.56,9.5243845,-2.5302594,0.75763863,1005.1868,0,0
5.6,9.562609,-2.482593,0.62507397,1005.1893,0,0
5.64,9.576932,-2.5064259,0.5777285,1005.1868,0,0
5.68,9.519561,-2.606523,0.6298056,1005.2041,0,0
5.72,9.509985,-2.5779233,0.5540538,1005.1995,0,0
5.76,9.471732,-2.5254908,0.70555335,1005.1842,0,0
5.8,9.47233,-2.5350385,0.7292801,1005.19684,0,0
5.84,9.563155,-2.4730737,0.75295293,1005.1891,0,0
5.88,9.424549,-2.558872,0.5683119000000001,1005.17676,0,0
5.92,9.467576,-2.6303706,0.68193847,1005.22455,0,0
5.96,9.601419,-2.5207398,0.72454894,1005.1817,0,0
6.0,9.553631,-2.4635415000000003,0.66300243,1005.2093,0,0
6.04,8.458629,-0.3233469,3.688248,1005.1635,0,0
6.08,8.91273,-0.28521508,4.6966785999999985,1005.1731,0,0
6.12,8.482571,-0.6522404,4.890791,1005.1934,0,0
6.16,8.702461,-0.30904877,4.1285534,1005.2159,0,0
6.2,9.075308,-0.09455435,4.715621499999999,1005.168,0,0
6.24,8.578228,-0.33764923,4.545185,1005.18304,0,0
6.28,8.779002,-0.30905032,4.5641246,1005.1809,0,0
6.32,8.860282000000002,-0.15652113,4.351078,1005.18054,0,0
6.36,8.769485000000001,-0.26138579999999995,4.322674,1005.19037,0,0
6.4,9.008497,-0.10885657,4.464708,1005.1906,0,0
6.44,8.755189,-0.21372135,4.313209,1005.20044,0,0
6.48,8.678730999999999,-0.30905294,4.3274136,1005.20844,0,0
6.52,8.707433,-0.35195255,4.4268384,1005.1955,0,0
6.56,8.8173895,-0.10409202,4.175917,1005.21045,0,0
6.6,8.750491,-0.08979286,3.9912767,1005.1781,0,0
6.64,8.736175,-0.15175872,4.521532,1005.2054,0,0
6.68,8.306014,-0.40915328,3.9249995,1005.2005,0,0
6.72,8.329934,-0.56168365,3.7545629,1005.21045,0,0
6.76,8.597622,-0.5283182,3.6362042,1005.1675,0,0
6.8,8.965689999999997,-0.8286118,3.9770834,1005.185,0,0
6.84,9.165626,-0.8905571,3.2384417,1005.185,0,0
6.88,10.011641,-0.6093299,3.2384408,1005.213,0,0
6.92,9.065228,-1.0764521,3.3236592000000003,1005.1627,0,0
6.96,9.371125,-1.1813161,2.7555292,1005.18286,0,0
7.0,9.15602,-1.8819997,3.4751575,1005.1849,0,0
7.04,9.552735,-1.4768422,2.8644187000000003,1005.1876,0,0
7.08,10.546923,-0.7094263000000001,0.44513676,1005.1855,0,0
7.12,10.355719,-1.3290783000000002,-0.27922818,1005.2105,0,0
7.16,9.853829,-1.7151691000000002,2.1684582000000003,1005.19495,0,0
7.2,9.490552,-1.6961026,1.7565638,1005.1826,0,0
7.24,9.9972,-1.4291751,1.6287338,1005.2024,0,0
7.28,9.342356,-2.0678935000000003,1.6145296,1005.21277,0,0
7.32,9.074676,-2.3205209,2.0737658,1005.19495,0,0
7.36,8.969508,-2.4444509,1.8039036,1005.203,0,0
7.4,9.184588,-2.797176,3.1248016,1005.21014,0,0
7.44,9.131999,-1.9820945,1.1079441,1005.1929,0,0
7.48,9.710342,-1.9773276,2.078496,1005.21515,0,0
7.52,8.993360000000003,-2.29192,2.0595572,1005.185,0,0
7.56,8.902532,-1.6913334,1.145816,1005.21265,0,0
7.6,9.619492,-1.8104973,3.546158,1005.2124,0,0
7.64,9.361375,-1.1717784,2.0690234,1005.20764,0,0
7.68,9.213188,-2.1584554,2.0879598,1005.20764,0,0
7.72,9.093681,-2.2156537,1.8275663,1005.1924,0,0
7.76,9.05065,-2.1965873,1.7044706000000005,1005.2155,0,0
7.8,9.1988125,-2.3634164,1.7991578999999998,1005.2149,0,0
7.84,9.877891,-1.6770406999999998,1.0890286,1005.2024,0,0
7.88,9.858774,-3.202339,3.1626983,1005.1974,0,0
7.92,10.03085,-2.8305478,3.7260926,1005.20734,0,0
7.96,9.462055,-2.406324,3.001729,1005.21765,0,0
8.0,9.084453,-1.6865741,1.7707838,1005.2099,0,0
8.04,8.936281,-2.1441636,2.4809449,1005.20514,0,0
8.08,8.649496000000001,-2.3634253,2.3483818,1005.2149,0,0
8.12,8.888489,-2.7733493,2.3531165,1005.22797,0,0
8.16,9.127481,-2.6398857,1.6429558000000002,1005.22034,0,0
8.2,8.931513,-2.5540876,2.5898373,1005.1949,0,0
8.24,9.141826,-2.7876492,2.888105,1005.19495,0,0
8.28,9.194406,-2.563621,3.1295598,1005.1974,0,0
8.32,9.132271,-2.3348262,2.1732101000000004,1005.2096,0,0
8.36,9.619813,-1.8438709,1.3920336000000002,1005.1824,0,0
8.4,9.691512,-2.1727636,2.0311785,1005.1745,0,0
8.44,9.074921,-2.7209175,1.9980378,1005.1949,0,0
8.48,9.313913,-2.511189,1.6618953,1005.16187,0,0
8.52,9.404733,-2.6541858,1.2736742,1005.2096,0,0
8.56,9.299579,-2.687552,1.1837208,1005.1946,0,0
8.6,9.438196,-2.48259,0.6866087,1005.20734,0,0
8.64,9.132291,-2.6780188,0.4262166,1005.2198,0,0
8.68,9.084496,-2.720918,0.93279815,1005.1999,0,0
8.72,9.27569,-2.2728617,0.8570479,1005.21014,0,0
8.76,9.624619,-2.2394958,0.6061247,1005.1921,0,0
8.8,9.5959425,-2.2585623,0.50196797,1005.2094,0,0
8.84,9.739858,-2.5874674,1.0606755,1005.17505,0,0
8.88,9.935852,-2.3491402000000003,1.2926633,1005.1924,0,0
8.92,9.28582,-2.4111056,1.1506331,1005.2226,0,0
8.96,9.706465,-2.0679142,0.66772604,1005.2099,0,0
9.0,9.548755,-2.2204447,0.65825933,1005.18207,0,0
9.04,9.362364,-2.4444735,0.74821496,1005.17206,0,0
9.08,9.524899,-2.3634427,0.55884075,1005.1874,0,0
9.12,9.06128,-2.6256037,0.04752709,1005.2278,0,0
9.16,9.400672,-2.4158757,0.5399074,1005.1874,0,0
9.2,9.634902,-2.2013812,1.0464907,1005.21265,0,0
9.24,9.606247,-1.9773533,0.9376015,1005.2029,0,0
9.28,9.720984,-1.8963227,1.2974182,1005.20496,0,0
9.32,9.596732,-1.9535217,1.1127784,1005.22015,0,0
9.36,9.448579,-1.9058566000000003,1.0843741000000002,1005.1999,0,0
9.4,9.563319,-1.8867912,0.8571247999999999,1005.1846,0,0
9.44,9.606358,-2.106053,0.7482354,1005.2071,0,0
9.48,10.036563,-2.4730787,0.6156742,1005.1946,0,0
9.52,10.041366,-2.7543063,1.1601328000000002,1005.19495,0,0
9.56,9.443913,-1.8200616000000005,0.7435073,1005.2278,0,0
9.6,9.157146,-1.8820274,0.7529781,1005.1999,0,0
9.64,9.243206,-2.4254155,1.2974366000000002,1005.21265,0,0
9.68,9.396183,-2.3682172,1.2974386999999998,1005.20514,0,0
9.72,9.558719,-2.1203568,1.4820826,1005.1825,0,0
9.76,9.501382,-2.2490547000000003,1.2832396,1005.1924,0,0
9.8,9.515498,-2.2776482,0.9092012,1005.2049,0,0
9.84,9.48683,-2.3539135,0.89973336,1005.1999,0,0
9.88,9.639796,-2.4063458,0.84765595,1005.1999,0,0
9.92,9.831,-2.52551,0.8760636,1005.20013,0,0
9.96,9.926609,-2.2299838,0.7292982,1005.1926,0,0
10.0,9.639833,-2.1060536,0.8145187,1005.19745,0,0
10.04,9.333938,-2.1632526000000003,0.9660207,1005.20514,0,0
10.08,9.214455,-2.2919502,1.2264141000000002,1005.19495,0,0
10.12,9.028054,-2.5350447,1.1127893999999998,1005.1971,0,0
10.16,9.123664,-2.9116027,1.0370401,1005.20013,0,0
10.2,9.185814,-2.9640353,0.7103674,1005.1899,0,0
10.24,9.281424,-2.9878685000000003,0.0996304,1005.2071,0,0
10.28,9.420049,-2.7257082,-0.0944791,1005.20764,0,0
10.32,9.46308,-2.4158823,0.014413318,1005.2124,0,0
10.36,9.4200735,-2.4826145,0.50205815,1005.1824,0,0
10.4,9.372289,-2.5398135,0.84293634,1005.20496,0,0
10.44,9.463119,-2.5064478,0.65356135,1005.1949,0,0
10.48,9.625643,-2.3729846,0.8571419,1005.1999,0,0
10.52,9.55396,-2.3682182000000003,0.74825174,1005.20496,0,0
10.56,9.592209,-2.4206505000000003,0.6204239,1005.1974,0,0
10.6,9.444047,-2.4158845,0.5541434000000001,1005.2225,0,0
10.64,9.515757,-2.382519,0.6346294,1005.2096,0,0
10.68,9.620926,-2.334854,0.814538,1005.1971,0,0
10.72,9.4345255,-2.430185,0.7813983,1005.1849,0,0
10.76,9.534914,-2.5255165,0.8429466999999998,1005.1946,0,0
10.8,9.644862,-2.5207503,0.84768224,1005.1824,0,0
10.84,9.5007715,-2.4778342,0.85708725,1005.1995,0,0
10.88,9.529435,-2.3110044,0.75766337,1005.17957,0,0
10.92,9.381246,-2.4301677,0.6819115,1005.1899,0,0
10.96,9.319092,-2.401568,0.7055819999999999,1005.1825,0,0
11.0,9.381216,-2.4825993,0.8334096999999999,1005.18207,0,0
11.04,9.452898,-2.5207314,0.8760180000000001,1005.2121,0,0
11.08,9.476783,-2.4635324,0.80500066,1005.1974,0,0
11.12,9.438527,-2.5302637000000003,0.606154,1005.1874,0,0
11.16,9.438514,-2.606528,0.5872151999999999,1005.2045,0,0
11.2,9.433719,-2.5683954,0.7434491999999999,1005.1874,0,0
11.24,9.510181,-2.4253982999999995,0.60141575,1005.20734,0,0
11.28,9.295075,-2.6255932,0.7103056999999999,1005.1945,0,0
11.32,9.3380785,-2.5874605,0.696101,1005.2221,0,0
11.36,9.524475,-2.5111952,0.8476005999999999,1005.207,0,0
11.4,9.476664,-2.4825954,0.78605205,1005.1845,0,0
11.44,9.371491,-2.5207276000000003,0.62981516,1005.2099,0,0
11.48,9.428834,-2.5064275,0.52092254,1005.20734,0,0
11.52,9.395363,-2.5588596000000003,0.5729998000000001,1005.2024,0,0
11.56,9.409685,-2.5969913,0.63927996,1005.1895,0,0
11.6,9.5243845,-2.5302594,0.75763863,1005.1868,0,0
11.64,9.562609,-2.482593,0.62507397,1005.1893,0,0
11.68,9.576932,-2.5064259,0.5777285,1005.1868,0,0
11.72,9.519561,-2.606523,0.6298056,1005.2041,0,0
11.76,9.509985,-2.5779233,0.5540538,1005.1995,0,0
11.8,9.471732,-2.5254908,0.70555335,1005.1842,0,0
11.84,9.47233,-2.5350385,0.7292801,1005.19684,0,0
11.88,9.563155,-2.4730737,0.75295293,1005.1891,0,0
11.92,9.424549,-2.558872,0.5683119000000001,1005.17676,0,0
11.96,9.467576,-2.6303706,0.68193847,1005.22455,0,0
12.0,9.601419,-2.5207398,0.72454894,1005.1817,0,0
12.04,9.553631,-2.4635415000000003,0.66300243,1005.2093,0,0
12.08,9.601437,-2.4969075000000003,0.63459677,1005.20667,0,0
12.12,9.582327,-2.363444,0.70561373,1005.2116,0,0
12.16,9.400703,-2.444476,0.6345984,1005.19916,0,0
12.2,9.314675,-2.6208386000000004,0.6819433000000001,1005.1789,0,0
12.24,9.3003435,-2.501675,0.6393343,1005.2163,0,0
12.28,9.15696,-2.5970063,0.5872568,1005.20636,0,0
12.32,9.185647,-2.73047,0.65353924,1005.19635,0,0
12.36,9.367288,-2.6923378,0.53044546,1005.2291,0,0
12.4,9.467672,-2.7352371,0.49257106,1005.20135,0,0
12.44,9.649313,-2.6732720000000003,0.6630104,1005.1889,0,0
12.48,9.701901,-2.320547,0.5635886999999999,1005.19385,0,0
12.52,9.477258,-2.196617,0.6251368,1005.1734,0,0
12.56,9.338652,-2.2347493,0.5257149999999999,1005.2088,0,0
12.6,9.094892,-2.6017747000000004,0.58252877,1005.1838,0,0
12.64,9.314771,-2.8258026000000003,0.5635919,1005.19116,0,0
12.68,9.52509,-2.7876706,0.46890464,1005.17365,0,0
12.72,9.639815,-2.5874755,0.36001409999999995,1005.19574,0,0
12.76,9.592026,-2.5064442,0.5446566999999999,1005.22614,0,0
12.8,9.510777,-2.4206464,0.6724865,1005.1963,0,0
12.84,9.511012,-2.3300877,0.6346326,1005.1757,0,0
12.88,9.362854,-2.5541162,0.72458786,1005.1935,0,0
12.92,9.362872,-2.5255172000000004,0.73879266,1005.1884,0,0
12.96,9.415469,-2.5779498,0.8808265,1005.20575,0,0
13.0,9.539761,-2.635149,0.9329066,1005.2009,0,0
13.04,9.711851,-2.4969194,0.85715765,1005.2009,0,0
13.08,9.592373,-2.3253236,0.71512705,1005.17566,0,0
13.12,9.492016,-2.5159862,0.6299094,1005.17816,0,0
13.16,9.339079,-2.492154,0.61570776,1005.2136,0,0
13.2,9.272178,-2.406356,0.63464695,1005.2082,0,0
13.24,9.343895,-2.5302873,0.8713689,1005.18066,0,0
13.28,9.420387,-2.5445874,0.8997768,1005.1907,0,0
13.32,9.429965,-2.5398214,0.85716885,1005.1733,0,0
13.36,9.46822,-2.32056,0.653591,1005.2082,0,0
13.4,9.554276,-2.3729928,0.74828076,1005.2102,0,0
13.44,9.60687,-2.3253274,0.63939095,1005.1901,0,0
13.48,9.54475,-2.2967284,0.57784534,1005.1902,0,0
13.52,9.367915,-2.4540253,0.68673825,1005.1877,0,0
13.56,9.353593,-2.5398240000000003,0.84297514,1005.2057,0,0
13.6,9.3679495,-2.5922565,0.8477111999999999,1005.1852,0,0
13.64,9.391866,-2.458793,0.8098376,1005.19824,0,0
13.68,9.387104,-2.5207589,0.73882306,1005.2153,0,0
13.72,9.606993,-2.4349613,0.65833986,1005.16724,0,0
13.76,9.59745,-2.4397283,0.62993497,1005.18475,0,0
13.8,9.607026,-2.38253,0.5399828000000001,1005.23065,0,0
13.84,9.616604,-2.3729975,0.5683909,1005.1828,0,0
13.88,9.463667999999998,-2.401597,0.7767063,1005.18976,0,0
13.92,9.32029,-2.663758,0.87139595,1005.1976,0,0
13.96,9.381498,-2.6828017,0.909186,1005.2075,0,0
14.0,9.414943,-2.7733657000000003,0.8997159,1005.20514,0,0
14.04,9.649137,-2.6113026,0.7056039000000001,1005.2075,0,0
14.08,9.543966,-2.5255039,0.73874336,1005.2122,0,0
14.12,9.410116,-2.5874689,0.64405394,1005.1998,0,0
14.16,9.271483,-2.616068,0.71506816,1005.1873,0,0
14.2,9.304926,-2.5779347,0.69612914,1005.2075,0,0
14.24,9.414849,-2.5588686000000003,0.70559675,1005.2097,0,0
14.28,9.276218,-2.8114955000000004,0.7529394,1005.19226,0,0
14.32,9.237966,-2.8877602,0.68192196,1005.18976,0,0
14.36,9.400465,-2.8400943,0.54935735,1005.2172,0,0
14.4,9.500825,-2.6160657000000005,0.5919654999999999,1005.2047,0,0
14.44,9.524706,-2.5493333,0.59196395,1005.17725,0,0
14.48,9.395638,-2.6351311,0.7529324000000001,1005.2072,0,0
14.52,9.285683,-2.7876604,0.8002746999999999,1005.20966,0,0
14.56,9.304787,-2.8067262000000004,0.73872596,1005.18964,0,0
14.6,9.261753,-2.8496249,0.68191177,1005.20715,0,0
14.64,9.405135,-2.8448580000000003,0.5398785,1005.2019,0,0
14.68,9.448133,-2.7924254,0.5446111,1005.20435,0,0
14.72,9.543719,-2.663728,0.5682821,1005.21466,0,0
14.76,9.567603,-2.5683966000000003,0.5304055,1005.2421,0,0
14.8,9.47677,-2.6398945,0.6061545,1005.20935,0,0
14.84,9.376379,-2.6541939,0.6677004,1005.2196,0,0
14.88,9.347681,-2.6494267,0.71977705,1005.21216,0,0
14.92,9.424143,-2.663726,0.7765885,1005.2093,0,0
14.96,9.430268,-2.6351597,0.69149244,1005.1816,0,0
15.0,9.425525,-2.6780598,0.6441517,1005.1965,0,0
15.04,9.382535,-2.6780605,0.5399974,1005.1994,0,0
15.08,9.454269,-2.716194,0.4973912,1005.21155,0,0
15.12,9.430419,-2.6923623,0.5305364,1005.22186,0,0
15.16,9.463906,-2.7114289,0.6015550999999999,1005.20416,0,0
15.2,9.387474,-2.6923642000000005,0.62523127,1005.2244,0,0
15.24,9.38273,-2.725731,0.68204737,1005.20154,0,0
15.28,9.454465,-2.678066,0.6347068,1005.20654,0,0
15.32,9.425824,-2.7829313,0.62050706,1005.18866,0,0
15.36,9.315927,-2.6161027000000003,0.6299794,1005.19366,0,0
15.4,9.397212,-2.5922709,0.57790357,1005.2089,0,0
15.44,9.483283,-2.5160067,0.60157883,1005.21906,0,0
15.48,9.397298,-2.5398405,0.5684425000000001,1005.2139,0,0
15.52,9.354303,-2.6113396,0.5873824000000001,1005.2161,0,0
15.56,9.43082,-2.6351732999999995,0.6394645,1005.204,0,0
15.6,9.512124,-2.5684426,0.68681294,1005.20856,0,0
15.64,9.493042,-2.5493777,0.51637757,1005.1859,0,0
15.68,9.478741,-2.6018107,0.47850582,1005.19116,0,0
15.72,9.464439,-2.625644,0.52111894,1005.20856,0,0
15.76,9.454912,-2.6733107999999994,0.5400596,1005.20105,0,0
15.8,9.445393,-2.6304128,0.630017,1005.2133,0,0
15.84,9.411972,-2.6113472,0.63948935,1005.2032,0,0
15.88,9.421567,-2.558916,0.55427325,1005.1909,0,0
15.92,9.450287,-2.6590147,0.58268344,1005.2036,0,0
15.96,9.40089,-2.6780417,0.5541307,1005.2105,0,0
16.0,9.453441,-2.6113093,0.539925,1005.2008,0,0
16.04,9.410397,-2.6351414,0.6109386,1005.17053,0,0
16.08,9.343454,-2.6685066,0.61093634,1005.1909,0,0
16.12,9.338646,-2.7257047,0.6251369999999999,1005.2032,0,0
16.16,9.367299,-2.7114043,0.66300994,1005.188,0,0
16.2,9.496333,-2.6542053,0.5635854,1005.2007,0,0
16.24,9.486743,-2.6351383,0.5304419,1005.2008,0,0
16.28,9.448479,-2.6351373,0.5683147,1005.1879,0,0
16.32,9.481909,-2.5827048,0.61092174,1005.20844,0,0
16.36,9.395845,-2.658969,0.70560735,1005.1851,0,0
16.4,9.410159,-2.649435,0.6156514,1005.198,0,0
16.44,9.386234,-2.6589677000000003,0.6251178000000001,1005.198,0,0
16.48,9.362309,-2.6875665,0.6961315,1005.20013,0,0
16.52,9.424418,-2.7161648,0.71033216,1005.19543,0,0
16.56,9.371817,-2.7447636,0.67718905,1005.1779,0,0
16.6,9.476948,-2.6255994,0.6061707,1005.20044,0,0
16.64,9.386103,-2.7495291,0.662981,1005.21014,0,0
16.68,9.462555,-2.6732638,0.549353,1005.21265,0,0
16.72,9.41473,-2.6875625,0.63456976,1005.2044,0,0
16.76,9.414703,-2.7256944,0.71031785,1005.205,0,0
16.8,9.395559,-2.6541953,0.6108931,1005.2075,0,0
16.84,9.352512,-2.778125,0.710313,1005.20764,0,0
16.88,9.319029,-2.7781246,0.5919506,1005.1972,0,0
16.92,9.40982,-2.720925,0.6203546999999999,1005.1848,0,0
16.96,9.415984,-2.6780603,0.5731374,1005.1997,0,0
17.0,9.439911,-2.6923606,0.5589367,1005.1998,0,0
17.04,9.430379,-2.706661,0.6015488,1005.1948,0,0
17.08,9.39217,-2.6875954,0.61102045,1005.2097,0,0
17.12,9.387419,-2.7686274,0.658367,1005.1798,0,0
17.16,9.406567,-2.792461,0.70571375,1005.1994,0,0
17.2,9.449614,-2.6017995,0.61576253,1005.1842,0,0
17.24,9.411405,-2.720964,0.6725781999999999,1005.17224,0,0
17.28,9.334955,-2.8019965,0.6110335,1005.2122,0,0
17.32,9.330205,-2.7638643,0.620505,1005.19226,0,0
17.36,9.406711,-2.8305972,0.76727414,1005.1867,0,0
17.4,9.421078,-2.8258312,0.6583854,1005.1867,0,0
17.44,9.421107,-2.7209675,0.56843436,1005.2069,0,0
17.48,9.34466,-2.8115330000000003,0.61104673,1005.1895,0,0
17.52,9.368586,-2.8210666,0.66786206,1005.2148,0,0
17.56,9.359054,-2.7352693,0.68680215,1005.17926,0,0
17.6,9.349523,-2.7877023,0.7578209,1005.20715,0,0
17.64,9.292194,-2.8687344,0.7199483,1005.1967,0,0
17.68,9.363923,-2.8115363,0.6252631,1005.2167,0,0
17.72,9.35917,-2.9259348,0.7341569,1005.18896,0,0
17.76,9.502593,-2.72574,0.72469074,1005.1892,0,0
17.8,9.493062,-2.7162075,0.66788036,1005.19366,0,0
17.84,9.311456,-2.8258388,0.6773517,1005.2089,0,0
17.88,9.411862,-2.7924736,0.6678857,1005.18365,0,0
17.92,9.397551,-2.754342,0.7862483,1005.20166,0,0
17.96,9.401785,-2.7352622,0.76726073,1005.21924,0,0
18.0,9.387451,-2.7638617,0.72938603,1005.2093,0,0
18.04,9.473493,-2.7924612,0.6441673000000001,1005.1837,0,0
18.08,9.387464,-2.692364,0.61102706,1005.19653,0,0
18.12,9.473506,-2.625632,0.7009813,1005.2068,0,0
18.16,9.51653,-2.5827332000000003,0.76726353,1005.20166,0,0
18.2,9.559554,-2.6446986,0.70571685,1005.19116,0,0
18.24,9.707734,-2.5207684,0.64890456,1005.19147,0,0
18.28,9.798557,-2.2967403,0.63470197,1005.1912,0,0
18.32,9.774666,-2.2872074,0.7388594,1005.1888,0,0
18.36,9.602598,-2.1680436000000003,0.7530631999999999,1005.1882,0,0
18.4,9.153303,-2.8305953,1.0181905,1005.20593,0,0
18.44,8.527155,-3.478847,1.0750037,1005.1957,0,0
18.48,8.957343,-2.8925605,0.5021415,1005.1937,0,0
18.52,9.650421,-2.1585112,0.30803144,1005.1959,0,0
18.56,9.679105,-2.4302049,0.6394403000000001,1005.1888,0,0
18.6,9.7030115,-2.2824419,0.383783,1005.1835,0,0
18.64,9.559624,-2.2776752,0.6441758000000001,1005.1957,0,0
18.68,9.32542,-2.4302053,0.8288181999999998,1005.17316,0,0
18.72,9.139013,-2.4921708,0.7578026999999999,1005.2132,0,0
18.76,9.291973,-2.492171,0.8524914000000001,1005.20374,0,0
18.8,9.526189,-2.320575,0.6678502,1005.17065,0,0
18.84,9.612233,-2.3539412,0.48794338,1005.18317,0,0
18.88,9.588339,-2.430206,0.48320955,1005.18567,0,0
18.92,9.607466,-2.3062758,0.50688213,1005.1934,0,0
18.96,9.573981,-2.2967422,0.6536463,1005.16534,0,0
19.0,9.502289,-2.2729094,0.80514777,1005.1829,0,0
19.04,9.440156,-2.4492722,0.83355457,1005.1957,0,0
19.08,9.4784,-2.5875025000000003,0.7672734,1005.2027,0,0
19.12,9.473625,-2.5779693,0.5826321,1005.1803,0,0
19.16,9.363693,-2.649468,0.55422604,1005.1882,0,0
19.2,9.320681,-2.692367,0.5068825,1005.2331,0,0
19.24,9.4210615,-2.5446037999999995,0.6536495,1005.2052,0,0
19.28,9.363709,-2.5970361,0.7436037,1005.19037,0,0
19.32,9.339815,-2.6304023,0.76727617,1005.1878,0,0
19.36,9.478435,-2.4969387000000003,0.73413575,1005.20544,0,0
19.4,9.516679,-2.506472,0.7294018,1005.2027,0,0
19.44,9.540581,-2.6065697999999995,0.58263576,1005.1778,0,0
19.48,9.612285,-2.4445071,0.5636985999999999,1005.17786,0,0
19.52,9.5071335,-2.4731064,0.80515367,1005.2001,0,0
19.56,9.47368,-2.5684378,0.80515414,1005.2228,0,0
19.6,9.382867999999998,-2.6351697,0.762545,1005.1747,0,0
19.64,9.421112,-2.5684378,0.7388734,1005.1921,0,0
19.68,9.37332,-2.5779712000000004,0.66312337,1005.1697,0,0
19.72,9.363764,-2.6351702,0.7152022,1005.1718,0,0
19.76,9.382888,-2.6828357999999994,0.7956876,1005.18964,0,0
19.8,9.425911,-2.6494696,0.7767504,1005.17206,0,0
19.84,9.478495,-2.5017066000000003,0.6915316,1005.2277,0,0
19.88,9.349444,-2.630404,0.6962665,1005.18256,0,0
19.92,9.349449,-2.6685364,0.6725949000000001,1005.17957,0,0
19.96,9.378642,-2.668549,0.6631732,1005.20496,0,0
20.0,9.488604,-2.6208842,0.69158196,1005.19965,0,0
20.04,9.560325,-2.6161184,0.70105296,1005.19965,0,0
20.08,9.469532,-2.6399515,0.74366474,1005.19507,0,0
20.12,9.388305,-2.663785,0.7057920999999999,1005.2071,0,0
20.16,9.383548,-2.735284,0.7247319000000001,1005.1821,0,0
20.2,9.42659,-2.6876187,0.7389373,1005.1944,0,0
20.24,9.436177,-2.563689,0.8052215,1005.18207,0,0
20.28,9.440979,-2.6351880000000003,0.7200042,1005.1919,0,0
20.32,9.402766,-2.7066872,0.75314736,1005.17676,0,0
20.36,9.421912,-2.7114542,0.72000897,1005.20166,0,0
20.4,9.398037,-2.7352877,0.80996495,1005.1944,0,0
20.44,9.350265,-2.6447237,0.8147015999999999,1005.1892,0,0
20.48,9.426766,-2.6685572,0.78629756,1005.1842,0,0
20.52,9.331194,-2.8687532000000004,0.895191,1005.17676,0,0
20.56,9.388577,-2.6923912,0.7768331999999999,1005.17706,0,0
20.6,9.488977,-2.549395,0.79103863,1005.1863,0,0
20.64,9.374289,-2.6018276,0.76736903,1005.1944,0,0
20.68,9.321734,-2.6447272,0.8147153,1005.2016,0,0
20.72,9.393458,-2.6971602000000003,0.8952026,1005.1812,0,0
20.76,9.426941,-2.6447284,0.8999391,1005.1692,0,0
20.8,9.302692,-2.7162275,0.8194566999999999,1005.1866,0,0
20.84,9.383975,-2.7066953,0.76738065,1005.1811,0,0
20.88,9.398336,-2.6494968,0.7579139,1005.1887,0,0
20.92,9.4605,-2.6590304,0.767385,1005.1988,0,0
20.96,9.502555,-2.616108,0.7341561,1005.2015,0,0
21.0,9.502541,-2.5350761000000004,0.72468597,1005.204,0,0
21.04,9.3878145,-2.6876059,0.68207526,1005.2044,0,0
21.08,9.363899,-2.720971,0.80516833,1005.1962,0,0
21.12,9.339986,-2.7352707,0.8951207,1005.17896,0,0
21.16,9.344752,-2.6828382,0.81936896,1005.2314,0,0
21.2,9.473795,-2.6161060000000003,0.7199454000000001,1005.20636,0,0
21.24,9.45944,-2.6494715,0.6536623,1005.1985,0,0
21.28,9.292133,-2.868733,0.74361473,1005.1761,0,0
21.32,9.325579,-2.716203,0.667863,1005.191,0,0
21.36,9.421161,-2.635171,0.7057371,1005.20123,0,0
21.4,9.330332,-2.7352684,0.8240959000000001,1005.20874,0,0
21.44,9.473713,-2.6208706000000004,0.73414105,1005.211,0,0
21.48,9.693568,-2.396842,0.6394516,1005.20374,0,0
21.52,9.32073,-2.8210652,0.89984256,1005.2085,0,0
21.56,9.478451,-2.4683397,0.86196613,1005.2159,0,0
21.6,9.42108,-2.6208694,0.9235122,1005.1835,0,0
21.64,9.2346525,-2.6971338,1.28806,1005.206,0,0
21.68,9.574005,-2.368241,1.254918,1005.2085,0,0
21.72,9.38758,-2.225244,1.0560716,1005.1857,0,0
21.76,9.25373,-2.5160034,1.3827442,1005.2085,0,0
21.8,9.268057,-2.582735,1.3448678,1005.2057,0,0
21.84,9.282382,-2.4874036,1.3401321000000002,1005.2235,0,0
21.88,9.4687805,-2.363473,1.4774287,1005.18823,0,0
21.92,9.454429,-2.368239,1.4064114,1005.17285,0,0
21.96,9.60252,-2.3062716,1.2975125,1005.196,0,0
22.0,9.502127,-2.3015049,1.2359637,1005.1935,0,0
22.04,9.349164,-2.401602,1.3353852,1005.22314,0,0
22.08,9.439959,-2.420668,1.316446,1005.2005,0,0
22.12,9.516422,-2.4016013,1.3827261999999998,1005.2156,0,0
22.16,9.416031,-2.5207650000000004,1.3921934,1005.188,0,0
22.2,9.406449,-2.611329,1.32591,1005.2082,0,0
22.24,9.339518,-2.620862,1.2596268999999998,1005.18536,0,0
22.28,9.4159775,-2.4635649,1.3211726,1005.18036,0,0
22.32,9.2534485,-2.6446939,1.3022336,1005.1979,0,0
22.36,9.277337,-2.5970278,1.3732487,1005.17786,0,0
22.4,9.435049,-2.5445952000000003,1.3069652,1005.2128,0,0
22.44,9.348995,-2.5922604,1.2785571000000002,1005.193,0,0
22.48,9.401558,-2.463563,1.2880243999999998,1005.2105,0,0
22.52,9.420662,-2.449263,1.1933348,1005.2331,0,0
22.56,9.482786,-2.454029,1.3211627,1005.18994,0,0
22.6,9.430191,-2.5016942,1.3590364,1005.20776,0,0
22.64,9.449295,-2.4492617,1.3306284,1005.1974,0,0
22.68,9.415817,-2.3777630000000003,1.3874396999999998,1005.2275,0,0
22.72,9.415801,-2.4635606,1.3685006000000002,1005.2054,0,0
22.76,9.310629,-2.5350585,1.4253118,1005.2054,0,0
22.8,9.82205,-2.0250366,1.1743868999999998,1005.20776,0,0
22.84,9.659521,-2.1060677000000005,1.3590271,1005.18756,0,0
22.88,9.277121,-2.1727990000000004,1.6999026999999998,1005.2353,0,0
22.92,9.339241,-2.296729,1.8040582,1005.21497,0,0
22.96,9.2782755,-2.2252595,1.6621331999999998,1005.20996,0,0
23.0,9.469498,-2.096563,2.1497798,1005.18,0,0
23.04,9.311791,-2.191895,1.9509372,1005.2022,0,0
23.08,9.431321,-2.1299305,2.201864,1005.1974,0,0
23.12,9.240154,-2.067966,1.8751923,1005.2225,0,0
23.16,9.244958,-2.001235,1.8751944,1005.1998,0,0
23.2,9.3358135,-1.944037,2.0787776,1005.2074,0,0
23.24,9.297606,-2.0203028,2.1734684,1005.21466,0,0
23.28,9.426687,-1.9488051,2.0645795,1005.1971,0,0
23.32,9.302442999999998,-2.0346038,1.9083468,1005.17413,0,0
23.36,9.335934,-2.0918033,2.154539,1005.20245,0,0
23.4,9.264263,-2.0870373,2.1403382,1005.2074,0,0
23.44,9.331211,-1.9964736,2.0882626,1005.2047,0,0
23.48,9.283445,-2.0346067,2.1356096,1005.1971,0,0
23.52,9.417309,-2.0060081000000003,2.1356122,1005.1818,0,0
23.56,9.393439,-2.015542,2.1214118,1005.227,0,0
23.6,9.283535,-2.12994,2.1545553,1005.2022,0,0
23.64,9.364818,-2.0250766,2.0882761000000003,1005.2118,0,0
23.68,9.259695,-2.0679762,2.1261544,1005.1921,0,0
23.72,9.254946,-2.306305,2.2681894,1005.1843,0,0
23.76,9.254974,-2.206208,2.3912864,1005.2224,0,0
23.8,9.3506,-2.0918114,2.367617,1005.2047,0,0
23.84,9.307612,-2.0393798,2.358151,1005.2071,0,0
23.88,9.192926,-2.2777085,2.5475297,1005.22156,0,0
23.92,9.092582,-2.2205107,2.6706274,1005.2118,0,0
23.96,9.053539,-2.3682540000000003,2.6942258,1005.212,0,0
24.0,9.029637,-2.3730206000000003,2.7368352,1005.20685,0,0
24.04,8.962717999999997,-2.3634875,2.784179,1005.2118,0,0
24.08,8.986614,-2.3968532,2.7936475,1005.20935,0,0
24.12,8.943594000000003,-2.4063864,2.7463036,1005.22437,0,0
24.16,9.043967,-2.2347900000000003,2.717897,1005.2068,0,0
24.2,9.287735,-2.09656,2.8220534,1005.212,0,0
24.24,9.392888,-1.9249637,2.8836005,1005.2143,0,0
24.28,9.249492,-2.1108594,3.1297894,1005.2118,0,0
24.32,9.206471,-1.953563,2.930944,1005.2166,0,0
24.36,8.991377,-2.158525,2.9167407,1005.22406,0,0
24.4,8.962695,-2.1108594,2.935678,1005.1863,0,0
24.44,8.9292345,-2.210957,3.0351002,1005.21405,1,1
24.48,8.986589,-2.1203923,2.940412,1005.217,1,1
24.52,8.886211,-1.9678624,3.0540373,1005.21387,1,1
24.56,9.120419,-1.7867333,3.120319,1005.2114,1,1
24.6,9.115637,-1.8105661,3.3570387000000004,1005.19684,1,1
24.64,8.943562,-1.6771023,3.3002257000000004,1005.2088,1,1
24.68,8.905321,-1.5865377,3.2860222,1005.22174,1,1
24.72,8.87664,-1.4769069,3.2197404,1005.2114,1,1
24.76,8.718904,-1.667569,3.1439896000000003,1005.18646,1,1
24.8,9.000909,-1.6056037,3.0208948,1005.24396,1,1
24.84,9.077384,-1.8010325,3.2907557,1005.19867,1,1
24.88,9.149078,-1.0765158,3.6316328,1005.2238,1,1
24.92,10.25321,-0.023106739,4.247105,1005.2164,1,1
24.96,11.921359,2.3506389,3.1203165,1005.2164,1,1
25.0,13.818938,4.0046334,4.3938713,1005.2289,1,1
25.04,17.442026000000002,5.5775976,5.534863,1005.21387,1,1
25.08,15.63048,3.2896504,4.8862489999999985,1005.2214,1,1
25.12,13.426987,0.8301073,4.5311685,1005.2061,1,1
25.16,11.476826,-1.2385783,3.2907538,1005.2413,1,1
25.2,9.34981,-3.1213682,2.6894844,1005.2263,1,1
25.24,7.4904633,-4.241509400000001,2.012464,1005.20636,1,1
25.28,6.448464,-5.0661235,1.4017256,1005.199,1,1
25.32,5.6454535,-6.167198,1.5816327,1005.20386,1,1
25.36,4.4648400000000015,-8.359814,-0.14642505,1005.19617,1,1
25.4,3.332024,-11.529574,-1.3631673,1005.2213,1,1
25.44,6.262041,-10.924221,0.24653007,1005.17865,1,1
25.48,10.234056,-9.827913,0.65842307,1005.19617,1,1
25.52,14.359025,-8.321681,-0.5062407999999999,1005.19855,1,1
25.56,18.26412,-7.2539725000000015,-1.1643233,1005.1689,1,1
25.6,17.322495999999994,-7.0823765,0.5637343,1005.2011,1,1
25.64,15.721260999999998,-6.3483267,1.7047255,1005.2109,1,1
25.68,14.684041,-4.260575,2.3296669,1005.23065,1,1
25.72,13.952729,-3.1642662999999995,3.5937529,1005.2032,1,1
25.76,13.068461,-0.6665906,3.3712354,1005.19366,1,1
25.8,12.045582,1.3973286,4.195021,1005.20825,1,1
25.84,10.884087,1.640423,3.910957,1005.1934,1,1
25.88,10.253151,1.4116284,3.233937,1005.18616,1,1
25.92,12.026455,1.9216499,3.3522968,1005.2086,1,1
25.96,14.383982,0.18183015,3.2435048,1005.1909,1,1
26.0,16.286382999999994,-0.8239144,2.935772,1005.19617,1,1
26.04,16.515848000000002,-2.4779103,3.224574,1005.1683,1,1
26.08,16.104832000000002,-5.7811356,2.860029,1005.21606,1,1
26.12,17.495794,-8.53144,2.24456,1005.18365,1,1
26.16,18.657322,-10.47143,2.1830163,1005.20355,1,1
26.2,17.615366,-10.700225,3.0636191000000004,1005.18365,1,1
26.24,13.844145,-9.78028,1.4160501,1005.2061,1,1
26.28,11.764969,-8.493312,1.397116,1005.18365,1,1
26.32,9.231713,-7.621032,1.3829165,1005.1857,1,1
26.36,6.9565635,-6.75352,1.4823425,1005.1884,1,1
26.4,5.3458133000000005,-5.4951506,0.8621395000000001,1005.2236,1,1
26.44,3.9071329,-5.2901893,0.1993265,1005.1452,1,1
26.48,2.9034095,-6.2006025000000005,-0.16521941,1005.19116,1,1
26.52,2.6883616000000004,-7.458974400000002,-0.83276653,1005.1834,1,1
26.56,4.9683685,-8.807911,-0.89904445,1005.2061,1,1
26.6,8.548483000000001,-9.48953,0.2656228,1005.1909,1,1
26.64,12.735626,-8.893711,1.5486497,1005.19855,1,1
26.68,16.8702,-8.002366,1.3734807,1005.1909,1,1
26.72,20.01535,-8.111998,0.8669031999999999,1005.2136,1,1
26.76,19.379675,-7.0728893,1.5202544,1005.1959,1,1
26.8,17.037613,-5.2854314,3.0257993,1005.2034,1,1
26.84,15.302584,-3.4598407999999994,5.1610193,1005.198,1,1
26.88,12.783668,-2.9784198,4.3230333,1005.2134,1,1
26.92,12.229249,-1.3101256,2.9216528,1005.2136,1,1
26.96,11.18117,1.5069416000000002,2.7274234,1005.2261,1,1
27.0,11.4297085,2.7796125,1.5864305,1005.2032,1,1
27.04,13.614066,4.343043,2.1119485,1005.1807,1,1
27.08,16.228607,4.0665830000000005,3.3807678,1005.2109,1,1
27.12,16.57752,0.30577022,4.6495867,1005.2183,1,1
27.16,16.70656,-1.6771169999999995,3.9394252,1005.1602,1,1
27.2,14.957141,-3.7887013,2.6469316000000003,1005.1733,1,1
27.24,14.264058,-6.648635400000001,2.5475078,1005.1706,1,1
27.28,16.023011999999998,-8.769753,3.428106,1005.18115,1,1
27.32,17.992279999999994,-10.071023,3.8920765,1005.2007,1,1
27.36,15.329915,-8.231132,4.038842,1005.2086,1,1
27.4,13.374962,-7.153889,2.0267186,1005.188,1,1
27.44,12.280377,-7.101456599999999,1.4869955,1005.1697,1,1
27.48,9.5367565,-7.473248,2.263437,1005.17554,1,1
27.52,6.9126306,-6.5390024,2.2729044,1005.218,1,1
27.56,4.2024693,-6.0051484,0.8809882,1005.20844,1,1
27.6,1.9224912,-6.4246050000000015,0.07613836,1005.1727,1,1
27.64,2.0658734,-6.3054404,-0.59141374,1005.1602,1,1
27.68,3.7387922,-6.958458,-0.6482278,1005.1727,1,1
27.72,6.6257806,-8.1977625,0.43121532,1005.1934,1,1
27.76,10.105465,-7.6448417,1.1082339,1005.188,1,1
27.8,14.354698,-6.844060400000001,0.78155893,1005.21295,1,1
27.84,17.552374,-6.7391953,-0.92756236,1005.19824,1,1
27.88,19.311329,-6.6343307000000005,-0.7950001999999999,1005.20294,1,1
27.92,17.609707,-5.8526154,0.90465003,1005.21075,1,1
27.96,15.826827,-4.0937557,2.694254,1005.2182,1,1
28.0,13.943573,-2.8782828,4.3039510000000005,1005.23566,1,1
28.04,12.289748,-1.7390755,2.8078773,1005.1998,1,1
28.08,11.668363,-0.14227872,1.9604176,1005.2005,1,1
28.12,11.266847,1.6118145,2.1781993,1005.21796,1,1
28.16,12.32317,2.6747572,2.2823548,1005.20264,1,1
28.2,14.431051,3.766299,2.6753094,1005.2055,1,1
28.24,15.410898,1.7834115,5.118261,1005.1901,1,1
28.28,15.081079999999998,-1.7629066000000002,4.933618,1005.2055,1,1
28.32,14.464473000000002,-3.5074663,4.0009394,1005.188,1,1
28.36,14.067735999999998,-5.0279975,3.063526,1005.1899,1,1
28.4,14.196779,-7.0394845,2.4243803,1005.1776,1,1
28.44,14.378398,-8.607681,2.997242,1005.1677,1,1
28.48,14.942403,-8.507583,4.266062000000002,1005.1422,1,1
28.52,13.99599,-7.478007000000002,4.3465457,1005.2007,1,1
28.56,12.714989,-6.629559,3.6269145,1005.16974,1,1
28.6,11.845053,-6.4531965,3.1155977000000004,1005.193,1,1
28.64,10.095633,-6.620025599999999,2.935689200000001,1005.2099,1,1
28.68,7.8586706999999985,-5.843076,2.8599374,1005.1876,1,1
28.72,6.2574244000000006,-5.9860725,2.0740252,1005.19257,1,1
28.76,4.57492,-6.0003720000000005,1.359129,1005.18756,1,1
28.8,4.025231,-6.1338352999999985,0.95196897,1005.17975,1,1
28.84,3.6284945,-6.3387970000000005,0.95196784,1005.17975,1,1
28.88,4.5414248,-6.300664,1.458548,1005.14215,1,1
28.92,7.3232584,-5.2901535000000015,-0.761889,1005.18506,1,1
28.96,10.09139,-5.9145885,-2.4614832000000004,1005.1899,1,1
29.0,13.403804999999998,-6.958464599999999,-2.3952,1005.20013,1,1
29.04,17.007788,-7.988041,-2.044853,1005.1924,1,1
29.08,17.619616,-6.624806,-1.9643673,1005.17694,1,1
29.12,16.047073,-5.004176599999999,-0.7097489,1005.1971,1,1
29.16,14.197302,-3.2643838,0.8526059000000001,1005.2046,1,1
29.2,13.537702,-2.449303,0.89521664,1005.1896,1,1
29.24,12.376222,-1.7152535,1.3781271000000002,1005.19763,1,1
29.28,12.027308,-0.037425876,1.8752406000000004,1005.1896,1,1
29.32,12.419269,0.75382227,2.7416382,1005.2171,1,1
29.36,12.605689,1.206645,3.002031,1005.2046,1,1
29.4,13.509088,0.9158845,3.6979902,1005.2021,1,1
29.44,13.298789,-1.4435613,4.280323,1005.17694,1,1
29.48,13.131507999999998,-3.2929857000000005,5.156189,1005.1944,1,1
29.52,12.538823,-3.0927904,4.067277,1005.17944,1,1
29.56,12.395444,-5.2997074,3.4518058,1005.1821,1,1
29.6,12.849538,-7.530456,3.1535397,1005.1976,1,1
29.64,14.589398,-8.540966000000001,3.6175122,1005.15436,1,1
29.68,14.565513,-6.8917384,4.715895,1005.1695,1,1
29.72,14.011068,-5.6524334000000005,3.986798,1005.1792,1,1
29.76,12.926065,-6.071891,2.907355,1005.19684,1,1
29.8,11.353521,-6.739209,2.9120905,1005.1813,1,1
29.84,9.016209,-6.9727707,3.1677494,1005.174,1,1
29.88,6.8366320000000025,-6.167223,2.4623244,1005.169,1,1
29.92,5.8233232,-6.1576895999999985,1.8184462,1005.1842,1,1
29.96,4.3989887,-6.1958237,1.0846176,1005.16693,1,1
30.0,3.7011473,-6.1290917,0.9425865,1005.1664,1,1
30.04,4.0214124,-6.0575943,0.5448982,1005.1944,1,1
30.08,5.4266844,-6.10526,0.6064463000000001,1005.18463,1,1
30.12,7.4867925999999985,-6.9155746,0.88577735,1005.1591,1,1
30.16,10.90437,-6.167226,0.043055024,1005.1713,1,1
30.2,13.71013,-5.5046744000000025,-1.3204523,1005.1963,1,1
30.24,14.804715,-5.5475745000000005,-1.8175638,1005.1688,1,1
30.28,15.985339000000002,-5.776369,-0.97957295,1005.1619,1,1
30.32,15.320965,-6.2768583,1.4491783,1005.2044,1,1
30.36,13.963514000000002,-4.2415385,1.9983704,1005.20624,1,1
30.4,12.429211,-2.635209,1.4397118999999998,1005.1987,1,1
30.44,11.196035,-2.46838,1.1556488,1005.189,1,1
30.48,10.737186,-1.9821916,1.2882133999999998,1005.1913,1,1
30.52,10.694183,-0.66662216,1.5438726,1005.1913,1,1
30.56,10.894948,0.3629539,1.7900628,1005.21906,1,1
30.6,11.468539,0.5679155,1.9462994,1005.20374,1,1
30.64,12.185523,0.20565684,2.6943367,1005.1813,1,1
30.68,12.12818,-1.7295655,3.27667,1005.19574,1,1
30.72,11.654991,-2.835407,3.0494196,1005.1987,1,1
30.76,12.018271,-4.441737,2.2729785,1005.20374,1,1
30.8,12.7543745,-5.604778,2.755889,1005.18335,1,1
30.84,13.060295,-5.9479694000000025,2.8979223,1005.1912,1,1
30.88,12.262082,-6.0576015,3.5418026,1005.1588,1,1
30.92,12.199959,-6.7439857000000005,3.0446916,1005.2057,1,1
30.96,12.328417,-7.573352000000001,2.2823977,1005.1863,1,1
31.0,12.122877,-8.221603,2.0314734,1005.1937,1,1
31.04,10.029312,-8.412266,1.8705028,1005.18835,1,1
31.08,8.480646,-7.2873583,2.1498318,1005.1813,1,1
31.12,7.242665299999999,-5.4617662000000005,1.6953279,1005.1832,1,1
31.16,6.6499605,-4.775382,1.5864357,1005.1887,1,1
31.2,6.496996,-4.689584,1.6905916,1005.16315,1,1
31.24,6.3249135,-5.166239,1.7474037,1005.1937,1,1
31.28,6.669049,-5.5999956,1.1603365,1005.1782,1,1
31.32,6.7311773,-5.881222,0.82892734,1005.1757,1,1
31.36,6.774186,-5.414099,0.27500108,1005.18085,1,1
31.4,7.342972,-5.1424055,-0.6908185,1005.1584,0,0
31.44,9.173628,-4.861178400000001,-1.1169156999999998,1005.16583,0,0
31.48,11.754712,-4.9946413,-0.3925528,1005.1681,0,0
31.52,13.394174,-4.4989195,0.18030928,1005.1937,0,0
31.56,14.364464000000002,-2.906889,0.8525939,1005.20374,0,0
31.6,14.799417000000002,-0.7428719,1.415987,1005.1958,0,0
31.64,13.4849615,-0.29004872,1.998318,1005.19324,0,0
31.68,10.989893,-2.1919045,1.3355004,1005.18335,0,0
31.72,9.871409,-2.9974527,1.2076705,1005.2158,0,0
31.76,9.216565,-3.0212848,1.704782,1005.2058,0,0
31.8,9.307372,-2.6161273,1.6195619,1005.1981,0,0
31.84,9.842701,-2.177604,1.7000457999999998,1005.2006,0,0
31.88,10.31589,-2.4778967,1.865749,1005.2181,0,0
31.92,10.521412,-2.8639877,1.150853,1005.1778,0,0
31.96,9.723622,-3.5265498,0.7295311999999999,1005.1933,0,0
32.0,9.77621,-3.9412405,-0.042176004,1005.2077,0,0
32.04,8.992329,-4.722956,-1.8128428,1005.20276,0,0
32.08,8.600392,-4.9946504,-1.566653,1005.1981,0,0
32.12,8.58128,-4.6323919999999985,-0.39725432,1005.22614,0,0
32.16,8.098529,-4.4750957,0.19928138,1005.19714,0,0
32.2,8.041178,-4.260600599999999,0.8573643,1005.1727,0,0
32.24,8.256276,-4.0747056000000015,1.0372722,1005.2058,0,0
32.28,8.351881,-3.9841406,1.434963,1005.1877,0,0
32.32,8.609996,-3.926942,1.908404,1005.2002,0,0
32.36,8.834655,-3.621882700000001,1.5438557,1005.2277,0,0
32.4,9.307863,-3.288224,0.97099346,1005.1802,0,0
32.44,9.718934,-2.7591364,0.43127197,1005.1878,0,0
32.48,10.110886,-2.4779098,0.00044180453,1005.1877,0,0
32.52,10.292524,-2.3730457,-0.20787135,1005.18713,0,0
32.56,9.934048,-2.4826767000000003,0.1708818,1005.1928,0,0
32.6,9.499092,-2.8449352,0.5496348000000001,1005.20764,0,0
32.64,9.107156,-3.2405596,0.8479030000000001,1005.1951,0,0
32.68,9.0259075,-3.474121,0.91418535,1005.1977,0,0
32.72,8.911199,-3.6123514,0.8242323,1005.1998,0,0
32.76,9.059381,-3.6028183,0.2561044,1005.2127,0,0
32.8,9.241019,-3.350191,0.511763,1005.2127,0,0
32.84,9.484798,-3.0594313,0.114073694,1005.1803,0,0
32.88,9.513484,-2.9926996,0.009917427,1005.21014,0,0
32.92,9.121548,-3.3692577000000004,0.42654577,1005.19965,0,0
32.96,9.145454,-3.3883242999999994,0.7011419,1005.20966,0,0
33.0,9.226718,-3.335892,0.64432985,1005.19476,0,0
33.04,9.150249,-3.3454258,0.6301272,1005.19775,0,0
33.08,9.145476,-3.2977602,0.36026683,1005.1898,0,0
33.12,9.398813,-3.2548614,0.35079873,1005.19965,0,0
33.16,9.403601,-3.1023316000000003,0.32239297,1005.19226,0,0
33.2,9.456186,-3.0260673,0.22297114,1005.19476,0,0
33.24,9.288899,-2.921203,0.36026955,1005.20264,0,0
33.28,9.164633,-3.016534,0.49283358,1005.19476,0,0
33.32,9.231557,-3.1404648,0.5969911,1005.2072,0,0
33.36,9.274583,-3.1404650000000003,0.39814684,1005.18964,0,0
33.4,9.207674,-3.1881308999999995,0.36500674,1005.1818,0,0
33.44,9.150324,-3.2262635,0.34133542,1005.1698,0,0
33.48,9.245927,-3.3025286,0.3366017,1005.21216,0,0
33.52,9.212476,-3.2786958,0.29399273,1005.2301,0,0
33.56,9.255503,-3.25963,0.37447828,1005.19476,0,0
33.6,9.121674,-3.3311286,0.47863582,1005.19965,0,0
33.64,9.202938,-3.231031,0.34607318,1005.2276,0,0
33.68,9.030872,-3.2405642999999995,0.54491895,1005.16473,0,0
33.72,9.011762,-3.4884253,0.68221736,1005.19965,0,0
33.76,9.078686,-3.464593,0.61120194,1005.2047,0,0
33.8,9.245987,-3.292997,0.47863927,1005.19226,0,0
33.84,9.145618,-3.240565,0.37448305,1005.20465,0,0
33.88,9.226882000000002,-3.2834642,0.36974934,1005.19226,0,0
33.92,9.116955,-3.2739315,0.51651657,1005.20233,0,0
33.96,9.107498,-3.3978643,0.65382373,1005.2147,0,0
34.0,9.212666,-3.3883312000000005,0.7532473000000001,1005.21466,0,0
34.04,9.217456,-3.3216,0.60174733,1005.2072,0,0
34.08,9.207907,-3.2787010000000003,0.54493546,1005.1972,0,0
34.12,9.19358,-3.3692657999999995,0.63489026,1005.19934,0,0
34.16,9.203149,-3.283468,0.50232774,1005.20465,0,0
34.2,9.126684,-3.2977684000000003,0.5686106,1005.2072,0,0
34.24,9.083677,-3.4455316,0.5165332,1005.20465,0,0
34.28,9.112368,-3.4121660000000005,0.46445578,1005.17944,0,0
34.32,9.327471,-3.450299,0.4691912,1005.18964,0,0
34.36,9.466096,-3.1929047,0.3082224,1005.1843,0,0
34.4,9.294034,-3.0451422000000004,0.38870832,1005.21466,0,0
34.44,9.012036,-3.2453380000000003,0.57808554,1005.20715,0,0
34.48,9.035947,-3.397868,0.7674628000000001,1005.2147,0,0
34.52,9.24149,-3.354969,0.78640157,1005.19684,0,0
34.56,9.2654,-3.3311367,0.6064951,1005.19226,0,0
34.6,9.231953,-3.4789002,0.71538746,1005.2097,0,0
34.64,8.849581,-3.8983576,0.64910686,1005.1972,0,0
34.68,8.887828,-4.027055000000002,0.3792467,1005.19476,0,0
34.72,9.442297,-3.3359041,0.16146511,1005.17676,0,0
34.76,9.3371525,-3.288239,0.36504558,1005.1843,0,0
34.8,8.969121000000003,-3.5027344,0.44079715,1005.1843,0,0
34.84,8.98347,-3.3740373,0.63490874,1005.20215,0,0
34.88,9.179454,-3.2310412,0.7674731,1005.19226,0,0
34.92,9.236822,-3.3597383,0.7153956,1005.18713,0,0
34.96,9.312769,-3.2691607000000005,0.57804936,1005.2043,0,0
35.0,9.307979,-3.278694,0.40760994,1005.1743,0,0
35.04,9.02596,-3.464589,0.4975626,1005.20935,0,0
35.08,9.016391,-3.4693556000000005,0.52596813,1005.1843,0,0
35.12,9.1932335,-3.4645886,0.56857693,1005.1818,0,0
35.16,9.29838,-3.564686,0.7200769,1005.18964,0,0
35.2,9.484781,-3.3930898000000003,0.45021492,1005.19226,0,0
35.24,9.384397,-3.302525,0.39813563,1005.2197,0,0
35.28,9.073699,-3.345424,0.51649475,1005.2147,0,0
35.32,9.054569,-3.4121554,0.56383795,1005.1868,0,0
35.36,9.040221,-3.507486,0.7437444000000001,1005.1919,0,0
35.4,9.03543,-3.6409497,0.84316593,1005.1998,0,0
35.44,9.030641,-3.6361828,0.69639856,1005.2072,0,0
35.48,9.03541,-3.6314158,0.39339566,1005.2122,0,0
35.52,9.097537,-3.607583,0.36972272,1005.2068,0,0
35.56,9.092748,-3.5360844,0.36498743,1005.18964,0,0
35.6,9.07362,-3.5122511,0.5590970999999999,1005.19965,0,0
35.64,9.116628,-3.4598190000000004,0.5827683000000001,1005.20935,0,0
35.68,9.164416,-3.4264529,0.53542334,1005.23224,0,0
35.72,9.130948,-3.497951,0.6679858,1005.2044,0,0
35.76,9.216973,-3.5265503,0.60643756,1005.20685,0,0
35.8,9.231302,-3.5408494,0.540155,1005.19714,0,0
35.84,9.279091,-3.555149,0.6017013000000001,1005.21716,0,0
35.88,9.1452465,-3.6266472,0.5401530999999999,1005.1943,0,0
35.92,9.087879,-3.5456152000000003,0.525949,1005.17175,0,0
35.96,9.255545,-3.517025,0.3886853,1005.1918,0,0
36.0,9.207751,-3.4693596,0.48810825,1005.19684,0,0
36.04,9.064361,-3.5789907,0.72482896,1005.19965,0,0
36.08,8.983108999999997,-3.626656,0.6254069,1005.22186,0,0
36.12,9.179088,-3.416928,0.52125055,1005.2047,0,0
36.16,9.202991,-3.426461,0.56386054,1005.20215,0,0
36.2,9.169537,-3.459827,0.516517,1005.1918,0,0
36.24,9.226901,-3.4121618,0.53545517,1005.1818,0,0
36.28,9.198226,-3.550392,0.6585501,1005.19684,0,0
36.32,9.169552,-3.4788935,0.57806563,1005.22473,0,0
36.36,9.155217,-3.3597300000000003,0.45497152,1005.2072,0,0
36.4,9.183903,-3.2977648,0.45497212,1005.21936,0,0
36.44,9.222146,-3.254866,0.5023166,1005.21924,0,0
36.48,9.265169,-3.3072980000000003,0.52125466,1005.22925,0,0
36.52,9.155237,-3.3835633,0.5591303000000001,1005.21216,0,0
36.56,9.150465,-3.4550617,0.47864595,1005.21436,0,0
36.6,9.207827,-3.3597307,0.39816156,1005.19476,0,0
36.64,9.260409,-3.4073963,0.53545976,1005.22437,0,0
36.68,9.064442,-3.5265605000000004,0.62541384,1005.1893,0,0
36.72,9.054887,-3.426463,0.5449293000000001,1005.19934,0,0
36.76,9.131371,-3.2262676,0.47864825,1005.22687,0,0
36.8,9.145713,-3.178602,0.51178944,1005.1968,0,0
36.84,9.2269745,-3.340665,0.5591339,1005.1915,0,0
36.88,9.2461,-3.3072994,0.57807213,1005.19434,0,0
36.92,9.117051,-3.440763,0.5023221,1005.19934,0,0
36.96,9.198792999999998,-3.321611,0.3934753,1005.21716,0,0
37.0,9.179692,-3.350211100000001,0.36507052,1005.2068,0,0
37.04,9.170161,-3.4074101000000003,0.4124172,1005.19934,0,0
37.08,9.194084,-3.3502123,0.48343548,1005.18396,0,0
37.12,9.251459,-3.2644142999999994,0.47396818,1005.1993,0,0
37.16,9.203687,-3.3120809,0.5970651,1005.2019,0,0
37.2,9.175036,-3.445545,0.48817635,1005.1893,0,0
37.24,9.208521,-3.345448,0.5071163,1005.1918,0,0
37.28,9.179865,-3.307316,0.5260560000000001,1005.2143,0,0
37.32,9.141642,-3.3692818,0.53079194,1005.2043,0,0
37.36,9.060417,-3.493213,0.6207484999999999,1005.2242,0,0
37.4,9.098679,-3.5599453000000003,0.64442265,1005.1943,0,0
37.44,9.23731,-3.4503152000000004,0.5402674,1005.18677,0,0
37.48,9.160864,-3.4360160000000004,0.5308013,1005.20935,0,0
37.52,9.055733,-3.4932153,0.54974115,1005.21924,0,0
37.56,9.065314,-3.5027492,0.50713354,1005.22174,0,0
37.6,9.113131,-3.4932163,0.6112920999999999,1005.1963,0,0
37.64,9.170518,-3.4979837,0.682311,1005.22675,0,0
37.68,9.113185,-3.555183,0.6112970999999999,1005.21674,0,0
37.72,9.060623,-3.4932177,0.5544857,1005.1966,0,0
37.76,9.132349,-3.5599506,0.6397076999999999,1005.1893,0,0
37.8,9.194512,-3.46462,0.49294347,1005.22675,0,0
37.84,9.30925,-3.4550877,0.4313983,1005.20905,0,0
37.88,9.122855,-3.5361195,0.4361343,1005.1935,0,0
37.92,9.108544,-3.493221,0.5260906,1005.2043,0,0
37.96,9.117648,-3.555175,0.6112681,1005.21155,0,0
38.0,9.179791,-3.559942,0.6538783,1005.22156,0,0
38.04,9.117659,-3.5361092000000003,0.587597,1005.20135,0,0
38.08,9.189361,-3.5837748,0.47870615,1005.21655,0,0
38.12,9.189365,-3.5885415000000003,0.41242492,1005.21155,0,0
38.16,9.146352,-3.6219072,0.56392634,1005.2213,0,0
38.2,9.155915,-3.5599425000000005,0.50237954,1005.24146,0,0
38.24,9.050766,-3.6362073,0.6254745,1005.2138,0,0
38.28,9.06511,-3.545643,0.5402557,1005.18097,0,0
38.32,9.007757000000002,-3.7172394,0.5544594,1005.2211,0,0
38.36,9.026882,-3.6505075,0.52131903,1005.2035,0,0
38.4,9.098584,-3.5885425000000004,0.43610016,1005.2213,0,0
38.44,9.108148,-3.5456438,0.46924144,1005.2034,0,0
38.48,9.031675,-3.5885427000000005,0.52132034,1005.1935,0,0
38.52,9.132058,-3.5504103,0.5071176,1005.1963,0,0
38.56,9.103384,-3.4836786,0.48818046,1005.2185,0,0
38.6,9.1129465,-3.5075116000000004,0.46450874,1005.19867,0,0
38.64,9.151192,-3.5170448,0.44557175,1005.2134,0,0
38.68,9.165537,-3.5075119,0.4645098,1005.18286,0,0
38.72,9.160762,-3.5170449999999995,0.45504147,1005.2138,0,0
38.76,9.179886,-3.464613,0.37929142,1005.206,0,0
38.8,9.079514,-3.5170453,0.4076983,1005.2259,0,0
38.84,9.160776,-3.5170455,0.36508912,1005.1881,0,0
38.88,9.136882,-3.5694776,0.41716805,1005.2061,0,0
38.92,9.160787,-3.4312477,0.36509,1005.2085,0,0
38.96,9.174651,-3.4264696000000003,0.34610894,1005.20374,0,0
39.0,9.165077,-3.4312356,0.3887173,1005.2109,0,0
39.04,9.222422,-3.388336,0.3745129,1005.20557,0,0
39.08,9.203289,-3.5170329,0.38398042,1005.1884,0,0
39.12,9.155478,-3.4741337,0.41712004,1005.2155,0,0
39.16,9.064646,-3.4836664,0.45499393,1005.18787,0,0
39.2,9.083753,-3.5360982000000005,0.45972717,1005.1981,0,0
39.24,9.112416,-3.5313312999999993,0.4691946,1005.1806,0,0
39.28,9.18888,-3.4359999,0.39344293,1005.18744,0,0
39.32,9.145848,-3.4455326,0.44552013,1005.18286,0,0
39.36,9.217531,-3.4645984,0.36503395,1005.20245,0,0
39.4,9.217517,-3.488431,0.40290794,1005.2149,0,0
39.44,9.203165,-3.5122635,0.45971966,1005.18,0,0
39.48,9.270067999999998,-3.4169319,0.31768617,1005.203,0,0
39.52,9.227035,-3.3835660000000005,0.27507526,1005.2055,0,0
39.56,9.298719,-3.354966000000001,0.35555879999999995,1005.218,0,0
39.6,9.332163,-3.2977672,0.4786521,1005.19775,0,0
39.64,9.203095,-3.4359968000000003,0.5070573,1005.1955,0,0
39.68,9.188743,-3.1404697999999995,0.37922722,1005.1949,0,0
39.72,9.241307,-3.2167343999999995,0.39342913,1005.2224,0,0
39.76,9.207833,-3.3120654000000003,0.48338145,1005.18744,0,0
39.8,9.231718,-3.1500022,0.41236416,1005.20233,0,0
39.84,8.964037,-3.717222,0.6632864,1005.2224,0,0
39.88,8.959244,-3.7839534,0.34608006,1005.20245,0,0
39.92,9.4515505,-2.9736383,-0.09422079,1005.1824,0,0
39.96,9.22714,-3.3788018,0.40764818,1005.1949,0,0
40.0,9.16978,-3.4026344,0.24194369,1005.21027,0,0
40.04,9.112418,-3.564697,0.28928742,1005.20776,0,0
40.08,9.193671,-3.3263693,0.21827102,1005.2148,0,0
40.12,9.12675,-3.2167382,0.20880182,1005.1974,0,0
40.16,9.2223425,-3.1738393,0.27981755,1005.20233,0,0
40.2,9.251018,-3.2310379,0.22773875,1005.21747,0,0
40.24,9.451766,-3.1738393,0.18986318,1005.20734,0,0
40.28,9.518679,-3.1357067,0.13304996,1005.18994,0,0
40.32,9.251006,-3.2977695,0.26561296,1005.18964,0,0
40.36,9.06459,-3.4169333,0.27034703,1005.19714,0,0
40.4,9.035908,-3.3311353,0.40764445,1005.2199,0,0
40.44,9.179298,-3.1976712000000003,0.35083124,1005.20233,0,0
40.48,9.250992,-3.1976712000000003,0.37923735,1005.2198,0,0
40.52,9.236649,-3.1881382,0.33189294,1005.19965,0,0
40.56,9.198405,-3.1404722,0.2608765,1005.2099,0,0
40.6,9.188843,-3.2358034,0.22300097,1005.192,0,0
40.64,9.217518,-3.3073018,0.22300057,1005.1995,0,0
40.68,9.351348,-3.2262704,0.07149931,1005.20734,0,0
40.72,9.23185,-3.2501028,0.16145265,1005.2045,0,0
40.76,9.279644,-3.173838,0.22773395,1005.1895,0,0
40.8,9.29398,-3.1452384,0.17565514,1005.1846,0,0
40.84,9.155362,-3.2644022,0.24193652,1005.19714,0,0
40.88,9.1505785,-3.1929038,0.23246732,1005.1944,0,0
40.92,9.212711,-3.2072034,0.37449917,1005.19714,0,0
40.96,9.2657,-3.1929138,0.23723899,1005.197,0,0
41.0,9.155778,-3.2787123,0.27511543,1005.2171,0,0
41.04,9.246607,-3.2024477000000005,0.1094124,1005.20233,0,0
41.08,9.308755,-3.0880506000000003,0.2183048,1005.197,0,0
41.12,9.284871,-3.1547828,0.25144687,1005.19403,0,0
41.16,9.33268,-3.154783,0.2798544000000001,1005.1821,0,0
41.2,9.275334,-3.3025462999999995,0.25618353,1005.2046,0,0
41.24,9.227549,-3.2739475,0.3177319000000001,1005.2145,0,0
41.28,9.189324,-3.3263800000000003,0.3224675,1005.2096,0,0
41.32,9.241914,-3.3263803,0.26565573,1005.1742,0,0
41.36,9.347083,-3.2072167,0.27512570000000003,1005.197,0,0
41.4,9.409232,-3.1166525000000003,0.26565805,1005.19653,0,0
41.44,9.638676,-3.0022552000000005,0.02420459,1005.2146,0,0
41.48,9.418817,-3.0165553,0.21831629,1005.2095,0,0
41.52,9.62436,-2.9069247000000003,0.31773996,1005.17664,0,0
41.56,9.633932,-2.8449597,0.32247543,1005.2095,0,0
41.6,9.337597,-2.897392,0.7769794,1005.22406,0,0
41.64,9.610059,-2.668598,1.0799825,1005.2016,0,0
41.68,9.461897,-2.6542983,0.8716698,1005.1811,0,0
41.72,9.256379,-2.7639294,0.89534307,1005.212,0,0
41.76,9.232492,-2.6590655,1.501348,1005.2214,0,0
41.8,9.361559,-2.3873723,1.5297555,1005.18646,0,0
41.84,8.936169,-2.4064388,1.5344911,1005.2239,0,0
41.88,9.089135,-2.1204455,2.0268705,1005.2214,0,0
41.92,9.461973,-1.8296859,2.2304509,1005.22406,0,0
41.96,9.208272,-1.9393075,2.0741818,1005.2166,0,0
42.0,9.189151,-2.020339,2.467137,1005.19867,0,0
42.04,9.098331,-2.0251055,2.4671369,1005.20355,0,0
42.08,9.122228,-2.0108058,2.5997,1005.20105,0,0
42.12,9.256061,-1.8153768,2.8790295,1005.21906,0,0
42.16,9.20348,-1.8821084,2.8080132,1005.19617,0,0
42.2,9.308634,-1.9297743000000005,3.1110147999999995,1005.21655,0,0
42.24,9.107879,-1.9059415,2.8837633,1005.19867,0,0
42.28,9.342087,-1.7963104,2.9358416000000003,1005.21606,0,0
42.32,8.840205000000003,-1.9250073,2.907435,1005.19867,0,0
42.36,8.883221,-2.0918367,3.0778732000000004,1005.1958,0,0
42.4,8.887998,-1.9154742,2.7843400000000003,1005.2015,0,0
42.44,8.840198,-1.8678083,3.219905,1005.196,0,0
42.48,8.749378,-1.9488401,2.9926531,1005.21356,0,0
42.52,8.615541,-2.3968961,2.5760255,1005.19086,0,0
42.56,8.730253999999999,-2.592325,2.306164,1005.1933,0,0
42.6,8.75415,-3.0689805,2.3061638,1005.20105,0,0
42.64,9.404202,-2.9736495,2.1167874,1005.1933,0,0
42.68,9.700547,-2.6018581000000003,1.5439242,1005.2085,0,0
42.72,9.480674,-2.7782204,1.3214066999999998,1005.2033,0,0
42.76,9.117407,-3.3359075,1.2361873,1005.2214,0,0
42.8,9.495008,-3.178611,1.0894206,1005.21106,0,0
42.84,9.542804,-3.4503047,1.1130924,1005.239,0,0
42.88,9.150858,-3.6600332,1.3498124,1005.2183,0,0
42.92,9.064817,-3.7648973,1.3876874,1005.1884,0,0
42.96,8.97983,-3.674358400000002,1.7854732,1005.21356,0,0
43.0,9.1854,-3.3121013999999995,1.3215053,1005.2033,0,0
43.04,9.199777,-3.3216352,1.0611163,1005.1983,0,0
43.08,8.807875,-3.7315602,1.2836373,1005.2283,0,0
43.12,8.769673,-3.969889,1.312047,1005.1983,0,0
43.16,8.984801,-4.065221299999998,1.0895334,1005.23334,0,0
43.2,9.176035,-4.0842886,1.1842252,1005.193,0,0
43.24,9.161733,-4.2368190000000014,0.8906956,1005.1933,0,0
43.28,8.822405,-4.38935,1.0137937,1005.2258,0,0
43.32,8.779428,-4.2606535,0.7392019000000001,1005.2006,0,0
43.36,8.502238,-4.2225223,1.0469416,1005.1881,0,0
43.4,8.894221,-3.9079301,1.3546816000000002,1005.19775,0,0
43.44,9.056771,-3.9984958,0.74394685,1005.2156,0,0
43.48,8.540591000000001,-4.60385,0.8244353000000001,1005.2058,0,0
43.52,8.306416,-4.780213400000001,1.3357542,1005.2156,0,0
43.56,8.316016000000001,-4.875545,0.93333364,1005.20306,0,0
43.6,8.311276,-4.7563825,0.96647805,1005.208,0,0
43.64,8.622003999999999,-4.279728,1.0043569,1005.19006,0,0
43.68,8.478646000000001,-4.465624299999999,0.76290566,1005.1931,0,0
43.72,9.018803,-4.260663,0.5072513,1005.19525,0,0
43.76,9.162239,-3.9174721,0.9522892,1005.2156,0,0
43.8,8.808567,-4.332164,0.9002139000000001,1005.218,0,0
43.84,8.54095,-4.494228,0.7297800999999999,1005.218,0,0
43.88,8.459729,-4.8612533,1.207958,1005.19495,0,0
43.92,8.985548,-4.470397,0.43625394,1005.2001,0,0
43.96,9.2474785,-4.146248,0.16630517,1005.2205,0,0
44.0,9.032388,-4.317844,0.8054498000000001,1005.20746,0,0
44.04,8.540068,-4.5180387,0.80071545,1005.2205,0,0
44.08,8.516169999999999,-4.570471,1.4445944,1005.2156,0,0
44.12,8.578307,-4.570471,1.335703,1005.1951,0,0
44.16,8.487491,-5.1090918,1.2788903,1005.1948,0,0
44.2,8.391894,-4.90413,0.9569508,1005.21014,0,0
44.24,8.731259,-4.9374957,0.63501126,1005.21014,0,0
44.28,8.697802000000001,-5.037594,0.44563505,1005.18475,0,0
44.32,8.49705,-4.8421650000000005,0.6681521,1005.2226,0,0
44.36,8.630884,-4.4799066,0.9853572,1005.20483,0,0
44.4,8.764719,-3.8745534,0.8101843000000001,1005.1675,0,0
44.44,8.798178,-3.8316543,0.75810575,1005.21014,0,0
44.48,9.156663,-4.0032510000000014,0.8480594000000001,1005.1918,0,0
44.52,9.123203,-4.127181,0.54032314,1005.20514,0,0
44.56,8.783838000000001,-4.417941000000001,1.089514,1005.1948,0,0
44.6,8.955912,-4.375042,1.3404375,1005.19214,0,0
44.64,9.113645,-3.860254,0.8433251,1005.1948,0,0
44.68,9.180562,-4.355976,1.0563732,1005.1972,0,0
44.72,9.156663,-4.0270834,0.48351032,1005.20966,0,0
44.76,9.433891,-3.7553897,0.2988685,1005.1843,0,0
44.8,9.137543,-3.6266928,0.8954035,1005.2068,0,0
44.84,8.97503,-4.1033483,1.3167655,1005.20166,0,0
44.88,8.822076,-3.8364213,1.2031398000000002,1005.1743,0,0
44.92,8.7264805,-4.1033483,1.5392823999999998,1005.16187,0,0
44.96,8.7550955,-3.8697855,1.5582142,1005.1837,0,0
45.0,8.817231,-3.5504258,1.4682603,1005.2043,0,0
45.04,8.8124485,-3.6981895,1.5582138,1005.19934,0,0
45.08,8.874584,-3.5551925000000004,0.8953969999999999,1005.1918,0,0
45.12,8.912818,-3.679123,0.31306493,1005.19965,0,0
45.16,9.142247,-3.6076243,0.54978496,1005.19934,0,0
45.2,9.299978,-3.36453,0.21364199,1005.22174,0,0
45.24,9.457709,-3.3120978,0.20890734,1005.2068,0,0
45.28,9.400349,-3.3025644,0.42195532,1005.20184,0,0
45.32,9.405127,-3.092836,0.41722068,1005.2093,0,0
45.36,9.314308,-2.983205,0.4645645000000001,1005.1867,0,0
45.4,9.19003,-3.2501323,0.6492061,1005.1987,0,0
45.44,9.228265,-3.2930312000000006,0.56398654,1005.1968,0,0
45.48,9.371658,-3.1214352,0.49297026,1005.1888,0,0
45.52,9.237821,-3.1500344,0.56398606,1005.20416,0,0
45.56,9.185241,-3.1214352,0.40775055,1005.20416,0,0
45.6,9.170898,-3.207233,0.51664156,1005.1788,0,0
45.64,9.204354,-3.2310658,0.71075195,1005.1967,0,0
45.68,8.979702,-3.3406962999999994,0.81964296,1005.1888,0,0
45.72,8.903222,-3.1976998,0.80543965,1005.1786,0,0
45.76,8.864981,-3.278731,0.9569403,1005.18585,0,0
45.8,8.912776,-3.3883617,1.1226442,1005.1913,0,0
45.84,9.065727,-3.2596648,0.9522055,1005.1988,0,0
45.88,9.256918,-3.3502295,1.1273781,1005.1982,0,0
45.92,9.113521,-3.4264941,0.9332674,1005.1888,0,0
45.96,9.017408,-3.626677,0.85273534,1005.2063,0,0
46.0,8.850094,-3.6028435,0.45504323,1005.21375,0,0
46.04,9.098622,-3.8030384,0.5023853,1005.2085,0,0
46.08,9.256331,-3.455079,0.1899124,1005.2138,0,0
46.12,9.132036,-3.5837755,0.4266308,1005.2163,0,0
46.16,8.864345,-3.779204,0.5307856,1005.1983,0,0
46.2,9.1319895,-3.6695726,0.85745734,1005.1987,0,0
46.24,9.337501,-3.5504081,0.9379404,1005.2013,0,0
46.28,9.433072,-3.2882466,0.82904685,1005.2088,0,0
46.32,9.194061,-3.4550757000000005,0.79116964,1005.1885,0,0
46.36,9.064983,-3.5170405,0.78643316,1005.2038,0,0
46.4,8.797292,-3.6409705,1.0042137,1005.19324,0,0
46.44,8.935884,-3.6886353,1.089431,1005.19073,0,0
46.48,9.084035,-3.5122721,1.008944,1005.19073,0,0
46.52,9.198728,-3.4264739,0.76748735,1005.1982,0,0
46.56,9.303862,-3.2739434,0.8669079,1005.1935,0,0
46.6,9.189123,-3.3168416,0.81956154,1005.216,0,0
46.64,9.141303,-3.3931062000000005,0.90477896,1005.20074,0,0
46.68,9.146063,-3.4550712,0.8384953000000002,1005.1983,0,0
46.72,9.064782,-3.5837672,0.86689967,1005.20325,0,0
46.76,9.036081,-3.7458298,0.78641266,1005.1857,0,0
46.8,8.973921,-3.6790974,0.6301751999999999,1005.1955,0,0
46.84,8.902201,-3.7791944,0.6775171999999999,1005.20264,0,0
46.88,8.911736999999997,-3.8077934,0.65857744,1005.208,0,0
46.92,8.887818,-3.8459256,0.6491068,1005.2102,0,0
46.96,8.841244,-3.8316557,0.8196573,1005.20013,0,0
47.0,8.999002,-3.5980952000000004,0.73444045,1005.1905,0,0
47.04,9.132866,-3.5599632000000003,0.6965678000000001,1005.2055,1,2
47.08,9.12811,-3.5742633,0.8670085999999999,1005.21826,1,2
47.12,9.400586,-3.188173,0.80546385,1005.21576,1,2
47.16,9.720858,-2.992745,1.3593913,1005.2077,1,2
47.2,9.520132,-2.8449821,1.2647057,1005.1952,1,2
47.24,9.333748,-2.6781535,0.7723303,1005.20264,1,2
47.28,9.094781,-2.8545167,1.0611311,1005.2251,1,2
47.32,8.980093,-3.1357443,1.4162139,1005.2052,1,2
47.36,9.367282,-3.026114,1.416216,1005.1927,1,2
47.4,9.505924,-3.021348,1.2173737,1005.2202,1,2
47.44,9.372116,-3.3883736000000004,1.3073298999999998,1005.2202,1,2
47.48,8.143734,-4.9661045,1.0564089,1005.2153,1,2
47.52,6.8675504,-6.434205,-0.4065199,1005.1927,1,2
47.56,6.4469543,-8.664954,-0.8846924,1005.1927,1,2
47.6,6.207989,-8.955715,-0.8941589,1005.185,1,2
47.64,6.604739,-10.4619465,-0.8184059,1005.2027,1,2
47.68,8.559707000000001,-9.584902,-1.2302966999999998,1005.21265,1,2
47.72,11.250761,-6.882264,-0.46805525,1005.1772,1,2
47.76,12.412282,-4.3607564000000005,0.27051446,1005.1874,1,2
47.8,12.020363,-3.2167833,0.56878424,1005.1952,1,2
47.84,10.949713,-2.7496614,1.5488083,1005.2174,1,2
47.88,9.96032,-2.039445,1.8707504,1005.21246,1,2
47.92,10.113301,-0.9479043,2.386803,1005.20746,1,2
47.96,10.00718,-0.4473921,2.9169679,1005.1825,1,2
48.0,9.725159,-0.5474895000000001,2.5098078,1005.19464,1,2
48.04,10.451676,-0.59515476,1.7570366000000002,1005.1999,1,2
48.08,11.617936,-0.30439442,1.1036874,1005.19745,1,2
48.12,13.348214000000002,-1.467434,2.1215835,1005.2024,1,2
48.16,15.154966,-3.0308645,2.5192723,1005.2177,1,2
48.2,15.092815,-3.374056,1.922736,1005.1871,1,2
48.24,14.7916765,-5.204414,1.7901716,1005.18744,1,2
48.28,14.62437,-7.997616000000002,1.7428262,1005.19775,1,2
48.32,13.534563,-10.724086,1.9558735,1005.19244,1,2
48.36,11.522254,-9.203554,1.5108383,1005.20465,1,2
48.4,10.064401,-7.1015024,1.0942096,1005.16943,1,2
48.44,7.975613,-6.8536414999999975,1.2315062,1005.19434,1,2
48.48,6.9097050000000015,-6.7058773,1.8611809,1005.1999,1,2
48.52,5.886814,-5.685834,2.0410872,1005.1971,1,2
48.56,5.1315928,-5.166279,1.0610641,1005.1969,1,2
48.6,4.7205167,-5.26161,-0.14621021,1005.19995,1,2
48.64,4.8161,-5.6524673,-0.6906679,1005.19244,1,2
48.68,5.576077,-6.882239,-0.33085427,1005.18964,1,2
48.72,7.511885,-8.493333999999999,-0.103604004,1005.1825,1,2
48.76,10.389315,-10.099664,0.95690155,1005.1823,1,2
48.8,12.865241,-9.527676,3.7596679,1005.1796,1,2
48.84,13.921565,-6.300717400000001,3.2956953,1005.17194,1,2
48.88,13.543948,-5.8574265999999975,1.6670587,1005.17694,1,2
48.92,13.462679,-6.44848,2.1547012000000003,1005.1894,1,2
48.96,13.477996,-6.6058005999999985,3.5182996,1005.1823,1,2
49.0,11.709496,-4.1605573,3.3573322,1005.2021,1,2
49.04,10.629284,-3.2263126,3.7408211,1005.1994,1,2
49.08,9.400902,-3.2882786,3.4378219,1005.18195,1,2
49.12,9.553883,-2.2205703,3.328933,1005.2021,1,2
49.16,10.342575,-0.58087546,2.9738548,1005.1894,1,2
49.2,10.538571,0.072142124,2.609308,1005.1846,1,2
49.24,11.652295,0.03877549,1.0422225,1005.17694,1,2
49.28,12.966765,-0.52844536,0.50250274,1005.1792,1,2
49.32,14.152183,-1.8678484,2.0506554,1005.17,1,2
49.36,14.969555,-4.2987933,3.6745586,1005.1444,1,2
49.4,14.792729,-5.628663,4.3610497000000015,1005.17694,1,2
49.44,14.266975,-6.315048,3.7739859,1005.162,1,2
49.48,13.765122,-8.274103,3.4236422,1005.16693,1,2
49.52,13.693454,-11.18647,3.8166006,1005.1821,1,2
49.56,12.0826845,-11.939588,3.281615,1005.1697,1,2
49.6,10.897321,-9.603975,3.802402,1005.19434,1,2
49.64,10.209055,-7.325561,4.782426999999998,1005.19434,1,2
49.68,9.477772,-6.496181,4.3800040000000005,1005.19434,1,2
49.72,8.263726,-5.995693,3.210609,1005.2096,1,2
49.76,6.609941,-5.285476999999998,3.1680014,1005.1846,1,2
49.8,5.410235,-5.252112,2.888674,1005.2019,1,2
49.84,4.1961913,-5.4523077,2.0459523,1005.19745,1,2
49.88,3.3693089999999994,-5.704936,1.3926063999999998,1005.17444,1,2
49.92,3.0729911,-6.515251,1.2079673,1005.17944,1,2
49.96,4.6539519999999985,-7.2302065,1.3735659,1005.1816,1,2
50.0,6.575413,-8.464744999999999,0.3793392,1005.1821,1,2
50.04,10.059871,-9.856578,1.4209063,1005.15424,1,2
50.08,16.503025,-7.363668400000001,-5.0084167,1005.17194,1,2
50.12,17.932167,-5.900335299999999,-8.171000999999999,1005.16943,1,2
50.16,16.828012,-5.9194007000000015,-4.449761,1005.20416,1,2
50.2,14.815696,-5.771637,0.68233204,1005.2249,1,2
50.24,12.975451,-5.3235803,0.25623363,1005.22186,1,2
50.28,11.756582,-5.047119,0.28463832,1005.2191,1,2
50.32,10.642867,-4.4084005,1.0137347,1005.21686,1,2
50.36,10.164866,-3.8364127,1.6623462,1005.20685,1,2
50.4,11.1494875,-3.0356307,1.4350931999999998,1005.20435,1,2
50.44,12.497372,-1.3816351,0.5781641,1005.20435,1,2
50.48,12.984891,-0.91927856,1.1131499,1005.19434,1,2
50.52,12.330037,-2.0775514,3.0684574,1005.22437,1,2
50.56,11.249783,-4.2797003,4.862794999999998,1005.1894,1,2
50.6,10.896059,-5.8097650000000005,6.993275,1005.2024,1,2
50.64,9.978316,-7.0109367,6.8749137000000005,1005.18445,1,2
50.68,8.831142,-7.7354527000000015,6.704472999999999,1005.21936,1,2
50.72,8.324461999999999,-7.7402190000000015,6.249968,1005.2146,1,2
50.76,8.529973,-7.1157994,5.729182,1005.2024,1,2
50.8,8.706808,-7.4637575,5.49246,1005.20935,1,2
50.84,8.687667,-6.8298054000000015,5.7102404,1005.18695,1,2
50.88,9.007895,-6.033789,5.293611,1005.2024,1,2
50.92,9.280324,-5.5237675,4.5408387,1005.1996,1,2
50.96,9.270744,-5.9479904,4.7112756,1005.19684,1,2
51.0,8.821418,-6.4151120000000015,4.5550385,1005.1917,1,2
51.04,8.534614999999999,-6.7869034,4.701803,1005.20465,1,2
51.08,8.429439,-7.130095,4.091063,1005.2024,1,2
51.12,8.071841000000001,-7.1730156,3.3289053,1005.2174,1,2
51.16,8.243926,-6.086241200000001,3.5372202000000006,1005.1994,1,2
51.2,9.596622,-5.4904213,1.9275235,1005.19995,1,2
51.24,10.404421,-5.099564,1.2647079,1005.20435,1,2
51.28,10.762916,-4.756373,1.2789118,1005.19183,1,2
51.32,10.332745,-4.9232025,2.0979652,1005.1894,1,2
51.36,9.639685,-5.4951897,2.1547792,1005.20465,1,2
51.4,9.367242999999998,-6.0719433,1.9843411,1005.2174,1,2
51.44,8.760222,-5.8431487,1.463558,1005.1996,1,2
51.48,8.573821,-5.9861455,0.961712,1005.17694,1,2
51.52,7.9142175,-6.2149405,0.42672524,1005.17694,1,2
51.56,6.7240577,-6.038578,0.24681889,1005.18,1,2
51.6,6.260427,-5.795484,-1.6516764,1005.2024,0,0
51.64,6.1744013,-4.5704794,-3.99994,1005.18964,0,0
51.68,7.550996,-4.8278737000000005,-1.9830829,1005.21234,0,0
51.72,8.535644,-4.9565706,-1.3486718999999998,1005.2199,0,0
51.76,9.544192,-5.0805016,-1.3202643,1005.19464,0,0
51.8,11.288836,-4.1939225,-0.0040986426,1005.2227,0,0
51.84,11.269726,-3.5504372,0.0858559,1005.2049,0,0
51.88,11.288857,-2.5208614,1.7381643,1005.23206,0,0
51.92,11.12635,-2.3492653,2.6755772,1005.1996,0,0
51.96,10.782219,-2.5065622000000003,1.0753496,1005.19183,0,0
52.0,10.170415,-2.8783536,0.45987794,1005.1821,0,0
52.04,9.563389,-3.2167795,0.7202710999999999,1005.20996,0,0
52.08,9.214476,-3.5504386,1.293135,1005.2174,0,0
52.12,9.295146,-3.502759,1.1273773,1005.2144,0,0
52.16,9.065702,-3.8411844,0.3698714,1005.20935,0,0
52.2,9.213861,-4.0652122,0.6444654000000001,1005.20435,0,0
52.24,9.003536,-3.9460475,0.44088486,1005.2223,0,0
52.28,9.156478,-3.8745487,0.15681942,1005.23236,0,0
52.32,9.247282,-4.074744,0.07159897,1005.1941,0,0
52.36,9.051297,-4.155775,-0.08463746,1005.2019,0,0
52.4,8.683241,-4.074743700000001,-0.5628135,1005.2049,0,0
52.44,8.463357,-4.0080113,-0.28348467,1005.20996,0,0
52.48,8.582841,-4.0127783,0.2325643,1005.19434,0,0
52.52,8.955652,-3.8888466,0.29884475,1005.20435,0,0
52.56,8.960419,-3.8745468,0.39826608,1005.2221,0,0
52.6,9.041664,-3.9841778,0.77228296,1005.19183,0,0
52.64,8.883918,-3.898379,0.7817506999999999,1005.2119,0,0
52.68,8.812207,-3.9651105,0.81015587,1005.2199,0,0
52.72,8.70226,-3.8745458,0.6823259,1005.2146,0,0
52.76,8.816963000000003,-3.8888452,0.61604303,1005.2019,0,0
52.8,8.936444999999997,-3.7315483,0.6775890999999999,1005.2221,0,0
52.84,9.094167,-3.6266837,0.6870569000000001,1005.2091,0,0
52.88,9.0128975,-3.6934152,0.35564736,1005.1838,0,0
52.92,8.993766,-3.9126766,0.6397105,1005.19434,0,0
52.96,8.950735,-4.0413737,0.5686933000000001,1005.1917,0,0
53.0,8.902924,-4.117638,0.5497545,1005.20935,0,0
53.04,8.94115,-4.112871,0.47400287,1005.20435,0,0
53.08,9.041513,-4.0509057,0.4834706,1005.1768,0,0
53.12,8.879922,-3.9984958,0.3604603,1005.20166,0,0
53.16,9.01378,-3.7744684,0.49302587,1005.2146,0,0
53.2,9.104619,-3.6934373,0.34626138,1005.2118,0,0
53.24,9.042504,-3.8602679,0.6113900999999999,1005.1991,0,0
53.28,9.013851,-3.9127004,0.6445333000000001,1005.2019,0,0
53.32,9.047332,-3.898401,0.7155514000000001,1005.1991,0,0
53.36,8.870503999999997,-3.9937327000000007,0.6966161999999999,1005.20935,0,0
53.4,8.841847999999997,-3.9842002,0.72975904,1005.21686,0,0
53.44,8.937467999999997,-3.9651349,0.45990005,1005.19934,0,0
53.48,8.951831,-3.998501,0.6634816,1005.1917,0,0
53.52,9.033111,-4.093833,0.5972022,1005.1934,0,0
53.56,9.143069,-3.8412058,0.42203128,1005.20435,0,0
53.6,9.076177,-3.850739700000001,0.45990872,1005.1938,0,0
53.64,8.937586999999997,-3.6600778,0.28947234,1005.20166,0,0
53.68,9.028424,-3.9508383,0.40310016,1005.20123,0,0
53.72,9.167065,-3.7315774,0.38889927,1005.1941,0,0
53.76,9.167088,-3.755411,0.50252706,1005.2113,0,0
53.8,9.19101,-3.583815,0.4362476,1005.1933,0,0
53.84,9.152797,-3.6028821,0.46939063,1005.21625,0,0
53.88,9.033324,-3.6743813,0.45518962,1005.20416,0,0
53.92,9.047686,-3.8173783,0.5972236999999999,1005.2113,0,0
53.96,8.932995,-3.9413092000000014,0.5498818,1005.2266,0,0
54.0,8.861321,-3.9413102,0.5120087999999999,1005.1959,0,0
54.04,8.899586,-3.9651434,0.44572946,1005.20123,0,0
54.08,8.827909,-4.0366426,0.36051214,1005.2167,0,0
54.12,8.922985,-4.0509295,0.30838606,1005.1862,0,0
54.16,8.970786,-3.965131,0.29891747,1005.1962,0,0
54.2,8.980348,-3.9412987,0.3225897,1005.2088,0,0
54.24,8.975571,-3.955598,0.3746684,1005.2415,0,0
54.28,9.032929,-3.8983996,0.46935672,1005.20123,0,0
54.32,9.056832,-3.8697999,0.25157434,1005.1859,0,0
54.36,9.004257,-3.7601695,0.49776357,1005.1913,0,0
54.4,9.023378,-3.7601695,0.39834133,1005.21375,0,0
54.44,9.037721,-3.9222329,0.46462324,1005.20844,0,0
54.48,8.975585,-3.9508326,0.5593115,1005.21625,0,0
54.52,8.956469,-3.9889643,0.6066559,1005.2238,0,0
54.56,8.875214999999997,-3.9841979,0.42201427,1005.2008,0,0
54.6,8.856097,-3.9460657,0.36993605,1005.1934,0,0
54.64,8.946917,-4.0223308,0.4409523,1005.1983,0,0
54.68,9.009057,-3.9984982,0.37467092,1005.1959,0,0
54.72,8.999499,-4.0747633,0.40781197,1005.1983,0,0
54.76,8.989942999999998,-4.003265,0.393609,1005.2058,0,0
54.8,8.908688,-3.9365327,0.26578024,1005.2008,0,0
54.84,8.989947,-4.046164,0.21843646,1005.21326,0,0
54.88,8.951711999999997,-4.1033626000000005,0.28471836,1005.2109,0,0
54.92,9.013851,-4.0509305,0.35573462,1005.19543,0,0
54.96,8.956496000000003,-3.955599,0.32259402,1005.1779,0,0
55.0,9.1285715,-3.955599,0.4504232,1005.2208,0,0
55.04,8.98996,-3.660073,0.18529677,1005.20807,0,0
55.08,9.05688,-3.9174674,0.55458057,1005.19543,0,0
55.12,8.908676,-3.9222329,0.6255939,1005.1954,0,0
55.16,8.85132,-3.7125041,0.2799825,1005.20557,0,0
55.2,8.803523,-3.893634,0.30838904,1005.19293,0,0
55.24,8.9039,-3.8507345,0.3604676,1005.1855,0,0
55.28,9.061635,-3.841201,0.10954428,1005.2054,0,0
55.32,8.875223,-3.7887695,0.31785822,1005.2054,0,0
55.36,9.099875,-3.645773,0.30838948,1005.2206,0,0
55.4,9.3054085,-3.2406156000000004,0.1190134,1005.20276,0,0
55.44,9.305409,-3.4122117,0.07640388599999999,1005.19794,0,0
55.48,9.171576,-3.4598767999999995,0.49776605,1005.2128,0,0
55.52,9.319752,-3.4169781,0.5356414,1005.2125,0,0
55.56,9.238496,-3.4455774,0.26104602,1005.2004,0,0
55.6,9.372332,-3.355013,0.4030783,1005.1929,0,0
55.64,9.420132,-3.2453825000000003,0.53564173,1005.2001,0,0
55.68,9.415353,-3.4646437000000003,0.6918772,1005.1976,0,0
55.72,9.520509,-2.9498558,0.6540020999999999,1005.17737,0,0
55.76,9.190704,-3.3311803,0.6871430000000001,1005.18787,0,0
55.8,9.362779,-3.1071522000000003,1.0895674,1005.20264,0,0
55.84,9.35322,-3.1023857999999995,0.88125384,1005.19507,0,0
55.88,9.205047,-3.0928526,1.1937245,1005.1924,0,0
55.92,9.334103,-2.7877932,1.444648,1005.20764,0,0
55.96,8.913482,-2.6686292000000003,1.4351794,1005.1951,0,0
56.0,9.152473,-2.5017996,2.2116222000000003,1005.1976,0,0
56.04,9.26719,-2.5971305,2.2021534,1005.20276,0,0
56.08,8.980402999999997,-2.539932,2.4341393,1005.2104,0,0
56.12,9.013319,-2.492253,2.5713873,1005.1976,0,0
56.16,8.846005,-2.520852,2.3725405,1005.1751,0,0
56.2,8.97982,-2.2491581000000003,2.7512913,1005.1824,0,0
56.24,9.180552,-2.3444886,3.0211504,1005.1945,0,0
56.28,9.118395,-2.206258,3.0306172,1005.2178,0,0
56.32,9.056237,-2.38262,2.9264586,1005.1921,0,0
56.36,9.070556,-2.4064522,3.0164106,1005.197,0,0
56.4,8.869784,-2.2968209,2.6092498,1005.1968,0,0
56.44,9.467242,-2.3778517000000003,2.9501252,1005.182,0,0
56.48,9.065718,-2.3826182,2.9359202,1005.20233,0,0
56.52,8.974881,-2.3254187,2.969059,1005.1974,0,0
56.56,9.194732,-2.3397179,2.7418058,1005.1776,0,0
56.6,9.185155,-2.3921497000000005,2.4956150000000004,1005.2045,0,0
56.64,8.99872,-2.6114109,2.216283,1005.1647,0,0
56.68,9.275931,-2.8068392,2.4103923,1005.1672,0,0
56.72,9.27113,-2.492246,2.29203,1005.17664,0,0
56.76,9.0130005,-2.6733747,2.0269017,1005.18713,0,0
56.8,9.065558,-2.7210395,2.0837126,1005.1694,0,0
56.84,9.361886,-2.497011,2.1689303,1005.1946,0,0
56.88,9.204131,-2.697206,1.780707,1005.1995,0,0
56.92,9.290149,-2.725805,1.9558783,1005.1896,0,0
56.96,9.385725,-2.7496371,1.8895947,1005.184,0,0
57.0,9.189734,-2.9927309,1.6244663,1005.202,0,0
57.04,9.156256,-2.954598,1.5581827,1005.1768,0,0
57.08,9.223151,-2.7734683,1.4019455,1005.1641,0,0
57.12,9.3818245,-2.6924598,1.3357497,1005.1815,0,0
57.16,9.539574,-2.4445994,1.3594233,1005.1918,0,0
57.2,9.611288,-2.5685303,1.3120809,1005.1891,0,0
57.24,9.448792999999998,-2.6161962000000005,1.2742072,1005.1918,0,0
57.28,9.577865,-2.525632,1.1937239,1005.174,0,0
57.32,9.482286,-2.563765,1.1179751,1005.20404,0,0
57.36,9.362809,-2.6400304,1.2126648000000002,1005.1815,0,0
57.4,9.095157,-2.8354595,1.2836825,1005.17096,0,0
57.44,8.999578999999997,-2.9927566000000003,1.1795272,1005.1915,0,0
57.48,8.980476,-2.859293,1.0374966,1005.1739,0,0
57.52,9.09043,-2.9784577000000003,1.198468,1005.1639,0,0
57.56,9.128686,-2.8783603,0.86706126,1005.19135,0,0
57.6,9.44895,-2.7353642,0.8102501,1005.1938,0,0
57.64,9.358151,-2.7019987000000003,0.7960484,1005.2015,0,0
57.68,9.568484,-2.6591002999999995,1.1463963,1005.1734,0,0
57.72,9.51114,-2.611435,0.975959,1005.1884,0,0
57.76,9.7071295,-2.5923688,0.88600683,1005.1859,0,0
57.8,9.65457,-2.416007,0.9712278,1005.1764,0,0
57.84,9.224404,-2.4970388,1.2410903999999998,1005.18097,0,0
57.88,8.822918,-2.9736948,1.4446714,1005.1838,0,0
57.92,8.908977,-2.8354652,1.2126875,1005.20624,0,0
57.96,9.114522,-3.0976262,1.3405178,1005.19135,0,0
58.0,9.0524,-3.1881912,1.6103802,1005.17847,0,0
58.04,9.353551,-2.873599,1.5014912,1005.1934,0,0
58.08,9.640356,-2.5256407000000003,1.2126940000000002,1005.1477,0,0
58.12,9.731378,-2.5065796,0.94758624,1005.1884,0,0
58.16,9.54021,-2.539946,1.3121374,1005.1932,0,0
58.2,9.497224,-2.8021073,1.1701083,1005.1932,0,0
58.24,9.549827,-2.6162124,1.174845,1005.1834,0,0
58.28,9.568962,-2.6543453,1.1275023000000002,1005.2134,0,0
58.32,9.320445,-2.5494819,1.3926321000000002,1005.1578,0,0
58.36,9.478205,-2.606681,1.4541817,1005.2159,0,0
58.4,9.349176,-2.7401454,1.7429827000000002,1005.1932,0,0
58.44,9.36831,-2.5304174,1.9134227,1005.17566,0,0
58.48,9.29664,-2.3969543,1.795065,1005.1703,0,0
58.52,9.277553,-2.2062929,1.7666613999999998,1005.16815,0,0
58.56,9.024247,-2.5161197,2.1454162999999995,1005.17566,0,0
58.6,8.833081,-2.5733192000000003,2.2732475,1005.1778,0,0
58.64,8.747062,-2.597152,2.3963437,1005.16754,0,0
58.68,9.129476,-2.220595,2.547847,1005.1648,0,0
58.72,9.330255,-2.0346997,2.1785662,1005.14716,0,0
58.76,9.162987,-2.3683593,2.500508,1005.16705,0,0
58.8,9.153451,-2.4732242,2.8082464,1005.13715,0,0
58.84,9.201275,-2.2396636,2.5525913,1005.1496,0,0
58.88,9.277769,-2.2777965,2.4437013,1005.18207,0,0
58.92,9.282576,-2.4446267999999995,2.666221,1005.1648,0,0
58.96,9.296945,-2.3445299,2.7040987000000003,1005.17206,0,0
59.0,9.139237,-2.3683631000000003,2.6804292000000003,1005.1823,0,0
59.04,9.234853,-2.354064,2.5526020000000003,1005.15216,0,0
59.08,9.1297245,-2.5256605,2.6472926,1005.2027,0,0
59.12,9.114994,-2.6352818,2.5762408,1005.1946,0,0
59.16,9.091104,-2.6066825,2.6235855,1005.16705,0,0
59.2,9.244065,-2.3874211,2.628321,1005.17957,0,0
59.24,9.267973,-2.3111565,2.5951807,1005.18256,0,0
59.28,9.186726,-2.2920907,2.6377912,1005.1981,0,0
59.32,9.076799,-2.3302233,2.73248,1005.1692,0,0
59.36,9.196303,-2.2873244,2.8697786,1005.1951,0,0
59.4,9.086376,-2.3731227,2.794029,1005.17206,0,0
59.44,9.167642,-2.373123,2.9171240000000003,1005.1773,0,0
59.48,9.057715,-2.3778899,2.798765,1005.1773,0,0
59.52,9.081622,-2.3492906,2.7561560000000003,1005.17957,0,0
59.56,9.10075,-2.2777925,2.6898751,1005.20013,0,0
59.6,9.0912,-2.2873256,2.6851416,1005.14417,0,0
59.64,9.201143,-2.3874235,2.6377983,1005.16705,0,0
59.68,9.115115,-2.3397582000000003,2.6898775,1005.17664,0,0
59.72,9.148582,-2.4255564,2.5715183999999995,1005.2226,0,0
59.76,9.119913,-2.3540583,2.6330662,1005.1867,0,0
59.8,9.134261,-2.3159263,2.68988,1005.1567,0,0
59.84,9.239426,-2.2587278,2.7798345,1005.1567,0,0
59.88,9.182076,-2.287327,2.4058173,1005.187,0,0
59.92,9.29202,-2.2205958,2.685148,1005.14124,0,0
59.96,9.30159,-2.2158294,2.453163,1005.1666,0,0
60.0,9.210782,-2.416025,2.52418,1005.17914,0,0
60.04,9.139093,-2.439858,2.5478525000000003,1005.1966,0,0
60.08,9.206019,-2.3063946,2.367946,1005.1995,0,0
60.12,9.125317,-2.3207078,2.3964033,1005.1661,0,0
60.16,9.0632105,-2.3874402000000003,2.5195007,1005.1661,0,0
60.2,9.048902,-2.4160402000000003,2.6378634,1005.1941,0,0
60.24,9.115846,-2.1777132000000003,2.5242405,1005.1895,0,0
60.28,9.015504,-2.330244,2.6994164,1005.1855,0,0
60.32,9.182825,-2.273046,2.7514973,1005.1792,0,0
60.36,9.254553,-2.258747,2.5668583,1005.19116,0,0
60.4,9.182885,-2.2396815,2.5100482000000004,1005.17346,0,0
60.44,9.197255,-2.1967833,2.5952706,1005.1759,0,0
60.48,9.335899,-2.130052,2.3538184,1005.1636,0,0
60.52,9.245111,-2.2444503,2.5431972000000003,1005.1891,0,0
60.56,9.173446,-2.244451,2.7373104,1005.1485,0,0
60.6,9.221271,-2.153887,2.6662972000000003,1005.186,0,0
60.64,9.08747,-2.2873514,2.6710346,1005.16327,0,0
60.68,9.187872,-2.277819,2.7136467,1005.1684,0,0
60.72,9.144886,-2.2873528,2.7278528,1005.17596,0,0
60.76,9.21661,-2.3254862000000003,2.675776700000001,1005.1606,0,0
60.8,9.0589075,-2.249222,2.552685,1005.196,0,0
60.84,9.178434,-2.2539895,2.7325954,1005.18353,0,0
60.88,9.073308,-2.2682896,2.7373323,1005.16327,0,0
60.92,9.192833,-2.1920254,2.808351,1005.15283,0,0
60.96,9.125944,-2.2635245,2.775213,1005.1878,0,0
61.0,9.130754,-2.2635252,2.8178256,1005.1481,0,0
61.04,9.188143,-2.2730591,2.794156,1005.1454,0,0
61.08,9.102137,-2.1824954,2.832034,1005.191,0,0
61.12,9.162763,-2.2110577,2.8082237,1005.18567,0,0
61.16,9.148395,-2.1824577,2.827159,1005.18286,0,0
61.2,9.172264,-2.201523,2.751406,1005.1479,0,0
61.24,9.047958,-2.2253551,2.8650284,1005.1728,0,0
61.28,9.119624,-2.2110546,2.8934321,1005.1603,0,0
61.32,9.08136,-2.2205873,2.898164,1005.1959,0,0
61.36,9.114786,-2.2301195,2.8318794,1005.16815,0,0
61.4,9.239031,-2.2110527,2.789267,1005.1532,0,0
61.44,9.157745,-2.177686,2.8271396,1005.15283,0,0
61.48,9.143375,-2.2444167,2.7513866,1005.18005,0,0
61.52,9.172024,-2.2158165000000003,2.7466493,1005.1781,0,0
61.56,9.06206,-2.3683457000000003,2.8650067000000004,1005.15,0,0
61.6,9.062028,-2.2110488,2.8034565,1005.1751,0,0
61.64,9.05244,-2.1919818,2.7797818,1005.19507,0,0
61.68,8.889894,-2.301612,2.7040284,1005.15515,0,0
61.72,8.846848,-2.5637715,2.7276978,1005.1525,0,0
61.76,9.028453,-2.4207745,2.73243,1005.14014,0,0
61.8,9.1335745,-2.630502,2.6803484,1005.15515,0,0
61.84,9.090529,-2.4875047,2.7229552000000004,1005.15515,0,0
61.88,9.07616,-2.5923684,2.4625602000000004,1005.17035,0,0
61.92,9.138267,-2.4589038,2.4720266,1005.1349,0,0
61.96,9.10478,-2.663865,2.02699,1005.14514,0,0
62.0,9.004371,-2.6304986,2.169019,1005.16754,0,0
62.04,9.353267,-2.4207692,2.0175152,1005.17755,0,0
62.08,9.377135,-2.682929,2.1690133,1005.16785,0,0
62.12,9.220464,-2.9498823,1.9607966,1005.1651,0,0
62.16,8.986266,-3.1977434,1.7714217,1005.15765,0,0
62.2,9.010176,-3.3788730000000005,1.5773121,1005.152,0,0
62.24,9.043649,-3.5790687000000005,1.5820478,1005.1674,0,0
62.28,9.067558,-3.5981352,1.4068757,1005.17004,0,0
62.32,9.091471,-3.574303,1.3879395,1005.1695,0,0
62.36,9.101043,-3.5075712,1.31219,1005.1748,0,0
62.4,9.292247,-3.364575,1.1180806,1005.14764,0,0
62.44,9.445214,-3.3407423,1.2601138,1005.1845,0,0
62.48,9.507363,-3.4646730000000003,1.4636945,1005.1799,0,0
62.52,9.392661,-3.221579,1.4968364,1005.1418,0,0
62.56,9.000729,-3.4551408,1.4589622,1005.18506,0,0
62.6,8.828669,-3.6601028,1.4447602,1005.19507,0,0
62.64,8.809562,-3.641037,1.7098881,1005.1745,0,0
62.68,8.943407,-3.5647724000000003,1.7809052,1005.152,0,0
62.72,8.962541,-3.4408422,1.7856407,1005.1851,0,0
62.76,8.909976,-3.469442,1.681485,1005.167,0,0
62.8,9.062942,-3.4551425000000004,1.6672828999999998,1005.1894,0,0
62.84,9.029495,-3.4551427,1.7051593,1005.157,0,0
62.88,9.115544,-3.316913,1.6720196,1005.1645,0,0
62.92,9.125115,-3.2597146,1.6294111,1005.1742,0,0
62.96,9.1060095,-3.2072828,1.6578186999999998,1005.1596,0,0
63.0,9.067782,-3.1786835,1.7241014,1005.17426,0,0
63.04,9.039116,-3.283548,1.7098993999999998,1005.1867,0,0
63.08,8.991331,-3.2978482,1.5489308000000002,1005.18695,0,0
63.12,9.101438,-3.4313161,1.5820873,1005.1817,0,0
63.16,9.115798,-3.4074836000000004,1.6389021,1005.16693,0,0
63.2,9.2878895,-3.2644875,1.5347468,1005.1667,0,0
63.24,9.22099,-3.197756,1.3643099,1005.16425,0,0
63.28,9.087175,-3.226356,1.4211247,1005.19684,0,0
63.32,9.101533,-3.3026214,1.6010334,1005.16394,0,0
63.36,9.1158905,-3.2358902,1.6957234,1005.1644,0,0
63.4,9.048993,-3.1071935,1.7146627,1005.18695,0,0
63.44,9.0155525,-3.1310267000000005,1.7620083999999998,1005.1667,0,0
63.48,9.053809,-3.1691597,1.7620102,1005.1617,0,0
63.52,9.235462,-3.0881283,1.762012,1005.144,0,0
63.56,9.273717,-3.0309303,1.6436534,1005.16895,0,0
63.6,9.149462,-2.8736342999999995,1.4069348999999998,1005.17145,0,0
63.64,8.915271,-2.968966,1.3075143,1005.18695,0,0
63.68,8.896171,-2.9927993,1.5489706,1005.1637,0,0
63.72,9.182978,-2.8021374,1.582113,1005.18646,0,0
63.76,9.259472,-2.9070022,1.5915836,1005.16895,0,0
63.8,9.297729,-3.0023336,1.6294606000000005,1005.17145,0,0
63.84,9.292967,-3.002334,1.6578686000000002,1005.16425,0,0
63.88,9.221291,-3.0261674,1.4448223,1005.1817,0,0
63.92,9.082694,-3.050001,1.421152,1005.1388,0,0
63.96,9.226108,-3.1357994,1.5347794,1005.1692,0,0
64.0,9.259585,-3.088134,1.5631876,1005.17145,0,0
64.04,9.254824,-3.1215007000000004,1.6389397,1005.16144,0,0
64.08,9.207044,-3.1167343,1.5347846,1005.1692,0,0
64.12,9.125231,-3.135787,1.5584055,1005.17645,0,0
64.16,9.192144,-3.1071873,1.496858,1005.17145,0,0
64.2,9.192141,-3.1071873,1.5394671999999998,1005.1917,0,0
64.24,9.163458,-3.0928876,1.5631389999999998,1005.16595,0,0
64.28,9.168234,-3.1834521,1.6672956,1005.1611,0,0
64.32,9.149111,-3.226351,1.6057479,1005.1662,0,0
64.36,9.220803,-3.1500862,1.6625603,1005.1814,0,0
64.4,9.182562,-3.140553,1.6294191999999998,1005.19867,0,0
64.44,9.268595,-3.1739187,1.5726061000000002,1005.1358,0,0
64.48,9.172996,-3.2978492,1.6199497,1005.1762,0,0
64.52,9.249469,-3.3884134,1.7572471,1005.1588,0,0
64.56,9.368959,-3.274016,1.7241058,1005.16583,0,0
64.6,9.330718,-3.2930825,1.6246833,1005.1636,0,0
64.64,9.211219,-3.3407476000000003,1.6530892,1005.15393,0,0
64.68,9.373729,-3.3264480000000005,1.6152136,1005.17834,0,0
64.72,9.450201,-3.4027128,1.7241045,1005.1633,0,0
64.76,9.541013,-3.216817,1.7051666,1005.1739,0,0
64.8,9.497992,-3.173918,1.6578223,1005.15643,0,0
64.84,9.411951,-3.3169143,1.6104778,1005.1789,1,3
64.88,9.397608,-3.3598132000000005,1.5915399,1005.1611,1,3
64.92,9.531439,-3.4313116000000004,1.7241029,1005.15857,1,3
64.96,9.631812,-3.3979456,1.7051648999999998,1005.15826,1,3
65.0,9.698724,-3.445611,1.709899,1005.16846,1,3
65.04,9.655702,-3.4074783,1.586804,1005.1764,1,3
65.08,9.569662,-3.402712,1.5489284,1005.15826,1,3
65.12,9.569755,-3.4646792,1.7430475,1005.1662,1,3
65.16,9.651011,-3.4313135000000003,1.6957035,1005.1613,1,3
65.2,9.660571,-3.4551463,1.643625,1005.1508,1,3
65.24,9.713148,-3.5075784,1.7099067,1005.1706,1,3
65.28,9.784846,-3.4503796,1.6720313999999998,1005.16583,1,3
65.32,9.7035885,-3.3693480000000005,1.6625626,1005.1838,1,3
65.36,9.674911,-3.4313135000000003,1.6294218,1005.17834,1,3
65.4,9.636671,-3.3645816,1.5442026000000002,1005.16846,1,3
65.44,9.569755,-3.4837456,1.8377355,1005.1733,1,3
65.48,9.593653,-3.4360800000000005,1.9087516,1005.1581,1,3
65.52,9.69403,-3.3264492,1.9418925,1005.1481,1,3
65.56,9.69403,-3.3598151,1.7809228,1005.11786,1,3
65.6,9.665351,-3.4360800000000005,1.6815002,1005.1308,1,3
65.64,9.593653,-3.4837456,1.5773433,1005.1556,1,3
65.68,9.7035885,-3.4837456,1.6341562,1005.1278,1,3
65.72,9.69403,-3.4646792,1.7004379,1005.1281,1,3
65.76,9.722709,-3.4789788999999995,1.5915465,1005.1254,1,3
65.8,9.67969,-3.5600104,1.6152186000000002,1005.1308,1,3
65.84,9.660571,-3.4217803,1.7241098999999998,1005.14606,1,3
65.88,9.708369,-3.3645816,1.643625,1005.1256,1,3
65.92,9.636671,-3.5075784,1.6388906000000003,1005.1281,1,3
65.96,9.708369,-3.5504773000000003,1.6862346999999998,1005.12067,1,3
66.0,9.698809,-3.4599128,1.5820777,1005.12854,1,3
66.04,9.512397,-3.4885123,1.5442026000000002,1005.12067,1,3
66.08,9.579314,-3.5028120000000005,1.7288443,1005.1256,1,3
66.12,9.52709,-3.5600193,1.7241422999999998,1005.09784,1,3
66.16,9.417169,-3.488521,1.7146747,1005.09564,1,3
66.2,9.273789,-3.4170230000000004,1.5773784,1005.10834,1,3
66.24,9.259462,-3.5028214,1.5963172,1005.09814,1,3
66.28,9.460228,-3.4837557999999995,1.6815377,1005.0854,1,3
66.32,9.479361,-3.4885225,1.7714926,1005.10754,1,3
66.36,9.450695,-3.436091,1.6483994,1005.0699,1,3
66.4,9.312096,-3.3884254,1.5442439,1005.0729,1,3
66.44,9.259531,-3.3264606,1.5300417,1005.07513,1,3
66.48,9.221306,-3.4027257000000004,1.6957474,1005.0655,1,3
66.52,9.202201,-3.4742246,1.6673421000000002,1005.0327,1,3
66.56,9.336049,-3.4885244,1.5868584,1005.0526,1,3
66.6,9.489016,-3.4217932,1.6531413,1005.03973,1,3
66.64,9.527269,-3.1024342000000003,1.43536,1005.0406,1,3
66.68,9.446027,-2.9975703,1.2885947,1005.02997,1,3
66.72,9.297865,-3.1310341,1.4732378000000002,1005.0275,1,3
66.76,9.111465,-3.245432,1.8851321,1005.01746,1,3
66.8,9.063683,-3.302631,1.7904453000000002,1005.0076,1,3
66.84,8.920301,-3.4599273,1.7099616999999998,1005.00507,1,3
66.88,8.987233,-3.6362906,1.6720878,1005.01807,1,3
66.92,8.910769,-3.493294,1.4779783000000002,1005.0202,1,3
66.96,8.810408,-3.464695,1.283869,1005.02246,1,3
67.0,8.858217999999997,-3.6172252,1.4022304,1005.01025,1,3
67.04,9.030307,-3.5457273,1.4732478999999998,1005.01746,1,3
67.08,9.231071,-3.3645985,1.553734,1004.9853,1,3
67.12,9.210842,-3.2263412,1.4968194,1004.9823,1,3
67.16,9.091317,-3.2025075000000003,1.4826133,1004.9797,1,3
67.2,9.062608,-3.3026042,1.4684073999999998,1004.97217,1,3
67.24,9.172514,-3.2597048,1.4873424,1004.9776,1,3
67.28,9.225061,-3.29307,1.4778707,1004.9494,1,3
67.32,9.119878,-3.3645678,1.5630876,1004.9444,1,3
67.36,9.100725,-3.4026992,1.5346781,1004.9547,1,3
67.4,9.062457,-3.269235,1.3879088,1004.97003,1,3
67.44,9.038531,-3.3693316,1.4257816,1004.94476,1,3
67.48,8.962024000000003,-3.3883972,1.4731228,1004.9295,1,3
67.52,8.966773,-3.5504594,1.5157296999999998,1004.907,1,3
67.56,8.9906435,-3.5218596,1.421039,1004.92456,1,3
67.6,9.02407,-3.4980260000000003,1.3736919,1004.917,1,3
67.64,9.019261,-3.3264294000000003,1.368955,1004.9243,1,3
67.68,9.067033,-3.2310972,1.5015159,1004.9295,1,3
67.72,9.148257,-3.2692292000000003,1.5015128999999998,1004.94714,1,3
67.76,9.162566,-3.2882946000000004,1.6388078,1004.9268,1,3
67.8,9.148196,-3.2692277,1.5725235,1004.92725,1,3
67.84,8.980875,-3.3264258,1.4257542,1004.90186,1,3
67.88,8.961723,-3.4074562000000004,1.4068136,1004.91394,1,3
67.92,8.971252,-3.4598875,1.444686,1004.9096,1,3
67.96,9.052483,-3.3979220000000003,1.5156997,1004.8743,1,3
68.0,9.152826,-3.3025897000000004,1.4778215,1004.92694,1,3
68.04,9.10022,-3.2787564,1.454147,1004.88434,1,3
68.08,9.109746,-3.4169855000000005,1.52516,1004.8921,1,3
68.12,9.172753,-3.3264422,1.4163482,1004.8668,1,3
68.16,9.034142999999998,-3.4551396,1.4731616,1004.85645,1,3
68.2,9.029369,-3.3359756000000003,1.473162,1004.8515,1,3
68.24,9.043714,-3.3073766000000004,1.5157721000000002,1004.87213,1,3
68.28,9.034159,-3.3741086000000005,1.5489133999999998,1004.8494,1,3
68.32,9.086742,-3.3645756,1.4968354,1004.88153,1,3
68.36,9.144104,-3.3502762,1.4731637,1004.8946,1,3
68.4,9.11065,-3.2883108,1.5205082,1004.86694,1,3
68.44,9.139335,-3.3598094,1.4589615,1004.8288,1,3
68.48,9.062863,-3.2692447,1.4021492,1004.8416,1,3
68.52,9.048528999999998,-3.3026108999999995,1.4779,1004.8369,1,3
68.56,9.0724325,-3.2025132000000003,1.4873693,1004.8416,1,3
68.6,9.105897,-3.2358792000000003,1.548917,1004.8519,1,3
68.64,9.11546,-3.302611,1.5394486,1004.8316,1,3
68.68,9.048549,-3.2787786,1.5441836000000002,1004.8194,1,3
68.72,9.129809,-3.3312109,1.5678561000000002,1004.7967,1,3
68.76,9.129815,-3.2263467,1.5583878,1004.81885,1,3
68.8,9.101141,-3.0738168,1.487372,1004.8115,1,3
68.84,9.058128,-3.1214828,1.5252477,1004.8066,1,3
68.88,9.14895,-3.2644794,1.5205138,1004.7965,1,3
68.92,9.220651,-3.2549465,1.5962647,1004.8166,1,3
68.96,9.1919775,-3.1929812,1.5441867,1004.7866,1,3
69.0,9.168084,-3.0166187,1.5110464,1004.781,1,3
69.04,8.991235000000003,-3.0928838,1.5252501,1004.80695,1,3
69.08,8.924323,-3.202515,1.6578138999999998,1004.7764,1,3
69.12,8.987202,-3.2454324,1.7431008999999995,1004.7513,1,3
69.16,9.044592,-3.3359973,1.7289006999999998,1004.7764,1,3
69.2,9.173679,-3.1691687,1.6862942,1004.7436,1,3
69.24,9.293212,-3.0595388,1.610547,1004.76355,1,3
69.28,9.283682,-2.9499087000000004,1.4353766,1004.72363,1,3
69.32,9.063848,-3.021408,1.5632089,1004.74854,1,3
69.36,9.149918,-2.945144,1.6626346,1004.73615,1,3
69.4,9.202527,-3.0595422,1.7952008000000002,1004.7413,1,3
69.44,9.188222,-3.1358078,1.7289224,1004.73627,1,3
69.48,9.140458,-3.1310422000000004,1.6437061000000002,1004.72363,1,3
69.52,9.044893,-3.097677,1.5490208,1004.74115,1,3
69.56,9.073606,-3.1548767000000004,1.549024,1004.7189,1,3
69.6,9.169236,-3.202543,1.6058401000000002,1004.7189,1,3
69.64,9.174049,-3.2168434,1.6437182,1004.7239,1,3
69.68,9.188426,-3.1262798,1.6579249,1004.6912,1,3
69.72,9.178898,-3.2168448,1.6579278000000002,1004.71387,1,3
69.76,9.255409,-3.1358144,1.5443053,1004.70636,1,3
69.8,9.150286,-3.0786164,1.5963867,1004.69867,1,3
69.84,9.10252,-3.040485,1.4922327,1004.6841,1,3
69.88,9.121674,-3.3074129,1.6579398999999997,1004.6762,1,3
69.92,9.226864,-3.2025495,1.7147558999999997,1004.6764,1,3
69.96,9.322491,-3.1453514,1.5727268,1004.6483,1,3
70.0,9.222152,-3.140586,1.5064483999999998,1004.6816,1,3
70.04,8.983196000000003,-3.030956,1.4496387,1004.6891,1,3
70.08,8.959328999999997,-3.1882532,1.4922514,1004.66394,1,3
70.12,9.087779,-3.2359037,1.6200248,1004.6538,1,3
70.16,9.231181,-3.3169355000000005,1.7005106,1004.6538,1,3
70.2,9.322007,-3.1787055,1.5821512,1004.65155,1,3
70.24,9.121264,-3.1405733,1.3833071,1004.6363,1,3
70.28,8.93008,-3.169173,1.3643701,1004.629,1,3
70.32,8.896632,-3.2168388,1.5253409,1004.61676,1,3
70.36,9.106952,-3.2454386000000004,1.6531706000000002,1004.62427,1,3
70.4,9.135639,-3.3169365,1.7715314999999998,1004.61694,1,3
70.44,9.178668,-3.274038,1.5158745,1004.6114,1,3
70.48,9.068742,-3.2073066000000003,1.4543281,1004.61163,1,3
70.52,9.130886,-3.0404773,1.3833127,1004.58386,1,3
70.56,8.944484,-3.240673,1.515877,1004.5945,1,3
70.6,9.035307,-3.2073073,1.520612,1004.607,1,3
70.64,9.154813,-3.297872,1.6200354,1004.5871,1,3
70.68,9.293436,-3.1787080000000003,1.4685353,1004.5945,1,3
70.72,9.202628,-3.1644087000000005,1.454333,1004.5717,1,3
70.76,9.068803,-3.2883394,1.4353961000000002,1004.56964,1,3
70.8,9.040132,-3.2263746,1.5395538,1004.5871,1,3
70.84,9.102276,-3.1882424,1.5774295,1004.5746,1,3
70.88,9.078388,-3.1691763,1.6247747,1004.5746,1,3
70.92,9.135756,-3.1977756,1.6011034,1004.5925,1,3
70.96,9.097524,-3.2549746,1.5679633999999998,1004.5652,1,3
71.0,9.150109,-3.3741386,1.4922135,1004.56995,1,3
71.04,9.087982,-3.3884385000000004,1.520621,1004.555,1,3
71.08,9.064093,-3.2597418,1.4211993,1004.55756,1,3
71.12,8.992306,-3.3074052000000003,1.4495975,1004.52264,1,3
71.16,9.078349,-3.3264718,1.6342399,1004.5702,1,3
71.2,9.164391,-3.3264718,1.7005221,1004.54,1,3
71.24,9.178736,-3.2549736,1.591631,1004.5229,1,3
71.28,9.097483,-3.2454407,1.4495995000000002,1004.5229,1,3
71.32,9.006672,-3.2740400000000003,1.496944,1004.51544,1,3
71.36,8.997117,-3.278807,1.6011014,1004.53534,1,3
71.4,9.126176,-3.3121730000000005,1.69579,1004.5029,1,3
71.44,9.18354,-3.3217058,1.6673839,1004.53577,1,3
71.48,9.130967,-3.2645073,1.5916338,1004.51855,1,3
71.52,9.030596,-3.2502077000000003,1.6058377,1004.50824,1,3
71.56,9.111856,-3.2549746,1.4211962,1004.4756,1,3
71.6,9.135762,-3.350306,1.7099953999999995,1004.49817,1,3
71.64,9.178785,-3.1691768,1.6105733,1004.48334,1,3
71.68,9.174009,-3.2454417,1.6105738,1004.48364,1,3
71.72,9.121437,-3.2788079,1.5348238,1004.4711,1,3
71.76,9.044966,-3.2406754,1.5206211,1004.4738,1,3
71.8,9.126226,-3.2120762000000003,1.5537623,1004.47614,1,3
71.84,9.121452,-3.2502086,1.6247789,1004.4664,1,3
71.88,9.145355,-3.2835748,1.53956,1004.44867,1,3
71.92,9.1310215,-3.19301,1.4780132,1004.4487,1,3
71.96,9.05933,-3.2073102,1.4685448,1004.4667,1,3
72.0,9.059335,-3.3121746,1.5869055,1004.4667,1,3
72.04,9.221852,-3.2073104,1.5584995,1004.4262,1,3
72.08,9.193178,-3.178711,1.6011096000000002,1004.4395,1,3
72.12,9.073111,-3.1929967,1.4306185,1004.40424,1,3
72.16,8.996615,-3.2597282,1.5158361,1004.4046,1,3
72.2,9.087414,-3.1882296,1.4874281,1004.4018,1,3
72.24,9.206893,-3.1929955000000003,1.6152555,1004.4148,1,3
72.28,9.197314,-3.183462,1.5063626,1004.3893,1,3
72.32,9.101703,-3.231127,1.5016266,1004.4195,1,3
72.36,9.130363,-3.1643949,1.4211402,1004.4195,1,3
72.4,9.096887,-3.1739275,1.4921546,1004.3996,1,3
72.44,9.08731,-3.240659,1.5442314,1004.3876,1,3
72.48,9.1446495,-3.2787910000000005,1.605777,1004.39044,1,3
72.52,9.235448,-3.1500936,1.5063528999999998,1004.39526,1,3
72.56,9.178074,-3.159626,1.4874138,1004.37256,1,3
72.6,9.144596,-3.1596255,1.4874120000000002,1004.4053,1,3
72.64,9.063325,-3.1929913,1.539489,1004.37006,1,3
72.68,9.101544,-3.1977572,1.5726284,1004.36285,1,3
72.72,9.087188,-3.2072902,1.5678922,1004.373,1,3
72.76,9.206665,-3.20729,1.572625,1004.36536,1,3
72.8,9.173189,-3.1119578,1.4921386,1004.3808,1,3
72.84,9.19229,-3.131024,1.4353242,1004.3657,1,3
72.88,9.2591915,-3.1596227000000003,1.5016042,1004.3483,1,3
72.92,9.192257,-3.12149,1.5678843,1004.3332,1,3
72.96,9.110982,-3.1643887000000004,1.5347419,1004.3431,1,3
73.0,9.101404,-3.131022,1.4873961000000002,1004.3358,1,3
73.04,9.096607,-3.1310215,1.4731914,1004.3283,1,3
73.08,9.0583515,-3.1071885,1.5536747,1004.3333,1,3
73.12,9.158935,-3.2406573,1.5016152,1004.3159,1,3
73.16,9.268862,-3.1596255,1.4921457,1004.30597,1,3
73.2,9.264073,-3.2358902,1.4305975,1004.3159,1,3
73.24,9.154129,-3.0928934,1.3264399,1004.3159,1,3
73.28,9.039406,-3.0881264,1.5158153,1004.30365,1,3
73.32,9.044176,-3.0118616,1.4732047,1004.31116,1,3
73.36,9.120645,-3.1119587,1.5016105,1004.2915,1,3
73.4,9.2640295,-3.19299,1.5489537,1004.27625,1,3
73.44,9.316599,-3.2740214,1.5584216,1004.2688,1,3
73.48,9.2353325,-2.9927943,1.3217006000000002,1004.26373,1,3
73.52,9.149289,-2.921296,1.3879817,1004.2663,1,3
73.56,9.101481,-2.9737275000000003,1.5868257,1004.2541,1,3
73.6,9.144491,-3.126257,1.6104969999999998,1004.26434,1,3
73.64,9.206619,-3.1596227000000003,1.5773553,1004.2613,1,3
73.68,9.350005,-3.1071906000000005,1.5016040000000002,1004.2499,1,3
73.72,9.354776,-3.035692,1.4779311000000002,1004.25464,1,3
73.76,9.096657,-3.0166254,1.4116488,1004.2421,1,3
73.8,8.938915,-3.1691551,1.4921328,1004.2649,1,3
73.84,9.034503,-3.1405554,1.492132,1004.25494,1,3
73.88,9.235246,-3.1214892999999995,1.5773505,1004.2375,1,3
73.92,9.359511,-3.188221,1.4684583999999998,1004.2153,1,3
73.96,9.3642845,-3.073823,1.250675,1004.21497,1,3
74.0,9.096605,-3.1596208,1.3406278,1004.21246,1,3
74.04,9.01534,-3.1167219,1.3879712,1004.2297,1,3
74.08,9.048791,-3.2454185,1.4400488,1004.213,1,3
74.12,9.210943,-3.2883089,1.5820478,1004.1981,1,3
74.16,9.2587185,-3.235876,1.5915146,1004.1979,1,3
74.2,9.186998,-3.1500776000000004,1.3642611999999998,1004.16046,1,3
74.24,9.10094,-3.1071777000000003,1.2601022,1004.17035,1,3
74.28,9.000541,-3.1834424,1.3926632,1004.1729,1,3
74.32,9.134353,-3.178675,1.4494743,1004.16785,1,3
74.36,9.158231,-3.350271,1.4920818999999998,1004.2116,1,3
74.4,9.105628,-3.1834407,1.5062829,1004.1409,1,3
74.44,9.0673685,-3.1262414,1.4305304,1004.1811,1,3
74.48,9.033888,-3.1739066000000005,1.4352629,1004.13104,1,3
74.52,9.110341,-3.1882055,1.4920735,1004.16113,1,3
74.56,9.110318,-3.2120378,1.487337,1004.1517,1,3
74.6,9.167655,-3.3598003,1.4589286,1004.1165,1,3
74.64,9.129395,-3.3550334000000004,1.392645,1004.1318,1,3
74.68,9.14849,-3.3121339999999995,1.4068459,1004.1215,1,3
74.72,9.11501,-3.2692344,1.430516,1004.08875,1,3
74.76,8.990713000000003,-3.3025994,1.3879045,1004.1697,1,3
74.8,8.99547,-3.3073657,1.4163088,1004.1095,1,3
74.84,9.043245,-3.4217625,1.6151519,1004.1151,1,3
74.88,9.210516,-3.2882983999999995,1.4920552,1004.0866,1,3
74.92,9.04798,-3.3788624,1.4967874,1004.1026,1,3
74.96,8.928463,-3.3645620000000003,1.4778478000000002,1004.06714,1,3
75.0,8.971459,-3.307363,1.5299243,1004.0952,1,3
75.04,9.038354,-3.3073623,1.5062503,1004.0855,1,3
75.08,9.200844,-3.388393,1.5630608999999998,1004.06793,1,3
75.12,9.172494,-3.5266314,1.7240609,1004.0673,1,3
75.16,9.172486,-3.3216693,1.6625128,1004.0605,1,3
75.2,8.986065,-3.2406378,1.4494638000000002,1004.0603,1,3
75.24,8.90958,-3.3788676,1.4305255,1004.0858,1,3
75.28,9.062525,-3.4694319,1.6293696000000002,1004.043,1,3
75.32,9.282388,-3.393167,1.7619321,1004.05853,1,3
75.36,9.296717999999998,-3.3312016000000004,1.7761345000000002,1004.0356,1,3
75.4,9.005139,-3.2692358,1.4683973999999995,1004.0691,1,3
75.44,8.923875,-3.3359675,1.4115838,1004.05853,1,3
75.48,8.923866,-3.412232,1.6341001,1004.03864,1,3
75.52,9.196307,-3.2883012000000003,1.7240528999999998,1004.0364,1,3
75.56,9.248876,-3.2549355,1.6767081,1004.0264,1,3
75.6,9.086353,-3.2215693,1.5252062,1004.0367,1,3
75.64,9.110243,-3.188203,1.4683925,1004.014,1,3
75.68,9.110235,-3.1834364,1.5062671,1004.0093,1,3
75.72,9.105447,-3.2358682,1.6009543,1003.99146,1,3
75.76,9.143676,-3.2311013,1.5914847,1003.9892,1,3
75.8,9.162787,-3.221568,1.5252023,1003.9992,1,3
75.84,9.143658,-3.169136,1.5157328,1003.9975,1,3
75.88,9.191448,-3.10717,1.3405588,1003.97705,1,3
75.92,9.134082,-3.1739017999999994,1.5062623,1003.9995,1,3
75.96,9.148414,-3.1691353,1.5062615,1003.9998,1,3
76.0,9.138844,-3.2454,1.5062606,1003.9823,1,3
76.04,9.043239,-3.1786678,1.4068372,1003.9901,1,3
76.08,9.028892,-3.1310022,1.4210398000000002,1003.965,1,3
76.12,8.999664,-3.0737898,1.37838,1003.98285,1,3
76.16,8.765419,-3.0928555,1.3357671,1003.94507,1,3
76.2,8.82275,-3.29305,1.4257183,1003.9529,1,3
76.24,9.147744,-3.1309865,1.5393411,1003.96265,1,3
76.28,9.099917,-3.1166859,1.4635881000000002,1003.9276,1,3
76.32,8.822659,-2.9975216,1.2410682,1003.9355,1,3
76.36,8.679233,-3.035653,1.283675,1003.94006,1,3
76.4,8.774802000000001,-3.0213525000000003,1.3215476000000002,1003.9277,1,3
76.44,8.836905999999997,-3.1452823,1.4777802,1003.9229,1,3
76.48,8.846438000000003,-3.1691144,1.4541055,1003.9314,1,3
76.52,8.898983,-3.0165837000000004,1.2079135,1003.93567,1,3
76.56,8.741221000000001,-3.1071477,1.2741926,1003.9131,1,3
76.6,8.655157,-2.9832165,1.3357371999999998,1003.91815,1,3
76.64,8.640784,-2.9832158,1.3404686,1003.9136,1,3
76.68,8.635977,-3.092846,1.3594036,1003.92346,1,3
76.72,8.669405000000001,-3.1023781,1.3499321000000002,1003.91394,1,3
76.76,8.707614,-3.054712,1.4256799,1003.88367,1,3
76.8,8.678905499999999,-3.0213454,1.3120514,1003.884,1,3
76.84,8.530702999999999,-3.08331,1.207892,1003.87646,1,3
76.88,8.458974000000001,-3.0833092,1.2552329,1003.89386,1,3
76.92,8.458943,-3.0356426,1.2741679,1003.87115,1,3
76.96,8.525824,-3.0642412,1.3830558000000002,1003.87396,1,3
77.0,8.568814999999999,-3.0642405,1.3735846,1003.87646,1,3
77.04,8.554443,-2.9784417000000003,1.2362839,1003.8592,1,3
77.08,8.568760000000001,-3.0261068,1.1605313,1003.8768,1,3
77.12,8.5882635,-3.1119142,1.3168018999999995,1003.8844,1,3
77.16,8.559572,-2.9784503,1.2268469,1003.8595,1,3
77.2,8.521319,-2.9784498,1.2505177,1003.8692,1,3
77.24,8.430489,-3.0928469,1.2978605,1003.84406,1,3
77.28,8.535632000000001,-3.08808,1.3499378,1003.85175,1,3
77.32,8.607311,-3.0547137,1.2599823,1003.82684,1,3
77.36,8.592959,-3.092846,1.2599812,1003.8417,1,3
77.4,8.621624,-3.0213473,1.1700263000000002,1003.86194,1,3
77.44,8.482996,-3.1548104,1.2363068000000002,1003.84924,1,3
77.48,8.511661,-3.1214442000000004,1.3404622,1003.84924,1,3
77.52,8.559445,-3.0785449000000003,1.3215233999999998,1003.8398,1,3
77.56,8.564211,-3.030879,1.2220997,1003.8647,1,3
77.6,8.564198,-3.0451782000000005,1.2694424,1003.86505,1,3
77.64,8.67412,-3.183408,1.359395,1003.8448,1,3
77.68,8.745804,-3.2739723,1.515629,1003.85474,1,3
77.72,8.884406,-3.1214423,1.3451893,1003.85754,1,3
77.76,8.817472,-3.1262083,1.184218,1003.86255,1,3
77.8,8.774442,-3.1643405,1.3357178,1003.8397,1,3
77.84,8.817445,-3.2024727000000004,1.4446079,1003.8174,1,3
77.88,8.903468,-3.2406046,1.5203571000000002,1003.85724,1,3
77.92,8.846097,-3.3121028,1.2978389,1003.8422,1,3
77.96,8.836521000000003,-3.3740678,1.3783223999999998,1003.8447,1,3
78.0,8.855628999999997,-3.345468,1.3404461,1003.8526,1,3
78.04,8.932096000000003,-3.3168683,1.3593826,1003.8497,1,3
78.08,8.932077,-3.2835019,1.4966788,1003.85724,1,3
78.12,8.979925999999997,-3.4026675,1.4588082,1003.79974,1,3
78.16,8.951236999999997,-3.2692034,1.4114633,1003.8397,1,3
78.2,8.903427,-3.3502345,1.4493375,1003.83234,1,3
78.24,9.022911,-3.2120040000000003,1.5108837,1003.85254,1,3
78.28,9.094597,-3.2358367,1.4588041,1003.8372,1,3
78.32,8.960752000000003,-3.2406027,1.3357085,1003.84015,1,3
78.36,8.946401,-3.364533,1.5014118,1003.8497,1,3
78.4,9.003746000000003,-3.3121006,1.3404408,1003.85254,1,3
78.44,9.070654,-3.2692013,1.6008323,1003.87787,1,3
78.48,9.204477,-3.183403,1.5676903,1003.85004,1,3
78.52,9.185345,-3.2310684,1.4067193999999998,1003.8325,1,3
78.56,9.013262,-3.3120995000000004,1.5156098999999998,1003.83765,1,3
78.6,9.00847,-3.2453678,1.4635302,1003.85004,1,3
78.64,8.941541,-3.3216324,1.4445915,1003.85754,1,3
78.68,8.965431,-3.2549,1.5913572,1003.85504,1,3
78.72,9.17095,-3.1643353,1.4019799,1003.85,1,3
78.76,9.094462,-3.2739658,1.4777294,1003.84753,1,3
78.8,9.166149,-3.1881676,1.4729941,1003.84265,1,3
78.84,9.127899,-3.2072334,1.4303834,1003.8425,1,3
78.88,8.989272999999997,-3.3073308,1.4351166000000002,1003.83466,1,3
78.92,9.056179,-3.259665,1.4209125,1003.8297,1,3
78.96,9.151765,-3.2691977000000003,1.4635209999999998,1003.8425,1,3
79.0,9.108734,-3.2882638,1.4635200000000002,1003.8526,1,3
79.04,9.108723,-3.2977965,1.3972372,1003.8297,1,3
79.08,9.094373,-3.3263958,1.4445803999999998,1003.8575,1,3
79.12,9.104757,-3.250151,1.4399215,1003.85004,1,3
79.16,9.071318,-3.2835174,1.5109393999999998,1003.83765,1,3
79.2,9.128698,-3.2358525,1.4635973999999998,1003.85004,1,3
79.24,9.023562,-3.2787519,1.4588648000000002,1003.87006,1,3
79.28,9.028365,-3.2835187999999995,1.416257,1003.86285,1,3
79.32,9.037946,-3.278753,1.5488224,1003.83514,1,3
79.36,9.157461,-3.188189,1.4020578,1003.83466,1,3
79.4,9.19094,-3.178656,1.3878565,1003.85223,1,3
79.44,9.205302,-3.2024899,1.4162648000000002,1003.85754,1,3
79.48,9.061928,-3.2501554,1.4020635,1003.85,1,3
79.52,8.985472999999997,-3.2835221,1.4210032,1003.86255,1,3
79.56,9.076309,-3.2739897,1.4872867,1003.85254,1,3
79.6,9.061993,-3.3311887,1.4399447,1003.8423,1,3
79.64,9.10025,-3.2835236000000005,1.4304776,1003.8425,1,3
79.68,9.176749,-3.212026,1.4020734,1003.8498,0,0
79.72,9.18633,-3.2549253,1.3926063999999998,1003.8368,0,0
79.76,9.138553,-3.297825,1.4210149,1003.8598,0,0
79.8,9.1146755,-3.2453933,1.3973446000000005,1003.83734,0,0
79.84,9.081239,-3.2549272,1.3973466,1003.8398,0,0
79.88,9.08604,-3.3025928,1.4399583,1003.8473,0,0
79.92,9.181658,-3.2263288,1.402085,1003.83734,0,0
79.96,9.167341,-3.1452978,1.3405397,1003.8398,0,0
80.0,9.17214,-3.1881974,1.3831513,1003.8343,0,0
80.04,9.16738,-3.2215636,1.3973562,1003.86005,0,0
80.08,9.153064,-3.2215643,1.4068271,1003.8369,0,0
80.12,8.9993925,-3.3407106,1.529856,1003.8393,0,0
80.16,9.085422,-3.2644450000000003,1.4304329,1003.85724,0,0
80.2,9.17623,-3.2358458,1.3830881000000002,1003.842,0,0
80.24,9.090186,-3.254912,1.520385,1003.80414,0,0
80.28,9.147536,-3.2120125,1.4162276000000005,1003.82684,0,0
80.32,9.071052,-3.269211,1.4730398999999998,1003.8497,0,0
80.36,9.061486,-3.269211,1.5061799,1003.8422,0,0
80.4,9.118835,-3.226312,1.3594128,1003.8622,0,0
80.44,9.07103,-3.3502421,1.4919753,1003.8345,0,0
80.48,9.11882,-3.1405134,1.5014434,1003.8318,0,0
80.52,9.166611,-3.1548130000000003,1.4209579,1003.847,0,0
80.56,9.166603,-3.183412,1.3878164,1003.8345,0,0
80.6,9.133137,-3.2930427000000004,1.4588317,1003.8494,0,0
80.64,9.180927,-3.1977112,1.4209558,1003.8473,0,0
80.68,9.109223,-3.2120106,1.4398928999999998,1003.8567,0,0
80.72,9.094876,-3.2501432999999995,1.4398921999999998,1003.842,0,0
80.76,9.104428,-3.2549095,1.4493601,1003.857,0,0
80.8,9.195237,-3.2215436,1.4162186,1003.8318,0,0
80.84,9.233467999999998,-3.1977105,1.4493588,1003.82153,0,0
80.88,9.166543,-3.2263098,1.4540925,1003.8592,0,0
80.92,9.056601,-3.2596755,1.4919672,1003.84174,0,0
80.96,9.075713,-3.3168738,1.4162159,1003.85724,0,0
81.0,9.118723,-3.3168736000000005,1.5203722,1003.8567,0,0
81.04,9.166514,-3.1691103,1.4493555,1003.84174,0,0
81.08,9.152167,-3.2167757000000003,1.5014331,1003.8369,0,0
81.12,9.080623,-3.2692115000000004,1.4919784,1003.8545,0,0
81.16,9.051942,-3.2978108,1.4919783000000002,1003.8395,0,0
81.2,9.200114,-3.2263126,1.5629942,1003.8567,0,0
81.24,9.180995,-3.197713,1.5061812,1003.86176,0,0
81.28,9.085397,-3.2120125,1.4020241000000002,1003.8318,0,0
81.32,9.142754,-3.2882776,1.4541025,1003.84906,0,0
81.36,9.18577,-3.2120125,1.4777744,1003.83655,0,0
81.4,9.152311,-3.2501450000000003,1.520384,1003.8592,0,0
81.44,9.13319,-3.2501450000000003,1.463571,1003.8494,0,0
81.48,9.028033,-3.3121104,1.5345869,1003.83655,0,0
81.52,9.118849,-3.321643,1.3452106,1003.8392,0,0
81.56,9.128407,-3.3788419000000003,1.3878202,1003.83655,0,0
81.6,9.147525,-3.164347,1.4256954,1003.84155,0,0
81.64,9.166643,-3.2310786,1.4020233,1003.84155,0,0
81.68,9.018467,-3.259678,1.4398983,1003.85895,0,0
81.72,8.93721,-3.4360406,1.4304293,1003.8512,0,0
81.76,9.104502,-3.31211,1.3972883,1003.84406,0,0
81.8,9.061482,-3.3073434999999995,1.4256947,1003.83905,0,0
81.84,9.032802,-3.3407092000000005,1.454101,1003.83405,0,0
81.88,9.0567,-3.2215455000000004,1.3452096000000002,1003.8487,0,0
81.92,9.147514,-3.259678,1.4635696000000002,1003.83374,0,0
81.96,9.180972,-3.2167788,1.3925534,1003.8512,0,0
82.0,9.161852,-3.235845,1.3546782,1003.864,0,0
82.04,9.047136,-3.2930434,1.5014446,1003.8411,0,0
82.08,9.071033,-3.2263117,1.4825069,1003.8358,0,0
82.12,9.066252,-3.264444,1.6434764,1003.86145,0,0
82.16,9.109269,-3.2120118,1.4777721,1003.8436,0,0
82.2,9.109267,-3.2739773,1.5251161,1003.85114,0,0
82.24,9.415174,-3.1929457,1.151098,1003.8436,0,0
82.28,9.094926,-3.416974,1.5771943000000002,1003.84863,0,0
82.32,8.94197,-3.307343,1.7381641,1003.86115,0,0
82.36,9.2908945,-3.1262138,1.4446306999999998,1003.83575,0,0
82.4,9.094922,-3.1357472,1.4777714,1003.85864,0,0
82.44,9.171397,-3.2310781000000004,1.6624131000000002,1003.85364,0,0
82.48,9.090139,-3.111914,1.5345841999999998,1003.87646,0,0
82.52,9.085359,-3.1691127,1.6624129,1003.85614,0,0
82.56,9.123595,-3.111914,1.2457851,1003.8611,0,0
82.6,8.956302,-3.3836076,1.6103341999999998,1003.8233,0,0
82.64,8.937180999999997,-3.2549105,1.6008652,1003.83826,0,0
82.68,9.114033,-3.2549105,1.8612574,1003.83325,0,0
82.72,9.314783,-3.2358446,1.577193,1003.85864,0,0
82.76,9.223966,-3.0880810000000003,1.6624122,1003.84283,0,0
82.8,8.956296,-3.3788410000000004,1.7807721999999997,1003.85315,0,0
82.84,8.989752000000003,-3.2835097,1.5203798000000002,1003.82025,0,0
82.88,9.080567,-3.0928476000000003,1.5724583,1003.84827,0,0
82.92,9.008869,-3.1071470000000003,1.5535206,1003.8531,0,0
82.96,9.233519,-3.216778,1.6718804,1003.83527,0,0
83.0,9.0040865,-3.3931403,1.5487859,1003.873,0,0
83.04,9.123581,-3.42174,1.6624115000000002,1003.8483,0,0
83.08,9.157039,-3.1548126,1.283659,1003.8707,0,0
83.12,9.200214,-3.2549143,1.4825184,1003.8531,0,0
83.16,9.104625,-3.1786494,1.5251286,1003.8453,0,0
83.2,9.133309,-3.4360435,1.6150829,1003.8755,0,0
83.24,9.104635,-3.3931446000000003,1.506192,1003.84283,0,0
83.28,9.128537,-3.2358482000000004,1.5061923000000002,1003.88275,0,0
83.32,9.104645,-3.2024827,1.4541144,1003.83514,0,0
83.36,9.0281725,-3.1738834,1.2079257,1003.83264,0,0
83.4,9.061636,-3.1119182,1.487256,1003.8528,0,0
83.44,9.133339,-3.2310824,1.7476488,1003.8755,0,0
83.48,9.176362,-3.1452847000000004,1.4020378999999998,1003.8329,0,0
83.52,9.281523,-3.0737863,1.5346016000000002,1003.8807,0,0
83.56,9.252849,-3.0737865,1.6766342,1003.85785,0,0
83.6,9.300652,-3.0594869,1.4257111999999998,1003.8478,0,0
83.64,9.185942,-3.1595848,1.3404923999999998,1003.85004,0,0
83.68,9.214623,-3.0976193,1.2316014,1003.8276,0,0
83.72,9.157272,-3.1595848,1.2600085,1003.8425,0,0
83.76,9.119039,-3.2310834,1.4304472,1003.8528,0,0
83.8,9.142942,-3.2120173,1.4919951,1003.8478,0,0
83.84,9.061691,-3.2835157,1.4683235,1003.86285,0,0
83.88,9.066475,-3.2739828,1.2931509,1003.83777,0,0
83.92,9.071261,-3.3407147000000004,1.4919965,1003.84,0,0
83.96,9.142962,-3.1548193,1.4257153,1003.8577,0,0
84.0,9.262462,-3.0499551,1.2647458,1003.8753,0,0
84.04,9.109514,-3.2835164,1.260012,1003.8577,0,0
84.08,9.090401,-3.2596838,1.2268716,1003.86,0,0
84.12,9.19556,-3.0499556,1.0469648,1003.83,0,0
84.16,8.990034,-3.2215514,1.3499671,1003.87006,0,0
84.2,8.932682000000002,-3.2072517999999994,1.3404987,1003.86475,0,0
84.24,9.099979,-3.283517,1.2268735,1003.8677,0,0
84.28,9.109545,-3.1929522,1.520407,1003.8653,0,0
84.32,9.229045,-3.0213566000000003,1.3262969,1003.8753,0,0
84.36,9.281627,-2.9355586,1.2126715,1003.8494,0,0
84.4,9.099999,-3.1881864,1.5488149,1003.86224,0,0
84.44,9.1430235,-3.216786,1.416252,1003.85254,0,0
84.48,9.233844,-3.1691203,1.3689083999999998,1003.8325,0,0
84.52,9.257748,-3.0451900000000003,1.3878465,1003.8494,0,0
84.56,9.190836,-3.069023,1.4399254,1003.8573,0,0
84.6,9.229078,-3.0642567,1.3263001,1003.86194,0,0
84.64,9.2434225,-3.1166887,1.1132524,1003.8396,0,0
84.68,9.358145,-2.9689255,1.2268785,1003.8375,0,0
84.72,9.305571,-3.1071560000000003,1.4635992,1003.8349,0,0
84.76,9.296017,-3.2072537,1.1653321,1003.8446,0,0
84.8,9.310362,-2.9641592999999995,1.3073647,1003.84174,0,0
84.84,9.339045,-3.0070586,1.492007,1003.8343,0,0
84.88,9.286472,-2.9593933,1.4351946000000002,1003.8346,0,0
84.92,9.071385,-2.9164941000000004,1.4351951,1003.8346,0,0
84.96,9.004472999999997,-3.273986,1.4020547,1003.8318,0,0
85.0,8.990139,-3.3454845,1.3831176,1003.837,0,0
85.04,8.975804,-3.3740838,1.3263052,1003.8395,0,0
85.08,9.023607,-3.3597844,1.155867,1003.83154,0,0
85.12,9.119917999999998,-3.2406383,1.198542,1003.857,0,0
85.16,9.148627,-3.240639,1.3121705,1003.84955,0,0
85.2,9.272933,-3.1119425,1.1654068000000002,1003.85693,0,0
85.24,9.287304,-3.2406404,1.264832,1003.86444,0,0
85.28,9.387714,-3.1310103,1.0943967,1003.8446,0,0
85.32,9.454662,-3.1262445,1.1322749,1003.8368,0,0
85.36,9.10577,-3.197744,1.2127628,1003.8393,0,0
85.4,9.019766,-3.3073754,1.1654216,1003.8492,0,0
85.44,9.153632,-3.1500797,1.0423299,1003.84424,0,0
85.48,9.230144,-3.1167147,1.3548038999999998,1003.84424,0,0
85.52,9.234956,-3.1786807,1.4447607,1003.84656,0,0
85.56,9.177628,-3.2406466,1.2648559,1003.8617,0,0
85.6,9.048608,-3.3788776,1.2553902,1003.8642,0,0
85.64,9.09166,-3.3169134,1.3264095,1003.8368,0,0
85.68,9.106032,-3.278782,1.0849577,1003.8517,0,0
85.72,9.096504,-3.3645803999999995,1.1275704,1003.84424,0,0
85.76,9.18735,-3.3550480000000005,0.9429313,1003.86646,0,0
85.8,9.134805,-3.288317,0.9334656,1003.86896,0,0
85.84,9.177855,-3.4837468,1.1086413,1003.8513,0,0
85.88,9.13965,-3.436082,1.1417853999999998,1003.8363,0,0
85.92,9.22094,-3.283553,1.1796635,1003.8409,0,0
85.96,9.283109,-3.0356927,0.99975914,1003.86395,0,0
86.0,9.2210045,-3.1119583,1.2270136,1003.85394,0,0
86.04,9.09676,-3.1691577,1.2980325,1003.864,0,0
86.08,9.029879,-3.2787895,1.3169733,1003.8335,0,0
86.12,9.10552,-3.1548388,1.3358344,1003.8765,0,0
86.16,9.06728,-3.2454033,1.4305224,1003.8742,0,0
86.2,9.177215,-3.1977377,1.4447255,1003.85645,0,0
86.24,9.344506,-3.126239,1.217474,1003.8717,0,0
86.28,9.311047,-3.0785737,1.3358339,1003.86646,0,0
86.32,9.18677,-3.1500719,1.0707071,1003.86646,0,0
86.36,9.186769,-3.23587,0.80084604,1003.836,0,0
86.4,9.110291,-3.3836331,1.0375662,1003.84656,0,0
86.44,9.038593,-3.312135,1.2174733999999998,1003.8515,0,0
86.48,9.244123,-3.2168036,0.92867464,1003.8513,0,0
86.52,9.196324,-3.1214726,1.0375658,1003.86145,0,0
86.56,9.196323,-3.2549362,1.2032698,1003.8684,0,0
86.6,9.210662,-3.135772,1.136988,1003.87146,0,0
86.64,9.062486,-3.264469,1.080175,1003.8659,0,0
86.68,9.234557,-3.1929705000000004,1.2127383,1003.85834,0,0
86.72,9.320593,-3.1643713,1.2600821000000002,1003.8538,0,0
86.76,9.330151,-3.1310055,1.1464565,1003.8538,0,0
86.8,9.444864,-3.2311027,1.1227843000000002,1003.8739,0,0
86.84,9.334928,-3.0547404,0.95708,1003.8513,0,0
86.88,9.196313,-3.2883017,1.0186271999999998,1003.86395,0,0
86.92,8.971661,-3.2358694,0.90973574,1003.8587,0,0
86.96,9.067255,-3.240636,1.1795966999999998,1003.8559,0,0
87.0,9.234547,-3.1834373,1.359504,1003.83307,0,0
87.04,9.177188,-3.1786706,1.279019,1003.86334,0,0
87.08,9.029014,-3.3883991,1.3453004,1003.85834,0,0
87.12,9.129163,-3.3788607,1.1085595,1003.84564,0,0
87.16,9.3824835,-3.3645606,0.94758904,1003.8481,0,0
87.2,9.2916565,-3.1500652,0.7250711,1003.8534,0,0
87.24,9.2247305,-3.1166992,0.5972411999999999,1003.8657,0,0
87.28,9.3155365,-2.93557,0.77714765,1003.8206,0,0
87.32,9.372885,-2.9403362,1.0990863000000002,1003.8481,0,0
87.36,9.296397,-2.883137,1.1843045,1003.8483,0,0
87.4,9.071735,-3.1452975,1.2742573,1003.8631,0,0
87.44,9.062166,-3.159597,1.2269124,1003.8403,0,0
87.48,9.076496,-3.1548302,1.4162877,1003.83527,0,0
87.52,9.047808,-3.1977289,1.3405364,1003.8606,0,0
87.56,9.162513,-3.1357634,1.1464248,1003.8659,0,0
87.6,9.129045,-3.212028,0.98071986,1003.8659,0,0
87.64,9.258089,-3.145296,0.91443723,1003.87335,0,0
87.68,9.286757,-3.1071632,0.77713853,1003.8324,0,0
87.72,9.310647,-2.9975324,0.7250593000000001,1003.8325,0,0
87.76,9.296297,-3.0880966,0.6729798,1003.83276,0,0
87.8,9.281948,-3.1452951,0.8292143,1003.8533,0,0
87.84,9.210241,-3.188194,0.91916704,1003.8381,0,0
87.88,9.23413,-3.2453926,1.0091197,1003.8352,0,0
87.92,9.210222,-3.1309948,1.0706661,1003.8883,0,0
87.96,9.205431,-3.2787576,0.9807116,1003.8481,0,0
88.0,9.162403,-3.2263255,0.97597617,1003.8727,0,0
88.04,9.162394,-3.2692240000000004,0.74872386,1003.8332,0,0
88.08,9.066787,-3.15006,0.7203166,1003.82465,0,0
88.12,9.119419,-3.3216572,0.89549446,1003.8453,0,0
88.16,9.310603,-3.0499637,0.86235297,1003.8477,0,0
88.2,9.377514,-3.0070643,0.89549315,1003.82465,0,0
88.24,9.3201475,-2.9546318,0.9665085,1003.83527,0,0
88.28,9.152848,-3.02613,1.0327895,1003.8958,0,0
88.32,9.167179,-3.0928614,1.1795553,1003.8398,0,0
