Timestamp,Ax,Ay,Az,P,Value,Type
0.0,8.393763,-4.1918263,3.3144147000000004,1000.44293,0,0
0.04,8.164334,-4.5064197,3.9204187,1000.4304,0,0
0.08,8.117964,-4.725716,3.7974548,1000.4472,0,0
0.12,8.409591,-4.549355,3.5228646,1000.45715,0,0
0.16,8.232796,-4.4444919999999986,3.0636327000000003,1000.47705,0,0
0.2,8.161128999999999,-4.4158936,3.1109793,1000.47144,0,0
0.24,7.960435,-4.454027,2.8553271,1000.4466,0,0
0.28,7.855337599999999,-4.697123,3.0305054,1000.4342,0,0
0.32,7.831525999999997,-4.5779614,2.9500284,1000.4641,0,0
0.36,7.893692999999999,-4.654227,2.9689686,1000.4588,0,0
0.4,7.855483500000001,-4.7352595,2.9168928,1000.46356,0,0
0.44,8.08981,-4.5445995,2.54762,1000.4709,0,0
0.48,8.147226,-4.8019958,2.576032,1000.4731,0,0
0.52,8.094678,-5.0117245000000015,2.7038634,1000.48083,0,0
0.56,7.932252,-5.2214550000000015,2.7843564,1000.4458,0,0
0.6,7.980108299999999,-5.1642575,2.5145004,1000.48303,0,0
0.64,8.286045,-4.9688295999999985,2.5145032000000005,1000.4582,0,0
0.68,8.558552,-4.7829356,2.4008832,1000.4726,0,0
0.72,8.333960000000001,-5.2071605000000005,2.3062,1000.4524,0,0
0.76,8.577817,-5.4407244000000015,2.4435058,1000.4672,0,0
0.8,8.549196,-5.3787603,2.533465,1000.4797,0,0
0.84,8.549196,-5.3787603,2.533465,1000.46216,0,0
0.88,8.166871,-5.621856,2.400907,1000.4692,0,0
0.92,8.353371000000001,-5.5074606,1.7428327,1000.51636,0,0
0.96,8.415536999999999,-5.516995,1.7286322,1000.4995,0,0
1.0,8.7310915,-5.250069,1.8091251,1000.48956,0,0
1.04,8.726371,-5.1785727,1.5487381000000002,1000.4616,0,0
1.08,8.70589,-5.3120027,1.5722857,1000.4889,0,0
1.12,8.6055155,-5.3501353,1.5770202,1000.47156,0,0
1.16,8.438227000000001,-5.8029585,1.430254,1000.5009,0,0
1.2,8.17534,-5.9840870000000015,1.5060046,1000.4959,0,0
1.24,8.117983,-5.8220243,1.3829103,1000.5133,0,0
1.28,7.9602523,-5.5407977,1.1887999,1000.4981,0,0
1.32,7.902897,-5.7076273,1.0988464,1000.461,0,0
1.36,7.8885603,-5.6170626,0.98995525,1000.4608,0,0
1.4,7.792967,-5.774359,1.4065833,1000.5155,0,0
1.44,7.5539804,-6.0079203,1.6006942,1000.5105,0,0
1.48,7.4488273,-6.0889525,1.7095855,1000.4848,0,0
1.52,7.640022,-5.798192,1.430256,1000.4902,0,0
1.56,7.926812599999999,-5.369202,1.1319888,1000.4802,0,0
1.6,8.008071000000001,-5.2881703,1.0893792,1000.50507,0,0
1.64,8.2231655,-5.407335,1.3450375,1000.5026,0,0
1.68,8.170591,-5.6504292000000005,1.700118,1000.46686,0,0
1.72,8.247067999999999,-5.7791266,1.7900718,1000.47705,0,0
1.76,8.098897000000001,-5.9411893,1.8800257,1000.50714,0,0
1.8,8.0989,-5.7409940000000015,1.728525,1000.4591,0,0
1.84,8.294872999999999,-5.488366,1.2645535,1000.497,0,0
1.88,8.376135000000001,-5.5312660000000005,1.3639764,1000.48645,0,0
1.92,8.466953,-5.6885624,1.6101657,1000.46655,0,0
1.96,8.462174000000001,-5.6837955,1.671713,1000.4792,0,0
2.0,8.409599,-5.4025690000000015,1.5154778999999998,1000.4462,0,0
2.04,8.342685000000001,-5.3215375,1.4633998,1000.4838,0,0
2.08,8.237719,-5.3501415,1.3876667,1000.49164,0,0
2.12,7.960506,-5.740999,1.5770441000000002,1000.4761,0,0
2.16,7.960511,-5.7838984,1.5723104,1000.4714,0,0
2.2,7.8314667,-5.836331,1.4681543,1000.4959,0,0
2.24,7.711986500000001,-5.8744636,1.4634213,1000.48584,0,0
2.28,7.673753299999999,-5.8792305,1.4586874,1000.5107,0,0
2.32,7.8219423,-5.8029660000000005,1.4302823999999998,1000.50323,0,0
2.36,8.070501,-5.774367,1.4255488,1000.49304,0,0
2.4,8.041834,-5.7171683,1.368737,1000.4655,0,0
2.44,8.089642999999999,-5.6123047,1.311925,1000.4856,0,0
2.48,8.089652000000001,-5.6742697,1.2125034,1000.4853,0,0
2.52,8.060984,-5.4550085,1.1604259,1000.49036,0,0
2.56,8.14703,-5.4931417,1.2598493,1000.49286,0,0
2.6,8.175714,-5.574173,1.2929906999999998,1000.4924,0,0
2.64,8.142265,-5.617071599999999,1.4018829,1000.48987,0,0
2.68,8.137501,-5.373978,1.6007293,1000.47504,0,0
2.72,8.175744,-5.373978,1.5249792,1000.4799,0,0
2.76,8.018025999999999,-5.60754,1.6386063999999998,1000.4745,0,0
2.8,7.9081009999999985,-5.7600694,1.7995771,1000.4745,0,0
2.84,7.8603125,-5.7505374000000025,1.5060448999999998,1000.4745,0,0
2.88,7.745607400000001,-5.7076379999999975,1.3592793,1000.49426,0,0
2.92,7.6834755,-5.702872,1.3024669,1000.4914,0,0
2.96,7.7265034,-5.955499,1.2219828,1000.5017,0,0
3.0,7.884252,-5.8697019999999975,1.2598596000000002,1000.4837,0,0
3.04,7.9711137,-5.9316874,1.3309511,1000.4657,0,0
3.08,7.9711356,-5.7982244000000005,1.188921,1000.49426,0,0
3.12,7.9424777,-5.6981273,1.0421565000000002,1000.4765,0,0
3.16,8.090695,-5.721960500000002,1.2031301,1000.45526,0,0
3.2,8.105078,-5.617098,1.4303855,1000.47314,0,0
3.24,8.200739,-5.6742983,1.7097213,1000.4631,0,0
3.28,8.224658999999999,-5.6933646,1.8044113,1000.4826,0,0
3.32,8.286861,-5.602802,1.719198,1000.45575,0,0
3.36,8.334723,-5.655236,1.6008439,1000.4677,0,0
3.4,8.234369000000001,-5.6933684,1.4446104,1000.4532,0,0
3.44,7.904628,-5.9221650000000015,1.3546627,1000.4745,0,0
3.48,7.8807716,-6.022263,1.359401,1000.4574,0,0
3.52,7.962071400000001,-5.884034,1.2173728,1000.4571,0,0
3.56,7.852179,-5.993666,1.3025961,1000.4602,0,0
3.6,7.7422867,-5.90787,1.2647247,1000.4476,0,0
3.64,7.7327704,-5.998435,1.3073382,1000.4445,0,0
3.68,7.7327704,-5.998435,1.3073382,1000.44476,0,0
3.72,7.728055499999999,-6.2224650000000015,1.2552658,1000.44476,0,0
3.76,7.9288497000000016,-6.0032043,1.3026137,1000.472,0,0
3.8,8.029268,-5.7410445,1.2884146,1000.4463,0,0
3.84,8.158366000000001,-5.421686,1.1747928,1000.4745,0,0
3.88,8.086713,-5.4455204,1.3783761,1000.42865,0,0
3.92,7.819087,-5.7362814,1.331036,1000.4485,0,0
3.96,7.766530499999999,-5.826846,1.3499756,1000.4438,0,0
4.0,7.6088619999999985,-6.060409,1.6671866000000002,1000.4438,0,0
4.04,7.541301700000001,-5.931696400000001,1.6103148,1000.45825,0,0
4.08,7.593887,-5.869731400000001,1.5392995,1000.4463,0,0
4.12,7.7898817,-5.984129,1.520364,1000.4433,0,0
4.16,8.028879,-5.874499,1.454083,1000.46326,0,0
4.2,8.138829,-5.760102,1.3025835,1000.46326,0,0
4.24,8.000238000000001,-5.8411339999999985,1.0753342,1000.44293,0,0
4.28,7.9476686,-5.8459005,0.9853811,1000.45044,0,0
4.32,7.7612714999999985,-5.9364657,1.0279921,1000.4805,0,0
4.36,7.737387700000001,-6.084229,1.1463536,1000.47015,0,0
4.4,7.8664575,-6.0651636,1.3215281,1000.45264,0,0
4.44,7.823454400000001,-6.0270314,1.4304208,1000.43726,0,0
4.48,7.7661195,-6.007965,1.3215315,1000.4625,0,0
4.52,7.723117,-6.0317984,1.4020177,1000.4574,0,0
4.56,7.8904247,-5.8554363,1.3594096000000002,1000.4472,0,0
4.6,8.048173,-5.755339,1.3310045,1000.42224,0,0
4.64,8.029062,-5.807771,1.4209589,1000.45465,0,0
4.68,8.072096,-5.836371,1.4256946,1000.4472,0,0
4.72,8.019532,-5.9841347,1.3026015,1000.4819,0,0
4.76,7.6801895999999985,-6.046100599999999,1.4256982,1000.449,0,0
4.8,7.7088839999999985,-5.95077,1.127432,1000.457,0,0
4.84,7.6802125,-6.0747004,1.3168089,1000.4465,0,0
4.88,7.699347,-6.1080666,1.510921,1000.4437,0,0
4.92,7.7806106,-5.9698367,1.4493744,1000.46674,0,0
4.96,7.962273599999999,-5.9364715,1.458846,1000.4561,0,0
5.0,7.967061500000002,-5.8697405,1.544066,1000.4484,0,0
5.04,8.010095,-5.7982416,1.4730513,1000.4462,0,0
5.08,8.082195,-5.7267537000000015,1.4210097,1000.4583,0,0
5.12,8.067871,-5.7553535,1.4304799,1000.4561,0,0
5.16,7.929302000000002,-5.8792844,1.4872968999999998,1000.4586,0,0
5.2,7.924552999999999,-5.8506860000000005,1.3736739,1000.4657,0,0
5.24,7.76685,-6.050883,1.4257553,1000.4682,0,0
5.28,7.8003235,-6.0651827,1.4068191,1000.46075,0,0
5.32,7.805149,-5.9889183,1.3121351,1000.45013,0,0
5.36,7.8004,-5.9650865,1.1937778,1000.4697,0,0
5.4,7.833889,-5.888822599999999,1.2127181,1000.46234,0,0
5.44,7.8052254,-5.9126554,1.3026732,1000.46716,0,0
5.48,7.8004603,-5.9269557,1.3831595,1000.4519,0,0
5.52,7.747913,-5.8506913,1.4021,1000.4468,0,0
5.56,7.7622985999999985,-5.941257,1.4873234,1000.46185,0,0
5.6,7.767109,-6.0175230000000015,1.5062639,1000.4697,0,0
5.64,7.7336801999999985,-5.9984574,1.5204699,1000.47675,0,0
5.68,7.814967599999999,-5.8935943,1.4257845,1000.4842,0,0
5.72,7.8819156,-5.8602285000000025,1.2884896,1000.4493,0,0
5.76,7.872386,-5.950794,1.3784459999999998,1000.4716,0,0
5.8,7.848517399999999,-5.960328,1.4305273,1000.446,0,0
5.84,7.9728384,-5.9555626,1.4210627,1000.44653,0,0
5.88,7.9824275999999985,-5.9650965,1.4826127,1000.4341,0,0
5.92,7.9967976,-5.8316336,1.3216457,1000.4585,0,0
5.96,8.06851,-5.7839684,1.283772,1000.4758,0,0
6.0,7.762648599999999,-6.0413632,1.3784641000000002,1000.45795,0,0
6.04,8.393763,-4.1918263,3.3144147000000004,1000.44293,0,0
6.08,8.164334,-4.5064197,3.9204187,1000.4304,0,0
6.12,8.117964,-4.725716,3.7974548,1000.4472,0,0
6.16,8.409591,-4.549355,3.5228646,1000.45715,0,0
6.2,8.232796,-4.4444919999999986,3.0636327000000003,1000.47705,0,0
6.24,8.161128999999999,-4.4158936,3.1109793,1000.47144,0,0
6.28,7.960435,-4.454027,2.8553271,1000.4466,0,0
6.32,7.855337599999999,-4.697123,3.0305054,1000.4342,0,0
6.36,7.831525999999997,-4.5779614,2.9500284,1000.4641,0,0
6.4,7.893692999999999,-4.654227,2.9689686,1000.4588,0,0
6.44,7.855483500000001,-4.7352595,2.9168928,1000.46356,0,0
6.48,8.08981,-4.5445995,2.54762,1000.4709,0,0
6.52,8.147226,-4.8019958,2.576032,1000.4731,0,0
6.56,8.094678,-5.0117245000000015,2.7038634,1000.48083,0,0
6.6,7.932252,-5.2214550000000015,2.7843564,1000.4458,0,0
6.64,7.980108299999999,-5.1642575,2.5145004,1000.48303,0,0
6.68,8.286045,-4.9688295999999985,2.5145032000000005,1000.4582,0,0
6.72,8.558552,-4.7829356,2.4008832,1000.4726,0,0
6.76,8.333960000000001,-5.2071605000000005,2.3062,1000.4524,0,0
6.8,8.577817,-5.4407244000000015,2.4435058,1000.4672,0,0
6.84,8.549196,-5.3787603,2.533465,1000.4797,0,0
6.88,8.549196,-5.3787603,2.533465,1000.46216,0,0
6.92,8.166871,-5.621856,2.400907,1000.4692,0,0
6.96,8.353371000000001,-5.5074606,1.7428327,1000.51636,0,0
7.0,8.415536999999999,-5.516995,1.7286322,1000.4995,0,0
7.04,8.7310915,-5.250069,1.8091251,1000.48956,0,0
7.08,8.726371,-5.1785727,1.5487381000000002,1000.4616,0,0
7.12,8.70589,-5.3120027,1.5722857,1000.4889,0,0
7.16,8.6055155,-5.3501353,1.5770202,1000.47156,0,0
7.2,8.438227000000001,-5.8029585,1.430254,1000.5009,0,0
7.24,8.17534,-5.9840870000000015,1.5060046,1000.4959,0,0
7.28,8.117983,-5.8220243,1.3829103,1000.5133,0,0
7.32,7.9602523,-5.5407977,1.1887999,1000.4981,0,0
7.36,7.902897,-5.7076273,1.0988464,1000.461,0,0
7.4,7.8885603,-5.6170626,0.98995525,1000.4608,0,0
7.44,7.792967,-5.774359,1.4065833,1000.5155,0,0
7.48,7.5539804,-6.0079203,1.6006942,1000.5105,0,0
7.52,7.4488273,-6.0889525,1.7095855,1000.4848,0,0
7.56,7.640022,-5.798192,1.430256,1000.4902,0,0
7.6,7.926812599999999,-5.369202,1.1319888,1000.4802,0,0
7.64,8.008071000000001,-5.2881703,1.0893792,1000.50507,0,0
7.68,8.2231655,-5.407335,1.3450375,1000.5026,0,0
7.72,8.170591,-5.6504292000000005,1.700118,1000.46686,0,0
7.76,8.247067999999999,-5.7791266,1.7900718,1000.47705,0,0
7.8,8.098897000000001,-5.9411893,1.8800257,1000.50714,0,0
7.84,8.0989,-5.7409940000000015,1.728525,1000.4591,0,0
7.88,8.294872999999999,-5.488366,1.2645535,1000.497,0,0
7.92,8.376135000000001,-5.5312660000000005,1.3639764,1000.48645,0,0
7.96,8.466953,-5.6885624,1.6101657,1000.46655,0,0
8.0,8.462174000000001,-5.6837955,1.671713,1000.4792,0,0
8.04,8.409599,-5.4025690000000015,1.5154778999999998,1000.4462,0,0
8.08,8.342685000000001,-5.3215375,1.4633998,1000.4838,0,0
8.12,8.237719,-5.3501415,1.3876667,1000.49164,0,0
8.16,7.960506,-5.740999,1.5770441000000002,1000.4761,0,0
8.2,7.960511,-5.7838984,1.5723104,1000.4714,0,0
8.24,7.8314667,-5.836331,1.4681543,1000.4959,0,0
8.28,7.711986500000001,-5.8744636,1.4634213,1000.48584,0,0
8.32,7.673753299999999,-5.8792305,1.4586874,1000.5107,0,0
8.36,7.8219423,-5.8029660000000005,1.4302823999999998,1000.50323,0,0
8.4,8.070501,-5.774367,1.4255488,1000.49304,0,0
8.44,8.041834,-5.7171683,1.368737,1000.4655,0,0
8.48,8.089642999999999,-5.6123047,1.311925,1000.4856,0,0
8.52,8.089652000000001,-5.6742697,1.2125034,1000.4853,0,0
8.56,8.060984,-5.4550085,1.1604259,1000.49036,0,0
8.6,8.14703,-5.4931417,1.2598493,1000.49286,0,0
8.64,8.175714,-5.574173,1.2929906999999998,1000.4924,0,0
8.68,8.142265,-5.617071599999999,1.4018829,1000.48987,0,0
8.72,8.137501,-5.373978,1.6007293,1000.47504,0,0
8.76,8.175744,-5.373978,1.5249792,1000.4799,0,0
8.8,8.018025999999999,-5.60754,1.6386063999999998,1000.4745,0,0
8.84,7.9081009999999985,-5.7600694,1.7995771,1000.4745,0,0
8.88,7.8603125,-5.7505374000000025,1.5060448999999998,1000.4745,0,0
8.92,7.745607400000001,-5.7076379999999975,1.3592793,1000.49426,0,0
8.96,7.6834755,-5.702872,1.3024669,1000.4914,0,0
9.0,7.7265034,-5.955499,1.2219828,1000.5017,0,0
9.04,7.884252,-5.8697019999999975,1.2598596000000002,1000.4837,0,0
9.08,7.9711137,-5.9316874,1.3309511,1000.4657,0,0
9.12,7.9711356,-5.7982244000000005,1.188921,1000.49426,0,0
9.16,7.9424777,-5.6981273,1.0421565000000002,1000.4765,0,0
9.2,8.090695,-5.721960500000002,1.2031301,1000.45526,0,0
9.24,8.105078,-5.617098,1.4303855,1000.47314,0,0
9.28,8.200739,-5.6742983,1.7097213,1000.4631,0,0
9.32,8.224658999999999,-5.6933646,1.8044113,1000.4826,0,0
9.36,8.286861,-5.602802,1.719198,1000.45575,0,0
9.4,8.334723,-5.655236,1.6008439,1000.4677,0,0
9.44,8.234369000000001,-5.6933684,1.4446104,1000.4532,0,0
9.48,7.904628,-5.9221650000000015,1.3546627,1000.4745,0,0
9.52,7.8807716,-6.022263,1.359401,1000.4574,0,0
9.56,7.962071400000001,-5.884034,1.2173728,1000.4571,0,0
9.6,7.852179,-5.993666,1.3025961,1000.4602,0,0
9.64,7.7422867,-5.90787,1.2647247,1000.4476,0,0
9.68,7.7327704,-5.998435,1.3073382,1000.4445,0,0
9.72,7.7327704,-5.998435,1.3073382,1000.44476,0,0
9.76,7.728055499999999,-6.2224650000000015,1.2552658,1000.44476,0,0
9.8,7.9288497000000016,-6.0032043,1.3026137,1000.472,0,0
9.84,8.029268,-5.7410445,1.2884146,1000.4463,0,0
9.88,8.158366000000001,-5.421686,1.1747928,1000.4745,0,0
9.92,8.086713,-5.4455204,1.3783761,1000.42865,0,0
9.96,7.819087,-5.7362814,1.331036,1000.4485,0,0
10.0,7.766530499999999,-5.826846,1.3499756,1000.4438,0,0
10.04,7.6088619999999985,-6.060409,1.6671866000000002,1000.4438,0,0
10.08,7.541301700000001,-5.931696400000001,1.6103148,1000.45825,0,0
10.12,7.593887,-5.869731400000001,1.5392995,1000.4463,0,0
10.16,7.7898817,-5.984129,1.520364,1000.4433,0,0
10.2,8.028879,-5.874499,1.454083,1000.46326,0,0
10.24,8.138829,-5.760102,1.3025835,1000.46326,0,0
10.28,8.000238000000001,-5.8411339999999985,1.0753342,1000.44293,0,0
10.32,7.9476686,-5.8459005,0.9853811,1000.45044,0,0
10.36,7.7612714999999985,-5.9364657,1.0279921,1000.4805,0,0
10.4,7.737387700000001,-6.084229,1.1463536,1000.47015,0,0
10.44,7.8664575,-6.0651636,1.3215281,1000.45264,0,0
10.48,7.823454400000001,-6.0270314,1.4304208,1000.43726,0,0
10.52,7.7661195,-6.007965,1.3215315,1000.4625,0,0
10.56,7.723117,-6.0317984,1.4020177,1000.4574,0,0
10.6,7.8904247,-5.8554363,1.3594096000000002,1000.4472,0,0
10.64,8.048173,-5.755339,1.3310045,1000.42224,0,0
10.68,8.029062,-5.807771,1.4209589,1000.45465,0,0
10.72,8.072096,-5.836371,1.4256946,1000.4472,0,0
10.76,8.019532,-5.9841347,1.3026015,1000.4819,0,0
10.8,7.6801895999999985,-6.046100599999999,1.4256982,1000.449,0,0
10.84,7.7088839999999985,-5.95077,1.127432,1000.457,0,0
10.88,7.6802125,-6.0747004,1.3168089,1000.4465,0,0
10.92,7.699347,-6.1080666,1.510921,1000.4437,0,0
10.96,7.7806106,-5.9698367,1.4493744,1000.46674,0,0
11.0,7.962273599999999,-5.9364715,1.458846,1000.4561,0,0
11.04,7.967061500000002,-5.8697405,1.544066,1000.4484,0,0
11.08,8.010095,-5.7982416,1.4730513,1000.4462,0,0
11.12,8.082195,-5.7267537000000015,1.4210097,1000.4583,0,0
11.16,8.067871,-5.7553535,1.4304799,1000.4561,0,0
11.2,7.929302000000002,-5.8792844,1.4872968999999998,1000.4586,0,0
11.24,7.924552999999999,-5.8506860000000005,1.3736739,1000.4657,0,0
11.28,7.76685,-6.050883,1.4257553,1000.4682,0,0
11.32,7.8003235,-6.0651827,1.4068191,1000.46075,0,0
11.36,7.805149,-5.9889183,1.3121351,1000.45013,0,0
11.4,7.8004,-5.9650865,1.1937778,1000.4697,0,0
11.44,7.833889,-5.888822599999999,1.2127181,1000.46234,0,0
11.48,7.8052254,-5.9126554,1.3026732,1000.46716,0,0
11.52,7.8004603,-5.9269557,1.3831595,1000.4519,0,0
11.56,7.747913,-5.8506913,1.4021,1000.4468,0,0
11.6,7.7622985999999985,-5.941257,1.4873234,1000.46185,0,0
11.64,7.767109,-6.0175230000000015,1.5062639,1000.4697,0,0
11.68,7.7336801999999985,-5.9984574,1.5204699,1000.47675,0,0
11.72,7.814967599999999,-5.8935943,1.4257845,1000.4842,0,0
11.76,7.8819156,-5.8602285000000025,1.2884896,1000.4493,0,0
11.8,7.872386,-5.950794,1.3784459999999998,1000.4716,0,0
11.84,7.848517399999999,-5.960328,1.4305273,1000.446,0,0
11.88,7.9728384,-5.9555626,1.4210627,1000.44653,0,0
11.92,7.9824275999999985,-5.9650965,1.4826127,1000.4341,0,0
11.96,7.9967976,-5.8316336,1.3216457,1000.4585,0,0
12.0,8.06851,-5.7839684,1.283772,1000.4758,0,0
12.04,7.762648599999999,-6.0413632,1.3784641000000002,1000.45795,0,0
12.08,7.729205,-6.103329,1.4778881,1000.46295,0,0
12.12,7.7579145,-6.0890307,1.4116091999999998,1000.4502,0,0
12.16,7.7667966,-6.0365815000000005,1.435219,1000.43744,0,0
12.2,7.742901299999999,-6.0508814000000015,1.3405313,1000.44775,0,0
12.24,7.7142243000000015,-6.0556480000000015,1.3831413,1000.4524,0,0
12.28,7.742906599999999,-6.084247,1.4399545,1000.4549,0,0
12.32,7.7668114,-5.9460177000000005,1.1890315,1000.44714,0,0
12.36,7.7859335,-6.089014,1.3736736,1000.44495,0,0
12.4,7.8241777,-6.1080804,1.3878773000000002,1000.427,0,0
12.44,7.8241777,-6.1080804,1.3878773000000002,1000.44965,0,0
12.48,7.996256,-5.917418,1.2789865,1000.4716,0,0
12.52,7.953241999999999,-5.674324,1.2931901,1000.4671,0,0
12.56,7.728596,-5.9269514,1.4399571000000002,1000.45886,0,0
12.6,7.6330023,-6.0699487,1.5583174,1000.449,0,0
12.64,7.561307000000001,-6.1795792999999986,1.6293336,1000.439,0,0
12.68,7.494393,-6.2177114,1.6340684,1000.4438,0,0
12.72,7.7238293,-6.0842480000000005,1.2458477,1000.4561,0,0
12.76,7.78597,-6.0413494000000005,1.1890352,1000.44574,0,0
12.8,7.87679,-5.9507847,1.3642085,1000.4606,0,0
12.84,8.087105000000001,-5.803022,1.3594744,1000.48303,0,0
12.88,8.053651,-5.779189,1.4494284,1000.4734,0,0
12.92,8.053653,-5.779189,1.4873039,1000.4681,0,0
12.96,7.819447,-6.003217,1.5725236,1000.4709,0,0
13.0,7.762091000000002,-5.988917400000001,1.5630548999999998,1000.4482,0,0
13.04,7.790774000000001,-5.9460190000000015,1.5583208,1000.478,0,0
13.08,7.666502499999999,-5.9746184,1.4352267,1000.4355,0,0
13.12,7.590028999999999,-6.117615,1.5346495,1000.4647,0,0
13.16,7.619797,-6.122408,1.5536869,1000.4775,0,0
13.2,7.638963,-6.0461445,1.3832526000000005,1000.42725,0,0
13.24,7.662886,-6.060445,1.3406451,1000.47,0,0
13.28,7.6629559999999985,-6.089046,1.3879955,1000.4672,0,0
13.32,7.758599,-5.993716,1.250702,1000.4996,0,0
13.36,7.6487107,-6.089048,1.397473,1000.4895,0,0
13.4,7.648758,-6.04615,1.5016341999999998,1000.4691,0,0
13.44,7.7539606,-6.0223184000000005,1.5489825000000002,1000.5018,0,0
13.48,7.7587633,-6.0318522,1.6105319,1000.462,0,0
13.52,7.892645,-5.941289,1.596333,1000.461,0,0
13.56,7.940537,-5.717263,1.4116998,1000.4338,0,0
13.6,7.959678999999999,-5.798295,1.4779836000000002,1000.4734,0,0
13.64,7.811552499999999,-6.0080247,1.4732535,1000.46045,0,0
13.68,7.811623,-6.1748557,1.6200265,1000.4829,0,0
13.72,7.811623,-6.1748557,1.6200265,1000.50085,0,0
13.76,7.8403254,-6.0080266,1.5963566,1000.42554,0,0
13.8,7.7257276,-6.1176605,1.4590697,1000.47546,0,0
13.84,7.716191999999999,-6.003264,1.4401343,1000.4606,0,0
13.88,7.725797999999997,-5.9222335999999975,1.5253577,1000.4853,0,0
13.92,7.706725599999999,-6.0556984000000025,1.5442996,1000.47754,0,0
13.96,7.926644,-5.7840056,1.4969598999999998,1000.46765,0,0
14.0,7.859773599999999,-5.8507385,1.7194811999999997,1000.48737,0,0
14.04,7.979315299999999,-5.4408164,1.3359989,1000.4925,0,0
14.08,8.055816,-5.5361476,1.6390028000000003,1000.4596,0,0
14.12,7.735639599999999,-5.912708,2.5290772999999995,1000.4945,0,0
14.16,7.701158500000001,-5.8173513,2.3159359,1000.45416,0,0
14.2,7.5768886,-6.022313,2.6047347000000003,1000.4939,0,0
14.24,7.6772695,-5.926982,3.1586607000000004,1000.477,0,0
14.28,7.4621863,-5.7124877,3.1113172,1000.4963,0,0
14.32,7.3331339999999985,-5.7792195999999985,3.059239,1000.4864,0,0
14.36,7.294898,-5.836418,3.045036,1000.49164,0,0
14.4,7.314022500000001,-5.7649198,3.1349902000000003,1000.48395,0,0
14.44,7.380947,-5.9603486,2.9077396,1000.51373,0,0
14.48,7.4000745,-5.783986,3.2060075,1000.4957,0,0
14.52,7.452654400000001,-5.660056,3.2580864,1000.5082,0,0
14.56,7.294928599999999,-5.80782,3.2864933,1000.5231,0,0
14.6,7.519584700000001,-5.8411856,3.8262160000000014,1000.4728,0,0
14.64,7.409651299999997,-5.80782,3.8309505,1000.47546,0,0
14.68,7.2232413,-5.7982864,3.5563552000000005,1000.49286,0,0
14.72,7.390544999999999,-5.574259,3.7978108,1000.4872,0,0
14.76,7.366648,-5.6648235,3.8356864,1000.4774,0,0
14.8,7.1276636,-5.6314573,3.3338401,1000.4873,0,0
14.84,7.505273,-5.555193,3.6699831,1000.4842,0,0
14.88,7.4861584,-5.416963,3.5610924,1000.4842,0,0
14.92,7.337986999999999,-5.621924400000001,3.6652496,1000.4842,0,0
14.96,7.055983500000001,-5.7553883,4.0913463,1000.4817,0,0
15.0,7.2663,-5.5361265999999985,3.698391200000001,1000.5066,0,0
15.04,7.5817723,-5.3263984,3.433265,1000.4817,0,0
15.08,7.2280746,-5.464629,3.6889236,1000.50635,0,0
15.12,7.165942,-5.86502,4.2523184,1000.50885,0,0
15.16,7.041640299999999,-5.688657,3.854626,1000.49615,0,0
15.2,7.251953,-5.674357,3.8593605,1000.5012,0,0
15.24,7.4383698,-5.5885587,3.7078598,1000.4887,0,0
15.28,7.213725,-5.8030542999999986,4.086613,1000.4806,0,0
15.32,7.1276902999999985,-5.717256,4.0155970000000005,1000.49786,0,0
15.36,7.223292,-5.588559,3.4095933,1000.48987,0,0
15.4,7.223292,-5.588559,3.4095933,1000.4954,0,0
15.44,7.381031,-5.655291,3.5279540000000003,1000.48254,0,0
15.48,7.1755020000000025,-5.788755,3.4995480000000003,1000.5152,0,0
15.52,7.366700999999999,-5.5742598,3.4143293,1000.50037,0,0
15.56,7.4814205,-5.5170617,3.3196414,1000.5077,0,0
15.6,7.58658,-5.4455633,3.2865010000000003,1000.50684,0,0
15.64,7.5913634,-5.374065,3.423799,1000.4973,0,0
15.68,7.538787400000001,-5.4074306,3.4474714,1000.5302,0,0
15.72,7.4718738,-5.6028595,3.575300700000001,1000.47723,0,0
15.76,7.5005565,-5.593327,3.7125988,1000.52216,0,0
15.8,7.7491119999999984,-5.378832,3.4285347,1000.49445,0,0
15.84,7.720435,-5.3835983,3.3385812999999995,1000.49445,0,0
15.88,7.796916,-5.335932700000001,3.4048636,1000.48914,0,0
15.92,7.691764,-5.3216333,3.253363,1000.50604,0,0
15.96,7.663087400000001,-5.335932700000001,3.2202222000000003,1000.49194,0,0
16.0,7.7013289999999985,-5.402665,3.3291137,1000.504,0,0
16.04,7.677438,-5.3788323,3.125535,1000.50146,0,0
16.08,7.677438,-5.3788323,3.125535,1000.50116,0,0
16.12,7.5675063,-5.5408955,3.1255355,1000.47614,0,0
16.16,7.453015,-5.483702,3.1729,1000.4756,0,0
16.2,7.515165,-5.4598694000000005,3.1350257000000004,1000.5158,0,0
16.24,7.491278,-5.4741693,3.3196688,1000.48114,0,0
16.28,7.639464999999999,-5.355006,3.3812172,1000.5029,0,0
16.32,7.59646,-5.3597730000000015,3.2959993,1000.4984,0,0
16.36,7.692075,-5.307341,3.2817976000000004,1000.5029,0,0
16.4,7.7685637,-5.259676,3.2581267000000005,1000.50793,0,0
16.44,7.935863499999999,-5.24061,3.442769,1000.50006,0,0
16.48,7.9836807,-5.3121085,3.5800686,1000.4876,0,0
16.52,7.81162,-5.273977,3.362287,1000.4702,0,0
16.56,7.9120026,-5.207245,3.4191008000000003,1000.50494,0,0
16.6,7.849883599999999,-5.1595798,3.4948528,1000.4999,0,0
16.64,7.5822277,-5.2787437000000015,3.2676024,1000.4945,0,0
16.68,7.5822344,-5.3454760000000014,3.3906977,1000.5123,0,0
16.72,7.491430800000002,-5.3407097000000014,3.3906987,1000.51733,0,0
16.76,7.630057300000002,-5.2882776,3.4238408,1000.497,0,0
16.8,7.701767,-5.221546,3.527999,1000.5243,0,0
16.84,7.725678999999999,-5.202481,3.3907022000000007,1000.494,0,0
16.88,7.75915,-5.150049,3.6795022,1000.4915,0,0
16.92,7.5966496,-5.192948,3.3575637,1000.5163,0,0
16.96,7.697037700000001,-5.278746,3.755255000000001,1000.5015,0,0
17.0,7.735282400000001,-5.2596803,3.8168027,1000.5059,0,0
17.04,7.568009,-5.1786494,3.6321628,1000.5113,0,0
17.08,7.811785,-5.0976186,3.8925555,1000.52124,0,0
17.12,7.591926600000002,-5.073786,3.8404784,1000.50635,0,0
17.16,7.577787,-5.154822,3.9067783,1000.51135,0,0
17.2,7.5252395,-5.1881886,3.6747952000000006,1000.51556,0,0
17.24,7.4057546,-5.178656,3.6511242,1000.50037,0,0
17.28,7.4535832,-5.2310886,3.968332,1000.4825,0,0
17.32,7.372337,-5.2167897000000005,3.7931597,1000.478,0,0
17.36,7.444064,-5.240623,3.992008,1000.523,0,0
17.4,7.4345145000000015,-5.202491,3.9967432,1000.4954,0,0
17.44,7.530131,-5.25969,4.261871299999999,1000.485,0,0
17.48,7.362878999999999,-5.212025,3.8973262,1000.4951,0,0
17.52,7.4393754,-5.259691,3.835780600000001,1000.48737,0,0
17.56,7.243414,-5.2739910000000005,3.7410936,1000.485,0,0
17.6,7.147837599999999,-5.431288200000001,3.902065,1000.5224,0,0
17.64,7.281692999999999,-5.3693230000000005,3.854723,1000.4974,0,0
17.68,7.4968038,-5.478955,4.1293206,1000.4946,0,0
17.72,7.468146000000001,-5.2310944,4.157728700000002,1000.5097,0,0
17.76,7.37257,-5.1691294,3.5753987,1000.507,0,0
17.8,7.6880570000000015,-5.273994,3.8547306,1000.4822,0,0
17.84,7.425188499999999,-5.3454932999999984,4.039374,1000.5045,0,0
17.88,7.506455,-5.550455,4.1719384,1000.51685,0,0
17.92,7.554283,-5.2692294,3.7221727,1000.507,0,0
17.96,7.444368400000001,-5.302594999999998,3.6653616,1000.499,0,0
18.0,7.39658,-5.0738015,3.1493125,1000.51886,0,0
18.04,7.640381,-5.3979278,3.9210231,1000.489,0,0
18.08,7.621282000000001,-5.335963,3.7505865,1000.49097,0,0
18.12,7.621282000000001,-5.335963,3.7505865,1000.4781,0,0
18.16,7.635525,-5.2835283,3.7363746,1000.48834,0,0
18.2,7.678559,-5.1786647000000015,3.4333742,1000.498,0,0
18.24,7.5829710000000015,-5.1786647000000015,3.248733,1000.4913,0,0
18.28,7.7550664,-5.2167974,3.6511598,1000.4831,0,0
18.32,7.707283500000001,-5.212031400000001,3.419175,1000.4856,0,0
18.36,7.793328,-5.1453,3.528067,1000.48303,0,0
18.4,7.5925984,-5.2739973,3.5754132000000003,1000.5054,0,0
18.44,7.702542,-5.183433,3.5564760000000004,1000.5054,0,0
18.48,7.635648,-5.207267,3.7316513,1000.48505,0,0
18.52,7.5783124000000015,-5.2311,3.750591000000001,1000.4854,0,0
18.56,7.606999000000001,-5.131002400000002,3.5801532,1000.48004,0,0
18.6,7.6213617,-5.131003,3.70325,1000.49963,0,0
18.64,7.568799,-5.3264318,3.8121424,1000.47784,0,0
18.68,7.568799,-5.3264318,3.8121424,1000.48975,0,0
18.72,7.6214,-5.188202,3.7742696,1000.4999,0,0
18.76,7.726563,-5.1548370000000014,3.7079883,1000.5126,0,0
18.8,7.587971,-5.2263355,3.6606462,1000.4795,0,0
18.84,7.635777,-5.240636,3.6890533,1000.4745,0,0
18.88,7.568883,-5.2025037,3.660649,1000.5295,0,0
18.92,7.525871799999999,-5.2501693,3.7269313,1000.49695,0,0
18.96,7.5211070000000015,-5.2740026,3.651182700000001,1000.4889,0,0
19.0,7.5737004,-5.2215705,3.7032623,1000.47644,0,0
19.04,7.502026,-5.288303400000001,3.7884839,1000.4914,0,0
19.08,7.53072,-5.2454042,3.5896401,1000.4836,0,0
19.12,7.521176,-5.2168055,3.5801728,1000.49084,0,0
19.16,7.545272,-5.2501760000000015,3.6228,1000.4931,0,0
19.2,7.5548654000000015,-5.2740097000000015,3.76957,1000.48834,0,0
19.24,7.5548654000000015,-5.2740097000000015,3.76957,1000.50073,0,0
19.28,7.636145,-5.2311115,3.7032905,1000.49554,0,0
19.32,7.6409707,-5.2120457,3.689091200000001,1000.48346,0,0
19.36,7.6409707,-5.2120457,3.689091200000001,1000.4856,0,0
19.4,7.612337599999999,-5.2263470000000005,3.622814,1000.4928,0,0
19.44,7.636247999999997,-5.274013,3.7695816,1000.4774,0,0
19.48,7.6123834000000015,-5.231115,3.6843655,1000.4923,0,0
19.52,7.607626,-5.192983,3.4855223,1000.4948,0,0
19.56,7.6363277,-5.2787814000000015,3.7317135,1000.4956,0,0
19.6,7.588552,-5.2883153,3.7033093,1000.4826,0,0
19.64,7.626802,-5.302615,3.6749039,1000.4774,0,0
19.68,7.6172767000000015,-5.2549505,3.6133597,1000.5067,0,0
19.72,7.6172767000000015,-5.2549505,3.6133597,1000.48724,0,0
19.76,7.579084,-5.2692510000000015,3.4429252,1000.51984,0,0
19.8,7.841995699999999,-4.91176,3.2440827000000003,1000.4638,0,0
19.84,7.8850255,-5.0023246,3.3435059000000003,1000.4921,0,0
19.88,8.061891000000001,-5.121489,3.788541,1000.4966,0,0
19.92,7.1442017999999985,-5.2120543,3.679653,1000.5786,0,0
19.96,7.517038,-5.0738244,3.7554045,1000.4762,0,0
20.0,7.684365,-5.2025228,4.0252686,1000.452,0,0
20.04,7.1633782,-5.3741193,3.0357792000000003,1000.4663,0,0
20.08,7.842144,-5.274021599999998,4.143633,1000.5214,0,0
20.12,7.4024253,-5.0499945,3.8785083,1000.506,0,0
20.16,7.985103,-4.7306237,3.8595288,1000.4536,0,0
20.2,7.545363,-5.1071815,3.4949796,1000.47314,0,0
20.24,6.9478908,-5.62197,3.3860888,1000.5159,0,0
20.28,7.703106,-5.3741097,3.9068737,1000.5132,0,0
20.32,7.535814299999997,-5.3741097,3.6086066,1000.5107,0,0
20.36,7.554937400000001,-5.183447,3.5233877,1000.48065,0,0
20.4,7.578840299999999,-5.33121,3.7174985,1000.48596,0,0
20.44,7.741358,-5.221579599999999,3.9731567,1000.47815,0,0
20.48,7.497591000000001,-5.269245,3.7032962,1000.4656,0,0
20.52,7.717467999999997,-5.264479,4.091518,1000.4984,1,1
20.56,7.416342299999997,-5.340744,3.708031,1000.48553,1,1
20.6,7.583639,-5.288312,3.8169227,1000.5132,1,1
20.64,7.5645237,-5.288312,3.8074543,1000.5035,1,1
20.68,7.6075473,-5.474208,3.8974085,1000.48804,1,1
20.72,7.435478,-5.38841,3.854799,1000.49786,1,1
20.76,7.272969199999999,-5.3455114,3.3576870000000003,1000.4979,1,1
20.8,7.09612,-5.636271,3.6133451,1000.4699,1,1
20.84,6.94795,-5.7554349999999985,3.4665790000000003,1000.4753,1,1
20.88,6.5321107000000005,-6.265457,2.6948714,1000.4876,1,1
20.92,6.689846000000001,-6.2702227,3.1304367,1000.50995,1,1
20.96,7.23475,-5.9651637000000015,1.6722407,1000.4996,1,1
21.0,7.23475,-5.9651637000000015,1.6722407,1000.49506,1,1
21.04,7.5215416,-5.8984323,1.4544585,1000.4777,1,1
21.08,7.378151400000001,-6.2606907,1.8379457,1000.4823,1,1
21.12,7.3924966,-5.8269334000000015,1.8994933,1000.5096,1,1
21.16,8.368634,-5.24544,1.5681818,1000.50494,1,1
21.2,9.687883,-4.8069177000000005,2.7139099,1000.50006,1,1
21.24,12.063492,-2.3998072,3.6702638,1000.5001,1,1
21.28,15.72489,-0.81254554,6.837586999999999,1000.49225,1,1
21.32,16.322388,-0.9555428,5.5971746,1000.5096,1,1
21.36,17.397913,-3.2911572,5.4740867999999985,1000.522,1,1
21.4,16.537569,-4.0156746,5.8481064000000025,1000.5344,1,1
21.44,12.7185755,-6.0509963,3.604005,1000.527,1,1
21.48,8.861342,-6.565785400000001,0.6734149,1000.5472,1,1
21.52,8.00578,-6.7373824,0.35621187,1000.50745,1,1
21.56,6.089124,-7.843225,0.28993434,1000.5121,1,1
21.6,4.726903,-8.448578,-0.06987832,1000.47705,1,1
21.64,1.9594651,-10.660262,-1.788461,1000.5096,1,1
21.68,2.3131936,-11.394313,-1.3244872,1000.47174,1,1
21.72,2.3371607999999995,-14.835769,-1.0546198,1000.48724,1,1
21.76,6.0463343,-13.96349,0.45565942,1000.4848,1,1
21.8,8.221191000000001,-13.939657999999998,0.053239208,1000.4622,1,1
21.84,10.070998,-13.710864,0.07217892,1000.45996,1,1
21.88,14.817388,-12.857652,0.9906576,1000.4898,1,1
21.92,15.86899,-12.319031,2.1837318,1000.4851,1,1
21.96,14.296481,-10.255113,2.8086774,1000.4892,1,1
22.0,11.983124,-8.119698,3.2111082000000004,1000.47925,1,1
22.04,11.352213,-7.199753,1.9943682,1000.49725,1,1
22.08,10.8360405,-6.04148,1.2321332,1000.5019,1,1
22.12,10.974677,-5.0357375,1.440449,1000.47925,1,1
22.16,10.993865,-1.6848495,3.1590443,1000.46185,1,1
22.2,11.634403,-0.6505078000000001,2.6240606,1000.49725,1,1
22.24,11.87211,-0.8459051,1.8995792,1000.47424,1,1
22.28,14.042135,-2.0375443,2.5245202,1000.5071,1,1
22.32,14.190307,-7.0138289999999985,3.627636,1000.499,1,1
22.36,14.558349,-8.763156,4.0537324,1000.5245,1,1
22.4,15.547763,-10.698378,3.2252111,1000.5543,1,1
22.44,15.437825,-12.528735,2.8890681,1000.5413,1,1
22.48,15.184491,-15.893923999999998,2.7470355,1000.5869,1,1
22.52,14.003874,-16.098886,3.6891816,1000.5745,1,1
22.56,11.150329,-14.878648000000002,2.728097,1000.55676,1,1
22.6,9.969715,-14.311426999999998,2.131562,1000.52386,1,1
22.64,6.8246,-12.156943,0.99056995,1000.5021,1,1
22.68,4.7740602,-8.920451,0.3750971,1000.5244,1,1
22.72,3.0055294,-7.0471945000000025,0.33248714,1000.4945,1,1
22.76,0.06116676,-8.443795,-0.32086104,1000.49725,1,1
22.8,-0.7561815,-9.244577,-0.99314666,1000.437,1,1
22.84,-0.4502776,-9.778432,-1.6464949,1000.4445,1,1
22.88,4.4107775999999985,-12.237974,-0.7516929,1000.4624,1,1
22.92,8.105561999999999,-13.7966385,0.233063,1000.4749,1,1
22.96,9.706795,-14.406757,1.4024608,1000.4519,1,1
23.0,12.40738,-15.741394,2.8369853,1000.4873,1,1
23.04,16.302914,-19.459307,1.8332908,1000.4774,1,1
23.08,19.53884,-15.607929,-0.09834662,1000.50494,1,1
23.12,19.916443,-12.156942,-1.6938411,1000.5096,1,1
23.16,18.18615,-9.25411,2.0984166,1000.5174,1,1
23.2,16.833462,-6.665869,6.1084566,1000.5071,1,1
23.24,14.348207,-4.006136,4.6692204,1000.4895,1,1
23.28,12.890371,-3.7344425,2.9837728,1000.47186,1,1
23.32,11.896178,-2.6715007,0.44613242,1000.4747,1,1
23.36,12.675293,-1.074704,0.71599406,1000.4941,1,1
23.4,14.563325,-1.131903,3.7270763,1000.4941,1,1
23.44,14.281323,-5.846028,3.5092943,1000.522,1,1
23.48,16.121554999999994,-8.834660000000003,3.5708425000000004,1000.522,1,1
23.52,16.494385,-10.93671,2.3730383,1000.5518,1,1
23.56,16.905457000000002,-14.239935,1.8475202,1000.5715,1,1
23.6,17.330864000000002,-15.145581,2.9932466,1000.5785,1,1
23.64,14.754558,-16.685179,5.8244214,1000.5885,1,1
23.68,13.124648,-15.641303,5.1331983,1000.59686,1,1
23.72,10.285451,-13.544019,3.3814695,1000.5441,1,1
23.76,7.455814,-11.522998,2.235744,1000.5069,1,1
23.8,6.0840135,-10.569687,1.984821,1000.5021,1,1
23.84,2.2028253,-7.671621000000001,1.0521443,1000.4965,1,1
23.88,1.0939138000000002,-8.100611,0.91958135,1000.4945,1,1
23.92,-0.06757221,-8.648766,0.59290797,1000.46686,1,1
23.96,0.26223743,-8.391372,0.79175323,1000.4476,1,1
24.0,2.9006956,-9.092054,0.28043813,1000.4469,1,1
24.04,5.3957596,-10.927179,0.24256349,1000.452,1,1
24.08,8.540877,-12.714639,1.7859801,1000.45734,1,1
24.12,11.996681,-14.073109,2.1410607999999995,1000.4619,1,1
24.16,14.443947,-15.555507999999998,1.5587298,1000.48663,1,1
24.2,16.547071,-14.2780695,4.044293,1000.4787,1,1
24.24,16.303759,-11.532545,3.6371763,1000.4762,1,1
24.28,16.547543,-10.307539,4.157962,1000.49164,1,1
24.32,15.768458,-9.196933,4.882328500000002,1000.514,1,1
24.36,16.088728,-5.154893,3.9733245,1000.4995,1,1
24.4,13.120495000000002,-3.0766747000000003,3.2158217,1000.47186,1,1
24.44,11.853871,-3.1481736,2.8465407000000003,1000.4965,1,1
24.48,14.564044,-0.3454388,3.2868423,1000.5071,1,1
24.52,16.49989,0.17888182,4.7829165,1000.49164,1,1
24.56,15.653889,-3.2578063,4.37576,1000.45874,1,1
24.6,15.395815,-8.029131,4.276341,1000.5334,1,1
24.64,15.429284,-10.312311,4.0917,1000.5259,1,1
24.68,15.993338,-14.892974,4.1059065000000015,1000.56854,1,1
24.72,16.50479,-15.226632999999998,4.0064855,1000.60583,1,1
24.76,16.695992,-15.617491,4.0917059999999985,1000.5785,1,1
24.8,13.135076500000002,-16.42304,3.5803933,1000.56995,1,1
24.84,10.764317,-14.907275,3.2205806,1000.5408,1,1
24.88,6.1088242999999975,-10.946268,1.7150433999999997,1000.5363,1,1
24.92,5.081178,-9.602098,1.2984169,1000.51404,1,1
24.96,4.2686234,-8.705987,1.2463396,1000.4787,1,1
25.0,1.7927095000000002,-9.034879,0.8391829,1000.4687,1,1
25.04,-0.9556415,-8.696455,0.90546787,1000.4941,1,1
25.08,1.3243489,-8.677389,0.45570162,1000.4686,1,1
25.12,3.7764125,-10.703176,0.60247034,1000.4534,1,1
25.16,6.515264,-12.04258,1.5966976000000002,1000.4404,1,1
25.2,9.961528,-13.553578,2.136422,1000.46576,1,1
25.24,11.695722,-14.378171,2.4062028,1000.46075,1,1
25.28,15.619925,-16.146564,2.316248,1000.4605,1,1
25.32,16.618893,-14.325739000000002,1.6581644,1000.4984,1,1
25.36,16.403795000000002,-13.677485999999998,1.9422282,1000.49554,1,1
25.4,15.8732195,-10.522026,4.238413,1000.5004,1,1
25.44,15.218379999999998,-10.121635,5.403076,1000.5055,1,1
25.48,15.409556,-4.601961599999999,2.1268663,1000.4555,1,1
25.52,13.722274,-2.0852191,0.19996254,1000.47284,1,1
25.56,11.948956,-2.280648,0.7917621,1000.47784,1,1
25.6,11.92027,-1.5751972,1.1894516000000002,1000.465,1,1
25.64,14.195445,-0.53608745,3.0169308,1000.5172,1,1
25.68,15.815782999999998,-4.439897,4.0490294,1000.4945,1,1
25.72,15.734519,-5.5934040000000005,3.8075742999999993,1000.51917,1,1
25.76,15.796645000000002,-8.963359,3.1873662,1000.5277,1,1
25.8,15.189599,-14.101707,3.2773187000000004,1000.5565,1,1
25.84,16.499254,-16.194225,4.1295104,1000.581,1,1
25.88,16.599617000000002,-17.857754,4.849139,1000.56647,1,1
25.92,12.880915,-16.451618,2.7802026,1000.56433,1,1
25.96,11.284454,-15.288579,2.5766227,1000.5416,1,1
26.0,8.101092999999999,-12.61454,2.178932,1000.52466,1,1
26.04,6.585889,-11.408601,1.9469454,1000.50934,1,1
26.08,4.4254065,-9.320848,1.6060671999999998,1000.4671,1,1
26.12,2.341395,-7.604888000000001,1.0852811000000002,1000.49945,1,1
26.16,1.0938603999999998,-7.93378,1.3362040000000002,1000.4845,1,1
26.2,-0.34009793,-8.848958,1.7765021,1000.4469,1,1
26.24,0.92214245,-9.59255,1.3693774,1000.442,1,1
26.28,5.678053,-12.543051,2.2925868,1000.46686,1,1
26.32,7.5469584,-12.852876,2.3588688,1000.4742,1,1
26.36,10.658614,-13.56786,1.7860061,1000.4816,1,1
26.4,13.440464000000002,-14.063581,0.8770007,1000.4816,1,1
26.44,14.778815,-14.54977,2.0842745,1000.519,1,1
26.48,15.347615,-13.572626,3.5992844,1000.4861,1,1
26.52,14.253046,-13.868153,5.3273425,1000.49115,1,1
26.56,14.253046,-13.868153,5.3273425,1000.4836,1,1
26.6,14.520722,-6.599154,2.2783866,1000.4737,1,1
26.64,14.1765785,-4.7449636,1.6771173,1000.4886,1,1
26.68,14.18136,-3.515192,1.5256165000000002,1000.4661,1,1
26.72,13.932813,-2.6667447,1.6013672,1000.4608,1,1
26.76,14.176588,0.388618,1.3315066,1000.458,1,1
26.8,13.512201,-3.5676242999999994,2.3967483,1000.48285,1,1
26.84,13.38793,-5.512379,3.433583,1000.51044,1,1
26.88,14.243519,-7.700228999999997,3.2252697999999995,1000.5426,1,1
26.92,14.434715,-12.400054,4.3520584000000015,1000.5575,1,1
26.96,14.616348,-14.044517,4.8870463,1000.5691,1,1
27.0,15.806523,-15.879641,5.0527506,1000.61456,1,1
27.04,16.031181,-16.461163,4.4940915,1000.6015,1,1
27.08,15.457606,-16.35153,4.1390114,1000.5895,1,1
27.12,12.957772,-15.398219,3.3957102,1000.5616,1,1
27.16,7.8672867,-12.867178,2.9270046,1000.55194,1,1
27.2,6.1752379999999985,-11.775637,2.624003,1000.52216,1,1
27.24,5.072203,-10.479159,2.1127877,1000.532,1,1
27.28,2.0466592,-8.029150999999999,1.0380846,1000.4878,1,1
27.32,-1.0697247,-8.601139,1.2369341,1000.4744,1,1
27.36,-1.8822672,-8.663105,1.2416706,1000.4527,1,1
27.4,1.5449245,-10.15504,0.24271786,1000.43536,1,1
27.44,3.1605222,-11.175083,0.49364352,1000.4723,1,1
27.48,8.246305,-12.757581,3.206464,1000.4723,1,1
27.52,11.405805,-13.892024,4.0870676,1000.4971,1,1
27.56,16.424670000000006,-17.109451,4.2575129999999985,1000.4892,1,1
27.6,17.442792999999998,-16.275303,4.783034,1000.5269,1,1
27.64,16.897942999999998,-13.162743,4.394817400000001,1000.49396,1,1
27.68,16.902770999999998,-11.403885,6.5631785,1000.5116,1,1
27.72,16.754622,-10.269445,7.0460906,1000.48895,1,1
27.76,15.119977,-7.886168,4.6362830000000015,1000.48846,1,1
27.8,13.5904875,-5.3455949999999985,1.4926426000000002,1000.49146,1,1
27.84,13.102996,-2.809787,-0.12651938,1000.50385,1,1
27.88,14.828577,-0.10238474,2.515285,1000.5207,1,1
27.92,15.325726,-0.1595846,3.1449652,1000.5138,1,1
27.96,14.627922,-3.6582386,3.159173,1000.50854,1,1
28.0,14.336378,-4.907076999999999,3.4337707,1000.5557,1,1
28.04,13.954067000000002,-8.224603,5.370148,1000.5656,1,1
28.08,13.96365,-10.059727,5.65895,1000.56793,1,1
28.12,15.268584,-13.177056,7.533778,1000.60254,1,1
28.16,16.234151999999998,-15.369674,7.5527205,1000.6274,1,1
28.2,16.487507,-15.393508,8.087710000000001,1000.5897,1,1
28.24,13.72737,-14.406776,7.775039,1000.5748,1,1
28.28,12.207352,-13.172237,7.0175304,1000.5574,1,1
28.32,9.75527,-12.361922,5.308407,1000.5327,1,1
28.36,6.954263,-10.431465,4.901244,1000.49554,1,1
28.4,4.569078,-7.9242544000000015,2.8985848,1000.48804,1,1
28.44,3.6561148,-7.585828299999997,2.429877,1000.4678,1,1
28.48,1.6533353,-6.8756104,2.6429214,1000.478,1,1
28.52,-0.3637838,-6.6277485,1.8096625,1000.45074,1,1
28.56,0.40092203,-9.220755,0.9290575,1000.42285,1,1
28.6,2.1694286,-9.897605,0.72547615,1000.44763,1,1
28.64,7.871672,-11.227472,0.37039,1000.4504,1,1
28.68,9.969985,-12.681272,-1.0830742,1000.44965,1,1
28.72,14.023217,-15.088382,-3.1898882,1000.44226,1,1
28.76,15.829941,-16.070293,-0.52442205,1000.4646,1,1
28.8,16.910133,-15.274276,2.524531,1000.4918,1,1
28.84,15.97325,-12.767066,2.6570902000000003,1000.4965,1,1
28.88,15.97325,-12.767066,2.6570902000000003,1000.4965,1,1
28.92,14.400654,-11.36093,2.3020058,1000.48914,1,1
28.96,12.43607,-8.367531,0.97636503,1000.4965,1,1
29.0,12.569884,-6.8660645,1.0615826000000002,1000.4736,1,1
29.04,13.903387,-2.2043703,1.3977195,1000.4985,1,1
29.08,14.061099,-1.1890932,1.8853611,1000.47925,1,1
29.12,13.143334,-0.65523785,2.7375503,1000.5161,1,1
29.16,12.0057,-2.137636,2.6002486,1000.51044,1,1
29.2,12.875562,-8.234060000000001,4.849085,1000.5454,1,1
29.24,13.341021,-8.372335000000001,6.236432,1000.56537,1,1
29.28,14.88015,-10.340924,6.4258120000000005,1000.56744,1,1
29.32,15.38684,-14.616527,9.067612,1000.5699,1,1
29.36,15.109643,-18.019848,10.199138,1000.6072,1,1
29.4,14.000775,-17.528894,9.072354,1000.5827,1,1
29.44,13.040051,-17.514595,8.163349,1000.55756,1,1
29.48,11.500986,-14.735694,7.0697044999999985,1000.5151,1,1
29.52,9.918903,-12.976835,5.1664767,1000.5079,1,1
29.56,6.663904,-9.706978,3.826645,1000.52277,1,1
29.6,5.59804,-8.315145,2.8276882000000003,1000.4805,1,1
29.64,4.307524,-8.229347,2.7519407000000005,1000.5005,1,1
29.68,2.3000386,-8.300844999999999,2.6619902,1000.4706,1,1
29.72,1.5926433999999998,-8.219814,2.4394746,1000.4505,1,1
29.76,1.2437652,-8.915733,0.67354584,1000.45074,1,1
29.8,1.3393773000000002,-9.211261,0.40368623,1000.43585,1,1
29.84,3.1700737,-8.906201,0.50311166,1000.44745,1,1
29.88,4.895599,-8.872836,-0.3490798,1000.4378,1,1
29.92,9.326525,-11.885301,-1.5752864,1000.4775,1,1
29.96,10.932554,-14.1541815,-0.5668565999999999,1000.44745,1,1
30.0,13.51368,-16.785324,1.383721,1000.4622,1,1
30.04,16.668398,-15.288625,1.9565883,1000.5249,1,1
30.08,15.908442,-14.916834,3.357975,1000.50745,1,1
30.12,15.440052,-13.83006,3.4289940000000003,1000.5196,1,1
30.16,14.81393,-10.202711,1.5399694,1000.5366,1,1
30.2,14.8522,-6.5324626,1.9660687,1000.5145,1,1
30.24,14.607205,-3.815496,3.6372015,1000.5143,1,1
30.28,12.986834,-2.237765,3.675075,1000.5066,1,1
30.32,11.251748,-2.8955493,2.5246134,1000.50244,1,1
30.36,10.9410515,-3.6915643,2.766067,1000.4845,1,1
30.4,10.032871,-6.737393400000001,3.4951637000000004,1000.5242,1,1
30.44,9.851202,-8.029129,3.4620197,1000.5141,1,1
30.48,9.851202,-8.029129,3.4620197,1000.5066,1,1
30.52,7.198376,-14.597445,3.1022017,1000.4917,1,1
30.56,7.198376,-14.597445,3.1022017,1000.4845,1,1
30.6,6.376232,-16.856792000000002,2.2216008,1000.4917,1,1
30.64,7.528156,-15.93208,3.3531230000000005,1000.4946,1,1
30.68,6.113316,-14.483045,3.1732137,1000.517,1,1
30.72,4.3638725,-9.811819,1.5398408,1000.5091,1,1
30.76,3.8906631,-10.050147,0.6923815,1000.4641,1,1
30.8,4.2634615999999985,-7.9480944,0.8722865,1000.4942,1,1
30.84,4.889598,-7.204511,2.089027,1000.479,1,1
30.88,5.252854,-7.3236747000000015,2.605076,1000.5116,1,1
30.92,6.094082,-6.394196,4.640868,1000.48114,1,1
30.96,6.8588324000000025,-4.6591687,5.3746996,1000.49146,1,1
31.0,7.2459793,-3.3435984,3.7176564,1000.4766,1,1
31.04,6.5337615,-4.4351397000000015,4.153219,1000.50397,1,1
31.08,7.623539,-4.6401010000000005,4.9249253,1000.50635,1,1
31.12,7.623539,-4.6401010000000005,4.9249253,1000.50397,1,1
31.16,6.433341,-4.592435,5.5593333,1000.5062,1,1
31.2,7.293688,-3.8774507000000007,4.7450137,1000.5236,1,1
31.24,7.672887299999997,-3.6010296000000004,4.5037055,1000.5386,1,1
31.28,8.2465105,-3.4342012000000004,5.5121374,1000.4642,1,1
31.32,8.786675,-4.516211,6.388007,1000.4769,1,1
31.36,6.6119113,-4.806972,4.9392834,1000.48645,1,1
31.4,7.1568559999999986,-4.516213400000002,4.981897,1000.4736,1,1
31.44,7.4245953999999985,-4.4637823,5.0671230000000005,1000.5113,1,1
31.48,7.2955875,-4.578181,4.9156260000000005,1000.4964,1,1
31.52,7.1570199999999975,-4.6306143,4.8682865999999985,1000.48553,1,1
31.56,6.9993339999999975,-5.0739055,5.171293,1000.4979,1,1
31.6,7.434342999999997,-4.582951,5.15236,1000.4884,1,1
31.64,7.4534850000000015,-4.7068825,5.0718765,1000.49554,1,1
31.68,7.35318,-4.644919,4.877773,1000.4985,1,1
31.72,7.1285524,-5.021477,5.0387444000000015,1000.50085,1,1
31.76,7.410630999999999,-4.7974505,4.6978735999999985,1000.49835,1,1
31.8,7.477595299999999,-4.3160300000000005,4.295453500000002,1000.4964,1,1
31.84,7.554119,-4.4399614000000005,4.6600075,1000.4879,1,1
31.88,7.429891599999999,-4.468562,4.3143997,1000.48596,1,1
31.92,7.6689053,-4.1492033,4.5037785,1000.5058,1,1
31.96,7.597254799999999,-4.602027,4.873066400000001,1000.50085,1,1
32.0,8.247355,-4.3160352999999985,4.9866962,1000.5028,1,1
32.04,7.5208955,-3.2292616,4.7973266,1000.5704,1,1
32.08,8.008458000000001,-4.2207065,5.9430547,1000.5054,1,1
32.12,7.7647119999999985,-4.130142,5.1713486,1000.4502,1,1
32.16,7.1577244,-4.964290599999999,5.370198,1000.48553,1,1
32.2,7.200813,-3.8965838,4.2434163,1000.4978,1,1
32.24,7.3187895,-4.2778707,4.764062,1000.4999,1,1
32.28,8.3512125,-3.7869153,5.175953400000001,1000.5079,1,1
32.32,7.667685,-4.106274,4.6977773,1000.5079,1,1
32.36,7.739366499999999,-4.044308999999998,4.972371599999999,1000.5079,1,1
32.4,7.629416,-4.26357,4.792463,1000.4924,1,1
32.44,7.476447,-4.2159038,4.735648,1000.52277,1,1
32.48,7.543349,-4.3350673,5.005508,1000.4978,1,1
32.52,7.715407400000001,-4.1587048,4.825599,1000.5048,1,1
32.56,7.701052000000002,-4.1396375,4.8682075,1000.50684,1,1
32.6,7.495497999999999,-4.316,4.839799,1000.47003,1,1
32.64,7.395107,-4.387498,4.948689,1000.5102,0,0
32.68,7.4667964000000016,-4.3302984,4.920282,1000.5023,0,0
32.72,7.452449,-4.315999,4.8539996,1000.5077,0,0
32.76,7.6006002000000015,-4.2730994,4.872935,1000.4726,0,0
32.8,7.3424754,-4.344598,4.830324,1000.49445,0,0
32.84,7.309001400000001,-4.392263,4.6598845,1000.4973,0,0
32.88,7.428482000000002,-4.2969313,4.858728,1000.53955,0,0
32.92,7.3519897,-4.4160949999999985,4.6598816,1000.4998,0,0
32.96,7.318523399999999,-4.406562,4.7356305,1000.5019,0,0
33.0,7.289829300000001,-4.444693599999999,4.697754,1000.49036,0,0
33.04,7.170319,-4.58769,4.498907599999999,1000.52966,0,0
33.08,7.179856,-4.9165816,3.9213085,1000.51166,0,0
33.12,7.337574000000001,-4.6591873,3.7698061,1000.51715,0,0
33.16,7.208504,-4.7592845,3.386318,1000.51166,0,0
33.2,7.653011,-4.7020855,3.4478638,1000.50433,0,0
33.24,7.653011,-4.7020855,3.4478638,1000.51965,0,0
33.28,8.016852,-5.498114599999999,3.2396028,1000.5066,0,0
33.32,8.016852,-5.498114599999999,3.2396028,1000.5068,0,0
33.36,8.064662,-5.6887774,2.3258636000000004,1000.47943,0,0
33.4,8.332338,-5.6554117,1.691454,1000.4992,0,0
33.44,8.255869,-5.5600805,1.5872979,1000.47943,0,0
33.48,8.537885000000001,-5.693544,1.7672061,1000.5019,0,0
33.52,8.8438,-5.5171824,1.4263295,1000.5218,0,0
33.56,8.480542,-5.6697115999999985,0.91501456,1000.5019,0,0
33.6,8.294138,-5.917573,0.68776387,1000.4942,0,0
33.64,7.9595594,-5.9700050000000005,0.6972333000000001,1000.5218,0,0
33.68,7.744476,-5.927107,0.49838907,1000.47406,0,0
33.72,7.758823,-5.893741,0.6546251000000001,1000.50684,0,0
33.76,8.141214,-5.7221446,0.77298594,1000.5017,0,0
33.8,8.270277,-5.693546,0.91501874,1000.5247,0,0
33.84,8.858203999999997,-5.412319,0.8866134,1000.49445,0,0
33.88,8.858203999999997,-5.412319,0.8866134,1000.49927,0,0
33.92,8.365896000000001,-5.331288,0.8061295,1000.5023,0,0
33.96,8.059996,-5.4361525,1.0049753,1000.5152,0,0
34.0,8.045664,-5.955707,1.0097103,1000.51416,0,0
34.04,7.582031,-6.198802,0.9718358,1000.4968,0,0
34.08,7.6585155,-6.0224395,0.9339613,1000.5222,0,0
34.12,7.7158766,-5.927109,0.92922723,1000.5073,0,0
34.16,7.763686,-6.0701056,0.9765722,1000.4998,0,0
34.2,7.7445707,-6.1606703000000005,1.0381199,1000.5019,0,0
34.24,7.649361999999999,-6.0748816,1.1565155,1000.4998,0,0
34.28,7.759320699999999,-6.117781,0.8629844999999999,1000.49695,0,0
34.32,8.055714,-6.174981,0.7398942,1000.4924,0,0
34.36,8.055714,-6.174981,0.7398942,1000.49945,0,0
34.4,8.136982000000001,-6.2178802000000015,0.7683015999999999,1000.49194,0,0
34.44,7.9792830000000015,-6.079651,1.0618379,1000.5019,0,0
34.48,7.6303800000000015,-5.927122,1.0334334,1000.51715,0,0
34.52,7.463121000000001,-6.0891857000000025,0.99556136,1000.5147,0,0
34.56,7.510942,-6.194051,0.919813,1000.4973,0,0
34.6,7.3532199999999985,-6.3990126,1.0145022,1000.48553,0,0
34.64,7.386712599999999,-6.3704142999999975,1.3506479999999998,1000.5077,0,0
34.68,7.6544046,-6.1320868,1.2370244,1000.51276,0,0
34.72,7.783482000000001,-6.217885,1.0003064,1000.5352,0,0
34.76,7.7691655,-6.2750845,1.019246,1000.52014,0,0
34.8,7.769188400000001,-6.1797543,0.96716964,1000.50684,0,0
34.84,7.826569,-6.022458,0.6262945,1000.50433,0,0
34.88,7.802681,-6.003392,0.63102996,1000.4999,0,0
34.92,7.8983,-5.908062,1.0618628,1000.50433,0,0
34.96,7.9747996,-5.836564,1.3222572,1000.5028,0,0
35.0,7.993931,-5.8651633,1.4737593,1000.5048,0,0
35.04,7.7932130000000015,-5.903297,1.6442009999999998,1000.4974,0,0
35.08,7.821914,-5.998628599999999,1.7530943,1000.5402,0,0
35.12,7.812366499999999,-6.0272284,1.8193771,1000.4973,0,0
35.16,7.850639,-5.9223647,1.4927063,1000.5123,0,0
35.2,7.8028520000000015,-5.912832,1.3743472,1000.5222,0,0
35.24,7.959205,-5.969997,0.99073404,1000.52026,0,0
35.28,7.9304934,-5.9842954000000015,0.9102461,1000.5079,0,0
35.32,7.911341,-6.03196,0.8771023000000001,1000.51526,0,0
35.36,7.8396277,-6.055793,0.71613103,1000.5104,0,0
35.4,8.006855,-6.1129894,1.1848311000000002,1000.52026,0,0
35.44,8.006855,-6.1129894,1.1848311000000002,1000.49036,0,0
35.48,7.8155966,-5.9842910000000025,1.4736236,1000.5352,0,0
35.52,7.8155966,-5.9842910000000025,1.4736236,1000.50037,0,0
35.56,7.987636599999999,-5.9938235,1.359995,1000.52527,0,0
35.6,8.14532,-5.7793269999999985,1.4736161,1000.52026,0,0
35.64,8.255222999999999,-5.4790335,1.2274241,1000.48285,0,0
35.68,8.135695,-5.4837989999999985,1.2842339,1000.5054,0,0
35.72,7.925350999999999,-5.731659,1.355247,1000.51276,0,0
35.76,7.7819405,-5.8222237,1.2605574,1000.5053,0,0
35.8,7.7293296,-6.1415824999999975,1.2652888,1000.4954,0,0
35.84,7.7770944,-6.151114,1.1848008999999995,1000.498,0,0
35.88,7.7818413,-6.098681,0.8344520000000001,1000.5028,0,0
35.92,7.614498599999999,-6.0653143,0.90546346,1000.52277,0,0
35.96,7.6431613,-5.9985824,0.8581179,1000.5104,0,0
36.0,7.609669,-6.0891457,0.8912556999999999,1000.4929,0,0
36.04,7.5570583,-6.122511,1.1753169,1000.4804,0,0
36.08,7.652622,-5.974747,1.2415956,1000.5079,0,0
36.12,7.719506,-5.9366136,1.3599527,1000.5048,0,0
36.16,7.805509599999999,-5.693518,1.4262313,1000.4998,0,0
36.2,7.9871087,-5.712584,1.4735724,1000.5207,0,0
36.24,8.217371,-5.7316704000000005,1.5588678,1000.4929,0,0
36.28,8.236491000000001,-5.669705,1.525727,1000.5023,0,0
36.32,8.265172,-5.62204,1.3079447,1000.50543,0,0
36.36,8.112219,-5.7507367,1.1753813999999998,1000.48535,0,0
36.4,7.987946000000001,-5.8842006,1.2274599,1000.52765,0,0
36.44,7.9975070000000015,-6.1606607,1.3032105,1000.5331,0,0
36.48,7.868453999999999,-6.046263,1.0759593,1000.5154,0,0
36.52,7.725061,-5.9032664000000015,0.9433961,1000.5079,0,0
36.56,7.686822999999999,-5.922333,0.9954745,1000.5077,0,0
36.6,7.6916046,-6.0986953,1.1706476,1000.5053,0,0
36.64,7.772863,-6.0891623,1.3884305,1000.4929,0,0
36.68,7.753744599999999,-6.046263,1.2369295,1000.5102,0,0
36.72,7.6629295,-5.8985,1.1801169,1000.50287,0,0
36.76,7.696389,-5.9366330000000005,1.1895857,1000.52277,0,0
36.8,7.715509399999997,-6.008131,1.3363523000000002,1000.4999,0,0
36.84,7.6485925,-6.05103,1.4783846,1000.5104,0,0
36.88,7.653374,-6.022431,1.3836966,1000.5077,0,0
36.92,7.820669,-6.0128980000000025,1.4594473999999995,1000.5127,0,0
36.96,8.026202,-5.9509325,1.4121034,1000.50433,0,0
37.0,7.978405499999999,-5.8270019999999985,1.3552905000000002,1000.5054,0,0
37.04,7.964066499999999,-5.798403,1.3931658000000002,1000.5023,0,0
37.08,8.15048,-5.836535,1.3410876,1000.5023,0,0
37.12,8.088345,-5.798403,1.3979006,1000.50964,0,0
37.16,7.983189599999997,-5.960466,1.5351983,1000.5073,0,0
37.2,7.6964035000000015,-6.0367303,1.4026352,1000.50726,0,0
37.24,7.7967796,-6.0033645999999985,1.3363537,1000.51215,0,0
37.28,7.8636985,-5.998598,1.2037904,1000.5218,0,0
37.32,7.8398004,-5.903267,1.1706496000000002,1000.50433,0,0
37.36,7.9258380000000015,-5.898501,1.0854305,1000.4744,0,0
37.4,7.796785400000001,-6.0128980000000025,1.1327748,1000.52966,0,0
37.44,7.672511599999999,-6.1511283,1.0380868,1000.48145,0,0
37.48,7.6820726,-6.051031,1.1943222,1000.49945,0,0
37.52,7.758550599999999,-5.9699993,1.307948,1000.49445,0,0
37.56,7.7967906,-5.9366336,1.2558698999999998,1000.50433,0,0
37.6,7.7394333,-5.9318665999999975,1.1895882,1000.5093,0,0
37.64,7.830251700000002,-6.046264,1.3316203000000002,1000.4819,0,0
37.68,7.8828297,-6.051031,1.2842765,1000.4967,0,0
37.72,7.849373299999999,-6.017665,1.2842766,1000.50934,0,0
37.76,7.8159156,-6.0081315,1.1327758,1000.5018,0,0
37.8,7.825475999999999,-5.9747660000000025,1.0096813,1000.4843,0,0
37.84,7.7681203,-5.993832,1.0996351,1000.5186,0,0
37.88,7.753782000000001,-5.9223337,1.0191504,1000.5218,0,0
37.92,7.8206997,-5.989065599999999,1.0238849,1000.52405,0,0
37.96,7.9879937,-5.9461665,1.2890116000000005,1000.47833,0,0
38.0,7.9784355,-5.989065599999999,1.2558709,1000.52405,0,0
38.04,7.901960400000001,-6.017665,1.1753861,1000.51355,0,0
38.08,7.8685026,-6.008132,1.0806981000000002,1000.50336,0,0
38.12,7.873284,-6.055797599999999,0.9481349,1000.50085,0,0
38.16,7.829859,-6.012889,1.0522546999999998,1000.4992,0,0
38.2,7.815516499999997,-6.0128884000000005,1.0333167,1000.4932,0,0
38.24,7.782047,-6.0319543,1.1327382,1000.4982,0,0
38.28,7.767703999999997,-6.017655,1.1848162,1000.5083,0,0
38.32,7.7963752999999985,-6.0843862999999985,1.2653006000000002,1000.50085,0,0
38.36,7.8776217000000015,-6.108219,1.1895491000000002,1000.4928,0,0
38.4,7.7581190000000015,-5.903256400000001,0.85340565,1000.50073,0,0
38.44,7.820249,-5.8317585,0.86287385,1000.49835,0,0
38.48,7.8011227,-5.8603578,1.0191087,1000.5132,0,0
38.52,7.834578,-5.836524,1.0853899,1000.51074,0,0
38.56,7.8441267,-5.9223222999999985,1.449938,1000.50256,0,0
38.6,7.8297834,-5.903256,1.4783442,1000.5132,0,0
38.64,7.595561999999997,-5.974754,1.3789207,1000.5102,0,0
38.68,7.605118300000001,-5.9890537,1.4167956,1000.4798,0,0
38.72,7.600332000000001,-6.074851,1.3315756,1000.4848,0,0
38.76,7.7484946,-6.260747,1.2037457,1000.51807,0,0
38.8,7.7676067,-6.236914,0.9244152,1000.4852,0,0
38.84,7.767603,-6.2083144,0.85813314,1000.49976,0,0
38.88,7.805830499999999,-6.0128856,0.6876936,1000.49506,0,0
38.92,7.8679605,-6.0986834000000005,0.9717572,1000.5224,0,0
38.96,7.8201556,-6.1463485,1.1516639,1000.49756,0,0
39.0,7.772353999999999,-6.1225157,1.2132108,1000.512,0,0
39.04,7.758007000000001,-6.06055,1.3552423999999998,1000.5018,0,0
39.08,7.6528444,-6.0510173,1.359976,1000.5068,0,0
39.12,7.6767364,-6.1129823,1.5351483999999995,1000.48645,0,0
39.16,7.7112255,-6.0462756,1.4736955,1000.5015,0,0
39.2,7.8068557,-6.1416078,1.4642298,1000.5211,0,0
39.24,7.744753,-6.008145,1.3506073,1000.5012,0,0
39.28,7.797347999999999,-5.9700120000000005,1.2464518999999998,1000.48645,0,0
39.32,7.8308234,-5.9843129999999976,1.203844,1000.4914,0,0
39.36,7.7639747,-6.04628,1.1517715,1000.5012,0,0
39.4,7.7305675,-6.251243,1.3080118,1000.5161,0,0
39.44,7.7305675,-6.251243,1.3080118,1000.5062,0,0
39.48,7.6111064,-6.1702127,1.1659827,1000.4963,0,0
39.52,7.582478999999997,-6.146381,1.255941,1000.5112,0,0
39.56,7.549038,-6.179747,1.1991298,1000.50336,0,0
39.6,7.53475,-6.241714,1.4405892,1000.5306,0,0
39.64,7.563445599999999,-6.198815,1.4547939,1000.51605,0,0
39.68,7.649516,-6.089185,1.4169219,1000.4963,0,0
39.72,7.625652,-6.0701199999999975,1.4500659,1000.50336,0,0
39.76,7.687823299999999,-6.089187,1.5305539,1000.51544,0,0
39.8,7.826489,-6.0558224,1.4737457,1000.47546,0,0
39.84,7.883863400000001,-6.04629,1.4453408,1000.5152,0,0
39.88,7.936493,-5.965259,1.3364543,1000.49066,0,0
39.92,7.9269505,-6.003392,1.3080493,1000.4953,0,0
39.96,7.8791866,-6.041526,1.3411933,1000.5152,0,0
40.0,7.750166,-6.132091,1.3743373,1000.50244,0,0
40.04,7.692842999999999,-6.1463914000000015,1.2086363000000002,1000.4978,0,0
40.08,7.807592,-6.222657,1.156561,1000.52997,0,0
40.12,7.893663,-6.2750900000000005,0.7825460999999999,1000.4974,0,0
40.16,7.9988356,-6.3036900000000005,0.7494068,1000.5027,0,0
40.2,7.955174,-5.9271164,0.4132052,1000.4924,0,0
40.24,7.773549000000001,-5.5839243,0.5931133000000001,1000.5024,0,0
40.28,7.54413,-6.174978,0.68780243,1000.5143,0,0
40.32,7.563256699999997,-6.294142,1.0239459,1000.5049,0,0
40.36,7.979111,-5.9128175,1.1044317,1000.514,0,0
40.4,7.45334,-6.3513412,1.0381507,1000.5094,0,0
40.44,7.45334,-6.3513412,1.0381507,1000.50653,0,0
40.48,7.443796000000002,-5.340831,1.3837636999999998,1000.507,0,0
40.52,7.443796000000002,-5.340831,1.3837636999999998,1000.4862,0,0
40.56,8.084298,-5.5267267,1.5731407,1000.49615,0,0
40.6,8.074749,-5.583926,0.8535120999999999,1000.4836,0,0
40.64,7.8166509999999985,-5.7650557,1.2843440000000002,1000.4932,0,0
40.68,7.6541414,-5.8794527,1.0476241,1000.501,0,0
40.72,7.5920076,-5.8794527,0.7493569999999999,1000.4979,0,0
40.76,7.897926299999999,-5.8985195,0.81090534,1000.47046,0,0
40.8,8.084348,-6.079649,1.4358474,1000.4936,0,0
40.84,8.007878,-6.265545,1.7009747,1000.48785,0,0
40.88,7.912285000000002,-6.1511474,1.606287,1000.5057,0,0
40.92,7.788013999999999,-6.079649,1.4689896999999998,1000.52094,0,0
40.96,7.850163,-6.008151,1.705711,1000.48535,0,0
41.0,7.807156,-6.0319843,1.2701467,1000.5052,0,0
41.04,7.7402425,-5.9843187,1.3174912,1000.49036,0,0
41.08,7.663773,-6.022451,1.92823,1000.5175,0,0
41.12,7.5012674,-6.0272183,2.3117175,1000.4999,0,0
41.16,7.6653337,-5.793695,2.3213284,1000.5123,0,0
41.2,8.176807,-5.4123715999999975,2.150893,1000.50494,0,0
41.24,7.756286599999997,-5.6936007,1.9946672,1000.4949,0,0
41.28,7.756286599999997,-5.6936007,1.9946672,1000.48425,0,0
41.32,7.192338499999999,-6.3990519999999975,3.116727,1000.52966,0,0
41.36,8.339594,-5.607807,1.8810571,1000.5118,0,0
41.4,8.521295,-5.989133,1.900001,1000.5172,0,0
41.44,7.5654035,-6.0082006,3.2635157,1000.5193,0,0
41.48,7.207020299999999,-6.0606356,2.9037104,1000.50903,0,0
41.52,7.479503599999997,-5.936706,2.8184943,1000.50433,0,0
41.56,7.804599,-5.5315504,2.7711565,1000.4688,0,0
41.6,7.450996000000001,-5.6983824,3.4197793,1000.4911,0,0
41.64,7.2741776,-5.9557769999999985,3.3061568999999995,1000.5063,0,0
41.68,7.121326400000001,-5.965313,4.5560493,1000.51624,0,0
41.72,7.121326400000001,-5.965313,4.5560493,1000.5211,0,0
41.76,6.2610984000000025,-5.869985,4.8211879999999985,1000.506,0,0
41.8,6.1225185,-6.0987806,4.9537544,1000.48584,0,0
41.84,6.213403,-6.2560782,5.3183099999999985,1000.4934,0,0
41.88,6.266049400000001,-6.3847775,5.40827,1000.47046,0,0
41.92,5.802477,-6.389546,4.717053400000001,1000.4781,0,0
41.96,5.864683,-6.027289,5.436689,1000.4804,0,0
42.0,5.955568,-6.1416883,5.2946634,1000.5057,0,0
42.04,5.3963995,-5.8985953,5.124231,1000.49304,0,0
42.08,5.778852,-6.3704863,5.0958304000000005,1000.485,0,0
42.12,5.415655,-6.1655254,6.2084217000000015,1000.47253,0,0
42.16,5.4424253,-6.0653815,5.696932,1000.4921,0,0
42.2,5.3754983,-5.9843493,4.8968167000000005,1000.4819,0,0
42.24,6.474843,-5.1597347000000005,4.1961236,1000.5046,0,0
42.28,6.9862720000000005,-5.340864,5.2376914,1000.46387,0,0
42.32,6.0541997000000025,-6.2036104000000005,5.5359583,1000.4925,0,0
42.36,6.0255055,-5.5124593,4.0114784,1000.5536,0,0
42.4,6.541714700000001,-5.216933,5.223485,1000.6207,0,0
42.44,7.4689913,-4.716444,5.7537379999999985,1000.45996,0,0
42.48,7.4642015,-5.188332599999999,4.911013,1000.42487,0,0
42.52,6.101947,-5.4361935,3.9783344,1000.46924,0,0
42.56,6.943182000000001,-5.4647927,4.9062769999999984,1000.48364,0,0
42.6,6.6277,-5.1597323,4.068286,1000.4714,0,0
42.64,6.8475657000000005,-4.85944,3.5285633,1000.4787,0,0
42.68,7.879993400000001,-4.5400800000000014,3.8741736000000007,1000.4979,0,0
42.72,6.8236413,-5.912848,5.294494,1000.48,0,0
42.76,6.8236413,-5.912848,5.294494,1000.50775,0,0
42.8,6.6945767000000025,-5.5839553,4.1582355,1000.4434,0,0
42.84,6.4364524,-6.041544,4.1913753,1000.6393,0,0
42.88,7.301587,-5.164498,4.9914885,1000.5399,0,0
42.92,6.9574304000000025,-5.846114599999999,4.7263613,1000.3657,0,0
42.96,5.9680057,-6.5944642999999985,4.5417185,1000.43787,1,2
43.0,5.585612,-6.2036066,3.8173537,1000.4825,1,2
43.04,6.2595487,-6.122575,4.5795913,1000.49963,1,2
43.08,6.8235600000000005,-5.817515,4.508575,1000.49225,1,2
43.12,6.632353,-5.7078834,4.8636537,1000.4725,1,2
43.16,6.465461,-5.950988,4.958379,1000.48975,1,2
43.2,6.173899,-6.0749182999999976,4.4991417,1000.4721,1,2
43.24,6.532394,-5.998654,4.967849,1000.4946,1,2
43.28,6.4941583,-5.927155,4.5701594000000005,1000.457,1,2
43.32,6.455923,-5.836591,4.4423309999999985,1000.4773,1,2
43.36,6.221722,-6.0224867,4.8163495,1000.4946,1,2
43.4,6.8383265,-5.4600334,4.589099,1000.46674,1,2
43.44,6.6997156,-5.6363964000000015,4.4944115,1000.47424,1,2
43.48,6.5324316,-5.7603264,4.7074604,1000.4594,1,2
43.52,6.556333500000001,-5.5934973,4.499146499999998,1000.48474,1,2
43.56,6.532441,-5.779393700000001,4.475475,1000.48975,1,2
43.6,6.6280437,-5.8747244000000025,5.034136,1000.4892,1,2
43.64,6.7140894,-5.5410660000000025,4.712197,1000.4594,1,2
43.68,6.61372,-5.8556589999999975,4.9299803,1000.46686,1,2
43.72,6.3460574,-5.746028,4.745339,1000.48975,1,2
43.76,6.5276933,-5.6363974,4.8021525999999986,1000.4795,1,2
43.8,6.4751252999999975,-5.769861,4.901575,1000.47675,1,2
43.84,6.4416695,-5.7507954,4.8731694,1000.487,1,2
43.88,6.5802869999999976,-5.612565,4.7974195,1000.46924,1,2
43.92,6.675889,-5.6888304000000005,5.1477656,1000.46674,1,2
43.96,6.4082294,-5.483868,4.8258269999999985,1000.4791,1,2
44.0,6.432132,-5.479101999999999,4.693264,1000.47174,1,2
44.04,6.4273586,-5.669764,5.1667055999999985,1000.48474,1,2
44.08,6.250515,-5.4314365,4.8352976,1000.46185,1,2
44.12,6.346114599999999,-5.6983643,4.835298000000001,1000.46924,1,2
44.16,6.3031025000000005,-5.970058,5.5407248,1000.4791,1,2
44.2,6.136017,-5.674536,4.347674,1000.47174,1,2
44.24,6.035648,-5.798467,4.3240027,1000.47424,1,2
44.28,6.4037204,-5.8651996,4.186707,1000.47675,1,2
44.32,6.0691414,-6.0272627,3.5002190000000004,1000.49695,1,2
44.36,6.174304,-5.9652977,3.561767,1000.457,1,2
44.4,6.0691690000000005,-6.5992503,3.0788596,1000.47675,1,2
44.44,6.0452843000000005,-6.8995440000000015,2.2314026,1000.4619,1,2
44.48,6.1313276,-7.199837,1.9094636000000005,1000.4799,1,2
44.52,6.590203,-7.4381647,2.075169,1000.477,1,2
44.56,6.7144985,-7.371434,1.2040406,1000.4788,1,2
44.6,7.0060735,-7.3523674,0.9957275,1000.48663,1,2
44.64,7.622689200000001,-7.719392999999997,1.9568136000000005,1000.4721,1,2
44.68,7.971622,-7.576396000000001,1.7911099999999998,1000.48413,1,2
44.72,8.58345,-6.685050500000001,2.3639743,1000.4867,1,2
44.76,9.644581,-5.212185,2.7900720000000003,1000.5291,1,2
44.8,10.935148,-3.486692,1.9426154,1000.5095,1,2
44.84,11.891117,-2.8670397000000003,2.0562418,1000.50604,1,2
44.88,13.836510999999998,-3.3532288,2.3261042,1000.5041,1,2
44.92,15.303931,-5.4981800000000005,3.1214862,1000.47174,1,2
44.96,15.084067999999998,-6.584955,2.9226415,1000.51416,1,2
45.0,14.653892,-7.829026700000001,2.7758756,1000.5016,1,2
45.04,12.063259,-9.316192,2.6007044,1000.5145,1,2
45.08,10.830076,-9.444891,2.2456248,1000.47174,1,2
45.12,8.961186999999997,-8.949167999999998,1.611216,1000.4867,1,2
45.16,6.681242,-8.095955,0.7069466,1000.49225,1,2
45.2,5.840004,-8.191286999999999,0.5554463000000001,1000.4664,1,2
45.24,3.9424355,-9.597422,0.6548701,1000.48663,1,2
45.28,2.0114088,-10.25044,0.5412456,1000.477,1,2
45.32,-1.6260011,-13.610863,-0.8980115,1000.47174,1,2
45.36,2.121379,-12.733817,-0.20678712,1000.4748,1,2
45.4,3.5648937000000007,-14.854936,-1.7265297,1000.4721,1,2
45.44,8.000573,-14.25435,1.6443683,1000.4946,1,2
45.48,8.645853,-13.782460999999998,1.9994493,1000.5126,1,2
45.52,10.701183,-12.895882,1.7627302,1000.47424,1,2
45.56,11.781425,-12.96738,1.2703528,1000.4795,1,2
45.6,11.948739,-11.28002,1.4928719,1000.4696,1,2
45.64,10.667767,-9.587892,2.2219713,1000.4942,1,2
45.68,10.409663,-9.001605,2.8705854,1000.49194,1,2
45.72,10.576978,-5.8318458,2.9226658,1000.46936,1,2
45.76,11.040626,-4.378046,2.6101959,1000.48474,1,2
45.8,10.830328,-2.747884,2.1698976,1000.482,1,2
45.84,9.382068,-3.5391328,1.4218634,1000.4622,1,2
45.88,11.337022,-3.9156911,0.839533,1000.48914,1,2
45.92,12.986069,-5.569687,1.914244,1000.50464,1,2
45.96,13.401925,-9.087406,2.5344524,1000.507,1,2
46.0,13.253032,-10.422025,2.6764185,1000.507,1,2
46.04,13.48246,-12.095085,2.0940864,1000.5269,1,2
46.08,15.12671,-13.830112,2.453901,1000.53937,1,2
46.12,15.389597,-15.641403,2.4018228,1000.5465,1,2
46.16,12.225364,-20.603388,4.4707575,1000.5589,1,2
46.2,8.86994,-16.99034,2.9415443,1000.5314,1,2
46.24,6.5756320000000015,-11.918723,1.8242245,1000.47925,1,2
46.28,3.2488866,-10.503056,0.93889064,1000.49963,1,2
46.32,2.4028602,-9.483012,1.0998603,1000.457,1,2
46.36,1.5138147,-7.3904934,0.42284027,1000.4326,1,2
46.4,1.2652628,-5.493404,0.23346388,1000.4723,1,2
46.44,1.4038751,-5.1645117,-0.06480379,1000.4476,1,2
46.48,1.1744424,-6.413349,-0.6139949,1000.4674,1,2
46.52,2.1638596000000003,-8.157909,-0.893325,1000.4624,1,2
46.56,4.228733,-10.879612,-0.4766976,1000.4599,1,2
46.6,7.106172999999999,-14.354432999999998,0.54119927,1000.48944,1,2
46.64,10.4902725,-17.781588,3.4907331,1000.50464,1,2
46.68,11.895533,-18.077116,5.782185,1000.50684,1,2
46.72,13.453748,-17.433629999999994,6.5112830000000015,1000.4671,1,2
46.76,14.902024,-12.423977,3.8079379,1000.4495,1,2
46.8,14.605675,-11.499265,1.6537836,1000.47925,1,2
46.84,12.803687,-11.208505,0.76371527,1000.4597,1,2
46.88,10.676673,-10.217061,1.8810346,1000.49194,1,2
46.92,8.955942,-9.054022,1.9047064,1000.49194,1,2
46.96,8.138594,-7.800416999999999,1.5448915,1000.5146,1,2
47.0,8.659589,-6.1416554,0.29500842,1000.5118,1,2
47.04,9.534603,-4.6258974,0.47020975,1000.4842,1,2
47.08,10.868184,-3.396126,1.8147821,1000.47174,1,2
47.12,10.528829,-4.5972985999999985,2.0278313000000003,1000.4867,1,2
47.16,10.519274,-5.078721,2.3923810000000003,1000.514,1,2
47.2,11.900652,-9.702282,3.2493095000000003,1000.50354,1,2
47.24,12.359519,-12.166592,4.2056594,1000.5561,1,2
47.28,12.306946,-13.734789,6.435565,1000.58545,1,2
47.32,12.698899,-13.458329999999998,11.184174,1000.6033,1,2
47.36,13.435005,-15.231489000000002,13.234172,1000.5833,1,2
47.4,12.502953,-15.731976500000002,13.205767000000002,1000.55145,1,2
47.44,9.7020035,-13.362999,11.842259,1000.514,1,2
47.48,8.06732,-12.75288,9.527137,1000.51666,1,2
47.52,7.431611500000002,-11.632739,8.973212,1000.46674,1,2
47.56,5.2329173,-10.769993,7.2925,1000.4419,1,2
47.6,4.6928043,-10.05501,7.3682504,1000.46924,1,2
47.64,4.1287975,-8.953935000000003,6.615481,1000.42896,1,2
47.68,3.191966,-8.667942,4.4471245,1000.4371,1,2
47.72,1.4903712,-8.334284,2.539161,1000.40686,1,2
47.76,1.4616975,-8.372416000000001,2.0136425,1000.4292,1,2
47.8,2.0305042,-8.300918,1.1188408,1000.4339,1,2
47.84,2.5371687,-8.806172,1.1851231000000002,1000.4063,1,2
47.88,4.6880956,-11.680407,-1.0826554,1000.4366,1,2
47.92,5.749217,-13.124675,-2.1999743,1000.42896,1,2
47.96,10.242249,-17.018951,-4.6523949999999985,1000.4311,1,2
48.0,11.924744,-16.718657999999998,-4.751817,1000.4589,1,2
48.04,13.358695,-16.189571,-3.0663676,1000.496,1,2
48.08,13.339586,-13.873024,-2.2331116,1000.48096,1,2
48.12,12.335837,-11.337216,-2.659207,1000.4861,1,2
48.16,9.831235,-7.8909965,-3.2226,1000.50824,1,2
48.2,9.195527,-7.1521797000000005,-2.8107064,1000.50824,1,2
48.24,9.2385645,-6.8185210000000005,1.5023383,1000.498,1,2
48.28,9.730895,-5.426687,3.0599582,1000.5179,1,2
48.32,9.1860075,-5.569684,4.073122,1000.5108,1,2
48.36,8.459488,-5.9986744000000005,5.4366309999999975,1000.52014,1,2
48.4,8.655465,-5.974842,5.076817,1000.48785,1,2
48.44,7.862027,-7.1045156,6.2320127,1000.525,1,2
48.48,8.392595,-9.41153,6.4450617,1000.5352,1,2
48.52,8.846687,-10.545971,6.1657333,1000.5294,1,2
48.56,10.060767,-13.615633,6.108921,1000.5821,1,2
48.6,8.980542,-14.173321,7.046334299999999,1000.5871,1,2
48.64,8.005472,-13.353473,6.274627,1000.56744,1,2
48.68,7.747367999999999,-12.366796,4.877978,1000.535,1,2
48.72,6.7627378,-10.550738,3.448189,1000.5018,1,2
48.76,5.8689300000000015,-9.59266,2.5391846,1000.4646,1,2
48.8,5.0085754,-8.348589,2.326137,1000.46265,1,2
48.84,3.6559014,-8.072128999999999,1.1378026,1000.4377,1,2
48.88,3.5220718,-7.7813690000000015,0.7353786999999999,1000.4352,1,2
48.92,3.598559,-7.1569505000000015,0.3518928,1000.4392,1,2
48.96,4.4159207,-6.9948883,0.63595855,1000.44965,1,2
49.0,5.5580144,-7.261808,0.43235356,1000.4671,1,2
49.04,5.5580144,-7.261808,0.43235356,1000.43463,1,2
49.08,6.8342214000000014,-8.544012,-1.0069056,1000.4918,1,2
49.12,8.263382,-8.143621000000001,1.0478259,1000.51416,1,2
49.16,8.588407,-8.810939,2.2503645,1000.48914,1,2
49.2,9.420091,-7.3047075,0.6974798000000001,1000.4942,1,2
49.24,10.060583,-7.776596499999999,1.1377792,1000.5289,1,2
49.28,10.012784,-7.886227000000001,2.0846603,1000.50354,1,2
49.32,10.57202,-7.137878,1.9236902,1000.514,1,2
49.36,11.862565,-3.510528,3.3298082,1000.514,1,2
49.4,10.376043,-4.2016788,4.404518,1000.47845,1,2
49.44,10.356925,-4.1063476,5.1620225999999985,1000.4415,1,2
49.48,8.774808,-5.1835895,4.537081,1000.419,1,2
49.52,8.373303,-5.7412767,4.480268,1000.45874,1,2
49.56,8.091294,-6.532525,3.8884673,1000.45856,1,2
49.6,7.460358999999999,-7.690798,4.3477044000000005,1000.4859,1,2
49.64,6.341883,-8.386716,3.628075,1000.4689,1,2
49.68,4.1527324,-7.7003317,1.3839669,1000.463,1,2
49.72,4.5924726,-7.6621985,3.1120245,1000.4634,1,2
49.76,4.6354894999999985,-7.647899000000002,3.0410085,1000.49036,1,2
49.8,4.501654,-7.905292999999999,2.5060205,1000.468,1,2
49.84,4.817119,-7.1426440000000015,4.1867337,1000.4773,1,2
49.88,5.1086864,-6.8900166,4.4944706,1000.4426,1,2
49.92,5.820876,-6.065402,3.9263418,1000.4798,1,2
49.96,5.3285546,-6.909082400000001,5.242506,1000.49207,1,2
50.0,5.3428617,-6.5134573,4.939501,1000.4902,1,2
50.04,5.811281,-6.2465305,4.7974687000000005,1000.4816,1,2
50.08,5.734799400000001,-6.4276589999999985,4.953704,1000.4946,1,2
50.12,5.734799400000001,-6.4276589999999985,4.953704,1000.4792,1,2
50.16,5.739574,-6.0320354000000025,5.076798,1000.49963,1,2
50.2,5.634417,-6.008202,4.9442344,1000.49713,1,2
50.24,5.8925242,-6.1130667,5.01525,1000.51385,1,2
50.28,6.4660993,-5.8699718,5.3087835,1000.631,1,2
50.32,5.5483730000000016,-6.2179303,5.4555492,1000.5561,1,2
50.36,6.389616,-6.298962,6.819058,1000.3701,1,2
50.4,5.361955,-6.7660839999999975,4.6080904,1000.3794,1,2
50.44,5.672639,-6.5372895999999985,5.6401906,1000.4371,1,2
50.48,6.0932593,-6.337095,5.143078,1000.44135,1,2
50.52,6.0932593,-6.337095,5.143078,1000.4937,1,2
50.56,6.2127504,-6.208397,4.7832623,1000.4711,1,2
50.6,5.95464,-6.5611229999999985,4.811669,1000.4861,1,2
50.64,5.620051,-6.5134563,4.750121599999999,1000.47577,1,2
50.68,5.906837,-6.3180275,4.5938854000000005,1000.5058,1,2
50.72,6.0072103,-6.1368985,4.8495436,1000.4657,1,2
50.76,6.011986,-6.4657907,6.1278324,1000.48846,1,2
50.8,5.849472,-6.2417626,5.403468599999999,1000.48566,1,2
50.84,5.725194,-5.6983757000000015,4.3145547,1000.49615,1,2
50.88,5.4384017,-6.1797967000000025,5.379796,1000.48846,0,0
50.92,5.696509,-6.0653996,5.2567010000000005,1000.49304,0,0
50.96,5.911597,-5.9653019999999986,5.109934,1000.5024,0,0
51.0,5.7402544,-6.0797176,5.318314599999999,1000.4806,0,0
51.04,5.668571,-6.175049,5.289909400000001,1000.4974,0,0
51.08,5.6877165000000005,-6.0749516,5.2662396,1000.49,0,0
51.12,5.740321,-5.993921,5.252039,1000.48004,0,0
51.16,5.7785726,-5.9748550000000025,5.1005397000000015,1000.49304,0,0
51.2,5.749934,-5.94149,4.9490423,1000.49097,0,0
51.24,5.5061903,-6.2513165,5.209437,1000.495,0,0
51.28,5.2194157,-6.403847,5.323064,1000.4677,0,0
51.32,5.44412,-5.9796247000000005,3.9074817,1000.49,0,0
51.36,5.305532,-6.2751519999999985,3.950094,1000.4776,0,0
51.4,6.4335923,-5.9986925000000015,4.281504,1000.5048,0,0
51.44,6.5435550000000005,-6.308519,3.9169576,1000.4622,0,0
51.48,6.8064703999999985,-6.7422767000000015,3.3204253,1000.4672,0,0
51.52,7.083726,-6.456283999999999,2.9984882,1000.4847,0,0
51.56,7.1028714000000015,-6.923406599999999,3.0079596,1000.4672,0,0
51.6,7.122004,-6.899574799999999,2.927476,1000.4797,0,0
51.64,7.3371086,-6.6660137000000015,2.8706641,1000.4644,0,0
51.68,7.738652,-6.5516176,2.7617767000000004,1000.4666,0,0
51.72,7.652628999999999,-6.384788,2.4540415,1000.4669,0,0
51.76,7.590532,-6.4324546,2.3735602000000005,1000.4644,0,0
51.8,7.3180960000000015,-6.561152000000001,2.2031229,1000.46936,0,0
51.84,7.2177467,-6.7232156000000005,1.9379985,1000.4722,0,0
51.88,7.2846904000000015,-6.599286,1.8527818,1000.4945,0,0
51.92,7.1317773,-6.6946176999999985,1.7344253,1000.4872,0,0
51.96,7.2465186,-6.980612,2.27415,1000.49207,0,0
52.0,6.859368300000001,-7.0521107,2.0800405,1000.5243,0,0
52.04,6.6200490000000025,-7.2904304999999985,1.8432901,1000.5016,0,0
52.08,6.4671073,-7.280897,1.6586493999999998,1000.4642,0,0
52.12,6.4862449999999985,-7.385762700000001,1.4598063,1000.4672,0,0
52.16,6.4097753,-7.509692699999999,1.6160423000000002,1000.49207,0,0
52.2,6.065642,-7.719422,1.5592304,1000.4666,0,0
52.24,6.089554,-7.5954914,1.3698553999999998,1000.4966,0,0
52.28,6.0226492999999985,-7.428662299999999,1.1946837,1000.4917,0,0
52.32,6.2951174000000005,-7.314265299999999,1.3509207,1000.48175,0,0
52.36,6.4767623,-7.176036,1.5213605,1000.4772,0,0
52.4,6.6201690000000015,-7.5287614,2.027943,1000.4669,0,0
52.44,6.624955,-7.481096000000001,2.0516155,1000.50684,0,0
52.48,6.897423,-7.1855699999999985,1.9001163,1000.47424,0,0
52.52,6.8496375,-7.0473399999999975,1.9474615,1000.48175,0,0
52.56,6.892662,-7.018741,1.9900717,1000.4842,0,0
52.6,6.892681,-7.419131299999999,1.691806,1000.4716,0,0
52.64,6.8544493000000015,-7.4095993,1.5261024,1000.47675,0,0
52.68,6.754086,-7.218936999999999,1.7486206000000002,1000.47925,0,0
52.72,6.558133,-6.994910000000001,1.5545118,1000.4644,0,0
52.76,6.558133,-6.994910000000001,1.5545118,1000.51184,0,0
52.8,6.3430605,-7.442966,1.4172158,1000.48175,0,0
52.84,6.3669662,-7.447733,1.4692948,1000.48956,0,0
52.88,6.405224,-7.5764303,1.6113286,1000.4672,0,0
52.92,6.247503,-7.495399000000001,1.6160642,1000.48645,0,0
52.96,6.228396400000001,-7.4382009999999985,1.3746108,1000.4697,0,0
53.0,6.1518373,-7.385766999999999,1.2988528,1000.4716,0,0
53.04,6.30002,-7.09024,1.1994311000000002,1000.5019,0,0
53.08,6.4960012,-7.2523035999999985,1.3461986,1000.47174,0,0
53.12,6.457771299999999,-7.371467599999999,1.8007021,1000.48645,0,0
53.16,6.3526244000000025,-7.2237043,1.8385782,1000.47174,0,0
53.2,6.2761607,-7.1236070000000025,1.308326,1000.509,0,0
53.24,6.2522660000000005,-7.2237043,1.502437,1000.4663,0,0
53.28,6.2857385,-7.528764999999999,1.7344241000000002,1000.48956,0,0
53.32,6.2857385,-7.528764999999999,1.7344241000000002,1000.47925,0,0
53.36,6.515182,-7.342869800000001,1.7959724999999995,1000.4741,0,0
53.4,6.3765769999999975,-7.5049324,1.8764583,1000.5094,0,0
53.44,6.5008607000000005,-7.1665072,1.7344269,1000.4766,0,0
53.48,6.6442633,-7.4668006999999985,1.9569448,1000.4917,0,0
53.52,6.4769797,-7.371469999999999,1.8101791,1000.49207,0,0
53.56,6.668180499999999,-7.381003,1.9806184,1000.48645,0,0
53.6,6.606047,-7.361936599999999,1.8859307,1000.50635,0,0
53.64,6.496121,-7.180808,1.6444769,1000.4815,0,0
53.68,6.438777,-7.3095050000000015,1.8575263,1000.48145,0,0
53.72,6.491363,-7.366703999999999,1.6586821,1000.4737,0,0
53.76,6.443569,-7.4715686,1.8433244,1000.48395,0,0
53.8,6.352762,-7.495402,1.9900917,1000.4964,0,0
53.84,6.414909,-7.4906354,1.7770444,1000.5113,0,0
53.88,6.3623400000000006,-7.381005,1.5971377,1000.4991,0,0
53.92,6.543986,-7.509701700000001,1.478779,1000.4892,0,0
53.96,6.543986,-7.509701700000001,1.478779,1000.484,0,0
54.0,6.4579306,-7.547834,1.4977148,1000.52185,0,0
54.04,6.5917726,-7.557367299999999,1.4314339,1000.4815,0,0
54.08,6.610895599999999,-7.490636,1.3793557,1000.4989,0,0
54.12,6.5774484,-7.4858694,1.5403266000000002,1000.4635,0,0
54.16,6.5392175,-7.4143715,1.350951,1000.466,0,0
54.2,6.333698,-7.385772,1.4219681,1000.4787,0,0
54.24,6.314582,-7.438205,1.4693125,1000.4809,0,0
54.28,6.180755,-7.543069,1.5876733,1000.479,0,0
54.32,6.24768,-7.457271,1.6823621,1000.4685,0,0
54.36,6.2237887,-7.595501400000002,1.5308620000000002,1000.5138,0,0
54.4,6.1520996,-7.657467,1.5687379,1000.4985,0,0
54.44,6.223808,-7.381006699999999,1.7060366000000002,1000.4784,0,0
54.48,6.25249,-7.3857737,1.5782081,1000.49646,0,0
54.52,6.2238193,-7.4954042,1.4787863,1000.49396,0,0
54.56,6.262065,-7.538303999999999,1.6302879,1000.48364,0,0
54.6,6.343325599999999,-7.485872,1.592413,1000.5159,0,0
54.64,6.3385534,-7.4763384,1.5545383999999998,1000.4859,0,0
54.68,6.391139,-7.452506,1.4267101,1000.4911,0,0
54.72,6.3720274,-7.414374,1.4882581,1000.49396,0,0
54.76,6.443732,-7.533538,1.606619,1000.5159,0,0
54.8,6.4724182999999975,-7.457273,1.587682,1000.48834,0,0
54.84,6.5584664,-7.476339999999999,1.5782143,1000.48303,0,0
54.88,6.510676,-7.3857756,1.5971526000000005,1000.4605,0,0
54.92,6.5441422,-7.3953085,1.5545437,1000.4605,0,0
54.96,6.4485535999999986,-7.4000754,1.5687476,1000.4929,0,0
55.0,6.4485535999999986,-7.4000754,1.5687476,1000.5032,0,0
55.04,6.4142275,-7.4620194,1.5497303999999998,1000.4879,0,0
55.08,6.3233843,-7.452485,1.6728225,1000.50037,0,0
55.12,6.447632,-7.400052499999997,1.705961,1000.4756,0,0
55.16,6.4715050000000005,-7.309488000000001,1.6349425,1000.50073,0,0
55.2,6.394988,-7.4191175,1.6396732,1000.47,0,0
55.24,6.3567095,-7.5811796,1.6065288,1000.4805,0,0
55.28,6.3567095,-7.5811796,1.6065288,1000.5054,0,0
55.32,6.1511383,-7.5907116,1.5023681999999998,1000.48553,0,0
55.36,6.251500599999999,-7.523979,1.5071013,1000.4929,0,0
55.4,6.3614097,-7.361916000000001,1.4171454,1000.5107,0,0
55.44,6.3709430000000005,-7.509678,1.5591749,1000.48,0,0
55.48,6.3183246,-7.4715447,1.4834208,1000.49475,0,0
55.52,6.332651,-7.509677000000001,1.4834197,1000.48,0,0
55.56,6.318271,-7.485842999999999,1.5496976,1000.48303,0,0
55.6,6.318271,-7.485842999999999,1.5496976,1000.47504,0,0
55.64,6.294333,-7.3523784,1.6491165,1000.4594,0,0
55.68,6.394695,-7.328545,1.634912,1000.457,0,0
55.72,6.322958,-7.4286423,1.6633148000000002,1000.47253,0,0
55.76,6.4042015,-7.376209700000001,1.6301727,1000.4923,0,0
55.8,6.4519730000000015,-7.371442999999997,1.6633111,1000.48193,0,0
55.84,6.504524,-7.3285427,1.6159645,1000.4775,0,0
55.88,6.471039,-7.385741,1.6585718,1000.5214,0,0
55.92,6.3945349999999985,-7.433406,1.701179,1000.5091,0,0
55.96,6.2989125,-7.471537599999999,1.6633015,1000.4842,0,0
56.0,6.418368,-7.442937400000001,1.4218432,1000.4813,0,0
56.04,6.4661393,-7.5144353000000015,1.5023255,1000.4868,0,0
56.08,6.4613323,-7.4620023,1.5970112,1000.5166,0,0
56.12,6.4660993,-7.4763017,1.6727604,1000.4918,0,0
56.16,6.270100599999999,-7.4810677,1.4313034,1000.4817,0,0
56.2,6.423014599999999,-7.400035000000001,1.3271428,1000.4714,0,0
56.24,6.3465110000000005,-7.495365,1.6632831,1000.50653,0,0
56.28,6.236562,-7.533498,1.7342978999999998,1000.47424,0,0
56.32,6.5041914000000025,-7.3666673,1.7106223000000005,1000.4762,0,0
56.36,6.3623147000000015,-7.428669500000002,1.6066042,1000.4934,0,0
56.4,6.324085,-7.381004300000002,1.6492147,1000.48615,0,0
56.44,6.285875,-7.4286704,1.7060302,1000.4884,0,0
56.48,6.39104,-7.357172999999999,1.6397493000000003,1000.4982,0,0
56.52,6.4962144,-7.3238072,1.7155015,1000.48834,0,0
56.56,6.5296917,-7.371473299999999,1.58294,1000.48035,0,0
56.6,6.462802,-7.357174400000001,1.6113489,1000.47833,0,0
56.64,6.5058303,-7.342875,1.5545368999999998,1000.4926,0,0
56.68,6.501068599999999,-7.338108,1.4929914,1000.498,0,0
56.72,6.472418,-7.4525065,1.6681669999999995,1000.47546,0,0
56.76,6.41507,-7.428673700000001,1.6776366000000005,1000.48773,0,0
56.8,6.376859,-7.4286747,1.6681702,1000.48236,0,0
56.84,6.34819,-7.4239087,1.5734831,1000.4828,0,0
56.88,6.30997,-7.519240400000001,1.6018913,1000.4948,0,0
56.92,6.26697,-7.543073,1.6871121999999998,1000.4848,0,0
56.96,6.2622,-7.4572754,1.6681755,1000.4817,0,0
57.0,6.400842,-7.4811087,1.5403491000000002,1000.5145,0,0
57.04,6.2431273,-7.557374,1.6066325,1000.4836,0,0
57.08,6.2287974,-7.566908,1.6681806,1000.496,0,0
57.12,6.267045,-7.471576,1.6350406000000002,1000.47363,0,0
57.16,6.4534855,-7.457278,1.5924336,1000.4784,0,0
57.2,6.4248443,-7.481111,1.6208433,1000.48114,0,0
57.24,6.372276,-7.5383105,1.6634539000000002,1000.48364,0,0
57.28,6.3531656,-7.4763449999999985,1.6823921999999998,1000.4682,0,0
57.32,6.391432,-7.3953147,1.4882841999999998,1000.4805,0,0
57.36,6.35765,-7.471571400000001,1.6539588,1000.4904,0,0
57.4,6.290737,-7.504937599999999,1.7628505,1000.48303,0,0
57.44,6.338538,-7.471572,1.7486476000000002,1000.5057,0,0
57.48,6.4198,-7.3762407,1.6634288000000002,1000.4575,0,0
57.52,6.405468,-7.4239063,1.6965703999999997,1000.475,0,0
57.56,6.3098774,-7.4763384,1.6018827,1000.4748,0,0
57.6,6.2286253,-7.41914,1.5687423,1000.4799,0,0
57.64,6.2907677,-7.4572725,1.535602,1000.4697,0,0
57.68,6.309892,-7.5144715,1.9001516,1000.48236,0,0
57.72,6.2955555999999975,-7.428673700000001,1.843339,1000.4823,0,0
57.76,6.4102755,-7.385775,1.7439169,1000.47943,0,0
57.8,6.505877,-7.323809599999999,1.8149333,1000.47974,0,0
57.84,6.36249,-7.4191410000000015,1.4267128999999998,1000.4847,0,0
57.88,6.2477775,-7.509705499999999,1.483526,1000.4769,0,0
57.92,6.1760883,-7.624103,1.6681686999999998,1000.4735,0,0
57.96,6.214329,-7.590737299999999,1.77706,1000.48694,0,0
58.0,6.381627,-7.4382076,1.7344508,1000.4884,0,0
58.04,6.3194942,-7.4429746,1.7344513,1000.4735,0,0
58.08,6.3625183,-7.4477410000000015,1.8102024,1000.471,0,0
58.12,6.37686,-7.4715734,1.7486553,1000.46075,0,0
58.16,6.3673077000000005,-7.504939599999997,1.724984,1000.4781,0,0
58.2,6.410329,-7.495407000000001,1.7155154,1000.51135,0,0
58.24,6.5537305,-7.4000759999999985,1.7107816999999998,1000.4982,0,0
58.28,6.4438,-7.428675,1.8528143,1000.48596,0,0
58.32,6.439026,-7.4715743,1.7912675,1000.4903,0,0
58.36,6.3299074,-7.390563,1.7345293999999998,1000.47784,0,0
58.4,6.363385,-7.3381314,1.7108592,1000.51324,0,0
58.44,6.4207797,-7.3953314,1.833957,1000.50037,0,0
58.48,6.430376,-7.3857985,1.8481636,1000.4524,0,0
58.52,6.4065137000000005,-7.566928999999999,1.7866199,1000.4901,0,0
58.56,6.425651599999999,-7.562162400000001,1.8576374,1000.47253,0,0
58.6,6.440028,-7.333369,1.568842,1000.47687,0,0
58.64,6.5452204000000025,-7.280937700000001,1.8339722,1000.4926,0,0
58.68,6.4162207,-7.304772,1.6398666000000002,1000.49426,0,0
58.72,6.248965,-7.4334702,1.5925261,1000.46387,0,0
58.76,6.119928,-7.4716024,1.6019965,1000.4889,0,0
58.8,5.976571,-7.5049696,1.6351407,1000.4819,0,0
58.84,6.053103,-7.476372,1.7866467,1000.49854,0,0
58.88,6.1152587,-7.500205,1.8529301,1000.45636,0,0
58.92,6.2061305,-7.5288053,1.8150599,1000.4914,0,0
58.96,6.2778454,-7.524039299999999,1.8339992,1000.5013,0,0
59.0,6.5407720000000005,-7.4763746,1.6730328,1000.4758,0,0
59.04,6.612506,-7.285713,1.6588328999999995,1000.48315,0,0
59.08,6.6746615999999985,-7.238047999999999,1.6067562,1000.4753,0,0
59.12,6.7320743,-7.190384,1.5310108999999998,1000.4931,0,0
59.16,6.555277,-7.304783,1.8150802,1000.4733,0,0
59.2,6.44536,-7.3143163,1.9287075,1000.4858,0,0
59.24,6.345021,-7.4382477,1.9855238,1000.4808,0,0
59.28,6.1777835,-7.4287157000000015,1.9381846,1000.4703,0,0
59.32,6.192141,-7.481148200000002,1.9287176,1000.47723,0,0
59.36,6.096042,-7.5478679999999985,1.805577,1000.4801,0,0
59.4,6.1629744,-7.5288020000000015,1.7156248,1000.4851,0,0
59.44,6.2299075,-7.428704700000001,1.6114693000000002,1000.4643,0,0
59.48,6.229915,-7.4859037,1.6398764,1000.4543,0,0
59.52,6.387679,-7.4048729999999985,1.744036,1000.4695,0,0
59.56,6.387679,-7.4048729999999985,1.744036,1000.4742,0,0
59.6,6.636251400000001,-7.342908400000002,1.8434607,1000.48956,0,0
59.64,6.722303,-7.218978,1.9381502,1000.48663,0,0
59.68,6.813134700000001,-7.223745,2.127528,1000.48114,0,0
59.72,6.669755499999999,-7.195146,1.9239498,1000.4865,0,0
59.76,6.406882,-7.361975699999999,1.7866535,1000.48413,0,0
59.8,6.497713,-7.371509599999999,1.7535139,1000.47833,0,0
59.84,6.4977207,-7.3286104,1.7724522,1000.4607,0,0
59.88,6.4308190000000005,-7.1331824999999975,1.9949708,1000.4761,0,0
59.92,6.0388904000000005,-7.414409,2.3595214,1000.48114,0,0
59.96,5.5131345000000005,-7.538341,1.7203788,1000.4659,0,0
60.0,5.5513806,-7.5002084,1.5499408,1000.4655,0,0
60.04,6.7033362000000025,-7.6289053,1.5688803999999998,1000.48083,0,0
60.08,6.8084993,-7.6289053,1.4789276000000002,1000.45557,0,0
60.12,6.9232225000000005,-7.3667455,1.5120691000000002,1000.4879,0,0
60.16,7.0809865000000025,-7.385812299999999,2.170154,1000.4799,0,0
60.2,7.195709,-7.0902863,2.113342,1000.4755,0,0
60.24,7.2960925,-6.6851287,2.0044513,1000.46497,0,0
60.28,6.770337,-7.1713179999999985,1.7156549,1000.465,0,0
60.32,6.4262066,-7.2285175000000015,1.6257025,1000.475,0,0
60.36,6.420686,-7.2809315,1.8150109,1000.46747,0,0
60.4,6.463689,-7.266631599999997,1.8718224,1000.4745,0,0
60.44,6.501912,-7.209432,1.8481488,1000.4813,0,0
60.48,6.66919,-7.009237,1.9381012,1000.4745,0,0
60.52,6.4875345,-7.1617656,1.8576143,1000.4644,0,0
60.56,6.42061,-7.209430999999999,1.8292072,1000.46234,0,0
60.6,6.1337986,-7.3953266000000015,1.4741247,1000.4694,0,0
60.64,6.1481304,-7.271395,1.298951,1000.4816,0,0
60.68,6.272398,-7.233263000000001,1.3368256,1000.4917,0,0
60.72,6.8650637,-7.4000916,1.5451366000000002,1000.4791,0,0
60.76,6.9176254,-7.1474642999999976,1.9901693,1000.51874,0,0
60.8,6.716867,-7.242795,1.7250419999999995,1000.50385,0,0
60.84,6.224539,-7.4048576,1.4267736999999998,1000.4589,0,0
60.88,5.784775,-7.214195,1.104832,1000.4787,0,0
60.92,6.1336923,-7.195128,1.1190346000000002,1000.48303,0,0
60.96,7.3238406,-6.999698599999999,1.5782698,1000.4884,0,0
61.0,7.15654,-7.147462400000001,1.5403938,1000.47534,0,0
61.04,7.2760205,-6.975865400000001,2.3831165000000003,1000.4853,0,0
61.08,6.931851400000001,-7.2618585000000015,2.5204122000000004,1000.50073,0,0
61.12,7.1851582999999986,-6.9377317,2.8660216,1000.5104,0,0
61.16,7.1851582999999986,-6.9377317,2.8660216,1000.5026,0,0
61.2,6.979596000000001,-6.8757663,2.7665963,1000.5049,0,0
61.24,6.5494059999999985,-6.985397,2.690845,1000.47784,0,0
61.28,6.2626104000000025,-6.894831699999999,2.5772188,1000.4927,0,0
61.32,6.38209,-6.6088375999999975,3.0932674,1000.4828,0,0
61.36,6.283547,-6.718514,3.33489,1000.4966,0,0
61.4,6.0207157,-6.8615119999999985,3.0602996,1000.4794,0,0
61.44,6.0494533,-7.047409,3.4864013,1000.5069,0,0
61.48,6.0255833,-6.885347,3.9361725,1000.4716,0,0
61.52,5.973064,-6.561222,4.0261316,1000.49695,0,0
61.56,5.9492226,-6.7661858,4.0876839999999985,1000.47394,0,0
61.6,5.7963559999999985,-6.6279580000000005,3.510095,1000.5049,0,0
61.64,5.8394337,-6.851987400000001,3.9503999,1000.4716,0,0
61.68,6.078482,-6.9425535000000025,4.490126999999998,1000.5161,0,0
61.72,6.0785403,-6.8996559999999985,4.1492553,1000.4709,0,0
61.76,6.0785403,-6.8996559999999985,4.1492553,1000.4712,0,0
61.8,6.092967,-6.642264,3.922012,1000.4634,0,0
61.84,6.116954,-6.6184330000000005,3.7752535,1000.4806,0,0
61.88,6.116954,-6.6184330000000005,3.7752535,1000.49316,0,0
61.92,5.8636823,-6.732832000000001,3.7989306,1000.4914,0,0
61.96,6.3656497000000005,-6.604137400000001,4.5090995000000005,1000.47833,0,0
62.0,6.3656497000000005,-6.604137400000001,4.5090995000000005,1000.4634,0,0
62.04,5.8447676,-6.6708717,3.8557625,1000.48315,0,0
62.08,5.940421,-6.9711666,4.0735507,1000.4974,0,0
62.12,6.0551662,-6.790037599999999,4.17771,1000.4953,0,0
62.16,6.1747489999999985,-6.4182487,3.794231200000002,1000.48505,0,0
62.2,6.3373203,-6.4230165,3.8321118,1000.46545,0,0
62.24,5.950215,-6.62798,3.7800386,1000.51544,0,0
62.28,6.3326864,-6.585083,4.0925174,1000.4775,0,0
62.32,6.5225635,-6.32289,4.1634129999999985,1000.4801,0,0
62.36,6.5225635,-6.32289,4.1634129999999985,1000.4468,0,0
62.4,6.125845,-6.613650999999999,3.656832,1000.50226,0,0
62.44,6.125845,-6.613650999999999,3.656832,1000.4968,0,0
62.48,5.9203157,-6.747114,3.9977095,1000.47705,0,0
62.52,6.3887405,-6.4754205,3.9693031,1000.48944,0,0
62.56,6.321825,-6.3800893,4.0024447,1000.4842,0,0
62.6,6.0780582,-6.613650999999999,4.1066017,1000.4966,0,0
62.64,6.1688766,-6.6374836,4.130274,1000.4856,0,0
62.68,6.3505125,-6.456354,3.9030228,1000.50183,0,0
62.72,6.2119,-6.5230865,3.926695,1000.49115,0,0
62.76,6.250141,-6.5564523,4.130275,1000.4759,0,0
62.8,6.31228,-6.4706545,4.111337000000002,1000.49603,0,0
62.84,6.4126596,-6.5707517000000015,3.9598367,1000.5085,0,0
62.88,6.3744239999999985,-6.537386,4.0403214,1000.4709,0,0
62.92,6.293169,-6.699449,3.7515233,1000.52094,0,0
62.96,6.2501526,-6.7471147,3.8556802,1000.47314,0,0
63.0,6.254935,-6.475421,3.7231174,1000.50323,0,0
63.04,6.3553133,-6.4420557,3.8083367,1000.47064,0,0
63.08,6.383993,-6.4372888,3.9219623,1000.498,0,0
63.12,6.278841000000001,-6.5278535,3.8225403,1000.4976,0,0
63.16,6.312303,-6.556452799999999,4.106605,1000.5255,0,0
63.2,6.340984,-6.51832,3.9456353,1000.49475,0,0
63.24,6.2310524,-6.4849544,3.7609937000000007,1000.4801,0,0
63.28,6.2979712,-6.513553599999999,3.8225412,1000.5106,0,0
63.32,6.207157,-6.661317,3.898292,1000.4822,0,0
63.36,6.264771,-6.504027400000001,3.9740658,1000.5026,0,0
63.4,6.3699393,-6.4229956,3.822566,1000.52246,0,0
63.44,6.3795056,-6.422996,3.7231443,1000.53217,0,0
63.48,6.293488,-6.5183277,3.7468178,1000.48926,0,0
63.52,6.2935004,-6.518328,3.8320382,1000.4996,0,0
63.56,6.355651,-6.494496,3.8367739,1000.4971,0,0
63.6,6.369996,-6.480196,3.8225713,1000.51404,0,0
63.64,6.4082537,-6.4563637,3.8746517,1000.48663,0,0
63.68,6.374802,-6.5040293,3.8699176,1000.5263,0,0
63.72,6.3317957,-6.5183290000000005,3.86045,1000.5288,0,0
63.76,6.403512,-6.4611316,3.827311,1000.5165,0,0
63.8,6.3031487,-6.465898,3.7610304,1000.49896,0,0
63.84,6.322274,-6.5135636,3.9788136,1000.5213,0,0
63.88,6.284055,-6.4801980000000015,3.8651898,1000.49615,0,0
63.92,6.3175263,-6.523098,4.0356296999999985,1000.5165,0,0
63.96,6.2840743,-6.4944987,3.869925700000002,1000.48615,0,0
64.0,6.327099,-6.461133,3.8651917,1000.49115,0,0
64.04,6.398808,-6.4468336,3.9740846,1000.4884,0,0
64.08,6.360595,-6.4802,3.9172738,1000.5336,0,0
64.12,6.346262,-6.461134,3.8509927,1000.4783,0,0
64.16,6.3606076,-6.461134,3.8273215,1000.49615,0,0
64.2,6.298489599999999,-6.5231,3.9362142,1000.54315,0,0
64.24,6.3080615999999985,-6.513567,3.9362154,1000.4959,0,0
64.28,6.3176346,-6.4897345999999985,3.8794038,1000.53076,0,0
64.32,6.3033075,-6.5183339999999985,4.011968,1000.49854,0,0
64.36,6.4132557,-6.446836,4.0356417,1000.51843,0,0
64.4,6.355917,-6.375338,3.841532700000001,1000.50775,0,0
64.44,6.360703,-6.518335,4.1019254,1000.50775,0,0
64.48,6.3941746,-6.394405,4.1208644,1000.5132,0,0
64.52,6.23646,-6.4754367,3.9362242,1000.51544,0,0
64.56,6.169555,-6.542169,4.05932,1000.4854,0,0
64.6,6.174348,-6.475437,3.9314923,1000.503,0,0
64.64,6.1695743,-6.4611382000000015,3.75632,1000.4876,0,0
64.68,6.2986417,-6.4373055,4.1492767,1000.4872,0,0
64.72,6.2173977,-6.513571,4.1682153,1000.5275,0,0
64.76,6.198285,-6.5803027,4.101934399999998,1000.4901,0,0
64.8,6.164839,-6.408707,3.8557465,1000.5204,0,0
64.84,6.384722,-6.442074,4.229765,1000.5774,0,0
64.88,6.188763,-6.608903,3.855749,1000.62396,0,0
64.92,6.4946837,-6.18468,4.3007836,1000.48755,0,0
64.96,6.1170983,-6.594604,3.2308104,1000.456,0,0
65.0,5.4813905,-6.6899357,2.2697265,1000.5053,0,0
65.04,6.2366123,-6.2943115,4.1256146000000005,1000.51764,0,0
65.08,6.155362,-6.4706745,4.982542,1000.5367,0,0
65.12,6.4612885,-6.156082,4.4570254999999985,1000.4851,0,0
65.16,5.8733910000000025,-6.4563755999999985,3.8178823,1000.4723,0,0
65.2,5.6009555,-6.8615336,4.2345114,1000.4753,0,0
65.24,5.519705,-6.7900350000000005,3.7563367,1000.49445,0,0
65.28,6.145872,-6.4897423,4.5517173,1000.51794,0,0
65.32,5.8495364,-6.642272,4.414421599999999,1000.51483,0,0
65.36,5.969453,-6.5183519999999975,4.348178,1000.4971,0,0
65.4,6.366221,-6.270492,4.4618077000000005,1000.5204,0,0
65.44,6.2658596,-6.37059,4.33398,1000.49994,0,0
65.48,5.835706,-6.632752,4.3718580000000005,1000.4971,0,0
65.52,6.046061,-6.3896585,4.3529243,1000.5479,0,0
65.56,6.170350599999999,-6.280028,4.2345657,1000.4995,0,0
65.6,6.17516,-6.3133945,4.4002724,1000.52014,0,0
65.64,6.0031013,-6.4659247,4.47129,1000.51184,0,0
65.68,6.041369,-6.499291,4.679606400000001,1000.49426,0,0
65.72,6.0796366,-6.3324623,4.1967,1000.52484,0,0
65.76,5.945831299999999,-6.4897594000000005,4.409751,1000.49457,0,0
65.8,6.0271173,-6.4373283,4.3908157,1000.54956,0,0
65.84,6.074959,-6.375364,4.2819285,1000.50006,0,0
65.88,6.055869,-6.3896646,4.386088,1000.49536,0,0
65.92,5.9411825999999985,-6.4134974,4.1493699999999984,1000.51276,0,0
65.96,6.1802025,-6.3658333,4.244061,1000.5045,0,0
66.0,6.122874,-6.3848996,3.8984525,1000.51483,0,0
66.04,6.18504,-6.4373326,3.827439,1000.5268,0,0
66.08,6.428854,-6.2943373,3.207236,1000.51483,0,0
66.12,6.428854,-6.2943373,3.207236,1000.49457,0,0
66.16,7.031167999999999,-6.451635,4.0783714999999985,1000.5049,0,0
66.2,7.012063,-6.4135027,4.007357,1000.5005,0,0
66.24,7.0598902999999975,-6.0798445,2.77168,1000.495,0,0
66.28,7.0933633,-6.1036777,2.3503196,1000.49286,0,0
66.32,7.5187955,-6.1608769999999975,2.686465,1000.50775,0,0
66.36,7.7088175,-6.055984,2.0803537,1000.49536,0,0
66.4,7.813953999999999,-6.0702834,1.914648,1000.48346,0,0
66.44,7.775706299999999,-6.2800117,1.8625687,1000.51294,0,0
66.48,8.052906,-6.2466455000000005,1.0387796,1000.50574,0,0
66.52,7.1447244,-6.866297,0.92988664,1000.49066,0,0
66.56,6.461203,-7.0474257,0.3522884,1000.4808,0,0
66.6,7.4840527,-6.5183372,1.0529777,1000.4783,0,0
66.64,7.923785,-6.2943089999999975,1.5642926,1000.50824,0,0
66.68,7.8377295,-6.432539,1.777339,1000.4607,0,0
66.72,7.173317999999999,-6.6279674,1.2565527,1000.4854,0,0
66.76,7.173299,-6.9091935,1.398583,1000.5157,0,0
66.8,6.924739999999999,-7.142753999999999,1.3133629999999998,1000.48596,0,0
66.84,8.000167999999999,-6.3944044,1.3749076,1000.49115,0,0
66.88,8.014497,-6.4420699999999975,1.3086251,1000.49365,0,0
66.92,7.0776267000000015,-6.5278673,0.5937274,1000.53564,0,0
66.96,6.709563,-6.909191000000001,0.6789449000000001,1000.50104,0,0
67.0,7.03935,-6.8043265,1.1381803999999998,1000.49115,0,0
67.04,7.254422,-6.7137613,1.2186636,1000.511,0,0
67.08,6.757294,-6.856757000000001,0.87304944,1000.5182,0,0
67.12,7.1539993000000015,-6.6088960000000005,1.0624238,1000.50885,0,0
67.16,6.8098345,-7.095084,0.8730459,1000.509,0,0
67.2,6.871952,-7.0807843,0.99140424,1000.49854,0,0
67.24,7.311675,-6.50403,1.1571068000000002,1000.494,0,0
67.28,7.1204740000000015,-6.4515977,0.8635728000000001,1000.4867,0,0
67.32,6.9005937999999984,-6.4372983,0.6505236999999999,1000.52386,0,0
67.36,6.9005747,-6.7757235,1.0150712,1000.5339,0,0
67.4,7.3929076,-7.0235844,1.280199,1000.5091,0,0
67.44,7.249495,-7.1570473,1.123962,1000.52386,0,0
67.48,7.1777805999999975,-6.565994,1.2328517,1000.4766,0,0
67.52,7.1251855,-6.203735,0.6505183000000001,1000.51483,0,0
67.56,7.1299467000000005,-6.284766,0.4516717000000001,1000.4842,0,0
67.6,7.1299295,-6.670857400000001,1.1334243999999998,1000.5219,0,0
67.64,6.957839,-6.985449000000001,1.3180646,1000.49207,0,0
67.68,7.0773160000000015,-6.6613229999999986,1.2849221000000002,1000.4823,0,0
67.72,7.0438399999999985,-6.4372945,1.0860754,1000.49475,0,0
67.76,7.0581616999999985,-6.170367,0.9393072,1000.49225,0,0
67.8,6.8669509999999985,-6.446827,0.92983675,1000.5049,0,0
67.84,6.9195113,-6.7328196,1.1144769,1000.49457,0,0
67.88,6.97208,-6.742352499999999,1.1334138,1000.4878,0,0
67.92,6.7713027000000015,-6.5326233,1.0576608,1000.4897,0,0
67.96,6.8047520000000015,-6.3991594,1.0908009,1000.5021,0,0
68.0,6.819073,-6.3848596,0.8114694,1000.4843,0,0
68.04,6.8047070000000005,-6.5469217,1.2659699,1000.48505,0,0
68.08,6.7377725,-6.5516877,1.0860609,1000.4925,0,0
68.12,6.5609020000000005,-6.437289700000001,1.0387151,1000.4878,0,0
68.16,6.575214999999999,-6.4182234000000005,1.1002598999999995,1000.5101,0,0
68.2,6.508289,-6.4944882,1.1239312,1000.5026,0,0
68.24,6.6086464000000005,-6.542153,1.223352,1000.5126,0,0
68.28,6.709005,-6.4468217,1.2328192,1000.49713,0,0
68.32,6.6468496,-6.346723,1.0765823,1000.49,0,0
68.36,6.661936999999999,-6.308609,1.1050571000000002,1000.5205,0,0
68.4,6.5520086,-6.4420733,1.0340416,1000.51556,0,0
68.44,6.489877,-6.608902499999999,1.090855,1000.48505,0,0
68.48,6.5233550000000005,-6.5374045,1.2660298,1000.52246,0,0
68.52,6.480343,-6.561238,1.1429359,1000.51996,0,0
68.56,6.5090410000000025,-6.451607,1.0151086,1000.5001,0,0
68.6,6.5377264,-6.33721,1.0056404,1000.5079,0,0
68.64,6.6237816999999986,-6.4373083,1.3465194,1000.5001,0,0
68.68,6.666812400000001,-6.4420757,1.4412086000000002,1000.53754,0,0
68.72,6.6142473,-6.470675,1.3086463,1000.5126,0,0
68.76,6.576021000000001,-6.4563755999999985,1.209225,1000.53217,0,0
68.8,6.533016,-6.470676,1.1476791000000002,1000.5101,0,0
68.84,6.638178,-6.465909,1.1192732,1000.5299,0,0
68.88,6.576059299999999,-6.604139999999999,1.3275887,1000.53754,0,0
68.92,6.571292,-6.566007000000001,1.3512619,1000.54974,0,0
68.96,6.556965400000001,-6.389645,1.1997621,1000.5602,0,0
69.0,6.556965400000001,-6.389645,1.1997621,1000.5747,0,0
69.04,6.3275604,-6.6851720000000014,1.3891406000000002,1000.5372,0,0
69.08,6.437508599999999,-6.809103,1.4270169,1000.5495,0,0
69.12,6.5617899999999985,-6.766203999999999,1.4648927,1000.5348,0,0
69.16,6.6143804,-6.6470404000000025,1.3275962,1000.5621,0,0
69.2,6.681317,-6.4897447,1.35127,1000.55695,0,0
69.24,6.676543,-6.546943700000001,1.2471137,1000.5995,0,0
69.28,6.772158,-6.6994734,1.3654754999999998,1000.6095,0,0
69.32,6.80085,-6.747139999999999,1.393883,1000.5867,0,0
69.36,6.896298,-6.608906299999999,1.3701975,1000.5941,0,0
69.4,6.7959285000000005,-6.632739,1.2234316,1000.5995,0,0
69.44,6.762476,-6.6613383000000015,1.3228546,1000.59674,0,0
69.48,6.791161,-6.7376036999999975,1.3701993,1000.6338,0,0
69.52,6.838965400000001,-6.7948027,1.2849807,1000.62354,0,0
69.56,6.786391,-6.9187326,1.3417938,1000.634,0,0
69.6,6.724260000000001,-6.9234990000000005,1.4506856,1000.62604,0,0
69.64,6.9393606,-6.6470394,1.3559985,1000.5937,0,0
69.68,6.9393606,-6.6470394,1.3559985,1000.6111,0,0
69.72,6.9919449999999985,-6.732837700000001,1.3796711000000002,1000.62354,0,0
69.76,6.891575,-6.770971,1.4270155,1000.6263,0,0
69.8,6.9202633,-6.9187336,1.3796723999999998,1000.6384,0,0
69.84,6.915487,-6.961632700000001,1.4317513000000002,1000.6409,0,0
69.88,6.9919699999999985,-6.8329363,1.4317517,1000.6231,0,0
69.92,7.101912,-6.766204400000001,1.4222834999999998,1000.68085,0,0
69.96,7.101918,-6.7852707,1.351268,1000.64044,0,0
70.0,6.996775,-7.004533,1.4554261,1000.68,0,0
70.04,7.0063375999999975,-7.018832700000001,1.4270198,1000.6776,0,0
70.08,7.1019435,-6.8043375,1.299192,1000.6775,0,0
70.12,7.1019435,-6.8043375,1.299192,1000.70233,0,0
70.16,6.968118,-6.8758364,1.3938808,1000.70044,0,0
70.2,6.9537826,-6.9092020000000005,1.3844123,1000.7172,0,0
70.24,7.0685034,-6.828171,1.4648979,1000.7072,0,0
70.28,6.8821005999999985,-6.980701,1.3938825,1000.6997,1,3
70.32,6.82953,-6.9902343999999985,1.5169777,1000.6873,1,3
70.36,6.8912573,-6.9377923,1.3607048000000002,1000.7142,1,3
70.4,7.0011826,-6.9044256,1.4222511999999998,1000.7245,1,3
70.44,7.005952400000001,-6.990224,1.2660149,1000.6966,1,3
70.48,7.029846000000001,-6.9663910000000016,1.2849522,1000.74146,1,3
70.52,7.029836,-6.8281603,1.3464983999999998,1000.72144,1,3
70.56,6.9151106,-6.847225999999999,1.2612782,1000.734,1,3
70.6,7.0250306,-6.913958,1.4695905,1000.7514,1,3
70.64,6.9820075,-7.0235887,1.4837934,1000.74066,1,3
70.68,6.9676532999999985,-6.952089999999999,1.4790576000000002,1000.7487,1,3
70.72,7.068023700000001,-6.8376923,1.4459163000000002,1000.7757,1,3
70.76,7.048889,-6.785259700000001,1.261273,1000.7806,1,3
70.8,6.9437284,-6.8948899999999975,1.2470694,1000.7707,1,3
70.84,6.891145699999999,-6.9997544000000005,1.3370227,1000.7757,1,3
70.88,7.005846000000001,-6.9854546000000015,1.4080373,1000.8029,1,3
70.92,7.0153947,-6.966388,1.4459115,1000.80023,1,3
70.96,6.9819317,-6.985453999999999,1.4648488000000002,1000.7775,1,3
71.0,6.90066,-6.780492,1.3985656000000002,1000.8156,1,3
71.04,6.8050528,-7.0045199999999985,1.43644,1000.8123,1,3
71.08,6.9197583,-7.171349,1.4979863000000002,1000.80975,1,3
71.12,6.9388679999999985,-6.9997525,1.4553758,1000.8148,1,3
71.16,7.0344485999999975,-6.82339,1.2328573,1000.8168,1,3
71.2,7.0439979999999975,-6.9234867,1.2991381000000002,1000.82465,1,3
71.24,7.0153136,-7.028351299999999,1.3417473,1000.81635,1,3
71.28,6.986625,-6.947319500000001,1.3701527,1000.8444,1,3
71.32,7.0152936000000015,-6.770957000000001,1.289667,1000.83167,1,3
71.36,6.963210000000001,-6.852,1.3039154,1000.82385,1,3
71.4,6.877189,-7.042663,1.445949,1000.8284,1,3
71.44,6.858075,-7.0998616,1.4080741,1000.8688,1,3
71.48,6.848526,-7.03313,1.3654654,1000.8588,1,3
71.52,6.8198566,-6.971164999999999,1.3702008,1000.8285,1,3
71.56,6.8867846,-6.9425664000000005,1.2897168,1000.85315,1,3
71.6,6.8676752999999975,-7.0855630000000005,1.3133898000000002,1000.86536,1,3
71.64,6.9346023,-7.056964,1.3891413,1000.86285,1,3
71.68,6.9441729999999975,-6.994999000000001,1.2613132,1000.85815,1,3
71.72,6.958527,-6.9330339999999975,1.3181275,1000.8699,1,3
71.76,6.9776570000000016,-6.947334,1.3275971000000002,1000.8904,1,3
71.8,6.9585423,-6.966400599999999,1.3560042,1000.8777,1,3
71.84,6.8868556,-6.9521008,1.379677,1000.9152,1,3
71.88,6.9059844,-6.9664009999999985,1.3654747,1000.89264,1,3
71.92,6.8247385,-7.080798599999999,1.3418037,1000.89465,1,3
71.96,6.872541,-7.056966,1.3607417,1000.90216,1,3
72.0,6.9490333,-6.9759345,1.3133991000000005,1000.8968,1,3
72.04,6.91558,-6.9425693,1.166633,1000.9144,1,3
72.08,6.8869166,-6.904437,1.3323386000000002,1000.924,1,3
72.12,6.8821516,-7.0283675,1.3607465,1000.93176,1,3
72.16,6.9156156000000015,-7.0760336,1.4270285,1000.9389,1,3
72.2,6.958649,-6.9997687000000015,1.4222955,1000.9213,1,3
72.24,6.910856,-6.975936,1.3418111,1000.92847,1,3
72.28,6.920425999999999,-6.861539,1.3228744,1000.9434,1,3
72.32,6.9060964999999985,-6.9568705999999985,1.2613281,1000.9459,1,3
72.36,6.930831,-7.0188565,1.3844991000000002,1000.9458,1,3
72.4,6.902217,-7.028390400000001,1.2945514,1000.9405,1,3
72.44,6.902217,-7.028390400000001,1.2945514,1000.9356,1,3
72.48,6.8640647,-6.990261,1.2945592,1000.9455,1,3
72.52,6.8640647,-6.990261,1.2945592,1000.9675,1,3
72.56,6.974042999999999,-6.8853974,1.3371729,1000.9703,1,3
72.6,6.9167504,-6.9664307,1.4176637,1000.9777,1,3
72.64,6.9789305,-6.9711979999999985,1.4081988,1000.98737,1,3
72.68,6.888158,-7.1523285,1.436609,1000.9703,1,3
72.72,6.888179300000001,-7.104663,1.4839551000000002,1000.9775,1,3
72.76,7.155912400000001,-6.775772,1.5265707,1000.9775,1,3
72.8,6.9217453,-6.8520384000000005,1.2709167,1000.99927,1,3
72.84,6.9552255,-6.8568053,1.2851218999999998,1000.9799,1,3
72.88,6.9026914,-7.023636,1.285126,1001.0067,1,3
72.92,6.902734,-7.066536,1.4555683,1001.00903,1,3
72.96,6.955355,-6.9712057000000005,1.5171196000000002,1001.0439,1,3
73.0,6.8788996,-6.933074,1.394027,1001.014,1,3
73.04,6.8598880000000015,-7.014108,1.4603186,1001.06177,1,3
73.08,6.8598880000000015,-7.014108,1.4603186,1001.05347,1,3
73.12,6.8742704,-7.066541,1.384572,1001.0438,1,3
73.16,7.022487599999999,-6.9569116,1.4603266,1001.0774,1,3
73.2,7.0846899999999975,-6.7948502999999985,1.3277692,1001.0704,1,3
73.24,6.989137,-6.828217,1.3277731000000002,1001.07544,1,3
73.28,6.9270215,-6.904482400000001,1.3798535,1001.0808,1,3
73.32,6.9796424,-6.9569163,1.517155,1001.0723,1,3
73.36,6.935339999999999,-6.961651,1.3513335,1001.09515,1,3
73.4,6.954448700000001,-6.899685400000001,1.4554893999999998,1001.1047,1,3
73.44,7.016571000000001,-6.956884,1.4270816000000002,1001.07245,1,3
73.48,6.944864,-6.9425836,1.3655334,1001.09686,1,3
73.52,6.9305195999999984,-6.885385,1.3702674,1001.09686,1,3
73.56,6.963968,-6.871085000000001,1.3844696,1001.1344,1,3
73.6,6.9209394,-6.904451,1.3276559,1001.1192,1,3
73.64,6.983072,-6.913983999999999,1.3607962,1001.1393,1,3
73.68,6.973502000000001,-6.8901505000000025,1.4507489,1001.1262,1,3
73.72,6.949592999999999,-6.923516,1.3892008999999998,1001.13116,1,3
73.76,6.9878163,-6.880617,1.3749962,1001.14355,1,3
73.8,7.040384,-6.818650999999999,1.3655264,1001.1139,1,3
73.84,7.064278,-6.87585,1.3986669,1001.1427,1,3
73.88,6.983001,-6.9092155,1.3749928,1001.1638,1,3
73.92,6.9782160000000015,-6.8758497000000025,1.3844613,1001.13275,1,3
73.96,6.978206,-6.866316,1.3939292,1001.1402,1,3
74.0,7.011659,-6.899682,1.408132,1001.15765,1,3
74.04,6.9734106,-6.894914599999999,1.3702558,1001.17487,1,3
74.08,6.973396000000001,-6.8138830000000015,1.3607856000000005,1001.1649,1,3
74.12,6.992505,-6.8520155,1.3560503000000002,1001.1675,1,3
74.16,7.0546320000000025,-6.8138830000000015,1.4602063,1001.17487,1,3
74.2,7.035508,-6.8186490000000015,1.4507370000000002,1001.1842,1,3
74.24,7.035498,-6.9092135,1.3844543,1001.1867,1,3
74.28,6.9685655,-6.8758473,1.4744066999999998,1001.1867,1,3
74.32,7.073711,-6.7852826,1.3702489,1001.1941,1,3
74.36,7.116911,-6.8234195999999985,1.4034063,1001.22186,1,3
74.4,7.0738916,-6.890151,1.3513278,1001.2095,1,3
74.44,7.026091,-6.8758516000000025,1.4270778999999998,1001.23676,1,3
74.48,7.006971000000001,-6.8234195999999985,1.4034058,1001.2214,1,3
74.52,6.9209313,-6.952116,1.2945143,1001.22363,1,3
74.56,6.882690400000001,-6.9664160000000015,1.36553,1001.21124,1,3
74.6,6.854008,-6.9568825,1.4696867,1001.198,1,3
74.64,6.944822,-6.9330497000000015,1.4980928,1001.26843,1,3
74.68,7.0117364,-6.899684,1.526499,1001.26544,1,3
74.72,6.983055,-6.809119,1.4507484,1001.22314,1,3
74.76,7.0117326,-6.8043523,1.4365451,1001.25256,1,3
74.8,7.0547466,-6.832951,1.2897782,1001.24005,1,3
74.84,7.1312213,-6.913983,1.4365444,1001.2649,1,3
74.88,7.136,-7.0379133000000005,1.4365444,1001.28265,1,3
74.92,7.026062,-6.9425820000000025,1.4270753,1001.2823,1,3
74.96,6.954362400000001,-6.680422,1.3039805,1001.2629,1,3
75.0,6.882662,-6.899683500000001,1.3465899,1001.2598,1,3
75.04,6.88744,-7.1094117,1.5170282,1001.28217,1,3
75.08,6.8922186000000005,-7.1999764000000015,1.6164508,1001.29456,1,3
75.12,7.0690656,-6.8567839999999975,1.4649493,1001.29205,1,3
75.16,7.054722999999999,-6.766219,1.1761503,1001.2915,1,3
75.2,7.054722999999999,-6.766219,1.1761503,1001.28174,1,3
75.24,6.9591227,-6.9378157000000025,1.2992444,1001.3087,1,3
75.28,7.0738344,-6.8996830000000005,1.5217611999999998,1001.3244,1,3
75.32,7.0738344,-6.8996830000000005,1.5217611999999998,1001.31866,1,3
75.36,6.9409065000000005,-6.904472,1.4981719,1001.3039,1,3
75.4,6.9361773,-6.8425074000000015,1.5549895,1001.3207,1,3
75.44,6.9027534,-6.8520412,1.4366325,1001.3082,1,3
75.48,6.859769,-6.8854084,1.4508389,1001.338,1,3
75.52,6.902805,-6.871109,1.4224341,1001.3578,1,3
75.56,6.988892,-6.9950404000000015,1.3608915,1001.33606,1,3
75.6,7.0128083,-6.9569087,1.3892995,1001.3355,1,3
75.64,6.9698243,-6.8854113,1.3845682,1001.3522,1,3
75.68,6.9698585999999985,-6.9092445000000025,1.2946178,1001.3274,1,3
75.72,7.055928999999999,-6.7233496,1.4271841,1001.3427,1,3
75.76,7.008165400000001,-6.7567167,1.3514369,1001.3671,1,3
75.8,6.879162299999999,-7.0474777,1.5786928999999998,1001.3794,1,3
75.84,6.9174175,-7.071311,1.630773,1001.37,1,3
75.88,7.027386999999999,-6.9473815000000005,1.4556031,1001.3671,1,3
75.92,6.9509615999999985,-6.7757864,1.2472941,1001.35425,1,3
75.96,6.907961,-6.7567210000000015,1.2899052,1001.3745,1,3
76.0,6.884113,-7.109447500000001,1.266238,1001.40674,1,3
76.04,6.9462850000000005,-7.147581,1.4035387,1001.4018,1,3
76.08,7.0132194000000005,-7.0951495,1.469822,1001.3964,1,3
76.12,7.01805,-6.909254,1.3372633,1001.40424,1,3
76.16,7.0324073,-6.7853246,1.4082811000000002,1001.4117,1,3
76.2,6.946422,-6.632796000000001,1.3798794,1001.4134,1,3
76.24,6.946422,-6.632796000000001,1.3798794,1001.4011,1,3
76.28,6.927337,-6.8758907,1.446164,1001.46906,1,3
76.32,7.0134077,-7.0713205000000015,1.6450123,1001.41327,1,3
76.36,7.06124,-6.995056599999999,1.6592183999999996,1001.4473,1,3
76.4,6.940672,-6.809135,1.3324463,1001.438,1,3
76.44,6.9836807,-6.642305,1.2993046,1001.4582,1,3
76.48,6.9980160000000025,-6.709037,1.2188194,1001.4506,1,3
76.52,6.945424000000001,-6.98073,1.4886793,1001.45294,1,3
76.56,7.0314520000000025,-6.9902634999999975,1.5596945,1001.45044,1,3
76.6,7.060122,-6.8710985,1.5028809,1001.487,1,3
76.64,7.060122,-6.8710985,1.5028809,1001.4371,1,3
76.68,6.9884114,-6.737635000000001,1.3845195,1001.4924,1,3
76.72,7.026641400000001,-6.6899690000000005,1.3845187,1001.48413,1,3
76.76,7.007509,-6.880631,1.4555336,1001.50964,1,3
76.8,6.969266,-6.947362400000001,1.4886739,1001.50104,1,3
76.84,7.0457296000000005,-6.9664288,1.4981415,1001.4913,1,3
76.88,7.0600643,-6.885397,1.483938,1001.4965,1,3
76.92,6.9931383,-6.7471666,1.3324361999999998,1001.50934,1,3
76.96,7.0170283,-6.7138,1.375045,1001.51355,1,3
77.0,6.978777,-6.909228999999999,1.4602631,1001.53577,1,3
77.04,7.002671,-6.9092283,1.5170755,1001.49316,1,3
77.08,6.9883190000000015,-6.8758630000000025,1.4271206,1001.5453,1,3
77.12,7.012213,-6.8472633,1.4223858,1001.54333,1,3
77.16,7.0408782999999975,-6.8281965,1.4034468999999998,1001.56006,1,3
77.2,7.04565,-6.8329625,1.3987118,1001.53,1,3
77.24,6.988287400000001,-6.828196000000001,1.4129145,1001.57996,1,3
77.28,6.988283,-6.7805304999999985,1.4129142,1001.55975,1,3
77.32,7.0551910000000015,-6.7328652999999985,1.3797725,1001.5922,1,3
77.36,7.141219,-6.837729,1.5076007,1001.6022,1,3
77.4,7.032179400000001,-6.9283156,1.4698075000000002,1001.5548,1,3
77.44,7.0035133,-6.8901834000000015,1.498215,1001.6019,1,3
77.48,7.0418053,-6.761488000000001,1.3277814,1001.604,1,3
77.52,7.027479,-6.79962,1.3609234,1001.61926,1,3
77.56,6.9414697,-6.9283185,1.40827,1001.5866,1,3
77.6,7.0514316999999975,-6.847287,1.4366786,1001.60645,1,3
77.64,6.9988804,-6.9378524000000015,1.4130092,1001.60913,1,3
77.68,6.989347500000001,-6.890187700000001,1.4130117,1001.61096,1,3
77.72,7.0323925,-6.8234562999999975,1.4934989,1001.6267,1,3
77.76,7.0132995,-6.7662581999999984,1.417751,1001.6388,1,3
77.8,7.008559700000001,-6.775792599999999,1.4793018,1001.6308,1,3
77.84,7.0276929999999975,-6.7614927,1.4366933000000002,1001.6457,1,3
77.88,6.999039999999999,-6.7853270000000006,1.4887742,1001.64374,1,3
77.92,7.0851035000000016,-6.775794,1.550324,1001.6556,1,3
77.96,6.956089,-6.8520600000000025,1.507718,1001.64825,1,3
78.0,6.956089,-6.8520600000000025,1.507718,1001.6548,1,3
78.04,7.1425543000000005,-6.7281309999999985,1.4461757,1001.6597,1,3
78.08,7.190378999999999,-6.6613994000000005,1.3893652,1001.67004,1,3
78.12,7.180833,-6.6995325,1.4083041,1001.62976,1,3
78.16,7.01358,-6.771032000000001,1.4035732,1001.64465,1,3
78.2,7.0614047000000015,-6.928329,1.5503421999999998,1001.66974,1,3
78.24,7.051872,-6.933096000000001,1.5929544,1001.6994,1,3
78.28,6.9658612999999985,-6.8758979999999985,1.4603935,1001.6921,1,3
78.32,6.9467554000000025,-6.756735000000001,1.4083163,1001.6843,1,3
78.36,6.936528,-6.742419,1.384583,1001.692,1,3
78.4,6.8696094,-6.9807467,1.3987862,1001.7069,1,3
78.44,6.9078474000000005,-7.1380424,1.4129893999999998,1001.7116,1,3
78.48,7.142056,-6.8329825,1.365645,1001.76154,1,3
78.52,7.079917,-6.642320599999999,1.5124116,1001.7214,1,3
78.56,6.8648243,-6.918781,1.5029426,1001.744,1,3
78.6,6.845704,-6.871115,1.5171456,1001.7312,1,3
78.64,6.9174004,-6.885414999999999,1.6070993,1001.706,1,3
78.68,6.9508576,-6.818683,1.488739,1001.6955,1,3
78.72,7.0273337,-6.8043833,1.4698014,1001.7237,1,3
78.76,6.9843135,-7.0427113,1.4745356,1001.7233,1,3
78.8,6.989093,-6.9569135,1.4177228000000002,1001.75995,1,3
78.84,7.2137413,-6.628021,1.2993624,1001.73566,1,3
78.88,7.142044,-6.628021,1.2236118,1001.7423,1,3
78.92,7.0177674,-6.818683,1.3230343,1001.7473,1,3
78.96,7.012986,-7.052243700000001,1.5881606,1001.77277,1,3
79.0,7.036884,-6.9187803,1.6213015,1001.74506,1,3
79.04,6.960406,-6.966446,1.5076756000000002,1001.75476,1,3
79.08,7.1037984,-6.832982,1.4792691,1001.7719,0,0
79.12,7.151596499999999,-6.8663482999999985,1.4508626,1001.7695,0,0
79.16,7.142035000000001,-7.0141115,1.4271904,1001.7773,0,0
79.2,7.2041710000000005,-6.9902786999999975,1.4603312,1001.769,0,0
79.24,7.2758660000000015,-6.975979,1.3893149,1001.7863,0,0
79.28,7.232847,-6.9283137,1.4461275,1001.7638,0,0
79.32,7.2089467,-6.956913,1.4934715,1001.83405,0,0
79.36,7.218377,-7.0093417,1.5360694,1001.79645,0,0
79.4,7.223150299999999,-7.0856065999999975,1.5786785,1001.8167,0,0
79.44,7.280502,-7.047474,1.5739435,1001.8082,0,0
79.48,7.356972,-6.975975,1.5029268,1001.81116,0,0
79.52,7.328286999999999,-7.128504799999999,1.4366446000000002,1001.8311,0,0
79.56,7.3091645,-7.20477,1.3893003000000002,1001.80084,0,0
79.6,7.4286537,-7.1428046,1.4224405,1001.7929,0,0
79.64,7.4812245,-7.0522394,1.3466895,1001.8359,0,0
79.68,7.514673700000001,-7.095139,1.4366422,1001.8128,0,0
79.72,7.4573135,-7.1332707,1.5360645,1001.8153,0,0
79.76,7.366490400000001,-7.185703,1.5407983,1001.82513,0,0
79.8,7.514658,-7.114204400000001,1.5644697,1001.83997,0,0
79.84,7.5050955,-7.1857023,1.6070791000000002,1001.8299,0,0
79.88,7.524205,-7.2381350000000015,1.569203,1001.84174,0,0
79.92,7.548097599999997,-7.252434299999999,1.3845607,1001.8746,0,0
79.96,7.6006694,-7.2667335999999985,1.4745136,1001.8491,0,0
80.0,7.6054425,-7.2714996,1.4508412,1001.8844,0,0
80.04,7.576757400000001,-7.2381344,1.3040739,1001.8541,0,0
80.08,7.548069,-7.219067,1.3987613,1001.8844,0,0
80.12,7.4907084,-7.261966,1.3845577,1001.87146,0,0
80.16,7.495479,-7.166635,1.6449491000000005,1001.8688,0,0
80.2,7.495479,-7.166635,1.6449491000000005,1001.88135,0,0
80.24,7.8778567,-7.0379375999999985,1.8532624,1001.8564,0,0
80.28,7.5098023,-7.166634599999999,1.5976036,1001.9011,0,0
80.32,7.203889,-7.1904674,1.4271644,1001.8885,0,0
80.36,6.937617,-7.4621954,1.5835278,1001.89606,0,0
80.4,7.386967999999999,-6.9426417,1.6876892,1001.89874,0,0
80.44,7.487392999999999,-7.114239,2.4594016,1001.8833,0,0
80.48,7.2819114,-7.138073,2.071185,1001.883,0,0
80.52,7.525706,-7.057042599999999,2.2226882000000003,1001.92346,0,0
80.56,7.721727400000002,-7.018911,2.4262722,1001.90857,0,0
80.6,7.521049499999997,-7.1857424,2.5020294,1001.92096,0,0
80.64,7.320322,-7.14761,2.5683131,1001.9136,0,0
80.68,7.153078999999999,-6.904517,2.7103498,1001.9084,0,0
80.72,7.1913667000000006,-6.7662883,2.6630106,1001.92584,0,0
80.76,7.1770770000000015,-6.771056,3.1980026,1001.92035,0,0
80.8,7.172346000000001,-6.6042275,3.4678683,1001.913,0,0
80.84,7.076775,-6.699559,3.3826513,1001.8929,0,0
80.88,6.986033,-6.713861,3.884505,1001.915,0,0
80.92,6.8426633,-6.7567606,3.960258,1001.9081,0,0
80.96,6.4555736,-6.761529,4.107031299999999,1001.91,0,0
81.0,6.230997,-6.599467999999999,3.7424886,1001.9072,0,0
81.04,6.1927834000000015,-6.623301,3.813507,1001.8954,0,0
81.08,5.7053175000000005,-7.1094922999999985,3.794576,1001.9071,0,0
81.12,5.6336703,-7.3478208,4.3390374000000005,1001.9303,0,0
81.16,5.633694599999999,-7.252490499999999,4.3721805,1001.9025,0,0
81.2,5.753239,-7.114261,4.050246,1001.91785,0,0
81.24,5.71505,-6.9522,4.0123744,1001.8975,0,0
81.28,5.7867966,-6.952201,3.974504,1001.9,0,0
81.32,6.107118,-6.880704400000001,3.82301,1001.8891,0,0
81.36,6.107118,-6.880704400000001,3.82301,1001.88715,0,0
81.4,5.823377,-7.1189895000000005,4.0122275,1001.88464,0,0
81.44,5.7421002,-7.052257000000001,3.9648814,1001.8835,0,0
81.48,5.8472257,-7.0236573,4.0785046000000005,1001.89636,0,0
81.52,5.9189124,-6.942626,4.1447854,1001.9011,0,0
81.56,5.7324796,-6.9712243,3.7565622,1001.902,0,0
81.6,5.7993665,-6.985523,3.9033258,1001.9169,0,0
81.64,5.8041363,-6.9855227,3.917528,1001.9058,0,0
81.68,5.7324085,-7.133286,3.6003206,1001.9831,0,0
81.72,5.995277400000001,-6.9998217,4.774451,1001.9404,0,0
81.76,6.205579,-6.7853265,4.485651,1001.88385,0,0
81.8,6.0860634000000005,-6.942622,3.4535491,1001.8263,0,0
81.84,5.565044,-7.0713186000000015,3.6097827000000007,1001.8841,0,0
81.88,5.7323174,-7.0474854,4.2299875999999985,1001.8863,0,0
81.92,5.8040047,-7.24768,4.594536,1001.9163,0,0
81.96,6.1528993,-6.685225999999999,3.6618555,1001.89795,0,0
82.0,5.694008,-7.0808490000000015,3.9364479,1001.9243,0,0
82.04,5.5984015,-7.1428146,4.050073,1001.8952,0,0
82.08,5.770444,-7.099914599999999,3.7944124,1001.87854,0,0
82.12,5.8899193,-7.0522485,4.1021466,1001.8963,0,0
82.16,5.832541,-6.8568190000000016,3.9127688,1001.8883,0,0
82.2,5.8850985,-6.79962,3.950642,1001.90784,0,0
82.24,5.9089875,-6.8282194,4.0453296000000005,1001.88776,0,0
82.28,5.7655730000000025,-6.894951,3.9080296,1001.88776,0,0
82.32,5.7846823,-6.875883999999999,3.6239643,1001.9186,0,0
82.36,6.0666704000000005,-6.8329844,4.1400127,1001.8922,0,0
82.4,5.7811847,-6.9235805999999975,3.9128804,1001.89465,0,0
82.44,5.977188,-6.866383,4.05965,1001.89246,0,0
82.48,5.819502,-6.89975,4.0927954,1001.907,0,0
82.52,5.9772672999999985,-6.7138553,3.983907,1001.8798,0,0
82.56,6.0872345,-6.7043233,4.007581,1001.89716,0,0
82.6,6.0155535,-6.8091880000000025,3.9886453,1001.8996,0,0
82.64,5.7479153,-6.8902199999999985,3.8513505,1001.8855,0,0
82.68,5.9295797,-6.718625,3.9791825,1001.8952,0,0
82.72,5.9296117,-6.561329,3.6430426,1001.91254,0,0
82.76,6.073037,-6.3945003,3.4157941,1001.8897,0,0
82.8,6.378977,-6.4231004999999985,3.8229558,1001.8872,0,0
82.84,6.0683217,-6.856858,3.8987093,1001.89496,0,0
82.88,6.3838363,-6.7901273,3.7377439,1001.8896,0,0
82.92,6.4842277,-6.8663919999999985,4.09756,1001.88715,0,0
82.96,6.60855,-6.613766,3.6809368,1001.88464,0,0
83.0,6.689822,-6.618533,3.5436404,1001.89496,0,0
83.04,6.7281084,-6.7996634999999985,3.311659,1001.8996,0,0
83.08,6.909757000000001,-6.747232,3.2311757,1001.9027,0,0
83.12,7.1774735,-6.2467446,2.904506,1001.89795,0,0
83.16,7.067554,-6.2848773,2.8713665,1001.90515,0,0
83.2,6.909868,-6.4755406,3.0134032000000004,1001.90076,0,0
83.24,6.8381867,-6.4850745000000005,3.0986238,1001.91565,0,0
83.28,6.6613812,-6.4707756,2.8950486,1001.89496,0,0
83.32,6.6040397,-6.480308999999999,2.7956278,1001.89716,0,0
83.36,6.4883485,-6.566083,2.9517736,1001.8803,0,0
83.4,6.493115,-6.637582000000001,2.9943821,1001.91254,0,0
83.44,6.593487,-6.575616,2.9044282000000003,1001.90826,0,0
83.48,6.751211,-6.5327168,3.0275216,1001.8748,0,0
83.52,6.665166,-6.465985,2.9186296,1001.8927,0,0
83.56,6.84201,-6.551782599999999,2.8760192000000004,1001.88226,0,0
83.6,6.741625,-6.632814,2.6582357999999995,1001.87964,0,0
83.64,6.913689,-6.5899142999999984,2.719782,1001.9186,0,0
83.68,6.9519186,-6.5851479999999984,2.7576566,1001.9161,0,0
83.72,7.104863000000001,-6.8425410000000015,2.5919516,1001.8806,0,0
83.76,7.0474973,-6.7329106,2.79553,1001.9056,0,0
83.8,6.985355,-6.547015,2.5493407,1001.9086,0,0
83.84,6.9232087,-6.628046,2.2179317000000003,1001.9033,0,0
83.88,6.7654619999999985,-6.766276,2.4830573,1001.893,0,0
83.92,6.74633,-6.6518784,2.6156194,1001.90076,0,0
83.96,6.8227973,-6.8663735,2.8239322,1001.90826,0,0
84.0,6.8132286,-6.718610000000001,2.9849014,1001.8983,0,0
84.04,6.746307400000001,-6.723376299999999,2.800259,1001.8958,0,0
84.08,6.6411424,-6.8377732999999985,2.658226,1001.92114,0,0
84.12,6.6029,-6.8902054,2.634554,1001.9136,0,0
