Timestamp,Ax,Ay,Az,P,Value,Type
0.0,4.3617725,5.555942,6.4688854000000005,1003.0476,0,0
0.04,3.9124448,4.9029245,7.2216535,1003.0653,0,0
0.08,3.1189725,4.793295,6.4404745000000005,1003.0476,0,0
0.12,2.7747984,4.621699,6.3741900000000005,1003.04504,0,0
0.16,2.9850848,4.3547720000000005,7.482038,1003.0526,0,0
0.2,2.1724913,3.5587585,7.519911,1003.0704,0,0
0.24,2.918114,3.382396,6.6061687,1003.0247,0,0
0.28,3.654179,3.4443622000000005,8.954432,1003.09033,0,0
0.32,2.860705,2.657881,8.722443,1003.0626,0,0
0.36,3.591988,2.4958189,8.301078,1003.0272,0,0
0.4,3.635269,1.9476582,9.134357,1003.0299,0,0
0.44,3.7786486,1.7569963,7.321079300000001,1003.002,0,0
0.48,3.6304586,0.37946168,7.164842599999999,1003.04254,0,0
0.52,3.831196,-0.27355623,4.2389790000000005,1003.04486,0,0
0.56,4.1131864,-2.2469103,7.6524835000000015,1003.0677,0,0
0.6,4.333046,-2.4900043,6.7576800000000015,1003.08044,0,0
0.64,8.161652,-1.7321215,7.169571,1003.07776,0,0
0.68,7.946546,-2.7998297,6.4357370000000005,1003.0576,0,0
0.72,10.733156,-3.1191888,9.361598,1003.0752,0,0
0.76,11.540929,-2.5710344,7.4820375,1003.0325,0,0
0.8,13.400258,-3.4623804,4.9491305,1003.02216,0,0
0.84,12.449063,-3.5291116,2.3783472000000003,1003.0171,0,0
0.88,16.640936,-1.9656806,2.8281143,1003.01465,0,0
0.92,13.0560665,-3.2288175,1.2042118,1002.97943,0,0
0.96,12.329522,-3.5624762000000003,-1.5417442,1002.98444,0,0
1.0,10.938585,-4.1535296000000015,-2.6353931,1002.99945,0,0
1.04,8.046787,-4.4109225,4.6697917,1003.0526,0,0
1.08,10.30284,-1.1362978,-0.0030668117,1003.0476,0,0
1.12,6.3547077000000005,-1.3936915,0.59820133,1003.0956,0,0
1.16,6.196958,-1.708284,0.6313407,1003.131,0,0
1.2,9.22256,-2.542431,2.4730227000000005,1003.1206,0,0
1.24,8.658526,-2.237371,1.2704824,1003.1206,0,0
1.28,8.711091,-3.6053722,2.648193,1003.09796,0,0
1.32,9.447166,-5.083005,2.7286766,1003.0777,0,0
1.36,7.649942999999999,-4.1153936,2.0942647,1003.0726,0,0
1.4,8.86576,-4.8208866,3.9787178,1003.02716,0,0
1.44,9.052219,-5.3595085,4.3243337,1003.05505,0,0
1.48,8.077198,-5.4739075,1.2043661,1003.04987,0,0
1.52,8.703406,-5.3213787,3.505292,1003.0347,0,0
1.56,8.015166,-4.944823,3.6189225,1003.02966,0,0
1.6,8.450182,-7.151739599999999,3.6710057,1003.09796,0,0
1.64,7.465597,-4.5396676,2.3548462000000003,1003.098,0,0
1.68,6.8968554000000015,-2.1325579,2.6720564,1003.0903,0,0
1.72,7.762054400000001,-3.4910276,1.7441179,1003.08777,0,0
1.76,7.322359599999999,-2.556784,2.8614419,1003.07526,0,0
1.8,8.832837,-3.009608,2.8093688,1003.0802,0,0
1.84,7.9151672999999985,-6.6607924,-0.8077114000000001,1003.0802,0,0
1.88,10.257324,-9.573159,0.6078802,1003.09283,0,0
1.92,7.3608164999999985,-8.448253,-1.603082,1003.0726,0,0
1.96,2.4376733,-12.242434,1.4411453,1003.0093,0,0
2.0,10.090195,-2.7665203,0.6694425,1003.05,0,0
2.04,2.9062,-7.552144500000002,-7.0665703,1003.05225,0,0
2.08,9.320751,-7.571212299999999,1.1902366000000002,1003.0623,0,0
2.12,4.909046599999999,-7.61888,-1.0775383,1003.07745,0,0
2.16,3.0784333,-8.877252,0.0066451486,1003.1485,0,0
2.2,3.527789,-8.257601,0.15341668,1003.1307,0,0
2.24,2.4284923,-10.783877,-0.054891806,1003.1333,0,0
2.28,2.0987372000000004,-9.873466,-1.5888342,1003.17365,0,0
2.32,0.89427763,-12.128048,-1.2668902,1003.2925,0,0
2.36,2.9878898,-13.386421,-2.478892,1003.32275,0,0
2.4,1.1880807,-9.739941,-0.2397572,1003.0802,0,0
2.44,2.0101595000000003,-8.762795,-0.09299497,1002.9388,0,0
2.48,0.6526411999999999,-6.9562697,-1.6695567,1002.98926,0,0
2.52,0.17460997,-5.7169633,0.06796519,1002.9589,0,0
2.56,-0.12178542,-6.198385,-0.54751176,1003.0019,0,0
2.6,0.04545699,-10.016396,0.28573883,1003.10297,0,0
2.64,-0.0023917705,-16.351147,-1.6601061999999998,1003.3251,0,0
2.68,-0.4230621,-13.720007,0.27152659999999995,1003.46674,0,0
2.72,0.107442245,-10.049757,-0.36288854,1003.3985,0,0
2.76,0.04047741,-10.021157,-0.69903564,1003.199,0,0
2.8,-0.06472903,-8.262297,0.21469982,1003.02716,0,0
2.84,0.31760770000000005,-9.878158,0.120007366,1002.9792,0,0
2.88,-0.8726142,-8.753249,-0.1025143,1003.09784,0,0
2.92,-0.24651062,-8.028731,-0.23981668,1002.8806,0,0
2.96,-0.99699056,-15.297729,-1.0825454,1002.7569,0,0
3.0,0.73803073,-10.535937,-2.536012,1002.9135,0,0
3.04,-1.6089007,-10.249943,1.0195216,1002.9817,0,0
3.08,-0.9971396,-9.797119,0.46559134,1003.0146,0,0
3.12,-0.9159337,-9.973479,-1.2766743,1003.012,0,0
3.16,-0.7104497,-9.358593,0.5792081,1003.02966,0,0
3.2,-0.23729664,-10.922023,0.42770275,1003.1079,0,0
3.24,-2.4551795,-9.949643,-1.2198752,1003.1156,0,0
3.28,-0.30909836,-9.949642,1.0621033000000002,1003.131,0,0
3.32,0.6085764,-9.182226,2.1794186,1003.08777,0,0
3.36,-1.1265463,-9.687481,-0.10730387,1003.0903,0,0
3.4,0.93513256,-9.43489,0.086951666,1003.09796,0,0
3.44,-0.27414382,-6.6178565,-0.040875968,1003.0676,0,0
3.48,1.2601862,-10.388203,-0.32493907,1003.0777,0,0
3.52,1.6617055,-10.035479,-0.7510340999999999,1003.0677,0,0
3.56,2.5746613,-9.930614,-0.03140332,1003.0931,0,0
3.6,1.4896586,-10.5312,0.20531808,1003.14594,0,0
3.64,2.4647534,-9.077401,0.47991496,1003.1156,0,0
3.68,1.0977427,-9.930615,0.21005505,1003.07513,0,0
3.72,2.034598,-9.62079,0.20058753,1003.0752,0,0
3.76,1.8816575,-9.759021,-0.07874118,1003.09784,0,0
3.8,1.7717359,-9.430128,0.32368454,1003.09796,0,0
3.84,1.7813087,-9.663689,0.16745034,1003.1081,0,0
3.88,1.747864,-9.644624,0.38049987,1003.0878,0,0
3.92,0.92097193,-9.787621,0.53200203,1003.0981,0,0
3.96,1.6331766,-9.944917,0.21479824,1003.10297,0,0
4.0,1.3511821000000002,-9.744722,-0.059795935,1003.11304,0,0
4.04,1.3464162,-9.806688,0.6077564000000001,1003.1079,0,0
4.08,1.2030362,-9.873421,0.13431719,1003.1157,0,0
4.12,1.3703432,-9.725657,-0.17815223,1003.13605,0,0
4.16,1.8387779,-9.763789,-0.036118824,1003.1106,0,0
4.2,1.1600589,-9.282368,0.22427462,1003.09784,0,0
4.24,1.8579234,-9.477797,0.053837247000000005,1003.09283,0,0
4.28,1.1409676000000002,-9.830523,0.1627299,1003.08044,0,0
4.32,1.0023663,-9.792391,0.24321601,1003.0777,0,0
4.36,1.74325,-9.601728,0.24795166,1003.08044,0,0
4.4,1.6956247,-9.778094,0.096466556,1003.08026,0,0
4.44,1.1650867,-9.782863,0.09646842,1003.0701,0,0
4.48,1.6287479,-9.577902,0.36159694,1003.1079,0,0
4.52,0.8257613000000001,-9.94016,-0.026622381,1003.0878,0,0
4.56,1.3563398000000002,-9.477803,0.4846952000000001,1003.0701,0,0
4.6,1.332461,-9.868662,-0.27754214,1003.0878,0,0
4.64,1.2177649,-9.701835,0.2290409,1003.093,0,0
4.68,0.6298693000000001,-9.801931,0.06333859,1003.09546,0,0
4.72,1.7388041,-9.878198,0.39948323,1003.09033,0,0
4.76,1.5046138999999998,-9.978295,-0.52845824,1003.08777,0,0
4.8,1.7149432,-9.5969715,0.082281575,1003.09283,0,0
4.84,1.5285536,-9.744735,0.0017987974,1003.0701,0,0
4.88,1.8010201,-9.687537,-0.040809233,1003.1055,0,0
4.92,0.82118195,-9.573139,0.101224884,1003.05,0,0
4.96,0.8594405999999999,-9.654172,0.15330519,1003.0953,0,0
5.0,0.7638623999999999,-10.111761,-0.017131772,1003.07495,0,0
5.04,1.2131853,-9.76857,0.2574657,1003.0777,0,0
5.08,1.2896826,-9.868668,0.030216122,1003.0424,0,0
5.12,1.3757393,-9.582676,0.01601475,1003.07776,0,0
5.16,1.7438034,-9.9925995,-0.078671575,1003.1055,0,0
5.2,1.1654673,-9.658941,-0.32485875,1003.09296,0,0
5.24,1.1989449,-9.906802,-0.14968404,1003.0877,0,0
5.28,1.5287706,-9.763806,0.11544435,1003.0877,0,0
5.32,1.3997374,-9.811472,-0.026585806,1003.1056,0,0
5.36,1.1751068999999998,-9.697076,-0.007646341,1003.0852,0,0
5.4,1.18395,-9.630325,-0.07399359,1003.1054,0,0
5.44,1.2890968,-9.797155,-0.12133843,1003.11035,0,0
5.48,1.2078319,-9.725657,-0.026651096000000003,1003.10034,0,0
5.52,1.1074471,-9.873421,-0.02191754,1003.1104,0,0
5.56,0.9592648,-9.820989,-0.036121476,1003.1154,0,0
5.6,1.0787506000000002,-9.797154,-0.07873201,1003.06757,0,0
5.64,1.2890531,-9.735189,-0.107139245,1003.0953,0,0
5.68,1.1360909,-9.835287,-0.25864094,1003.08496,0,0
5.72,1.0548248,-10.006883,-0.09293766,1003.09015,0,0
5.76,1.5280178,-9.725656,-0.35333059999999994,1003.0849,0,0
5.8,1.3654948,-9.80192,-0.2917842,1003.09265,0,0
5.84,1.2220924,-9.868651,-0.23023771,1003.11786,0,0
5.88,1.5327715,-9.687523,-0.5190372,1003.08246,0,0
5.92,1.5662200000000002,-9.840052,-0.44802204,1003.0924,0,0
5.96,1.5948905,-9.725655,-0.40067875,1003.0925,0,0
6.0,1.7239368999999998,-9.830519,-0.5995245,1003.1001,0,0
6.04,4.3617725,5.555942,6.4688854000000005,1003.0476,0,0
6.08,3.9124448,4.9029245,7.2216535,1003.0653,0,0
6.12,3.1189725,4.793295,6.4404745000000005,1003.0476,0,0
6.16,2.7747984,4.621699,6.3741900000000005,1003.04504,0,0
6.2,2.9850848,4.3547720000000005,7.482038,1003.0526,0,0
6.24,2.1724913,3.5587585,7.519911,1003.0704,0,0
6.28,2.918114,3.382396,6.6061687,1003.0247,0,0
6.32,3.654179,3.4443622000000005,8.954432,1003.09033,0,0
6.36,2.860705,2.657881,8.722443,1003.0626,0,0
6.4,3.591988,2.4958189,8.301078,1003.0272,0,0
6.44,3.635269,1.9476582,9.134357,1003.0299,0,0
6.48,3.7786486,1.7569963,7.321079300000001,1003.002,0,0
6.52,3.6304586,0.37946168,7.164842599999999,1003.04254,0,0
6.56,3.831196,-0.27355623,4.2389790000000005,1003.04486,0,0
6.6,4.1131864,-2.2469103,7.6524835000000015,1003.0677,0,0
6.64,4.333046,-2.4900043,6.7576800000000015,1003.08044,0,0
6.68,8.161652,-1.7321215,7.169571,1003.07776,0,0
6.72,7.946546,-2.7998297,6.4357370000000005,1003.0576,0,0
6.76,10.733156,-3.1191888,9.361598,1003.0752,0,0
6.8,11.540929,-2.5710344,7.4820375,1003.0325,0,0
6.84,13.400258,-3.4623804,4.9491305,1003.02216,0,0
6.88,12.449063,-3.5291116,2.3783472000000003,1003.0171,0,0
6.92,16.640936,-1.9656806,2.8281143,1003.01465,0,0
6.96,13.0560665,-3.2288175,1.2042118,1002.97943,0,0
7.0,12.329522,-3.5624762000000003,-1.5417442,1002.98444,0,0
7.04,10.938585,-4.1535296000000015,-2.6353931,1002.99945,0,0
7.08,8.046787,-4.4109225,4.6697917,1003.0526,0,0
7.12,10.30284,-1.1362978,-0.0030668117,1003.0476,0,0
7.16,6.3547077000000005,-1.3936915,0.59820133,1003.0956,0,0
7.2,6.196958,-1.708284,0.6313407,1003.131,0,0
7.24,9.22256,-2.542431,2.4730227000000005,1003.1206,0,0
7.28,8.658526,-2.237371,1.2704824,1003.1206,0,0
7.32,8.711091,-3.6053722,2.648193,1003.09796,0,0
7.36,9.447166,-5.083005,2.7286766,1003.0777,0,0
7.4,7.649942999999999,-4.1153936,2.0942647,1003.0726,0,0
7.44,8.86576,-4.8208866,3.9787178,1003.02716,0,0
7.48,9.052219,-5.3595085,4.3243337,1003.05505,0,0
7.52,8.077198,-5.4739075,1.2043661,1003.04987,0,0
7.56,8.703406,-5.3213787,3.505292,1003.0347,0,0
7.6,8.015166,-4.944823,3.6189225,1003.02966,0,0
7.64,8.450182,-7.151739599999999,3.6710057,1003.09796,0,0
7.68,7.465597,-4.5396676,2.3548462000000003,1003.098,0,0
7.72,6.8968554000000015,-2.1325579,2.6720564,1003.0903,0,0
7.76,7.762054400000001,-3.4910276,1.7441179,1003.08777,0,0
7.8,7.322359599999999,-2.556784,2.8614419,1003.07526,0,0
7.84,8.832837,-3.009608,2.8093688,1003.0802,0,0
7.88,7.9151672999999985,-6.6607924,-0.8077114000000001,1003.0802,0,0
7.92,10.257324,-9.573159,0.6078802,1003.09283,0,0
7.96,7.3608164999999985,-8.448253,-1.603082,1003.0726,0,0
8.0,2.4376733,-12.242434,1.4411453,1003.0093,0,0
8.04,10.090195,-2.7665203,0.6694425,1003.05,0,0
8.08,2.9062,-7.552144500000002,-7.0665703,1003.05225,0,0
8.12,9.320751,-7.571212299999999,1.1902366000000002,1003.0623,0,0
8.16,4.909046599999999,-7.61888,-1.0775383,1003.07745,0,0
8.2,3.0784333,-8.877252,0.0066451486,1003.1485,0,0
8.24,3.527789,-8.257601,0.15341668,1003.1307,0,0
8.28,2.4284923,-10.783877,-0.054891806,1003.1333,0,0
8.32,2.0987372000000004,-9.873466,-1.5888342,1003.17365,0,0
8.36,0.89427763,-12.128048,-1.2668902,1003.2925,0,0
8.4,2.9878898,-13.386421,-2.478892,1003.32275,0,0
8.44,1.1880807,-9.739941,-0.2397572,1003.0802,0,0
8.48,2.0101595000000003,-8.762795,-0.09299497,1002.9388,0,0
8.52,0.6526411999999999,-6.9562697,-1.6695567,1002.98926,0,0
8.56,0.17460997,-5.7169633,0.06796519,1002.9589,0,0
8.6,-0.12178542,-6.198385,-0.54751176,1003.0019,0,0
8.64,0.04545699,-10.016396,0.28573883,1003.10297,0,0
8.68,-0.0023917705,-16.351147,-1.6601061999999998,1003.3251,0,0
8.72,-0.4230621,-13.720007,0.27152659999999995,1003.46674,0,0
8.76,0.107442245,-10.049757,-0.36288854,1003.3985,0,0
8.8,0.04047741,-10.021157,-0.69903564,1003.199,0,0
8.84,-0.06472903,-8.262297,0.21469982,1003.02716,0,0
8.88,0.31760770000000005,-9.878158,0.120007366,1002.9792,0,0
8.92,-0.8726142,-8.753249,-0.1025143,1003.09784,0,0
8.96,-0.24651062,-8.028731,-0.23981668,1002.8806,0,0
9.0,-0.99699056,-15.297729,-1.0825454,1002.7569,0,0
9.04,0.73803073,-10.535937,-2.536012,1002.9135,0,0
9.08,-1.6089007,-10.249943,1.0195216,1002.9817,0,0
9.12,-0.9971396,-9.797119,0.46559134,1003.0146,0,0
9.16,-0.9159337,-9.973479,-1.2766743,1003.012,0,0
9.2,-0.7104497,-9.358593,0.5792081,1003.02966,0,0
9.24,-0.23729664,-10.922023,0.42770275,1003.1079,0,0
9.28,-2.4551795,-9.949643,-1.2198752,1003.1156,0,0
9.32,-0.30909836,-9.949642,1.0621033000000002,1003.131,0,0
9.36,0.6085764,-9.182226,2.1794186,1003.08777,0,0
9.4,-1.1265463,-9.687481,-0.10730387,1003.0903,0,0
9.44,0.93513256,-9.43489,0.086951666,1003.09796,0,0
9.48,-0.27414382,-6.6178565,-0.040875968,1003.0676,0,0
9.52,1.2601862,-10.388203,-0.32493907,1003.0777,0,0
9.56,1.6617055,-10.035479,-0.7510340999999999,1003.0677,0,0
9.6,2.5746613,-9.930614,-0.03140332,1003.0931,0,0
9.64,1.4896586,-10.5312,0.20531808,1003.14594,0,0
9.68,2.4647534,-9.077401,0.47991496,1003.1156,0,0
9.72,1.0977427,-9.930615,0.21005505,1003.07513,0,0
9.76,2.034598,-9.62079,0.20058753,1003.0752,0,0
9.8,1.8816575,-9.759021,-0.07874118,1003.09784,0,0
9.84,1.7717359,-9.430128,0.32368454,1003.09796,0,0
9.88,1.7813087,-9.663689,0.16745034,1003.1081,0,0
9.92,1.747864,-9.644624,0.38049987,1003.0878,0,0
9.96,0.92097193,-9.787621,0.53200203,1003.0981,0,0
10.0,1.6331766,-9.944917,0.21479824,1003.10297,0,0
10.04,1.3511821000000002,-9.744722,-0.059795935,1003.11304,0,0
10.08,1.3464162,-9.806688,0.6077564000000001,1003.1079,0,0
10.12,1.2030362,-9.873421,0.13431719,1003.1157,0,0
10.16,1.3703432,-9.725657,-0.17815223,1003.13605,0,0
10.2,1.8387779,-9.763789,-0.036118824,1003.1106,0,0
10.24,1.1600589,-9.282368,0.22427462,1003.09784,0,0
10.28,1.8579234,-9.477797,0.053837247000000005,1003.09283,0,0
10.32,1.1409676000000002,-9.830523,0.1627299,1003.08044,0,0
10.36,1.0023663,-9.792391,0.24321601,1003.0777,0,0
10.4,1.74325,-9.601728,0.24795166,1003.08044,0,0
10.44,1.6956247,-9.778094,0.096466556,1003.08026,0,0
10.48,1.1650867,-9.782863,0.09646842,1003.0701,0,0
10.52,1.6287479,-9.577902,0.36159694,1003.1079,0,0
10.56,0.8257613000000001,-9.94016,-0.026622381,1003.0878,0,0
10.6,1.3563398000000002,-9.477803,0.4846952000000001,1003.0701,0,0
10.64,1.332461,-9.868662,-0.27754214,1003.0878,0,0
10.68,1.2177649,-9.701835,0.2290409,1003.093,0,0
10.72,0.6298693000000001,-9.801931,0.06333859,1003.09546,0,0
10.76,1.7388041,-9.878198,0.39948323,1003.09033,0,0
10.8,1.5046138999999998,-9.978295,-0.52845824,1003.08777,0,0
10.84,1.7149432,-9.5969715,0.082281575,1003.09283,0,0
10.88,1.5285536,-9.744735,0.0017987974,1003.0701,0,0
10.92,1.8010201,-9.687537,-0.040809233,1003.1055,0,0
10.96,0.82118195,-9.573139,0.101224884,1003.05,0,0
11.0,0.8594405999999999,-9.654172,0.15330519,1003.0953,0,0
11.04,0.7638623999999999,-10.111761,-0.017131772,1003.07495,0,0
11.08,1.2131853,-9.76857,0.2574657,1003.0777,0,0
11.12,1.2896826,-9.868668,0.030216122,1003.0424,0,0
11.16,1.3757393,-9.582676,0.01601475,1003.07776,0,0
11.2,1.7438034,-9.9925995,-0.078671575,1003.1055,0,0
11.24,1.1654673,-9.658941,-0.32485875,1003.09296,0,0
11.28,1.1989449,-9.906802,-0.14968404,1003.0877,0,0
11.32,1.5287706,-9.763806,0.11544435,1003.0877,0,0
11.36,1.3997374,-9.811472,-0.026585806,1003.1056,0,0
11.4,1.1751068999999998,-9.697076,-0.007646341,1003.0852,0,0
11.44,1.18395,-9.630325,-0.07399359,1003.1054,0,0
11.48,1.2890968,-9.797155,-0.12133843,1003.11035,0,0
11.52,1.2078319,-9.725657,-0.026651096000000003,1003.10034,0,0
11.56,1.1074471,-9.873421,-0.02191754,1003.1104,0,0
11.6,0.9592648,-9.820989,-0.036121476,1003.1154,0,0
11.64,1.0787506000000002,-9.797154,-0.07873201,1003.06757,0,0
11.68,1.2890531,-9.735189,-0.107139245,1003.0953,0,0
11.72,1.1360909,-9.835287,-0.25864094,1003.08496,0,0
11.76,1.0548248,-10.006883,-0.09293766,1003.09015,0,0
11.8,1.5280178,-9.725656,-0.35333059999999994,1003.0849,0,0
11.84,1.3654948,-9.80192,-0.2917842,1003.09265,0,0
11.88,1.2220924,-9.868651,-0.23023771,1003.11786,0,0
11.92,1.5327715,-9.687523,-0.5190372,1003.08246,0,0
11.96,1.5662200000000002,-9.840052,-0.44802204,1003.0924,0,0
12.0,1.5948905,-9.725655,-0.40067875,1003.0925,0,0
12.04,1.7239368999999998,-9.830519,-0.5995245,1003.1001,0,0
12.08,1.6474512,-9.425362,-0.2775858,1003.10254,0,0
12.12,1.6331023,-9.663688,-0.49063486,1003.0928,0,0
12.16,1.6187546,-9.687521,-0.5095732,1003.06757,0,0
12.2,1.7621403999999998,-9.654155,-0.509574,1003.0899,0,0
12.24,1.6713147000000002,-9.792386,-0.5095748999999999,1003.0953,0,0
12.28,1.7382236,-9.716121,-0.57585734,1003.06726,0,0
12.32,1.5948206,-9.697053,-0.3722787,1003.0849,0,0
12.36,1.6234912,-9.711352,-0.36754504,1003.0899,0,0
12.4,1.5852438,-9.725653,-0.44329637,1003.0899,0,0
12.44,1.6618398,-9.706589,-0.3201909,1003.067,0,0
12.48,1.7096341,-9.80192,-0.32019126,1003.08466,0,0
12.52,1.4132824,-9.706589,-0.26811317,1003.0746,0,0
12.56,1.599691,-9.773321,-0.27758235,1003.09247,0,0
12.6,1.5901278,-9.739955,-0.282317,1003.0872,0,0
12.64,1.5136471000000002,-9.697056,-0.16869171,1003.0922,0,0
12.68,1.7191751,-9.882951,-0.17816083,1003.0747,0,0
12.72,1.6426947,-9.716122,-0.28231803,1003.0696,0,0
12.76,1.8243232,-9.515925,0.07276194,1003.0671,0,0
12.8,1.7000444,-9.711354,-0.18763068,1003.05707,0,0
12.84,1.8768934,-9.625557,-0.036130074,1003.0671,0,0
12.88,1.9485866000000005,-9.682755,-0.02192723,1003.08484,0,0
12.92,1.6904737,-9.759021,0.01594769,1003.0669,0,0
12.96,1.8577629,-9.687522,0.13430746,1003.0618,0,0
13.0,1.7191452,-9.768553,-0.026662614,1003.05945,0,0
13.04,1.6139857,-9.74472,0.23846368,1003.07434,0,0
13.08,1.6426607,-9.77332,0.19585368,1003.0695,0,0
13.12,1.5996389,-9.763785,0.1201029,1003.0468,0,0
13.16,1.5135986,-9.773319,0.2526659,1003.06177,0,0
13.2,1.6665483,-9.697054,0.23372789,1003.0645,0,0
13.24,1.5183705,-9.792386,0.13430505,1003.0743,0,0
13.28,1.5566055,-9.735187,0.3189465,1003.07935,0,0
13.32,1.5566016000000005,-9.7447195,0.15324198,1003.0693,0,0
13.36,1.4466623,-9.763785,0.32841462,1003.0643,0,0
13.4,1.4179796999999998,-9.763785,0.17691334,1003.054,0,0
13.44,1.476775,-9.825786,0.18177933,1003.0591,0,0
13.48,1.338214,-9.768588,0.27173790000000003,1003.06683,0,0
13.52,1.4051844999999998,-9.697092,0.25280514,1003.0589,0,0
13.56,1.35266,-9.797191,0.20546599,1003.0616,0,0
13.6,1.4005079,-9.821025,0.14865770000000006,1003.0745,0,0
13.64,1.3575396999999998,-9.80196,0.1912719,1003.0717,0,0
13.68,1.3480333,-9.81626,0.19127679,1003.059,0,0
13.72,1.3385303,-9.7876625,0.2291572,1003.0667,0,0
13.76,1.3863783,-9.744765,0.120270476,1003.0716,0,0
13.8,1.391218,-9.763832,0.12974475,1003.0866,0,0
13.84,1.4199435,-9.730468,0.1108114,1003.07916,0,0
13.88,1.4008774,-9.787668,0.072941065,1003.0588,0,0
13.92,1.4630615,-9.768602,0.016132463,1003.0538,0,0
13.96,1.5395917,-9.768603,0.0066685323,1003.0816,0,0
14.0,1.4822906,-9.749538,0.063486554,1003.0666,0,0
14.04,1.4632246000000002,-9.768606,0.06822585,1003.0841,0,0
14.08,1.4393756000000002,-9.797208,0.006683169,1003.064,0,0
14.12,1.4585449,-9.749542,0.05876618,1003.0613,0,0
14.16,1.4777206,-9.735244,-0.0027759,1003.0638,0,0
14.2,1.4586546,-9.778145,-0.045380663,1003.07654,0,0
14.24,1.5256219,-9.797213,-0.12112656,1003.0715,0,0
14.28,1.5782528999999998,-9.768614,-0.1400593,1003.07385,0,0
14.32,1.5687466,-9.773383,-0.064303964,1003.0815,0,0
14.36,1.5879158000000002,-9.716186,-0.1542531,1003.07135,0,0
14.4,1.5736264,-9.66852,-0.12584206,1003.0587,0,0
14.44,1.5059001,-9.649434,-0.102244124,1003.0612,0,0
14.48,1.4629008999999995,-9.782898,-0.15905523,1003.06885,0,0
14.52,1.553735,-9.74,-0.19219442,1003.07404,0,0
14.56,1.5155156,-9.744767,-0.15905185,1003.08636,0,0
14.6,1.5776721000000002,-9.740001,-0.14958128,1003.06366,0,0
14.64,1.5824698,-9.725701,-0.24426775,1003.1017,0,0
14.68,1.6637467,-9.730469,-0.17798424,1003.04333,0,0
14.72,1.577728,-9.70187,-0.182717,1003.1016,0,0
14.76,1.577747,-9.740003,-0.14957443,1003.0914,0,0
14.8,1.4917296,-9.830568,-0.258464,1003.0662,0,0
14.84,1.7116196,-9.725703,-0.13536775,1003.0838,0,0
14.88,1.6733979,-9.75907,-0.13063182,1003.0662,0,0
14.92,1.7020956000000005,-9.673272,-0.19691175,1003.0662,0,0
14.96,1.5635003,-9.8019705,-0.11642511,1003.06854,0,0
15.0,1.5396217,-9.778137,-0.1353609,1003.06354,0,0
15.04,1.668694,-9.692341,-0.16376567,1003.0811,0,0
15.08,1.5539979,-9.768605,-0.08327906,1003.04083,0,0
15.12,1.6304936,-9.749539,-0.106949344,1003.0712,0,0
15.16,1.5779337,-9.797206,-0.19690141,1003.07623,0,0
15.2,1.6735488,-9.6685095,-0.2347749,1003.08105,0,0
15.24,1.6544486,-9.711409,-0.18742909,1003.0813,0,0
15.28,1.5923303,-9.740009,-0.23477139,1003.0709,0,0
15.32,1.5636704,-9.735242,-0.27737929999999994,1003.0634,0,0
15.36,1.6784036,-9.687577,-0.2252992000000001,1003.04565,0,0
15.4,1.6067256,-9.716178,-0.26790714,1003.0785,0,0
15.44,1.5828443,-9.778142,-0.25370225,1003.08105,0,0
15.48,1.5541844,-9.725711,-0.28210694,1003.0634,0,0
15.52,1.5876609,-9.744778,-0.34365258,1003.0609,0,0
15.56,1.6450377,-9.730479,-0.31051,1003.071,0,0
15.6,1.6928558,-9.678047,-0.3152426,1003.0481,0,0
15.64,1.7356973999999998,-9.6685095,-0.37680602,1003.0657,0,0
15.68,1.7070310000000002,-9.720942,-0.43361774,1003.0556,0,0
15.72,1.7500609,-9.79244,-0.32945976,1003.03296,0,0
15.76,1.6927159,-9.706643,-0.45728755,1003.06824,0,0
15.8,1.6640496,-9.768608,-0.39573914,1003.0327,0,0
15.84,1.6545018,-9.668511,-0.41467562,1003.0758,0,0
15.88,1.6258339,-9.792442,-0.39100263,1003.0734,0,0
15.92,1.6306278,-9.778142,-0.41940773,1003.0606,0,0
15.96,1.5876213,-9.74001,-0.41467226,1003.05566,0,0
16.0,1.654552,-9.725711,-0.40993664,1003.0708,0,0
16.04,1.6593433999999998,-9.763844,-0.4809516,1003.0706,0,0
16.08,1.6975944,-9.735244,-0.38152802,1003.09326,0,0
16.12,1.6737080000000002,-9.65898,-0.4336053,1003.0681,0,0
16.16,1.6928388,-9.68758,-0.44307303,1003.06036,0,0
16.2,1.6880717,-9.725712,-0.5046191,1003.05536,0,0
16.24,1.6546255,-9.692347,-0.44307077,1003.0453,0,0
16.28,1.6737566,-9.763845,-0.47147608,1003.05554,0,0
16.32,1.7502468,-9.692347,-0.4572717000000001,1003.0807,0,0
16.36,1.7454787,-9.725714,-0.53302103,1003.0477,0,0
16.4,1.7693895,-9.716182,-0.52828556,1003.02765,0,0
16.44,1.7646229,-9.692348,-0.49987793,1003.07294,0,0
16.48,1.7455156000000005,-9.668515,-0.594565,1003.04,0,0
16.52,1.7359692999999998,-9.687583,-0.46673477,1003.0576,0,0
16.56,1.7551003,-9.754314,-0.49987453,1003.0856,0,0
16.6,1.7407733,-9.735248,-0.5093422000000001,1003.0578,0,0
16.64,1.7505686000000005,-9.697123,-0.5850711,1003.0477,0,0
16.68,1.7458119,-9.740022,-0.5613971,1003.0426,0,0
16.72,1.731494,-9.668524,-0.49511337,1003.05023,0,0
16.76,1.8175519,-9.616092,-0.5235178,1003.04736,0,0
16.8,1.7649956999999998,-9.59226,-0.5566566999999999,1003.04486,0,0
16.84,1.7411182,-9.663758,-0.4951074,1003.0679,0,0
16.88,1.8319547,-9.630393,-0.55665284,1003.0752,0,0
16.92,1.8845543,-9.6875925,-0.5803229,1003.0752,0,0
16.96,1.8654553,-9.687593,-0.5755866999999999,1003.06506,0,0
17.0,1.951512,-9.69236,-0.57558477,1003.0802,0,0
17.04,1.9610945,-9.649462,-0.5566451,1003.045,0,0
17.08,1.8894175,-9.668529,-0.62292486,1003.0702,0,0
17.12,1.8703212,-9.654229,-0.55664116,1003.0423,0,0
17.16,1.8703414,-9.658996,-0.58978003,1003.0701,0,0
17.2,1.9181613,-9.697129,-0.52349645,1003.0802,0,0
17.24,1.9372994,-9.701897,-0.49035388,1003.0676,0,0
17.28,1.9612225,-9.692363,-0.5045549,1003.07007,0,0
17.32,1.9277829,-9.649466,-0.51875645,1003.10046,0,0
17.36,1.9086865,-9.625633,-0.5708328,1003.0854,0,0
17.4,1.9565061,-9.663766,-0.45247066,1003.04474,0,0
17.44,1.8752698,-9.663767,-0.48087513,1003.08765,0,0
17.48,1.8991877,-9.682834,-0.47140467,1003.04456,0,0
17.52,1.9135512,-9.687601,-0.47140247,1003.0774,0,0
17.56,1.8848943,-9.663768,-0.50927573,1003.0774,0,0
17.6,1.8562354,-9.687602,-0.45719543,1003.02216,0,0
17.64,1.8331529,-9.644722,-0.45712072,1003.05725,0,0
17.68,1.8762211,-9.644723,-0.4523817,1003.06006,0,0
17.72,1.8953937,-9.687625,-0.49972093,1003.07245,0,0
17.76,1.9671441000000005,-9.701925,-0.3529494,1003.0422,0,0
17.8,1.7712218999999998,-9.7352915,-0.42396092,1003.09503,0,0
17.84,1.8573116000000005,-9.687629,-0.47130007,1003.08,0,0
17.88,1.8047837,-9.678096,-0.42395148,1003.05725,0,0
17.92,1.804837,-9.678097,-0.44288427,1003.0825,0,0
17.96,1.8765873,-9.711465,-0.4949578,1003.08466,0,0
18.0,1.8622979,-9.692399,-0.42393717,1003.0748,0,0
18.04,1.89103,-9.654268,-0.46180758,1003.0899,0,0
18.08,1.8241659,-9.701936,-0.37184897,1003.0749,0,0
18.12,1.8003203,-9.692403,-0.4191881,1003.0849,0,0
18.16,1.8433917,-9.701939,-0.41918325,1003.09247,0,0
18.2,1.8052032,-9.692406,-0.44758517,1003.09,0,0
18.24,1.8339353,-9.668574,-0.4049706,1003.0774,0,0
18.28,1.8531045,-9.649508,-0.4996541,1003.09503,0,0
18.32,1.8483812,-9.654278,-0.51385224,1003.0999,0,0
18.36,1.853211,-9.668578,-0.43336272,1003.0819,0,0
18.4,1.8293651,-9.725779,-0.45702988,1003.09247,0,0
18.44,1.8246421,-9.716247,-0.41441503,1003.05676,0,0
18.48,1.8677136000000003,-9.711482,-0.5375047,1003.0948,0,0
18.52,1.9155613,-9.625685,-0.41914,1003.077,0,0
18.56,1.8247983,-9.701951,-0.39546314,1003.0845,0,0
18.6,1.8296314,-9.687654,-0.4570055,1003.09753,0,0
18.64,1.9242948,-9.6542635,-0.4523565,1003.0897,0,0
18.68,1.843052,-9.687631,-0.43341756,1003.0973,0,0
18.72,1.9052027,-9.678097,-0.41447875,1003.1051,0,0
18.76,1.9195558,-9.720996,-0.49496233,1003.1251,0,0
18.8,1.9100105,-9.659031,-0.45708588,1003.0998,0,0
18.84,1.8956839,-9.673331,-0.4286782,1003.0973,0,0
18.88,1.8717989,-9.673332,-0.5186305999999999,1003.0845,0,0
18.92,1.8383533,-9.673332,-0.4949574000000001,1003.0871,0,0
18.96,1.8479278,-9.678099,-0.44761202,1003.10974,0,0
19.0,1.8479418,-9.720999,-0.44761074,1003.092,0,0
19.04,1.8049375,-9.697166,-0.46181265,1003.1123,0,0
19.08,1.8957669,-9.6495,-0.47128028,1003.09186,0,0
19.12,1.9053403,-9.616136,-0.4665445,1003.09973,0,0
19.16,1.8575562,-9.678101,-0.49021536,1003.1048,0,0
19.2,1.8527905,-9.668568,-0.5517613,1003.0994,0,0
19.24,1.8002266,-9.678102,-0.52808803,1003.0994,0,0
19.28,1.9914328,-9.678102,-0.5422899999999999,1003.0994,0,0
19.32,1.991445,-9.682868,-0.58016413,1003.0896,0,0
19.36,1.9245425,-9.65427,-0.5138811,1003.0944,0,0
19.4,1.9197766,-9.65427,-0.5422861999999999,1003.10956,0,0
19.44,1.9293491000000005,-9.663804,-0.5517538000000001,1003.0868,0,0
19.48,1.9293624,-9.644737,-0.5280806,1003.1171,0,0
19.52,1.9293762,-9.7305355,-0.56595457,1003.11206,0,0
19.56,1.8672537,-9.630438,-0.53754675,1003.097,0,0
19.6,1.958084,-9.673338,-0.46652937,1003.10706,0,0
19.64,1.9628443,-9.649504,-0.48546886,1003.09186,0,0
19.68,1.9628578,-9.616139,-0.45232677,1003.0991,0,0
19.72,1.9007331000000005,-9.72577,-0.528076,1003.0944,0,0
19.76,1.8768467,-9.6066065,-0.49493408,1003.0994,0,0
19.8,1.8386202,-9.697172,-0.5044018,1003.097,0,0
19.84,1.9342288,-9.668572,-0.56594795,1003.0944,0,0
19.88,1.9485809,-9.654273,-0.5375403,1003.08417,0,0
19.92,1.9963907,-9.668573,-0.6890400999999999,1003.09174,0,0
19.96,2.0728807,-9.597075,-0.5896165,1003.06885,0,0
20.0,2.0872326,-9.611375,-0.5612089,1003.09686,0,0
20.04,2.0298862,-9.597076,-0.5990831,1003.0967,0,0
20.08,2.0060005000000003,-9.682874,-0.6464259,1003.1017,0,0
20.12,2.0107937,-9.697174,-0.61801827,1003.0712,0,0
20.16,2.006026,-9.654276,-0.523329,1003.0991,0,0
20.2,1.9677993000000005,-9.673341,-0.5706720999999999,1003.0713,0,0
20.24,1.9725908,-9.630443,-0.5422646,1003.08905,0,0
20.28,2.0204027,-9.616144,-0.48545045,1003.09393,0,0
20.32,1.9630569,-9.659042,-0.55646545,1003.0815,0,0
20.36,1.9630693,-9.668576,-0.57540196,1003.0738,0,0
20.4,2.0204391,-9.64951,-0.4854471,1003.05365,0,0
20.44,1.9535345,-9.668577,-0.4665084,1003.0991,0,0
20.48,2.0204654,-9.630445,-0.40969425,1003.09143,0,0
20.52,1.9535598,-9.61138,-0.43809962,1003.08124,0,0
20.56,1.944012,-9.668578,-0.3954889,1003.07874,0,0
20.6,1.9440247,-9.754376,-0.3860189000000001,1003.0738,0,0
20.64,1.9972831,-9.60663,-0.33387816,1003.07367,0,0
20.68,2.0116596,-9.563732,-0.34807798,1003.0913,0,0
20.72,2.0929556,-9.682897,-0.3622776,1003.08374,0,0
20.76,1.96394,-9.644765,-0.27232033,1003.09125,0,0
20.8,1.897062,-9.6828985,-0.32439518,1003.07367,0,0
20.84,1.8731998,-9.697199,-0.37173584,1003.0863,0,0
20.88,1.7872002,-9.6829,-0.22970031,1003.10394,0,0
20.92,1.8302603,-9.678135,-0.2249621,1003.0913,0,0
20.96,1.8255198,-9.668603,-0.31491220000000003,1003.0886,0,0
21.0,1.8207768,-9.630471,-0.26283038,1003.0861,0,0
21.04,1.8351557,-9.74487,-0.33857727,1003.06866,0,0
21.08,1.701358,-9.749637,-0.34330827,1003.0913,0,0
21.12,1.7109593999999997,-9.730572,-0.30542922,1003.0734,0,0
21.16,1.6584183999999995,-9.725806,-0.34803545,1003.0813,0,0
21.2,1.6584578,-9.778238,-0.31015664,1003.0761,0,0
21.24,1.6871758999999995,-9.697208,-0.30068424,1003.066,0,0
21.28,1.6776556,-9.701977,-0.25807098,1003.0913,0,0
21.32,1.7159308000000002,-9.754409,-0.24859883,1003.10645,0,0
21.36,1.6825116000000002,-9.6686125,-0.24386083,1003.08856,0,0
21.4,1.6204134,-9.740111,-0.22491957,1003.08856,0,0
21.44,1.6778080000000002,-9.687681,-0.2296506,1003.0734,0,0
21.48,1.6635103,-9.711514,-0.16336514,1003.09106,0,0
21.52,1.6635494999999998,-9.749647,-0.24858083,1003.0858,0,0
21.56,1.6635863999999998,-9.716283,-0.21543662,1003.1088,0,0
21.6,1.6492863999999998,-9.725817,-0.20596422,1003.09607,0,0
21.64,1.5717363000000002,-9.768689,-0.14924955,1003.08875,0,0
21.68,1.5956304,-9.69719,-0.19659409,1003.08344,0,0
21.72,1.6338636999999998,-9.7305565,-0.22500096,1003.07104,0,0
21.76,1.6290787,-9.701958,-0.21079826,1003.0988,0,0
21.8,1.5621568,-9.792522,-0.22973625,1003.08093,0,0
21.84,1.5764912,-9.701957,-0.16345508,1003.086,0,0
21.88,1.5143486000000002,-9.687657000000002,-0.27234685,1003.1062,0,0
21.92,1.5573617,-9.778221,-0.19186245,1003.0884,0,0
21.96,1.6242741000000005,-9.730556,-0.14925326,1003.0785,0,0
22.0,1.6003704,-9.778221,-0.16819128,1003.10364,0,0
22.04,1.5621271,-9.763921,-0.19186378,1003.0706,0,0
22.08,1.5191036,-9.754388,-0.14452020000000002,1003.08856,0,0
22.12,1.5095386999999998,-9.763921,-0.12084867,1003.0883,0,0
22.16,1.542993,-9.687656,-0.13978669,1003.10614,0,0
22.2,1.5095292,-9.697188,-0.12558393,1003.0935,0,0
22.24,1.5477622,-9.797286,-0.06877157,1003.0959,0,0
22.28,1.5620969999999998,-9.716255,-0.07350643,1003.0858,0,0
22.32,1.5095143,-9.735321,-0.09717889,1003.07574,0,0
22.36,1.5477473,-9.76392,-0.06403853,1003.0984,0,0
22.4,1.4903846,-9.744855,-0.12558626,1003.06793,0,0
22.44,1.5764163,-9.716254,-0.03563301,1003.0807,0,0
22.48,1.5190536,-9.787752,-0.021430284,1003.0932,0,0
22.52,1.4760302,-9.778219,0.002241321,1003.10077,0,0
22.56,1.5572819,-9.7496195,0.040116068,1003.0882,0,0
22.6,1.5477176,-9.7496195,0.016443608000000002,1003.0656,0,0
22.64,1.5541747,-9.740128,0.011862723,1003.0706,0,0
22.68,1.496879,-9.797328,0.040274836,1003.06537,0,0
22.72,1.5065008,-9.744897,0.1018278,1003.0628,0,0
22.76,1.5447975,-9.744899,0.08289550000000001,1003.07544,0,0
22.8,1.5639789,-9.744901,0.16338609,1003.0628,0,0
22.84,1.4541055,-9.7020035,0.097110115,1003.0805,0,0
22.88,1.497182,-9.797336,0.1491939,1003.0628,0,0
22.92,1.5020163,-9.787804,0.21548055,1003.0629,0,0
22.96,1.4447246,-9.692474,0.25336182,1003.0681,0,0
23.0,1.4878088,-9.71631,0.21549262,1003.07794,0,0
23.04,1.4878671,-9.744909,0.3575301,1003.0881,0,0
23.08,1.4210042,-9.730612,0.24864376,1003.0653,0,0
23.12,1.4784278999999998,-9.725846,0.42855722,1003.0679,0,0
23.16,1.5740861000000002,-9.76398,0.46643814,1003.0855,0,0
23.2,1.4594368,-9.744916,0.3859593,1003.0653,0,0
23.24,1.4069172,-9.75445,0.48538712,1003.07794,0,0
23.28,1.421315,-9.702021,0.5280020999999999,1003.0956,0,0
23.32,1.3592435,-9.7735195,0.584821,1003.07544,0,0
23.36,1.3832046999999998,-9.7115555,0.5895611,1003.0653,0,0
23.4,1.3784872,-9.773522,0.60377,1003.09564,0,0
23.44,1.3403069,-9.687726,0.7174010999999999,1003.1081,0,0
23.48,1.3021306,-9.7449255,0.6842659000000001,1003.0855,0,0
23.52,1.2352755,-9.749694,0.7268812,1003.10034,0,0
23.56,1.3452692,-9.706797,0.85471547,1003.09534,0,0
23.6,1.259291,-9.730631,0.89259607,1003.10315,0,0
23.64,1.2953101,-9.759176,0.9207993,1003.0981,0,0
23.68,1.2857213,-9.759175,0.9349999,1003.10034,0,0
23.72,1.3191489,-9.787773,0.92079383,1003.10803,0,0
23.76,1.2474245000000002,-9.754406,0.85924405,1003.1156,0,0
23.8,1.1852579,-9.697207,1.0202110999999998,1003.0877,0,0
23.84,1.0991924,-9.668608,1.1811782,1003.0928,0,0
23.88,1.1469611000000002,-9.659073,1.2521915,1003.08765,0,0
23.92,1.0991358,-9.673371,1.2237828000000002,1003.0825,0,0
23.96,1.1277872,-9.668606,1.3752811000000005,1003.1359,0,0
24.0,1.0034813,-9.682904,1.4036847,1003.0981,0,0
24.04,0.9508761999999998,-9.668604,1.4746982,1003.0903,0,0
24.08,0.9173884,-9.802067999999998,1.7398223000000002,1003.1357,0,0
24.12,1.2089272,-9.625704,1.5599122,1003.10803,0,0
24.16,1.7681351000000003,-9.482706,1.9575996,1003.1332,0,0
24.2,1.8828212,-9.516071,1.6072509,1003.14575,0,0
24.24,2.1313438,-9.535137,1.5504355,1003.1485,0,0
24.28,2.508919,-9.430272,1.6119801,1003.1534,0,0
24.32,2.212542,-9.578034,1.536227,1003.186,0,0
24.36,2.480182,-9.549435,1.427333,1003.186,0,0
24.4,2.274623,-9.663832,1.4273305,1003.1709,0,0
24.44,2.2841609,-9.625698,1.5314853000000002,1003.1885,0,0
24.48,1.9734386,-9.549433,1.4320598,1003.17316,0,0
24.52,1.9686297,-9.668595,1.0343672,1003.17084,0,0
24.56,1.9303621,-9.578031,1.0817084,1003.191,0,0
24.6,1.9112138,-9.392134,1.3799733,1003.2138,0,0
24.64,2.1943378,-9.277764,1.7777653000000002,1003.1959,0,0
24.68,2.012722,-9.516092,1.5505154,1003.21124,0,0
24.72,1.8693429,-9.682922,1.3090621999999998,1003.15826,0,0
24.76,2.0175345,-9.659089,0.8261546000000001,1003.14557,0,0
24.8,2.7393003,-9.539926,0.23435542,1003.12286,0,0
24.84,3.3798106,-9.158602,0.092324816,1003.1482,0,0
24.88,3.4706434999999995,-9.592359,0.11599834,1003.133,0,0
24.92,2.7967067,-9.449363,0.7646132,1003.0952,0,0
24.96,2.285283,-9.635259,1.214383,1003.0571,0,0
25.0,2.0845487,-9.425531,1.3706200000000002,1003.01416,0,0
25.04,1.4918684,-9.802089,1.0202755,1002.98645,0,0
25.08,1.6639577,-9.45413,1.2475283,1002.9965,0,0
25.12,1.9555382,-9.487497,1.6925635,1002.9814,0,0
25.16,1.8456234,-9.558995,1.5789396999999998,1002.9988,0,0
25.2,1.888656,-9.711527,1.673629,1003.0344,0,0
25.24,2.1037647999999995,-9.530397,1.735178,1003.01666,0,0
25.28,2.3666694,-9.420766,1.4605839,1003.0442,0,0
25.32,2.0273209,-9.201506,1.9245573,1003.0746,0,0
25.36,2.6343713,-9.701995,2.2275605,1003.1477,0,0
25.4,1.5876107,-9.473201,1.7588558,1003.16284,0,0
25.44,1.6163061,-9.578065,2.2038918,1003.1427,0,0
25.48,1.6880186999999998,-9.315905,1.6689051,1003.1151,0,0
25.52,1.4251468,-9.330204,1.3753737,1003.13763,0,0
25.56,1.1622732,-9.644797,1.5600169,1003.1023,0,0
25.6,1.2005281,-9.797328,1.4605958,1003.0797,0,0
25.64,1.3967711,-9.630505,1.7020755,1003.1253,0,0
25.68,1.1386882,-9.716304,1.6736714,1003.0898,0,0
25.72,0.95708066,-9.811635,1.6215951000000002,1003.1227,0,0
25.76,1.2486753000000002,-9.7449045,1.2333765,1003.12494,0,0
25.8,1.2869338,-9.692472,1.3943481000000002,1003.0949,0,0
25.84,1.248727,-9.716307,1.1197553999999998,1003.0822,0,0
25.88,1.3969208,-9.597144,1.2049766000000002,1003.1048,0,0
25.92,1.6263763999999998,-9.697241,1.4369646,1003.0744,0,0
25.96,1.7028866000000005,-9.592378,1.6594846999999997,1003.0718,0,0
26.0,1.8319678,-9.692476,1.6547529,1003.092,0,0
26.04,2.1235626,-9.582847,1.2949403999999998,1003.05426,0,0
26.08,2.3577914,-9.6638775,1.1860508,1003.0845,0,0
26.12,2.02324,-9.77351,0.86884904,1003.0771,0,0
26.16,2.018485,-9.601914,0.9398674,1003.0821,0,0
26.2,1.9420282,-9.601914,0.77889943,1003.0844,0,0
26.24,1.7986608,-9.773512,0.44749352,1003.0819,0,0
26.28,1.8034722,-9.911743,0.27232346,1003.11725,0,0
26.32,2.2289016,-9.477985,-0.04487924,1003.08466,0,0
26.36,2.530049,-9.416022,-0.10169028,1003.11725,0,0
26.4,2.224175,-9.458921,-0.22004728,1003.0971,0,0
26.44,1.9756516,-9.435088,-0.9775496,1003.1273,0,0
26.48,1.7558006000000002,-9.273026,-0.5751235,1003.1198,0,0
26.52,1.5120605,-9.911747,0.054555163,1003.0945,0,0
26.56,2.3007567000000004,-9.249195,-0.20583452,1003.10974,0,0
26.6,2.4537284,-9.463691,-1.4462469999999998,1003.13495,0,0
26.64,1.5167298,-10.19297,-1.9197018,1003.1374,0,0
26.68,1.8178705,-10.011842,-2.0001853,1003.19293,0,0
26.72,2.0473213,-9.825946,-2.5493743,1003.17786,0,0
26.76,1.9087306,-10.364567,-4.348446,1003.2157,0,0
26.8,2.0951624,-9.687717,-2.7813566,1003.2155,0,0
26.84,1.5980768,-10.84599,-5.8397803,1003.17737,0,0
26.88,2.4011064,-10.912724,-6.2611403,1003.1651,0,0
26.92,2.5445185,-9.082366,-5.0728035,1003.1323,0,0
26.96,1.1153749,-7.237708599999999,-1.8581408,1003.08417,0,0
27.0,0.168994,-5.1833230000000015,-2.7434728,1003.13464,0,0
27.04,-0.33287236,-5.4311843,-3.5625234,1003.155,0,0
27.08,0.044755936,-6.551326,-5.5983152,1003.0462,0,0
27.12,0.5370948,-7.628568,-5.9675970000000005,1003.0667,0,0
27.16,1.0676684,-7.542771000000001,-5.2432313,1003.02124,0,0
27.2,0.90517896,-8.009893,-5.678795,1003.0387,0,0
27.24,0.9243149,-8.443651,-3.8749852,1003.06635,0,0
27.28,1.0151465,-10.359807,-6.7345643,1003.11694,0,0
27.32,2.5208072999999995,-9.811653,-6.360544,1003.1902,0,0
27.36,2.8697474,-7.004152,-2.5304093,1003.1851,0,0
27.4,1.5457642,-8.534218,-4.121167,1003.05896,0,0
27.44,1.952063,-9.296866,-3.3257859,1003.0414,0,0
27.48,1.5314627,-9.072839,-3.0701258,1003.0337,0,0
27.52,1.531477,-9.368366,-3.0559216,1003.03357,0,0
27.56,2.1050727000000005,-9.006108,-1.8391776,1003.0337,0,0
27.6,2.301066,-8.858345,-1.0485303,1002.9932,0,0
27.64,2.7456021,-9.644828,-1.2994523999999998,1003.00073,0,0
27.68,2.583109,-10.240647,-1.5645772,1003.0614,0,0
27.72,1.8088032,-10.049986,-1.001181,1003.0867,0,0
27.76,1.5985120000000002,-10.107185,-0.69344276,1003.13464,0,0
27.8,1.4885943,-10.79357,-1.1621473,1003.09174,0,0
27.84,0.7240565,-8.872653,-0.3241365,1003.0766,0,0
27.88,2.1723616000000003,-9.206312,0.49491775,1003.1118,0,0
27.92,1.9381756,-9.964195,0.16824608,1003.09924,0,0
27.96,2.4735412999999995,-10.011862,-0.20576937,1003.11694,0,0
28.0,2.4496667000000003,-10.426552,0.08776598,1003.11694,0,0
28.04,2.3110783,-9.8498,0.12564360000000002,1003.1446,0,0
28.08,1.498533,-9.78307,0.34342816,1003.1218,0,0
28.12,1.5989351,-9.33978,0.76479256,1003.1067,0,0
28.16,1.426893,-9.7306385,0.69851375,1003.1218,0,0
28.2,1.2118214,-9.654374,0.7837348000000001,1003.1092,0,0
28.24,1.2883308999999998,-9.859336,0.71272177,1003.10675,0,0
28.28,1.3218156,-9.764006,0.793209,1003.0916,0,0
28.32,1.3361729,-9.845038,0.6559129,1003.1294,0,0
28.36,1.6564442,-9.520913,0.6937903,1003.1092,0,0
28.4,1.5465364,-9.716343,0.7269336999999999,1003.12683,0,0
28.44,1.4700824,-9.592413,0.8831711999999999,1003.12683,0,0
28.48,1.6230638000000002,-9.535214,0.8642361999999999,1003.142,0,0
28.52,1.6756662,-9.792609,0.8263630999999999,1003.0989,0,0
28.56,1.7951889,-9.825975,0.6369895000000001,1003.1218,0,0
28.6,1.7760942,-9.8069105,0.65119493,1003.10144,0,0
28.64,1.6996449,-9.578116,0.85951126,1003.114,0,0
28.68,1.4797984,-9.697281,0.74588776,1003.1266,0,0
28.72,1.5132831,-9.72588,0.7269526,1003.109,0,0
28.76,1.4129333,-9.730648,0.76956457,1003.1066,0,0
28.8,1.312582,-9.79738,0.72222275,1003.114,0,0
28.84,1.1739937,-9.721115,0.85478854,1003.0964,0,0
28.88,1.1781677,-9.787833,0.807389,1003.1369,0,0
28.92,1.3024437,-9.692502,0.8357955,1003.11414,0,0
28.96,1.4649584,-9.730635,0.7695139,1003.1318,0,0
29.0,1.431501,-9.816432,0.7647797,1003.1318,0,0
29.04,1.4649608,-9.673435,0.74110776,1003.109,0,0
29.08,1.4410632,-9.740168,0.68902946,1003.1165,0,0
29.12,1.5271008999999998,-9.730635,0.6890295999999999,1003.10645,0,0
29.16,1.4840839,-9.702035,0.72690487,1003.1393,0,0
29.2,1.5653418,-9.725868,0.6369513000000001,1003.1167,0,0
29.24,1.5605633,-9.678202,0.63695145,1003.09143,0,0
29.28,1.5749038,-9.644836,0.69849885,1003.1318,0,0
29.32,1.6609416,-9.7354,0.6700925,1003.1192,0,0
29.36,1.7756581000000002,-9.644836,0.6558894000000001,1003.09607,0,0
29.4,1.7804391,-9.716335,0.755312,1003.11127,0,0
29.44,1.6848444,-9.678202,0.65588963,1003.134,0,0
29.48,1.7278638,-9.611471,0.518592,1003.1192,0,0
29.52,1.6848468999999997,-9.687736,0.6748274999999999,1003.1317,0,0
29.56,1.8282422,-9.687736,0.52332664,1003.12646,0,0
29.6,1.7183080000000002,-9.730635,0.6038117,1003.134,0,0
29.64,1.6609516,-9.744934,0.55646765,1003.152,0,0
29.68,1.5653569,-9.716335,0.6132807,1003.1037,0,0
29.72,1.5749177,-9.725868,0.58013994,1003.1214,0,0
29.76,1.5557997,-9.764,0.58960885,1003.1315,0,0
29.8,1.6083788,-9.644836,0.5517338,1003.1189,0,0
29.84,1.5940405,-9.706801,0.60381234,1003.1012,0,0
29.88,1.6084136,-9.721102,0.5801434,1003.1088,0,0
29.92,1.6705534,-9.649604,0.62748766,1003.1111,0,0
29.96,1.7135743000000003,-9.730636,0.58014387,1003.12885,0,0
30.0,1.6657785,-9.72587,0.53279996,1003.134,0,0
30.04,1.7279185,-9.711569,0.65589476,1003.11865,0,0
30.08,1.6466644,-9.69727,0.6653638000000001,1003.1012,0,0
30.12,1.6323276000000002,-9.682971,0.6890361,1003.134,0,0
30.16,1.5606331,-9.687737,0.66536427,1003.1441,0,0
30.2,1.5654155,-9.730637,0.7269116999999999,1003.1087,0,0
30.24,1.4985005,-9.778301,0.67009914,1003.1212,0,0
30.28,1.498503,-9.797368,0.73164666,1003.13153,0,0
30.32,1.4746066,-9.71157,0.6937715999999999,1003.1063,0,0
30.36,1.4650495,-9.71157,0.6748341999999999,1003.12646,0,0
30.4,1.4937309,-9.72587,0.6843033000000001,1003.12146,0,0
30.44,1.5224118,-9.735402,0.7458507,1003.13135,0,0
30.48,1.531974,-9.716337,0.6843037,1003.1086,0,0
30.52,1.598894,-9.687737,0.6322255,1003.12897,0,0
30.56,1.6084561000000002,-9.69727,0.6701009,1003.1164,0,0
30.6,1.5893393,-9.716337,0.5754130999999999,1003.1164,0,0
30.64,1.5367639,-9.773537,0.6274918,1003.12897,0,0
30.68,1.4937483,-9.692504,0.7127113,1003.1338,0,0
30.72,1.388595,-9.730638,0.6795707,1003.12616,0,0
30.76,1.374258,-9.735403,0.65589887,1003.1288,0,0
30.8,1.488976,-9.682972,0.7269151999999999,1003.0883,0,0
30.84,1.6419322,-9.702038,0.73638415,1003.0984,0,0
30.88,1.7855868,-9.616245,0.06885698,1003.1338,0,0
30.92,1.5752872,-9.72111,0.92578536,1003.13885,0,0
30.96,1.7521558999999998,-9.659145,0.68433213,1003.1362,0,0
31.0,1.4558183,-9.65438,0.8642405000000001,1003.12866,0,0
31.04,1.7330588,-9.568582,0.7222094,1003.1514,0,0
31.08,1.580117,-9.706812,0.68433523,1003.13367,0,0
31.12,1.427176,-9.663914,0.8168996999999999,1003.1715,1,1
31.16,1.3411521,-9.663914,0.8169009,1003.14124,1,1
31.2,1.5275772,-9.578116,0.95893425,1003.13873,1,1
31.24,1.5610492,-9.530451,0.8926538,1003.13873,1,1
31.28,1.4224468,-9.554284,1.0204837,1003.13104,1,1
31.32,1.3842202,-9.654382,0.8642496,1003.1486,1,1
31.36,1.2838578,-9.544751,1.1009709,1003.13354,1,1
31.4,1.4559418,-9.601951,1.0630968,1003.11346,1,1
31.44,1.3030000000000002,-9.106229,1.4844598,1003.10345,1,1
31.48,1.1261616,-9.730648,2.383998,1003.10834,1,1
31.52,0.78680736,-9.854579,2.6017818,1003.0832,1,1
31.56,2.3067975,-9.835513,2.2940466,1003.121,1,1
31.6,1.9817835,-9.935611,2.8763797,1003.1313,1,1
31.64,1.40344,-10.483766,2.9521313,1003.101,1,1
31.68,1.2122598,-10.579097,2.0052514,1003.1186,1,1
31.72,2.0965362,-9.582887,1.6691096999999997,1003.13617,1,1
31.76,1.9866141,-8.715374,1.5034069,1003.0983,1,1
31.8,1.824115,-8.867904,1.4750017,1003.1134,1,1
31.84,1.6902908,-8.801172,0.46657446,1003.1588,1,1
31.88,3.157703,-9.120532,-0.11102185,1003.1563,1,1
31.92,5.5284967000000025,-11.4895115,-2.2699093999999995,1003.21674,1,1
31.96,6.7282405,-10.588632,0.16357587,1003.1513,1,1
32.0,3.5831432,-10.016646,-3.9222138,1003.1665,1,1
32.04,4.1232724,-7.53327,-0.0542044,1003.0932,1,1
32.08,0.14648862,-13.253138,3.3971777000000003,1003.0882,1,1
32.12,-0.790341,-18.11026,7.6107993,1003.1134,1,1
32.16,6.1595062999999985,-13.61063,-7.231559,1003.3707,1,1
32.2,6.451088,-11.947103,-1.4603181,1003.3405,1,1
32.24,2.1205976000000004,-8.4627495,1.3329818000000002,1003.3153,1,1
32.28,-0.68035483,-6.6323924,0.7080416,1003.3127,1,1
32.32,-1.6745414,-5.4788857,0.44291613,1003.3003,1,1
32.36,-1.7940238000000002,-4.916432,-0.035257574,1003.22186,1,1
32.4,-0.67553705,-6.274902,-0.9679342,1003.1235,1,1
32.44,3.6454175,-8.896507000000001,-4.2110004,1002.9973,1,1
32.48,16.479201999999994,-12.05197,-9.054295,1002.957,1,1
32.52,8.544741,-7.738235,-0.82589865,1003.01746,1,1
32.56,1.2746719,-16.890024,-1.5644646999999998,1002.94965,1,1
32.6,1.3798404,-8.472285000000001,-1.5313226999999998,1002.97974,1,1
32.64,2.555684,-8.415087,7.4498444,1002.8434,1,1
32.68,-2.4917762000000003,-6.956521,-4.9732327000000005,1003.03015,1,1
32.72,2.713443,-9.3112,5.4803343,1003.00995,1,1
32.76,1.676238,-10.159648,2.8858817,1003.11084,1,1
32.8,3.506915,-9.706825,-2.198868,1003.2244,1,1
32.84,2.4075727,-8.796413000000003,2.270411,1003.1513,1,1
32.88,1.8340087,-9.225404,0.5754954000000001,1003.13116,1,1
32.92,1.1696272,-9.554296,1.2903914,1003.09076,1,1
32.96,0.38097382,-11.074828,1.8679901,1003.12604,1,1
33.0,2.407393,-10.278809,-1.4934571,1003.19183,1,1
33.04,4.8068620000000015,-9.130069,-0.4802937,1003.1792,1,1
33.08,5.542961,-9.377929,0.6464954,1003.15125,1,1
33.12,6.8239554999999985,-9.1825,0.29141575,1003.13354,1,1
33.16,5.22273,-9.897484,-0.2435712,1003.1563,1,1
33.2,0.25174248,-8.939406,-3.6523418,1003.1916,1,1
33.24,-0.23100936,-13.806060999999998,4.405616,1003.1486,1,1
33.28,1.5279669,-15.250328,-0.3950699,1003.2244,1,1
33.32,8.334414500000001,-12.781252,-1.995298,1003.39343,1,1
33.36,4.391085,-11.970938,-0.88271207,1003.29254,1,1
33.4,0.3617192,-6.837356599999999,1.029988,1003.3077,1,1
33.44,-0.89058155,-5.6886163,0.1209832,1003.27234,1,1
33.48,-1.492828,-5.6743164,0.10678077,1003.27496,1,1
33.52,-1.8130672,-6.0747075,0.14465675,1003.242,1,1
33.56,-0.08276976,-7.7716017000000015,-2.0331686,1003.0807,1,1
33.6,7.3020353,-11.227356,-8.964336,1003.0376,1,1
33.64,14.366594,-10.907996,-1.4650385,1003.0807,1,1
33.68,8.903286999999997,-9.759256,-0.19148299,1003.17645,1,1
33.72,-1.3063668,-18.329525,-6.4408965,1003.0807,1,1
33.76,0.69159967,-7.876467699999999,5.60343,1002.86615,1,1
33.8,-1.7843311000000002,-5.359725,0.2393501,1002.8788,1,1
33.84,-0.9478564,-10.469474,2.966368,1002.88385,1,1
33.88,3.2010207000000004,-9.335033,4.812786599999999,1002.94934,1,1
33.92,0.1610737,-10.107218,-0.5228868,1003.09076,1,1
33.96,1.8340138,-11.317923,2.9758391,1003.0907,1,1
34.0,2.2073088,-9.721137,1.536623,1003.1134,1,1
34.04,1.9062077,-9.144385,1.0205754,1003.09076,1,1
34.08,1.9683701,-9.196816,1.4561429,1003.12604,1,1
34.12,1.6146911,-8.963257,1.1768154,1003.126,1,1
34.16,2.1165974,-8.791661,-1.8437324,1003.1563,1,1
34.2,5.2187166,-7.647688400000002,0.71284866,1003.14124,1,1
34.24,4.893715,-7.785918700000002,-1.5833354,1003.1386,1,1
34.28,8.115329,-8.396039,-1.0720173000000002,1003.1739,1,1
34.32,1.6004816000000002,-12.795571,-0.9773267,1003.22687,1,1
34.36,-3.2796698,-19.001627,4.2589273,1003.2043,1,1
34.4,0.16181232,-14.888091,4.1547728,1003.28503,1,1
34.44,7.685251700000001,-12.013858,-4.6512175,1003.4288,1,1
34.48,4.635763,-11.34654,-1.010458,1003.27234,1,1
34.52,0.2861688,-8.029017999999999,1.4467006000000002,1003.25726,1,1
34.56,-0.84661967,-6.265393,0.4572123,1003.2849,1,1
34.6,-2.3856900000000003,-5.6695733,-0.11091383,1003.2646,1,1
34.64,-1.305426,-5.6362085,0.09740259,1003.2118,1,1
34.68,0.2384757,-6.3988580000000015,-0.5843494,1003.0856,1,1
34.72,4.540325599999999,-7.7525606,-5.441846400000001,1003.00995,1,1
34.76,14.358069,-11.689737,-4.030991,1002.97217,1,1
34.8,9.286722,-11.275047,-8.509736,1003.0453,1,1
34.84,4.8702087,-11.8661,-3.8652823,1003.0654,1,1
34.88,1.4000995,-16.985382,-6.8432207,1003.0627,1,1
34.92,2.6763341,-8.386517,4.642448,1002.92896,1,1
34.96,-1.4438322,-2.8620772,4.7750134000000015,1002.8936,1,1
35.0,-0.2407058,-11.37988,0.012075622,1002.9595,1,1
35.04,3.0525498,-9.797383,7.0284605,1003.02014,1,1
35.08,0.18942003,-10.345536,-2.8617132,1003.1613,1,1
35.12,-0.84304494,-9.930844,2.4976304,1003.1334,1,1
35.16,1.3651953,-9.349324,2.7769578,1003.1411,1,1
35.2,2.5218785,-9.625785,1.4418528999999998,1003.17145,1,1
35.24,2.3354373,-9.439888,1.3092868,1003.1333,1,1
35.28,2.7416914,-9.273057,0.46182573,1003.11847,1,1
35.32,2.7799006,-9.320723,0.7032776999999999,1003.1207,1,1
35.36,1.3315908,-9.926075,0.66066545,1003.1005,1,1
35.4,1.9529363,-9.287354,2.606503,1003.09326,1,1
35.44,-0.040271185,-9.764009,2.0573094,1003.08044,0,0
35.48,-1.4790195,-9.911774,0.40499967,1003.11096,0,0
35.52,0.16998367,-9.959437,-0.5939623,1003.14606,0,0
35.56,0.7148521,-9.821207,0.69852746,1003.1235,0,0
35.6,0.8964574000000001,-10.078599,1.1530277,1003.1081,0,0
35.64,0.8008321,-10.016635,0.59436536,1003.12823,0,0
35.68,0.16509084,-10.054766,0.8026767,1003.1006,0,0
35.72,0.32757312,-9.840269,0.31976455,1003.11816,0,0
35.76,0.40880245,-9.702039,0.2676836,1003.0955,0,0
35.8,0.9106527,-9.525676,0.71271497,1003.12317,0,0
35.84,0.8723870000000001,-9.744937,0.60855556,1003.1033,0,0
35.88,0.848457,-10.01663,0.012017721,1003.1081,0,0
35.92,1.3837657,-9.916531,-0.52297264,1003.12823,0,0
35.96,1.7900218,-9.902231,-0.08267556,1003.126,0,0
36.0,1.4797864,-9.69728,-0.016352508,1003.0955,0,0
36.04,1.1021718,-9.682981,0.030990612,1003.1159,0,0
36.08,0.7914757,-9.792611,-0.0731671,1003.1409,0,0
36.12,0.41386098,-10.064303,-0.0021519624,1003.1033,0,0
36.16,0.3278144,-10.05477,0.13514486,1003.11084,0,0
36.2,0.5237762,-9.854575,0.18722236,1003.1131,0,0
36.24,0.89181036,-9.76401,0.15881497,1003.11835,0,0
36.28,1.1929284,-9.725878,0.22509573,1003.1209,0,0
36.32,1.3171932,-9.7020445,0.20615721,1003.126,0,0
36.36,1.40322,-9.74971,0.016780138,1003.1461,0,0
36.4,1.4844661,-9.649612,0.0073103774,1003.10077,0,0
36.44,1.3840812,-9.768775,0.049919177,1003.1308,0,0
36.48,1.2167773000000002,-9.84504,0.059386995,1003.1131,0,0
36.52,1.1498506000000002,-9.778308,0.06885494,1003.1159,0,0
36.56,0.9395291,-9.783074,0.09252602,1003.1159,0,0
36.6,0.82958406,-9.864107,0.17774446,1003.1131,0,0
36.64,1.4987458,-9.7115755,0.035711326,1003.1156,0,0
36.68,2.0675323,-9.659142999999998,0.04991361,1003.1386,0,0
36.72,2.354311,-9.592412,-0.10158822,1003.11816,0,0
36.76,2.4116588,-9.516146,-0.09212035,1003.1383,0,0
36.8,2.3447310000000003,-9.539978,0.040442053,1003.14874,0,0
36.84,1.952777,-9.678208,0.06884755,1003.1055,0,0
36.88,1.6181813,-9.668676,0.07831550400000001,1003.13354,0,0
36.92,1.498676,-9.706807,0.11618981,1003.11566,0,0
36.96,1.3600521,-9.77354,0.14932978,1003.09296,0,0
37.0,1.1360002,-9.773555,0.19199423,1003.1033,0,0
37.04,1.0738775,-9.80692,0.16358916,1003.1083,0,0
37.08,1.0165329,-9.840285,0.21566883,1003.103,0,0
37.12,1.0117671,-9.84982,0.319827,1003.12823,0,0
37.16,0.91140527,-9.940385,0.2630154000000001,1003.1156,0,0
37.2,0.78236276,-9.916552,0.3245638,1003.103,0,0
37.24,0.7059006999999999,-9.845055,0.31509632,1003.11566,0,0
37.28,0.81585014,-9.816455,0.28669120000000003,1003.1005,0,0
37.32,0.9449188,-9.806923,0.42399022,1003.14594,0,0
37.36,1.0978854999999998,-9.725891,0.33877215,1003.0977,0,0
37.4,1.2030551,-9.778323,0.21567887,1003.11316,0,0
37.44,1.2652056,-9.792624,0.120991975,1003.1257,0,0
37.48,1.5137703000000002,-9.744959,0.10205571,1003.1206,0,0
37.52,1.7145351999999998,-9.606729,0.25355783,1003.1281,0,0
37.56,1.6954291,-9.654395,0.05944846,1003.1081,0,0
37.6,2.0013514,-9.611496,0.059449814,1003.12317,0,0
37.64,1.9009885,-9.611496,0.18727994,1003.103,0,0
37.68,1.7002506000000002,-9.697295,0.18254681,1003.1003,0,0
37.72,1.5903292,-9.75926,0.1967513,1003.103,0,0
37.76,1.2366377,-9.764027,0.34825355,1003.0977,0,0
37.8,0.8542674000000001,-9.878426,0.48555255,1003.0804,0,0
37.84,0.5435932,-9.897491,0.49028814,1003.1131,0,0
37.88,0.2568189,-9.916557,0.60864955,1003.1028,0,0
37.92,0.44802415,-9.926092,0.38613373,1003.11035,0,0
37.96,0.78262526,-9.849827,0.3908695,1003.1003,0,0
38.0,1.1412516,-9.887962,0.13522455,1003.103,0,0
38.04,1.3420223999999998,-9.907029,0.007397374,1003.12067,0,0
38.08,1.3611606,-9.7688,0.03580554,1003.1281,0,0
38.12,1.3468378,-9.7688,0.059479088,1003.1307,0,0
38.16,1.4376755,-9.725902,0.073684245,1003.10785,0,0
38.2,1.3038588,-9.787868,0.10682671,1003.1307,0,0
38.24,1.3564533,-9.783101,0.15417227,1003.08264,0,0
38.28,1.4186121,-9.678237,0.14470543,1003.1028,0,0
38.32,1.3756118,-9.716372,0.18258229,1003.11035,0,0
38.36,1.4090905,-9.754503,0.12577128,1003.1154,0,0
38.4,1.5190438,-9.783103,0.17785136,1003.0953,0,0
38.44,1.4760447,-9.78787,0.2914788,1003.1256,0,0
38.48,1.366127,-9.81647,0.2346676,1003.10535,0,0
38.52,1.05546,-9.749738,0.3672328,1003.1204,0,0
38.56,0.9359816,-9.878437,0.59922016,1003.1255,0,0
38.6,0.9168826,-9.7068405,0.72705096,1003.11304,0,0
38.64,0.98381764,-9.711607,0.55187964,1003.12067,0,0
38.68,1.1845895,-9.783106,0.34356764,1003.09784,0,0
38.72,1.050774,-9.826006,0.2062716,1003.0902,0,0
38.76,1.1368283,-9.811707,0.27728933,1003.08514,0,0
38.8,1.0603704,-9.759275,0.3009631,1003.0953,0,0
38.84,1.0317106,-9.802175,0.3767153,1003.11304,0,0
38.88,1.0221689,-9.8117075,0.35777935,1003.10785,0,0
38.92,0.9504897,-9.930872,0.24415524,1003.0927,0,0
38.96,1.1895001,-9.787877,0.4430021,1003.10034,0,0
39.0,1.2078993,-9.73066,0.23935677,1003.0878,0,0
39.04,1.3369439,-9.754493,0.2914343,1003.1002,0,0
39.08,1.1266223,-9.744959,0.34824622,1003.0977,0,0
39.12,1.2795671,-9.81169,0.37665182,1003.1231,0,0
39.16,1.0835844,-9.82599,0.24882193,1003.128,0,0
39.2,0.8684837,-9.897488,0.29143070000000004,1003.1154,0,0
39.24,0.9688489,-9.787857,0.3577114,1003.1104,0,0
39.28,1.1026744,-9.740191,0.27722567,1003.12054,0,0
39.32,1.0644252,-9.744958,0.16833337,1003.1028,0,0
39.36,1.1026535,-9.8545885,0.23461412,1003.128,0,0
39.4,1.0357261,-9.773557,0.23934759,1003.10535,0,0
39.44,1.0643948,-9.835522,0.20620583,1003.1052,0,0
39.48,1.0165871,-9.797389,0.0499696,1003.1256,0,0
39.52,1.0070188,-9.75449,0.19200091,1003.14307,0,0
39.56,1.3272540000000002,-9.797388,0.3198288,1003.11035,0,0
39.6,1.2173085,-9.892719,0.08784208,1003.10803,0,0
39.64,1.1695004,-9.768788,0.19199803,1003.1028,0,0
39.68,1.1838303,-9.825986,0.12098108,1003.1279,0,0
39.72,1.1647009,-9.764021,0.12571457,1003.11273,0,0
39.76,1.102554,-9.77832,0.258277,1003.09753,0,0
39.8,1.1264421,-9.702056,0.18252558,1003.1231,0,0
39.84,1.2220286,-9.740188,0.25354075,1003.10004,0,0
39.88,1.1455423,-9.783086,0.1588518,1003.1078,0,0
39.92,1.1694306,-9.840284,0.1588508,1003.09796,0,0
39.96,1.1503018,-9.787853,0.16358432,1003.12036,0,0
40.0,1.2124304,-9.8212185,0.20619318,1003.12067,0,0
40.04,1.2219785,-9.816451,0.25827056,1003.1254,0,0
40.08,1.1263729,-9.797385,0.17778483,1003.1228,0,0
40.12,1.1072437,-9.797385,0.23459674,1003.1255,0,0
40.16,1.0976745,-9.797384,0.21565828,1003.1054,0,0
40.2,1.0976636,-9.778317,0.18725084,1003.08264,0,0
40.24,1.1597916,-9.778317,0.1919844,1003.10004,0,0
40.28,1.1167632,-9.81645,0.2345931,1003.11273,0,0
40.32,1.1502117,-9.806917,0.21565454,1003.09015,0,0
40.36,1.0495067,-9.802142,0.15407714,1003.08997,0,0
40.4,1.2120004999999998,-9.778308,0.18248181,1003.11273,0,0
40.44,1.0494689,-9.883173,0.1682769,1003.1177,0,0
40.48,1.0924677,-9.806908,0.16354074,1003.1002,0,0
40.52,1.197604,-9.792607,0.10199168,1003.1253,0,0
40.56,1.1736866,-9.806907,0.13513084,1003.1202,0,0
40.6,1.1402086,-9.78784,0.17773871,1003.1231,0,0
40.64,1.235784,-9.778305,0.13512716,1003.12286,0,0
40.68,1.2118666,-9.768772,0.16353193,1003.08997,0,0
40.72,1.2548666000000002,-9.792604,0.17299905,1003.1255,0,0
40.76,1.2166075,-9.7830715,0.059371475,1003.11273,0,0
40.8,1.2500479,-9.749704,0.1635267,1003.1278,0,0
40.84,1.2404687,-9.830736,0.11618085,1003.1303,0,0
40.88,1.3551645,-9.75447,0.17772634,1003.10254,0,0
40.92,1.3216864,-9.792603,0.14458372,1003.12286,0,0
40.96,1.2404115,-9.754469,0.08303477599999999,1003.09247,0,0
41.0,1.1400161,-9.783069,0.05936099,1003.10785,0,0
41.04,0.9296853,-9.916531,0.20139132,1003.1152,0,0
41.08,0.8675285,-9.806901,0.1303735,1003.11035,0,0
41.12,1.1017206,-9.764,0.39549848,1003.13293,0,0
41.16,1.3550307,-9.7354,0.22505812,1003.1253,0,0
41.2,1.5892216,-9.682968,0.30554125,1003.105,0,0
41.24,1.6178823,-9.692501,0.24872668,1003.105,0,0
41.28,1.3454138,-9.735398,0.12563039999999998,1003.08746,0,0
41.32,1.1159625,-9.783065,0.20611337,1003.08496,0,0
41.36,1.0358788,-9.663929,0.38139373,1003.0824,0,0
41.4,0.94987184,-9.725895,0.3435212,1003.1077,0,0
41.44,0.73958844,-9.740196,0.28671086,1003.1077,1,2
41.48,0.7109358,-9.978523,0.078399464,1003.1204,1,2
41.52,0.94517225,-9.616266,0.24410602,1003.1204,1,2
41.56,1.3753806,-9.754498,0.17309234,1003.1202,1,2
41.6,1.7291157,-9.549536,0.026328504,1003.1277,1,2
41.64,1.9968127,-9.601969,-0.10149787,1003.1581,1,2
41.68,2.5321789,-9.621036,-0.9300161,1003.1531,1,2
41.72,2.7329566,-9.783099,-1.2661563999999998,1003.1631,1,2
41.76,2.6804082,-9.90703,-1.9289705,1003.148,1,2
41.8,2.3840866000000003,-9.616271,-3.3492894,1003.1658,1,2
41.84,1.3707944,-9.10625,-3.5386631,1003.13513,1,2
41.88,1.4711981,-12.352276,-3.808522,1003.1958,1,2
41.92,3.722514,-12.194981,0.95429194,1003.27405,1,2
41.96,-4.914564,-13.319889000000002,-8.1973095,1003.4683,1,2
42.0,4.9557585999999985,-8.019478,2.114226,1003.3321,1,2
42.04,4.8793063,-9.034755,-2.0520477,1003.26654,1,2
42.08,2.240884,-6.1414557,0.14471878,1003.2111,1,2
42.12,2.5037994,-5.049915,0.106845915,1003.1606,1,2
42.16,2.1071057,-4.74009,-5.129403,1003.1983,1,2
42.2,2.5038571,-5.502739,-4.513928,1003.3168,1,2
42.24,12.13997,-8.634367,-1.9857532,1003.1958,1,2
42.28,9.993864,-11.837495,-1.8342499,1003.04706,1,2
42.32,-1.8170037,-16.079729999999998,-1.0341328,1002.91833,1,2
42.36,-2.3092973,-10.469494,-3.5480993,1002.89557,1,2
42.4,0.78804356,-7.943219,5.8781032999999985,1002.8881,1,2
42.44,1.1608961000000002,-9.187291,1.8538616,1002.9789,1,2
42.48,1.9017917,-9.773579,2.8812299,1002.989,1,2
42.52,2.9246979,-10.536229,-0.06356743,1003.09247,1,2
42.56,3.5269792,-7.6667619999999985,2.545092,1003.10254,1,2
42.6,2.647525,-8.629607,3.0564106,1003.0493,1,2
42.64,3.3119473,-9.44469,0.3199272,1003.0395,1,2
42.68,3.010846,-9.03,1.3614986,1003.0493,1,2
42.72,2.059691,-9.897513,0.7791691999999999,1003.07733,1,2
42.76,5.0566559999999985,-9.892748,1.7449903000000002,1003.0872,1,2
42.8,2.877093,-9.254029,1.1531923000000002,1003.12756,1,2
42.84,0.56847405,-9.010936,1.2620858999999998,1003.18835,1,2
42.88,3.9000256,-10.378939,-0.17243612,1003.17566,1,2
42.92,4.587416,-10.96997,-0.9252888,1003.16034,1,2
42.96,1.3514935,-9.6401005,-3.6617742,1003.18304,1,2
43.0,0.046611115,-11.327461,0.7317535,1003.13776,1,2
43.04,1.102951,-11.584855,-0.04468852,1003.10754,1,2
43.08,4.39146,-11.503824,0.9732089,1003.20575,1,2
43.12,6.2699275000000005,-12.614432,-1.1762105,1003.3849,1,2
43.16,2.9145093,-9.3398075,-1.1714758,1003.4557,1,2
43.2,2.6516242,-6.4369745,-0.5417995,1003.40753,1,2
43.24,-0.2831713,-6.832598700000001,-0.8021913,1003.3548,1,2
43.28,-0.60819435,-5.48843,0.42401978,1003.2842,1,2
43.32,-0.66554797,-6.027051,-0.08729555,1003.0822,1,2
43.36,4.052122,-8.643889999999999,-2.95161,1002.9536,1,2
43.4,16.905018,-12.862293,-8.95957,1002.97363,1,2
43.44,9.319474,-7.0232615,-1.5975696,1003.1048,1,2
43.48,3.0149171000000003,-12.871827,-3.997912,1003.17316,1,2
43.52,0.16615789,-13.076789,-1.7822108,1002.94086,1,2
43.56,5.705954,-6.923164,3.6860273,1002.8527,1,2
43.6,0.061010033,-8.610525,-0.18671553,1002.89307,1,2
43.64,2.3696594,-9.377941,2.3840666,1002.941,1,2
43.68,5.1658483,-8.915585499999997,2.1426125,1003.0016,1,2
43.72,1.8821276,-10.150124,-0.22458960000000008,1003.1302,1,2
43.76,2.2119381,-9.597203,2.5876472,1003.10254,1,2
43.8,0.8114594,-9.392241,0.3719461,1003.11237,1,2
43.84,1.0791323999999998,-9.468506,0.18730468,1003.1429,1,2
43.88,2.1211338,-8.429397999999999,1.2714837,1003.1126,1,2
43.92,1.7820827,-8.78213,1.9059228,1003.07983,1,2
43.96,2.5134094,-9.868905,1.3519989,1003.095,1,2
44.0,3.0009646,-10.397993,1.4466883999999998,1003.1073,1,2
44.04,2.695073,-10.259764,0.106853336,1003.17303,1,2
44.08,1.8968629,-10.455193,1.2525809,1003.1376,1,2
44.12,4.262881299999999,-9.044292,0.921174,1003.0923,1,2
44.16,5.40527,-10.660156,-1.1524938,1003.10986,1,2
44.2,4.6787567,-9.840308,-2.5349383,1003.11237,1,2
44.24,4.8747454,-7.9479856,-3.3871295,1003.13513,1,2
44.28,4.0048366,-11.723099,2.9759114,1003.09467,1,2
44.32,-0.048420362,-15.879537,7.350503,1003.0696,1,2
44.36,7.7331166,-10.197802,-5.228809,1003.3369,1,2
44.4,7.3077292,-11.15588,0.84069943,1003.2889,1,2
44.44,3.5986195,-9.482819,3.0848088,1003.28394,1,2
44.48,1.5624383999999998,-7.8145247000000015,2.9948566000000003,1003.33685,1,2
44.52,0.25756842,-9.020464,1.063221,1003.29913,1,2
44.56,0.58261263,-8.620073,0.6655326,1003.1754,1,2
44.6,1.8253759,-9.573385,-0.12511167,1003.1073,1,2
44.64,2.0787222,-11.24168,-4.3529339999999985,1003.02405,1,2
44.68,3.460102,-7.5380660000000015,-1.5122892,1003.0998,1,2
44.72,7.269622,-8.048086999999999,-0.25293604,1003.0944,1,2
44.76,9.908091,-7.571433,-0.039886344,1003.0444,1,2
44.8,3.0395277000000003,-8.281651,1.2005291,1003.0468,1,2
44.84,-0.90857387,-14.1492815,-0.7973880999999999,1002.9105,1,2
44.88,0.8695286,-13.877589000000002,-3.7800615,1002.9031,1,2
44.92,6.21767,-7.2615967,3.3120346,1002.95844,1,2
44.96,1.8441473,-8.601,1.9343224,1002.92065,1,2
45.0,2.4129417,-9.959468,1.6739299,1002.956,1,2
45.04,0.26202738,-10.069098,2.668155,1002.9635,1,2
45.08,-0.74651325,-10.173962,3.5298164,1003.0191,1,2
45.12,0.78780067,-9.70684,3.0611103,1003.0719,1,2
45.16,0.36239564,-8.672497,1.0868629,1003.1301,1,2
45.2,-0.38325614,-8.438935,1.9390556,1003.12756,1,2
45.24,2.2551928,-9.964233,1.3661923,1003.054,1,2
45.28,1.6290360000000002,-10.23116,1.6360531,1003.1023,1,2
45.32,1.7294095,-11.027176,-0.51336676,1003.1301,1,2
45.36,3.2971828000000003,-9.315982,2.0432115,1003.15027,1,2
45.4,2.962594,-9.029988,3.0800462000000004,1003.1023,1,2
45.44,1.6720444,-9.573376,2.0952897,1003.12,1,2
45.48,1.7963169,-9.49711,1.8680378,1003.0795,1,2
45.52,1.8536719,-9.644874,1.2052208999999998,1003.12256,1,2
45.56,2.6996946,-9.482811,1.2857056,1003.11237,1,2
45.6,3.311507,-9.840302,0.5755446999999999,1003.0694,1,2
45.64,3.5982928,-9.449445,0.89748406,1003.07965,1,2
45.68,3.889858,-9.072886,0.82173324,1003.08716,1,2
45.72,2.3650985,-11.213071,-0.97260636,1003.1427,1,2
45.76,2.4702516,-10.9080105,-0.7074799,1003.1704,1,2
45.8,3.6269617,-9.478044,-1.772721,1003.15027,1,2
45.84,1.9827067,-9.301681,-2.3787253,1003.1276,1,2
45.88,1.3613296,-9.349347,-1.5360013,1003.12714,1,2
45.92,-1.195265,-12.933812,-0.39968932,1003.1276,1,2
45.96,-0.028969899,-10.340806,-2.7242796,1003.24365,1,2
46.0,3.5272257000000007,-9.1539345,-2.643793,1003.2132,1,2
46.04,1.629657,-8.143425,-1.8957559,1003.12506,1,2
46.08,0.02366589,-6.413164,-0.58905804,1003.0392,1,2
46.12,-0.16749927,-8.000428,-0.30025688,1002.9989,1,2
46.16,0.9318759,-10.798399,-3.56226,1003.0389,1,2
46.2,2.8581540000000003,-11.756477,-8.855322,1003.0515,1,2
46.24,5.338893,-11.170191,-5.186157,1003.0342,1,2
46.28,0.8267834000000001,-8.47232,1.9769994,1003.01874,1,2
46.32,1.084909,-8.615317,-1.9572896,1003.13495,1,2
46.36,3.7472866,-8.920378,-1.5643313,1003.0997,1,2
46.4,3.8859174,-8.448488000000001,2.8860106,1003.0717,0,0
46.44,2.4711208,-9.115808,-2.0140958,1002.9888,0,0
46.48,2.3659854,-9.835558,-3.8794494,1003.00146,0,0
46.52,-1.0754503999999998,-11.370389,0.19214053,1003.12476,0,0
46.56,1.5008854,-9.721162,1.4467597,1003.04144,0,0
46.6,3.0352228,-9.935657,-3.3018463,1003.0467,0,0
46.64,2.0697240000000003,-9.5734,-0.30023172,1003.15515,0,0
46.68,1.7638392,-9.29694,1.3615464,1003.0771,0,0
46.72,1.3527963,-9.759296,-1.0529982,1003.0995,0,0
46.76,0.7314435,-9.983325,0.11640179,1003.09467,0,0
46.8,1.3480597,-9.878461,-0.31916147,1003.0944,0,0
46.84,1.4436761,-9.811729,-0.039829742,1003.0995,0,0
46.88,1.0947719,-9.778364,0.29158056,1003.082,0,0
46.92,0.97941095,-9.673484,0.08320765,1003.1224,0,0
46.96,0.95550686,-9.792648,0.18736407,1003.0771,0,0
47.0,1.0893362,-9.768815,0.26784852,1003.09467,0,0
47.04,1.1132292,-9.883213,0.13528463,1003.09467,0,0
47.08,0.9650505,-9.907045,0.2394411,1003.10474,0,0
47.12,0.8790087,-9.854612,0.29151905,1003.1224,0,0
47.16,0.8837841000000001,-9.80218,0.40041,1003.0794,0,0
47.2,0.9124592,-9.826013,0.35306558,1003.1098,0,0
47.24,1.0223882,-9.81648,0.30098653,1003.0795,0,0
47.28,0.94590634,-9.81648,0.2678452,1003.0846,0,0
47.32,0.96024054,-9.821247,0.31045443,1003.10956,0,0
47.36,0.9841363,-9.892745,0.24417244,1003.12714,0,0
47.4,1.0128085999999998,-9.792647,0.34832874,1003.0845,0,0
47.44,0.90764767,-9.883212,0.32939065,1003.0971,0,0
47.48,0.8741841999999999,-9.849845,0.37199983,1003.12714,0,0
47.52,0.8789589,-9.816479,0.5566412,1003.0896,0,0
47.56,0.8454956,-9.859378,0.37199894,1003.09216,0,0
47.6,0.9363068,-9.754514,0.5045618,1003.11725,0,0
47.64,1.0271188,-9.830778,0.3767325,1003.1199,0,0
47.68,1.2278663,-9.754514,0.49035782,1003.087,0,0
47.72,1.2374191,-9.749746,0.37199712,1003.09955,0,0
47.76,1.3234518,-9.740214,0.26310542,1003.11224,0,0
47.8,1.3473461000000002,-9.783112,0.21576095,1003.10974,0,0
47.84,1.2995421,-9.725913,0.386199,1003.10223,0,0
47.88,0.9458315,-9.821245,0.33412006,1003.0869,0,0
47.92,0.9262926,-9.764035,0.37195688,1003.0844,0,0
47.96,0.90715986,-9.816467,0.4997846,1003.082,0,0
48.0,0.749398,-9.9117985,0.51398516,1003.07684,0,0
48.04,0.54862607,-9.9117985,0.4477017,1003.07434,0,0
48.08,0.7350169,-9.816465,0.57079417,1003.09973,0,0
48.12,0.92618877,-9.7259,0.58026123,1003.07434,0,0
48.16,1.1603816,-9.635336,0.561322,1003.1073,0,0
48.2,1.1651344,-9.821231,0.40981853,1003.09973,0,0
48.24,1.1985728,-9.740199,0.3482694000000001,1003.1047,0,0
48.28,1.0647221000000002,-9.845062,0.34826794,1003.0846,0,0
48.32,1.0216837,-9.849829,0.30092204,1003.0794,0,0
48.36,1.002536,-9.892727,0.2677786,1003.10474,0,0
48.4,0.94037706,-9.821229,0.36246476,1003.10223,0,0
48.44,0.93558246,-9.792628,0.34352574,1003.1299,0,0
48.48,1.0359328,-9.797395,0.27724177,1003.10956,0,0
48.52,1.0502493,-9.754495,0.22516118,1003.1148,0,0
48.56,1.1840649,-9.730661,0.19201864,1003.10706,0,0
48.6,1.3513405,-9.744961,0.14940739,1003.10474,0,0
48.64,1.2748379,-9.892723,0.31037486,1003.07434,0,0
48.68,1.1696649,-9.77356,0.27723238,1003.11224,0,0
48.72,1.0836082,-9.82599,0.2724961,1003.1022,0,0
48.76,0.9927704,-9.749724,0.25829092,1003.1148,0,0
48.8,1.2795368,-9.597195,0.16360085,1003.0895,0,0
48.84,1.6380006,-9.673459,-0.035246115,1003.0921,0,0
48.88,1.786153,-9.926086,-0.0021072552,1003.12476,0,0
48.92,1.7583675,-9.716379,0.045318563,1003.1223,0,0
48.96,1.3043003999999998,-9.611516,0.03111666,1003.0971,0,0
49.0,0.7737584,-9.711614,0.4051361,1003.11475,0,0
49.04,0.5921411,-9.964241,0.3814655,1003.10974,0,0
49.08,0.66863227,-9.969008,0.2725755,1003.12476,0,0
49.12,0.99845475,-9.830778,0.13527922,1003.0997,0,0
49.16,1.3139361,-9.716382,0.04059243,1003.0971,0,0
49.2,1.6294175,-9.7211485,0.18736027,1003.10474,0,0
49.24,1.5529559,-9.7211485,0.07847035,1003.1072,0,0
49.28,1.5099537,-9.716383,-0.011481833,1003.0946,0,0
49.32,1.4717295,-9.778348,0.092676364,1003.102,0,0
49.36,1.2709931,-9.759283,0.20630346,1003.1047,0,0
49.4,1.3761659,-9.725917,0.2773211,1003.09973,0,0
49.44,1.3379407,-9.797416,0.21104068,1003.0846,0,0
49.48,1.2089003,-9.797416,0.29626125,1003.1097,0,0
49.52,1.1515579,-9.783116,0.27732503,1003.1022,0,0
49.56,1.1706903999999998,-9.802183,0.25838864,1003.1377,0,0
49.6,1.1707076,-9.735452,0.267859,1003.0921,0,0
49.64,1.1563823999999998,-9.740219,0.31520435,1003.0896,0,0
49.68,1.1611774,-9.759286,0.26786172,1003.0845,0,0
49.72,1.0751562,-9.797418,0.25839427,1003.1022,0,0
49.76,1.0608319,-9.8069515,0.22998923,1003.0972,0,0
49.8,1.0226089,-9.830785,0.23472506,1003.1072,0,0
49.84,0.9509261,-9.835552,0.25839838,1003.1022,0,0
49.88,0.9748394,-9.845086,0.2678685,1003.09467,0,0
49.92,1.0025860999999998,-9.806931,0.21570475,1003.0921,0,0
49.96,0.96910626,-9.8164625,0.22043717,1003.09955,0,0
50.0,1.0360006,-9.835528,0.21096627,1003.09467,0,0
50.04,1.0407575,-9.773563,0.21569863,1003.0895,0,0
50.08,1.093314,-9.825994,0.22516544,1003.09973,0,0
50.12,1.107632,-9.787862,0.2488355,1003.10474,0,0
50.16,1.1601857,-9.821227,0.18255164,1003.0971,0,0
50.2,1.1362638,-9.868891,0.19675274,1003.10974,0,0
50.24,1.093224,-9.802159,0.20621961,1003.1072,0,0
50.28,1.1362209,-9.764026,0.22515525,1003.0819,0,0
50.32,1.2270131000000002,-9.768792,0.21094985,1003.1274,0,0
50.36,1.1600729,-9.892722,0.10205644,1003.10223,0,0
50.4,1.2030711,-9.873655,0.13519546,1003.1199,0,0
50.44,1.3177623,-9.730659,0.2204125,1003.097,0,0
50.48,1.1026483,-9.773557,0.23934802,1003.09955,0,0
50.52,1.0787277,-9.749723,0.21093966,1003.1249,0,0
50.56,1.2412181999999998,-9.730657,0.25354722,1003.0946,0,0
50.6,1.1217003,-9.840286,0.16832583,1003.0971,0,0
50.64,1.2029341,-9.787854,0.13518292,1003.1097,0,0
50.68,1.1551148,-9.854585,0.09257129,1003.09955,0,0
50.72,1.1981087,-9.773554,0.26300764,1003.09955,0,0
50.76,1.1980873,-9.773553,0.2819433,1003.09467,0,0
50.8,1.1263689,-9.811685,0.24880052,1003.0921,0,0
50.84,1.1359056,-9.7687845,0.24879843,1003.08185,0,0
50.88,1.1693414,-9.744952,0.18251468,1003.0921,0,0
50.92,1.1613653999999998,-9.797421,0.27261332,1003.11725,0,0
50.96,1.1470704,-9.811724,0.21107012,1003.1097,0,0
51.0,1.1662315,-9.749759,0.15899549999999998,1003.0895,0,0
51.04,1.1328094,-9.73546,0.15426445,1003.0921,0,0
51.08,1.2332299,-9.754528,0.17794053,1003.09955,0,0
51.12,1.2476112,-9.802195,0.15427233,1003.12744,0,0
51.16,1.25721,-9.8117285,0.20161998,1003.11224,0,0
51.2,1.204674,-9.8021965,0.16848297,1003.102,0,0
51.24,1.2142781,-9.749764,0.21109672,1003.0921,0,0
51.28,1.1569597,-9.787899,0.23003791,1003.1225,0,0
51.32,1.2430378999999998,-9.806966,0.1779633,1003.1047,0,0
51.36,1.2287378,-9.792667,0.11641964,1003.0895,0,0
51.4,1.2383367,-9.745003,0.116423234,1003.1047,0,0
51.44,1.2001426000000002,-9.754538,0.14009932,1003.12744,0,0
51.48,1.200182,-9.783136,0.14483732,1003.0896,0,0
51.52,1.1954466,-9.797438,0.14957578,1003.0869,0,0
51.56,1.2193823,-9.792673,0.16851676,1003.1022,0,0
51.6,1.1764059,-9.826039,0.12591094,1003.1097,0,0
51.64,1.2385879,-9.811741,0.10697739,1003.1324,0,0
51.68,1.2099508999999995,-9.792676,0.10224682,1003.1073,0,0
51.72,1.3055887,-9.816509,0.059641004,1003.1223,0,0
51.76,1.2960658,-9.787911,0.11172281,1003.11475,0,0
51.8,1.2722087,-9.787912,0.11646104,1003.1098,0,0
51.84,1.3487273000000002,-9.773613,0.14013689999999998,1003.0946,0,0
51.88,1.2627327,-9.749781,0.0833279,1003.0971,0,0
51.92,1.3153524,-9.792682,0.14014457,1003.12994,0,0
51.96,1.344073,-9.768849,0.11647639,1003.09955,0,0
52.0,1.3297755,-9.730719,0.08333938,1003.09955,0,0
52.04,1.3202553,-9.768851,0.059670955,1003.09955,0,0
52.08,1.3330449,-9.826012,0.08793552,1003.0942,0,0
52.12,1.3091326,-9.797413,0.03585587,1003.0844,0,0
52.16,1.3425769,-9.768813,0.06426096,1003.1198,0,0
52.2,1.2947663,-9.740213,0.111603856,1003.0971,0,0
52.24,1.3138729,-9.735446,0.08319631,1003.1047,0,0
52.28,1.2995194,-9.806945,0.1021326,1003.11475,0,0
52.32,1.3186253,-9.787878,0.17788187,1003.10223,0,0
52.36,1.3138329,-9.744979,0.16841191,1003.0946,0,0
52.4,1.3185995,-9.735445,0.10686341,1003.1224,0,0
52.44,1.2994667,-9.78311,0.116331026,1003.1097,0,0
52.48,1.3376918,-9.821243,0.18261145,1003.0971,0,0
52.52,1.3328987,-9.778343,0.17314142,1003.0795,0,0
52.56,1.2707494,-9.792643,0.14946832,1003.0946,0,0
52.6,1.2563968,-9.759276,0.111591876,1003.11224,0,0
52.64,1.2611623,-9.806942,0.17787224,1003.1223,0,0
52.68,1.328067,-9.754509,0.22521512,1003.1047,0,0
52.72,1.2467971000000002,-9.749742,0.17313544,1003.07434,0,0
52.76,1.2324442,-9.792642,0.17786862,1003.0946,0,0
52.8,1.2419904,-9.845073,0.19207062,1003.0745,0,0
52.84,1.2419779,-9.7592745,0.2204759,1003.1148,0,0
52.88,1.2467452,-9.740209,0.20153713,1003.07935,0,0
52.92,1.2371722,-9.754507,0.15419185,1003.1047,0,0
52.96,1.232379,-9.783106,0.15892506,1003.0972,0,0
53.0,1.2753831,-9.845072,0.16365816,1003.087,0,0
53.04,1.2992696,-9.783105,0.17786023,1003.0895,0,0
53.08,1.2381046,-9.778362,0.2158245,1003.1223,0,0
53.12,1.2381301000000002,-9.797429,0.17321715,1003.1022,0,0
53.16,1.2285943,-9.735465,0.23003218,1003.0921,0,0
53.2,1.2572968999999998,-9.778364,0.12114306,1003.1148,0,0
53.24,1.2573237,-9.797431,0.17795838,1003.11475,0,0
53.28,1.2286688,-9.764066,0.16849175,1003.1223,0,0
53.32,1.2239158,-9.830798,0.11168137,1003.1022,0,0
53.36,1.3338768,-9.773601,0.106949285,1003.10474,0,0
53.4,1.2765445,-9.725936,0.1779677,1003.0845,0,0
53.44,1.2622273000000002,-9.768835,0.23004813,1003.11224,0,0
53.48,1.2240142,-9.816502,0.21111286,1003.09955,0,0
53.52,1.2288194,-9.826035,0.17323993,1003.1098,0,0
53.56,1.1906063999999998,-9.787904,0.18271108,1003.1223,0,0
53.6,1.3005673,-9.773604,0.16377579,1003.1097,0,0
53.64,1.1906553999999998,-9.802204,0.18744998,1003.0921,0,0
53.68,1.1667819,-9.740239,0.19692111,1003.1249,0,0
53.72,1.1285686,-9.787907,0.15431377,1003.1097,0,0
53.76,1.205071,-9.8069725,0.17798813,1003.11975,0,0
53.8,1.2050948,-9.816506,0.21586555,1003.11725,0,0
53.84,1.1860025,-9.764074,0.16852397,1003.1097,0,0
53.88,1.1286703000000002,-9.792675,0.14958869,1003.0791,0,0
53.92,1.176492,-9.768843,0.13538766,1003.11725,0,0
53.96,1.2099744,-9.797442,0.2300779,1003.1047,0,0
54.0,1.1717614,-9.806976,0.15906417,1003.1022,0,0
54.04,1.2434853,-9.773611,0.17326982,1003.0869,0,0
54.08,1.2474816999999998,-9.773592,0.17319812,1003.0945,0,0
54.12,1.2426956,-9.787891,0.18740074,1003.11475,0,0
54.16,1.2283498,-9.773591,0.1826658,1003.1148,0,0
54.2,1.1327473999999995,-9.873689,0.19213401,1003.1097,0,0
54.24,1.1375216,-9.792658,0.23000874,1003.09955,0,0
54.28,1.1566341,-9.759292,0.27735218,1003.0946,0,0
54.32,1.1805267,-9.802191,0.18266349,1003.1093,0,0
54.36,1.2139791000000002,-9.845089,0.1921317,1003.0971,0,0
54.4,1.2235327,-9.868921,0.19686557,1003.0665,0,0
54.44,1.2378658,-9.740224,0.19213058,1003.0895,0,0
54.48,1.2044008,-9.783123,0.2962869,1003.08185,0,0
54.52,1.1183579,-9.77359,0.1542542,1003.11224,0,0
54.56,1.2378464,-9.816489,0.20633203,1003.102,0,0
54.6,1.2139418,-9.783123,0.18265952,1003.1097,0,0
54.64,1.2473947,-9.735456,0.17319013,1003.1225,0,0
54.68,1.2760669,-9.768823,0.14004871,1003.0895,0,0
54.72,1.3286383999999998,-9.783122,0.1873922,1003.09955,0,0
54.76,1.323852,-9.7878895,0.15425076,1003.0869,0,0
54.8,1.3764238000000002,-9.802189,0.10217175,1003.1022,0,0
54.84,1.4242156,-9.821255,0.04062391,1003.11475,0,0
54.88,1.419429,-9.821255,0.035888914,1003.0971,0,0
54.92,1.2999284,-9.764055,0.15424848,1003.0921,0,0
54.96,1.09917,-9.7974205,0.13057588,1003.1147,0,0
55.0,1.1374024,-9.821255,0.040621616,1003.0971,0,0
55.04,1.161295,-9.768822,0.087965086,1003.1223,0,0
55.08,1.1603831,-9.773566,0.13522567,1003.10706,0,0
55.12,1.3467562,-9.744966,0.13995647,1003.08154,0,0
55.16,1.2893567,-9.797397,0.0926086,1003.09424,0,0
55.2,1.4422686000000002,-9.768796,0.08313596,1003.11975,0,0
55.24,1.4422294,-9.740196,0.17308606,1003.11224,0,0
55.28,1.4517471000000002,-9.811693,0.04525327,1003.1147,0,0
55.32,1.356109,-9.682996,0.11153111,1003.1123,0,0
55.36,1.3273883,-9.764026,0.0026359893,1003.0972,0,0
55.4,1.3894864,-9.7306595,-0.0021020137,1003.1249,0,0
55.44,1.332087,-9.740191,-0.03524668,1003.1123,0,0
55.48,1.3320452,-9.768788,0.0073591490000000015,1003.1148,0,0
55.52,1.3893608999999998,-9.83552,-0.063660756,1003.087,0,0
55.56,1.3606403,-9.7592535,-0.025789347,1003.10474,0,0
55.6,1.2936811,-9.8212185,0.007347632,1003.11975,0,0
55.64,1.312761,-9.783084,-0.025796797000000003,1003.1097,0,0
55.68,1.3079393999999998,-9.759251,-0.04473826,1003.1072,0,0
55.72,1.3461385,-9.783082,-0.044741858,1003.0895,0,0
55.76,1.3843324,-9.84028,-0.011605084,1003.1123,0,0
55.8,1.3317153,-9.768781,-0.058952708,1003.11475,0,0
55.84,1.3316735,-9.76878,-0.08736296,1003.07684,0,0
55.88,1.3268517,-9.773546,-0.054225955,1003.0895,0,0
55.92,1.3650483999999998,-9.764011,-0.025823388,1003.1022,0,0
55.96,1.2168326,-9.811676,-0.02109284,1003.0967,0,0
56.0,1.1881145,-9.792609,-0.035299633,1003.09955,0,0
56.04,1.2215313,-9.806909,-0.04477228,1003.0895,0,0
56.08,1.1420761,-9.730687,0.035877515,1003.09955,0,0
56.12,1.1373286,-9.783119,-0.06354202,1003.11224,0,0
56.16,1.1564745,-9.830786,-0.03513315,1003.1022,0,0
56.2,1.0943694,-9.783121,0.0027450435,1003.0867,0,0
56.24,1.1135171999999998,-9.830787,0.078498125,1003.1097,0,0
56.28,1.1613456,-9.811722,0.016953632,1003.11975,0,0
56.32,1.0753396000000002,-9.883222,0.0027532317,1003.10455,0,0
56.36,1.0275719,-9.806957,0.06430328,1003.11475,0,0
56.4,1.0849582,-9.821258,0.035899457,1003.0946,0,0
56.44,1.0610896,-9.797424,0.064308666,1003.0945,0,0
56.48,1.132817,-9.721161,0.11165552,1003.087,0,0
56.52,1.0420294,-9.811727,0.059579663,1003.11475,0,0
56.56,1.0420599,-9.830792,0.064316854,1003.0945,0,0
56.6,0.94171447,-9.8736925,0.10219489,1003.09955,0,0
56.64,0.99910253,-9.830794,0.059588023,1003.0971,0,0
56.68,0.9895734,-9.797429,0.1400757,1003.1097,0,0
56.72,1.0230606,-9.821263,0.064327836,1003.11224,0,0
56.76,1.0995697,-9.830796,0.007517945,1003.0921,0,0
56.8,1.1091578000000002,-9.7926655,0.116411865,1003.11224,0,0
56.84,1.0566105,-9.849865,0.04539855,1003.09467,0,0
56.88,1.0948775,-9.840332,0.040666763,1003.0945,0,0
56.92,1.0996877,-9.8022,-0.016143292,1003.11224,0,0
56.96,1.0710374,-9.878466,-0.030343901,1003.11224,0,0
57.0,1.1427668,-9.806969,-0.0019344985,1003.0921,0,0
57.04,1.2240537,-9.730705,0.1069596,1003.11975,0,0
57.08,1.098222,-9.859363,-0.05888707,1003.08154,0,0
57.12,1.1698875,-9.711599,0.02159489,1003.087,0,0
57.16,1.016902,-9.797397,-0.11097135,1003.1097,0,0
57.2,1.1315875,-9.744964,-0.049426813,1003.11975,0,0
57.24,1.1841357,-9.835527,-0.11571117,1003.0693,0,0
57.28,1.1745424,-9.735428,-0.08730784,1003.05145,0,0
57.32,1.1792923999999998,-9.83076,-0.106248185,1003.07935,0,0
57.36,1.1697011999999998,-9.821226,-0.016297407,1003.1097,0,0
57.4,1.0979723999999995,-9.816458,-0.11098839,1003.07654,0,0
57.44,1.0453669,-9.806924,-0.096787736,1003.0971,0,0
57.48,1.0596725,-9.840289,0.026303735,1003.0769,0,0
57.52,1.0070629999999998,-9.8545885,-0.016308833000000002,1003.082,0,0
57.56,1.0357121,-9.744957,0.049970128,1003.0971,0,0
57.6,1.0500218,-9.883186,-0.049455117,1003.1097,0,0
57.64,1.1503639,-9.883185,0.03576113,1003.0844,0,0
57.68,1.1168736,-9.768786,0.06416462,1003.0895,0,0
57.72,1.1550804,-9.783086,-0.030526374,1003.0946,0,0
57.76,1.0546726999999998,-9.897483,0.11623728,1003.09955,0,0
57.8,1.0259641,-9.749719,0.05942169,1003.1224,0,0
57.84,0.9972537,-9.7783165,0.14463808,1003.0971,0,0
57.88,0.9972219,-9.864114,0.049947068,1003.0794,0,0
57.92,0.9828529,-9.806916,0.13516365,1003.0972,0,0
57.96,0.96848184,-9.778315,0.16356719,1003.0895,0,0
58.0,1.016248,-9.825979,0.0878138,1003.0668,0,0
58.04,1.0066568,-9.811679,0.14935815,1003.1373,0,0
58.08,0.98867303,-9.859372,0.13052446,1003.0592,0,0
58.12,1.0078043,-9.821241,0.13052557,1003.0921,0,0
58.16,1.0651767,-9.792642,0.13052693,1003.1225,0,0
58.2,1.0317321,-9.806942,0.035840143,1003.0921,0,0
58.24,1.084323,-9.787876,0.064247735,1003.1022,0,0
58.28,1.1369148,-9.8021755,0.10685867,1003.0844,0,0
58.32,1.084351,-9.868908,0.073719114,1003.0972,0,0
58.36,1.0652456,-9.764044,0.031110741,1003.09955,0,0
58.4,1.1130568,-9.778343,0.12106563,1003.07434,0,0
58.44,1.0748332,-9.821244,0.1400046,1003.0769,0,0
58.48,1.0748454,-9.830776,0.15420893,1003.1097,0,0
58.52,1.0461814,-9.816477,0.050053384000000006,1003.0719,0,0
58.56,1.0748733,-9.811711,0.13527389,1003.0921,0,0
58.6,1.1179045,-9.830777,0.11160307,1003.1223,0,0
58.64,1.1370379,-9.783112,0.12580754,1003.1047,0,0
58.68,1.1227123,-9.764047,0.073730364,1003.1174,0,0
58.72,1.0605897,-9.764047,0.087934926,1003.0794,0,0
58.76,1.0892816,-9.768813,0.12107697,1003.09973,0,0
58.8,1.0845158,-9.806947,0.0926718,1003.0895,0,0
58.84,1.1323278,-9.80218,0.03112585,1003.0895,0,0
58.88,1.1323417,-9.783114,0.035861526,1003.0895,0,0
58.92,1.1658133,-9.840313,0.083206765,1003.09216,0,0
58.96,1.1467081,-9.778348,0.08320803,1003.097,0,0
59.0,1.0941442,-9.749749,0.10688132,1003.0643,0,0
59.04,1.022461,-9.840314,0.111617014,1003.09955,0,0
59.08,1.1043807,-9.849864,0.11167769,1003.0921,0,0
59.12,1.1713323999999998,-9.897531,0.14482167,1003.0794,0,0
59.16,1.1140164,-10.030995,0.09748146,1003.1022,0,0
59.2,1.1427298,-9.973797,0.13062544,1003.0845,0,0
59.24,1.0854138,-9.916599,0.19691092,1003.082,0,0
59.28,1.1093522,-9.992865,0.14957048,1003.10956,0,0
59.32,1.1093916,-10.035765,0.12590204,1003.0921,0,0
59.36,1.1094284,-10.112031,0.1921871,1003.09973,0,0
59.4,1.0999081,-9.992867,0.13537784,1003.0971,0,0
59.44,1.1668648,-10.112033,0.15905346,1003.1097,0,0
59.48,1.2385986999999998,-10.102501,0.18746327,1003.0946,0,0
59.52,1.1860601,-10.140634,0.12591960000000002,1003.082,0,0
59.56,1.1048379,-10.183535,0.1732668,1003.07684,0,0
59.6,0.94714624,-10.169235,0.1448642,1003.1022,0,0
59.64,1.0380042,-10.174003,0.17800887,1003.0921,0,0
59.68,1.1527563,-10.1835375,0.17327781,1003.0719,0,0
59.72,1.2197104,-10.259803,0.116468355,1003.0794,0,0
59.76,1.1958531,-10.245503,0.07386254,1003.07935,0,0
59.8,1.1958926,-10.221672,0.18749183,1003.082,0,0
59.84,1.1720328000000002,-10.278872,0.17329222,1003.09955,0,0
59.88,1.1577303,-10.312239,0.14962359,1003.1148,0,0
59.92,1.1577696000000002,-10.345606,0.16383038,1003.10223,0,0
59.96,1.1339073999999998,-10.307474,0.19224021,1003.0844,0,0
60.0,1.153066,-10.378974,0.2017126,1003.10223,0,0
60.04,1.1612319,-10.302674,0.1826474,1003.1072,0,0
60.08,1.1229756000000002,-10.316975,0.16370814,1003.1223,0,0
60.12,1.1707546999999998,-10.359872,0.11636236,1003.0719,0,0
60.16,1.1516163,-10.359872,0.12109503,1003.0492,0,0
60.2,1.137259,-10.336038,0.14003101,1003.0972,0,0
60.24,1.1133411,-10.369404,0.14949809,1003.0769,0,0
60.28,1.1802381000000002,-10.350337,0.15896505,1003.0593,0,0
60.32,1.1802202,-10.331271,0.14002578,1003.0745,0,0
60.36,1.1754225,-10.388469,0.13528976,1003.0567,0,0
60.4,1.1706238000000002,-10.34557,0.111615986,1003.0719,0,0
60.44,1.1945026,-10.345569,0.12108295,1003.04663,0,0
60.48,1.1514653,-10.340802,0.12108122,1003.0467,0,0
60.52,1.1705667,-10.440898,0.15422039,1003.0542,0,0
60.56,1.1323104,-10.3694,0.13054675,1003.0769,0,0
60.6,1.1609702,-10.388466,0.23943631,1003.0795,0,0
60.64,1.1513916000000002,-10.359866,0.14001209,1003.0517,0,0
60.68,1.1752715,-10.369398,0.12107274,1003.0341,0,0
60.72,1.1513535,-10.374166,0.18735261,1003.0264,0,0
60.76,1.1465571,-10.326499,0.14000708,1003.03156,0,0
60.8,1.1369773,-10.402763,0.14000522,1003.02893,0,0
60.84,1.1465179,-10.3312645,0.1684099,1003.01886,0,0
60.88,1.170398,-10.312198,0.16367377,1003.0063,0,0
60.92,1.1321417,-10.221632,0.15893772,1003.014,0,0
60.96,1.1799206,-10.1692,0.13999836,1003.03406,0,0
61.0,1.1512228,-10.131068,0.16366865,1003.01904,1,3
61.04,1.1320858,-10.107234,0.08791652,1003.0214,1,3
61.08,1.1842553999999998,-10.064324,0.08314477,1002.9962,1,3
61.12,1.2559204,-10.102457,0.04053217,1002.9937,1,3
61.16,1.1889688,-10.059557,0.07840429,1003.0239,1,3
61.2,1.2176135,-10.030957,0.12574519,1002.976,1,3
61.24,1.1888982,-10.02619,0.09260103,1002.99615,1,3
61.28,1.2127651000000002,-10.054788,0.049988445,1003.00366,1,3
61.32,1.1744946000000005,-9.968989,0.049985502,1003.0013,1,3
61.36,1.1792401,-10.002354,0.04998238,1002.9734,1,3
61.4,1.198325,-10.026186,0.05944808,1002.95825,1,3
61.44,1.1982887,-10.002353,0.059444718,1002.976,1,3
61.48,1.2221556999999998,-10.054784,0.045238577,1002.97614,1,3
61.52,1.2030021999999998,-9.945151,0.09257947,1002.9558,1,3
61.56,1.20297,-9.897486,0.08784214,1002.9607,1,3
61.6,1.1551399,-9.849819,0.09257361,1002.9558,1,3
61.64,1.2124633,-9.845052,0.10203928,1002.9407,1,3
61.68,1.1933119,-9.811685,0.06889550400000001,1002.95593,1,3
61.72,1.1024594,-9.754486,0.05468896,1002.95593,1,3
61.76,1.1263219,-9.773552,0.059420038,1002.9256,1,3
61.8,1.1167302,-9.716352,0.054682687,1002.9179,1,3
61.84,1.1644962,-9.783082,0.059414178,1002.92065,1,3
61.88,1.2552782,-9.787848,-0.011605053999999998,1002.93317,1,3
61.92,1.2170141,-9.816446,-0.035279427,1002.9231,1,3
61.96,1.1643956,-9.811679,-0.011611119,1002.89777,1,3
62.0,1.2217189,-9.868876,-0.030551877,1002.9357,1,3
62.04,1.2136549,-9.892747,-0.025680553,1002.9231,1,3
62.08,1.1467638,-9.8784485,-0.025678169,1002.90784,1,3
62.12,1.14679,-9.873681,-0.07301985,1002.9055,1,3
62.16,1.127697,-9.845083,-0.044611003,1002.8879,1,3
62.2,1.0942698,-9.826017,-0.06354576,1002.88513,1,3
62.24,1.0608371,-9.878451,-0.07774657,1002.89276,1,3
62.28,1.0895438999999998,-9.816485,-0.020931184,1002.8625,1,3
62.32,1.1182506,-9.749754,-0.020928621,1002.85754,1,3
62.36,1.113497,-9.725923,0.0074802190000000015,1002.86505,1,3
62.4,1.1135249,-9.678257,-0.05879889,1002.85754,1,3
62.44,1.1183308,-9.740223,-0.039858896,1002.86005,1,3
62.48,1.1661569,-9.835556,0.026425336,1002.83734,1,3
62.52,1.2092047,-9.759292,-0.006712790600000001,1002.83466,1,3
62.56,1.1518749,-9.773591,-0.035116654,1002.8498,1,3
62.6,1.1757984,-9.835558,-0.025645595,1002.8247,1,3
62.64,1.2236243,-9.91659,0.0027633905,1002.8045,1,3
62.68,1.2427732,-9.854624,-0.016171537,1002.84247,1,3
62.72,1.1854434,-9.878458,0.0027686357,1002.83484,1,3
62.76,1.1185507,-9.845094,-0.016166765,1002.8324,1,3
62.8,1.1568187,-9.854626,-0.006695237,1002.8475,1,3
62.84,1.1855254,-9.8117285,0.016979341999999998,1002.8121,1,3
62.88,1.1425351,-9.735464,-0.001955703,1002.8321,1,3
62.92,1.171233,-9.749764,-0.020891573,1002.8272,1,3
62.96,1.1808207,-9.625834,-0.016154632,1002.7919,1,3
63.0,1.1712924,-9.706867,-0.05876137,1002.78424,1,3
63.04,1.1426413999999998,-9.62107,-0.04455561,1002.77167,1,3
63.08,1.1653696000000002,-9.601975,0.012150044,1002.78424,1,3
63.12,1.1557899,-9.659173,-0.011523798,1002.7768,1,3
63.16,1.17489,-9.611506,-0.006791156,1002.7414,1,3
63.2,1.1987698999999998,-9.683005,-0.077808976,1002.7388,1,3
63.24,1.2178761,-9.611506,0.03581558,1002.73895,1,3
63.28,1.1652757,-9.678237,0.03581349,1002.7668,1,3
63.32,1.1413577,-9.601972,0.040546134,1002.7288,1,3
63.36,1.1270038999999998,-9.573372,0.07842008,1002.73645,1,3
63.4,1.1556625,-9.616271,0.06421501,1002.739,1,3
63.44,1.1413018,-9.554304,0.10208832,1002.72614,1,3
63.48,1.1938593000000002,-9.46374,0.102086455,1002.759,1,3
63.52,1.1556030000000002,-9.354109,0.14469445,1002.73145,1,3
63.56,1.1842676,-9.339809,0.031067448,1002.73663,1,3
63.6,1.1507865,-9.335041,0.031065386,1002.69855,1,3
63.64,1.1890056999999998,-9.358873,0.07367329,1002.7163,1,3
63.68,1.1603092,-9.320741,0.045265198,1002.68097,1,3
63.72,1.1172755,-9.273075,0.06893581,1002.6935,1,3
63.76,1.1029135,-9.30644,0.012120888,1002.691,1,3
63.8,1.1363518,-9.268308,-0.0020841658,1002.6733,1,3
63.84,1.0933218,-9.249241,0.031055579,1002.7086,1,3
63.88,1.1410948,-9.315972,-0.0020875223,1002.6807,1,3
63.92,1.0789383999999995,-9.306438,-0.030495714,1002.711,1,3
63.96,1.1267174,-9.230173,0.102065876,1002.70624,0,0
64.0,1.0789003,-9.258772,0.02631366,1002.6557,0,0
64.04,1.0932255,-9.2444725,0.08785963,1002.6633,0,0
64.08,1.0800914,-9.187303,0.054829113,1002.6734,0,0
64.12,1.1183662,-9.244502,-0.106137335,1002.6355,0,0
64.16,1.0992688999999998,-9.182538,-0.05879126,1002.6608,0,0
64.2,1.1423126,-9.177772,-0.02091369,1002.6432,0,0
64.24,1.1280097,-9.096742,-0.044582378,1002.62286,0,0
64.28,1.1758369,-9.144408,0.021701971,1002.6481,0,0
64.32,1.1806403,-9.134874,0.1069234,1002.61536,0,0
64.36,1.2189063,-9.115809,0.031175444,1002.64545,0,0
64.4,1.1520164,-9.168242,0.050115556,1002.653,0,0
64.44,1.1902857,-9.187309,0.040649593,1002.633,0,0
64.48,1.1855351,-9.182543,0.11640273,1002.6204,0,0
64.52,1.2859402,-9.220676,0.10220221,1002.6254,0,0
64.56,1.1712524,-9.23021,0.08800149,1002.6103,0,0
64.6,1.1904006,-9.263577,0.05486333400000002,1002.6253,0,0
64.64,1.2669066,-9.206379,0.13061646,1002.6303,0,0
64.68,1.2191379,-9.33031,0.050134256,1002.6204,0,0
64.72,1.2143853999999998,-9.225447,0.13535605,1002.62054,0,0
64.76,1.2239723,-9.26358,0.15429616,1002.62787,0,0
64.8,1.2048842,-9.377978,0.17797105,1002.61536,0,0
64.84,1.1236621,-9.377978,0.13536456,1002.60785,0,0
64.88,1.1332436,-9.382746,0.15903859,1002.59265,0,0
64.92,1.2336486999999998,-9.382747,0.121166036,1002.6405,0,0
64.96,1.2336777,-9.39228,0.15904394,1002.6332,0,0
65.0,1.1906941,-9.368448,0.08329662,1002.5952,0,0
65.04,1.1429181000000002,-9.32555,0.1637835,1002.6077,0,0
65.08,1.1843566,-9.373177,0.21571739,1002.6204,0,0
65.12,1.1938798000000002,-9.482806,0.23938608,1002.6483,0,0
65.16,1.2034074,-9.497105,0.22517991,1002.60004,0,0
65.2,1.2607309,-9.55907,0.19677033,1002.6253,0,0
65.24,1.1890017,-9.525703,0.25831464,1002.60803,0,0
65.28,1.2511027,-9.630567,0.21570168,1002.6354,0,0
65.32,1.2032726,-9.668698,0.22990197,1002.6103,0,0
65.36,1.1458807,-9.597199,0.2014924,1002.6104,0,0
65.4,1.1936423,-9.621031,0.24883312,1002.61285,0,0
65.44,1.1649336,-9.640097,0.2630336,1002.5875,0,0
65.48,1.117099,-9.74496,0.29617113,1002.59247,0,0
65.52,1.136184,-9.692527,0.27249593,1002.6303,0,0
65.56,1.1887298000000002,-9.778324,0.30089945,1002.59015,0,0
65.6,1.1408975,-9.744958,0.37191236,1002.6104,0,0
65.64,1.1360834,-9.730658,0.28195554,1002.60504,0,0
65.68,1.1456088,-9.821221,0.32929647,1002.59515,0,0
65.72,1.2889708,-9.759254,0.35769993,1002.595,0,0
65.76,1.1981202,-9.840284,0.36716563,1002.6104,0,0
65.8,1.1598498,-9.754486,0.41450673,1002.6204,0,0
65.84,1.2028359,-9.787852,0.37662855,1002.6306,0,0
65.88,1.2028016,-9.754485,0.51392317,1002.6179,0,0
65.92,1.1788683,-9.768784,0.49024796,1002.6202,0,0
65.96,1.2409716,-9.778316,0.5281201,1002.6054,0,0
66.0,1.2696162,-9.816447,0.50444496,1002.60254,0,0
66.04,1.2934808999999998,-9.749715,0.43816015,1002.6204,0,0
66.08,1.2802360000000002,-9.702076,0.5329484,1002.6181,0,0
66.12,1.2133287,-9.744976,0.5045429,1002.6282,0,0
66.16,1.1416413,-9.730677,0.55188787,1002.6202,0,0
66.2,1.1081921,-9.754509,0.52821666,1002.62054,0,0
66.24,1.1607808000000002,-9.773575,0.63710904,1002.6152,0,0
66.28,1.3280853,-9.773576,0.5613595,1002.6407,0,0
66.32,1.2994148,-9.716377,0.58029795,1002.5877,0,0
66.36,1.2564067,-9.673478,0.6465805,1002.61554,0,0
66.4,1.3137745,-9.654412,0.6371127,1002.60254,0,0
66.44,1.3568028,-9.7402115,0.70339525,1002.6231,0,0
66.48,1.3902715,-9.749743,0.73180264,1002.6054,0,0
66.52,1.3855013,-9.7402115,0.85016364,1002.6256,0,0
66.56,1.3424931999999998,-9.716379,0.7412732,1002.60254,0,0
66.6,1.3329438,-9.740212,0.7933526,1002.6179,0,0
66.64,1.304275,-9.787878,0.7838847,1002.5903,0,0
66.68,1.2851653,-9.706846,0.8170264,1002.5802,0,0
66.72,1.2325976,-9.744979,0.8217617,1002.60803,0,0
66.76,1.2660657,-9.678247,0.86910665,1002.6407,0,0
66.8,1.2565165,-9.706847,0.79335713,1002.6229,0,0
66.84,1.3616817,-9.683015,0.8975148999999999,1002.6256,0,0
66.88,1.3425726,-9.744981,0.9164535,1002.60785,0,0
66.92,1.3282439,-9.830778,0.8975168,1002.6282,0,0
66.96,1.3234742,-9.711615,0.9732682,1002.6179,0,0
67.0,1.3617228,-9.678248,1.077426,1002.60034,0,0
67.04,1.3282735,-9.759281,1.0158796,1002.6154,0,0
67.08,1.2417315,-9.721135,1.0395052,1002.633,0,0
67.12,1.2178216999999998,-9.730669,1.0347699,1002.60504,0,0
67.16,1.1986938,-9.68777,1.0063627,1002.6306,0,0
67.2,1.2417011,-9.668703,1.2288787,1002.6508,0,0
67.24,1.4663426000000002,-9.592438,1.2667531,1002.61536,0,0
67.28,1.4424328000000002,-9.692534,1.2430801,1002.633,0,0
67.32,1.4137436,-9.725901,1.4277209,1002.6305,0,0
67.36,1.6431654999999998,-9.525705,1.413517,1002.62054,0,0
67.4,1.4997612,-9.716368,1.3282967,1002.64307,0,0
67.44,1.5284293,-9.668701,1.4229838,1002.6407,0,0
67.48,1.7913095,-9.716368,1.4513893999999998,1002.60034,0,0
67.52,1.7291625,-9.687768,1.2856843,1002.6255,0,0
67.56,1.7387108,-9.654401,1.5318723,1002.623,0,0
67.6,1.4662518999999998,-9.706833,1.4040425,1002.6307,0,0
67.64,1.4375639999999998,-9.573369,1.4939954,1002.6154,0,0
67.68,1.5952867,-9.611502,1.4561191999999998,1002.628,0,0
67.72,1.6669743,-9.678232,1.4040399,1002.6129,0,0
67.76,1.5761473,-9.630567,1.3898356,1002.6181,0,0
67.8,1.7243117,-9.840295,1.157849,1002.6407,0,0
67.84,1.5139902,-9.625801,1.134176,1002.62823,0,0
67.88,1.490081,-9.697298,1.1531128000000002,1002.5927,0,0
67.92,1.5330896,-9.492336,1.2430655000000002,1002.6357,0,0
67.96,1.5760986,-9.659165,1.2383302,1002.61285,0,0
68.0,1.485272,-9.702064,1.0536875,1002.6306,0,0
68.04,1.6286553999999998,-9.697297,1.1673123,1002.60785,0,0
68.08,1.6432754,-9.625806,1.4561366000000002,1002.60284,0,0
68.12,1.6576159,-9.716372,1.342511,1002.5978,0,0
68.16,1.7101951000000002,-9.568607,1.6029034,1002.5953,0,0
68.2,1.5763618,-9.611506,1.4750746,1002.6154,0,0
68.24,1.0027866,-9.916566,1.5697628,1002.6103,0,0
68.28,0.7685774999999999,-9.883201,1.7259983,1002.60297,0,0
68.32,1.6146040000000002,-9.506642,1.3851212,1002.5928,0,0
68.36,2.594465,-9.306447,1.0537131000000002,1002.6129,0,0
68.4,2.7617595,-9.582908,1.0300411,1002.5978,0,0
68.44,2.6948438,-9.587673,0.944822,1002.5952,0,0
68.48,2.0830297,-9.625807,1.5602946000000002,1002.6307,0,0
68.52,1.8058023,-9.501876,1.527154,1002.64825,0,0
68.56,1.867941,-9.420844,1.4372003999999998,1002.6103,0,0
68.6,1.6193925,-9.587673,1.5744982,1002.5802,0,0
68.64,1.4759997,-9.43991,1.8064842,1002.59283,0,0
68.68,1.275249,-9.797402,1.5271543,1002.59283,0,0
68.72,1.064939,-9.635339,1.4277319,1002.6129,0,0
68.76,1.2465731000000002,-9.8975,1.2904345,1002.6055,0,0
68.8,1.1605376,-9.811702,1.1341991000000002,1002.58514,0,0
68.84,1.5811616000000002,-9.740204,1.271497,1002.62067,0,0
68.88,1.3612919,-9.721137,1.2430907,1002.623,0,0
68.92,1.1844404,-9.654406,1.3235757,1002.60535,0,0
68.96,1.203561,-9.754503,1.2383565,1002.6081,0,0
69.0,1.275259,-9.582908,1.1531373,1002.58264,0,0
69.04,1.4999111,-9.625807,1.1199965,1002.5952,0,0
69.08,1.5149933999999998,-9.725923,1.0585173,1002.6256,0,0
69.12,1.3764114,-9.697324,1.1484741000000005,1002.6359,0,0
69.16,1.2234863,-9.683025,1.1958207,1002.6407,0,0
69.2,1.1374784,-9.668726,1.2999802,1002.62823,0,0
69.24,1.2474444,-9.611528,1.3520615,1002.6585,0,0
69.28,1.2379152,-9.859389,1.1958289,1002.6333,0,0
69.32,1.1136688,-9.668728,1.3189261,1002.6408,0,0
69.36,1.1471598,-9.649663,1.3710074,1002.64343,0,0
69.4,0.92731744,-9.854625,1.4514948,1002.64594,0,0
69.44,0.9369094,-9.773595,1.4136226,1002.62317,0,0
69.48,0.9225947,-9.68303,1.4420314,1002.6182,0,0
69.52,0.93218845,-9.644898,1.2763302,1002.6255,0,0
69.56,1.1712073,-9.602,1.3284113000000002,1002.6359,0,0
69.6,1.333749,-9.7307,1.3284138,1002.62067,0,0
69.64,1.2716459,-9.830797,1.3994331,1002.6106,0,0
69.68,1.4102887,-9.473306,1.1579812,1002.59534,0,0
69.72,1.4485576,-9.597238,1.5651429,1002.6182,0,0
69.76,1.4390266,-9.520973,1.6693023,1002.6232,0,0
69.8,1.5250933999999998,-9.740234,1.6077579,1002.66113,0,0
69.84,1.305251,-9.887999,1.4467907,1002.6257,0,0
69.88,0.999376,-9.59724,1.172198,1002.6585,0,0
69.92,1.2957523000000002,-9.582942,1.3189673000000002,1002.62067,0,0
69.96,1.7450843999999996,-9.382747,1.621972,1002.6585,0,0
70.0,2.3043501,-9.406579,1.2810974,1002.6585,0,0
70.04,2.6102917000000003,-9.945201,1.2479597,1002.661,0,0
70.08,1.8727742,-9.926101,0.5234652,1002.66864,0,0
70.12,1.7150173999999998,-9.568608,0.63708884,1002.6787,0,0
70.16,2.3268058,-9.106251,0.6986336999999999,1002.6711,0,0
70.2,2.5562096000000003,-9.387478,-0.0683424,1002.66846,0,0
70.24,3.3783076000000003,-9.573373,0.68915975,1002.6559,0,0
70.28,3.7558856,-9.840299,0.44296828,1002.63574,1,4
70.32,3.2348635,-10.040494,-0.26246014,1002.6232,1,4
70.36,2.2884343,-9.563838,-1.9526454,1002.6686,1,4
70.4,2.3314257,-8.848853,-2.0568044,1002.646,1,4
70.44,4.549228,-12.090112,-3.2214706000000004,1002.63074,1,4
70.48,3.1200418,-11.441859,2.2609677,1002.71155,1,4
70.52,-2.8547378,-12.461902,-3.6191652,1002.80237,1,4
70.56,4.29582,-11.213063,0.44768593,1002.71906,1,4
70.6,2.7566967,-12.347503,-1.5597042,1002.7693,1,4
70.64,1.5426016000000002,-9.27784,-2.1515071,1002.8553,1,4
70.68,0.87818235,-6.9183936,-1.479224,1002.89557,1,4
70.72,0.38583755,-4.978404,-1.6212585,1002.90826,1,4
70.76,0.47184736,-3.195711,-2.0426228,1002.8022,1,4
70.8,3.468756,-4.4397817,-4.4713755,1002.76935,1,4
70.84,7.842250999999999,-8.12433,-5.053709,1002.6484,1,4
70.88,8.191153,-10.073852,-5.62184,1002.5398,1,4
70.92,3.9036415,-10.555273,-3.884316000000001,1002.52466,1,4
70.96,1.5997479,-15.498191,-1.1999111,1002.4415,1,4
71.0,0.9353302,-14.69741,-4.2583385,1002.35315,1,4
71.04,-0.08279304,-5.497954,2.1094334,1002.38104,1,4
71.08,-1.2204146,-7.542806,7.672356,1002.3407,1,4
71.12,2.3022778,-10.531436,4.2825203,1002.46436,1,4
71.16,2.0967176,-11.170155,-4.40038,1002.6811,1,4
71.2,0.94475824,-9.396995,5.0589575999999985,1002.6383,1,4
71.24,3.105203,-10.216842,2.7012217,1002.6408,1,4
71.28,2.593739,-10.283573,0.85953605,1002.61816,1,4
71.32,2.1730897,-9.158665,1.451334,1002.6106,1,4
71.36,3.4922907,-8.219652,1.2903621,1002.61816,1,4
71.4,6.608696000000001,-8.9489355,0.8358568000000001,1002.6686,1,4
71.44,3.764686,-10.340769,-2.5823855,1002.71155,1,4
71.48,3.7742193,-8.105253999999999,-1.8390867,1002.70905,1,4
71.52,3.6652884,-7.557123700000001,-4.627559,1002.6938,1,4
71.56,3.3307037000000004,-10.555288,-2.9279075,1002.6409,1,4
71.6,-3.5856707,-21.961658,4.7891726,1002.61304,1,4
71.64,-2.6536071,-15.426709,0.53767693,1002.6813,1,4
71.68,8.856163,-10.664919,-2.5728269,1002.9184,1,4
71.72,4.3583684,-9.959469,-1.0199419,1002.7746,1,4
71.76,-1.7167605,-4.902152,2.332017,1002.81506,1,4
71.8,-2.5962424,-2.2662458,-0.11567032,1002.92334,1,4
71.84,-1.9175087,-1.3558335,3.7144632,1002.84503,1,4
71.88,-3.8485480000000014,-5.607602,-0.09673239,1002.5349,1,4
71.92,8.177441,-17.891018,-10.626049,1002.4113,1,4
71.96,13.038503,-9.301683,-1.7869145,1002.6108,1,4
72.0,0.73050934,-16.928173,2.8906775,1002.6031,1,4
72.04,-5.8273797,-17.919617000000006,-0.5180938,1002.3282,1,4
72.08,1.0555393999999998,-4.2729664000000005,5.778664599999999,1002.4341,1,4
72.12,-2.3667982000000003,-5.822098,3.4019938,1002.4493,1,4
72.16,0.37681067,-12.285549,4.860191,1002.4769,1,4
72.2,1.772515,-10.645853,1.4466847,1002.54504,1,4
72.24,2.035406,-9.783106,3.6055737,1002.598,1,4
72.28,2.22182,-9.606744,1.3330593000000002,1002.6284,1,4
72.32,2.6520042,-9.254019,1.8964537,1002.6335,1,4
72.36,3.8708556000000014,-8.562868,0.89276004,1002.6108,1,4
72.4,3.6605463,-8.167244,-0.1346056,1002.6106,1,4
72.44,6.2273026,-7.967048599999999,1.006386,1002.6284,1,4
72.48,6.2942214000000005,-8.062381,-0.43760717,1002.72675,1,4
72.52,4.1241164,-8.315006,-7.5676274,1002.81757,1,4
72.56,4.688132,-9.687775,-3.0557399,1002.7595,1,4
72.6,-2.2903824,-20.593655,-0.69327193,1002.7191,1,4
72.64,-8.776577,-22.195217,5.17739,1002.684,1,4
72.68,14.854772,-8.41987,-5.4466142999999985,1002.8528,1,4
72.72,4.6259894,-10.831747,-2.3503137,1002.8126,1,4
72.76,-0.10601723,-7.180565,0.03582586,1002.7393,1,4
72.8,-1.5399598,-3.8916404,1.6502577,1002.835,1,4
72.84,-2.6488752,-3.5436819,1.8206961,1002.8957,1,4
72.88,-3.2798104,-2.7143009,2.94275,1002.8226,1,4
72.92,-1.5686421,-6.9660699999999975,-3.619135,1002.5756,1,4
72.96,14.410241,-17.995882,-8.954809,1002.48975,1,4
73.0,9.214593,-8.867925999999997,-2.8616304,1002.5476,1,4
73.04,1.2131999,-16.256088000000002,1.0347844000000002,1002.57544,1,4
73.08,-4.4317503,-13.1482935,-1.8674059,1002.4013,1,4
73.12,-1.1241267,-4.268199,5.570344,1002.4014,1,4
73.16,-1.6977043,-7.028034700000001,1.9958681,1002.43427,1,4
73.2,1.648157,-11.174939,6.1290035000000005,1002.54047,1,4
73.24,2.6327953,-9.84507,-1.5075916,1002.58295,1,4
73.28,2.8526654,-9.211118,2.5734653,1002.60815,1,4
73.32,2.6758113,-9.439912,1.5697713,1002.6386,1,4
73.36,2.9339192,-9.535244,1.1010652,1002.6308,1,4
73.4,2.279085,-10.040499,1.839632,1002.5955,1,4
73.44,2.2504048,-10.154896,0.13524641,1002.6309,1,4
73.48,5.405074,-9.43038,-0.30031893,1002.6562,1,4
73.52,5.476514,-9.687767,1.588685,1002.6863,1,4
73.56,1.2846148000000002,-10.5219145,-3.4392536,1002.7317,1,4
73.6,3.4833155,-10.579113,-2.7480316000000005,1002.7395,1,4
73.64,4.9985,-9.430372,-1.3229771,1002.651,1,4
73.68,0.31906092,-12.790794,-0.16304888,1002.6613,1,4
73.72,-5.201624400000001,-20.116991,4.3819785000000016,1002.65607,1,4
73.76,9.5345,-10.321717,-3.652307,1002.80237,1,4
73.8,5.834921,-11.146331,-1.7869526000000002,1002.86334,1,4
73.84,1.2415188999999998,-9.182509,0.09260495,1002.79755,1,4
73.88,-1.1914127,-4.8735423,1.2335954,1002.8579,1,4
73.92,-1.9800911,-5.150002,0.864311,1002.8051,1,4
73.96,-1.7602329,-4.4731507000000015,0.7648872,1002.78723,1,4
74.0,-2.357719,-5.9174166,-1.2046262,1002.757,1,4
74.04,3.47841,-9.339806,-6.862240299999999,1002.5779,1,4
74.08,20.24117,-15.369498000000002,-5.9106264,1002.487,1,4
74.12,6.6330595,-8.529489,-3.5860348,1002.6056,1,4
74.16,-1.2249507,-14.497218,-0.57022,1002.53015,1,4
74.2,-1.2249613,-10.9032345,-2.606015,1002.3735,1,4
74.24,1.4421586000000002,-11.50382,8.197896,1002.37604,1,4
74.28,-3.4762716,-4.0393915,-3.3587873,1002.5049,1,4
74.32,0.4718349,-10.598174,6.370414,1002.4417,1,4
74.36,2.8282669,-10.150117,0.19674839,1002.60834,1,4
74.4,1.3895357,-10.116751,0.13993463,1002.6413,1,4
74.44,3.3588028,-8.772582,0.7317340999999999,1002.6461,1,4
74.48,2.030006,-8.839313,0.63231057,1002.65375,1,4
74.52,1.9300021,-9.468508,0.26779544,1002.6209,1,4
74.56,1.490264,-9.63057,0.54712576,1002.60834,1,4
74.6,1.7770561000000002,-9.144382,0.88800323,1002.65137,1,4
74.64,3.1727624,-9.96423,1.1199893,1002.66644,1,4
74.68,2.8716385,-10.493318,0.16837433,1002.6842,1,4
74.72,3.8132637,-10.39322,1.0347707,1002.73944,1,4
74.76,4.037918,-10.660148,-2.9373944,1002.74976,1,4
74.8,3.9949033,-10.3169565,-3.2782714,1002.6788,1,4
74.84,-2.3096535,-11.294101,1.7354636000000003,1002.6588,1,4
74.88,-4.8429456,-18.091208,3.018488,1002.6892,1,4
74.92,7.704042999999999,-11.537194,-2.222498,1002.8806,1,4
74.96,3.9662402,-13.639246,-0.24351646,1002.8027,1,4
75.0,0.8402521000000001,-8.596229,0.38142532,1002.7093,1,4
75.04,-1.7121596,-4.9212136,1.3283063999999998,1002.8176,1,4
75.08,-2.58686,-3.5627449,0.6465526,1002.7674,1,4
75.12,-2.3335266,-3.8630378,1.3188385,1002.7069,1,4
75.16,-3.7053263,-6.0842540000000005,0.27726978,1002.5984,1,4
75.2,1.7006352999999998,-9.0728855,-6.0336914,1002.4672,1,4
75.24,20.375334,-16.842373000000002,-5.1436234,1002.49963,1,4
75.28,6.609501400000001,-8.372202,-5.119951,1002.64105,1,4
75.32,0.6586495,-11.370365,-2.4450116000000004,1002.6438,1,4
75.36,-0.78006786,-16.308517000000002,-6.852742,1002.49756,1,4
75.4,2.3793864,-11.108206,5.9348855,1002.45184,1,4
75.44,-1.7981585,-6.1652856,-1.0720332,1002.4747,1,4
75.48,-4.5226435999999985,-8.863156,-0.7974373,1002.50476,1,4
75.52,3.5978327000000005,-11.041464,8.2783785,1002.50507,1,4
75.56,1.7193561000000002,-9.849824,-1.4413553,1002.61316,1,4
75.6,-1.1628767,-9.821225,-0.058910098,1002.6915,1,4
75.64,1.1696541,-9.311203,2.8480134,1002.66895,1,4
75.68,1.8913919,-9.525697,0.021572389,1002.68396,1,4
75.72,1.6332706,-10.240681,-0.12046084,1002.6284,1,4
75.76,1.6858358,-10.431343,-0.36665106,1002.61096,0,0
75.8,1.2747607,-9.964219,-0.23882322,1002.6134,0,0
75.84,0.45262104,-10.011885,1.8774544,1002.5857,0,0
75.88,-0.8140381,-9.78309,1.8395782,1002.5881,0,0
75.92,-2.501319,-8.896510000000003,0.53288156,1002.60077,0,0
75.96,-0.6324316,-9.60196,0.2914255,1002.6359,0,0
76.0,0.4047739,-9.89272,1.0678667,1002.6209,0,0
76.04,-0.45560348,-10.231145,1.3613987,1002.631,0,0
76.08,-0.45083636,-10.226378,-0.21042486,1002.62854,0,0
76.12,-0.20229919,-10.03095,0.13991995,1002.62354,0,0
76.16,-0.18797246,-9.525694,0.31982616,1002.63617,0,0
76.2,-0.073269844,-9.54476,1.0110481,1002.631,0,0
76.24,-1.0913808,-9.892718,0.17305732,1002.62616,0,0
76.28,-0.77592474,-9.95945,0.3813700999999999,1002.6209,0,0
76.32,-0.56562686,-9.978515,0.26300874,1002.6563,0,0
76.36,-0.54173976,-9.868884,0.20619479,1002.6209,0,0
76.4,-0.527413,-9.897484,0.29614735,1002.63855,0,0
76.44,-0.3075515,-9.764019,0.18725514,1002.64374,0,0
76.48,-0.25977015,-9.797385,0.12570637,1002.6563,0,0
76.52,-0.00093728304,-9.907034,0.21572629,1002.6513,0,0
76.56,0.008638829,-9.930866,0.13050853,1002.6564,0,0
76.6,0.12336956,-9.883202,0.06422827,1002.6436,0,0
76.64,0.24766101,-9.835537,-0.09200558,1002.6742,0,0
76.68,0.33849478,-9.883203,0.054762557,1002.6411,0,0
76.72,0.25247377,-9.926103,0.03109195,1002.65375,0,0
76.76,0.29072875,-9.778338,-0.10620427,1002.6134,0,0
76.8,0.52017576,-9.921335,-0.20562528,1002.6436,0,0
76.84,0.5345316999999999,-9.88797,-0.27190542,1002.6209,0,0
76.88,0.6253645,-9.859371,-0.22455983,1002.6463,0,0
76.92,0.48676157,-9.911804,-0.22455879,1002.63354,0,0
76.96,0.42942452,-9.82124,-0.115665615,1002.6058,0,0
77.0,0.4198814,-9.730677,-0.18194579,1002.6159,0,0
77.04,0.4820344,-9.759275,-0.18667878,1002.62604,0,0
77.08,0.56808734,-9.84984,-0.18194284,1002.6209,0,0
77.12,0.539425,-9.887973,-0.22455095,1002.6235,0,0
77.16,0.5059828,-9.845075,-0.2576903,1002.6134,0,0
77.2,0.5012175,-9.887974,-0.16773531,1002.63116,0,0
77.24,0.5633684,-9.849842,-0.23875012,1002.6235,0,0
77.28,0.6542051999999999,-9.783111,-0.17246659,1002.63116,0,0
77.32,0.5777428000000001,-9.735445,-0.13932444,1002.60077,0,0
77.36,0.5729795,-9.802177,-0.27662066,1002.61334,0,0
77.4,0.6160101,-9.8450775,-0.2434787,1002.6513,0,0
77.44,0.61125195,-9.835545,-0.28135190000000004,1002.6209,0,0
77.48,0.57303,-9.840311,-0.24347518,1002.62854,0,0
77.52,0.4859854,-9.845054,-0.2530363,1002.63617,0,0
77.56,0.51463854,-9.825986,-0.12047529,1002.62604,0,0
77.6,0.4572584,-9.806919,-0.20569667,1002.6235,0,0
77.64,0.48113334,-9.864118,-0.17255804,1002.60077,0,0
77.68,0.4572116,-9.868883,-0.14888808,1002.60077,0,0
77.72,0.39027035,-9.8212185,-0.096811816,1002.61096,0,0
77.76,0.42370486,-9.854583,-0.14415807,1002.60583,0,0
77.8,0.36632305,-9.854582,-0.09681624,1002.60834,0,0
77.84,0.3376217,-9.8402815,-0.05894305,1002.61365,0,0
77.88,0.29458540000000005,-9.854581,-0.101554394,1002.58826,0,0
77.92,0.30412233,-9.825981,-0.11575964,1002.61096,0,0
77.96,0.35189027,-9.897479,-0.19151288,1002.59576,0,0
78.0,0.2562701,-9.864112,-0.11103022,1002.5932,0,0
78.04,0.17020954,-9.816446,-0.03528193,1002.5907,0,0
78.08,0.28012097,-9.897477,-0.054221746,1002.64124,0,0
78.12,0.20362605,-9.825977,-0.06369221,1002.6059,0,0
78.16,0.2322747000000001,-9.849811,-0.08263261599999999,1002.61096,0,0
78.2,0.25615716,-9.878409,-0.0116180405,1002.60333,0,0
78.24,0.27524626,-9.8688755,-0.08263689,1002.6084,0,0
78.28,0.31824642,-9.8164425,-0.016356867,1002.64886,0,0
78.32,0.32777740000000005,-9.87364,0.030984575,1002.6464,0,0
78.36,0.3898908,-9.868874,-0.01162729,1002.63116,0,0
78.4,0.4185515,-9.873639,-0.016363349,1002.6436,0,0
78.44,0.4041835,-9.792607,-0.025834758,1002.6463,0,0
78.48,0.4901958,-9.854572,-0.025836967,1002.6262,0,0
78.52,0.5529491,-9.816455,-0.0021085814,1002.61597,0,0
78.56,0.47647363,-9.883187,-0.035249297,1002.62604,0,0
78.6,0.48603427,-9.859354,0.0073604435,1002.63116,0,0
78.64,0.48603588,-9.787856,0.0026261806,1002.60834,0,0
78.68,0.44779837,-9.854588,-0.030514564,1002.63354,0,0
78.72,0.44302,-9.859354,-0.01631122,1002.6134,0,0
78.76,0.46691996,-9.902253,0.04050172,1002.6388,0,0
78.8,0.48604047,-9.849821,-0.011576604,1002.60333,0,0
78.84,0.58641756,-9.816455,-0.044717323,1002.60077,0,0
78.88,0.49560255,-9.887954,-0.09679565,1002.61084,0,0
78.92,0.4812644,-9.821222,-0.03998271,1002.61084,0,0
78.96,0.41912824,-9.825988,-0.03524818,1002.6338,0,0
79.0,0.333093,-9.821222,-0.044716883,1002.6061,0,0
79.04,0.33787399999999995,-9.911787,-0.021044746,1002.6084,0,0
79.08,0.21360044,-9.873653,0.10204992,1002.6159,0,0
79.12,0.20882188,-9.90702,0.11625324,1002.6235,0,0
79.16,0.23272206,-9.783089,0.12098777,1002.64136,0,0
79.2,0.22316386,-9.849821,0.16359752,1002.61115,0,0
79.24,0.2996419,-9.89272,0.19673844,1002.5932,0,0
79.28,0.16102879,-9.883187,0.10205047,1002.61847,0,0
79.32,0.08455317,-9.806923,0.040503312,1002.6084,0,0
79.36,0.27096707,-9.8545885,-0.101528674,1002.6386,0,0
79.4,0.46694005,-9.873653,-0.106263,1002.6338,0,0
79.44,0.6151151999999999,-9.811688,-0.054184403,1002.6411,0,0
79.48,0.7824095999999999,-9.845056,-0.09679395,1002.6159,0,0
79.52,0.77775836,-9.849825,-0.12045421,1002.6209,0,0
79.56,0.8590209999999999,-9.859358,-0.09204723,1002.6312,0,0
79.6,0.57701886,-9.864124,0.12100156,1002.60077,0,0
79.64,0.15640204,-9.935623,0.18254937,1002.6134,0,0
79.68,-0.37414986,-9.964222,0.29144126,1002.6134,0,0
79.72,-0.65137255,-9.864125,0.36245787,1002.61865,0,0
79.76,-0.3120001,-9.778327,0.3151144,1002.6363,0,0
79.8,0.056051135,-9.887958,0.2109581,1002.6386,0,0
79.84,0.42888176,-9.797394,0.0925985,1002.6436,0,0
79.88,0.69655794,-9.81646,-0.092042625,1002.63617,0,0
79.92,0.73002255,-9.80216,-0.16305815,1002.64136,0,0
79.96,0.79694736,-9.811694,-0.15358865,1002.6386,0,0
80.0,0.7921727,-9.907025,-0.14885378,1002.64124,0,0
80.04,0.94991213,-9.787862,-0.20093168,1002.64386,0,0
80.08,0.9594777,-9.792628,-0.19146234,1002.64136,0,0
80.12,1.0455209,-9.792628,-0.12991446,1002.6209,0,0
80.16,1.0311874,-9.778328,-0.12044509,1002.62854,0,0
80.2,0.94993716,-9.811695,-0.05416285,1002.65393,0,0
80.24,0.8352282,-9.806929,-0.039959054,1002.6288,0,0
80.28,0.70618105,-9.778329,-0.03048953,1002.5833,0,0
80.32,0.6344887,-9.859361,0.0026517138000000003,1002.62854,0,0
80.36,0.5484585999999999,-9.840294,0.073668376,1002.6237,0,0
80.4,0.54846495,-9.840295,-0.0020815171,1002.5858,0,0
80.44,0.6010491,-9.835529,0.06893514,1002.60333,0,0
80.48,0.49589944,-9.892728,-0.04942446,1002.6136,0,0
80.52,0.4624471,-9.878428,-0.106236726,1002.6338,0,0
80.56,0.44811368,-9.845062,-0.039954524,1002.61865,0,0
80.6,0.4767989,-9.859362,-0.054157134,1002.6011,0,0
80.64,0.48636514,-9.88796,-0.073094144,1002.5959,0,0
80.68,0.44256645,-9.845043,-0.011618335,1002.6237,0,0
80.72,0.5524811,-9.8688755,0.0025829785000000003,1002.6186,0,0
80.76,0.5094420999999999,-9.873641,0.016784292,1002.61096,0,0
80.8,0.58111966,-9.868875,-0.006889522,1002.6363,0,0
80.84,0.65757567,-9.825974,-0.05423547,1002.6464,0,0
80.88,0.75793076,-9.845041,-0.01162773,1002.61615,0,0
80.92,0.7196716,-9.840273,-0.0021608248000000003,1002.6436,0,0
80.96,0.65751463,-9.835507000000002,-0.040037867000000005,1002.6262,0,0
81.0,0.5905765000000001,-9.81644,-0.021102145,1002.6287,0,0
81.04,0.705271,-9.907004,0.007302396,1002.62103,0,0
81.08,0.65267366,-9.8355055,0.054644667,1002.626,0,0
81.12,0.643092,-9.811671,0.016767386000000002,1002.6438,0,0
81.16,0.5952744000000001,-9.845037,-0.011640836000000002,1002.6186,0,0
81.2,0.5856941,-9.878403,0.030966934,1002.64636,0,0
81.24,0.55699444,-9.840269,-0.068457484,1002.6212,0,0
81.28,0.56175345,-9.840268,0.035697512,1002.6363,0,0
81.32,0.5808518,-9.845036,-0.03532045,1002.64136,0,0
81.36,0.6381899999999999,-9.854568,0.03569383,1002.5934,0,0
81.4,0.62860954,-9.864101,0.02148869,1002.63403,0,0
81.44,0.56167156,-9.840266,0.016752396,1002.61865,0,0
81.48,0.6046703,-9.821201,0.06882906,1002.62103,0,0
81.52,0.4947126,-9.845033,0.07356143,1002.60846,0,0
81.56,0.5281518,-9.816433,0.08776288,1002.6262,0,0
81.6,0.54725015,-9.845032000000002,0.07355775,1002.60077,0,0
81.64,0.6045883000000001,-9.830731,0.07355596,1002.62396,0,0
81.68,0.5862885,-9.816452,0.08783418,1002.62646,0,0
81.72,0.6101994000000001,-9.76402,0.08783527,1002.62366,0,0
81.76,0.51461595,-9.859351,0.054695614,1002.62366,0,0
81.8,0.54330754,-9.868885,0.14938486,1002.63403,0,0
81.84,0.53375983,-9.8116865,0.08310428,1002.61115,0,0
81.88,0.50031465,-9.83552,0.064167894,1002.6186,0,0
81.92,0.54334474,-9.845054,0.08784102,1002.60846,0,0
81.96,0.50989807,-9.835521,0.03102925,1002.6212,0,0
82.0,0.45255387,-9.84982,0.054702505,1002.6337,0,0
82.04,0.49080497,-9.873653,0.059438065,1002.60333,0,0
82.08,0.45735902,-9.806922,0.049970392,1002.6186,0,0
82.12,0.46215147,-9.835522,0.021565143,1002.60596,0,0
82.16,0.47650284,-9.868888,0.0925823,1002.6061,0,0
82.2,0.56733173,-9.845056,0.04997381,1002.59576,0,0
82.24,0.56734365,-9.8545885,0.016834063,1002.644,0,0
82.28,0.56735635,-9.816457000000002,0.049976077,1002.6363,0,0
82.32,0.5530295999999999,-9.802157,0.08311806599999999,1002.63385,0,0
82.36,0.56260115,-9.873655,0.031040708,1002.644,0,0
82.4,0.5195955,-9.840289,0.05944828,1002.62103,0,0
82.44,0.49092937,-9.859357,0.068918265,1002.59576,0,0
82.48,0.47660267,-9.88319,0.12573226,1002.6363,0,0
82.52,0.48617417,-9.835525,0.031045273,1002.61615,0,0
82.56,0.59134334,-9.806926,0.0263121,1002.60345,0,0
82.6,0.6869513,-9.916556,0.049985208,1002.6164,0,0
82.64,0.6582859999999999,-9.845058,0.031048834,1002.6189,0,0
82.68,0.6290458000000001,-9.849812,0.030997444,1002.60846,0,0
82.72,0.6099164,-9.873644,0.04046532,1002.61115,0,0
82.76,0.66726387,-9.835511,0.035729997,1002.6061,0,0
82.8,0.5907775,-9.854577,0.030994736,1002.61115,0,0
82.84,0.58120775,-9.825977,-0.011615861000000002,1002.61127,0,0
82.88,0.60509664,-9.811678,0.04519605,1002.5934,0,0
82.92,0.67200375,-9.911776,-0.04949296,1002.62103,0,0
82.96,0.5620588000000001,-9.806911,-0.011618599,1002.6214,0,0
83.0,0.58594763,-9.825976,0.04045893,1002.6313,0,0
83.04,0.6146169,-9.845043,0.040458046,1002.63654,0,0
83.08,0.5429096999999999,-9.825975,0.05466036,1002.61615,0,0
83.12,0.60025716,-9.883175,0.20616037,1002.6088,0,0
83.16,0.5237702000000001,-9.825975,0.154081,1002.6139,0,0
83.2,0.5763385,-9.8069105,0.08306405,1002.6088,0,0
83.24,0.73406124,-9.859341,0.1398759,1002.61127,0,0
83.28,0.7866303000000001,-9.792609,0.1398751,1002.61115,0,0
83.32,0.67668456,-9.87364,0.08306131,1002.6086,0,0
83.36,0.68623346,-9.868874,0.07359153,1002.61127,0,0
83.4,0.6527646,-9.873639,0.14934106,1002.62366,0,0
83.44,0.61451674,-9.806909,0.106730565,1002.6088,0,0
83.48,0.5236896,-9.806909,0.09252635,1002.5961,0,0
83.52,0.49978113,-9.773542,0.22982322,1002.5961,0,0
83.56,0.3324778,-9.797374,0.28663516,1002.61127,0,0
83.6,0.3229087,-9.825973,0.25822785,1002.6164,0,0
83.64,0.30855912,-9.840272,0.20141406,1002.6189,0,0
83.68,0.4233281,-9.902239,0.35291994,1002.5985,0,0
83.72,0.3468436,-9.935605,0.12566780000000002,1002.61615,0,0
83.76,0.2990384,-9.883173,0.28190252,1002.6189,0,0
83.8,0.3085909,-9.8259735,0.35291794,1002.6212,0,0
83.84,0.21298672,-9.840272,0.25822908,1002.6139,0,0
83.88,0.19386037,-9.883172,0.3197757,1002.6136,0,0
83.92,0.22253157,-9.825973,0.27716535,1002.61127,0,0
83.96,0.19384517,-9.859339,0.34344634,1002.63385,0,0
84.0,0.20817743,-9.83074,0.32924247,1002.61865,0,0
84.04,0.1842703,-9.868871,0.3008353,1002.58356,0,0
84.08,0.28463858,-9.845038,0.25349054,1002.61865,0,0
84.12,0.22249399,-9.868871,0.29609954,1002.62396,0,0
84.16,0.1985874,-9.868871,0.31030208,1002.6542,0,0
84.2,0.17946057,-9.864105,0.3718486,1002.5909,0,0
84.24,0.21769135,-9.887938,0.30083185,1002.6012,0,0
84.28,0.16510637,-9.88317,0.32450324,1002.6062,0,0
84.32,0.19377716,-9.845037,0.32923692,1002.64154,0,0
84.36,0.21766903,-9.85457,0.34817383,1002.6338,0,0
84.4,0.23200084,-9.859337,0.26768827,1002.6012,0,0
84.44,0.260673,-9.849804,0.3150317,1002.6189,0,0
84.48,0.17940824,-9.887936,0.3481718,1002.63385,0,0
84.52,0.3562534,-9.840269,0.38131192,1002.6164,0,0
84.56,0.25109005,-9.82597,0.33870164,1002.60345,0,0
84.6,0.21284448,-9.849803,0.29135690000000003,1002.6365,0,0
84.64,0.24629553,-9.806905,0.30555946,1002.60864,0,0
84.68,0.24176319,-9.878408,0.3481917,1002.6338,0,0
84.72,0.20830707,-9.887941,0.3150511,1002.6366,0,0
84.76,0.23220883,-9.854575,0.3387234000000001,1002.6189,0,0
84.8,0.18441315,-9.859342,0.37659886,1002.6062,0,0
84.84,0.22265412,-9.854575,0.29611420000000005,1002.6415,0,0
84.88,0.28479390000000004,-9.91654,0.24877036,1002.61615,0,0
84.92,0.34215397,-9.835509,0.277177,1002.6262,0,0
84.96,0.32781726,-9.883175,0.24403644,1002.63135,0,0
85.0,0.28958136,-9.926074,0.2819119,1002.6212,0,0
85.04,0.28480409999999995,-9.84981,0.2677089,1002.6363,0,0
85.08,0.28480643,-9.84981,0.28191236,1002.61865,0,0
85.12,0.30870783,-9.83551,0.24403732,1002.62646,0,0
85.16,0.30871040000000005,-9.797378,0.30558482,1002.64636,0,0
85.2,0.30393332,-9.730646,0.33399153,1002.6063,0,0
85.24,0.33261466,-9.749712,0.53757113,1002.61865,0,0
85.28,0.21790157,-9.892709,0.57544655,1002.6136,0,0
85.32,0.13664763,-9.821211,0.40027386,1002.6061,0,0
85.36,0.2848239,-9.945141,0.22983548,1002.6212,0,0
85.4,0.3756429,-9.887942,0.21563251,1002.639,0,0
85.44,0.5142595999999999,-9.902242,0.27718002,1002.6061,0,0
85.48,0.32784975,-9.86411,0.1304137,1002.6012,0,0
85.52,0.4234482,-9.830744,0.07833544,1002.6139,0,0
85.56,0.36131346,-9.892709,0.0878045,1002.61115,0,0
85.6,0.34219646,-9.878409,0.10674231,1002.6291,0,0
85.64,0.28006166,-9.8688755,0.07360175,1002.6517,0,0
85.68,0.21359120000000004,-9.806922,0.19673714,1002.63135,0,0
85.72,0.2996505,-9.864121,0.102051154,1002.62897,0,0
85.76,0.27099198,-9.825989,0.06891216,1002.6338,0,0
85.8,0.16585533,-9.840289,-0.006836571,1002.6139,0,0
85.84,0.25669187,-9.883189,0.03104053,1002.62396,0,0
85.88,0.23759295,-9.859357,0.19201216,1002.61865,0,0
85.92,0.22327255,-9.864123,0.04524735,1002.6341,0,0
85.96,0.146816,-9.873657,0.10679647,1002.6086,0,0
86.0,0.18985449,-9.797393,0.14940798,1002.63916,0,0
86.04,0.21377249,-9.878426,0.18255055,1002.6139,0,0
86.08,0.14687683,-9.868892,0.19202133,1002.63153,0,0
86.12,0.15167566,-9.868893,0.121006995,1002.6288,0,0
86.16,0.19949396,-9.835527,0.15414968,1002.61115,0,0
86.2,0.17561527,-9.835528,0.21569881,1002.6187,0,0
86.24,0.1278375,-9.802162,0.1588878,1002.63135,0,0
86.28,0.17087476,-9.80693,0.21096799,1002.60864,0,0
86.32,0.14699475,-9.811696,0.22990733,1002.6061,0,0
86.36,-0.1110944,-9.764031,0.38614458,1002.6493,0,0
86.4,-0.12063243,-9.830764,0.55658513,1002.6139,0,0
86.44,-0.06325576,-10.00236,0.17783448,1002.64417,0,0
86.48,0.19965373,-9.964228,0.3293373,1002.6291,0,0
86.52,0.22835286,-10.021427,0.21097903,1002.6338,0,0
86.56,0.328749,-9.845066,0.3956227000000001,1002.64667,0,0
86.6,0.07543591,-9.859365,0.43349943,1002.6163,0,0
86.64,0.018101051,-9.859366,0.42403272,1002.6416,0,0
86.68,0.02216655,-9.864115,0.4050297,1002.6441,0,0
86.72,0.06995627,-9.845049,0.30560645,1002.6366,0,0
86.76,0.15120403,-9.8402815,0.23458953,1002.6265,0,0
86.8,0.16075476,-9.878414,0.3766209,1002.6214,0,0
86.84,0.1607459,-9.835515,0.27719757,1002.6366,0,0
86.88,0.050801516,-9.907013,0.21091506,1002.624,0,0
86.92,0.06513201,-9.835515,0.26772714,1002.62897,0,0
86.96,0.079463094,-9.84028,0.29139838,1002.6089,0,0
87.0,0.12725227,-9.849813,0.2345847,1002.6114,0,0
87.04,0.18938084,-9.816447,0.17777105,1002.6265,0,0
87.08,0.20371194,-9.897479,0.18723908,1002.6368,0,0
87.12,0.103326604,-9.854579,0.23458226,1002.6491,0,0
87.16,0.15111633,-9.840279,0.2109095,1002.6163,0,0
87.2,0.12720839999999994,-9.883179,0.20143986,1002.62646,0,0
87.24,0.15587889,-9.830747,0.19197029,1002.63403,0,0
87.28,0.12719117,-9.878412,0.18723506,1002.6265,0,0
87.32,0.15586112,-9.845045,0.17776546,1002.6291,0,0
87.36,0.14151339,-9.892711,0.1824991,1002.61896,0,0
87.4,0.16062425,-9.76878,0.20617035,1002.6265,0,0
87.44,0.15105467,-9.845045,0.059402898,1002.62646,0,0
87.48,0.22752266,-9.878411,0.08307409,1002.6189,0,0
87.52,0.26097345,-9.87841,0.12568302,1002.6189,0,0
87.56,0.23228581,-9.887943,-0.011615507,1002.62897,0,0
87.6,0.1653591,-9.845044,0.1872286,1002.624,0,0
87.64,0.18925034,-9.89271,0.15408707,1002.6013,0,0
87.68,0.16524629999999998,-9.868874,0.15881187,1002.6012,0,0
87.72,0.16523363,-9.907006,0.14460748,1002.5937,0,0
87.76,0.17478131,-9.806909,0.08305913,1002.62146,0,0
87.8,0.14609061,-9.835507000000002,0.1351365,1002.6088,0,0
87.84,0.15085773,-9.892706,0.15880737,1002.6441,0,0
87.88,0.16040467,-9.864106,0.19194703,1002.63403,0,0
