Timestamp,Ax,Ay,Az,P,LPFRMSAcc,LPFPValue,Value,Type
0.0,1.7604308000000002,5.0730233,9.674928,1005.0655,0.02299861099404438,3.6182358,0,0
0.02,1.3971441,5.0539575,8.5055275,1005.078,0.06400520759995992,10.420564104,0,0
0.04,1.435361,5.0539580000000015,8.704371,1005.0931,0.12114002618223199,20.01192252264,0,0
0.06,0.9477888,4.7202997,8.49132,1005.08,0.1914766298880104,32.0330919002688,0,0
0.08,0.8665214,4.6583343,8.377692999999999,1005.068,0.2729414976895104,46.15792283150064,0,0
0.1,0.8282721,4.6488023,8.434505,1005.1154,0.3640323912753461,62.09087036014369,0,0
0.12,0.9716447,4.725067,8.396627,1005.0705,0.4633369432571375,79.56394946315616,0,0
0.14,0.97640294,4.8775973,8.140967,1005.0875,0.5692438282242348,98.33504694051062,0,0
0.16,1.1627936,4.8251657,8.401358,1005.128,0.6810553433320707,118.1856433025152,0,0
0.18,1.0623963,4.6106715,8.543387,1005.1026,0.797698627763067,138.91853129209335,0,0
0.2,1.1723101,4.610672,8.391885,1005.1076,0.917942941111084,160.3563917670331,0,0
0.22,1.186628,4.501042,8.803776,1005.09283,1.0415848064746756,182.3399364603285,0,0
0.24,1.148368,4.620206400000002,8.159895,1005.12067,1.1667206189004329,204.72660719206715,0,0
0.26,1.1435667,4.8776007,8.051002,1005.1051,1.2927993864867091,227.38883202474,0,0
0.28,1.0575086,5.139762,8.169360000000001,1005.1256,1.4197292742530905,250.21302625160058,0,0
0.30000000000000004,1.5880454,4.9967656,9.1067705,1005.1276,1.5486144362731429,273.09817673594887,0,0
0.32,1.0526857,3.8956919,10.309307,1005.088,1.6799329321831529,295.95465906766964,0,0
0.34,0.7228469,4.701241,7.279285000000002,1005.07007,1.8079915070868384,318.70346233533445,0,0
0.36000000000000004,0.7037062,5.2112627,7.9705059999999985,1005.09265,1.93448230343192,341.2753059782359,0,0
0.38,0.78495204,5.182663400000001,7.6485660000000015,1005.0976,2.058557678914466,363.60954727958193,0,0
0.4,0.8375083000000001,4.4915137000000005,7.5728135,1005.1352,2.1791625202291014,385.6535752432448,0,0
0.42,0.7801399,4.0148582,8.585975,1005.1352,2.2976508548443766,407.36181220106164,0,0
0.44,0.88048357,3.6383011,10.541282,1005.1026,2.4173256882249294,428.6950772130648,0,0
0.46,0.9433723,3.9719417,9.731767,1005.09265,2.5363027605220374,449.6201814397037,0,0
0.48,0.6565929,4.157837000000002,8.287774,1005.1081,2.6516205009266955,470.10936004117895,0,0
0.5,0.62793183,4.462896,8.155211999999999,1005.1051,2.763335863581232,490.13958291729415,0,0
0.52,1.0151048,4.558227,8.567105999999999,1005.11554,2.8723795321941616,509.6922012961274,0,0
0.54,1.1011456,4.439063,9.0736885,1005.1377,2.9795095721942944,528.7524986909982,0,0
0.56,1.0533565,4.3055987,9.585005,1005.1201,3.085392624735868,547.3091008338185,0,0
0.5800000000000001,0.72355896,4.219801,9.168379,1005.1051,3.1888749373328293,565.3537800842129,0,0
0.6,0.025716498,4.062505000000002,8.983737,1005.1256,3.2893247976982174,582.8812372215582,0,0
0.62,0.020945549,4.3580303,8.486625,1005.1051,3.3860696861233968,599.8885042541187,0,0
0.64,0.020954475,4.577292,9.504522,1005.1273,3.4812899515064317,616.3749850687743,0,0
0.66,-0.16066921,4.1197023,9.641822,1005.1122,3.5746892999712223,632.3418934903567,0,0
0.68,0.20738901,3.91474,9.816996,1005.1226,3.6663190580783778,647.7922643151014,0,0
0.7000000000000001,0.27909052,3.8051093,9.67023,1005.10254,3.755691372251377,662.7305289683114,0,0
0.72,0.38903046,3.7717433,9.532932,1005.0947,3.8424639107884166,677.162490631602,0,0
0.74,0.7092861999999999,3.8909073,9.1494465,1005.0776,3.9260206867995295,691.0950663510118,0,0
0.76,0.8765927,3.843241200000002,8.311458,1005.0771,4.004837276665609,704.5362255778184,0,0
0.78,0.6519508,3.843241,8.586053999999999,1005.10254,4.079661092435981,717.4948726025449,0,0
0.8,0.5563591,4.014837,8.335131,1005.1122,4.150352601358915,729.9805554922239,0,0
0.8200000000000001,0.5993906,4.5820565,8.818042,1005.1173,4.218566508722936,742.0033971737723,0,0
0.84,0.5181384,4.458126,9.045293,1005.10223,4.284640858304979,753.5739358817627,0,0
0.86,0.2600423,4.4438260000000005,9.016889,1005.1301,4.348500074118813,764.7032660749687,0,0
0.88,0.30784482,4.4771914000000015,9.125779,1005.1045,4.410408500568302,775.4025866758159,0,0
0.9,0.52772474,4.2817626,9.528205,1005.0922,4.470972733129192,785.6833889666914,0,0
0.92,0.50861436,4.148299,9.353033,1005.0971,4.529684227474547,795.5573952306288,0,0
0.94,0.50862324,4.186431,8.107885000000001,1005.0972,4.584250052413168,805.0364104626137,0,0
0.96,0.4564091,3.9766939,8.4961405,1005.0971,4.63548170443458,814.13228680393,0,0
0.98,0.5137895,4.0624914,8.477203999999999,1005.1273,4.683629707319688,822.8569851866232,0,0
1.0,0.9487745,4.3294177000000005,8.742333,1005.11694,4.729684570550893,831.2222645148987,0,0
1.02,0.81497425,4.529612,9.760234,1005.1372,4.7757802682154855,839.2399190971097,0,0
1.04,0.9631596,4.791773,9.637139,1005.1001,4.821776849219841,846.9214153372017,0,0
1.06,0.6907449999999999,4.672608,8.671324,1005.1076,4.8655844264246015,854.278255679733,0,0
1.08,0.38008058,4.1149206,9.130563,1005.0947,4.9076074202651725,861.3216990059465,0,0
1.1,0.19367965,3.9814565,8.841766,1005.0846,4.947230086606601,868.0628319725673,0,0
1.12,-0.016608879,4.1482854,8.0132475,1005.1097,4.9831853083888795,874.5126657867723,0,0
1.14,-0.32249352,4.0338873999999985,8.226298,1005.1095,5.016070752488244,880.6818875481715,0,0
1.16,-0.29379190000000005,4.0148206,8.614521,1005.1173,5.0468339046133,886.5809793813702,0,0
1.18,0.06471625,4.3008137,9.277339,1005.112,5.077101877188119,892.220128599412,0,0
1.2,0.87731725,4.6154056,9.8833475,1005.1527,5.108313970789748,897.6094381055154,0,0
1.22,0.5236345,3.9766862,9.59455,1005.1145,5.139117403222583,902.7584502079287,0,0
1.24,0.6001342,3.7431245,9.594552,1005.11475,5.1692765731974415,907.6765999808723,0,0
1.26,0.6383840000000001,3.7621908,9.33416,1005.09424,5.198275133966,912.3729806243146,0,0
1.28,0.85827774,3.8718207,8.865458,1005.102,5.225370595755716,916.8565270306124,0,0
1.3,0.91564685,3.8718207,8.699753999999999,1005.1123,5.250384104564319,921.1359094179072,0,0
1.32,0.8965619,4.029116,8.321003999999999,1005.10443,5.2728904959487926,925.2194583694161,0,0
1.34,0.9396029,4.1816454,8.193177,1005.0944,5.293013159389745,929.1152320128392,0,0
1.36,1.0686691,4.343707599999999,8.2736635,1005.1095,5.311287653991375,932.8311169689224,0,0
1.38,1.0113456,4.5963345,8.614545,1005.10944,5.328717131877061,936.3746748790288,0,0
1.4,0.7006698,4.4581040000000005,8.552999,1005.1173,5.345034285124652,939.7532360988343,0,0
1.42,0.6672455,4.372305,9.064317,1005.10693,5.3611730170852825,942.973806090699,0,0
1.44,0.61945885,4.3246400000000005,8.912817,1005.1095,5.376763684127276,946.043190233584,0,0
1.46,0.20286779,4.3341904000000016,8.164713,1005.10944,5.390400741558875,948.9679365613961,0,0
1.48,0.1120439,4.267459400000001,8.477182,1005.1069,5.402772474897443,951.7543426850301,0,0
1.5,0.121595874,3.790804,9.064248,1005.1195,5.414676617565956,954.4085257022066,0,0
1.52,0.5852255000000001,3.3904133,9.703392,1005.132,5.4271006619693765,956.936366323656,0,0
1.54,0.93892723,3.6335082,10.11055,1005.1069,5.440956315911016,959.3433802180037,0,0
1.56,1.4551382,4.1006307999999985,9.300966,1005.09924,5.454954251262313,961.6349387902644,0,0
1.58,1.6558787,4.000533,8.974292,1005.10693,5.468395070792963,963.8162591130687,0,0
1.6,1.5841777,4.1292305,8.756508,1005.1044,5.480974911311509,965.8923110574921,0,0
1.62,1.4646752,4.524854,8.325677,1005.10913,5.4922879619996205,967.8678911037773,0,0
1.64,1.3117138000000002,4.6297193,8.6476145,1005.1168,5.503080944762926,969.7476097047012,0,0
1.66,0.79070765,4.2722273,8.99796,1005.13434,5.513574552881391,971.5359212895407,0,0
1.68,0.63296264,4.162597,9.7365265,1005.12933,5.525045968343538,973.2370096772627,0,0
1.7,0.6998723000000001,3.9671683,9.812276,1005.1143,5.53733823561742,974.8548496218157,0,0
1.72,0.59470904,3.7622068,9.206272,1005.07874,5.548973175784697,976.393179002184,0,0
1.74,0.6663984000000001,3.9481027,8.529251,1005.10925,5.55886138684857,977.8558246982698,0,0
1.76,0.8384638000000001,4.038667,8.718627,1005.1218,5.567633711341967,979.2463759464173,0,0
1.78,0.9436156,4.157831,8.945878,1005.1271,5.575938857525385,980.5682376358733,0,0
1.8,1.04398,4.3866260000000015,9.0358305,1005.0916,5.584193130985821,981.8245187291873,0,0
1.82,0.8766832,4.324661,9.092643,1005.07623,5.59239010278172,983.0182748638147,0,0
1.84,0.90057844,4.3627934,9.07844,1005.13184,5.600518822850667,984.1526866188617,0,0
1.86,0.9435813,4.2245636,9.409845,1005.1189,5.609067619184848,985.2305312137934,0,0
1.88,0.9435813,4.2245636,9.409845,1005.1016,5.617956819240189,986.2544505455052,0,0
1.9,0.86231333,4.1673656,8.524511,1005.08655,5.625389705239713,987.226981225042,0,0
1.92,0.7475904999999999,4.343728,8.041601,1005.086,5.630766089354903,988.1506018010707,0,0
1.94,0.66736084,4.2817373,8.221602,1005.1243,5.634562555801747,989.0278182555656,0,0
1.96,0.9685226999999998,4.481932,8.619296,1005.12885,5.637924899208231,989.8608904290377,0,0
1.98,0.33284312,4.019575,9.031193,1005.1191,5.641157218576982,990.6519225559724,0,0
2.0,0.20380552,3.9814427,9.002789,1005.1163,5.6441696478664865,991.4029503021308,0,0
2.02,0.43328756,4.5152955000000015,8.789744,1005.1192,5.647070829090833,992.1159369175487,0,0
2.04,0.33292872,4.5295944000000015,8.799214,1005.1163,5.649886264269633,992.7927331980287,0,0
2.06,0.4763571,4.496228,9.054875,1005.10846,5.653070403562532,993.435087007948,0,0
2.08,0.9878475,4.500993299999998,9.670353,1005.1011,5.657797675494376,994.044668481164,0,0
2.1,1.0356798,4.4294944,9.187447,1005.076,5.662914874626982,994.6230074643654,0,0
2.12,1.1360728,4.500992299999999,8.8229,1005.0838,5.6677713870327615,995.1716866430504,0,0
2.14,1.3416386,4.7917514,8.027522,1005.1063,5.671289023671577,995.6922641734217,0,0
2.16,1.2221949,4.6964190000000015,8.11748,1005.1063,5.673637533198595,996.1861370082332,0,0
2.18,0.9211014,4.4104247,8.226376,1005.1138,5.674782341294721,996.6546626318433,0,0
2.2,0.8637781999999999,4.4914556,8.609865,1005.11847,5.675628239318763,997.0991215793904,0,0
2.22,0.8637781999999999,4.4914556,8.609865,1005.11115,5.676206975170218,997.520688807757,0,0
2.24,0.8303708000000001,4.486687,9.267952,1005.1264,5.6777550974426125,997.9205661710339,0,0
2.26,0.8877627,4.6249166,8.7566395,1005.09106,5.679348554044457,998.2997115870096,0,0
2.28,1.0551071,4.6916475,8.358953999999999,1005.09863,5.680354497213237,998.6592005828528,0,0
2.3,1.0981425,4.68688,8.316346000000001,1005.0959,5.6807661650994135,999.0000171774814,0,0
2.32,1.2846062,4.7583769999999985,8.179052,1005.0981,5.680527017681893,999.3231158186563,0,0
2.34,1.3180991000000002,4.90614,8.221666,1005.09796,5.679953184670023,999.6293952170512,0,0
2.36,1.2416394,4.8298745,8.358965,1005.0981,5.67922908143116,999.9197110306917,0,0
2.38,0.8784258,4.3675169999999985,8.624096,1005.11816,5.678319233581085,1000.1949484999136,0,0
2.4,0.90235895,4.4008822,8.799273,1005.08514,5.677607992407535,1000.4557530171187,0,0
2.42,0.8736972,4.443781,8.543614999999999,1005.0624,5.676638330466683,1000.7027838176596,0,0
2.44,0.56201386,4.9347606,7.852302000000001,1005.08014,5.674657032500264,1000.9368187152736,0,0
2.46,0.46641016,4.9156947,8.884402,1005.133,5.673603815536299,1001.1587182034303,0,0
2.48,0.18917386,4.558203,9.651374,1005.07764,5.674436412830862,1001.3688967096336,0,0
2.5,0.37557864,4.6726003,8.770774000000001,1005.11053,5.67541417916908,1001.56808031756,0,0
2.52,0.624117,3.933785,9.485668,1005.09015,5.677229762024428,1001.7567584043803,0,0
2.54,0.67191124,3.900419,8.837055,1005.07263,5.6785214837463975,1001.9354114996393,0,0
2.56,1.0829666999999998,4.386607,8.164767999999999,1005.09265,5.678615517581482,1002.1046354332112,0,0
2.58,1.0972986,4.4247403,8.160032000000001,1005.08264,5.6776831986413105,1002.264882517356,0,0
2.6,1.11641,4.8823300000000005,8.065344,1005.0698,5.676152350115059,1002.4165745438437,0,0
2.62,1.2598003999999998,5.0872917,8.2073765,1005.1051,5.674605598830923,1002.5602883100903,0,0
2.64,1.0255786,4.734567,9.206334,1005.0975,5.6744327497697675,1002.6964077560297,0,0
2.66,0.9108558,4.2531447,9.684509,1005.1224,5.675917900445052,1002.8254164705395,0,0
2.68,0.8821694,4.1244483,9.561414,1005.08997,5.678517531580835,1002.947560963387,0,0
2.7,0.94429916,4.4819403,8.638204,1005.04926,5.68069390074265,1003.0630539537987,0,0
2.72,1.0016493,4.682136,8.401483,1005.0847,5.6822653444193065,1003.1723814858926,0,0
2.74,0.9012696,4.5725055,8.396749,1005.0896,5.68315803005463,1003.2758852799016,0,0
2.76,0.7817630999999999,4.2960453,8.846516000000003,1005.1072,5.6839924857895125,1003.3739339652803,0,0
2.78,0.85823613,4.248379,9.130579,1005.0898,5.685274578386282,1003.4667469014064,0,0
2.8,0.9586081,4.1959475999999984,9.215798,1005.04926,5.687081147536378,1003.5544534589217,0,0
2.82,0.8964593000000001,4.267446,8.448824,1005.0743,5.68796543282075,1003.6374224206903,0,0
2.84,1.0063833,4.2865129999999985,8.71395,1005.10187,5.6885625260565575,1003.7160058065944,0,0
2.86,1.0254987,4.267446499999998,8.718684,1005.10187,5.688899264720418,1003.7904311974758,0,0
2.88,1.0589497,4.4342766,8.676074,1005.0841,5.689087642873607,1003.8608506805476,0,0
2.9,0.9346673,4.3913774000000005,9.121107,1005.1122,5.689903506798888,1003.9275781933397,0,0
2.92,0.5618350000000001,4.257914,8.841776,1005.1022,5.690571345507189,1003.9907672621472,0,0
2.94,0.53377825,4.5391254,8.458346,1005.09174,5.6906580605701365,1004.0505646252012,0,0
2.96,0.59114474,4.572491599999998,8.609848,1005.09393,5.690547824625909,1004.1071576905454,0,0
2.98,0.55292404,4.543892,8.751881,1005.0816,5.690492667440204,1004.1606713153974,0,0
3.0,0.3808688,4.558191000000001,8.415741,1005.09143,5.689866608604604,1004.2113066855812,0,0
3.02,0.23272143,4.234064,8.728214,1005.1092,5.688998813062955,1004.2592805146074,0,0
3.04,0.17537268,4.124433,8.695072999999999,1005.1039,5.687757400107257,1004.3047108200824,0,0
3.06,0.35224319,4.0529346,8.983874,1005.0868,5.686682480276492,1004.347668559048,0,0
3.08,0.5099855,4.191165,8.912859,1005.0938,5.6857590343874875,1004.3883120903853,0,0
3.1,0.8923877,4.272196,9.135378,1005.0888,5.685517481470367,1004.4267464711496,0,0
3.12,0.457452,4.419957599999999,9.992307,1005.0838,5.687565793518845,1004.4630724826967,0,0
3.14,0.4001121,5.244571700000002,8.302127,1005.0557,5.689327702420819,1004.497303605562,0,0
3.16,0.6773584,5.1730730000000005,8.482036,1005.0813,5.6911005383053075,1004.5296526127456,0,0
3.18,0.7777430999999999,4.891846,8.30213,1005.10114,5.692272559223652,1004.5602935500876,0,0
3.2,0.61047655,4.500988,8.761369,1005.10614,5.693327885820093,1004.5893329295424,0,0
3.22,0.10861494,4.3722900000000005,8.586198,1005.0939,5.6937923359098255,1004.6168085666824,0,0
3.24,0.05126612,4.51052,7.9707255,1005.0908,5.69274085627947,1004.6427924088192,0,0
3.26,0.08952227,4.8584785,8.0843525,1005.0883,5.6909227123836335,1004.6673555590596,0,0
3.28,0.022622705,4.8632445,7.9186505999999985,1005.07794,5.688143662758748,1004.6905376625991,0,0
3.3,0.44326317,4.8298783,8.448905,1005.1005,5.685459318853579,1004.7124972337016,0,0
3.32,0.38592327,4.4390206,9.272694,1005.0857,5.684002354203348,1004.7332442406861,0,0
3.34,0.30468434,4.348455,8.893942,1005.0857,5.682839210687788,1004.7528451367913,0,0
3.36,0.524573,4.710713,8.747177,1005.0905,5.682031478321218,1004.7713800460974,0,0
3.38,0.48635232,4.7631445,8.714038,1005.0701,5.68152809815881,1004.7888328837944,0,0
3.4,0.34775573,4.7345448,8.590945,1005.08014,5.6810306415774185,1004.8053029168016,0,0
3.42,0.4194705,4.7440777,8.903417,1005.098,5.681125975120647,1004.8209095474664,0,0
3.44,0.29506248,4.672582,8.931811,1005.088,5.681718417747807,1004.835661091951,0,0
3.46,0.20425753,4.4962196,9.244283,1005.09045,5.683157939617543,1004.8496127967264,0,0
3.48,0.20425753,4.4962196,9.244283,1005.0855,5.685340758427287,1004.862789716998,0,0
3.5,0.34289443,4.5867834,8.841861,1005.1027,5.687517621000239,1004.8752965207684,0,0
3.52,0.3046673,4.5200515,8.671424,1005.0955,5.689300699740731,1004.8871402651056,0,0
3.54,0.36203063,4.524818,8.676159,1005.11255,5.69074677168084,1004.8984168726472,0,0
3.56,0.48153704,4.5963163,8.680894,1005.07495,5.691978301725618,1004.9090164023296,0,0
3.58,0.5389059,4.605849,8.775584,1005.06494,5.693205081089068,1004.9189434717084,0,0
3.6,0.5293633000000001,4.6201477,8.387363,1005.1002,5.693726588654324,1004.9283675537132,0,0
3.62,0.6632034000000001,4.67258,8.775586,1005.08246,5.694400018297388,1004.9372494053796,0,0
3.64,0.66799456,4.615381,8.841867,1005.06476,5.695272197941611,1004.9455564476524,0,0
3.66,0.6058684,4.539116,9.031245,1005.08215,5.696586182980846,1004.9533882869932,0,0
3.68,0.7301546,4.7107115,8.676167,1005.1,5.697815202997216,1004.9608363024016,0,0
3.7,0.5341996,4.853708,8.58148,1005.09717,5.698910677608067,1004.967908170128,0,0
3.72,0.897476,4.9013734000000015,9.589909,1005.08435,5.7018248757605985,1004.9745760630383,0,0
3.74,0.75886726,4.7154775,9.6988,1005.09973,5.706343591678502,1004.980918367387,0,0
3.76,0.7301941,4.7107105,9.542565,1005.05194,5.711964399693394,1004.9867781053869,0,0
3.78,0.5868113,4.8966064000000005,8.03229,1005.0769,5.7159582681088645,1004.9922802087042,0,0
3.8,0.49600637,4.6249123,8.269012,1005.09717,5.718629170364356,1004.997519470444,0,0
3.82,0.47212982,4.524814,8.382639999999999,1005.07385,5.720225609917039,1005.0024236720236,0,0
3.84,0.48647493,4.548647,8.477329,1005.08435,5.721064931204009,1005.0070519593204,0,0
3.86,0.54384387,4.55818,8.998114999999997,1005.0995,5.722206145260286,1005.011474326922,0,0
3.88,0.43869382,4.529579599999999,8.865552000000003,1005.08435,5.723327103659571,1005.015644283358,0,0
3.9,0.5582059,4.796507,8.439457,1005.0864,5.723923098568102,1005.0195835774446,0,0
3.92,0.51041913,4.820339,8.325832,1005.0761,5.723867674839879,1005.0232677968207,0,0
3.94,0.6347053,4.963336,8.534147,1005.0514,5.723774759028977,1005.0266244489932,0,0
3.96,0.658845,4.9776297,8.562576,1005.0634,5.723718198245558,1005.029722778836,0,0
3.98,0.46767318,5.039594,8.43475,1005.1142,5.7235080924942885,1005.0327645810817,0,0
4.0,0.46769345,5.106325599999999,8.534173,1005.0985,5.723411333645,1005.035688965054,0,0
4.02,0.54418045,5.0252940000000015,8.822973,1005.1087,5.7238559959065975,1005.0385357904573,0,0
4.039999999999999,0.52987146,5.1063247,8.808773,1005.11896,5.7248341274720325,1005.0413407725383,0,0
4.06,0.45341492,5.0824914,8.733025,1005.1014,5.726111586846683,1005.044035467924,0,0
4.079999999999999,0.26702285,4.858463,8.946073,1005.0811,5.727792816145918,1005.0465499330825,0,0
4.1,0.29571182,4.8298625999999985,8.818245,1005.0657,5.729564810047751,1005.0488406547372,0,0
4.119999999999999,0.37699896,4.710698000000002,8.671481,1005.06824,5.731030150348723,1005.0509345740339,0,0
4.14,0.42958695,4.7535973,8.430028,1005.0936,5.731828194288753,1005.0529383566583,0,0
4.159999999999998,0.53476286,4.8727603,8.155435,1005.0959,5.731675938635592,1005.0548635609014,0,0
4.18,0.47264576,4.882292700000002,8.245389,1005.0833,5.730848319485609,1005.0566670425512,0,0
4.199999999999998,0.42487812,4.791728,8.950819000000003,1005.0858,5.730606493233808,1005.0583654775836,0,0
4.22,0.3723104,4.7917275,8.808788,1005.07574,5.7306192411659875,1005.0599287630592,0,0
4.239999999999998,0.2815246,4.810793,8.680962,1005.0754,5.7306370057082425,1005.0613657785582,0,0
4.26,0.21461748,4.829859,8.557868,1005.06793,5.730451756715237,1005.0626591566504,0,0
4.2799999999999985,0.20985799,4.8203254,8.538933,1005.10333,5.730043575280162,1005.0639484005687,0,0
4.3,0.50623626,4.925189,8.529466000000001,1005.09033,5.729553217162539,1005.0651825502526,0,0
4.3199999999999985,0.55882424,4.9537883,8.453716,1005.06995,5.7288918810254374,1005.0662902077327,0,0
4.34,0.16213097,4.815557,8.529469500000001,1005.0654,5.7280447654388,1005.0672657291341,0,0
4.3599999999999985,0.36767274,4.915654,8.49633,1005.07733,5.7270915000263445,1005.0681639312196,0,0
4.38,0.511077,5.068184,8.572082,1005.103,5.726356774799267,1005.0690829924298,0,0
4.4,0.5111074000000001,4.801256,9.211229,1005.0829,5.7267086842398465,1005.0699448161424,0,0
4.42,0.51590747,4.801255,8.662041,1005.08966,5.727015816030617,1005.0707772982367,0,0
4.44,0.5923944999999999,4.73929,8.662042,1005.08234,5.727229142513933,1005.0715545051421,0,0
4.46,0.6354641,4.715456,8.619435000000001,1005.0804,5.727263114009153,1005.0722730889446,0,0
4.48,0.82667774,4.915651,8.482141,1005.0648,5.7271236745055365,1005.0728811264728,0,0
4.5,0.85059834,4.9537830000000005,8.420595,1005.08734,5.7267655088724885,1005.0734704403767,0,0
4.52,0.84107107,5.010981,8.496348,1005.0648,5.726408943952867,1005.0739599445571,0,0
4.539999999999999,0.62122166,5.101544400000001,8.008707000000001,1005.102,5.725257096476716,1005.0744934146508,0,0
4.56,0.6308135,5.1253767,8.411133999999999,1005.10706,5.7241425647391235,1005.0750820285324,0,0
4.579999999999999,0.6308135,5.1253767,8.411133999999999,1005.1347,5.723065017502378,1005.075816752456,0,0
4.6,0.20067425,4.6868525000000005,8.775687,1005.1097,5.72219232889242,1005.0765879342056,0,0
4.619999999999999,0.2819417,4.815549400000001,8.76622,1005.0745,5.721617950679589,1005.0772618338364,0,0
4.64,0.2819417,4.815549400000001,8.76622,1005.08716,5.721309227295222,1005.0778929249486,0,0
4.659999999999998,0.60701144,5.115841400000001,8.335392,1005.11475,5.720806422477097,1005.0785832425256,0,0
4.68,0.7504271,5.025275700000001,8.723614999999999,1005.0995,5.720750227935965,1005.0792685074632,0,0
4.699999999999998,0.80301565,5.025275700000001,8.6999445,1005.1117,5.721054787236705,1005.0799907609354,0,0
4.72,0.8221671999999999,4.991909,8.354336,1005.08435,5.7210279752427295,1005.080644637364,0,0
4.739999999999998,0.82218874,4.9347095,8.368541,1005.1017,5.720673293379724,1005.0812982018815,0,0
4.76,0.88912755,4.939476,8.259651,1005.11676,5.719853645273452,1005.0820033539627,0,0
4.7799999999999985,0.9512866,5.0252733,8.150763000000001,1005.08875,5.718538002668698,1005.0826507142676,0,0
4.8,0.8700405999999999,5.039573000000002,8.264389,1005.0892,5.716988837675988,1005.0832462992613,0,0
4.8199999999999985,0.84617394,5.6258589999999975,7.866702,1005.1012,5.715217180916738,1005.0838371914847,0,0
4.84,0.8366359,5.2350005999999984,8.903539,1005.0813,5.7146146931583806,1005.0843501699637,0,0
4.8599999999999985,0.48773175,4.8870416,9.116589,1005.0863,5.715032910791756,1005.084810457136,0,0
4.88,0.4542839,4.9251738,8.699963,1005.0988,5.715628840213758,1005.0852675292357,0,0
4.9,0.46385425,4.9347057,8.534259,1005.0613,5.716091775967133,1005.0855851150377,0,0
4.92,0.70288754,5.0586357,8.307012,1005.1014,5.7161908523804925,1005.0859226674382,0,0
4.94,0.6837791,4.906105,8.463248,1005.0939,5.716082170538218,1005.0862496471367,0,0
4.96,0.5781970000000001,5.01098,8.534225,1005.0883,5.716013039683922,1005.0865459476684,0,0
4.98,0.7359343,5.2159424,8.221753999999999,1005.1138,5.715669380505277,1005.0869058734064,0,0
5.0,0.55908537,5.2016425,8.117598,1005.0958,5.714861808408703,1005.0872559226443,0,0
5.02,0.38223642,5.1301435999999985,8.212287,1005.1359,5.713716098273131,1005.0877403448295,0,0
5.039999999999999,0.36311918,5.1968760000000005,8.396927999999999,1005.14136,5.7126730755328285,1005.0883614110312,0,0
5.06,0.29142588,5.3065066,8.496350999999999,1005.103,5.712015285509082,1005.088962884047,0,0
5.079999999999999,0.23407398,5.258840599999999,8.685728,1005.11334,5.711980447786607,1005.0895821032212,0,0
5.1,0.27709603,5.1635094000000015,8.837228999999997,1005.1109,5.712667705283363,1005.0902059897121,0,0
5.119999999999999,0.4396130999999999,5.3351054000000016,8.496353,1005.0938,5.713581563254095,1005.0907701942523,0,0
5.14,0.2723238,5.239774,8.321178999999999,1005.12085,5.714266486690858,1005.0913770126848,0,0
5.159999999999998,0.26276797,5.068178700000002,8.127069,1005.1056,5.71421505506067,1005.0919644002059,0,0
5.18,0.18629493,4.901349,8.193352,1005.1559,5.713446262999625,1005.092713583979,0,0
5.199999999999998,0.31057364,5.177809,8.264368,1005.12335,5.7124788294685285,1005.0934858538583,0,0
5.22,0.683404,5.3065057,8.529494999999999,1005.12067,5.711986441020822,1005.0942660944502,0,0
5.239999999999998,0.3583812,5.0729440000000015,8.354322,1005.13074,5.711316572492327,1005.095086821097,0,0
5.26,0.39662158,5.0777106,8.344854,1005.11035,5.710483701294284,1005.095866962606,0,0
5.2799999999999985,0.52090025,5.096777,8.591042999999999,1005.1178,5.709980306944632,1005.0966352545782,0,0
5.3,0.5448031,5.2159405,7.980305,1005.11566,5.708827315259132,1005.0973826064484,0,0
5.3199999999999985,0.7885769,5.4542685,8.340119999999999,1005.11035,5.708033931336293,1005.0980896491774,0,0
5.34,0.58782893,5.3684707000000005,8.1696825,1005.11816,5.7071390738983405,1005.0987866453958,0,0
5.3599999999999985,0.64041054,5.4018364000000005,8.723608,1005.12787,5.707170559882789,1005.0995072113308,0,0
5.38,0.4253232,5.1301417,8.406404499999999,1005.11755,5.707140635755318,1005.1002088574304,0,0
5.4,0.47312504,5.09201,8.074996,1005.0978,5.706434702180742,1005.1008201600372,0,0
5.42,0.4826885,4.882281,8.321183999999999,1005.11755,5.7053452940977865,1005.1014205344444,0,0
5.44,0.5787886,4.896569,8.174464,1005.1122,5.703685214653338,1005.1019898313466,0,0
5.46,0.8560414000000001,5.177795,8.0466385,1005.15765,5.701652477056055,1005.1026932386965,0,0
5.48,0.8560534,5.173028,8.335438,1005.1449,5.699797973460709,1005.1034667137717,0,0
5.5,0.5549619,4.9632983,8.406457000000001,1005.1346,5.69796341726169,1005.1042622361784,0,0
5.52,0.5501941,4.958532,8.652646,1005.1499,5.696589183921323,1005.1051294557268,0,0
5.539999999999999,0.58367676,4.9728309999999984,8.813619000000003,1005.1347,5.695935609785567,1005.106002184879,0,0
5.56,0.60282016,5.006196,8.581635,1005.1193,5.695540463299725,1005.1068212004924,0,0
5.579999999999999,0.47380155,4.7726336,8.524826,1005.1117,5.695017559696914,1005.1075624463666,0,0
5.6,0.52639145,4.877498,8.34492,1005.1345,5.694173214887442,1005.108314386414,0,0
5.619999999999999,0.44037902,4.820299,8.254968,1005.1424,5.692817784832169,1005.1091015088492,0,0
5.64,0.35436672,4.772632,8.619518,1005.11176,5.691617508583732,1005.1098065808008,0,0
5.6599999999999975,0.33047968,4.829830599999998,8.4774885,1005.165,5.6903578715737995,1005.1106282786864,0,0
5.68,0.4930172,4.9346943,9.03615,1005.13153,5.690183478267639,1005.1114295771347,0,0
5.6999999999999975,0.43568355,4.9585266,8.832573,1005.1422,5.690617402260551,1005.112248377966,0,0
5.72,0.574334,5.0395575,8.903592,1005.1065,5.691812578403032,1005.1129511762199,0,0
5.7399999999999975,0.6364956,4.9537587,8.643203,1005.1069,5.693126295722473,1005.1135503845226,0,0
5.76,0.49311352,4.8345942000000015,8.515374000000001,1005.0961,5.694170094883474,1005.1140170235948,0,0
5.7799999999999985,0.46447086,4.4294367,9.182929,1005.1469,5.69580609418828,1005.1145477245936,0,0
5.8,0.4788223,4.3674707,9.3439,1005.13934,5.698207566567995,1005.1151059041879,0,0
5.8199999999999985,0.4836383,4.596265,8.57693,1005.1215,5.700066110848414,1005.1156221304224,0,0
5.84,0.4932099,4.639163,8.557993,1005.1362,5.701446876243156,1005.1161523482532,0,0
5.8599999999999985,0.72744435,4.90609,8.505917,1005.1235,5.702606850916518,1005.1166473002753,0,0
5.88,0.4932822,4.6820602,8.94622,1005.12885,5.704114402810093,1005.1171285696007,0,0
5.9,0.41203755,4.639161,8.756845,1005.1186,5.705526594131433,1005.1175591163264,0,0
5.92,0.21608968,4.5533624,8.842067,1005.1108,5.706910961881795,1005.1179152145944,0,0
5.94,0.23523296,4.419898,8.879945,1005.1335,5.708211608041098,1005.1182859682511,0,0
5.96,0.23508666,4.2816715,9.078776,1005.0985,5.709680137343392,1005.1185423366968,0,0
5.98,0.46454388,4.3436365,9.0267,1005.1262,5.711266051474262,1005.1187964314432,0,0
6.0,0.63184595,4.4961658,9.040904,1005.13855,5.713134493531188,1005.1190920624077,0,0
6.02,0.78482634,4.5152316,8.723701,1005.1308,5.714699837163937,1005.1193954305037,0,0
6.039999999999999,0.79439485,4.6010294,8.510653999999999,1005.131,5.715686309498534,1005.1197052630032,0,0
6.06,0.51719284,4.381767,8.169779,1005.1182,5.7152801563810405,1005.1199736120532,0,0
6.079999999999999,0.43595403,4.295969,8.155578,1005.14825,5.713526632413857,1005.12031252027,0,0
6.1,0.46943033,4.281668,8.458581,1005.10785,5.711137556115607,1005.1205671144974,0,0
6.119999999999999,0.44554025,4.324567299999999,8.510661,1005.11786,5.708329834164691,1005.1207823283447,0,0
6.14,0.37386984,4.3483996,8.818399000000003,1005.12286,5.705749617977508,1005.1209799709179,0,0
6.1599999999999975,0.4742635,4.5867267,8.799462,1005.12537,5.703577430166444,1005.1211704120008,0,0
6.18,0.58420783,4.5771932999999985,9.14981,1005.11505,5.702424211123308,1005.121316652258,0,0
6.1999999999999975,0.4312719,4.372231,9.324985,1005.12787,5.702301565701951,1005.1214694622014,0,0
6.22,0.49819803,4.4389625,9.154547,1005.10785,5.7028364939544165,1005.1215554550032,0,0
6.2399999999999975,0.5938119000000001,4.458029,9.154549,1005.095,5.703978472979825,1005.121535838605,0,0
6.26,0.70855385,4.5152264,8.647969,1005.1076,5.704783556873554,1005.1214683365364,0,0
6.2799999999999985,0.65120506,4.5676584,8.349703,1005.1101,5.70478551900896,1005.1213677656972,0,0
6.3,0.3692233,4.4770927,8.004093,1005.1251,5.703327329180747,1005.1212923373473,0,0
6.3199999999999985,0.40269083,4.248298,8.676381,1005.1201,5.701603557240535,1005.1212213964426,0,0
6.34,0.5556711999999999,4.467559,9.064605,1005.12213,5.700590791428608,1005.121161984032,0,0
6.3599999999999985,0.44097364,4.7535524,8.785275,1005.13763,5.699955460963446,1005.1211687720836,0,0
6.38,0.2975973,4.8107505,8.61484,1005.1276,5.699391859245607,1005.1211979224263,0,0
6.4,-0.14211796,4.3388605,9.268189,1005.1301,5.699648083744602,1005.1212557271488,0,0
6.42,0.034752518,4.4151254,9.391286,1005.1374,5.700924807723861,1005.1213649227836,0,0
6.44,0.16793971,4.6677685,8.780488,1005.12506,5.7022009530645565,1005.1214747103244,0,0
6.46,0.28742594,4.8298316,8.179217,1005.0898,5.702552516215105,1005.1214576896384,0,0
6.48,0.28742594,4.8298316,8.179217,1005.1175,5.7020858529151,1005.1214284024776,0,0
6.5,0.6124392,4.9918947,8.444343,1005.13513,5.701574324119696,1005.1214518500932,0,0
6.52,0.8562004000000001,4.810766,9.45277,1005.14795,5.702713624476933,1005.1215679617462,0,0
6.539999999999999,0.8944344000000001,4.696368700000002,9.878867,1005.1276,5.706001392806227,1005.1216922733403,0,0
6.56,0.85618716,4.705902,9.381753,1005.0946,5.71025253022484,1005.1217045828813,0,0
6.579999999999999,0.48334908,4.94423,7.7057724,1005.1176,5.7125079070479154,1005.1217006830929,0,0
6.6,-0.06633725,4.7774005,7.440645,1005.12256,5.7123146790801975,1005.1217003307806,0,0
6.619999999999999,-0.14281853,4.696369,8.018241999999999,1005.1402,5.710895713376553,1005.1217666182868,0,0
6.64,-0.17629048,4.4485087,9.092951,1005.1452,5.710125716269432,1005.1219095501013,0,0
6.6599999999999975,-0.090262875,4.41991,9.244451,1005.102,5.710187149215248,1005.1219641702723,0,0
6.68,0.07702583,4.4628086,9.026669,1005.1148,5.7106146992972775,1005.1219866416427,0,0
6.6999999999999975,0.18217261,4.5629067,8.624243,1005.1327,5.7107172025044965,1005.1220450654356,0,0
6.72,0.3494569,4.772635500000002,8.179208000000001,1005.1677,5.709945240978364,1005.1222610464633,0,0
6.7399999999999975,0.5549795999999999,5.03003,8.3212385,1005.1499,5.708949901071254,1005.1225513875321,0,0
6.76,0.52151656,4.9442315,8.510615,1005.1574,5.708004273390943,1005.1229333879053,0,0
6.7799999999999985,0.35898995,4.9061,8.941444,1005.122,5.707831215420621,1005.1232675632386,0,0
6.8,0.46891654,4.9251666,8.92724,1005.14233,5.70834393317557,1005.1236314653357,0,0
6.8199999999999985,0.46413225,4.8346019999999985,9.234977,1005.1274,5.70993411601926,1005.1239665759532,0,0
6.84,0.36852288,4.715438400000001,8.76627,1005.11444,5.711486689790129,1005.1242283840213,0,0
6.8599999999999985,0.39241302,4.7964697,8.501142,1005.12213,5.712601269004022,1005.124452163448,0,0
6.88,0.24901448,4.763104,8.42539,1005.1245,5.713143894866239,1005.1246500671608,0,0
6.9,0.005231157,4.462811,8.950909,1005.11176,5.713844337746592,1005.1247785306399,0,0
6.92,0.043465123,4.5486093,8.903564,1005.1249,5.714674401033598,1005.1248924782595,0,0
6.94,0.388129,4.8202906,8.780517999999999,1005.1095,5.715669796618816,1005.1249377494546,0,0
6.96,0.48373145,4.853656299999999,8.647953999999999,1005.1472,5.716609332344209,1005.1250578951843,0,0
6.98,0.48853022,4.643927,8.439641,1005.1097,5.716907140356059,1005.1251087675287,0,0
7.0,0.27345175,4.319801,8.558003,1005.1402,5.716522592332756,1005.125208046769,0,0
7.02,0.29735714,4.3674664000000005,8.449113,1005.117,5.7153815699991215,1005.1252662209372,0,0
7.039999999999999,0.5554856,4.6200933,8.662163,1005.1549,5.714235390582438,1005.1254243052373,0,0
7.06,0.41210413,4.605793,8.330755,1005.1098,5.712455157357029,1005.1255077410257,0,0
7.079999999999999,0.41210413,4.605793,8.330755,1005.10175,5.71012108302584,1005.1254959370204,0,0
7.1,0.5172789000000001,4.73449,8.505930000000001,1005.12463,5.707764196135979,1005.1254823896285,0,0
7.119999999999999,0.62244725,4.7773886,8.524869,1005.1195,5.705486096762288,1005.12544888255,0,0
7.14,0.6320196,4.753556,8.515400999999999,1005.11957,5.703245820469962,1005.1253981117185,0,0
7.1599999999999975,0.6368058000000001,4.7392564,8.444386,1005.1396,5.7009046671454024,1005.1254043774092,0,0
7.18,0.727641,4.5581264,8.9415,1005.1245,5.699227538309502,1005.1254066580153,0,0
7.1999999999999975,0.6941887,4.5676594,8.804203,1005.1196,5.697894143335724,1005.1253877691896,0,0
7.22,0.6511895000000001,4.7535542999999985,8.2692175,1005.1145,5.696074350097449,1005.1253318830544,0,0
7.239999999999997,0.57471895,4.6868224000000005,8.501203,1005.1095,5.69417263060718,1005.125225507286,0,0
7.26,0.49347508,4.6629896,8.534345,1005.1447,5.692232597312818,1005.125201621831,0,0
7.2799999999999985,0.48871428,4.805986,8.558019,1005.0991,5.69045202791453,1005.1250865508044,0,0
7.3,0.5078398000000001,4.8393510000000015,8.553286,1005.1198,5.6888462354055145,1005.1249658424623,0,0
7.3199999999999985,0.36924458,4.701121,9.197166,1005.13715,5.688429663481191,1005.1249030475383,0,0
7.34,0.4122755,4.6677547,9.130885,1005.1399,5.688914660620247,1005.1249015509726,0,0
7.3599999999999985,0.4744193,4.5771894,9.201902,1005.1452,5.690247104939668,1005.1249733030237,0,0
7.38,0.28323978,4.3626947,8.785275,1005.1323,5.691335438978535,1005.1250630792447,0,0
7.399999999999999,0.5079033,4.6105550000000015,8.718995,1005.1045,5.692335235543588,1005.1250683784283,0,0
7.42,0.3788613,4.601022,8.468073,1005.1452,5.69277248505959,1005.125145534625,0,0
7.439999999999999,0.4888094,4.5914884,9.007796,1005.1245,5.693703676789192,1005.1252113859157,0,0
7.46,0.5357122,4.529545,9.433811,1005.1168,5.695808455838628,1005.1252392911266,0,0
7.479999999999999,0.30627012,4.3102839999999984,10.006672,1005.112,5.699818155535383,1005.125216286723,0,0
7.5,0.41139162,4.7440414,8.586349,1005.1327,5.703248897811671,1005.1252229013996,0,0
7.52,0.16281901,4.615345,8.889348,1005.1276,5.706569393493313,1005.1252373036833,0,0
7.539999999999999,0.1771356,4.729743,8.647891,1005.1323,5.709450013677068,1005.1252754552472,0,0
7.56,0.44000196,4.968071,8.823062,1005.11694,5.7125068734248625,1005.1252791583307,0,0
7.579999999999999,0.41131175,4.9633045,9.092922,1005.12463,5.716191308305532,1005.1252800934053,0,0
7.6,0.5020938,4.9776053,8.870402,1005.1349,5.7200355132033005,1005.1253155513008,0,0
7.619999999999999,0.45428437,5.1396685,8.491649,1005.0694,5.72349240050016,1005.1251455859124,0,0
7.64,0.5068507999999999,5.3064985,8.127098,1005.122,5.726143599735442,1005.1249840803861,0,0
7.659999999999997,0.20568894,4.9585404,8.4443,1005.1245,5.728229929457619,1005.1248396314136,0,0
7.68,0.22957657,5.0014400000000006,8.198111,1005.122,5.729417575596907,1005.1247017736284,0,0
7.699999999999997,0.15306546,5.173037,7.918777499999999,1005.1072,5.729503226912379,1005.1245169561045,0,0
7.72,0.057458,5.0586395,8.269122,1005.1171,5.729101069909012,1005.1243269502983,0,0
7.739999999999997,0.009625748,5.592495,7.3411756,1005.1298,5.727302458333808,1005.1241787641467,0,0
7.76,0.15300845,5.5638957,7.861959,1005.1679,5.7251163054550585,1005.1242052233124,0,0
7.7799999999999985,0.16253383,5.039575599999999,8.922462,1005.1145,5.723875544097524,1005.1241936638272,0,0
7.8,0.19596963,5.13014,8.406411,1005.1347,5.7226463055257675,1005.1242212726762,0,0
7.8199999999999985,-0.22467591,5.2969704,7.4689964999999985,1005.1148,5.719996042153916,1005.1242117512736,0,0
7.84,-0.2868362,5.0729427000000005,8.458485000000001,1005.1345,5.717571016502782,1005.1242403758577,0,0
7.8599999999999985,-0.2820792,4.9728455999999985,8.799358999999997,1005.12714,5.715860857370028,1005.1242761071871,0,0
7.88,0.0046862513,5.2350073,8.6005125,1005.0945,5.714699588801017,1005.124200485404,0,0
7.899999999999999,0.18630739,5.4495025,8.430073,1005.102,5.7139679404548716,1005.124053744249,0,0
7.92,0.16716532,5.3637047,8.628917,1005.102,5.71387139103163,1005.1238446902852,0,0
7.939999999999999,0.11589621,5.2683415,8.354439999999999,1005.1276,5.713746195418178,1005.1236734893173,0,0
7.96,0.21150814,5.0824456,8.5343485,1005.1251,5.71371631442945,1005.1235273515808,0,0
7.979999999999999,0.4792248,5.1396427000000005,8.340242,1005.1227,5.713506963413472,1005.1233952458114,0,0
8.0,0.6608731,5.1491756,8.382854,1005.12537,5.713247339695259,1005.1232856262683,0,0
8.02,0.80906284,5.2969384,8.335511,1005.1175,5.713046198108884,1005.1231679381856,0,0
8.04,0.5557809,5.2731047,8.250297,1005.1354,5.712685465439634,1005.1231079844182,0,0
8.059999999999999,0.60362643,5.349368,8.41127,1005.1123,5.7125575407034335,1005.1230161005252,0,0
8.08,0.46024817,5.3827343,8.278708,1005.1097,5.712425878159403,1005.1228869739557,0,0
8.1,0.30732614,5.4160986,8.146148,1005.145,5.712087016771622,1005.1228524846126,0,0
8.12,0.17350756,5.4160980000000025,8.226635,1005.1175,5.7116989565785445,1005.1228027408844,0,0
8.139999999999999,0.015821561,5.2063690000000005,8.501234,1005.12213,5.711513767784654,1005.1227563654587,0,0
8.16,-0.07018321,5.139636,8.330799,1005.12994,5.71113457791595,1005.1227412492174,0,0
8.18,0.01112102,5.134869,8.297663,1005.14764,5.710521026191005,1005.1228175280091,0,0
8.2,0.06373058,5.2587980000000005,8.482307,1005.1327,5.710164905320354,1005.1229205048488,0,0
8.219999999999999,0.06373058,5.2587980000000005,8.482307,1005.1351,5.71003753238769,1005.1230553413667,0,0
8.24,0.02077572,5.2206645,8.487047,1005.1249,5.710079098748228,1005.1231811236853,0,0
8.26,0.044690624000000005,5.211131,8.534393,1005.12036,5.710343501923385,1005.1232821088963,0,0
8.28,0.19767605,5.3684263,8.430239,1005.10785,5.710797018506852,1005.1233157838368,0,0
8.299999999999999,0.15467365,5.282628,8.449178,1005.10254,5.711352561507119,1005.1232707461926,0,0
8.32,0.10214339,5.254027400000001,7.9426003,1005.1153,5.711077129702507,1005.1232022562441,0,0
8.34,0.17863609,5.435156299999999,8.056227999999999,1005.1227,5.71047622649558,1005.1231399304027,0,0
8.36,0.17388801,5.4303885,8.202997,1005.1227,5.709837805581494,1005.12308327554,0,0
8.379999999999999,0.30777007,5.3684224999999985,8.643301,1005.1376,5.709875883793211,1005.1230854755113,0,0
8.4,0.28868258,5.3493557,8.311895,1005.1103,5.709907269776753,1005.1230413916941,0,0
8.42,-0.055431597,5.282623,8.14146,1005.0923,5.709551391515544,1005.1228917702232,0,0
8.44,0.006721705,5.3255215,8.221947,1005.12,5.709043158344741,1005.1227491543184,0,0
8.459999999999999,0.12481986,5.358921499999999,7.914082,1005.1404,5.707908648583213,1005.1226866819496,0,0
8.48,-0.0138325095,5.111061599999998,8.396988,1005.1379,5.7067893817705615,1005.1226862493094,0,0
8.5,-0.1046742,5.139661299999998,8.595831,1005.1151,5.706073315556997,1005.1226585565312,0,0
8.52,-0.09513997,5.1491957,8.534282000000001,1005.1354,5.705616439654327,1005.1226799563884,0,0
8.54,-0.09513997,5.1491957,8.534282000000001,1005.1429,5.705390229063616,1005.1227716574596,0,0
8.559999999999999,-0.19077411,5.1348968,8.671576,1005.1103,5.705601149662651,1005.1228077865593,0,0
8.58,-0.1955793,5.15873,8.439587,1005.14545,5.705810191853361,1005.1229212222,0,0
8.6,-0.22906333,5.139664,8.330694,1005.16833,5.705804769087611,1005.1231849255324,0,0
8.62,-0.26732713,5.0014353,8.240738,1005.1,5.705302555926992,1005.1233344680647,0,0
8.639999999999999,-0.11441147,5.2159309999999985,8.458517,1005.12036,5.7049756332238575,1005.1234558957616,0,0
8.66,-0.25305116,5.1349,8.633687,1005.11786,5.7050342083340055,1005.1235430440497,0,0
8.68,-0.40125048,5.1063013,8.52006,1005.12286,5.705210163057085,1005.1236175893182,0,0
8.7,-0.3821439,5.1920996,8.278604,1005.08514,5.7051532524616215,1005.123544938196,0,0
8.719999999999999,-0.2148762,5.120602,8.562664999999999,1005.1354,5.705305952199304,1005.1235234218872,0,0
8.74,-0.11453837,4.9919057,8.662085000000001,1005.1284,5.705682640029076,1005.1235219657576,0,0
8.76,0.009711146,5.120603599999999,8.373283,1005.1409,5.705874940286423,1005.1235832400447,0,0
8.78,-0.03331977,5.1778026,8.164969000000001,1005.12537,5.7055990463930275,1005.123643814341,0,0
8.799999999999997,-0.11938163,5.3160334,8.070278,1005.12537,5.704902534713441,1005.1237035520572,0,0
8.82,-0.15286562,5.1968703000000005,8.269121,1005.12537,5.704051361689454,1005.1237623355162,0,0
8.84,-0.13856429,5.306502,8.240711,1005.12036,5.7031386322842685,1005.1238020281723,0,0
8.86,-0.13858965,5.173039,8.586321,1005.1182,5.702637813013758,1005.1238169333024,0,0
8.879999999999997,-0.04779876,5.1873393,8.321191,1005.121,5.702046689217358,1005.123819962515,0,0
8.9,0.043004796,5.3541690000000015,8.250174000000001,1005.1333,5.701439420231263,1005.1238567672624,0,0
8.92,-0.033497423,5.3065042,8.288047,1005.11285,5.7008324816243485,1005.1238496635747,0,0
8.94,-0.07652834,5.2636056,8.278577,1005.12286,5.7001639697555815,1005.1238398239676,0,0
8.959999999999997,-0.16645277,5.2921830000000005,8.468036,1005.1933,5.699810518913587,1005.1240811863246,0,0
8.98,-0.34807396,5.3970466,7.393325999999999,1005.16046,5.698018154448388,1005.1244254178323,0,0
9.0,-0.037375286,5.2731156,9.651638,1005.06323,5.6987809663434135,1005.1245092772883,0,0
9.02,-0.26679444,5.254049299999998,7.473812599999999,1005.11566,5.69793588199154,1005.1245515181056,0,0
9.04,-0.26199752,4.1958733,10.314458,1005.15295,5.69982714724208,1005.1246910766264,0,0
9.06,-0.51053596,5.6973386,6.820467999999999,1005.2008,5.699480591480068,1005.1250883826593,0,0
9.08,0.039152905,5.6020074,9.296562,1005.08826,5.701215933655107,1005.1253068600928,0,0
9.1,-0.75906295,4.910856,7.658459700000001,1005.0832,5.701199863216482,1005.1253483220564,0,0
9.12,0.043955505,5.4447103,7.615850999999997,1005.11096,5.700120000338361,1005.125333159888,0,0
9.14,0.20169474,5.325546299999999,8.373357,1005.10535,5.6992751324841535,1005.1252478232208,0,0
9.16,0.34510028,5.187316,8.600609,1005.10034,5.698899265219152,1005.1250827515776,0,0
9.18,0.15870504,5.2254477,8.4065,1005.09827,5.698626797380741,1005.1248403683684,0,0
9.2,0.20172898,5.268347,8.482251,1005.12036,5.698629055411426,1005.1246100692384,0,0
9.22,0.17305584,5.163482,8.534329,1005.12036,5.698851305389223,1005.1243912766776,0,0
9.24,0.1778527,5.1491823,8.5674715,1005.15106,5.6993109506915856,1005.1242939589753,0,0
9.26,0.16830452,5.1587152000000005,8.411237,1005.10034,5.699711106510898,1005.1241217348007,1,1
9.28,0.13008325,5.020484400000001,8.439645,1005.13074,5.699958051507162,1005.1239933832753,1,1
9.3,0.101410106,5.0490837,8.486989999999999,1005.1103,5.700182984115589,1005.1238306756874,1,1
9.32,0.06796856,5.149181,8.344959,1005.1409,5.7002423993783005,1005.1237483568304,1,1
9.34,0.1014386,5.0967484,8.756853,1005.1384,5.700834242322595,1005.1237283658037,1,1
9.36,0.020193338,5.015717,8.534338,1005.15607,5.7014091441984505,1005.1238271316156,1,1
9.38,0.087116316,5.091981400000001,8.486994000000001,1005.14606,5.701964086607286,1005.1239944394127,1,1
9.4,0.14927085,5.1205807,8.311823,1005.1509,5.702220746410546,1005.1242391326007,1,1
9.42,0.06324579,5.163479,8.179261,1005.1235,5.7020243707684255,1005.1244526826243,1,1
9.44,0.029798567,5.1682453,8.198198,1005.1429,5.701466640327581,1005.1247077857678,1,1
9.46,0.0106907785,5.134879,8.600625,1005.14856,5.701268239984148,1005.1250190628764,1,1
9.48,-0.099239044,5.0633802,8.624297,1005.11816,5.7013556965590935,1005.1252694147032,1,1
9.5,-0.29998509999999995,5.144412,8.68111,1005.1284,5.701890939738213,1005.1255018956848,1,1
9.52,-0.7970733,5.182544,8.131921,1005.1435,5.701947966345375,1005.1257721090552,1,1
9.54,-0.17047189,4.2053895,9.831614,1005.14355,5.703699702188858,1005.1260748699968,1,1
9.56,0.035085738,4.167256,9.571223,1005.1153,5.7064115540647125,1005.1263036000328,1,1
9.58,-0.12741455,4.782141,7.970996,1005.1182,5.707586738691073,1005.1264765329324,1,1
9.6,-0.17996633,5.8450828,6.4843946,1005.131,5.7062265753904535,1005.126645620924,1,1
9.62,-0.17516045,6.064344,6.711649,1005.1484,5.703286727012441,1005.1268733428384,1,1
9.64,-0.8347341999999999,4.891769999999998,9.613842,1005.1813,5.702644247694696,1005.1272704938872,1,1
9.66,-1.0832579,4.438946700000002,9.902643,1005.1562,5.704214652571608,1005.1277255627764,1,1
9.68,-0.9924287,4.6057760000000005,9.111999,1005.10034,5.706387947162948,1005.1280290736203,1,1
9.7,-0.28021187,5.187295,7.833711599999999,1005.14374,5.707302097590871,1005.1283538151372,1,1
9.72,0.76182455,6.054807,8.690643,1005.17365,5.709635237246489,1005.1288038230072,1,1
9.74,0.74749815,5.7926464000000015,9.949996,1005.15607,5.715122537967456,1005.1292996081984,1,1
9.76,0.3794924000000001,5.4065547,9.561778,1005.1536,5.722241074839518,1005.1298251654036,1,1
9.78,0.40819728,5.6401153,9.343998,1005.1488,5.730631681837,1005.1303578571546,1,1
9.8,1.2638081,4.5390396,11.114668,1005.1688,5.742506765865025,1005.1309669353004,1,1
9.82,1.196917,3.1948705000000004,11.408202,1005.081,5.757075693508966,1005.1313252357824,1,1
9.84,1.2973188,4.3626757000000005,7.4313054,1005.1088,5.76733580706473,1005.1315607392398,1,1
9.86,1.1874095,4.5390377,6.2050967,1005.1362,5.771808008351557,1005.1317855314336,1,1
9.88,1.2304537,4.8202643,7.0525584000000014,1005.15125,5.772919536479563,1005.1320542299028,1,1
9.9,0.5421882,5.158689,7.1472487000000005,1005.13855,5.771474372271433,1005.1323150366424,1,1
9.92,0.5900123,5.3159847000000005,7.346095599999999,1005.1362,5.7683070190019885,1005.1325594713456,1,1
9.94,0.5661394000000001,5.6019773,8.378199,1005.11597,5.765723253765638,1005.1327157317523,1,1
9.96,0.35584104,5.859371,7.573351,1005.129,5.762599423446126,1005.1328404268137,1,1
9.98,0.48493493,6.312193,7.838481,1005.14124,5.760035900993115,1005.1329808458332,1,1
10.0,0.2077323,5.3779473,8.212502,1005.11597,5.757442829088088,1005.1330436810339,1,1
10.02,0.60926193,5.849836,8.042066,1005.1366,5.755133049553272,1005.1331120049657,1,1
10.04,0.38371068,6.116785,8.520158,1005.124,5.754188123083647,1005.1331395727736,1,1
10.06,-0.065595955,6.064353,8.794753,1005.124,5.754842489398388,1005.1331310292267,1,1
10.08,-1.3513784,6.4218449999999985,7.488055,1005.109,5.755398013967191,1005.1330366084436,1,1
10.1,-1.3513784,6.4218449999999985,7.488055,1005.16693,5.75586420208084,1005.1330751944494,1,1
10.12,-0.4432258,5.8260260000000015,9.7368965,1005.14185,5.759156868599055,1005.133140878344,1,1
10.14,0.22115170000000006,4.248296,10.200868,1005.114,5.7643052003791135,1005.1331300094713,1,1
10.16,-0.23771456,4.334093599999999,8.543824,1005.0616,5.768021083653419,1005.132862897701,1,1
10.18,-0.94991535,5.2254405,5.0498333,1005.10425,5.765771772120731,1005.1325238713092,1,1
10.2,-1.6191032,5.601999299999999,6.645326,1005.1366,5.7614032892804845,1005.1322389816527,1,1
10.22,-1.284522,5.587699400000001,7.0004063,1005.1444,5.755609512181906,1005.132031032818,1,1
10.24,-0.4289472,5.4780684,8.737931,1005.1391,5.751223909611725,1005.1318727375098,1,1
10.26,-0.51977366,4.982347,9.296591,1005.1521,5.748593616942138,1005.1318056859204,1,1
10.28,-0.8065720000000001,4.953748,8.250286000000001,1005.1393,5.745646223747847,1005.1317734186664,1,1
10.3,-0.56281215,5.0872116,7.4170303,1005.18463,5.741087826125754,1005.1319351910139,1,1
10.32,-0.38596955,5.2063755999999985,8.382848,1005.16205,5.7369181573398755,1005.1321865463724,1,1
10.34,-0.81616205,5.0729127,9.282384,1005.1346,5.734632533373906,1005.1324173324001,1,1
10.36,0.20670076,6.6268106,8.851552,1005.1523,5.734954527161148,1005.1326928325377,1,1
10.38,-0.30953324,6.1835213,9.235037,1005.1396,5.737702256244185,1005.132961130262,1,1
10.4,0.07762578,6.1692214000000005,8.29289,1005.16205,5.740957841233348,1005.1333029180624,1,1
10.42,0.07762578,6.1692214000000005,8.29289,1005.1623,5.7446504475951965,1005.1337093112576,1,1
10.44,-0.6919428000000001,3.5857483999999995,8.392311,1005.0869,5.746255493903531,1005.1338998867644,1,1
10.46,-0.64893484,4.353164,7.857322,1005.1396,5.745705884795789,1005.13408879969,1,1
10.48,-0.69195807,4.0957704,8.695311,1005.107,5.74456484582796,1005.134158203472,1,1
10.5,0.45995945,5.044316,7.961477,1005.15424,5.7424889562788435,1005.1342918231212,1,1
10.52,-0.52469033,4.2197013,8.397041,1005.112,5.739544847624685,1005.1343296388803,1,1
10.54,-1.0079628,4.172048,7.142377400000001,1005.1022,5.733600467912947,1005.1342473861847,1,1
10.56,-1.4286313,5.2683578,6.886715,1005.1497,5.725971914622308,1005.1342303371132,1,1
10.58,-1.3187109,5.3493895999999985,7.7625785,1005.1347,5.718402830454389,1005.1342169633394,1,1
10.6,-1.0702068,4.7249713,8.941442,1005.1572,5.7122655843959045,1005.1342878852053,1,1
10.62,-0.67829335,5.520987,8.065574,1005.1221,5.706642688133438,1005.1343066753788,1,1
10.64,0.0052033663,6.2312045,7.933008999999997,1005.1521,5.702097158355457,1005.134387334345,1,1
10.66,-0.13345666,5.33986,10.906211,1005.1472,5.702794061357189,1005.1345047302035,1,1
10.68,-0.32466403,5.5686550000000015,10.120298,1005.1349,5.706897997435815,1005.134609884156,1,1
10.7,-1.1324813,6.841326,7.961407,1005.12476,5.711923684488393,1005.134667338605,1,1
10.72,-0.7979408,4.5676794,8.988769,1005.12976,5.716823563008733,1005.1347004389372,1,1
10.74,-0.7979408,4.5676794,8.988769,1005.17456,5.72159463754731,1005.1348731808107,1,1
10.76,-1.9546989,3.0900483,11.266013,1005.0444,5.729830959348568,1005.1347001120793,1,1
10.78,-2.399236,3.4523072,8.363821000000002,1005.1098,5.735937648209918,1005.1344575481444,1,1
10.8,-2.432725,4.4199185,8.046614,1005.1474,5.740424251720335,1005.1342898114784,1,1
10.82,-1.2234805,4.2292576,7.72467,1005.12976,5.7422031711577,1005.1341252920387,1,1
10.84,-0.9893004,3.8050349,8.515313,1005.1346,5.742597191167732,1005.1339816316107,1,1
10.86,-1.0132146999999998,3.5285752,8.979282000000003,1005.1273,5.7424346706337825,1005.133830639383,1,1
10.88,-0.25327152,4.210193,8.032397,1005.1047,5.740475027203122,1005.1335923523483,1,1
10.9,0.047825634000000006,4.620118,7.497407400000001,1005.10986,5.736382268184062,1005.1332963654564,1,1
10.92,0.33936322,4.972844,7.93297,1005.1523,5.731587830959816,1005.1331032445227,1,1
10.94,-0.36329845,4.5533876,9.424304,1005.1404,5.728485382586904,1005.1329588711856,1,1
10.96,-0.5210471999999999,4.968078599999999,8.799361,1005.1374,5.726152214440582,1005.1328472909688,1,1
10.98,-0.6406031999999999,5.516234,9.56633,1005.1447,5.726467102404477,1005.1327913684416,1,1
11.0,-0.5928204,5.3923044,9.959284,1005.1349,5.729701647064602,1005.1327495463704,1,1
11.02,0.29619265,4.8584510000000005,10.020828,1005.1549,5.7350877220727225,1005.132792334021,1,1
11.04,0.85155314,3.7621207,11.374951,1005.1299,5.744165290222638,1005.1328197287868,1,1
11.06,0.45005286,3.1043353,11.97622,1005.08234,5.757238991737157,1005.132662207778,1,1
11.08,0.4118207,3.948016,7.7720699999999985,1005.06226,5.766203698377177,1005.1322695742668,1,1
11.1,0.69861853,5.0061913,7.061910000000001,1005.0923,5.77141698033248,1005.1317787528287,1,1
11.12,-0.07092362,4.0957785000000015,7.6016326,1005.13007,5.773194089299957,1005.131338911496,1,1
11.14,-1.2324097,3.6095898,8.108214,1005.11035,5.772604956924738,1005.1308747076132,1,1
11.16,-1.1320274,4.634399,7.090317999999999,1005.0998,5.7690652613718525,1005.1303526681146,1,1
11.18,-0.91215014,5.358916000000002,7.3223042,1005.1354,5.764123573922499,1005.1299095644084,1,1
11.2,-1.1128987,5.330316000000002,7.767338799999999,1005.1226,5.758722334097702,1005.1294917235421,1,1
11.22,-0.10435055,5.5448112,9.135583,1005.1704,5.755431175841268,1005.1292697891477,1,1
11.24,0.8324974,5.625842,10.054057,1005.1651,5.7558120037921725,1005.1292026766756,1,1
11.26,0.87551886,5.335082,10.612718,1005.1173,5.760183037727464,1005.1291005264596,1,1
11.28,0.8420665,5.144419999999998,9.88362,1005.1125,5.766533514785719,1005.1289505046332,1,1
11.3,0.5027099,5.1205873,8.718958,1005.12537,5.772427407583375,1005.128805055531,1,1
11.32,0.5027099,5.1205873,8.718958,1005.0648,5.7778966445142945,1005.128446118504,1,1
11.34,-0.5010394,6.1263304000000005,6.8820095000000014,1005.1224,5.781107637328776,1005.1281071957206,1,1
11.36,-0.8499619,6.6792507,7.005103599999999,1005.1274,5.7833278137084685,1005.1278051776446,1,1
11.38,-1.428312,6.350358,8.382816,1005.1374,5.7865285772409285,1005.127572855833,1,1
11.4,-0.74479043,4.634397,9.930967,1005.1226,5.7913558599196175,1005.1273496739992,1,1
11.42,-0.76390314,4.343637,8.344942,1005.12213,5.794390305585504,1005.1271336797046,1,1
11.44,-0.68742317,4.419902,7.895174499999999,1005.0919,5.795072194132037,1005.1268159858987,1,1
11.46,-0.29069316,4.453268,8.273928,1005.1324,5.794351529905343,1005.126555374103,1,1
11.48,-0.5631356,4.1672745,8.193442999999998,1005.1097,5.7919967751918175,1005.1262644181733,1,1
11.5,-1.2657573,5.339847,8.150835,1005.1224,5.789488088486299,1005.1259934176084,1,1
11.52,-0.6204774000000001,5.382746,7.809958,1005.14514,5.786186051275745,1005.1258228892058,1,1
11.54,0.72679275,4.9204054,10.508511,1005.11725,5.786602605468402,1005.1256413479083,1,1
11.56,0.70288426,4.5676804,11.067169,1005.11975,5.791066573028536,1005.1254597291652,1,1
11.58,0.3634801,4.7297444,7.677332000000002,1005.0719,5.792920445515032,1005.1251064358188,1,1
11.6,0.3634801,4.7297444,7.677332000000002,1005.0719,5.792461364053514,1005.1246027226488,1,1
11.62,0.4160294,5.2493,7.5400314,1005.1424,5.790317955291853,1005.1242217118904,1,1
11.64,0.50682664,5.5400605,8.004002,1005.12726,5.787838632767119,1005.1238959886217,1,1
11.66,0.45422977,6.021483,7.9377179999999985,1005.1022,5.785541344717497,1005.1235300739819,1,1
11.68,0.49244922,5.2064023,8.90827,1005.1246,5.784153763014162,1005.1232106035403,1,1
11.7,0.06703712,4.8536769999999985,9.230207,1005.1249,5.7837805488162255,1005.1229344012852,1,1
11.72,0.37770534,5.630626,7.0713177,1005.1047,5.781433225491253,1005.122624705128,1,1
11.74,0.31076908,5.711658,7.577897,1005.1195,5.778279766211995,1005.1223398086653,1,1
11.76,0.2868415,5.7593246,9.097638,1005.1421,5.77707911650179,1005.1221592108392,1,1
11.78,0.18167628,5.6973596,9.192326,1005.11206,5.777701939663332,1005.1219632774413,1,1
11.8,-0.6165794,5.292203,8.557913000000001,1005.112,5.778405390514482,1005.121754282892,1,1
11.82,-0.860359,5.2207046,8.141283999999999,1005.20215,5.778405740654472,1005.1218590398897,1,1
11.84,-1.2762209999999998,5.416134,7.2701525999999985,1005.1372,5.77663259234877,1005.1220068306294,1,1
11.86,-0.36329746,5.635396,9.750979,1005.09467,5.777690376690298,1005.1220390059367,1,1
11.88,-0.21993184,5.9642887,7.454789999999999,1005.0769,5.777673836064537,1005.1219049356167,1,1
11.9,-0.07176744,5.964289,8.179152499999999,1005.117,5.777899988852951,1005.121768813314,1,1
11.92,-0.033548065,5.7736278,8.254902000000001,1005.1295,5.778237157256316,1005.1216763679193,1,1
11.94,-0.15783247,5.5972657,8.278573,1005.1069,5.778506503313148,1005.121541488244,1,1
11.96,-0.6549510999999999,5.487635,7.928225,1005.1019,5.778028868727925,1005.1213515992054,1,1
11.98,-0.22478777,5.835594,7.634690299999999,1005.1143,5.7767843790211835,1005.1211584274936,1,1
12.0,-0.24870577,5.911859,8.046581,1005.0843,5.775647914606397,1005.12085505063,1,1
12.02,-0.19615652,5.945226,7.60628,1005.1421,5.7739211664615135,1005.1206634686513,1,1
12.04,-0.3145856,5.8451023,7.691596499999997,1005.1345,5.771698977435976,1005.1205439983272,1,1
12.06,-0.19029868,5.9070673,7.843097999999999,1005.14166,5.76936903266046,1005.1205144519554,1,1
12.08,-0.3957941,5.7116375,8.09876,1005.0864,5.767155018023781,1005.120365532754,1,1
12.1,-0.35751957,5.821267,8.326014500000001,1005.1469,5.765565561516644,1005.1203294718297,1,1
12.12,-0.55346733,5.5448065,8.079827,1005.0913,5.763805238030994,1005.1201931022985,0,0
12.14,-0.5152169,5.5734057,8.075094,1005.1243,5.761921505940633,1005.1200873910125,0,0
12.16,-0.4769544,5.978562,7.421748,1005.1243,5.759347153380162,1005.1200091499124,0,0
12.18,-0.5820739,5.973795,8.212398,1005.1521,5.757480801737014,1005.1200555431366,0,0
12.2,-0.6059609,5.926129,8.146117,1005.12604,5.7560802767372765,1005.1201180802342,0,0
12.22,-0.62505597,5.559103,8.302355,1005.1215,5.754928699041742,1005.120178312925,0,0
12.24,-0.59158534,5.430406,8.14612,1005.1193,5.753579145882406,1005.1202283726041,0,0
12.26,-0.15659906,5.568636,7.639541,1005.1391,5.7513256213705874,1005.1203405431947,0,0
12.28,-0.1995932,5.4780703,7.923608,1005.0934,5.74865554487446,1005.1203426711736,0,0
12.3,-0.2330157,5.6973314,7.634812400000001,1005.1366,5.745407021722205,1005.1204030778392,0,0
12.32,-0.44808275,5.6639647,8.212411999999999,1005.14154,5.742609171016843,1005.1205325460887,0,0
12.34,-0.54366684,5.5543337,8.23135,1005.1239,5.740133713213477,1005.1206590670682,0,0
12.36,-0.49584466,5.5924654,8.326039999999999,1005.1362,5.738154102757332,1005.1208268083644,0,0
12.38,-0.6009762,5.5066667,8.960453,1005.1335,5.737642971011097,1005.1210206480632,0,0
12.4,-0.7156553000000001,6.0309870000000005,8.302375,1005.0985,5.737916142952253,1005.121110850488,0,0
12.42,-0.6965121,6.17875,7.871546,1005.0985,5.738350305640463,1005.1211091542892,0,0
12.44,-0.5626535,6.3265129999999985,7.606421000000001,1005.10864,5.738672463129998,1005.1210627665724,0,0
12.46,-0.4144675,6.212115,7.696376,1005.13855,5.738873232295513,1005.121084732426,0,0
12.48,-0.57695675,5.3589005,8.785291,1005.1137,5.739813161927367,1005.1210775564174,0,0
12.5,-0.71554697,5.439932,7.980444,1005.1212,5.7401095135669244,1005.1210716564932,0,0
12.52,-0.5482296999999999,5.6687255,7.914165,1005.1262,5.739972664189013,1005.1210849053567,0,0
12.54,-0.4813004,5.501896,8.297653,1005.13104,5.739905162717459,1005.1211324503937,0,0
12.56,-0.06656774,5.6735190000000015,8.562677,1005.0985,5.740531679637189,1005.1210929843663,0,0
12.58,-0.12872550000000002,5.6592197,8.278611,1005.13104,5.741264023075848,1005.1210939214412,0,0
12.6,-0.6115059,5.249297,7.8903884999999985,1005.1312,5.740981089160237,1005.1211311313233,0,0
12.62,-0.38687545,5.406594,8.146044999999999,1005.121,5.74040052797972,1005.1211635379024,0,0
12.64,-0.21004301,5.4447269999999985,8.245464,1005.1435,5.739763864022183,1005.1212725836192,0,0
12.66,-0.19094409,5.2778974000000005,8.534262,1005.12103,5.739398109092328,1005.1213680631136,0,0
12.68,-0.2005341,5.325563400000001,7.7246766,1005.13385,5.737918813540355,1005.1214973637677,0,0
12.7,-0.28659090000000004,5.377996,7.8098936,1005.10034,5.735673148069136,1005.1215354473156,0,0
12.72,-0.49214274,5.2397665999999985,7.994534,1005.12604,5.732934044343108,1005.1215853143286,0,0
12.74,-0.43002558,5.587726,7.710468,1005.13104,5.7296870884184345,1005.1216634136896,0,0
12.76,-0.30577093,5.697357,7.738872,1005.11346,5.726175097506875,1005.1217028899956,0,0
12.78,-0.42529655,4.801245,8.917736,1005.1337,5.723527038731207,1005.1217809608555,0,0
12.8,-0.48745424,4.90611,8.870391,1005.12604,5.721675707268593,1005.1218652768086,0,0
12.82,-0.49224418,5.158738,8.463231,1005.1312,5.720068001620481,1005.1219733833881,0,0
12.84,-0.15289839,5.602028400000001,8.325932,1005.11096,5.718915238274878,1005.1220292581813,0,0
12.86,0.12908973,5.735492,8.505836500000001,1005.1235,5.7186329824843725,1005.1220839238192,0,0
12.88,0.23423527,5.773625,8.572118,1005.12604,5.719283287708151,1005.1221464682512,0,0
12.9,0.25333422,5.649695,7.97558,1005.1284,5.719589949641676,1005.1222242452257,0,0
12.92,-0.26290488,5.382768,8.103408,1005.13104,5.719497622869698,1005.1223247056772,0,0
12.94,-0.45411736,5.2969704,7.9850454,1005.10345,5.71876446463078,1005.1223455235921,0,0
12.96,-0.2199374,5.4113690000000005,8.340123,1005.1212,5.7181979162224765,1005.1223597944166,0,0
12.98,-0.11958182,5.5400667000000015,8.396934,1005.1312,5.7180223109281965,1005.1224042288572,0,0
13.0,-0.00010700524,5.6306314,8.2549,1005.10864,5.718051009084071,1005.1223939399052,0,0
13.02,-0.19131947,5.659231,7.9660993000000015,1005.1108,5.717805320785312,1005.1223431104033,0,0
13.04,-0.20415018,5.6258282999999984,8.221895,1005.101,5.7177149472760185,1005.122221362258,0,0
13.06,-0.1849904,5.5638623,8.382867999999998,1005.14374,5.717966799052728,1005.1221912526927,0,0
13.08,-0.113232434,5.559094,8.430218,1005.096,5.718594530181508,1005.1220703593712,0,0
13.1,-0.26136577,5.635358,7.8762965,1005.11615,5.718698841476876,1005.1219422247383,0,0
13.12,-0.19920804,5.6496572,7.895236,1005.11865,5.718386510249915,1005.121817152968,0,0
13.14,-0.27086452,5.606757599999999,7.833692599999999,1005.124,5.717554910099556,1005.1217144978008,0,0
13.16,-0.3473211,5.635356,7.918914,1005.096,5.71645116625082,1005.1215312195031,0,0
13.18,-0.37595928,5.611521700000001,7.994668499999999,1005.15155,5.715213058040082,1005.1214773424092,0,0
13.2,-0.3424398,5.7306843,8.046752,1005.1139,5.714089359661298,1005.1214024581759,0,0
13.22,-0.23724355,5.8307815000000005,7.705878699999999,1005.124,5.712616497453142,1005.1213456416182,0,0
13.24,-0.21808374,5.949944,7.6253977,1005.14905,5.7108577420498445,1005.121395174198,0,0
13.26,-0.21328361,5.992843,7.715352999999999,1005.1215,5.709054737092181,1005.1214393185584,0,0
13.28,-0.35183704,5.7783465,7.933141,1005.1265,5.707321121651658,1005.1214965429684,0,0
13.3,-0.43303275,5.892742,7.469175,1005.10364,5.705037542363567,1005.1214828229024,0,0
13.32,-0.4043134,5.802177,8.09412,1005.11127,5.703197909026301,1005.1214339336894,0,0
13.34,-0.44729102,5.7068443,8.150936,1005.1189,5.701742816322454,1005.1213816130196,0,0
13.36,-0.53806674,5.7020764,7.9994392,1005.1388,5.700379563658823,1005.1213980886693,0,0
13.38,-0.42809057,5.7688074,7.8668804,1005.0963,5.698949264558407,1005.1213222934336,0,0
13.4,-0.31811458,5.8021727,8.01365,1005.10596,5.697743373109293,1005.1212000165073,0,0
13.42,-0.24639723,5.845071,8.027855,1005.1137,5.696812112256701,1005.1210649725557,0,0
13.44,-0.28459507,5.797405,7.78167,1005.1544,5.695658428121426,1005.1210656538188,0,0
13.46,-0.31325358,5.754505,7.824281,1005.1165,5.694332323240711,1005.1210498194293,0,0
13.48,-0.4087888,5.7259045,8.098883,1005.129,5.693293827833239,1005.1210644488126,0,0
13.5,-0.37050974,5.8117013,8.056275999999999,1005.1491,5.692541630500942,1005.12117830332,0,0
13.52,-0.41348743,5.749735,8.127297,1005.1243,5.69209384162045,1005.1212901432707,0,0
13.54,-0.3533465,5.773617,8.34963,1005.1217,5.692318709381138,1005.1213904405356,0,0
13.56,-0.5445791999999999,5.630621,8.155517,1005.1213,5.692654543806369,1005.1214787376127,0,0
13.58,-0.587638,5.4161267,8.254935000000001,1005.1243,5.693014928474119,1005.1215669134548,0,0
13.6,-0.7693111999999999,5.306497,8.690496000000001,1005.09906,5.694062789978418,1005.1215638007403,0,0
13.62,-0.5972991,5.368464,7.682062599999999,1005.10144,5.694008923009537,1005.1214886046632,0,0
13.64,-0.51606274,5.4161296,7.620514,1005.079,5.692924328240927,1005.1212692024326,0,0
13.66,-0.42052758,5.6210933,7.3648505,1005.10175,5.6907479379529855,1005.1210050694928,0,0
13.68,-0.44446707,5.621094,8.269117999999999,1005.1193,5.689140721968211,1005.1207655433773,0,0
13.7,-0.5401038,5.6687613,8.344864999999999,1005.1221,5.688237622629227,1005.1205587021452,0,0
13.72,-0.51622504,5.621096,8.534239,1005.107,5.688229067334563,1005.120327125905,0,0
13.74,-0.48760712,5.4733343,8.628922,1005.119,5.689006594204947,1005.1201177274858,0,0
13.76,-0.5688840999999999,5.3637037,8.619451,1005.1368,5.690346949391932,1005.1199927592236,0,0
13.78,-0.69797933,5.373238,8.141272,1005.1145,5.691372405846598,1005.1198625633341,0,0
13.8,-0.6884806,5.2922077000000005,8.150736,1005.117,5.692038928122362,1005.1197372170178,0,0
13.82,-0.83667475,5.211176999999998,8.008701,1005.11176,5.6920719564935816,1005.1195977430316,0,0
13.84,-0.84625465,5.225477,8.079715,1005.1399,5.691686318028856,1005.1195475919426,0,0
13.86,-0.8272166,5.230246,8.335365,1005.1372,5.691380556534591,1005.1195668271092,0,0
13.88,-0.8798351999999999,5.1682816,8.595755,1005.1147,5.691548147726518,1005.1195663027247,0,0
13.9,-0.8846555,5.239781,8.515265,1005.1097,5.692068821902415,1005.1195303206893,0,0
13.92,-0.9611526,5.3065133,8.491592,1005.1023,5.692945357572353,1005.1194364978078,0,0
13.94,-1.114147,5.125385,8.624151,1005.0948,5.6942050443705785,1005.1192649045176,0,0
13.96,-1.0090319,5.153985,8.813523,1005.1195,5.696143194500464,1005.1191141310304,0,0
13.98,-1.0425311,5.115854,8.680957000000001,1005.12976,5.6984045352934825,1005.1190192327052,0,0
14.0,-0.74622387,4.925193,8.775641,1005.14514,5.700861940279344,1005.1190294153073,0,0
14.02,-0.4403569000000001,5.0348244000000015,8.595730999999999,1005.1249,5.70323548531753,1005.1190595467592,0,0
14.04,-0.51687443,4.8393964999999985,8.444225999999999,1005.14264,5.705058566766213,1005.1191710605425,0,0
14.06,-0.5742523,4.820330599999999,8.430021,1005.1396,5.7063501382219055,1005.1193431383026,0,0
14.08,-0.49781603,4.9728613,8.183827,1005.1097,5.706879227284143,1005.119460470914,0,0
14.1,-0.49785668,4.9919286,8.538905,1005.1397,5.707386087187965,1005.119637008314,0,0
14.12,-0.5409358,4.977631,8.661994,1005.0973,5.708082312585063,1005.1197125835307,0,0
14.14,-0.5505359000000001,5.0443635,8.453676,1005.13513,5.708641365401133,1005.1198348644916,0,0
14.16,-0.43584096,5.2350264000000015,8.425267,1005.11237,5.709220807885068,1005.1199160384365,0,0
14.18,-0.33074617,5.153996,8.903437,1005.09216,5.7105730464958855,1005.1198878419957,0,0
14.2,-0.39768368,5.0538992999999985,8.837153,1005.11237,5.712385179836031,1005.1198358633893,0,0
14.22,-0.33080703,5.077732599999999,8.619367,1005.1224,5.714225754625086,1005.1197991659848,0,0
14.24,-0.24005169,5.011002,8.628831,1005.1299,5.716026422664725,1005.1198031031604,0,0
14.26,-0.19227393,5.0443687000000015,8.439452000000001,1005.1349,5.717479321584383,1005.1198609308773,0,0
14.28,0.00365749,5.173067,8.221666,1005.1174,5.718369773007753,1005.1199031680968,0,0
14.3,0.0036168993,5.077737,8.131708,1005.0871,5.718496382493345,1005.119822397499,0,0
14.32,-0.034662127,5.1587695999999985,8.003876,1005.1122,5.717813608156343,1005.1197235879677,0,0
14.34,0.027434736,5.2588677000000015,8.1317005,1005.09247,5.716754118036394,1005.119538166949,0,0
14.36,0.06083250000000001,5.2684026,8.141164999999999,1005.11755,5.715393173044161,1005.1193671715359,0,0
14.38,0.34280032,5.468599,8.287929,1005.15015,5.714265638973186,1005.1193268981717,0,0
14.4,0.28540212,5.3685019999999986,8.543581,1005.1173,5.713678617767204,1005.1192840157933,0,0
14.42,0.21368475,5.3065376,8.671408999999999,1005.0973,5.713725507473876,1005.1191669824667,0,0
14.44,0.21842398,5.5400996,7.980181699999997,1005.0948,5.713394320165312,1005.1189758506827,0,0
14.46,0.113207415,5.1826089999999985,8.974401,1005.12787,5.714074595816612,1005.1188389855761,0,0
14.48,0.055829495,5.16831,8.7424135,1005.08734,5.715213868745493,1005.1186046552195,0,0
14.5,0.084488004,5.2922416,8.349456,1005.0923,5.716192939732928,1005.118302904158,0,0
14.52,0.24467643,5.3493795,8.354415,1005.11035,5.717104953925692,1005.1180076464647,0,0
14.54,0.00569728,5.244515,8.141368,1005.0903,5.717457797642307,1005.1176470092398,0,0
14.56,-0.03253012,5.325546299999999,8.0656185,1005.12537,5.717275529078692,1005.1173561529546,0,0
14.58,-0.15201418,5.211149,8.49645,1005.10504,5.717251198966954,1005.1170548141904,0,0
14.6,-0.18067648,5.2397480000000005,8.3070755,1005.1329,5.7170647182977365,1005.116845593927,0,0
14.62,-0.19023056,5.2778800000000015,8.307076,1005.11755,5.716778393099784,1005.1166632627644,0,0
14.64,-0.08506384,5.358911,8.250264,1005.1152,5.716393502986107,1005.1164968872032,0,0
14.66,0.048776165,5.4161096,8.221858000000001,1005.08466,5.7159380644920965,1005.116235264963,0,0
14.68,0.13482367,5.4065765999999975,8.193453,1005.11005,5.715363405830487,1005.115981828598,0,0
14.7,0.14917414,5.473308,8.188719,1005.1198,5.714754432822193,1005.1157716376429,0,0
14.72,0.24956106,5.783134,7.9330630000000015,1005.11035,5.7140545624984505,1005.1155663950194,0,0
14.74,-0.046770245,5.7783666,7.999346000000001,1005.1178,5.713376215837845,1005.1153930836152,0,0
14.76,0.02971764,5.7593007000000025,8.008816,1005.11237,5.7127119898225365,1005.1152290625572,0,0
14.78,-0.118450746,5.6163034000000005,7.7910337,1005.0923,5.711523050533508,1005.1150015889257,0,0
14.8,-0.3287511,5.4113417,7.904660000000002,1005.12286,5.709833299146948,1005.1148288835043,0,0
14.82,-0.33351436,5.3541427000000015,8.018288,1005.1078,5.707836438351837,1005.1146509770135,0,0
14.84,-0.34784824,5.258811,8.269212,1005.1249,5.705905011471485,1005.114530675321,0,0
14.86,-0.30481893,5.296943,8.160321000000001,1005.13007,5.703887880387289,1005.1144803183143,0,0
14.88,-0.19008717,5.377974,8.307089999999999,1005.11536,5.702143741846566,1005.1144389897172,0,0
14.9,0.16362937,5.678267,8.363903,1005.1177,5.701089404575104,1005.1144142114059,0,0
14.92,0.10627727,5.6067686,8.434919,1005.1174,5.70068643386737,1005.114403066129,0,0
14.94,0.15886612,5.516204,8.591156,1005.14264,5.701030776286963,1005.114494871124,0,0
14.96,0.14454325,5.444705,8.501204,1005.11237,5.701796184682706,1005.1145683404816,0,0
14.98,0.23537059,5.397039,8.548549000000001,1005.1098,5.702964311876688,1005.1146160919805,0,0
15.0,0.28317416,5.4065723,8.638503,1005.1098,5.7046553932327475,1005.1146409472735,0,0
15.02,0.24918862,5.425651,8.027716999999999,1005.0978,5.705758299175434,1005.1146022820004,0,0
15.04,0.062766105,5.2254559999999985,8.027716,1005.1354,5.706101274622003,1005.1146429891496,0,0
15.06,-0.24315146,4.9442296,8.288107,1005.12213,5.705927559508037,1005.114705911226,0,0
15.08,-0.31485868,5.1205926,8.1792145,1005.1073,5.705300280203821,1005.1147348478924,0,0
15.1,-0.23360714,5.1634912,8.42067,1005.1397,5.7047431284879435,1005.1148502908784,0,0
15.12,-0.18104452,5.196858,8.553231,1005.1022,5.704518916827348,1005.1149067552533,0,0
15.14,0.0244769,5.3732204,8.415932000000002,1005.11456,5.704537945496048,1005.1149553988562,0,0
15.16,0.034026355,5.339855,8.39226,1005.0895,5.704693127564133,1005.1149067409076,0,0
15.18,0.07225464,5.301723,8.41593,1005.1429,5.704967651602572,1005.1149645224774,0,0
15.2,-0.028131373,5.2826567,8.311772,1005.10724,5.705142045020366,1005.1149877699913,0,0
15.22,0.0626747,5.2731237,8.51535,1005.1324,5.705575564475288,1005.1150709955227,0,0
15.24,-0.028146625,5.2397585,8.496413,1005.1198,5.706166223535043,1005.1151615580184,0,0
15.26,0.08177872,5.4161205,8.169738,1005.1324,5.706519691212947,1005.1153036374304,0,0
15.28,-0.03772652,5.2874246,8.406458,1005.1299,5.7069299555336395,1005.1154817257044,0,0
15.3,-0.20980965,5.111062,8.316504,1005.11676,5.7070411330643065,1005.1156436862907,0,0
15.32,-0.18114096,5.1062956,8.2975645,1005.1221,5.706847729744752,1005.115810037394,0,0
15.34,-0.16681167,5.0729303,8.32597,1005.1195,5.706399496615831,1005.1159703090943,0,0
15.36,-0.0043085366,5.2540593,8.411188000000001,1005.0994,5.706073162726527,1005.116052272056,0,0
15.38,0.05781877,5.330324,8.349639999999999,1005.107,5.705832536422642,1005.1160921063496,0,0
15.4,0.048249036,5.3541574,8.439592,1005.1396,5.7058527251969124,1005.1162119323483,0,0
15.42,0.04346414,5.358924,8.330702,1005.112,5.705917859395933,1005.1163026476446,0,0
15.44,0.00043065846,5.2588267,8.520076,1005.1396,5.706244365705795,1005.1164666741487,0,0
15.46,-0.037812836,5.2349944000000015,8.482201,1005.112,5.706707787996787,1005.1165955279407,0,0
15.48,-0.14776357,5.0681653,8.486933,1005.1243,5.707121118198189,1005.116737119251,0,0
15.5,-0.023498803,5.125364299999998,8.401712,1005.0843,5.707396249619756,1005.1167454557034,0,0
15.52,0.05368136,5.230211,8.321292,1005.11676,5.707521144797052,1005.1167528741521,0,0
15.54,0.05368136,5.230211,8.321292,1005.13684,5.707512841606272,1005.1168317427464,0,0
15.56,0.010689765,5.1777782,8.681109,1005.124,5.7079674898033455,1005.1169272367624,0,0
15.58,0.10630362,5.335074,8.714252,1005.09406,5.709058754552918,1005.1169292932228,0,0
15.6,0.12066074,5.3779726,8.605362,1005.13684,5.710563374468991,1005.1170027888554,0,0
15.62,-0.017926901999999998,5.287408,8.558021,1005.1215,5.71224343593331,1005.1170839195564,0,0
15.64,-0.09917473,5.2349752999999986,8.501208,1005.13403,5.71391574531954,1005.1172166125335,0,0
15.66,-0.13261558,5.196842,8.1319275,1005.09644,5.714883733749037,1005.1172590642433,0,0
15.68,-0.15170814,5.2969394,8.472806,1005.1038,5.71593646067722,1005.1172481219425,0,0
15.7,-0.18515791,5.311239,8.321306,1005.0765,5.716811139554737,1005.1170917600862,0,0
15.72,-0.20425048,5.3875027,8.31184,1005.119,5.717595316594535,1005.116960468414,0,0
15.74,-0.22336085,5.4256353,8.259762,1005.1168,5.71825023311792,1005.116843881406,0,0
15.76,-0.2567928,5.3589025,8.150872999999999,1005.1213,5.718525045819438,1005.1167569071528,0,0
15.78,-0.22332531,5.4256344000000025,8.13667,1005.12103,5.7185132439040025,1005.1166954398367,0,0
15.8,-0.26153708,5.3255360000000005,8.382863,1005.12885,5.718565458365822,1005.1166848837332,0,0
15.82,-0.1898312,5.3017035,8.259768,1005.0963,5.7184284152007425,1005.1166021707784,0,0
15.84,-0.16592328,5.2969365,8.217158999999999,1005.10345,5.718043905602933,1005.1164817377968,0,0
15.86,-0.13243805,5.173005,7.8289413,1005.1262,5.7166246228083875,1005.1164103089584,0,0
15.88,-0.041603997,5.2397366,7.7863326,1005.11096,5.7142976412735536,1005.1163275733244,0,0
15.9,0.025322124,5.296935,8.155617999999999,1005.10614,5.7118827229138205,1005.1162177928541,0,0
15.92,-0.0798069,5.420865,7.4123187,1005.12866,5.708273436752659,1005.116165582776,0,0
15.94,-0.022431508,5.6067605,8.008855,1005.1189,5.704854355915222,1005.1161292938533,0,0
15.96,-0.027202427,5.6401258,8.023059,1005.10846,5.701679669486093,1005.1160696195034,0,0
15.98,-0.2566064,5.43993,7.857357,1005.15393,5.698218898410566,1005.1161531886175,0,0
16.0,-0.46212018,5.878453,6.967291,1005.11346,5.693618713681508,1005.1162173348076,0,0
16.02,-0.17038545,6.2550063,7.0667285999999985,1005.15607,5.688675343362359,1005.116417483976,0,0
16.04,-0.56229323,4.744007,10.8211155,1005.1285,5.688413656582324,1005.1166378328387,0,0
16.06,-0.45712548,4.639142,10.380816,1005.10815,5.691355889200046,1005.1168019768961,0,0
16.08,-0.27067703,4.9728002999999985,8.430244,1005.11096,5.6938177553399125,1005.116925983468,0,0
16.099999999999998,-0.39970767,4.863169,8.108307,1005.07825,5.6951645010792555,1005.1168963221344,0,0
16.12,-0.3996836,4.8393354,8.245607000000001,1005.11316,5.695741032638245,1005.1168566626204,0,0
16.14,-0.48570806,4.7440047,8.643298,1005.10535,5.6962634821008935,1005.1167801954884,0,0
16.16,-0.6147266,4.877467,8.146189999999999,1005.12585,5.695994335222294,1005.1167452804268,0,0
16.18,-0.5573569,4.9584980000000005,8.259816,1005.1357,5.695308022191083,1005.1167826664688,0,0
16.2,-0.61947024,4.6343718,8.704853,1005.1354,5.694735912466581,1005.116882723176,0,0
16.22,-0.27528828,4.624838,9.462361,1005.1304,5.695627409110175,1005.1170197954792,0,0
16.24,0.102340296,4.7535343,8.974719,1005.10785,5.697020525324148,1005.1171079013028,0,0
16.259999999999998,0.19318064,5.225423,7.989965,1005.0652,5.697589269899955,1005.1169988831637,0,0
16.28,-0.4138304,5.4017844,7.5638704,1005.12036,5.696918296590876,1005.1169146547568,0,0
16.3,-0.9156977,5.215889,7.620685000000001,1005.12286,5.695104685797348,1005.1168616337787,0,0
16.32,-1.4605714,4.829797,8.420800999999999,1005.11505,5.693403694721353,1005.1168082625612,0,0
16.34,-1.2597954,4.5104370000000005,9.438701,1005.1123,5.693304383530553,1005.1167448740083,0,0
16.36,-0.31813794,4.7773633,9.665955,1005.0925,5.6951406833703455,1005.1166015823366,0,0
16.38,-0.20341064,4.7964296,9.604408,1005.1429,5.698577998942037,1005.1165696441188,0,0
16.4,0.1216401,4.758296499999998,9.06469,1005.10034,5.702380440112088,1005.1164829967908,0,0
16.419999999999998,0.35588664,5.1968193,7.805341,1005.11,5.704715706007881,1005.1163830964232,0,0
16.44,0.35588664,5.1968193,7.805341,1005.0925,5.705746168874117,1005.1162088453116,0,0
16.46,-0.16507587,4.882225,8.553381,1005.11505,5.706588966545446,1005.116050705186,0,0
16.48,-0.2845469,5.015688,8.307193,1005.1351,5.706967885937528,1005.1159795500323,0,0
16.5,-0.24628437,4.6438956,9.33456,1005.1128,5.708433524608992,1005.1159052309587,0,0
16.52,-0.26699728,4.639168700000001,8.969866,1005.1151,5.7101749451806985,1005.1158366637936,0,0
16.54,-0.09018515,5.3064876,7.6963077,1005.13763,5.710588154369548,1005.1158545338568,0,0
16.56,-0.0042095482,5.1968584,8.695262,1005.0946,5.711449756803746,1005.1157938075228,0,0
16.58,0.057887346,5.3112564,7.7578454,1005.1101,5.711191468520076,1005.1157196520273,0,0
16.599999999999998,0.11044492,5.244525,8.335441000000001,1005.082,5.7108730863941615,1005.1155327374837,0,0
16.62,0.2059801,5.3636904,7.393289,1005.1176,5.709022103265216,1005.1153750219383,0,0
16.64,0.4783883,5.58772,8.4348545,1005.102,5.707886990274122,1005.1151875144033,0,0
16.66,0.04336534400000002,5.2731285,8.269145,1005.064,5.706720060800424,1005.1148375576936,0,0
16.68,0.033785462,5.3589272,7.871453,1005.0995,5.704937024313503,1005.114473120737,0,0
16.7,0.03374487,5.249297,8.325952000000001,1005.102,5.703281321245487,1005.1141062010076,0,0
16.72,-0.014073461,5.2731304,8.179184,1005.11444,5.701513399054319,1005.113783192411,0,0
16.74,-0.40607828,4.9823723,7.824097,1005.0894,5.698723675930302,1005.1134100025224,0,0
16.759999999999998,-0.735905,4.701146,7.772017,1005.08386,5.6946842643894025,1005.1129738719278,0,0
16.78,-0.8888992,4.872743,7.667856,1005.09174,5.689587438639541,1005.1125120649956,0,0
16.8,-1.1183908,5.411365,8.093947,1005.10175,5.684970884965589,1005.112065268956,0,0
16.82,-1.2283465,5.616328,8.240712,1005.11664,5.681310075922526,1005.1116869490072,0,0
16.84,-1.1710498,6.226448,8.259644,1005.08624,5.6792588116738765,1005.1112610564842,0,0
16.86,-1.1662903,6.393278,7.8098740000000015,1005.1242,5.678118429490408,1005.1109313180472,0,0
16.88,-1.1233126,5.8594246,8.718877,1005.0964,5.6786279388277885,1005.1105876484196,0,0
16.9,-0.7170698,5.258839599999999,9.234922,1005.11426,5.680773701863651,1005.1102972024023,0,0
16.919999999999998,-0.43988174,4.968081,9.092887,1005.1191,5.683774458887553,1005.1100722543728,0,0
16.94,-0.30130804,5.120612,7.866672,1005.09174,5.685483731199263,1005.109807494178,0,0
16.96,-0.2965688,5.258843,8.193342,1005.13153,5.686771220637791,1005.1096517530908,0,0
16.98,-0.4495631,5.3923078,7.9329467,1005.1242,5.6873951865469445,1005.1095665139554,0,0
17.0,-0.9028589,5.130127,8.453802,1005.13403,5.6881105178896965,1005.109579265205,0,0
17.02,-1.0605956,5.125361,8.47274,1005.109,5.688964761904888,1005.1095884468542,0,0
17.04,-1.0940605,4.958532,8.259689999999999,1005.1215,5.689391420827702,1005.1096394413507,0,0
17.06,-0.7929361,5.249292,8.18394,1005.13904,5.689562064930551,1005.1097903420994,0,0
17.08,0.096101075,5.5638847,8.250221,1005.13916,5.689914210530037,1005.1100294087688,0,0
17.099999999999998,0.014838055,5.19686,8.780475,1005.11145,5.690948528877628,1005.1102457622068,0,0
17.12,0.033947736,5.401822,8.662114,1005.1087,5.692592963919089,1005.1104313673604,0,0
17.14,-0.09988996,5.387522,8.7283945,1005.1288,5.694872864170674,1005.1106614951517,0,0
17.16,-0.276749,5.230226,8.737863,1005.12866,5.697559851463432,1005.1109296306856,0,0
17.18,0.2633593,5.473321,8.543751,1005.1011,5.700519214489892,1005.1111311685727,0,0
17.2,0.33983302,5.392289599999999,8.742597,1005.0731,5.703973446130687,1005.1111723352427,0,0
17.22,0.6122723000000001,5.587719,8.004027,1005.0938,5.706820086653598,1005.111146169706,0,0
17.24,0.27289993,5.4208894,7.9803553,1005.0709,5.7088505680726245,1005.1109781636264,0,0
17.259999999999998,0.16773786,5.349391000000002,8.354372,1005.1006,5.710714655401312,1005.1107923520656,0,0
17.28,-0.17641434,5.010966000000002,8.226543,1005.1061,5.7118274020465325,1005.1106112765027,0,0
17.3,-0.17641434,5.010966000000002,8.226543,1005.088,5.7122722581759104,1005.1103698775404,0,0
17.32,-0.06649157,5.053865,8.131853999999999,1005.12103,5.712001591491227,1005.110194953858,0,0
17.34,-0.06649157,5.053865,8.131853999999999,1005.1136,5.711099663248109,1005.110052649458,0,0
17.36,0.07689303,5.206395,8.382777,1005.1106,5.710253644078152,1005.1099288797524,0,0
17.38,-0.119088426,5.3732247000000015,8.278619,1005.0877,5.709464057071633,1005.1097394928734,0,0
17.4,-0.3150667,5.2826605,8.340164999999999,1005.0905,5.708742212492478,1005.1095028884528,0,0
17.419999999999998,-0.20513438,5.3064933,8.529541,1005.1307,5.7084364377671015,1005.1093701343884,0,0
17.44,-0.1955843,5.030033,8.392242999999999,1005.08,5.707956067523027,1005.1091471004128,0,0
17.46,-0.13822982,5.111065,8.354367,1005.1101,5.707341019963312,1005.1089534580307,0,0
17.48,-0.28163347,5.0443335,8.458524,1005.1228,5.706729119158541,1005.1088322031732,0,0
17.5,-0.2672972,5.015733999999999,8.420648,1005.1181,5.706023350844301,1005.1087584264496,0,0
17.52,0.025666311,5.1110305999999985,8.600683,1005.11505,5.705652534154942,1005.1087158870012,0,0
17.54,-0.17501125,4.863168,8.823207,1005.10254,5.705727541198001,1005.1086560659517,0,0
17.56,-0.2753624,4.8917665,8.558082,1005.1231,5.705749602755419,1005.1086552062347,0,0
17.58,0.0449339,5.1682253,8.543883000000001,1005.1178,5.7059829008270055,1005.1086873678464,0,0
17.599999999999994,-0.021933869,5.1396255,8.288231,1005.1206,5.705917668332776,1005.1087586713222,0,0
17.62,0.083271265,5.139624,8.491814999999999,1005.1156,5.705950378474967,1005.1088463038568,0,0
17.64,-0.017030433,5.2873855,7.980505,1005.1276,5.7053352778333934,1005.1089912492703,0,0
17.66,-0.026565306,5.2015867,8.52023,1005.1326,5.705000931841727,1005.1092043145404,0,0
17.68,-0.2559464,5.049056,8.477625,1005.1298,5.704683142084078,1005.1094667234804,0,0
17.7,-0.2415328,5.1205525000000005,8.562851,1005.0922,5.7046085672460585,1005.1096364278155,0,0
17.72,-0.2415328,5.1205525000000005,8.562851,1005.10974,5.704749165580442,1005.109786751426,0,0
17.74,-0.184101,5.201582,8.458701,1005.0872,5.704979088756423,1005.1098382650628,0,0
17.759999999999994,-0.16015251,5.1777477,8.38769,1005.09467,5.705134625148202,1005.109829176758,0,0
17.78,-0.20314601,5.149148,8.3924265,1005.10724,5.705202753312874,1005.1098118252958,0,0
17.8,-0.32737142,5.02045,8.444509,1005.1151,5.705154744524277,1005.1098155309726,0,0
17.82,-0.38467962,4.944184,8.529733,1005.097,5.705081055455687,1005.1097726693973,0,0
17.84,-0.35117155,5.034746599999999,8.3119545,1005.1321,5.704689077376275,1005.1098151752992,0,0
17.86,-0.25074616,5.0299797,8.558147,1005.10724,5.7044450197971805,1005.1098434628833,0,0
17.88,-0.11208239,5.0585775,8.439792,1005.1248,5.704146085277066,1005.109922301326,0,0
17.9,-0.17414567,4.972777400000001,8.662316,1005.10205,5.704110269619132,1005.1099636226892,0,0
17.919999999999995,-0.121543095,4.98231,8.425597999999999,1005.11707,5.7038903438959965,1005.1100257172039,0,0
17.94,-0.049771838,4.977542,8.19362,1005.11206,5.70308856895354,1005.1100879073357,0,0
17.96,-0.11183511,4.867909,8.809099,1005.0966,5.702769232351987,1005.1100943020692,0,0
17.98,-0.15002407,4.9966050000000015,8.487164,1005.10205,5.702429729097006,1005.1100709929684,0,0
18.0,-0.16911857,5.049036,8.321462,1005.11206,5.701834587193887,1005.1100575574724,0,0
18.02,-0.5145094,4.9728017,8.610146499999999,1005.0941,5.7014759160449024,1005.1099882386612,0,0
18.04,-0.3663367,5.0443006,8.771116000000001,1005.09906,5.7016776899264405,1005.1098876469002,0,0
18.06,-0.38545722,4.877471,8.799522,1005.09906,5.702256426035656,1005.1097597844915,0,0
18.08,-0.36633927,5.111032,8.221925,1005.0994,5.7023757567195466,1005.1096095100431,0,0
18.1,-0.45715684,5.1205654,8.245597,1005.0914,5.702148938946828,1005.1094111733045,0,0
18.12,-0.59577245,4.9680357000000015,8.86107,1005.11414,5.702571604616892,1005.109252946738,0,0
18.14,-0.46193916,5.049067,8.610146499999999,1005.1164,5.703183902742933,1005.1091388671358,0,0
18.16,-0.37112346,5.1253324000000005,8.482317,1005.09357,5.703806568378758,1005.1089820184776,0,0
18.18,-0.3472258,5.0490675000000005,8.302408999999999,1005.0989,5.704032667133273,1005.1088071317364,0,0
18.2,-0.34722704,5.0776667999999985,8.212456,1005.0939,5.703779316431406,1005.108598936138,0,0
18.22,-0.30421066,5.1729980000000015,8.832663,1005.1136,5.704306385363562,1005.1084329783367,0,0
18.24,-0.23251495,5.2873955000000015,8.676428,1005.1112,5.705360454166438,1005.1082962993021,0,0
18.26,-0.22773579,5.2063637,8.600677000000001,1005.09357,5.7066542168193575,1005.1081225150293,0,0
18.28,-0.36157218,5.2540293,8.027813,1005.09357,5.707208965599219,1005.1079165701916,0,0
18.3,-0.36157218,5.2540293,8.027813,1005.08606,5.7071087246252405,1005.1076559136804,0,0
18.32,-0.48584902,5.163465,8.44444,1005.0907,5.7070718869097,1005.1073645562981,0,0
18.34,-0.40459293,5.1253324000000005,8.870536999999997,1005.09564,5.707803846557558,1005.1070649045121,0,0
18.36,-0.08912842,5.277862,8.307142,1005.0882,5.7083595080972325,1005.1067322185378,0,0
18.38,-0.08912842,5.277862,8.307142,1005.0932,5.708757392246986,1005.1063895412242,0,0
18.4,-0.16082673,5.0252347,8.363955,1005.0782,5.708840765150487,1005.1059852692017,0,0
18.42,-0.23252508,4.94897,8.117766,1005.1083,5.708129250976096,1005.1056363874727,0,0
18.44,-0.24686572,4.9632697,8.401831,1005.1083,5.7072400682698285,1005.105337704583,0,0
18.46,-0.27076668,5.020468,8.359221,1005.09576,5.706183172458156,1005.1050393086447,0,0
18.48,-0.21340966,5.0347676,8.420769,1005.10535,5.705103910377868,1005.1047767644826,0,0
18.5,-0.21341155,4.958503,8.330813000000001,1005.08826,5.703767050642862,1005.1044853201088,0,0
18.52,-0.23130658,5.0776367,8.330926,1005.09564,5.702336168930278,1005.1041959567076,0,0
18.54,-0.13568702,5.1396017,8.766494,1005.10034,5.701666704147429,1005.1039263937623,0,0
18.56,-0.016145006,5.2921305,8.676544,1005.0958,5.701672845235481,1005.1036589529264,0,0
18.58,0.05559899,5.2682962,8.491907000000001,1005.0779,5.7019233986959375,1005.1033299099732,0,0
18.6,0.03174688,5.1920304,8.165236,1005.0857,5.7017295126392815,1005.1029756999437,0,0
18.62,0.007894784,5.3969913,7.8906455,1005.10815,5.70090164938949,1005.1026813474416,0,0
18.64,-0.4652354,5.039498,8.567673,1005.09534,5.7003292094562505,1005.1023948287204,0,0
18.66,-0.15450123,5.2635245,8.738114,1005.0903,5.700506918953249,1005.1020981193947,0,0
18.68,-0.18791294,5.0347290000000005,8.463524000000001,1005.0928,5.700614172234753,1005.1018024738048,0,0
18.7,-0.17832986,5.025195,8.373572,1005.11536,5.7004877825924325,1005.1015900484558,0,0
18.72,-0.11614546,5.068093,8.1842,1005.1128,5.699863806545834,1005.101442705243,0,0
18.74,-0.22603405,4.982294,8.307299,1005.0975,5.6989321081434765,1005.1012983190412,0,0
18.76,-0.19730827,5.0347247,8.2931,1005.0845,5.697761583065628,1005.101110265445,0,0
18.78,-0.36453104,4.858361,8.596109,1005.0948,5.696752163208762,1005.1009213843316,0,0
18.8,-0.21155384,4.9441576,8.596111,1005.10535,5.695967768630222,1005.1007704319964,0,0
18.82,-0.11591084,4.8774247000000015,8.813897,1005.07733,5.695707816905638,1005.1005526649576,0,0
18.84,-0.13973945,5.101451,8.548777000000001,1005.1174,5.695667148435201,1005.1004208964084,0,0
18.86,-0.13015639999999998,4.925088400000001,8.903858999999997,1005.0896,5.696277349891714,1005.100265510491,0,0
18.88,-0.13486584,4.8059224999999985,8.913335,1005.0946,5.697359165838529,1005.1001078156568,0,0
18.9,-0.22085539,4.8631199999999986,8.368883,1005.0621,5.697927772828213,1005.0998316483647,0,0
18.92,-0.23517135,4.8297534,8.4399,1005.0895,5.698134759048567,1005.0995504330116,0,0
18.94,-0.23992762,4.8583527,8.591403,1005.1092,5.698324720803437,1005.0993366895666,0,0
18.96,-0.34981626,4.9489160000000005,8.577205000000001,1005.1022,5.698573474535372,1005.0991581337762,0,0
18.98,-0.34498954,5.01088,8.553538,1005.08435,5.698895122854955,1005.0989470525984,0,0
19.0,-0.31148392,5.1062098,8.57248,1005.0866,5.6994123270839365,1005.0987160918801,0,0
19.02,-0.3161699,5.5780964000000015,9.18796,1005.09174,5.70170178488497,1005.0984869010583,0,0
19.04,-0.198513,5.435145,9.670702,1005.0788,5.706259490712128,1005.0982135152047,0,0
19.06,-0.198513,5.435145,9.670702,1005.0768,5.71280501275419,1005.0978948628098,0,0
19.08,-0.016927168,5.1872854,8.245641,1005.0716,5.718270077765959,1005.0975186400473,0,0
19.1,-0.1794522,5.153919,7.639636500000001,1005.0691,5.721671092802397,1005.0970839025103,0,0
19.12,-0.22727361,5.4446807,7.0667715,1005.0841,5.722626129810394,1005.0966530263736,0,0
19.14,-0.064771965,5.4923463,7.578086,1005.0941,5.722321592144907,1005.0962631133244,0,0
19.16,-0.5093287000000001,5.1205554000000015,8.288244,1005.1067,5.721729072834114,1005.095956158946,0,0
19.18,-0.26081395,5.506647,8.577039,1005.11127,5.721799119715841,1005.0957400638852,0,0
19.2,-0.26081395,5.506647,8.577039,1005.1213,5.722454357916505,1005.0956411380592,0,0
19.22,-0.079216465,5.6687117,8.250361,1005.0938,5.723238811487267,1005.0955470991023,0,0
19.24,0.04504676,5.89274,7.989969,1005.10364,5.723963342798724,1005.0954931407235,0,0
19.26,0.14539926,5.821242,8.83269,1005.0758,5.725986210120548,1005.0953745677934,0,0
19.28,0.28877008,5.845075,8.520218,1005.08606,5.7286439939328755,1005.095236264308,0,0
19.3,0.6902501999999999,6.121536,8.335573,1005.08344,5.73191236085867,1005.0950715927972,0,0
19.32,0.073632136,5.849843,8.098852,1005.07605,5.734931039255903,1005.0948576113158,0,0
19.34,-0.14626217,5.6210485,7.810050500000001,1005.0863,5.736954954115678,1005.0946377298784,0,0
19.36,-0.55734867,5.33029,7.7295630000000015,1005.0963,5.737639802438284,1005.0944494268124,0,0
19.38,0.016204461,5.9594755,7.701155,1005.08826,5.73782892431133,1005.0942607602867,0,0
19.4,-0.055515975,5.8784447,7.99942,1005.07324,5.737973210343641,1005.0940183798081,0,0
19.42,-0.57176983,5.4399223,7.4549603000000015,1005.1008,5.736662301399997,1005.0938286262494,0,0
19.44,-0.67216897,5.3874907,7.705882000000001,1005.08575,5.734444454003178,1005.0936318769507,0,0
19.46,-0.7582171999999999,5.344592,7.331863,1005.07794,5.7307645515559535,1005.0934015385131,0,0
19.48,-0.4379937,5.8498480000000015,7.937864299999997,1005.09827,5.727397210410085,1005.0932155379312,0,0
19.5,-0.8251928,5.3636594,8.496522,1005.06537,5.7247576174096935,1005.0929509438803,0,0
19.52,-0.72482866,5.487591,8.231392999999999,1005.0829,5.7224332696861255,1005.0926809651787,0,0
19.54,-0.5180398,5.682988,7.7201924,1005.06537,5.719732600662327,1005.092344092524,0,0
19.56,-0.5180398,5.682988,7.7201924,1005.1079,5.716709136546129,1005.0921024331128,0,0
19.58,-0.4319595000000001,5.4446597,7.8669634,1005.0527,5.713362990001311,1005.091747054098,0,0
19.6,-0.43194497,5.811684,7.440868400000001,1005.0602,5.709482573037586,1005.0913194718056,0,0
19.62,-0.6756565999999999,5.744951,7.6681247,1005.0752,5.705463867153669,1005.0908836299938,0,0
19.64,-0.65652287,5.78785,7.6255169999999985,1005.1129,5.7013176953601565,1005.0905777791008,0,0
19.66,-0.7281907,6.2311387,8.212585,1005.0602,5.698609451602918,1005.0901981692468,0,0
19.68,-0.62299126,5.68775,8.458778,1005.0877,5.69692716486777,1005.0898537525703,0,0
19.7,-0.56561905,5.554286,8.165247,1005.06006,5.695490803100514,1005.089442168486,0,0
19.72,-0.32659972,6.1215053,7.6776056,1005.0525,5.694138163917844,1005.0889455009828,0,0
19.74,-0.48431867,5.854578,7.4598246,1005.06494,5.692179565590299,1005.0884202257733,0,0
19.76,-0.5989755999999999,5.9546747,7.616065499999999,1005.0751,5.690089372915182,1005.0879081397853,0,0
19.78,-0.5894014,6.083371,7.8764585999999985,1005.0922,5.688479630671423,1005.0874711113028,0,0
19.8,-0.46987718,5.9070077,7.9569464,1005.07007,5.687199176311128,1005.0870223089353,0,0
19.82,-0.3790317,6.131035,8.042169,1005.0925,5.686627396001991,1005.0866454668512,0,0
19.84,-0.75182724,5.9165397,7.540323700000001,1005.07965,5.6856324384222425,1005.0862873055048,0,0
19.86,-0.74223846,5.945138,7.3509506999999985,1005.0952,5.68399558533354,1005.0860029198396,0,0
19.88,-1.2488686000000002,5.6591434000000005,7.800722,1005.0872,5.682285074565088,1005.0857559461542,0,0
19.9,-0.8760146000000001,5.682976,7.8149276,1005.08716,5.680483516265088,1005.0855427747997,0,0
19.92,-0.49360108,6.2978606,7.474053,1005.1076,5.678781988612182,1005.0854338226013,0,0
19.94,-0.28326058,5.983268,7.900152,1005.06494,5.677441262333821,1005.0852637746776,0,0
19.96,-0.41228616,6.326459,7.109509,1005.0896,5.675616627823138,1005.0851291307436,0,0
19.98,-0.18762079,6.164396,7.1615887,1005.07434,5.673215907893933,1005.0849713184924,0,0
20.0,-0.22583005,5.7878370000000015,7.715517,1005.072,5.6707235455773795,1005.0847851788412,0,0
20.02,-0.12064519,6.7840466,7.332033,1005.09174,5.668870145402549,1005.0846457432013,0,0
20.04,0.07535596,7.203503,7.9617114,1005.08417,5.669141159428152,1005.0845208251942,0,0
20.06,-1.1013697,6.564806,7.3935013,1005.0944,5.6696493824486085,1005.0844460126726,0,0
20.08,-1.1013697,6.564806,7.3935013,1005.1017,5.670365373734044,1005.0844420226828,0,0
20.1,-1.0296841,6.4313426,7.455047,1005.0971,5.671160437114104,1005.0844840658464,0,0
20.12,-0.82894003,6.097683999999999,7.5213284,1005.0567,5.671645234360293,1005.0844211925483,0,0
20.14,-0.8385035,6.13105,7.2230606,1005.08136,5.671424613993306,1005.0843546174092,0,0
20.16,-0.42267197,6.0452523000000005,7.223059700000001,1005.07635,5.670409282084233,1005.0842669749936,0,0
20.18,-0.2267076,6.0547853,7.0573545,1005.0844,5.668431485276162,1005.0841900130451,0,0
20.2,-0.04508266,6.6315393,6.1199417,1005.08167,5.665033635008537,1005.0841129374204,0,0
20.22,0.040946215,6.6696715,6.8585080000000005,1005.0964,5.6615215746104965,1005.084089066824,0,0
20.24,-0.16937275,6.498076,7.185181,1005.08875,5.658175454548919,1005.0840847541244,0,0
20.26,0.02659157,6.607707,7.701231,1005.0964,5.655940543347418,1005.084125278308,0,0
20.28,-0.22674565,6.4456440000000015,8.136795,1005.0964,5.655184898362973,1005.0842052744746,0,0
20.3,-0.48964626,6.1977835,8.245686,1005.0811,5.655622477386108,1005.0842647800994,0,0
20.32,-0.5422279000000001,6.1310515,8.023169000000001,1005.076,5.656666535580626,1005.0842876060613,0,0
20.34,-0.6043729999999999,6.2645154000000005,7.805385,1005.07874,5.658065040087362,1005.0842878036992,0,0
20.36,-0.74777085,6.131052,7.8195877,1005.05066,5.659642929666605,1005.0841669182387,0,0
20.38,-0.4896729,6.1787176,7.9616190000000016,1005.1012,5.661633657148951,1005.08412142294,0,0
20.4,-0.38930464,6.3360147000000016,7.729632400000002,1005.0836,5.663799949774653,1005.0840793461716,0,0
20.42,-0.40364784,6.297882,7.862195,1005.0881,5.666278793559046,1005.0840566414932,0,0
20.44,-0.50881493,6.0643214999999975,7.961616999999999,1005.066,5.668898939495145,1005.0839715757297,0,0
20.46,-0.1598969,6.307416,7.526051,1005.0585,5.671218467143867,1005.0838047139483,0,0
20.48,-0.19335933,6.116753599999999,7.8195834,1005.10345,5.673490005030312,1005.0837279979083,0,0
20.5,-0.38455904,5.9785237,8.311961,1005.0885,5.676368362374902,1005.0836773908228,0,0
20.52,-0.39413008,5.84506,8.013692,1005.068,5.679109006244798,1005.0835762357947,0,0
20.54,-0.26029935,5.8831925000000025,8.435055,1005.07806,5.682467731751943,1005.0834669967636,0,0
20.56,0.09371416,5.921318,8.515566999999999,1005.0885,5.686537145014408,1005.0833885919667,0,0
20.58,0.17497595,5.9451504,7.871688400000001,1005.0756,5.690167541063793,1005.0832912745576,0,0
20.6,0.12718295,5.549526,8.345130000000001,1005.081,5.69372255634119,1005.0831970363063,0,0
20.62,0.012472734,5.5733585,8.089472,1005.07043,5.6967842216472,1005.0830678060569,0,0
20.64,0.17498861,5.883185,7.6065635999999985,1005.1404,5.6989713315633175,1005.0831600141064,0,0
20.66,-0.30298418,6.016648,6.4419003,1005.1305,5.69871930004579,1005.0834119130884,0,0
20.68,0.02682735,5.8736510000000015,9.94536,1005.03033,5.701988175824997,1005.083443396142,0,0
20.7,-0.35077465,5.6686897000000025,8.771228,1005.04285,5.706068222828426,1005.0833250783417,0,0
20.72,0.35664397,6.693498599999999,7.7154565,1005.1203,5.710374393419903,1005.0833536424514,0,0
20.74,0.21325238,6.245442400000001,8.600791000000001,1005.1503,5.715718729177164,1005.083619888586,0,0
20.76,-0.49893332,5.954683,7.6065664,1005.0527,5.7199693613290545,1005.0837438320714,0,0
20.78,-0.7379159000000001,5.6019573,6.9721565000000005,1005.0151,5.721785987345138,1005.0836062307396,0,0
20.8,0.2706303,6.221609,7.805412299999999,1005.08295,5.723546774902495,1005.0834822837725,0,0
20.82,0.2610758,6.1596437,7.767537599999999,1005.0903,5.725109634280287,1005.0833973080106,0,0
20.84,-0.025707364,6.140578,7.2278156,1005.0903,5.725592571301335,1005.0833470731185,0,0
20.86,-0.08306248,6.1405773,7.502412,1005.08765,5.725558563802943,1005.0833181761046,0,0
20.88,-0.11651605,6.0929117,7.563959,1005.0977,5.725105478632464,1005.0833444172692,0,0
20.9,-0.16908881,6.0357129999999986,7.862227000000002,1005.0699,5.724699109548464,1005.0833192040601,0,0
20.92,-0.08782454,5.9451485,7.767539999999999,1005.07263,5.724062593842901,1005.0832584445337,0,0
20.94,-0.02090472,5.964214,7.952182,1005.0977,5.723554060446977,1005.083256747016,1,2
20.96,0.03168069,6.0786114,7.5497584,1005.0824,5.722645925014491,1005.0832521628,1,2
20.98,0.06036207,6.0500120000000015,7.7296657999999985,1005.1248,5.721644161680268,1005.0833976844008,1,2
21.0,0.031685784,5.9880466,7.952183,1005.09515,5.7208514218952455,1005.0835685756236,1,2
21.02,0.1559683,6.0118794,7.8669642999999985,1005.0624,5.720137499139372,1005.0836433682356,1,2
21.04,0.37584436,6.183475,7.436134,1005.06744,5.719030496548347,1005.083651122862,1,2
21.06,0.18465726,5.887949,7.582901,1005.1175,5.717421657153126,1005.0837798308072,1,2
21.08,0.32327664,5.954681,7.402994,1005.09515,5.715175548579789,1005.0839344897568,1,2
21.1,0.3806368,5.988046,7.3319779999999986,1005.0872,5.712307901939912,1005.084082902242,1,2
21.12,0.40454346,5.8021502,7.597106,1005.1077,5.709096238017602,1005.0842990610654,1,2
21.14,0.40932578,5.9070144,7.734402999999999,1005.08234,5.7059513428824555,1005.084483006382,1,2
21.16,0.6053029000000001,6.0023456,7.677591,1005.0872,5.702925634150707,1005.0846553216408,1,2
21.18,0.61008775,6.026178400000001,7.464543300000001,1005.0946,5.699701471021137,1005.0848433802456,1,2
21.2,0.6299866,6.240654,7.814961,1005.0721,5.6971614990519726,1005.0849636726599,1,2
21.22,0.80686826,6.4646816,7.578243,1005.0747,5.695178796495693,1005.0850330138156,1,2
21.24,0.7495251,6.550479,7.6066509999999985,1005.09973,5.693846783409308,1005.085147192811,1,2
21.26,0.9933241,6.6362762,6.7876015,1005.09973,5.692009937858767,1005.0853005794772,1,2
21.28,1.3375133999999995,6.1405535,9.060121,1005.12756,5.692813572978362,1005.0855882458493,1,2
21.3,1.3375133999999995,6.1405535,9.060121,1005.05707,5.695947443731655,1005.0857397621704,1,2
21.32,0.8213381,6.478978,6.6029677,1005.08185,5.697514075249575,1005.0858596388484,1,2
21.34,1.0125448,6.784037,6.6171722000000015,1005.1125,5.698196611407329,1005.0860614671808,1,2
21.36,0.91699225,6.860301,7.2042427,1005.1323,5.69905060199794,1005.0864062614136,1,2
21.38,1.7152628,7.217792500000002,8.52988,1005.14984,5.70278509999461,1005.0869392830566,1,2
21.4,1.3472323,6.8221674,9.159556,1005.1048,5.709457581061421,1005.0874745595613,1,2
21.42,0.8597215,6.7506685,8.444664,1005.0997,5.717341106917899,1005.0879915414664,1,2
21.44,0.45826143,6.474206400000001,8.776076,1005.1377,5.7264116909743175,1005.0886272971286,1,2
21.46,0.310102,6.274011,8.8376255,1005.1373,5.736347396296762,1005.089364272562,1,2
21.48,0.066375434,4.934607,9.263725,1005.10974,5.746291789627423,1005.0900888166735,1,2
21.5,0.6017425000000001,4.1671915,9.01754,1005.10693,5.75507698472761,1005.0907896521107,1,2
21.52,-0.23469424,4.0623264,9.263731,1005.0771,5.7631512115690375,1005.0913596275552,1,2
21.54,-0.15342306,4.6438456,7.748723,1005.0975,5.768317186135572,1005.0918853631987,1,2
21.56,-0.5740168000000001,5.049002,7.758194,1005.07214,5.771392041109557,1005.092278819906,1,2
21.58,-0.61222625,4.69151,7.066974,1005.0997,5.771008327040044,1005.0926531945007,1,2
21.6,0.20514916,4.915537400000002,7.966513000000001,1005.0921,5.769354738479345,1005.0929820003928,1,2
21.62,0.4441539000000001,5.1872306,8.506236999999999,1005.0847,5.767852438987704,1005.0932427180772,1,2
21.64,0.13828988,5.5208883,7.175873299999999,1005.0948,5.764581140973296,1005.093478694438,1,2
21.66,0.3677495,5.539954,7.9854593,1005.14484,5.7611531146267465,1005.0938721038507,1,2
21.68,0.55417633,5.2253612999999985,8.832918,1005.0821,5.758745842089898,1005.0941773408338,1,2
21.7,0.19983701,5.163411,8.690828999999999,1005.11,5.756902500511117,1005.0945040098053,1,2
21.72,0.8833514000000001,6.38365,8.004339,1005.11,5.755907601353512,1005.0948484400728,1,2
21.74,0.42449284,6.054757,9.012769,1005.0872,5.75689182911857,1005.095125244273,1,2
21.76,0.37669736,6.0309243,8.657688,1005.1298,5.758980890638767,1005.0954946575847,1,2
21.78,0.29066473,6.4408484,9.429397,1005.1148,5.763836496667548,1005.0958905704202,1,2
21.8,0.45318055,5.5495024000000015,9.822353,1005.0796,5.770844475730482,1005.0961817529477,1,2
21.82,-0.19209045,4.6772227,7.417275,1005.0545,5.774491729439496,1005.0962889875186,1,2
21.84,0.5057623,5.0061145,6.6124268,1005.0797,5.774196415538984,1005.0963240196304,1,2
21.86,1.2561938999999998,5.2110767,7.071664,1005.09973,5.771591917246119,1005.0963672355334,1,2
21.88,0.6252624,4.720121,7.355728599999999,1005.0923,5.766724871600302,1005.0963907790576,1,2
21.9,0.06124805,4.8106856,6.749725,1005.0497,5.7588922168738925,1005.0962434953108,1,2
21.92,-0.106043786,4.9822817000000015,5.5187798,1005.0921,5.746694317115336,1005.0960984388092,1,2
21.94,0.8355800999999999,5.425571400000001,4.581368,1005.1348,5.730089360299544,1005.0961095925046,1,2
21.96,0.14251362,4.119535,9.983324,1005.05963,5.717237974267419,1005.0959881213768,1,2
21.98,-0.34980370000000005,5.225375700000002,7.4977617,1005.0724,5.7043093583332505,1005.0957958722513,1,2
22.0,-0.17294963,5.644832599999999,7.1805573,1005.1002,5.691337568698287,1005.095641855784,1,2
22.02,0.22855644,6.131021499999999,7.038525,1005.12,5.678793796072428,1005.0955934561523,1,2
22.04,0.16642152,5.7449303,8.733442,1005.1001,5.668996562045909,1005.0955669137959,1,2
22.06,-0.015208483,5.5590343,9.008038,1005.1173,5.661932399287176,1005.0956217000801,1,2
22.08,-0.19205745,6.116721599999999,8.866006,1005.1173,5.657698779765831,1005.0957481511203,1,2
22.1,-0.3880281,6.0213904000000005,9.287369,1005.10724,5.656609878744862,1005.0959012539156,1,2
22.12,-0.61745614,5.6257663,10.054342,1005.1527,5.659264748818108,1005.0962410110317,1,2
22.14,-0.49317867,5.4541698,10.840254,1005.1302,5.66648025650476,1005.0966634727793,1,2
22.16,-0.6365703,5.044246,9.746606,1005.1177,5.6753050639466025,1005.0971124914777,1,2
22.18,-0.74650323,4.100468,10.750301,1005.0797,5.686636146319482,1005.0974465594301,1,2
22.2,-1.54518,3.3759623,8.799685,1005.08514,5.696027515557205,1005.0976974382588,1,2
22.22,-1.2584146,4.281608599999998,9.391483,1005.0797,5.705431600505682,1005.0978543240144,1,2
22.24,-1.2584146,4.281608599999998,9.391483,1005.08496,5.714813066350375,1005.0979465287016,1,2
22.26,-1.2632097,3.9670162,8.439866,1005.09265,5.722089304241762,1005.0980089332596,1,2
22.28,-0.43632632,3.795421,9.1831665,1005.1,5.728591777065956,1005.0980712417676,1,2
22.3,0.04163879,3.7715883,8.231549000000001,1005.0975,5.732533975956045,1005.0981242410949,1,2
22.32,0.6629980999999999,3.9479513,8.704988499999999,1005.11,5.7352946906277325,1005.0982138240324,1,2
22.34,0.83028364,3.9860845,8.132124000000001,1005.105,5.735989532062862,1005.0983174097496,1,2
22.36,1.1457354,4.2244124,8.04217,1005.0624,5.734984607663691,1005.098279635414,1,2
22.38,0.12284224,4.114782,7.5261179999999985,1005.1252,5.7312805846903645,1005.0983431713237,1,2
22.4,0.18017705,5.2396894,9.419878,1005.15,5.729782115139308,1005.0985852762366,1,2
22.42,0.38570106,5.0776267,10.887542,1005.1373,5.732813021417831,1005.0989385731433,1,2
22.44,0.639023,4.896498,12.000127,1005.1027,5.741823954988365,1005.0992642874266,1,2
22.46,1.1169881000000002,4.8107004,11.119526,1005.1078,5.754403953599296,1005.0995828171327,1,2
22.48,1.3846343,4.7392025,10.030611,1005.1102,5.768040794748088,1005.0999024918393,1,2
22.5,1.1265098,3.13764,10.366752,1005.0776,5.781958966238125,1005.1001046674396,1,2
22.52,0.84927356,2.7849152000000004,9.935921,1005.067,5.794961815856039,1005.100164132997,1,2
22.54,0.6150479,2.9374454,8.548738499999999,1005.0574,5.8044206093016895,1005.1000627258848,1,2
22.56,0.28043884,3.1996064,7.914325999999999,1005.06757,5.809635107083622,1005.0998561487472,1,2
22.58,0.10835065,3.2043734,8.151046000000001,1005.1123,5.811533097860536,1005.099718415053,1,2
22.6,-0.65644073,2.436958,9.708662,1005.0797,5.813138393504031,1005.0995246472664,1,2
22.62,-0.65644073,2.436958,9.708662,1005.11304,5.814479284663322,1005.0994020893204,1,2
22.64,-0.0064178556,3.1328762,10.494571,1005.1075,5.817495718420119,1005.0993229495976,1,2
22.66,0.5097934000000001,3.061378,10.721822,1005.0923,5.822417756673088,1005.0992277391199,1,2
22.68,1.7436217,3.0565958,10.1774235,1005.1026,5.828188299615923,1005.0991557512808,1,2
22.7,2.0304215,3.409321,9.14059,1005.0601,5.833017040798366,1005.098951542122,1,2
22.72,2.2025,3.509418,8.520383,1005.0797,5.83597699198784,1005.0987017973572,1,2
22.74,2.3172266,3.6428819,9.656641,1005.0751,5.839568529411378,1005.0983961564128,1,2
22.76,2.326798,3.8049443,9.263687,1005.1026,5.843089084198343,1005.0981412259108,1,2
22.78,2.355488,3.8526096,10.186897,1005.1048,5.848324768756046,1005.0979399409067,1,2
22.8,1.6911067,3.3997865,10.276852,1005.08997,5.85466849251888,1005.0977333936893,1,2
22.82,1.6003018999999998,4.0766373,8.198447999999999,1005.05237,5.858516011257219,1005.0973875803508,1,2
22.84,1.394776,4.4722610000000005,7.8481035000000015,1005.0574,5.8598221143048015,1005.0969380643955,1,2
22.86,0.8020918,5.106212599999999,6.9438330000000015,1005.0797,5.8578728545929275,1005.0964788150661,1,2
22.88,0.05167401,4.910784,7.786558,1005.0923,5.854196290952065,1005.096057978624,1,2
22.9,-0.98552626,4.886950499999998,9.206881,1005.1048,5.851633990028215,1005.0957175988208,1,2
22.92,-0.7991024999999999,4.224399,10.006996,1005.1051,5.8509415502233315,1005.0954506158708,1,2
22.94,-0.41671252,4.152900700000001,9.230555,1005.1023,5.850321795129927,1005.0952393675192,1,2
22.96,-0.005637988399999999,4.0766354,9.864966,1005.1026,5.850898734084529,1005.0950792067523,1,2
22.98,-0.06298418,4.024203,9.912312,1005.0797,5.8525811335346125,1005.0948823235547,1,2
23.0,0.26683372,4.419827,9.760811,1005.08484,5.855275740014252,1005.0946722051964,1,2
23.02,0.5297343000000001,4.252997,10.433098,1005.0777,5.860020874343352,1005.0944254446764,1,2
23.04,0.41502476,4.252996400000002,9.869704,1005.0522,5.865471568973226,1005.09405539548,1,2
23.06,0.16171227,4.834516000000002,8.198461,1005.0723,5.868957204065263,1005.0936501005864,1,2
23.08,0.0039844513,5.025178,8.046961,1005.1075,5.870627535844876,1005.0933418416562,1,2
23.1,-0.23976836,4.500857,9.386799,1005.0923,5.872611859521422,1005.0930657134356,1,2
23.12,-0.14415517,4.8726482,8.316825999999999,1005.07214,5.873260543682983,1005.0927463939714,1,2
23.14,-0.034208313,5.3159375,7.800775999999999,1005.10535,5.872310529969653,1005.0925096162746,1,2
23.16,-0.43092054,5.268271,6.962787599999999,1005.08234,5.8685004740141045,1005.0922637888832,1,2
23.18,-0.4930523,5.253971599999999,6.8965063,1005.0721,5.862056334171343,1005.0919739861599,1,2
23.2,-0.6462511,5.177713,7.606644599999999,1005.08484,5.854431201316283,1005.0916922341237,1,2
23.22,-0.689268,5.3493085,7.3225803,1005.06976,5.845520295597639,1005.0913643219814,1,2
23.24,-0.46461666,5.654369,7.1000630000000005,1005.10974,5.835492589458005,1005.0911407312534,1,2
23.26,0.21889724,5.926062,8.520385000000001,1005.0746,5.827200630721983,1005.0908836198537,1,2
23.28,0.5343661999999999,5.768765,8.615072999999999,1005.0748,5.820474290834937,1005.0905985351892,1,2
23.3,0.5391473000000001,6.2025228,7.6066449999999985,1005.1023,5.81400783883333,1005.0903887596534,1,2
23.32,0.66820323,6.1977553,8.340477,1005.1023,5.809005834728946,1005.0902462824547,1,2
23.34,0.89285463,6.1786895,8.700292999999999,1005.0921,5.8059305043959535,1005.0901270629854,1,2
23.36,1.4090748,6.5647800000000025,9.145327,1005.1075,5.805892830920287,1005.0900842632357,1,2
23.38,0.5821705,6.1500900000000005,9.074311,1005.0894,5.807774647307062,1005.090043982029,1,2
23.4,0.5821705,6.1500900000000005,9.074311,1005.0969,5.811345750397295,1005.0900330712196,1,2
23.42,-0.09177929,6.0309258,6.7165775,1005.2047,5.8123433102926025,1005.0904362313721,1,2
23.44,0.2810461,5.363608,8.368885,1005.1019,5.812968782677191,1005.0908337332496,1,2
23.46,1.0171366,5.6591344,10.153756,1004.99176,5.816847750754628,1005.0908283004692,1,2
23.48,0.33362585,5.330242,7.3036437,1005.0093,5.818140434664607,1005.0905299981823,1,2
23.5,0.40532422,5.6400685,5.9354014,1005.0822,5.815376117117393,1005.0902364302884,1,2
23.52,0.69211364,5.7020335,7.279972,1005.10974,5.8112719679067775,1005.0900472465484,1,2
23.54,0.8641879000000001,6.1262574,7.568771000000001,1005.10455,5.807043355872652,1005.089932293708,1,2
23.56,0.40532804,6.202522,6.90122,1005.0896,5.801705836081735,1005.0898295251206,1,2
23.58,0.43400806,6.2454205,7.4646149999999984,1005.11444,5.796352635081402,1005.0898273165068,1,2
23.6,0.037286222,5.5399704000000005,8.818653999999997,1005.0819,5.792401760099707,1005.0897968266361,1,2
23.62,-0.07264801,5.8164306,7.412536,1005.09186,5.787642234519921,1005.0897773132104,1,2
23.64,-0.072647355,5.887929,7.388864,1005.064,5.7822389000897845,1005.0896672728198,1,2
23.66,0.11376627,5.8259635,8.013805,1005.0991,5.777242621190151,1005.0896039989486,1,2
23.68,0.2724704,5.592378599999999,8.080176,1005.07904,5.7724620883920785,1005.0895100597596,1,2
23.7,0.25817162,5.3349833,8.392652,1005.09406,5.768133947736776,1005.0894434348774,1,2
23.72,0.43984473,5.425547,8.174871000000001,1005.06396,5.763957573260844,1005.0892928247656,0,0
23.74,0.6740958,5.635275,7.829264,1005.10944,5.759615713562655,1005.089232275502,0,0
23.76,0.62155855,5.463678,8.184348,1005.10956,5.755538472514387,1005.0892519539806,0,0
23.78,0.60245967,5.454144,8.122803,1005.09406,5.751590163574166,1005.0892866508501,0,0
23.8,0.64553875,5.5780730000000025,8.1275425,1005.1267,5.747928190018923,1005.0894519970607,0,0
23.82,0.5356236,5.416009,8.463687,1005.06635,5.744914456404836,1005.089514929783,0,0
23.84,0.6838584,5.654336,7.92397,1005.08655,5.741852507344114,1005.0895598633892,0,0
23.86,0.76035553,5.5876036,8.387944000000001,1005.10944,5.739483881977558,1005.0896711352153,0,0
23.88,0.7030588000000001,5.530403,8.018666,1005.07935,5.73702748718692,1005.0897322989143,0,0
23.9,0.6648407,5.5542355,7.7630105,1005.08405,5.73409143735786,1005.0897658868828,0,0
23.92,0.45456988,5.5256357000000005,7.602044,1005.10913,5.730410772617644,1005.0898652760187,0,0
23.94,0.3829134,5.559,7.824565,1005.07404,5.726494504101657,1005.0898961252657,0,0
23.96,0.09138596,5.4303019999999975,7.7630215,1005.1016,5.722110526284657,1005.0899655176092,0,0
23.98,0.029309407000000006,5.3683357,8.766722,1005.12195,5.71900351115166,1005.0901419768204,0,0
24.0,0.25400078,5.4588995,8.979773,1005.06616,5.717518351533522,1005.0902115610633,0,0
24.02,0.335298,5.4302983,8.927698,1005.1015,5.717353042555593,1005.09031368408,0,0
24.04,0.335298,5.4302983,8.927698,1005.08405,5.718354548715669,1005.0903813707151,0,0
24.06,0.2780013,5.5780606,7.957151,1005.08905,5.718859240019481,1005.0904363856912,0,0
24.08,0.20634486,5.4064636,8.501610000000001,1005.08685,5.719662342328719,1005.0904720859356,0,0
24.1,0.1729268,5.239633,8.567896000000001,1005.10913,5.720658334025671,1005.0905707991625,0,0
24.12,0.28288257,5.177667,8.634179,1005.08887,5.721877468206907,1005.0906518992924,0,0
24.14,0.5649316,5.163367,8.591573,1005.08636,5.723222963264477,1005.0907081085298,0,0
24.16,0.67970777,5.3015957,8.1654825,1005.104,5.7240925734919275,1005.0908056258212,0,0
24.18,0.61281085,5.2729955,7.8482794999999985,1005.06616,5.723947632870113,1005.0908030678473,0,0
24.2,0.56862634,5.2920904,7.90972,1005.11395,5.723028970483085,1005.0908841365767,0,0
24.22,0.6020773,5.282557,8.331081,1005.1065,5.722155884386121,1005.0910119860147,0,0
24.24,0.48257458,5.2110596,8.264797999999999,1005.09155,5.721116953806567,1005.0911268906284,0,0
24.26,0.6833188,5.373122,8.293204,1005.08905,5.720190674236734,1005.0912209435388,0,0
24.28,0.59249103,5.2730246,8.21272,1005.0991,5.7191022211131735,1005.0913324132938,0,0
24.3,0.6450575,5.325457,8.430501,1005.1015,5.718320704929629,1005.0914675112814,0,0
24.32,0.7263104,5.287325,8.634079,1005.11444,5.718141416237162,1005.0916695848227,0,0
24.34,0.72152674,5.2158265,8.799783,1005.10913,5.718711960612798,1005.0919109944984,0,0
24.36,0.97006506,5.292092,8.42103,1005.09155,5.719398890991384,1005.0921230045076,0,0
24.38,1.003516,5.196761,8.274263000000001,1005.0615,5.7198312113328775,1005.0922000937352,0,0
24.4,1.0656496000000002,5.287326,8.089621000000001,1005.1065,5.719830336684883,1005.0923196894397,0,0
24.42,1.0274037,5.2205935,8.084886000000001,1005.10693,5.719354792580915,1005.0924779613216,0,0
24.44,0.907901,5.1395626,8.350011,1005.0991,5.718811388577981,1005.0926416496964,0,0
24.46,1.0847421999999998,5.320692,8.255322,1005.06903,5.718281063070352,1005.0927012828051,0,0
24.48,1.0417202,5.325459,8.179572,1005.1015,5.7176285359351695,1005.0927856500019,0,0
24.5,0.9413367,5.28256,8.61987,1005.08905,5.717572169185384,1005.092846748517,0,0
24.52,1.0560405000000002,5.1824627,8.217444,1005.0819,5.717250626478722,1005.0928613268704,0,0
24.54,1.2185501,5.29686,8.070678,1005.059,5.71660831852908,1005.0927523075264,0,0
24.56,1.2089828,5.2396617,7.9191766,1005.07684,5.715356650769447,1005.0925986937268,0,0
24.58,1.017783,5.201529,8.013864,1005.1019,5.713645261153178,1005.0924964452763,0,0
24.6,0.9747574,5.2539615999999985,8.070675999999999,1005.07935,5.7116821333538095,1005.0923587713428,0,0
24.62,0.84091526,5.31116,8.155894,1005.0944,5.709690028788924,1005.0922444710781,0,0
24.64,0.6879539000000001,5.2777949999999985,8.463631,1005.1019,5.708155524197678,1005.092178235268,0,0
24.66,0.65927124,5.330227,8.444692,1005.06903,5.707051380248222,1005.0920363756596,0,0
24.68,0.5588877,5.3016276,8.534645,1005.07684,5.706445493386134,1005.091856321557,0,0
24.7,0.4004829,5.0299505999999985,8.368879,1005.1246,5.705678386747774,1005.0918151029944,0,0
24.72,0.9071079,5.511374,8.738159,1005.08154,5.706015433969699,1005.0917416919016,0,0
24.74,0.6776430999999999,5.3350115,8.387812,1005.0919,5.7064809238931335,1005.0916773957697,0,0
24.76,0.7254069000000001,5.4160438,8.875451,1005.1019,5.708012144479198,1005.0916573850824,0,0
24.78,0.52462095,5.311180599999998,8.780761,1005.07684,5.710173485649397,1005.0915863610526,0,0
24.8,0.5102473,5.1920176,8.728679,1005.0921,5.712662356359023,1005.0915254533203,0,0
24.82,0.58668995,5.068088,8.525096000000001,1005.0921,5.714945736243657,1005.091473703616,0,0
24.84,0.42890507,4.782096,8.667123,1005.0844,5.716983227682233,1005.0914025122439,0,0
24.86,0.29983324,4.6819983,8.619778,1005.0791,5.718600112160617,1005.0912953185041,0,0
24.88,0.25196677,4.901262,8.03744,1005.0771,5.7190154051140905,1005.0911494989683,0,0
24.9,0.27106887,4.991827,8.259953999999999,1005.1073,5.718861403363168,1005.0910787946308,0,0
24.92,0.070265815,4.8440647000000014,8.510874000000001,1005.1019,5.718492009774486,1005.0910552766172,0,0
24.94,0.16584478,5.0442605,8.553482,1005.0972,5.7182212178922995,1005.0910566171046,0,0
24.96,0.17059033,5.077627,8.458789999999999,1005.0871,5.717905033551627,1005.0910435577376,0,0
24.98,0.20879455,5.2301583,8.491928,1005.07935,5.717774923173432,1005.0909899216733,0,0
25.0,-0.16406432,5.1967936,8.501394,1005.0946,5.7177884630111135,1005.0909555251286,0,0
25.02,0.007974386,5.3969893,8.605547,1005.1248,5.71832919355548,1005.0910469724513,0,0
25.04,-0.015941754,5.3493237,8.979565,1005.1,5.7199454500195275,1005.0911600062046,0,0
25.06,-0.12591146,5.1777287,9.083718,1005.10455,5.722515224433366,1005.0913080868072,0,0
25.08,0.43805408,5.33026,8.709696000000001,1005.0747,5.72542811364826,1005.0913791417148,0,0
25.1,0.35200047,5.2158628,8.534521,1005.0796,5.728192377409487,1005.0913995209207,0,0
25.12,0.44278252,5.2063303,8.132093,1005.105,5.730103933107469,1005.0914664897124,0,0
25.14,0.14160357,5.192032299999998,7.767539500000002,1005.0872,5.730585925123823,1005.0915103039732,0,0
25.16,0.28496350000000004,5.396995,8.127352,1005.0846,5.730668016421974,1005.09152414116,0,0
25.18,0.19043444,5.4827666,7.9948854,1005.07513,5.730263202033057,1005.09147734879,0,0
25.2,0.26214164,5.749694,8.023292999999999,1005.1198,5.7297998160320684,1005.0915379645962,0,0
25.22,0.113977864,5.687728,8.0517,1005.0924,5.7292539221634105,1005.09159462805,0,0
25.24,-0.115442544,5.5447316,7.7913093999999985,1005.1001,5.7280237638997145,1005.0916753152167,0,0
25.26,-0.115442544,5.5447316,7.7913093999999985,1005.1028,5.726193418186315,1005.0917866592627,0,0
25.28,-0.13455161,5.754459400000001,7.800778999999999,1005.08234,5.724111546514617,1005.0918510348884,0,0
25.3,-0.45478833,5.4398665,7.8575925999999985,1005.08514,5.7215512787433545,1005.0918837574652,0,0
25.32,-0.45477313,5.5447307,8.032766,1005.08496,5.719000482054724,1005.0918877456076,0,0
25.34,-0.6077167,5.5113645,8.009096000000001,1005.07526,5.716404804291983,1005.091831409646,0,0
25.36,-0.68418336,5.4303327,8.004362,1005.07513,5.7136864657863216,1005.0917215061156,0,0
25.38,-0.66027427,5.66866,7.739236999999997,1005.05756,5.710701535315566,1005.091501413934,0,0
25.4,-0.64592975,5.6877260000000005,7.7960496,1005.0955,5.70760821250666,1005.0913213353923,0,0
25.42,-0.7032773,5.3588333,8.809214,1005.09515,5.705808629935497,1005.0911760011853,0,0
25.44,-0.89445925,5.1252723,8.203211,1005.0655,5.7038677078310664,1005.0909551502756,0,0
25.46,-0.8370813,5.1681705,7.8907413,1005.088,5.701301107212847,1005.0907493678712,0,0
25.48,-0.8561955,5.1491045999999985,7.871803999999999,1005.08044,5.698140037311468,1005.090530424814,0,0
25.5,-0.9326622,5.001341,7.6114130000000015,1005.07776,5.693862245889268,1005.0902909931996,0,0
25.52,-1.1286241,4.972741,8.226887,1005.07526,5.689701970666428,1005.0900253198492,0,0
25.54,-0.9852197,5.177703,9.00333,1005.11316,5.687226783716621,1005.0898738557255,0,0
25.56,-0.9852197,5.177703,9.00333,1005.09564,5.686249451437888,1005.0897607801453,0,0
25.58,-1.0091035,4.844044,9.528851,1005.0835,5.6872317100698435,1005.0896383277541,0,0
25.6,-0.7796626999999999,5.082371,8.856565,1005.07806,5.688911020144709,1005.0894884468413,0,0
25.62,-0.61235446,5.2587333,8.884974,1005.091,5.691411734753884,1005.089361453658,0,0
25.64,-0.66014236,5.215834,9.093288,1005.101,5.694963902000617,1005.089291141248,0,0
25.66,-0.5262977,5.2920989999999986,8.596177,1005.0732,5.698610416594205,1005.0891710850943,0,0
25.68,-0.5604670999999999,5.211085,8.226828999999999,1005.0935,5.701591824290645,1005.0890805875704,0,0
25.7,-0.39797288,5.3779144,8.387796,1005.0987,5.7044263242760325,1005.0890352538428,0,0
25.72,-0.65610135,5.1586537,8.042183,1005.07874,5.706300369555152,1005.0889581340477,0,0
25.74,-0.75648665,5.077622,8.188948,1005.0632,5.7075020447975024,1005.0887972617136,0,0
25.76,-0.6704691999999999,5.0347238,8.278901,1005.10364,5.708204480278248,1005.0887085487773,0,0
25.78,-0.77564394,4.8059297,8.316774,1005.0761,5.7083052640306615,1005.0885847712512,0,0
25.8,-0.68484664,4.7677975,7.9995675,1005.0811,5.707252612487091,1005.0884484562528,0,0
25.82,-0.62271875,4.8535957000000005,8.108457000000001,1005.0788,5.705460650483638,1005.0882932738775,0,0
