Timestamp,Ax,Ay,Az,P,Value,Type
0.0,1.2969723999999998,6.8659306,7.021915400000001,1001.43396,0,0
0.04,0.7090388000000001,6.8516309999999985,7.178149,1001.4415,0,0
0.08,0.3075186,6.537039,7.376991999999999,1001.43396,0,0
0.12,0.23580377,6.422642,7.3249119999999985,1001.4441,0,0
0.16,0.5894914000000001,6.589472,7.727335000000001,1001.40356,0,0
0.2,0.37916344,6.289179,7.547426,1001.439,0,0
0.24,0.2782892,6.379756,7.5710526,1001.3984,0,0
0.28,0.60327905,6.432189,7.6988783,1001.4339,0,0
0.32,0.2638762,6.1604967,7.7130785,1001.40356,0,0
0.36,0.32597917,6.2748940000000015,7.580512,1001.4213,0,0
0.4,0.40719908,6.4607915999999985,7.291710000000001,1001.4034,0,0
0.44,0.25420856,6.3082623,7.5568333,1001.401,0,0
0.48,-0.19512749,6.1414337,7.5094852,1001.3984,0,0
0.52,0.029486522,6.3130302,7.599436,1001.411,0,0
0.56,0.00077319145,6.2367663,7.561557,1001.3654,0,0
0.6,-0.2717124,6.0461054,8.091807000000001,1001.4059,0,0
0.64,-0.14269677,5.9746074999999985,7.357971000000001,1001.3984,0,0
0.68,-0.123609744,5.8840437,7.997112299999999,1001.406,0,0
0.72,-0.41043705,5.798247,7.670436,1001.3782,0,0
0.76,0.0292681,6.15574,7.424243,1001.4034,0,0
0.8,0.0005547702300000001,6.3130370000000005,7.414771000000001,1001.3831,0,0
0.84,-0.032938300000000004,6.5227656,8.3521805,1001.40076,0,0
0.88,0.11997633,6.7753944000000015,7.6562195000000015,1001.41595,0,0
0.92,-0.36760047,6.5894995,7.386354400000001,1001.3832,0,0
0.96,-0.35329783,6.3368730000000015,7.660947,1001.39575,0,0
1.0,-0.42503166,6.1843443,8.413713000000001,1001.4388,0,0
1.04,-0.8456866,5.864986,7.684612299999999,1001.40326,0,0
1.08,-0.6019557,6.236778299999999,7.703545599999999,1001.3958,0,0
1.12,-0.57809114,6.2701445,7.291651,1001.3855,0,0
1.16,-0.31524104,6.3845434,7.362662299999997,1001.41077,0,0
1.2,-0.1909983,6.5227737,6.9602356,1001.39825,0,0
1.24,0.07118322,6.4274607,6.9270296,1001.3779,0,0
1.28,0.118913904,6.3893294,7.632449,1001.4234,0,0
1.32,0.28137964,6.599059,7.263161699999999,1001.40826,0,0
1.36,0.44860137,6.7515907,7.2868270000000015,1001.3855,0,0
1.4,0.45809764,6.479899,7.907027999999999,1001.40826,0,0
1.44,0.7495982,6.675329,7.2820807,1001.393,0,0
1.48,0.6539545999999999,6.651497,6.8559800000000015,1001.38525,0,0
1.52,0.84987104,6.7515965,6.5245667,1001.3802,0,0
1.56,1.1126771,6.761132000000001,6.71867,1001.4032,0,0
1.6,0.75890815,6.589537,6.6476479999999984,1001.3955,0,0
1.64,0.8162024,6.780200999999999,6.5576887,1001.3753,0,0
1.68,0.86872876,6.8660007,6.6381683,1001.39044,0,0
1.72,0.43847895,6.589541400000001,6.941164,1001.38043,0,0
1.76,0.28067803,6.360749,7.589772,1001.4106,0,0
1.8,0.18502249,6.470381,8.352005,1001.41833,0,0
1.84,0.32835317,6.575246300000001,7.712854400000001,1001.42334,0,0
1.88,0.5625001000000001,6.665813000000001,8.044257,1001.41327,0,0
1.92,0.4525013,6.584783,7.575545299999999,1001.4031,0,0
1.96,0.28514868,6.3607564000000005,7.845401,1001.39044,0,0
2.0,0.36633795,6.4799213,7.5329247000000015,1001.41077,0,0
2.04,0.36629432,6.6801179999999984,7.0216045,1001.3852,0,0
2.08,0.21804507,6.580023,7.1920366,1001.4156,0,0
2.12,-0.2122046,6.3321633,7.234639,1001.38513,0,0
2.16,-0.33652708,6.303565,7.2204323000000015,1001.4031,0,0
2.2,-0.3079077,6.2273016,7.106800999999999,1001.42566,0,0
2.24,-0.044358402000000005,6.298784,7.641849499999997,1001.41785,0,0
2.28,-0.06351401,6.2654185,6.874872,1001.408,0,0
2.32,0.13720997,6.3845835,7.3577785,1001.4131,0,0
2.36,0.11327456,6.479915,7.3056974000000015,1001.4307,0,0
2.4,0.31398988,6.5657144,7.3056936000000015,1001.4304,0,0
2.44,0.1992404,6.484683,7.4903326,1001.4105,0,0
2.48,0.35693967,6.3655205000000015,7.641830400000001,1001.4307,0,0
2.52,0.29477012,6.4417863,7.944828999999999,1001.4307,0,0
2.56,0.12744485,6.541885,7.4713850000000015,1001.4458,0,0
2.6,0.1226287,6.47992,7.532929400000001,1001.4331,0,0
2.64,-0.06381793,6.1176624,8.077383,1001.4331,0,0
2.68,0.10822292,6.2415943,8.030036,1001.461,0,0
2.72,-0.13558133,6.2463617,7.5092487,1001.42053,0,0
2.76,-0.13561559,6.3798255999999975,7.163634299999999,1001.4027,0,0
2.8,0.017303898999999998,6.5609555,7.1115521999999975,1001.43066,0,0
2.84,-0.14046171,6.2844963,7.035799000000001,1001.4155,0,0
2.88,-0.19785361,6.3464627,7.0594683000000025,1001.4179,0,0
2.92,-0.15486962,6.3893623,7.0831366,1001.42816,0,0
2.96,-0.3269768,6.3083315,7.684402499999999,1001.42554,0,0
3.0,-0.23619479,6.4465629999999985,7.5139619999999985,1001.4281,0,0
3.04,-0.34616238,6.2320685,8.0631485,1001.4355,0,0
3.08,-0.21713977,6.3893657,7.8358946,1001.42554,0,0
3.12,-0.17893776,6.427499,7.5186863,1001.438,0,0
3.16,-0.17896128,6.3989,7.3056364,1001.4153,0,0
3.2,-0.26504055,6.4465666,7.419257000000001,1001.4254,0,0
3.24,-0.26940447,6.4179572999999985,7.4571705,1001.4204,0,0
3.28,-0.3745777,6.355993,7.627608299999999,1001.42786,0,0
3.32,-0.23119801,6.465624,7.3861523,1001.4279,0,0
3.36,-0.2503337,6.470391,7.542386,1001.4404,0,0
3.4,-0.30770886,6.470391,7.3530083,1001.45844,0,0
3.44,-0.4128759,6.3655267,7.24885,1001.443,0,0
3.48,-0.40333068,6.313095,7.277255,1001.38995,0,0
3.52,-0.49416965,6.0938339999999975,7.883257,1001.4229,0,0
3.56,-0.23607674,6.29403,7.400346799999999,1001.4127,0,0
3.6,-0.04968089,6.565724,7.187297,1001.39496,0,0
3.64,-0.350824,6.389362,7.637063,1001.4227,0,0
3.68,-0.22178575,6.3941282999999975,7.821703999999999,1001.4328,0,0
3.72,-0.22658207,6.5371256,7.3056526,1001.43036,0,0
3.76,-0.47036338,6.5228267,7.580247,1001.4151,0,0
3.8,-0.58031434,6.2844989999999985,7.594448,1001.40753,0,0
3.84,-0.551653,6.3607644999999975,7.580244,1001.4152,0,0
3.88,-0.5994655,6.2273010000000015,7.509225999999999,1001.4304,0,0
3.92,-0.46565264,6.2416015,7.513959,1001.4354,0,0
3.96,-0.43699032,6.2416019999999985,7.5281600000000015,1001.438,0,0
4.0,-0.41310263,6.222536,7.6370505999999985,1001.4101,0,0
4.04,-0.3748807,6.294035,7.5612984,1001.4355,0,0
4.08,-0.4896115,6.2606688,7.6228447,1001.4178,0,0
4.12,-0.37013182,6.3131013,7.419264,1001.4378,0,0
4.16,-0.3892706,6.2749696,7.618107000000001,1001.43536,0,0
4.2,-0.34626782,6.265437,7.608637,1001.39484,0,0
4.24,-0.37059665,6.2988133,7.5801916,1001.40753,0,0
4.28,-0.34195077,6.3178806,7.258248299999999,1001.4201,0,0
4.32,-0.37066257,6.160585,7.613326,1001.4302,0,0
4.36,-0.21295992,6.1701183,7.4428844,1001.4227,0,0
4.4,-0.22255254,6.2177854,7.3671303,1001.4227,0,0
4.44,-0.23213893,6.341716,7.5754423,1001.41003,0,0
4.48,-0.18915989,6.3369503,7.769549400000002,1001.3897,0,0
4.52,-0.25133032,6.2797527,7.5896387,1001.4303,0,0
4.56,-0.18922378,6.246387,7.845294,1001.43286,0,0
4.6,-0.37088725,6.0652589999999975,7.8736973,1001.4227,0,0
4.64,-0.3087848,6.3083544,7.58963,1001.40247,0,0
4.68,-0.21800151,6.3178887,7.797941000000002,1001.40247,0,0
4.72,-0.31362852,6.112927,8.020453999999999,1001.4328,0,0
4.76,-0.22284523,6.0986285,7.935233,1001.4201,0,0
4.8,-0.21809635,6.1605940000000015,7.722181299999999,1001.40765,0,0
4.84,-0.25158793,6.2130275,7.580147,1001.4278,0,0
4.88,-0.24206133,6.131996599999999,7.693769500000001,1001.4151,0,0
4.92,-0.16561742,6.2082624000000015,7.6132812,1001.3924,0,0
4.96,-0.29948494,6.0414333,7.8357953999999985,1001.4126,0,0
5.0,-0.2899562,6.1081660000000015,7.731636,1001.42523,0,0
5.04,-0.079677835,6.2845297,7.660616,1001.405,0,0
5.08,-0.25655735,6.1415334,7.7126923,1001.4278,0,0
5.12,-0.2326975,6.2416325,7.523312599999999,1001.4227,0,0
5.16,-0.3044275,6.1606016,7.6937485,1001.39996,0,0
5.2,-0.38093114,6.2511663,7.296056,1001.3924,0,0
5.24,-0.5004634,6.236868,7.452287700000001,1001.41254,0,0
5.28,-0.14678884,6.098639,7.494894,1001.42523,0,0
5.32,-0.16594101,5.9365764,7.9588633,1001.4176,0,0
5.36,-0.23767105,6.074807,7.513826400000001,1001.39996,0,0
5.4,-0.08952391,6.3846345,7.1208677,1001.3974,0,0
5.44,-0.49106044,6.317903500000001,7.144537,1001.4226,0,0
5.48,-0.495865,6.246405,7.333911,1001.4405,0,0
5.52,-0.58672035,6.031912,7.778941,1001.40753,0,0
5.56,-0.6536809,5.9699472999999985,8.209767999999999,1001.41504,0,0
5.6,-0.64892584,5.922282,8.238172,1001.3999,0,0
5.64,-0.4386516,6.008081400000001,8.053527,1001.4278,0,0
5.68,-0.45780784,6.0319150000000015,7.9209604,1001.39484,0,0
5.72,-0.35268313,6.0414486,7.8688793000000015,1001.41254,0,0
5.76,-0.30012795,6.141547,7.7221107,1001.3873,0,0
5.8,-0.3192863,6.1367817,7.509058,1001.3974,0,0
5.84,-0.29063842,6.136782,7.570603399999999,1001.3848,0,0
5.88,-0.09947923,6.1463160000000014,7.745773299999999,1001.41,0,0
5.92,-0.19988191,6.0652857,7.7883806,1001.4127,0,0
5.96,0.10599257,6.2511816,7.442765,1001.3873,0,0
6.0,-0.118695304,6.0891199999999985,7.830983,1001.4151,0,0
6.04,1.2969723999999998,6.8659306,7.021915400000001,1001.43396,0,0
6.08,0.7090388000000001,6.8516309999999985,7.178149,1001.4415,0,0
6.12,0.3075186,6.537039,7.376991999999999,1001.43396,0,0
6.16,0.23580377,6.422642,7.3249119999999985,1001.4441,0,0
6.2,0.5894914000000001,6.589472,7.727335000000001,1001.40356,0,0
6.24,0.37916344,6.289179,7.547426,1001.439,0,0
6.28,0.2782892,6.379756,7.5710526,1001.3984,0,0
6.32,0.60327905,6.432189,7.6988783,1001.4339,0,0
6.36,0.2638762,6.1604967,7.7130785,1001.40356,0,0
6.4,0.32597917,6.2748940000000015,7.580512,1001.4213,0,0
6.44,0.40719908,6.4607915999999985,7.291710000000001,1001.4034,0,0
6.48,0.25420856,6.3082623,7.5568333,1001.401,0,0
6.52,-0.19512749,6.1414337,7.5094852,1001.3984,0,0
6.56,0.029486522,6.3130302,7.599436,1001.411,0,0
6.6,0.00077319145,6.2367663,7.561557,1001.3654,0,0
6.64,-0.2717124,6.0461054,8.091807000000001,1001.4059,0,0
6.68,-0.14269677,5.9746074999999985,7.357971000000001,1001.3984,0,0
6.72,-0.123609744,5.8840437,7.997112299999999,1001.406,0,0
6.76,-0.41043705,5.798247,7.670436,1001.3782,0,0
6.8,0.0292681,6.15574,7.424243,1001.4034,0,0
6.84,0.0005547702300000001,6.3130370000000005,7.414771000000001,1001.3831,0,0
6.88,-0.032938300000000004,6.5227656,8.3521805,1001.40076,0,0
6.92,0.11997633,6.7753944000000015,7.6562195000000015,1001.41595,0,0
6.96,-0.36760047,6.5894995,7.386354400000001,1001.3832,0,0
7.0,-0.35329783,6.3368730000000015,7.660947,1001.39575,0,0
7.04,-0.42503166,6.1843443,8.413713000000001,1001.4388,0,0
7.08,-0.8456866,5.864986,7.684612299999999,1001.40326,0,0
7.12,-0.6019557,6.236778299999999,7.703545599999999,1001.3958,0,0
7.16,-0.57809114,6.2701445,7.291651,1001.3855,0,0
7.2,-0.31524104,6.3845434,7.362662299999997,1001.41077,0,0
7.24,-0.1909983,6.5227737,6.9602356,1001.39825,0,0
7.28,0.07118322,6.4274607,6.9270296,1001.3779,0,0
7.32,0.118913904,6.3893294,7.632449,1001.4234,0,0
7.36,0.28137964,6.599059,7.263161699999999,1001.40826,0,0
7.4,0.44860137,6.7515907,7.2868270000000015,1001.3855,0,0
7.44,0.45809764,6.479899,7.907027999999999,1001.40826,0,0
7.48,0.7495982,6.675329,7.2820807,1001.393,0,0
7.52,0.6539545999999999,6.651497,6.8559800000000015,1001.38525,0,0
7.56,0.84987104,6.7515965,6.5245667,1001.3802,0,0
7.6,1.1126771,6.761132000000001,6.71867,1001.4032,0,0
7.64,0.75890815,6.589537,6.6476479999999984,1001.3955,0,0
7.68,0.8162024,6.780200999999999,6.5576887,1001.3753,0,0
7.72,0.86872876,6.8660007,6.6381683,1001.39044,0,0
7.76,0.43847895,6.589541400000001,6.941164,1001.38043,0,0
7.8,0.28067803,6.360749,7.589772,1001.4106,0,0
7.84,0.18502249,6.470381,8.352005,1001.41833,0,0
7.88,0.32835317,6.575246300000001,7.712854400000001,1001.42334,0,0
7.92,0.5625001000000001,6.665813000000001,8.044257,1001.41327,0,0
7.96,0.4525013,6.584783,7.575545299999999,1001.4031,0,0
8.0,0.28514868,6.3607564000000005,7.845401,1001.39044,0,0
8.04,0.36633795,6.4799213,7.5329247000000015,1001.41077,0,0
8.08,0.36629432,6.6801179999999984,7.0216045,1001.3852,0,0
8.12,0.21804507,6.580023,7.1920366,1001.4156,0,0
8.16,-0.2122046,6.3321633,7.234639,1001.38513,0,0
8.2,-0.33652708,6.303565,7.2204323000000015,1001.4031,0,0
8.24,-0.3079077,6.2273016,7.106800999999999,1001.42566,0,0
8.28,-0.044358402000000005,6.298784,7.641849499999997,1001.41785,0,0
8.32,-0.06351401,6.2654185,6.874872,1001.408,0,0
8.36,0.13720997,6.3845835,7.3577785,1001.4131,0,0
8.4,0.11327456,6.479915,7.3056974000000015,1001.4307,0,0
8.44,0.31398988,6.5657144,7.3056936000000015,1001.4304,0,0
8.48,0.1992404,6.484683,7.4903326,1001.4105,0,0
8.52,0.35693967,6.3655205000000015,7.641830400000001,1001.4307,0,0
8.56,0.29477012,6.4417863,7.944828999999999,1001.4307,0,0
8.6,0.12744485,6.541885,7.4713850000000015,1001.4458,0,0
8.64,0.1226287,6.47992,7.532929400000001,1001.4331,0,0
8.68,-0.06381793,6.1176624,8.077383,1001.4331,0,0
8.72,0.10822292,6.2415943,8.030036,1001.461,0,0
8.76,-0.13558133,6.2463617,7.5092487,1001.42053,0,0
8.8,-0.13561559,6.3798255999999975,7.163634299999999,1001.4027,0,0
8.84,0.017303898999999998,6.5609555,7.1115521999999975,1001.43066,0,0
8.88,-0.14046171,6.2844963,7.035799000000001,1001.4155,0,0
8.92,-0.19785361,6.3464627,7.0594683000000025,1001.4179,0,0
8.96,-0.15486962,6.3893623,7.0831366,1001.42816,0,0
9.0,-0.3269768,6.3083315,7.684402499999999,1001.42554,0,0
9.04,-0.23619479,6.4465629999999985,7.5139619999999985,1001.4281,0,0
9.08,-0.34616238,6.2320685,8.0631485,1001.4355,0,0
9.12,-0.21713977,6.3893657,7.8358946,1001.42554,0,0
9.16,-0.17893776,6.427499,7.5186863,1001.438,0,0
9.2,-0.17896128,6.3989,7.3056364,1001.4153,0,0
9.24,-0.26504055,6.4465666,7.419257000000001,1001.4254,0,0
9.28,-0.26940447,6.4179572999999985,7.4571705,1001.4204,0,0
9.32,-0.3745777,6.355993,7.627608299999999,1001.42786,0,0
9.36,-0.23119801,6.465624,7.3861523,1001.4279,0,0
9.4,-0.2503337,6.470391,7.542386,1001.4404,0,0
9.44,-0.30770886,6.470391,7.3530083,1001.45844,0,0
9.48,-0.4128759,6.3655267,7.24885,1001.443,0,0
9.52,-0.40333068,6.313095,7.277255,1001.38995,0,0
9.56,-0.49416965,6.0938339999999975,7.883257,1001.4229,0,0
9.6,-0.23607674,6.29403,7.400346799999999,1001.4127,0,0
9.64,-0.04968089,6.565724,7.187297,1001.39496,0,0
9.68,-0.350824,6.389362,7.637063,1001.4227,0,0
9.72,-0.22178575,6.3941282999999975,7.821703999999999,1001.4328,0,0
9.76,-0.22658207,6.5371256,7.3056526,1001.43036,0,0
9.8,-0.47036338,6.5228267,7.580247,1001.4151,0,0
9.84,-0.58031434,6.2844989999999985,7.594448,1001.40753,0,0
9.88,-0.551653,6.3607644999999975,7.580244,1001.4152,0,0
9.92,-0.5994655,6.2273010000000015,7.509225999999999,1001.4304,0,0
9.96,-0.46565264,6.2416015,7.513959,1001.4354,0,0
10.0,-0.43699032,6.2416019999999985,7.5281600000000015,1001.438,0,0
10.04,-0.41310263,6.222536,7.6370505999999985,1001.4101,0,0
10.08,-0.3748807,6.294035,7.5612984,1001.4355,0,0
10.12,-0.4896115,6.2606688,7.6228447,1001.4178,0,0
10.16,-0.37013182,6.3131013,7.419264,1001.4378,0,0
10.2,-0.3892706,6.2749696,7.618107000000001,1001.43536,0,0
10.24,-0.34626782,6.265437,7.608637,1001.39484,0,0
10.28,-0.37059665,6.2988133,7.5801916,1001.40753,0,0
10.32,-0.34195077,6.3178806,7.258248299999999,1001.4201,0,0
10.36,-0.37066257,6.160585,7.613326,1001.4302,0,0
10.4,-0.21295992,6.1701183,7.4428844,1001.4227,0,0
10.44,-0.22255254,6.2177854,7.3671303,1001.4227,0,0
10.48,-0.23213893,6.341716,7.5754423,1001.41003,0,0
10.52,-0.18915989,6.3369503,7.769549400000002,1001.3897,0,0
10.56,-0.25133032,6.2797527,7.5896387,1001.4303,0,0
10.6,-0.18922378,6.246387,7.845294,1001.43286,0,0
10.64,-0.37088725,6.0652589999999975,7.8736973,1001.4227,0,0
10.68,-0.3087848,6.3083544,7.58963,1001.40247,0,0
10.72,-0.21800151,6.3178887,7.797941000000002,1001.40247,0,0
10.76,-0.31362852,6.112927,8.020453999999999,1001.4328,0,0
10.8,-0.22284523,6.0986285,7.935233,1001.4201,0,0
10.84,-0.21809635,6.1605940000000015,7.722181299999999,1001.40765,0,0
10.88,-0.25158793,6.2130275,7.580147,1001.4278,0,0
10.92,-0.24206133,6.131996599999999,7.693769500000001,1001.4151,0,0
10.96,-0.16561742,6.2082624000000015,7.6132812,1001.3924,0,0
11.0,-0.29948494,6.0414333,7.8357953999999985,1001.4126,0,0
11.04,-0.2899562,6.1081660000000015,7.731636,1001.42523,0,0
11.08,-0.079677835,6.2845297,7.660616,1001.405,0,0
11.12,-0.25655735,6.1415334,7.7126923,1001.4278,0,0
11.16,-0.2326975,6.2416325,7.523312599999999,1001.4227,0,0
11.2,-0.3044275,6.1606016,7.6937485,1001.39996,0,0
11.24,-0.38093114,6.2511663,7.296056,1001.3924,0,0
11.28,-0.5004634,6.236868,7.452287700000001,1001.41254,0,0
11.32,-0.14678884,6.098639,7.494894,1001.42523,0,0
11.36,-0.16594101,5.9365764,7.9588633,1001.4176,0,0
11.4,-0.23767105,6.074807,7.513826400000001,1001.39996,0,0
11.44,-0.08952391,6.3846345,7.1208677,1001.3974,0,0
11.48,-0.49106044,6.317903500000001,7.144537,1001.4226,0,0
11.52,-0.495865,6.246405,7.333911,1001.4405,0,0
11.56,-0.58672035,6.031912,7.778941,1001.40753,0,0
11.6,-0.6536809,5.9699472999999985,8.209767999999999,1001.41504,0,0
11.64,-0.64892584,5.922282,8.238172,1001.3999,0,0
11.68,-0.4386516,6.008081400000001,8.053527,1001.4278,0,0
11.72,-0.45780784,6.0319150000000015,7.9209604,1001.39484,0,0
11.76,-0.35268313,6.0414486,7.8688793000000015,1001.41254,0,0
11.8,-0.30012795,6.141547,7.7221107,1001.3873,0,0
11.84,-0.3192863,6.1367817,7.509058,1001.3974,0,0
11.88,-0.29063842,6.136782,7.570603399999999,1001.3848,0,0
11.92,-0.09947923,6.1463160000000014,7.745773299999999,1001.41,0,0
11.96,-0.19988191,6.0652857,7.7883806,1001.4127,0,0
12.0,0.10599257,6.2511816,7.442765,1001.3873,0,0
12.04,-0.118695304,6.0891199999999985,7.830983,1001.4151,0,0
12.08,0.0011188388,6.065279,7.8404818,1001.41,0,0
12.12,-0.13751587,6.1081786,7.5469465,1001.3796,0,0
12.16,-0.30961550000000004,6.1034126,7.42385,1001.4048,0,0
12.2,-0.28096020000000005,6.2225769999999985,7.8830853,1001.3972,0,0
12.24,-0.46739924,6.084348,7.7505190000000015,1001.4278,0,0
12.28,-0.42440927,6.17968,7.504328,1001.4302,0,0
12.32,-0.44354886,6.213046,7.8925467,1001.4277,0,0
12.36,-0.76859754,5.9318194,7.6605587,1001.41,0,0
12.4,-0.60133106,6.1224833,7.973027,1001.4429,0,0
12.44,-0.6730564,6.093884,7.641617,1001.4024,0,0
12.48,-0.72087485,6.0605187,7.5800676,1001.4074,0,0
12.52,-0.64920604,6.050986,7.617939999999999,1001.4202,0,0
12.56,-0.6348885999999999,6.1177187,7.7505007,1001.40247,0,0
12.6,-0.6396951,5.9937887000000005,7.812046,1001.3972,0,0
12.64,-0.6206010000000001,6.112953,7.878325500000001,1001.3949,0,0
12.68,-0.69710296,6.060522,7.8309784,1001.4074,0,0
12.72,-0.4629193,6.0319233,8.238134,1001.38226,0,0
12.76,-0.51074237,6.031924,8.006147,1001.4074,0,0
12.8,-0.4342907,6.1177225,7.3906717,1001.357,0,0
12.84,-0.36739224,6.2368865,7.456952,1001.3771,0,0
12.88,-0.62552994,6.055758,7.636857000000001,1001.3696,0,0
12.92,-0.6112141,6.0080934,7.419072,1001.4048,0,0
12.96,-0.52042603,6.122492,7.679462400000001,1001.40247,0,0
13.0,-0.61604095,6.04146,7.935117699999997,1001.3873,0,0
13.04,-0.5730478,6.122493,7.6794577,1001.37964,0,0
13.08,-0.64477,6.232124,7.707861999999999,1001.37714,0,0
13.12,-0.6866222,6.17013,7.556468,1001.4202,0,0
13.16,-0.81087554,5.8841357000000025,7.831065,1001.40753,0,0
13.2,-0.75349236,5.9461007000000015,7.7079735,1001.39996,0,0
13.24,-0.8060513000000001,5.869835,7.5564737000000015,1001.4202,0,0
13.28,-0.906407,5.9175005,7.7695235999999985,1001.40247,0,0
13.32,-0.777332,5.974698,7.7174473,1001.42004,0,0
13.36,-0.7581926,5.9937644,8.077263,1001.4327,0,0
13.4,-0.8059691,6.01283,7.660638,1001.41,0,0
13.44,-0.79639196,6.055728,7.8831570000000015,1001.39746,0,0
13.48,-0.9349807,5.9556303,7.8689556,1001.40497,0,0
13.52,-0.83458316,6.003295,7.726926,1001.41,0,0
13.56,-0.85367954,5.988995,7.8926315,1001.4152,0,0
13.6,-0.84887946,5.9603953,7.850024,1001.4228,0,0
13.64,-0.82973325,5.912729,7.6748533,1001.4149,0,0
13.68,-0.83927536,6.060492,7.5612297,1001.37463,0,0
13.72,-0.9683112,5.898428400000001,7.783748599999999,1001.4152,0,0
13.76,-0.9061495,5.9222603,8.02994,1001.39996,0,0
13.8,-0.89179265,5.826929,7.8405647,1001.39746,0,0
13.84,-0.6097585,5.969925,7.958928,1001.40247,0,0
13.88,-0.56194025,5.979458,7.902117,1001.4025,0,0
13.92,-0.6288385999999999,5.9413247,7.783758,1001.40753,0,0
13.96,-0.59535843,6.0604879999999985,7.499696000000001,1001.3771,0,0
14.0,-0.7291727,5.9556236,7.7506210000000015,1001.37976,0,0
14.04,-0.62399143,5.9413233,7.8784523,1001.40497,0,0
14.08,-0.64387375,5.993774,7.670068700000002,1001.3897,0,0
14.12,-0.5291667,6.0509724999999985,7.509098,1001.4126,0,0
14.16,-0.57219636,6.0128407,7.6463947,1001.4176,0,0
14.2,-0.41447297,6.0509734,7.423877,1001.38983,0,0
14.24,-0.45750135,6.0509734,7.3717976,1001.4455,0,0
14.28,-0.28543857,6.112939,6.9220285000000015,1001.4201,0,0
14.32,-0.3667054,6.0128417,7.3339205,1001.43536,0,0
14.36,-0.13728493,6.1510725,8.110362,1001.4405,0,0
14.4,-0.008238494,6.3274345,7.409669,1001.4126,0,0
14.44,-0.12774372,6.0605083,7.7931547,1001.42523,0,0
14.48,-0.3524053,6.0700417,7.679527999999999,1001.453,1,1
14.52,-0.36197573,6.1606064000000025,7.622714,1001.4025,1,1
14.56,-0.5579571999999999,6.070042,7.660589,1001.4378,1,1
14.6,-0.6965816,5.836481,8.067747,1001.38983,1,1
14.64,-0.8017456000000001,5.8555470000000005,7.902041400000001,1001.4201,1,1
14.68,-1.0168482,5.9079795,7.4854136,1001.4201,1,1
14.72,-1.3036458,5.8746142,7.878368400000001,1001.4228,1,1
14.76,-1.3371147,6.203507,8.33287,1001.4507,1,1
14.8,-1.4900773,5.9699454,8.479635,1001.4253,1,1
14.84,-1.8772514,6.1606083,8.157696000000001,1001.4228,1,1
14.88,-1.9680792,6.527633,7.130328,1001.39746,1,1
14.92,-2.1640599,6.4418354,7.3765163,1001.4304,1,1
14.96,-2.2023075,6.189208,7.726861,1001.4203,1,1
15.0,-1.9203086,6.0319123,7.6416416,1001.4203,1,1
15.04,-1.7530255,5.7077866,7.9257050000000016,1001.438,1,1
15.08,-1.3993307,5.6696544,7.229746,1001.4507,1,1
15.12,-0.94516397,5.807883,6.590609599999999,1001.4101,1,1
15.16,-1.0981223999999998,6.189207,6.221326,1001.43286,1,1
15.2,-1.4518354,6.06051,6.4864510000000015,1001.4177,1,1
15.24,-1.0216587,5.936579,8.697417999999999,1001.50885,1,1
15.28,-1.2271959,5.0976653,10.046722,1001.4911,1,1
15.32,-1.4661931,5.36936,10.468084,1001.48865,1,1
15.36,-0.2043304,6.3989363,8.474899,1001.443,1,1
15.4,0.689487,6.070044,9.435983,1001.44543,1,1
15.44,0.95714843,5.822183,9.009886,1001.4329,1,1
15.48,0.7229317,6.189208,7.494876,1001.36725,1,1
15.52,0.942798,5.9032154000000014,6.997762700000001,1001.41254,1,1
15.56,0.6129846999999999,4.9213047,8.134019,1001.4329,1,1
15.6,0.8089508000000001,5.016635400000001,7.5516872,1001.4229,1,1
15.64,0.24492641,5.5457234,6.2402563,1001.40015,1,1
15.68,-0.35255507,5.683954,5.8283625,1001.41534,1,1
15.72,-0.21394746,6.13201,7.135057400000001,1001.4278,1,1
15.76,-0.6967124,6.255941,8.640597,1001.4786,1,1
15.8,-1.0074056,6.4799695,8.564846000000001,1001.4482,1,1
15.84,-1.4423742,6.093878299999999,10.259763,1001.49365,1,1
15.88,-2.0541964,6.1987424,8.697410000000001,1001.4836,1,1
15.92,-1.7243965,5.9937809999999985,7.3481035000000015,1001.4306,1,1
15.96,-1.1556062,4.487549,9.876273,1001.4431,1,1
16.0,-1.3611437,4.7163444000000005,8.2002945,1001.4404,1,1
16.04,-1.3372508,5.6124573,7.9399023,1001.4179,1,1
16.08,-1.5130427,5.1453085,8.650160000000001,1001.4431,1,1
16.12,-0.882072,5.2168055,7.371874000000001,1001.4153,1,1
16.16,-0.67172605,5.288303400000001,8.46079,1001.4329,1,1
16.2,-1.06364,4.825947,8.650169,1001.4482,1,1
16.24,-0.89630324,5.064274,7.0025997,1001.3949,1,1
16.28,-0.38004762,5.4122305,6.898447,1001.4077,1,1
16.32,-0.54253566,5.431297,8.134129,1001.4482,1,1
16.36,-0.37041676,5.636257,7.371894,1001.44824,1,1
16.4,-0.6093702,5.8555183,9.0715475,1001.4685,1,1
16.44,-0.26996732,6.222542,8.796956,1001.4759,1,1
16.48,0.73382825,5.855516400000001,8.569707000000001,1001.4608,1,1
16.52,0.8007823000000001,4.4970465,11.429291,1001.4786,1,1
16.56,0.5857256,4.5828440000000015,8.527104,1001.4332,1,1
16.6,0.15558009,4.8545370000000005,6.8795357,1001.3876,1,1
16.64,-0.4084046,4.411246,7.1304617,1001.40784,1,1
16.68,-0.38446873,4.845002,7.599170699999997,1001.4304,1,1
16.72,-0.5469499,5.459887,6.6664963,1001.42035,1,1
16.76,-0.70463973,5.6600814,6.2735453,1001.4357,1,1
16.8,-0.81931823,5.836443,7.4287424,1001.4332,1,1
16.84,-0.89097863,6.193934,7.4524183000000015,1001.4432,1,1
16.88,-1.2685461999999998,6.4989924000000014,8.967431,1001.4306,1,1
16.92,-0.8048685999999999,7.0757455999999985,9.270436,1001.4382,1,1
16.96,-0.5562865,6.460858999999999,10.993763,1001.4964,1,1
17.0,-1.4835294,6.6467532999999985,8.602892,1001.45325,1,1
17.04,-1.9949409,6.856481,8.101047,1001.43054,1,1
17.08,-2.311841,4.9641933,9.634864,1001.42285,1,1
17.12,-2.7420402000000004,4.9737267,8.351838,1001.4306,1,1
17.16,-2.407477,5.8507742999999985,6.997797,1001.39777,1,1
17.2,-2.149396,5.04046,7.845252,1001.41296,1,1
17.24,-1.724015,4.635303,8.110377,1001.43823,1,1
17.28,-1.7192580000000002,4.6448364,8.389705000000001,1001.41534,1,1
17.32,-1.5519862,5.0690610000000005,6.9646463,1001.42804,1,1
17.36,-1.0262306,5.43132,6.003561,1001.4052,1,1
17.4,-0.9210963,5.1739264,6.7989387999999975,1001.42285,1,1
17.44,-1.0358359,5.4217877,6.9078282999999985,1001.44324,1,1
17.48,-0.6678124,6.3465004,6.4627924000000005,1001.42566,1,1
17.52,-0.4336263,6.2416363,8.853664,1001.4484,1,1
17.56,-1.1028202,6.0748076,10.103545,1001.4635,1,1
17.6,-1.313153,6.899422,7.395464,1001.41034,1,1
17.64,-0.5531826999999999,6.989988,7.1113977,1001.3877,1,1
17.68,-0.11346364,6.089109,8.465434,1001.41046,1,1
17.72,-0.8686997,5.46469,6.6995,1001.38257,1,1
17.76,-0.33338597,5.383659400000001,7.1492662,1001.40546,1,1
17.8,-0.31428245,5.3502936,7.736331,1001.4155,1,1
17.84,-0.47681856,5.788818,6.358617,1001.39526,1,1
17.88,-0.2187363,6.5705339999999985,6.566928,1001.38007,1,1
17.92,-0.3000158,7.0376573,6.9220066,1001.4231,1,1
17.96,-0.5438071999999999,7.004291499999999,7.1019125,1001.4155,1,1
18.0,-1.5428091,7.071024,8.062994,1001.4155,1,1
18.04,-1.6193073,7.4142160000000015,7.4569883,1001.4105,1,1
18.08,-1.3693037,6.947058,9.147304,1001.4585,1,1
18.12,-2.3825853,6.5180674000000005,8.399271,1001.4357,1,1
18.16,-1.6655779,7.21875,8.588650999999999,1001.418,1,1
18.2,-1.4647918,5.755416,10.132069,1001.4384,1,1
18.24,-2.5067523,5.145296,7.239352,1001.41034,1,1
18.28,-1.9426984,6.2130046,5.686471,1001.36224,1,1
18.32,-1.4073329,5.5123196,7.958987,1001.39545,1,1
18.36,-1.235214,4.387411,8.560261,1001.4106,1,1
18.4,-1.2160627,4.4160094,8.863266000000003,1001.4284,1,1
18.44,-0.97225344,4.840232,7.835903999999997,1001.3802,1,1
18.48,-0.64241016,5.293054,7.234637299999997,1001.3826,1,1
18.52,-0.059246525,5.688678,7.452422,1001.38275,1,1
18.56,-0.36989012,5.3645505999999985,8.119977,1001.41785,1,1
18.6,-0.6184123,5.798307,7.532914,1001.3904,1,1
18.64,-0.58968747,6.670586,7.736497999999999,1001.3955,1,1
18.68,-0.56097424,7.02331,8.05844,1001.41815,1,1
18.72,-1.0436976,7.056675,8.333039,1001.3954,1,1
18.76,-0.6947466,6.8850784,8.574494999999999,1001.4183,1,1
18.8,-0.5130657999999999,5.5504413,9.388818,1001.4081,1,1
18.84,-1.153525,5.2644467000000015,7.6512947,1001.3877,1,1
18.88,-1.0339931,5.7125025,6.917464999999999,1001.3751,1,1
18.92,-0.96225923,5.6076374000000015,6.7801703999999985,1001.39795,1,1
18.96,-0.8714063,5.679135,6.997957,1001.3777,1,1
19.0,-0.7423171,5.8602633,6.8701315,1001.4155,1,1
19.04,-0.651464,6.193921,6.8843374000000015,1001.40283,1,1
19.08,-0.59991926,6.4847064,6.7753515,1001.3752,1,1
19.12,-0.4374123,6.5037727,8.039437,1001.42834,1,1
19.16,-0.26056623,6.9708960000000015,7.272463,1001.40546,1,1
19.2,-0.17453577,7.314087400000001,7.764841,1001.39294,1,1
19.24,-0.57604563,6.7611675,9.019457,1001.403,1,1
19.28,-0.90585846,7.1758574999999984,8.328234,1001.4055,1,1
19.32,-1.8092477,7.261655999999999,7.0262720000000005,1001.40045,1,1
19.36,-1.2452368,6.4227424000000015,7.67962,1001.37286,1,1
19.4,-1.7996984,5.95562,9.043127,1001.40546,1,1
19.44,-1.8188255,6.5228405,6.1693430000000005,1001.3879,1,1
19.48,-1.7614746,6.031885,7.7648363,1001.40546,1,1
19.52,-1.1783445,5.588595400000001,7.1967077,1001.4131,1,1
19.56,-0.87722313,5.3550344,8.735388,1001.4309,1,1
19.6,-1.5703011999999998,4.983243,8.134117999999999,1001.44617,1,1
19.64,-0.93937296,5.583829,6.7232656,1001.3523,1,1
19.68,-0.2128479,6.1319833,7.3813477,1001.3852,1,1
19.72,-0.24153271,6.0175867,7.0310000000000015,1001.39026,1,1
19.76,-0.5139894,6.1939487,6.9505149999999984,1001.4005,1,1
19.8,-0.33236322,6.6086399999999985,6.832154300000001,1001.40045,1,1
19.84,-0.17463563,6.880334,7.1256866,1001.3829,1,1
19.88,-0.47098982,6.360779,8.17199,1001.41815,1,1
19.92,-0.92029774,6.489476,7.637001,1001.39294,1,1
19.96,0.04999654,6.765936999999999,8.190926,1001.4234,1,1
20.0,0.25552374,6.117685,8.986305,1001.42334,1,1
20.04,-0.25114380000000003,6.084319,8.58388,1001.4158,1,1
20.08,-0.24149558,6.541907,6.7942839999999975,1001.3702,1,1
20.12,0.26516062,6.885099,6.330312,1001.3829,1,1
20.16,0.31295693,6.2225470000000005,7.703289,1001.39026,1,1
20.2,-0.41835544,5.188205,8.451324000000001,1001.3829,1,1
20.24,-0.26062524,5.8126235,8.266683,1001.4158,1,1
20.28,-0.09333401,6.5180745,7.073613000000001,1001.3829,1,1
20.32,0.07873674,7.004262400000001,6.382389,1001.3652,1,1
20.36,-0.27497178,7.1567925999999975,6.5007496,1001.388,1,1
20.4,-0.09812174,7.175859,6.6664534,1001.388,1,1
20.44,0.12652634,7.056695,7.3908167,1001.3979,1,1
20.48,0.32727575,7.256891,7.281925,1001.3955,1,1
20.52,0.48500675,7.171092,7.490239,1001.408,1,1
20.56,0.007024601,6.684904,8.347166,1001.4031,1,1
20.6,-0.52831614,6.727802799999999,6.391856,1001.3727,1,1
20.64,-0.4900809,7.504751,6.183542299999999,1001.3829,1,1
20.68,-0.41360652,7.0233300000000005,6.5054817000000025,1001.4181,1,1
20.72,-0.6717177,6.446576,7.4713,1001.41565,1,1
20.76,-0.74341714,6.2749805,7.433425,1001.42065,1,1
20.8,-0.6048055,6.4799422999999985,7.850052000000002,1001.3979,1,1
20.84,-0.77210164,6.637239,7.452362,1001.3829,1,1
20.88,-1.1736076000000002,6.727803,8.039427,1001.41315,1,1
20.92,-1.1879491000000002,6.8898664000000025,7.286657300000001,1001.398,1,1
20.96,-0.4375224,7.171092999999999,6.94578,1001.3727,1,1
21.0,0.198189,6.680138,7.603861999999999,1001.3955,1,1
21.04,-0.16507861,6.0175870000000025,6.941045,1001.4106,1,1
21.08,-0.47080117,6.031882,6.6759357,1001.3753,1,1
21.12,-0.30828243,6.6801333,5.676976,1001.3575,1,1
21.16,-0.44211248,7.075758,6.6049204,1001.3955,1,1
21.2,-1.0539219,7.261653,5.852151,1001.3955,0,0
21.24,-0.22223136,7.018558500000001,7.845335,1001.4209,0,0
21.28,-1.0300134,6.537136,8.01104,1001.40546,0,0
21.32,-1.3645943,6.9756594,6.297186,1001.38275,0,0
21.36,-1.35503,7.147255,7.381365,1001.403,0,0
21.4,-1.2211909,7.094823,6.2072325,1001.3829,0,0
21.44,-0.5950310000000001,7.0471573,7.3434906,1001.3981,0,0
21.48,-0.8435758,6.365539599999999,8.280903,1001.41315,0,0
21.52,-0.94394696,6.441805,7.225131,1001.4282,0,0
21.56,-0.6762728,7.047157,6.4723606,1001.39044,0,0
21.6,-0.57589215,7.1949205,6.382408,1001.38525,0,0
21.64,-0.34645712,7.242586,6.8321770000000015,1001.37256,0,0
21.68,-0.9248077,7.1758533,7.5281353000000015,1001.408,0,0
21.72,-0.70015216,7.19492,7.2677429999999985,1001.4081,0,0
21.76,-0.7288256,7.1281877000000025,7.026289,1001.4007,0,0
21.8,-0.60454464,6.9947243000000014,7.1020393,1001.3905,0,0
21.84,-0.78617334,6.73733,6.817976,1001.4105,0,0
21.88,-0.47070158,6.775462599999999,6.5007715,1001.39026,0,0
21.92,-0.41811836,6.804061999999999,6.79904,1001.37787,0,0
21.96,-0.26993966,7.1329536,6.2924585,1001.37006,0,0
22.0,-0.16477922,7.161553,6.955275500000001,1001.39795,0,0
22.04,-0.49458063,6.780228,6.8795259999999985,1001.4055,0,0
22.08,-0.5229103,6.9422827000000025,6.945839,1001.41327,0,0
22.12,-0.5276711,7.056679700000001,6.6996517,1001.38275,0,0
22.16,-0.6567103,7.132944,6.4960737,1001.4005,0,0
22.2,-0.72838724,7.3093059999999985,6.2356834,1001.40533,0,0
22.24,-0.8096260000000001,7.1424759999999985,6.638109,1001.40546,0,0
22.28,-0.37942344,7.418936299999999,6.9979267000000025,1001.3954,0,0
22.32,-0.77612936,7.1091094,6.401393,1001.3929,0,0
22.36,-1.0724593,6.9756455000000015,6.567098599999999,1001.4031,0,0
22.4,-1.1441313999999998,7.142474000000001,6.680727,1001.43585,0,0
22.44,-1.0198435,7.175839999999999,6.6854619999999985,1001.3879,0,0
22.48,-0.80950946,7.0852747,6.955326,1001.3929,0,0
22.52,-0.8333941999999999,6.9756436,6.694935000000001,1001.3979,0,0
22.56,-1.0150079,6.9041452,7.357753,1001.3776,0,0
22.6,-0.63738537,7.290236,6.093669,1001.3852,0,0
22.64,-0.4461742,7.2664022,7.196786,1001.4156,0,0
22.68,-0.35533655,7.2568693,7.1115694000000005,1001.38776,0,0
22.72,-0.09720454,7.2425685,7.722309,1001.3929,0,0
22.76,-0.31706125,7.085272,6.7280855,1001.4254,0,0
22.8,-0.15930869,6.9136753,6.3824760000000005,1001.40784,0,0
22.84,-0.10671183,7.0662045,6.197836,1001.4256,0,0
22.88,-0.30266237,7.3617306,5.809616,1001.4028,0,0
22.92,-0.48906052,7.385563,5.9137745000000015,1001.3952,0,0
22.96,-0.9718028,7.2759314,6.221513,1001.3979,0,0
23.0,-0.75190806,7.3235965,6.680752,1001.413,0,0
23.04,-1.0291224,7.1234009999999985,6.784910000000001,1001.4105,0,0
23.08,-1.0577811,7.3045300000000015,6.4393005,1001.3979,0,0
23.12,-1.1060145,7.4713693,6.4061203,1001.408,0,0
23.16,-1.0677751,7.314073,6.8274820000000025,1001.45355,0,0
23.2,-0.66149026,7.356972,6.9221705999999985,1001.40015,0,0
23.24,-0.6423699,7.2759404,7.068937299999999,1001.4307,0,0
23.28,-0.6949466,7.280707400000002,6.770669,1001.4254,0,0
23.32,-0.6806058,7.223509,6.6759815,1001.3799,0,0
23.36,-0.84789777,7.175843,6.619169,1001.41547,0,0
23.4,-0.8287774,7.0948114,6.846420299999999,1001.4332,0,0
23.44,-0.71884036,7.1138783,6.690185499999999,1001.43835,0,0
23.48,-0.6375826,7.261640499999999,6.7848729999999975,1001.42303,0,0
23.52,-0.62802166,7.31884,6.557622,1001.4254,0,0
23.56,-0.45594746,7.299773700000001,6.5670910000000005,1001.40533,0,0
23.6,-0.4941849,7.1996765,6.8085460000000015,1001.40546,0,0
23.64,-0.48940367,7.1853766000000014,6.765936,1001.4306,0,0
23.68,-0.498962,7.2568746,6.368246,1001.42303,0,0
23.72,-0.58977723,7.237808,6.4013870000000015,1001.43066,0,0
23.76,-0.6614730999999999,7.1710762999999975,6.4913416,1001.4381,0,0
23.8,-0.5610959,7.190142,6.316168,1001.41547,0,0
23.84,-0.39858156,7.3331394,6.3729809999999985,1001.42804,0,0
23.88,-0.50373566,7.4761357,6.0747137,1001.41785,0,0
23.92,-0.51329374,7.180609,7.1210175000000016,1001.4382,0,0
23.96,-0.49895346,7.1996759999999975,6.974251,1001.40784,0,0
24.0,-0.38423663,7.4856690000000015,6.4771385000000015,1001.39777,0,0
24.04,-0.4941709,7.347439,6.358779,1001.43066,0,0
24.08,-0.41363296,7.3522224,6.6238394,1001.418,0,0
24.12,-0.3993197,7.399889,6.098318,1001.4306,0,0
24.16,-0.43758607,7.4094234,6.477068,1001.42554,0,0
24.2,-0.38981593,7.514288,6.155125599999999,1001.4356,0,0
24.24,-0.5714764,7.404658,6.5244064,1001.45575,0,0
24.28,-0.55238515,7.371291999999999,6.4723253,1001.4254,0,0
24.32,-0.49983174,7.4094257,6.628559,1001.41785,0,0
24.36,-0.56199884,7.414192699999999,6.5007277000000006,1001.43304,0,0
24.4,-0.6719622,7.2854967,6.4060364000000005,1001.4078,0,0
24.44,-0.6337499,7.3188634000000015,6.3586903,1001.4078,0,0
24.48,-0.61943495,7.3665285,6.1551085,1001.40265,0,0
24.52,-0.54298776,7.2283,6.5575304,1001.4179,0,0
24.56,-0.32314646,7.385596799999999,6.268729,1001.4128,0,0
24.6,-0.5334857,7.428496000000001,6.249789,1001.3925,0,0
24.64,-0.6099888000000001,7.4713955,7.040432000000001,1001.4153,0,0
24.68,-0.3710248,7.614393,6.543317,1001.4178,0,0
24.72,-0.3471554,7.504763,6.983614,1001.4052,0,0
24.76,-0.49057573,7.447564999999999,6.6095934000000005,1001.4279,0,0
24.8,-0.76305246,7.3045697,6.2071667,1001.4002,0,0
24.84,-0.55754876,7.4809327,6.2923839999999975,1001.42566,0,0
24.88,-0.5671363,7.2759705000000015,6.5006943,1001.4128,0,0
24.92,-0.55282307,7.3903694,6.424942,1001.42566,0,0
24.96,-0.5432895999999999,7.357003999999999,6.188219,1001.42566,0,0
25.0,-0.7679699999999999,7.314106,6.2592325,1001.4281,0,0
25.04,-0.70107895,7.285507000000001,6.4628096,1001.40765,0,0
25.08,-0.4858275,7.466633,6.3870735,1001.4179,0,0
25.12,-0.4906276,7.223538400000002,6.7516212,1001.4153,0,0
25.16,-0.3759326,7.404668300000001,6.727947,1001.4179,0,0
25.2,-0.20865972,7.4571004,6.5385695,1001.41046,0,0
25.24,-0.25169697,7.5047665,6.510160400000001,1001.4381,0,0
25.28,-0.28995568,7.357003999999999,6.58591,1001.4102,0,0
25.32,-0.4333688,7.1997085000000025,6.685330400000002,1001.4229,0,0
25.36,-0.50030637,7.228308,6.377592,1001.4179,0,0
25.4,-0.423851,7.361772,6.609576,1001.443,0,0
25.44,-0.47644657,7.323639999999997,6.566965,1001.4306,0,0
25.48,-0.44300947,7.323640299999999,6.6095724,1001.42285,0,0
25.52,-0.46692753,7.323641,6.4012566,1001.41046,0,0
25.56,-0.74895746,7.271209700000001,6.5054120000000015,1001.42804,0,0
25.6,-0.5769036,7.5047708,6.42966,1001.42786,0,0
25.64,-0.46698838,7.504771000000002,6.424924,1001.395,0,0
25.68,-0.65819955,7.132981,6.8557520000000025,1001.4382,0,0
25.72,-0.69167966,7.2378453999999985,6.4722633,1001.4229,0,0
25.76,-0.605661,7.309344,6.155057,1001.4052,0,0
25.8,-0.57700366,7.3760767,6.4911976,1001.4052,0,0
25.84,-0.5387856,7.2616796,6.765792,1001.4356,0,0
25.88,-0.5101257,7.4571085,6.604820299999999,1001.4027,0,0
25.92,-0.62486136,7.285514,6.761053,1001.4281,0,0
25.96,-0.46714807,7.609639,6.211860700000001,1001.4331,0,0
26.0,-0.65358067,7.2330823,6.5574702999999985,1001.4254,0,0
26.04,-0.56756324,7.3284135,6.8131266,1001.42804,0,0
26.08,-0.54290324,7.3951273,6.330286,1001.41034,0,0
26.12,-0.6098098000000001,7.337928,6.4675856,1001.4254,0,0
26.16,-0.64803606,7.2950287,6.746917,1001.4304,0,0
26.2,-0.6958234000000001,7.2521296,6.4959935999999985,1001.4381,0,0
26.24,-0.44248235,7.371293,6.2545404000000016,1001.41296,0,0
26.28,-0.42813084,7.314094,6.855811,1001.4077,0,0
26.32,-0.4998172000000001,7.209230000000002,6.216667,1001.4153,0,0
26.36,-0.52848524,7.223528999999999,6.448654,1001.41284,0,0
26.4,-0.6336288,7.285494,6.609625,1001.4281,0,0
26.44,-0.5093432,7.2997937,7.002581599999999,1001.41785,0,0
26.48,-0.3563788,7.4856896,6.5859547,1001.41785,0,0
26.52,-0.54755884,7.15203,6.8037386,1001.4457,0,0
26.56,-0.5953454,7.242594199999999,6.27822,1001.4179,0,0
26.6,-0.5284174,7.1996949999999975,6.3965826,1001.39514,0,0
26.64,-0.6574607,7.1996946,6.5859594,1001.4281,0,0
26.68,-0.6192109,7.3379235,6.6522417,1001.4178,0,0
26.72,-0.41366857,7.3808235999999985,7.0736046,1001.4356,0,0
26.76,-0.41843697,7.1329618,7.135153,1001.4254,0,0
26.8,-0.4136457000000001,7.204459700000001,6.723261,1001.4002,0,0
26.84,-0.4996708,7.1853940000000005,6.34451,1001.4077,0,0
26.88,-0.56179684,7.1329613,6.4486675,1001.42804,0,0
26.92,-0.6287033000000001,7.066228999999999,6.4676056,1001.4153,0,0
26.96,-0.65737075,7.2425914,6.4534035,1001.42804,0,0
27.0,-0.6525795,7.147259700000001,7.0688770000000005,1001.41534,0,0
27.04,-0.5426326,7.0995936,7.3955525999999985,1001.4306,0,0
27.08,-0.43727738,7.2902517000000016,6.7043475999999975,1001.4178,0,0
27.12,-0.36078268,7.1806199999999984,6.775366,1001.4329,0,0
27.16,-0.36554345,7.1472535000000015,6.188301,1001.42554,0,0
27.2,-0.18867166,7.4380136,6.1314898,1001.4052,0,0
27.24,-0.32248715,7.3760476,6.4202900000000005,1001.4306,0,0
27.28,-0.3415897,7.323614599999999,6.216712,1001.4382,0,0
27.32,-0.23641382,7.337913499999999,6.40609,1001.4306,0,0
27.36,-0.53752244,7.171083500000001,6.567062400000001,1001.4304,0,0
27.4,-0.719136,7.352212400000001,6.311406,1001.4482,0,0
27.44,-0.8386133,7.1329509999999985,6.1977816,1001.41534,0,0
27.48,-0.6808607,7.1091175,6.50552,1001.4355,0,0
27.52,-0.6569425999999999,7.1806154000000015,6.879539500000001,1001.42554,0,0
27.56,-0.4561718,7.4713745,6.37296,1001.4,0,0
27.6,-0.53263205,7.4094095,6.2119913,1001.4153,0,0
27.64,-0.49437463,7.237813,6.0936337,1001.42786,0,0
27.68,-0.5708312,6.7706895000000005,6.3114176,1001.4304,0,0
27.72,0.0027642548,7.080515400000001,7.1920185,1001.40765,0,0
27.76,0.2656713,7.352208,6.87955,1001.45575,0,0
27.8,0.13185464,7.094814,7.2819756999999985,1001.42554,0,0
27.84,0.036277592,7.156778299999999,7.6938705,1001.4533,0,0
27.88,-0.18835299,7.1281789999999985,7.679669400000001,1001.4457,0,0
27.92,-0.32694945,6.980415299999999,7.357732,1001.4,0,0
27.96,-0.61849844,7.090046000000001,7.8832520000000015,1001.42035,0,0
28.0,-0.34603062,7.2092094,7.0878735,1001.4354,0,0
28.04,-0.6471392,6.8469505,6.893765400000001,1001.4278,0,0
28.08,-0.8864561,6.5276,6.462904,1001.42285,0,0
28.12,-1.063304,6.8660245,5.9563235999999975,1001.42285,0,0
28.16,-0.8338687,6.8707910000000005,7.0310335,1001.4177,0,0
28.2,-1.0298353,6.880324400000001,6.67122,1001.4202,0,0
28.24,-0.62832695,6.970889,6.974221000000001,1001.4304,0,0
28.28,-0.8003949,7.047153,7.400317999999999,1001.4431,0,0
28.32,-0.5231610999999999,6.9899545,7.0641766000000015,1001.4405,0,0
28.36,-0.44667917,7.090052,6.737503,1001.41534,0,0
28.4,-0.4944725,6.7230277,7.381383,1001.4229,0,0
28.44,-0.5231462,6.746859599999999,6.1362343,1001.4379,0,0
28.48,-0.2028943,7.099584599999999,7.002631,1001.4027,0,0
28.52,-0.5374758000000001,6.7897587,6.945819,1001.44543,0,0
28.56,-0.6330668,7.156783,7.3577127,1001.4101,0,0
28.6,-0.3271546,7.404644,6.4392385,1001.4101,0,0
28.64,-0.79079056,7.056685400000001,6.7753809999999985,1001.4405,0,0
28.68,-0.61871254,6.8183574999999985,7.390855,1001.4203,0,0
28.72,-0.6234873000000001,6.9089217000000005,6.9316176999999985,1001.4202,0,0
28.76,-0.32713467,7.1806154000000015,7.731732400000001,1001.42285,0,0
28.8,-0.723853,7.2616463000000016,6.6806946,1001.4227,0,0
28.84,-0.7429675,7.161549000000001,7.561294599999999,1001.39746,0,0
28.88,-0.8863564,6.9613533,6.8274630000000025,1001.4101,0,0
28.92,-0.83377355,6.8088229999999985,6.9836990000000005,1001.405,0,0
28.96,-0.9915023,7.1424823,6.17885,1001.39996,0,0
29.0,-0.4848377,7.690636599999999,6.372961,1001.39746,0,0
29.04,-0.97715247,7.066217,7.319842299999999,1001.42285,0,0
29.08,-0.8490314,7.0138083,6.81791,1001.43036,0,0
29.12,-0.6913328000000001,7.085306599999999,6.8037033,1001.4278,0,0
29.16,-0.4093553,7.051942,7.0782967,1001.4355,0,0
29.2,-0.3807115,7.361769000000002,5.9183645,1001.40497,0,0
29.24,-0.22300884,7.4285016000000015,6.7184753,1001.36456,0,0
29.28,-0.6532241,7.1901746,6.5527687000000014,1001.3974,0,0
29.32,-0.39036787,7.299806599999997,6.533828,1001.4126,0,0
29.36,-0.48121715,7.0424128,7.0830154000000025,1001.4101,0,0
29.4,-0.7584766,6.875584,6.3349769999999985,1001.39734,0,0
29.44,-0.73460233,6.956617,6.9551820000000015,1001.4176,0,0
29.48,-0.6772838000000001,7.104381,6.656911,1001.39233,0,0
29.52,-0.4956842000000001,6.9089527,6.391781,1001.3897,0,0
29.56,-0.44791913,7.0328836,6.5148726,1001.41254,0,0
29.6,-0.46229148,6.947087,7.158748599999999,1001.4227,0,0
29.64,-0.30937070000000005,7.090084,6.6758365999999985,1001.3848,0,0
29.68,-0.228147,7.1043850000000015,6.8510065,1001.3924,0,0
29.72,-0.20428093,6.9566225999999975,6.751581,1001.41,0,0
29.76,-0.022679254,7.0328875,6.8083906,1001.40497,0,0
29.8,-0.19000329,7.1186867,6.415432,1001.367,0,0
29.84,-0.21871710000000005,7.0328894,6.6048050000000025,1001.37463,0,0
29.88,-0.15183282,6.999524000000001,6.7278967000000005,1001.3848,0,0
29.92,-0.2617992,6.994758,6.8604565000000015,1001.41003,0,0
29.96,-0.34786862,7.228321,6.476968,1001.36707,0,0
30.0,-0.44827333,7.2044883,6.888859,1001.4048,0,0
30.04,-0.3335951,6.956629,7.759985,1001.4328,0,0
30.08,-0.39472812,6.6420107,8.266658,1001.39233,0,0
30.12,-0.20830745,6.8422065000000005,7.007308,1001.39215,0,0
30.16,-0.036227807,7.004269,6.8889483999999985,1001.3847,0,0
30.2,-0.04577689,7.013802,6.8842144,1001.37976,0,0
30.24,0.10718627,7.099599400000002,6.6664324000000015,1001.42786,0,0
30.28,0.021158144,6.951836,6.5338697,1001.3924,0,0
30.32,-0.0696498,7.0328674,6.9315605,1001.39484,0,0
30.36,-0.15089756,7.085299000000001,6.6806383,1001.3924,0,0
30.4,-0.289503,7.032866499999999,6.870015,1001.4328,0,0
30.44,-0.22735666,7.109132000000002,6.775328599999999,1001.362,0,0
30.48,-0.14609335,7.1758633000000005,6.7327185,1001.37213,0,0
30.52,-0.20344266,7.1091313,7.083065,1001.42004,0,0
30.56,-0.24166945,6.989967299999999,6.9457693,1001.3949,0,0
30.6,-0.48543274,6.8374367,7.149349000000001,1001.3796,0,0
30.64,-0.37070692,7.028099,6.836879700000001,1001.3949,0,0
30.68,-0.34201917,7.0709977,6.7753334,1001.3922,0,0
30.72,-0.3706897,7.018565700000001,6.926834,1001.3643,0,0
30.76,-0.21772872,7.0137990000000014,6.8652880000000005,1001.40497,0,0
30.8,-0.12690246,7.0519314,7.130416,1001.38965,0,0
30.84,-0.27506915,6.975666,6.884227,1001.39215,0,0
30.88,-0.4710306,7.0662303,6.6285696,1001.38464,0,0
30.92,-0.49492073,7.0280976,6.718525,1001.3771,0,0
30.96,-0.53315246,7.06623,7.0073240000000006,1001.3769,0,0
31.0,-0.4040861,6.8803344,6.9126368000000005,1001.3972,0,0
31.04,-0.16986796,7.0185637000000005,6.9221067,1001.3693,0,0
31.08,-0.19853956,6.932766,7.248781,1001.3795,0,0
31.12,-0.15685141,7.1425266,6.547967,1001.37195,0,0
31.16,-0.20469257,7.0090647,6.964591,1001.36694,0,0
31.2,-0.38635743,6.823169,7.18237,1001.3947,0,0
31.24,-0.2334469,7.147296400000001,6.5716286,1001.39966,0,0
31.28,-0.31952375,6.942335000000001,7.144487400000001,1001.3821,0,0
31.32,-0.36258513,6.9757023,6.936170599999999,1001.4023,0,0
31.36,-0.26703215,6.9995365000000005,6.732586,1001.3922,0,0
31.4,-0.37223905,6.961405,6.680503,1001.3769,0,0
31.44,-0.34837776,7.156834,6.5289993,1001.3642,0,0
31.48,-0.4248978,7.2235675000000015,6.893544,1001.4049,0,0
31.52,-0.5874569000000001,7.0948720000000005,6.5195227,1001.36176,0,0
31.56,-0.702218,7.247402,6.8888016000000025,1001.36945,0,0
31.6,-0.83131313,6.7898145,6.926672999999999,1001.3871,0,0
31.64,-0.8026721,6.4942884,7.144452,1001.4022,0,0
31.68,-0.8696244000000001,6.6754190000000015,7.2486057,1001.3947,0,0
31.72,-0.7932014000000001,6.9661800000000005,6.789364,1001.38715,0,0
31.76,-0.8171435,7.0615125,6.6946716,1001.34155,0,0
31.8,-0.8124068,6.942349,7.3148746,1001.39984,0,0
31.84,-0.6021386,7.0567474,7.191776299999999,1001.3771,0,0
31.88,-0.54004157,7.0424485,7.300664,1001.39984,0,0
31.92,-0.573546,7.023384,6.685187299999999,1001.37445,0,0
31.96,-0.5114489999999999,7.032918,7.007123,1001.3796,0,0
32.0,-0.4111162,7.1234837,6.9076967000000025,1001.3491,0,0
32.04,-0.42549878,7.2521815,6.779863400000001,1001.37195,0,0
32.08,-0.40984732,7.047187299999999,6.9788284,1001.3695,0,0
32.12,-0.5627897,6.918490400000001,7.4096603,1001.3871,0,0
32.16,-0.54843956,7.1377516000000005,6.221326,1001.3745,0,0
32.2,-0.5245291,7.1377516000000005,6.249733,1001.38214,0,0
32.24,-0.5962147,6.8088584,6.3775635,1001.4075,0,0
32.28,-0.42890948,6.980453999999999,6.5811443,1001.37195,0,0
32.32,-0.2329268,7.113917999999999,6.046158,1001.37964,0,0
32.36,-0.25203532,6.894656,6.8557415,1001.39484,0,0
32.4,-0.34284377,6.9184885,6.4059734000000015,1001.4023,0,0
32.44,0.29766279999999995,7.828900999999999,6.0130196,1001.387,1,2
32.48,0.3263545,7.295046000000001,7.154012700000001,1001.3897,1,2
32.52,0.11605455,7.2807455,6.6805725,1001.3795,1,2
32.56,0.5366887,7.700202,6.330228,1001.36945,1,2
32.6,0.8187078000000001,7.7907667,6.9314985,1001.38965,1,2
32.64,0.62274724,7.700202,5.9940862999999975,1001.3997,1,2
32.68,0.5892986,7.714501400000001,6.6900454,1001.3796,1,2
32.72,0.527174,7.881330499999999,6.1313868,1001.3643,1,2
32.76,0.6084414,7.9671283,6.1408567000000005,1001.36694,1,2
32.8,0.37424022,8.091059,6.3349686,1001.3796,1,2
32.84,0.45073146,8.439017,6.846285000000001,1001.41754,1,2
32.88,-0.22321092,7.909928999999999,8.517531,1001.42004,1,2
32.92,-0.87325215,7.871796000000002,7.3149929999999985,1001.39215,1,2
32.96,0.18787293,7.5572032999999985,7.0025225,1001.38965,1,2
33.0,-0.54342353,5.8507757000000025,9.53543,1001.42004,1,2
33.04,-1.3846604,5.6267476,7.2581835,1001.4125,1,2
33.08,-1.4276673,6.2702317,6.4438667,1001.3897,1,2
33.12,-1.3467893999999998,6.75643,4.791525,1001.3367,1,2
33.16,-0.7875562,6.4275379999999975,6.841522,1001.3795,1,2
33.2,-0.8018975,6.0700464000000025,7.7552614,1001.4378,1,2
33.24,-0.5246743,6.584834,6.789442,1001.382,1,2
33.28,-0.1231746,7.547679,6.2355165,1001.38464,1,2
33.32,-0.104058966,6.9089603,5.9703903,1001.39734,1,2
33.36,-1.3754906999999998,6.870828,6.287595,1001.4048,1,2
33.4,-1.4328521,6.5943679999999985,6.79891,1001.3897,1,2
33.44,-1.6240481000000002,6.689698700000001,8.252371,1001.4177,1,2
33.48,-1.6144912,6.7325982999999985,6.8841286,1001.4049,1,2
33.52,-1.6814131999999995,7.247386,7.5706167,1001.4301,1,2
33.56,-1.4137478,7.0471910000000015,7.106644599999999,1001.40765,1,2
33.6,-1.3229353,6.3417406,6.732626,1001.36957,1,2
33.64,-0.38609755,6.208277,7.4617243,1001.41003,1,2
33.68,-0.27138559999999995,6.213043700000001,7.3196917,1001.4226,1,2
33.72,-0.90232223,6.3179083,6.8415174,1001.38983,1,2
33.76,0.17312826,6.9375606,6.7847032999999985,1001.4048,1,2
33.8,-0.13756278,6.1987443,8.787355,1001.3949,1,2
33.84,-0.35265633,6.236877,8.441745,1001.3872,1,2
33.88,-0.3478813,6.7897979999999984,6.4012156,1001.3924,1,2
33.92,-0.6394529,6.6468015,7.4759254,1001.3796,1,2
33.96,-0.57731944,6.5228705,6.5905914,1001.3949,1,2
34.0,-0.9023499,6.8183975000000006,7.4191113,1001.40497,1,2
34.04,-1.2082608999999995,6.7373660000000015,6.8651867,1001.4022,1,2
34.08,-1.3570358,6.4799867,7.5894957,1001.3872,1,2
34.12,-2.1457312,6.870845299999999,6.581064,1001.3872,1,2
34.16,-0.9173514000000002,7.385633500000001,8.361197,1001.4048,1,2
34.2,-2.0884259,6.818414,9.222857,1001.45294,1,2
34.24,-1.3189089,5.7840724,7.4947968,1001.39215,1,2
34.28,-1.5483587,5.626776,9.772043,1001.42523,1,2
34.32,-1.7826058,5.950903,7.892482000000001,1001.40765,1,2
34.36,-1.5818801000000002,5.946137,8.635781,1001.39996,1,2
34.4,-1.3572555,5.560047,9.464298,1001.42786,1,2
34.44,-1.5962683000000002,5.0404925,9.658407,1001.4126,1,2
34.48,-1.0944203,5.3741517,8.763602,1001.37964,1,2
34.52,-1.1135553,5.4075184,8.365911,1001.39233,1,2
34.56,-1.3956056,4.7497344,7.8545914,1001.40247,1,2
34.6,-1.118396,4.8117,8.299623,1001.40765,1,2
34.64,-0.7934043000000001,5.4408865,7.750429,1001.38226,1,2
34.68,-1.4673793,5.4504204000000005,7.3480034,1001.4075,1,2
34.72,-1.51998,5.9080105000000005,7.177562700000001,1001.3924,1,2
34.76,-0.7934845,6.4275655999999985,7.759891499999997,1001.405,1,2
34.8,-0.1052137,6.375134,6.95504,1001.38226,1,2
34.84,0.0046939254,6.127274,8.465313,1001.45557,1,2
34.88,-0.3490395,5.617253,11.386437,1001.4836,1,2
34.92,-0.1626533,5.4837904,8.668886,1001.40497,1,2
34.96,-0.33952695,5.364627400000002,8.777776,1001.37714,1,2
35.0,-0.36346084,5.5314574,7.816689500000002,1001.3494,1,2
35.04,-0.874933,5.745953,8.299596000000001,1001.41254,1,2
35.08,-0.8606145000000001,5.6744547,8.162295,1001.39233,1,2
35.12,-1.0470564,5.612491,8.1907,1001.3873,1,2
35.16,-0.16760221,6.036714599999999,8.17176,1001.39734,1,2
35.2,-0.043353483,5.869886,8.053396000000001,1001.4328,1,2
35.24,0.08089529,5.407531,7.854549400000002,1001.41003,1,2
35.28,0.20513527,5.154904,7.6746387,1001.40497,1,2
35.32,0.5205761999999999,5.817456,6.779833999999999,1001.3873,1,2
35.36,0.9172789,6.2273808,6.850847999999999,1001.3848,1,2
35.4,-0.14864868,5.3551015999999985,7.906617,1001.4253,1,2
35.44,-0.5358354000000001,5.669695,7.783520699999999,1001.42786,1,2
35.48,-0.57887983,6.675438400000001,8.200146,1001.39746,1,2
35.52,-0.75098586,6.713572,8.190674000000001,1001.4278,1,2
35.56,-0.30649027,6.2893485999999985,8.271156,1001.40497,1,2
35.6,-0.9995898,5.7888613,8.891361999999997,1001.45575,1,2
35.64,-1.0474105,6.227385,8.271152,1001.3874,1,2
35.68,-1.2338524,6.227386,7.807177499999999,1001.4202,1,2
35.72,-1.391614,5.526703,8.3611,1001.4456,1,2
35.76,-0.87541604,5.9318604000000015,8.787194,1001.4025,1,2
35.8,-1.0905472,5.636335,7.631997,1001.4228,1,2
35.84,-1.057113,5.612503,7.224835400000001,1001.4177,1,2
35.88,-0.7534504,5.9556327000000016,7.2913494,1001.4278,1,2
35.92,-0.5813493000000001,5.8841333,8.37553,1001.4304,1,2
35.96,-0.57175964,5.788802,8.105672,1001.4176,0,0
36.0,-0.42355204,5.950864,6.7800417,1001.40753,0,0
36.04,-0.15585111,6.1510587,7.428658500000001,1001.4176,0,0
36.08,-0.50474864,5.869831,7.215612400000001,1001.44293,0,0
36.12,-0.7293713000000001,5.86983,7.494944599999997,1001.43286,0,0
36.16,-0.32305986,6.322653,7.490213400000001,1001.4431,0,0
36.2,-0.18919349,6.3750839999999975,7.769545599999999,1001.4328,0,0
36.24,-0.5094085,6.008058,8.266661000000001,1001.45557,0,0
36.28,-0.31340650000000003,6.1081553,7.5991135,1001.45557,0,0
36.32,0.06422235,6.560977,7.655928599999997,1001.46576,0,0
36.36,-0.0313531,6.751639,7.1588173,1001.4481,0,0
36.4,0.059504464000000014,6.8517356,7.708012599999999,1001.4228,0,0
36.44,0.13600005,6.9708996,7.1398850000000005,1001.4382,0,0
36.48,-0.14118919,6.6229396,7.390813,1001.466,0,0
36.52,-0.2558726,6.465643,7.272455,1001.4733,0,0
36.56,-0.3036481,6.456109,7.296129,1001.4533,0,0
36.6,-0.08852322,6.5562057000000005,7.031006,1001.4635,0,0
36.64,-0.24144883,6.4465737,7.2771979999999985,1001.443,0,0
36.68,-0.39437065,6.489473,7.092559,1001.4406,0,0
36.72,-0.35610038,6.4370400000000005,7.3671570000000015,1001.43304,0,0
36.76,-0.32261923,6.441806,7.703301400000001,1001.45825,0,0
36.8,-0.20786832,6.665833,7.1825199999999985,1001.4733,0,0
36.84,-0.21739788,6.537135,7.5234003,1001.4533,0,0
36.88,-0.16577317,6.5609913,7.6037979999999985,1001.4583,0,0
36.92,-0.15622239999999998,6.7039880000000025,7.021465299999999,1001.4634,0,0
36.96,-0.30440524,6.4370613,7.5517187,1001.4406,0,0
37.0,-0.3761112,6.441828,7.3244658,1001.4431,0,0
37.04,-0.31398204,6.7516539999999985,6.732664,1001.4407,0,0
37.08,-0.33788937,6.6229577000000015,7.357605,1001.48346,0,0
37.12,-0.29965988,6.427529,7.617997,1001.46326,0,0
37.16,-0.084578104,6.699223,7.2439775,1001.42554,0,0
37.2,-0.060687393,6.6992235,7.4664936,1001.4608,0,0
37.24,-0.3188057,6.584826,7.1682262,1001.4532,0,0
37.28,-0.022465631,6.603892299999999,7.4191484,1001.45325,0,0
37.32,-0.16586918,6.422764,7.329192999999999,1001.4609,0,0
37.36,-0.21845643,6.4370629999999975,7.262911999999999,1001.46326,0,0
37.4,-0.48613435,6.3417325,7.2960509999999985,1001.46075,0,0
37.44,-0.4909225,6.5180955,7.253441,1001.4329,0,0
37.48,-0.39055488,6.4847293,7.414409599999999,1001.4456,0,0
37.52,-0.29496828,6.6181936000000015,7.097204,1001.42804,0,0
37.56,-0.6534624,6.417998000000001,7.513831,1001.4534,0,0
37.6,-0.50051767,6.6134270000000015,6.7515907,1001.471,0,0
37.64,-0.2089579,6.656327,7.442813,1001.456,0,0
37.68,-0.05601248,6.5133305,7.3433905,1001.4306,0,0
37.72,-0.05124101,6.80409,7.054589999999999,1001.4254,0,0
37.76,-0.18986475,6.4704313,7.5895777,1001.4484,0,0
37.8,-0.22333115,6.341734400000001,7.4002,1001.4634,0,0
37.84,-0.060825616,6.7135262,7.457012,1001.4482,0,0
37.88,-0.12226748,6.904172,7.433405,1001.4382,0,0
37.92,-0.22740534,6.8136066999999985,6.978903,1001.45844,0,0
37.96,-0.30386552,6.9232369999999985,7.215625,1001.44324,0,0
38.0,-0.5332747,6.7039747000000025,7.187220599999999,1001.4256,0,0
38.04,-0.4281,6.870804,6.9126263,1001.42035,0,0
38.08,-0.6192744000000001,6.4561129999999975,7.8216333,1001.44324,0,0
38.12,-0.43284297,6.699207,6.7563944000000005,1001.44073,0,0
38.16,-0.2989918,6.742105499999999,7.4050093,1001.4331,0,0
38.2,-0.42324886,6.6038747,7.381339,1001.4583,0,0
38.24,-0.29417512,6.680139,6.727993,1001.43317,0,0
38.28,-0.25113785,6.537142,7.5328436,1001.4357,0,0
38.32,-0.35627213,6.74687,7.002592,1001.4558,0,0
38.36,-0.43751338,6.475176,7.2109070000000015,1001.4484,0,0
38.4,-0.42315727,6.7945347000000025,7.0878143,1001.418,0,0
38.44,-0.26540473,6.937531,7.1872387,1001.418,0,0
38.48,-0.3370792,6.580039,7.4476330000000015,1001.408,0,0
38.52,-0.2988253,6.7897669999999986,7.2061796,1001.39795,0,0
38.56,-0.3848368,6.4465737,7.4286995,1001.4233,0,0
38.6,-0.5377715000000001,6.4465733,7.286669,1001.4458,0,0
38.64,-0.45172074,6.622936,6.870042,1001.4056,0,0
38.68,-0.28440740000000003,6.784998,7.154108,1001.3803,0,0
38.72,-0.39910603,6.6753674,7.632285,1001.4306,0,0
38.76,-0.47078407,6.6658339999999985,7.2061899999999985,1001.4231,0,0
38.8,-0.3608272,6.665833,7.599148,1001.43085,0,0
38.84,-0.27477527,6.4370379999999985,6.8795195000000025,1001.4131,0,0
38.88,-0.17460194,6.827901,7.3671446,1001.3904,0,0
38.92,-0.064658195,6.6944366,6.8795023,1001.4254,0,0
38.96,-0.2414989,6.7182693,7.016800999999999,1001.4056,0,0
39.0,-0.30362680000000003,6.7659350000000025,7.5659924,1001.4131,0,0
39.04,-0.4039932,6.4465747,6.9221144,1001.38794,0,0
39.08,-0.21279213,6.9184637,7.4713059999999984,1001.39526,0,0
39.12,-0.49957156,6.732568,6.9268503,1001.4106,0,0
39.16,-0.5521391999999999,6.546672,7.0073366,1001.4158,0,0
39.2,-0.3465975,6.4656405,7.7032948,1001.3726,0,0
39.24,0.02145946,6.8660307000000005,6.9694633,1001.42053,0,0
39.28,-0.10758764,7.090058999999999,7.253528599999999,1001.3877,0,0
39.32,-0.43738145,6.8850965,6.680666,1001.36505,0,0
39.36,-0.6907008000000001,6.527604599999999,7.76958,1001.3852,0,0
39.4,-0.5425168,6.6563015,7.0404825,1001.4005,0,0
39.44,-0.40389425,6.646767999999999,7.4002979999999985,1001.3702,0,0
39.48,-0.40388286,6.856496300000001,7.3056116,1001.3653,0,0
39.52,-0.25570196,6.913695,6.8747807,1001.33466,0,0
39.56,-0.4182026,6.560969,7.191986999999999,1001.3727,0,0
39.6,-0.27001858,6.780230499999999,6.6380625,1001.3498,0,0
39.64,-0.002339393,6.956592999999999,7.083097500000001,1001.3626,0,0
39.68,-0.17918201,6.751631,7.1304425999999985,1001.3881,0,0
39.72,-0.10747543,6.7897630000000015,7.2203979999999985,1001.3727,0,0
39.76,-0.14570436,6.6515326,7.012084,1001.33716,0,0
39.8,-0.22217105,6.6753649999999976,7.3434935,1001.3626,0,0
39.84,-0.21738046,6.885093,6.799039,1001.3423,0,0
39.88,-0.3942237,6.73733,6.8984613,1001.36255,0,0
39.92,-0.26037905,6.9422917,6.7706327,1001.3728,0,0
39.96,-0.4754601,6.9089255000000005,7.1304493,1001.3576,0,0
40.0,-0.42765188,6.699197,7.1399193,1001.3905,0,0
40.04,-0.11217469,6.8326600000000015,7.0925759999999975,1001.3829,0,0
40.08,-0.097825155,7.2139845,7.1683273000000005,1001.39044,0,0
40.12,-0.04523778,6.9994893,7.0262957,1001.36273,0,0
40.16,-0.021331161,6.7134956999999975,7.267751700000002,1001.3702,0,0
40.2,-0.06433734,6.8993907000000005,6.8321867,1001.383,0,0
40.24,-0.08822559599999999,7.0376210000000015,6.917408,1001.3753,0,0
40.28,-0.24116981,6.7992925999999985,7.215676299999997,1001.3854,0,0
40.32,-0.20770104,6.8278919999999985,6.448704,1001.3678,0,0
40.36,-0.27460814,6.9470553,6.765909,1001.393,0,0
40.4,-0.26504093,7.03762,6.8842697,1001.38275,0,0
40.44,-0.20767313,7.14725,7.173069,1001.383,0,0
40.48,-0.3271562,6.9661206999999985,7.0547104,1001.38525,0,0
40.52,-0.26979092,6.8850894,7.1115246,1001.38525,0,0
40.56,-0.4561912,6.7802243,6.6475534,1001.3753,0,0
40.6,-0.34624493,6.9327545,6.8037899999999985,1001.3681,0,0
40.64,-0.67126405,6.894621400000001,7.021572999999999,1001.4035,0,0
40.68,-0.6138956,6.804057000000001,7.272497,1001.4057,0,0
40.72,-0.34623763,7.009019,7.281965299999999,1001.4234,0,0
40.76,-0.16459604,6.9375205,7.002636999999999,1001.36786,0,0
40.8,-0.3127621,6.794523700000001,6.8984804,1001.3881,0,0
40.84,-0.48004377,6.7754574000000005,7.158873599999999,1001.39056,0,0
40.88,-0.604309,6.7325573000000025,6.7233095,1001.4035,0,0
40.92,-0.59952015,6.9708858,6.7043724000000005,1001.38794,0,0
40.96,-0.6090719,6.6848917000000005,7.215689699999999,1001.37537,0,0
41.0,-0.7189983,6.5037622000000015,7.073657000000001,1001.3855,0,0
41.04,-0.41785926,6.9804176999999985,6.9979086,1001.3807,0,0
41.08,-0.48954606,6.7420896999999975,7.2251606,1001.388,0,0
41.12,-0.43695915,6.804054700000001,7.334052000000002,1001.3755,0,0
41.16,-0.4273899,6.9041524,6.595486599999999,1001.4007,0,0
41.2,-0.40826344,6.908919,7.0405216,1001.38293,0,0
41.24,-0.48472822,6.751622,7.111539,1001.3501,0,0
41.28,-0.3986827,6.908917999999999,7.0357885,1001.37036,0,0
41.32,-0.5898651999999999,6.8135867,7.281978599999999,1001.3958,0,0
41.36,-0.36998457,6.6848899999999984,7.168353,1001.3553,0,0
41.4,-0.33651924,6.7659205999999985,7.0026503,1001.3756,0,0
41.44,-0.5133593,7.0709796,6.283022,1001.3779,0,0
41.48,-0.66630465,7.090046000000001,6.619165400000001,1001.37036,0,0
41.52,-0.6710765999999999,6.8231187,7.102075599999999,1001.4058,0,0
41.56,-0.6806241,6.4656267,7.594455,1001.3932,0,0
41.6,-0.5850196,6.6324562999999985,6.9221697,1001.36786,0,0
41.64,-0.5037526,6.7754526,7.3814077,1001.36536,0,0
41.68,-0.5324218000000001,6.8517164999999975,6.7990770000000005,1001.3779,0,0
41.72,-0.65170234,6.8755440000000005,6.960067,1001.37036,0,0
41.76,-0.7759583000000001,6.656283,7.2441330000000015,1001.4032,0,0
41.8,-0.6516701,6.684881699999999,7.258336999999999,1001.3805,0,0
41.84,-0.34574157,6.761146000000001,7.485589999999997,1001.3578,0,0
41.88,-0.12107748,6.9041424,6.9316664,1001.378,0,0
41.92,-0.2453313,7.032839,6.9316683,1001.383,0,0
41.96,-0.35046923,6.9661064,6.5197763,1001.3553,0,0
42.0,-0.43648797,6.7134785999999975,6.950609,1001.3528,0,0
42.04,-0.70414364,6.4084187,7.371972,1001.38824,0,0
42.08,-0.60852647,6.518049,7.125786,1001.3654,0,0
42.12,-0.45077404,6.4513164000000005,7.7033844,1001.3983,0,0
42.16,-0.565476,6.694411,6.8938026,1001.39325,0,0
42.2,-0.25476772,6.9804034,7.0926494999999985,1001.378,0,0
42.24,-0.39814627,6.6181449999999975,7.580294599999997,1001.39075,0,0
42.28,-0.1495776,7.061434700000001,6.8606663,1001.39075,0,0
42.32,-0.2260367,6.908904,7.3861865999999985,1001.3932,0,0
42.36,-0.3550748,6.7468405,7.485611,1001.37054,0,0
42.4,-0.3550581,6.9184365,7.125798,1001.3731,0,0
42.44,-0.4984334,6.742073,7.4288015,1001.3779,0,0
42.48,-0.45539734,6.608609,7.253630599999997,1001.37036,0,0
42.52,-0.38846236,6.6324415,7.2252254,1001.378,0,0
42.56,-0.4123503,6.684873599999999,7.177882,1001.3881,0,0
42.6,-0.48402405,6.50851,7.154213,1001.3882,0,0
42.64,-0.46488702,6.5561757,7.192089,1001.3857,0,0
42.68,-0.32147962,6.6705728,7.0547924,1001.39075,0,0
42.72,-0.40765607,6.646742999999999,7.4761419999999985,1001.3882,0,0
42.76,-0.5653781,6.3893485,7.083187,1001.3983,0,0
42.8,-0.46977067,6.603843,7.3672523,1001.3731,0,0
42.84,-0.3072459,6.7611394,7.1778774000000025,1001.4008,0,0
42.88,-0.36459577,6.6848744999999985,7.504552,1001.411,0,0
42.92,-0.34546226,6.641975,6.85594,1001.4008,0,0
42.96,-0.34545368,6.6372085000000025,7.253630599999997,1001.3757,0,0
43.0,-0.24984404,6.7039394,7.1163339999999975,1001.39075,0,0
43.04,-0.41234526,6.5418763,7.376727000000002,1001.3782,0,0
43.08,-0.47447556,6.570475599999999,7.4430103,1001.39075,0,0
43.12,-0.33106935,6.7087059999999985,7.116337,1001.4009,0,0
43.16,-0.43621147,6.627673599999999,7.343590700000001,1001.3731,0,0
43.2,-0.38362503,6.575241,7.499826400000001,1001.3933,0,0
43.24,-0.46008688,6.5847745,7.026387,1001.4085,0,0
43.28,-0.40272212,6.61814,7.239436,1001.3859,0,0
43.32,-0.24497361,6.508508,7.253639999999999,1001.3706,0,0
43.36,-0.13980867,6.7420697,7.258375,1001.3782,0,0
43.4,-0.16847464,6.7182364,7.03586,1001.39594,0,0
43.44,-0.40745413,6.6562715,7.300987200000002,1001.3832,0,0
43.48,-0.4982583,6.5561732999999975,7.4098797,1001.39856,0,0
43.52,-0.40743345,6.5990720000000005,7.272583,1001.3908,0,0
43.56,-0.40742272,6.4751415,7.514039,1001.4236,0,0
43.6,-0.18276052,6.837399,7.078474000000001,1001.3757,0,0
43.64,-0.55557096,6.3559769999999975,7.4288216,1001.391,0,0
43.68,-0.36436743,6.5943039999999975,7.263117999999999,1001.4034,0,0
43.72,-0.32947528,6.618102,7.182765,1001.39325,0,0
43.76,-0.37242633,6.641933,7.1164894,1001.4009,0,0
43.8,-0.21940953,6.7610955000000015,7.1922455,1001.4059,0,0
43.84,-0.20022732,6.708662,7.462112400000001,1001.38324,0,0
43.88,-0.48216432,6.4512663,7.447916,1001.3884,0,0
43.92,-0.41997647,6.6371603000000015,7.1259812999999985,1001.38074,0,0
43.96,-0.36253893,6.6371584000000015,7.1970043000000015,1001.38824,0,0
44.0,-0.38638753,6.6943555,7.2916965,1001.37823,0,0
44.04,-0.45800477,6.608556,7.220688000000001,1001.40857,0,0
44.08,-0.35279867,6.7038856,7.4432095999999985,1001.4059,0,0
44.12,-0.31926020000000005,6.608552499999999,7.234903299999999,1001.3503,0,0
44.16,-0.36222383,6.632384299999999,7.25858,1001.4136,0,0
44.2,-0.3765002,6.8039784,6.851427,1001.3985,0,0
44.24,-0.22825487,6.832576,6.870372,1001.3682,0,0
44.28,-0.2855537,6.646679,7.2775354,1001.4136,0,0
44.32,-0.4097572,6.770608,7.21126,1001.4084,0,0
44.36,-0.32366613,6.870703999999999,6.3543386,1001.39325,0,0
44.4,-0.26622862,6.7658380000000005,7.1118507,1001.3884,0,0
44.44,-0.486045,6.656206,7.7273283,1001.396,0,0
44.48,-0.48119378,6.870699,6.638421000000001,1001.391,0,0
44.52,-0.48113078,6.7991990000000015,7.163946000000001,1001.3909,0,0
44.56,-0.60533845,6.7658315,6.955639,1001.3909,0,0
44.6,-0.5670284999999999,7.032757000000001,6.6573772,1001.396,0,0
44.64,-0.6386668000000001,6.9088254,7.126089,1001.4163,0,0
44.68,-0.55255055,6.8897567,7.410161,1001.3984,0,0
44.72,-0.57327205,6.87073,7.499967599999999,1001.3909,0,0
44.76,-0.4681155,6.8230643,7.1212149999999985,1001.40106,0,0
44.8,-0.5350318000000001,6.8421307,6.5767584,1001.38324,0,0
44.84,-0.70710325,6.646702,7.1164809999999985,1001.4035,0,0
44.88,-0.49679035,6.8850293,7.3532009999999985,1001.4212,0,0
44.92,-0.45377094,6.87073,7.2348413,1001.3935,0,0
44.96,-0.33427470000000004,6.9326954,7.376874000000001,1001.4035,0,0
45.0,-0.37251186,6.799231,6.714057,1001.3935,0,0
45.04,-0.458547,6.7372665,7.334264,1001.39606,0,0
45.08,-0.56370145,6.746799,6.3684454000000015,1001.3682,0,0
45.12,-0.5206826,6.913628599999999,6.4489307,1001.39355,0,0
45.16,-0.5206826,6.913628599999999,6.4489307,1001.4214,0,0
45.2,-0.5206826,6.913628599999999,6.4489307,1001.391,0,0
45.24,-0.5206826,6.913628599999999,6.4489307,1001.4161,0,0
45.28,-0.5302418999999999,6.87073,6.557822,1001.396,0,0
45.32,-0.44897866,6.680067,7.0833416,1001.391,0,0
45.36,-0.4059592,6.9565277000000005,7.0738726,1001.396,0,0
45.4,-0.4489764,6.942228,6.964981,1001.38074,0,0
45.44,-0.47765428,6.851663,7.168561,1001.41113,0,0
45.48,-0.65928555,6.7420325,7.196967999999999,1001.3985,0,0
45.52,-0.52066994,6.7324990000000025,7.0075911999999985,1001.4188,0,0
45.56,-0.5684664,6.7515655,7.168561,1001.41614,0,0
45.6,-0.525447,6.722966,7.1022797,1001.3985,0,0
45.64,-0.47764766,6.8135309999999984,6.761403,1001.41113,0,0
45.68,-0.5397837,6.789698,7.386344999999999,1001.40857,0,0
45.72,-0.5014168999999999,6.9326916,7.0218067,1001.401,0,0
45.76,-0.5014105999999999,6.8850255,7.4005594,1001.391,0,0
45.8,-0.5731013,6.923157700000001,6.9934024999999975,1001.3909,0,0
45.84,-0.644792,6.7992268,7.348483,1001.43896,0,0
45.88,-0.5778688,6.703896,6.9413240000000025,1001.4061,0,0
45.92,-0.6304387,6.6466970000000005,7.2679996,1001.4466,0,0
45.96,-0.50615907,6.894558,6.7756214,1001.3858,0,0
46.0,-0.37709802,6.823059599999999,7.1827809999999985,1001.42377,0,0
46.04,-0.3531915,6.8993244,7.2348595,1001.4315,0,0
46.08,-0.35796654,6.9231567,6.7803574000000015,1001.4264,0,0
46.12,-0.42487586,6.799226299999999,7.3106117,1001.41113,0,0
46.16,-0.3197146,6.8945575,7.1780490000000015,1001.3858,0,0
46.2,-0.38662553,6.722961,6.8939850000000025,1001.3935,0,0
46.24,-0.38184056,6.765860000000001,6.8939857,1001.4112,0,0
46.28,-0.43919188,6.722961,7.021815299999999,1001.4062,0,0
46.32,-0.3531499,6.75156,7.1922539999999975,1001.4365,0,0
46.36,-0.1715106,6.9088564,7.012347,1001.39856,0,0
46.4,-0.13804562,6.8897895999999985,7.2680063,1001.42145,0,0
46.44,-0.09980085,6.9040895,6.8419104000000015,1001.43146,0,0
46.48,-0.2718678,6.765859,7.1023026,1001.4214,0,0
46.52,-0.38657635,6.7086606,6.9602710000000005,1001.37585,0,0
46.56,-0.28141475,6.946988,7.2822113,1001.42395,0,0
46.6,-0.2766278,6.746792,7.381634700000001,1001.4417,0,0
46.64,-0.11888874,6.9279213,7.073898299999999,1001.4442,0,0
46.68,-0.30051374,6.956521,7.1638527000000005,1001.37836,0,0
46.72,-0.3673935,6.9946523,7.073903,1001.4036,0,0
46.76,-0.41040504,6.8373550000000005,7.4479218,1001.41644,0,0
46.8,-0.24310476,6.91362,7.405311599999999,1001.4112,0,0
46.84,-0.23831691,6.9422190000000015,7.6372985999999985,1001.4089,0,0
46.88,-0.16183147,7.0852156000000015,7.4573927,1001.41895,0,0
46.92,-0.26698285,7.042317,7.277486,1001.4365,0,0
46.96,-0.32910988,7.004184,7.1685953,1001.4039,1,3
47.0,-0.48205596,6.894553,7.305894,1001.391,1,3
47.04,-0.23828028,7.142413,7.277487,1001.38354,1,3
47.08,-0.367325,6.9469850000000015,7.523677,1001.4138,1,3
47.12,-0.16656609,7.375975,7.2348795,1001.4189,1,3
47.16,-0.30995256,7.1233473,7.4952726,1001.41144,1,3
47.2,-0.36730456,7.1424127,7.348505999999999,1001.42395,1,3
47.24,-0.1187471,7.290176400000001,7.604164999999999,1001.4164,1,3
47.28,-0.22389516,7.2568100000000015,6.9271460000000005,1001.39105,1,3
47.32,-0.17608956,7.371207000000001,7.357978,1001.4138,1,3
47.36,-0.3194765,7.190078,7.694121400000001,1001.42664,1,3
47.4,-0.4198448,7.314008,7.381651,1001.37335,1,3
47.44,-0.3385805,7.266342,7.637308999999999,1001.4164,1,3
47.48,-0.3098926,7.6429,7.1117916,1001.4061,1,3
47.52,-0.104352996,7.5857015,7.3579807,1001.3909,1,3
47.56,-0.27163947,7.371206,7.7319994,1001.4187,1,3
47.6,-0.18081556,7.452237599999999,7.7556725,1001.3884,1,3
47.64,-0.31464440000000005,7.2568088,7.1638727,1001.38855,1,3
47.68,-0.2955166,7.299707400000001,6.955559700000001,1001.3935,1,3
47.72,-0.2761073,7.4093313,7.334338000000002,1001.4314,1,3
47.76,-0.4099204000000001,7.3711977,6.903509,1001.3659,1,3
47.8,-0.6727871,7.1233369999999985,7.533187,1001.40125,1,3
47.84,-0.68232995,6.994639,7.4811106,1001.39856,1,3
47.88,-0.6345165,7.151935000000001,7.6562842999999985,1001.36066,1,3
47.92,-0.6679549,7.1138020000000015,7.599474000000002,1001.3935,1,3
47.96,-0.6392558,7.2520313,7.9782275999999985,1001.3886,1,3
48.0,-0.49106055,7.113801,7.8882759999999985,1001.36346,1,3
48.04,-0.43846482,7.237731,8.025576,1001.3584,1,3
48.08,-0.44800782,7.180532,7.310682300000002,1001.34576,1,3
48.12,-0.5101262,7.118566,7.717842,1001.34814,1,3
48.16,-0.53400624,7.037534,7.580546400000001,1001.37335,1,3
48.2,-0.5196442,7.0756664,7.552142,1001.33307,1,3
48.24,-0.62000585,7.109032000000001,7.6847067,1001.3682,1,3
48.28,-0.6677813,6.980334,7.55688,1001.33026,1,3
48.32,-0.63908225,6.942201,7.779398,1001.32776,1,3
48.36,-0.5864913,7.0136995,7.533210799999999,1001.3078,1,3
48.4,-0.6533848000000001,6.8659353,7.6799803,1001.30255,1,3
48.44,-0.4382745,6.9564996,7.187603,1001.3202,1,3
48.48,-0.5720911999999999,6.961266,7.0408382,1001.28754,1,3
48.52,-0.52905756,6.9898643,7.1544657,1001.3025,1,3
48.56,-0.63897514,6.9040666,7.1639357000000015,1001.3052,1,3
48.6,-0.52902186,7.0279965,7.1497345,1001.30255,1,3
48.64,-0.5672365,6.875465400000001,7.6610518,1001.29004,1,3
48.68,-0.39992553,7.032761,7.49535,1001.33527,1,3
48.72,-0.3711996,7.051827,7.2302275,1001.295,1,3
48.76,-0.43809652,6.913596000000001,7.18762,1001.3103,1,3
48.8,-0.4285167,6.9898605,6.969839,1001.26984,1,3
48.84,-0.54798895,6.7324657000000006,7.230233,1001.2646,1,3
48.88,-0.40457833,6.827797,7.3438606,1001.25726,1,3
48.92,-0.62442774,6.680032700000001,7.182892999999999,1001.25464,1,3
48.96,-0.3854198,6.8563952000000015,7.036128,1001.2519,1,3
49.0,-0.4379786,6.7467637,7.1024113,1001.2519,1,3
49.04,-0.37581578,6.675265,7.3628054,1001.2598,1,3
49.08,-0.31844297,6.8706929999999975,6.9083039999999984,1001.2343,1,3
49.12,-0.30408198,6.7896614,7.1639643,1001.23944,1,3
49.16,-0.38531834,6.713396,7.0645437000000015,1001.22925,1,3
49.2,-0.31360229999999994,6.7562943,7.305999799999999,1001.2166,1,3
49.24,-0.30880347,6.803960000000001,6.965124,1001.23676,1,3
49.28,-0.43783787,6.6847954,7.348613,1001.21643,1,3
49.32,-0.37567884,6.8182583,7.2775984,1001.2418,1,3
49.36,-0.55728734,6.57993,7.216054,1001.21405,1,3
49.4,-0.2896031,6.8182573,7.102429400000001,1001.22675,1,3
49.44,-0.4138552,6.680026,6.8751793,1001.20154,1,3
49.48,-0.4711951,6.7181582,7.163980499999999,1001.1789,1,3
49.52,-0.44249344,6.684792,7.1829195000000015,1001.2065,1,3
49.56,-0.1700256,6.8706869999999975,6.903592,1001.1814,1,3
49.6,-0.32295775,6.7276897,7.3296899999999985,1001.1736,1,3
49.64,-0.29426244,6.837320299999999,6.894127,1001.1814,1,3
49.68,-0.32292736,6.7753553,7.0030193,1001.19116,1,3
49.72,-0.3241849,6.708654400000001,7.0881233,1001.161,1,3
49.76,-0.40547198,6.7229543000000005,7.0975895000000016,1001.16364,1,3
49.8,-0.41506395,6.8802520000000005,6.974492,1001.1686,1,3
49.84,-0.41508108,6.742022,7.2112103,1001.1534,1,3
49.88,-0.24304616,6.9708175999999975,7.0218315,1001.13824,1,3
49.92,-0.19050072,6.9422183,6.9886875,1001.14056,1,3
49.96,-0.29089946,6.8611875,7.1685925,1001.14825,1,3
50.0,-0.2957135,6.8707223,7.0833693,1001.1307,1,3
50.04,-0.30530542,6.708660000000001,7.3674307,1001.1254,1,3
50.08,-0.27187726,6.7515597000000005,7.1496460000000015,1001.1053,1,3
50.12,-0.37228364,6.713428,6.6193895000000005,1001.1102,1,3
50.16,-0.29105547,6.894558,6.5815125,1001.0976,1,3
50.2,-0.56353474,6.618098299999999,7.083356,1001.11053,1,3
50.24,-0.43451053,6.7324963,6.879774,1001.09784,1,3
50.28,-0.29114494,6.765863,7.3721495,1001.07745,1,3
50.32,-0.13344187,7.0184913,7.201708,1001.0928,1,3
50.36,-0.25296742,6.927927499999999,7.021798,1001.0749,1,3
50.4,-0.24344014,6.951761,7.0644045,1001.07513,1,3
50.44,-0.39164257,6.9231625,6.9933863,1001.0698,1,3
50.48,-0.45858842,6.823065299999999,7.092806,1001.0698,1,3
50.52,-0.5016371000000001,6.7182016,7.069131,1001.07495,1,3
50.56,-0.5016560999999999,6.856432400000001,6.7566586,1001.08765,1,3
50.6,-0.5399364000000001,6.7515693,7.201689,1001.037,1,3
50.64,-0.48260736,6.8373675,7.168545699999999,1001.0118,1,3
50.68,-0.35357547,6.9565325,6.8466034,1001.05225,1,3
50.72,-0.36162716,6.966028,7.045586599999999,1001.0472,1,3
50.76,-0.45719278,6.923128599999999,6.913026,1001.01935,1,3
50.8,-0.60533816,6.722933,7.036123299999999,1001.037,1,3
50.84,-0.5431701999999999,6.7944303,6.9461727,1001.0143,1,3
50.88,-0.5670407,6.808729,7.1497545,1001.03723,1,3
50.92,-0.44751328,6.956492,7.045601,1001.03955,1,3
50.96,-0.45704433,6.8563933000000015,7.140291,1001.0194,1,3
51.0,-0.46179372,6.803961,7.367545,1001.0016,1,3
51.04,-0.6099391,6.837325,6.9130449999999986,1001.0143,1,3
51.08,-0.51431066,6.808725999999999,7.007736,1000.99164,1,3
51.12,-0.5955388,6.708627000000001,7.017207000000001,1000.9965,1,3
51.16,-0.6146295,6.694327,7.197118,1000.9714,1,3
51.2,-0.4998818,6.8611555,6.7142115,1000.9865,1,3
51.24,-0.4807341,6.680025,7.306014999999999,1000.9789,1,3
51.28,-0.38032582,6.846854,6.9509373,1000.9689,1,3
51.32,-0.43287516,6.9850835999999985,6.771032300000001,1000.95874,1,3
51.36,-0.4232851,6.7896543000000005,7.1734589999999985,1000.9765,1,3
51.4,-0.4423738,6.846852,7.1403217,1000.95123,1,3
51.44,-0.6048587,6.6943216,7.182934,1000.9437,1,3
51.48,-0.4566543,6.7991850000000005,7.1355925,1000.9789,1,3
51.52,-0.57133913,6.84685,7.074048,1000.9385,1,3
51.56,-0.6047673000000001,6.8182497,7.0456448000000025,1000.94366,1,3
51.6,-0.5712782,6.7276845000000005,7.528557000000001,1000.93604,1,3
51.64,-0.5425709,6.6990848,7.0314465,1000.9538,1,3
51.68,-0.52820104,6.775348700000001,7.2302940000000016,1000.95624,1,3
51.72,-0.3859692,6.861175,7.0834208,1000.89557,1,3
51.76,-0.5102606,6.8993077000000005,6.9319190000000015,1000.89795,1,3
51.8,-0.41467893,6.956507000000001,6.91298,1000.90295,1,3
51.84,-0.65368664,6.660981,7.372215299999999,1000.9257,1,3
51.88,-0.53420806,6.7992115,6.88457,1000.913,1,3
51.92,-0.40516979,6.865944,7.1496964000000025,1000.8904,1,3
51.96,-0.4912218,6.675282000000001,7.381680499999999,1000.9209,1,3
52.0,-0.27614605,6.7229476,7.007661,1000.8751,1,3
52.04,-0.21880591,6.7801466,6.832486,1000.90826,1,3
52.08,-0.33353767,6.80398,6.7046556,1000.8728,1,3
52.12,-0.47694832,6.6943493,7.1118134999999985,1000.87006,1,3
52.16,-0.4626192,6.7229490000000025,7.144953,1000.8475,1,3
52.2,-0.46742064,6.6609845000000005,7.429015,1000.86505,1,3
52.24,-0.33360264,6.918378999999999,6.747259,1000.8626,1,3
52.28,-0.37185758,6.90408,7.1638850000000005,1000.8549,1,3
52.32,-0.2428183,6.8278155,7.11654,1000.85754,1,3
52.36,-0.5152826,6.6657524000000015,7.362727,1000.8549,1,3
52.4,-0.4579414000000001,6.7801504,7.092865,1000.8499,1,3
52.44,-0.4675185000000001,6.7706175,6.9650345,1000.8349,1,3
52.48,-0.37193692,6.9374475,7.073925,1000.8498,1,3
52.52,-0.35283422,6.8564167000000005,6.9745007,1000.8171,1,3
52.56,-0.37197095,6.7849183,7.017108,1000.8324,1,3
52.6,-0.5297208999999999,6.58949,7.182811,1000.807,1,3
52.64,-0.4914979999999999,6.780153,7.2017479999999985,1000.80444,1,3
52.68,-0.501073,6.7277210000000025,7.1307297000000025,1000.8043,1,3
52.72,-0.2846465,6.846852,7.1261177,1000.8043,1,3
52.76,-0.29416937,6.8611507,7.036167,1000.7993,1,3
52.8,-0.35627002,6.789652,6.960420599999999,1000.80457,1,3
52.84,-0.5474254,6.684786999999999,7.083517999999999,1000.7993,1,3
52.88,-0.3848775,6.765817,7.069317999999999,1000.7942,1,3
52.92,-0.36572158,6.8659143,7.4433393,1000.77924,1,3
52.96,-0.36569628,6.71815,7.0314484,1000.79425,1,3
53.0,-0.19357504,6.7658143,7.419674,1000.76135,1,3
53.04,-0.107501805,6.8230119999999985,7.1687536,1000.76154,1,3
53.08,-0.35123503,6.6371160000000025,7.031460000000001,1000.7538,1,3
53.12,-0.39899856,6.584683,7.0740729999999985,1000.7613,1,3
53.16,-0.3129345,6.6990795,7.2634506,1000.79443,1,3
53.2,-0.32722792,6.665712400000001,7.168767,1000.7716,1,3
53.24,-0.3032921,6.660945,7.3250055,1000.74365,1,3
53.28,-0.2793563,6.7753415,6.979398,1000.76404,1,3
53.32,-0.34624827,6.699076,7.1593075,1000.75397,1,3
53.36,-0.3223033,6.7562732999999975,7.277672,1000.7438,1,3
53.4,-0.3318261,6.7086070000000015,7.1924562000000005,1000.7284,1,3
53.44,-0.33656909999999995,6.6371074000000005,7.618556,1000.7464,1,3
53.48,-0.28395677,6.7086053,6.8847256,1000.73865,1,3
53.52,-0.20744543,6.732436999999999,7.235075,1000.7158,1,3
53.56,-0.13571158,6.761035400000001,6.965217599999999,1000.73627,1,3
53.6,-0.269507,6.741967999999999,7.107253,1000.71326,1,3
53.64,-0.32205266,6.7562675,6.932083,1000.716,1,3
53.68,-0.40327024,6.4226074,7.462340400000001,1000.7034,1,3
53.72,-0.20290153,6.6180460000000005,7.391288799999999,1000.7007,1,3
53.76,-0.11207006,6.7753415,7.031475,1000.6882,1,3
53.8,-0.059473157,6.94217,7.1214314,1000.6983,1,3
53.84,-0.3414562,6.660943,6.889448,1000.69824,1,3
53.88,-0.2649591,6.6752424,7.263468,1000.68567,1,3
53.92,-0.3605412,6.537011,7.424438499999999,1000.69324,1,3
53.96,-0.3891946,6.6752414999999985,7.1829863,1000.6881,0,0
54.0,-0.29835808,6.7181396,7.1545809999999985,1000.6502,0,0
54.04,-0.32224184,6.7419720000000005,7.3250217000000015,1000.6779,0,0
54.08,-0.2935377,6.6895394,7.3202896,1000.65533,0,0
54.12,-0.21226196,6.6800055999999985,7.164056,1000.6855,0,0
54.16,-0.3030579,6.5465417,7.1498547000000015,1000.65515,0,0
54.2,-0.23612042,6.6037396999999975,7.040964999999999,1000.67285,0,0
54.24,-0.5133300000000001,6.5417742999999975,6.7142925,1000.6577,0,0
54.28,-0.3985957000000001,6.594206,7.050437,1000.6627,0,0
54.32,-0.30298309999999995,6.6561710000000005,6.9462814,1000.63745,0,0
54.36,-0.36510155,6.4750414,7.268224000000001,1000.6122,0,0
54.4,-0.39853984,6.513173,7.0457087,1000.65015,0,0
54.44,-0.47021282,6.3892419999999985,7.0125694,1000.63745,0,0
54.48,-0.44629222,6.384475,6.3402863,1000.6349,0,0
54.52,-0.22640607,6.522704599999999,6.416037599999999,1000.61475,0,0
54.56,-0.2598444,6.4416730000000015,7.1262007,1000.6298,0,0
54.6,-0.1546646,6.432139,7.410267,1000.61206,0,0
54.64,-0.0829485,6.575135,6.8894844,1000.6223,0,0
54.68,-0.40795487,6.336807,6.9747047,1000.6147,0,0
54.72,-0.42269295,6.2796183,7.116700999999999,1000.6072,0,0
54.76,-0.30797482,6.3797154,6.9557314,1000.5895,0,0
54.8,-0.22193407,6.3129839999999975,6.7284803,1000.5769,0,0
54.84,-0.27928865,6.298684,6.7379494000000015,1000.5438,0,0
54.88,-0.21714664,6.3892484000000005,6.671668,1000.57666,0,0
54.92,-0.36531776,6.279618,6.875248,1000.5641,0,0
54.96,-0.32229593,6.241485,6.8089666,1000.602,0,0
55.0,-0.30317265,6.265318,6.8042326,1000.57684,0,0
55.04,-0.2362516,6.3225164000000005,6.434949,1000.5238,0,0
55.08,-0.26014704,6.3558825999999975,6.8231707,1000.5691,0,0
55.12,-0.2888223,6.2557845,6.5627785,1000.5513,0,0
55.16,-0.30793744,6.3320494000000025,6.889453,1000.57935,0,0
55.2,-0.46566743,6.2605505,6.780562400000001,1000.54114,0,0
55.24,-0.3270491,6.3749480000000025,6.6337956999999985,1000.5463,0,0
55.28,-0.37006354,6.3272824,6.913125999999999,1000.5235,0,0
55.32,-0.23622568,6.3892474,6.491764,1000.5362,0,0
55.36,-0.23144186,6.332049,6.7379539999999984,1000.53864,0,0
55.4,-0.1931996,6.3129826,6.851580599999999,1000.5159,0,0
55.44,-0.3461495,6.27485,6.619594599999999,1000.54895,0,0
55.48,-0.29356813,6.4464455,6.624328599999999,1000.51843,0,0
55.52,-0.39394015,6.24625,7.0977697,1000.51074,0,0
55.56,-0.2648819000000001,6.3701805999999985,6.74269,1000.4931,0,0
55.6,-0.30789632,6.3177485,6.5675173,1000.50574,0,0
55.64,-0.31267256,6.2939157,6.539111,1000.5058,0,0
55.68,-0.32700795,6.379713,6.7095509999999985,1000.5311,0,0
55.72,-0.41882235,6.398804,6.4916763,1000.4959,0,0
55.76,-0.4331884,6.403571,6.690518400000001,1000.5058,0,0
55.8,-0.42366213,6.4703040000000005,6.7473288,1000.5185,0,0
55.84,-0.48105526,6.53227,6.9367009999999985,1000.50073,0,0
55.88,-0.36637327,6.6371354999999985,6.8088694000000025,1000.5108,0,0
55.92,-0.2516957,6.63237,7.239697500000001,1000.5263,0,0
55.96,-0.21827036,6.708636,6.884613000000001,1000.5211,0,0
56.0,-0.2565443,6.670503599999999,6.7946568,1000.5034,0,0
56.04,-0.3665153,6.570407,6.9745607000000005,1000.4907,0,0
56.08,-0.40000945,6.699105,6.7283687999999975,1000.47284,0,0
56.12,-0.5434346999999999,6.5751753,7.0834455,1000.5009,0,0
56.16,-0.37617922,6.7038727,7.088176700000001,1000.5134,0,0
56.2,-0.27105907,6.7086406,6.9982195,1000.4957,0,0
56.24,-0.37625027,6.6943410000000005,6.979278599999999,1000.49304,0,0
56.28,-0.42886144,6.67051,6.827775,1000.50323,0,0
56.32,-0.44323632,6.594246000000001,7.050289,1000.5084,0,0
56.36,-0.5675446,6.589479400000001,7.045551299999999,1000.49567,0,0
56.4,-0.48155028,6.670512,6.936656,1000.49567,0,0
56.44,-0.43377888,6.7944436,7.178108,1000.4931,0,0
56.48,-0.41947722,6.842110000000001,6.9839945000000005,1000.5108,0,0
56.52,-0.47686374,6.770612700000001,7.296461999999999,1000.49817,0,0
56.56,-0.52469945,6.7324804999999985,7.1923018,1000.4831,0,0
56.6,-0.46259975,6.6800494000000015,6.8277493,1000.45776,0,0
56.64,-0.4817412,6.618085400000001,7.1307487000000025,1000.45795,0,0
56.68,-0.41009298,6.846881,6.6951800000000015,1000.48315,0,0
56.72,-0.47614795,6.68003,7.1923714000000025,1000.4804,0,0
56.76,-0.4618085,6.7467622999999985,7.111886,1000.5084,0,0
56.8,-0.55740464,6.675264,7.305997,1000.49054,0,0
56.84,-0.44268927,6.6657305,7.083479,1000.4981,0,0
56.88,-0.44268927,6.6657305,6.9793224,1000.4526,0,0
56.92,-0.39967105,6.784894,7.121355,1000.4931,0,0
56.96,-0.53350556,6.70863,6.723665,1000.4831,0,0
57.0,-0.52872574,6.7181630000000006,7.315465,1000.4781,0,0
57.04,-0.49048734,6.694329700000001,7.2728558,1000.5107,0,0
57.08,-0.47136813,6.8230270000000015,7.1734333,1000.49304,0,0
57.12,-0.40923065,6.9231243000000005,6.865697,1000.4753,0,0
57.16,-0.45224887,6.72293,7.1829023,1000.47784,0,0
57.2,-0.5526248,6.6466645999999985,7.2633867,1000.473,0,0
57.24,-0.59564304,6.6895637999999975,6.884635,1000.5032,0,0
57.28,-0.63866127,6.72293,7.1639643,1000.48035,0,0
57.32,-0.45224887,6.81826,7.0029945000000025,1000.4929,0,0
57.36,-0.56218433,6.713396,7.3202,1000.46265,0,0
57.4,-0.48570752,6.732462400000001,7.092948,1000.4652,0,0
57.44,-0.50960654,6.6657305,7.111886,1000.4803,0,0
57.48,-0.4570287,6.675264,7.2018394,1000.4957,0,0
57.52,-0.62910163,6.6847970000000005,6.9982605,1000.506,0,0
57.56,-0.6052026,6.732462400000001,6.936713,1000.5056,0,0
57.6,-0.55740464,6.627598299999999,7.2586527,1000.48065,0,0
57.64,-0.41879028,6.789661,7.3864813,1000.478,0,0
57.68,-0.38055182,6.937424000000001,6.9982605,1000.4756,0,0
57.72,-0.45706064,6.7753625,7.253916,1000.5107,0,0
57.76,-0.4427225,6.765828999999999,7.088211,1000.49054,0,0
57.8,-0.461843,6.727696400000001,7.206570599999999,1000.49066,0,0
57.84,-0.4092665,6.7133970000000005,7.2255087,1000.49066,0,0
57.88,-0.42838687,6.7753625,6.9367094,1000.5005,0,0
57.92,-0.24675563,7.008924,6.908303299999999,1000.4904,0,0
57.96,-0.36147222,6.7515300000000025,7.5947924,1000.5107,0,0
58.0,-0.347134,6.7515300000000025,7.1260853000000015,1000.4929,0,0
58.04,-0.3614746,6.7467630000000005,7.1402884,1000.48535,0,0
58.08,-0.29455867,6.8516273000000005,6.908303299999999,1000.5082,0,0
58.12,-0.44751355,6.722931,7.069272,1000.49304,0,0
58.16,-0.36625817,6.87546,6.8940990000000015,1000.49304,0,0
58.2,-0.4188373,6.770596,7.239711,1000.48535,0,0
58.24,-0.30890307,6.8420944000000015,7.083475,1000.48035,0,0
58.28,-0.4045004,6.827795,7.1450224,1000.4604,0,0
58.32,-0.35670364,6.808728,7.083475,1000.49554,0,0
58.36,-0.43796146,6.7848954,7.1024119999999975,1000.49304,0,0
58.4,-0.39016473,6.799195299999999,7.074006,1000.465,0,0
58.44,-0.39494562,6.713397500000001,7.1260843,1000.49817,0,0
58.48,-0.33758917,6.808728,7.017192999999999,1000.47784,0,0
58.52,-0.3471502,6.9088270000000005,6.974582700000001,1000.5007,0,0
58.56,-0.28023404,6.7848960000000025,7.291788,1000.5005,0,0
58.6,-0.29935455,6.813495,7.287053999999999,1000.48285,0,0
58.64,-0.3614931,6.703864,6.846754,1000.48535,0,0
58.68,-0.3806138,6.799196,7.06927,1000.4652,0,0
58.72,-0.4423689,6.832552400000001,7.012492999999999,1000.48785,0,0
58.76,-0.3849973,6.8516179999999975,6.936743700000001,1000.48535,0,0
58.8,-0.35630453,6.76582,7.3723106,1000.4956,0,0
58.84,-0.29893297,6.880217,7.1024504,1000.49567,0,0
58.88,-0.33715826,6.894516499999999,6.9178104000000005,1000.49054,0,0
58.92,-0.19374937,6.899282,7.003031,1000.4702,0,0
58.96,-0.27499205,6.84685,7.078782,1000.5006,0,0
59.0,-0.2367397,6.83255,7.1261272,1000.5158,0,0
59.04,-0.46615547,6.756284700000001,6.9982996,1000.4752,0,0
59.08,-0.42790657,6.7324509999999975,6.9983005999999985,1000.44995,0,0
59.12,-0.37053412,6.823015700000001,6.946224000000001,1000.49554,0,0
59.16,-0.23190583,6.9326463,6.884678,1000.48804,0,0
59.2,-0.3752851,6.727684,7.485948599999999,1000.4854,0,0
59.24,-0.25577864,6.851614,7.135603999999999,1000.4982,0,0
59.28,-0.32746002,6.8802133,7.159277,1000.4829,0,0
59.32,-0.24619201,6.932645,6.8420733999999985,1000.4981,0,0
59.36,-0.4756078,6.6752505000000015,7.173483,1000.4981,0,0
59.4,-0.38955823,6.9803095,7.0977335,1000.49316,0,0
59.44,-0.5186007,6.7562814,6.913092599999999,1000.4931,0,0
59.48,-0.5281455,6.8087134,7.362862599999999,1000.5082,0,0
59.52,-0.36561912,6.932643400000001,6.856283,1000.4804,0,0
59.56,-0.36082447,6.880211,7.088269,1000.5084,0,0
59.6,-0.43728825,6.684781599999999,7.182958599999999,1000.5106,0,0
59.64,-0.43727428,6.8706765,7.036194,1000.48035,0,0
59.68,-0.5471941,6.7848786999999975,6.8941630000000025,1000.4755,0,0
59.72,-0.6101833999999999,6.7229347000000015,6.931960000000001,1000.48816,0,0
59.76,-0.5910845,6.818266,6.9130210000000005,1000.46014,0,0
59.8,-0.65802073,6.7467679999999985,7.050317,1000.4778,0,0
59.84,-0.6102418000000001,6.946964,6.9224863,1000.48285,0,0
59.88,-0.56724375,6.918365,6.9508905,1000.48816,0,0
59.92,-0.59116435,6.8564005,7.3627825,1000.4982,0,0
59.96,-0.5147077999999999,6.8897667,7.216014,1000.4856,0,0
60.0,-0.48126817,6.8611679999999975,7.2680902,1000.52106,0,0
60.04,-0.47172886,6.7801366,7.163932000000001,1000.4879,0,0
60.08,-0.5338853,6.6800394,6.8419905,1000.49054,0,0
60.12,-0.5482451,6.560876,7.140256,1000.4805,0,0
60.16,-0.53392595,6.6991067,7.0124254,1000.4627,0,0
60.2,-0.6104231,6.5990095,7.291753999999999,1000.48553,0,0
60.24,-0.51006746,6.894536500000001,6.955609299999999,1000.48535,0,0
60.28,-0.60568386,6.842105,6.9934826,1000.49554,0,0
60.32,-0.7586579000000001,6.9612694,7.0124179999999985,1000.498,0,0
60.36,-0.9403082,7.013702,6.808836,1000.4929,0,0
60.4,-1.2414573,7.0089364000000005,6.813569,1000.4854,0,0
60.44,-1.1888986,6.98987,6.576847,1000.48285,0,0
60.48,-1.40401,6.861173,6.505829,1000.5007,0,0
60.52,-1.3084341,7.0041704,5.8004017,1000.4778,0,0
60.56,-1.6764982,6.894540299999999,6.581576299999999,1000.49304,1,4
60.6,-1.7099785,6.9755720000000005,5.9282265,1000.49554,1,4
60.64,-1.748236,6.880242,5.9708347,1000.4929,1,4
60.68,-1.5044861,6.8039774999999985,7.0597460000000005,1000.4931,1,4
60.72,-1.7149463,6.5179877,6.1933355,1000.4829,1,4
60.76,-1.318248,6.5656539999999985,7.357997,1000.49316,1,4
60.8,-1.1987784,6.422658,7.5852460000000015,1000.5134,1,4
60.84,-1.0840868,6.6991186,7.1733503,1000.5234,1,4
60.88,-1.1080111,6.6133213,8.06815,1000.5108,1,4
60.92,-0.5487995,7.0232463,7.163877499999999,1000.5106,1,4
60.96,0.06777139,6.823051,7.7272690000000015,1000.4804,1,4
61.0,-0.008729234,7.0995116,7.2159520000000015,1000.51575,1,4
61.04,0.058161065,7.0613804,6.325881,1000.5108,1,4
61.08,0.010337651,6.9231505,6.619411500000001,1000.51575,1,4
61.12,0.0055324584,6.789687599999999,7.2443504,1000.53107,1,4
61.16,0.2779591,6.7658553,7.8598213,1000.5032,1,4
61.2,-0.09489099,7.209146,6.6336080000000015,1000.5005,1,4
61.24,-0.16183522,7.461774,7.466861,1000.521,1,4
61.28,0.373479,7.9431963,7.8408766,1000.5158,1,4
61.32,0.12490387,8.095728,8.139141,1000.5234,1,4
61.36,-0.5156136,7.380745,7.414776,1000.5157,1,4
61.4,-1.8922224,5.798248,9.625739,1000.5463,1,4
61.44,-2.5662017,5.8411474000000005,7.244332300000001,1000.51843,1,4
61.48,-1.6915215,5.3692594000000025,9.313265,1000.5283,1,4
61.52,-1.5051346,4.935503,9.80564,1000.5563,1,4
61.56,-1.0940951,5.2596297,7.215919500000001,1000.48303,1,4
61.6,-0.13338156,4.973637,8.266952999999999,1000.52826,1,4
61.64,-0.15730439,4.8211074,8.816144,1000.53107,1,4
61.68,0.17725648,5.45506,5.634621599999999,1000.4929,1,4
61.72,-0.1182491,5.707667400000001,6.9698,1000.4981,1,4
61.76,-0.53886354,5.7029,6.4300785000000005,1000.503,1,4
61.8,-0.20426895,5.416907,7.178116,1000.5232,1,4
61.84,0.0012720823,5.583736,8.437469,1000.5461,1,4
61.88,0.41712332,6.2510533,7.225461,1000.5257,1,4
61.92,0.71348065,6.0699244000000006,10.525342,1000.52094,1,4
61.96,-0.05605948,5.159512,8.536892,1000.5309,1,4
62.0,0.17337997,5.502703,7.7935925,1000.48785,1,4
62.04,0.6035712,5.4979367,8.214955,1000.5131,1,4
62.08,1.2201742,4.620890599999999,8.773615,1000.5409,1,4
62.12,1.5356506,4.511259,10.01403,1000.5461,1,4
62.16,0.8856056999999999,4.4492936,8.58424,1000.51575,1,4
62.2,1.0863664,4.9021163,7.4290476,1000.5005,1,4
62.24,0.57015586,4.9736147000000015,7.973503999999997,1000.51575,1,4
62.28,0.053945914000000005,4.983147,8.461148,1000.5057,1,4
62.32,0.27860564,5.4407363,7.954567999999999,1000.51807,1,4
62.36,0.46980655,5.788695,8.375931,1000.5257,1,4
62.4,-0.21847627,5.788695,9.460111,1000.5385,1,4
62.44,-0.61997145,5.6504645,9.692097,1000.5335,1,4
62.48,-0.17544083,5.273906,9.95249,1000.5385,1,4
62.52,-0.5530364999999999,5.755328,9.142908,1000.5383,1,4
62.56,-0.9688704,5.5503664000000015,7.7794,1000.51556,1,4
62.6,-0.5960369000000001,5.2214737,8.655266000000001,1000.4954,1,4
62.64,-0.39527628,5.4359684,7.9640436,1000.5105,1,4
62.68,-0.48608422,5.374003,7.201805,1000.49036,1,4
62.72,0.12464617,5.5408589999999975,7.935539200000001,1000.503,1,4
62.76,0.30146474,4.978406400000001,7.760362599999999,1000.5131,1,4
62.8,0.13413943,4.8068113,7.9260635,1000.5004,1,4
62.84,0.39221674,5.312067,7.623059299999999,1000.48535,1,4
62.88,0.062376037,5.2501025000000014,7.788760000000001,1000.503,1,4
62.92,0.62157667,5.3645010000000015,7.419473599999999,1000.49786,1,4
62.96,-0.14322406,5.345435,7.627783999999999,1000.50543,1,4
63.0,0.105293676,5.5646977,8.148565,1000.5131,1,4
63.04,-0.11461371,4.763917,10.586781,1000.5484,1,4
63.08,-0.033391282,5.5646996,8.087011,1000.49286,1,4
63.12,0.6070682,5.7458290000000005,10.392663,1000.54596,1,4
63.16,1.4435081,4.9879475,10.108597,1000.5131,1,4
63.2,1.2188168,4.2824984000000015,9.867139,1000.50543,1,4
63.24,1.3287201000000002,5.102346,6.9318056,1000.47003,1,4
63.28,1.3382432,5.0403824,7.428914,1000.4852,1,4
63.32,0.86979043,4.906919,7.552005999999999,1000.49786,1,4
63.36,0.12888874,5.3025446,6.955467999999999,1000.4852,1,4
63.4,-0.15793371,5.679104,6.747151400000001,1000.4852,1,4
63.44,0.052343383,6.1795926,7.6372156,1000.49786,1,4
63.48,-0.07674554,5.8983665,7.722432,1000.4953,1,4
63.52,-1.3195267,5.6505065000000005,8.858686,1000.5207,1,4
63.56,-1.4008198,5.82687,9.857642,1000.56854,1,4
63.6,-1.3817327,6.2367940000000015,8.887086,1000.52576,1,4
63.64,-0.7364911999999999,6.9756117,7.9402027,1000.4802,1,4
63.68,-0.35413897,6.7515839999999985,8.569875,1000.5029,1,4
63.72,-0.5639418,6.0699544,8.565186500000001,1000.5005,1,4
63.76,-0.9367792,5.731529,7.6325083,1000.4878,1,4
63.8,-0.8077363000000001,5.231041,7.4857416,1000.5027,1,4
63.84,-0.19593412,5.1929083,7.353175999999999,1000.46246,1,4
63.88,-0.02387309,5.5122684999999985,6.9838915,1000.4725,1,4
63.92,-0.26287678,5.5933003,6.9744215,1000.5003,1,4
63.96,-0.1959714,5.5027356,6.7329655,1000.49786,1,4
64.0,-0.14818601,5.1404777,6.1269617,1000.45996,1,4
64.04,-0.12907954,5.826862,7.249014,1000.52057,1,4
64.08,-0.014376119,6.1366887000000006,7.518874,1000.513,1,4
64.12,-0.1147647,5.3263745,8.816099000000003,1000.53564,1,4
64.16,-0.3681062,6.1843543,8.896583,1000.53577,1,4
64.2,0.0047058165,7.476091999999999,7.91656,1000.5055,1,4
64.24,0.21022393,5.5885363,9.545195,1000.50287,1,4
64.28,0.14329399,4.8973856,8.8397665,1000.52057,1,4
64.32,1.0084265,5.9793944,7.9923066999999985,1000.4827,1,4
64.36,0.4348374,5.3502088,8.181682,1000.5055,1,4
64.4,0.07156046,4.9212193,8.077524,1000.48773,1,4
64.44,-0.3920924000000001,5.0165505,7.192189,1000.4976,1,4
64.48,-0.29173000000000004,5.888831,6.922327,1000.47253,1,4
64.52,-0.08143051,6.4560513,6.3873386,1000.4826,1,4
64.56,-0.23439775,6.365487,8.082253999999999,1000.5232,1,4
64.6,-0.7697491999999999,6.560916400000001,6.979136500000001,1000.49005,1,4
64.64,-0.607247,6.427453,9.677747,1000.508,1,4
64.68,-1.3768082,6.284456700000002,9.985481,1000.523,1,4
64.72,-1.5142453000000002,7.156707300000001,7.419541400000001,1000.4876,1,4
64.76,-0.42919338,5.969834,9.924045,1000.4902,1,4
64.8,-1.2465078,4.168075,10.672084,1000.5255,1,4
64.84,-1.2225766000000002,4.8639913,8.068164,1000.48505,1,4
64.88,-0.6394041,5.378779,8.735719,1000.49255,1,4
64.92,-0.4625193,5.102317299999998,7.7130899999999984,1000.5104,1,4
64.96,-0.32865053,5.292979,7.2159815,1000.48773,1,4
65.0,-0.35729513,5.2214800000000015,7.291734700000001,1000.5053,1,4
65.04,-0.6727301,5.088015,7.769912700000001,1000.52045,1,4
65.08,-0.16125464,5.5170045,7.244397,1000.4952,1,4
65.12,-0.5483866999999999,5.202411,7.618417699999997,1000.5026,1,4
65.16,-0.5961526,5.631400599999999,6.4442883,1000.4951,1,4
65.2,-0.51007974,6.1461873,8.0634575,1000.5026,1,4
65.24,-0.3953302,5.855427,7.429051400000001,1000.5205,1,4
65.28,-0.25190398,6.0603875999999985,9.625817,1000.5331,1,4
65.32,-0.6199168,6.532276,9.649493,1000.52295,1,4
65.36,0.27394295,6.699105,9.644761,1000.49786,1,4
65.4,0.91446877,6.0413190000000005,9.308621,1000.4926,1,4
65.44,0.28356892,5.0689410000000015,9.412783,1000.52795,1,4
65.48,0.46045375,4.9545426,8.413826,1000.5001,1,4
65.52,0.74727833,5.068939,8.726299000000001,1000.5001,1,4
65.56,0.98630273,5.760089,6.908291,1000.4674,1,4
65.6,0.9863328,5.760088400000001,8.106098,1000.4952,1,4
65.64,0.39366704,5.1166024000000006,8.489587,1000.5079,1,4
65.68,-0.041258678,5.397828,7.050332000000001,1000.4799,1,4
65.72,0.32521433,6.017519,6.960234599999999,1000.48,1,4
65.76,-0.042856053,6.212949,7.499955,1000.4952,1,4
65.8,-0.21496,6.050886,7.599374000000001,1000.4825,1,4
65.84,-0.5686965,6.222483,7.0691175,1000.48505,1,4
65.88,-0.08118385,6.8421364,7.0738497,1000.4722,1,4
65.92,-0.0047361255,6.8564367,7.552022,1000.51544,0,0
65.96,-0.43494588,6.522778,7.301096,1000.48,0,0
66.0,-0.11950796,6.6705427,6.9838886,1000.48,0,0
66.04,-0.15298848,6.5275464,6.5151806,1000.4698,0,0
66.08,-0.6405666999999999,6.2987523,7.5425425000000015,1000.5051,0,0
66.12,-0.6071337,6.4560494,6.95074,1000.5102,0,0
66.16,-0.6262838000000001,6.2844543,7.220598,1000.50507,0,0
66.2,-0.3443046,6.2606225,7.2205954,1000.48486,0,0
66.24,-0.19137642,6.470351,7.817127,1000.4975,0,0
66.28,-0.10536912,6.5466166,6.444148,1000.4925,0,0
66.32,-0.043262646,6.608583,7.0454149999999975,1000.47974,0,0
66.36,-0.18668592,6.2653913,7.3910227,1000.5027,0,0
66.4,-0.13412815,6.4417543,7.4478339999999985,1000.49994,0,0
66.44,-0.33969802,6.436989,7.608801,1000.50006,0,0
66.48,-0.43532145,6.532321,7.7271576,1000.5002,0,0
66.52,-0.21547231,6.823081,7.3626070000000015,1000.48486,0,0
66.56,-0.36368275,6.2510953,8.091702,1000.50775,0,0
66.6,-0.44496673,6.1700644,7.097475,1000.49506,0,0
66.64,-0.067387775,6.4941907,6.803939,1000.4722,0,0
66.68,-0.25860542,6.384561,6.998048,1000.51263,0,0
66.72,0.15300252,6.5895095,7.1590669999999985,1000.5077,0,0
66.76,0.3346287,6.6228757,7.8739614,1000.5152,0,0
66.8,0.33940370000000003,6.742039,7.215879400000001,1000.50507,0,0
66.84,0.2390203,6.622876,7.788741,1000.5101,0,0
66.88,0.23901398,6.7801722999999985,7.0880490000000025,1000.4975,0,0
66.92,-0.095578626,6.599043400000001,7.902365700000002,1000.4924,0,0
66.96,-0.41105202,6.389315,7.106985000000001,1000.5077,0,0
67.0,-0.31546187,6.403615,7.6845818,1000.50006,0,0
67.04,-0.43496373,6.293984,7.428923599999999,1000.50244,0,0
67.08,-0.2533375,6.4894133,7.263219,1000.4949,0,0
67.12,-0.2772405,6.575211,7.4383917,1000.5177,0,0
67.16,-0.41586357,6.475114,7.3768435,1000.5051,0,0
67.2,-0.4110893,6.346417400000001,7.466796,1000.48987,0,0
67.24,-0.26292092,6.3559504,7.4099827,1000.4799,0,0
67.28,-0.1768916,6.360717,7.878689,1000.48987,0,0
67.32,-0.43022674,6.1652879999999985,7.8218746,1000.4949,0,0
67.36,-0.49714953,6.355951,7.092776299999999,1000.4898,0,0
67.4,-0.41590083,6.355951,7.528340299999999,1000.4948,0,0
67.44,-0.35376927,6.4560485,7.637232000000001,1000.4948,0,0
67.48,-0.13390347,6.4512825,7.613558999999999,1000.4848,0,0
67.52,-0.377681,6.1891217,7.907091,1000.5076,0,0
67.56,-0.52586085,6.27492,7.187461999999999,1000.495,0,0
67.6,-0.42548937,6.3321190000000005,7.177992,1000.4798,0,0
67.64,-0.6358081999999999,6.212955,7.921292299999997,1000.5227,0,0
67.68,-0.47808027,6.2415543,7.679838,1000.5202,0,0
67.72,-0.59280306,6.2510877,7.6987743,1000.52277,0,0
67.76,-0.4637543,6.322586,7.4762573,1000.50757,0,0
67.8,-0.3968438,6.2939873,7.623023,1000.48737,0,0
67.84,-0.35861173,6.394085,7.528334599999999,1000.4646,0,0
67.88,-0.45421374,6.379785,7.39577,1000.49994,0,0
67.92,-0.6454122,6.2081895,7.755584700000001,1000.4924,0,0
67.96,-0.53548306,6.236789,7.5330667,1000.4772,0,0
68.0,-0.3968747,6.3082876,7.6703644,1000.48486,0,0
68.04,-0.39687902,6.336887,7.613550999999997,1000.5202,0,0
68.08,-0.40644503,6.313054,7.552003999999997,1000.51263,0,0
68.12,-0.27739823,6.3559537000000015,7.2016563,1000.4621,0,0
68.16,-0.18180728,6.37502,7.395767,1000.50244,0,0
68.2,-0.2917503,6.3368874,7.4951887,1000.4924,0,0
68.24,-0.3204355,6.3464212,7.433641400000001,1000.49225,0,0
68.28,-0.47817534,6.332121400000001,7.3862963000000015,1000.5127,0,0
68.32,-0.4064846,6.4798846,7.239528699999997,1000.4898,0,0
68.36,-0.44950917,6.332122,7.8834076,1000.4924,0,0
68.4,-0.4017171,6.2606235,7.6561556,1000.49756,0,0
68.44,-0.28222835,6.4465194000000015,7.712967,1000.50745,0,0
68.48,-0.3013535,6.303522599999999,7.5093869999999985,1000.4823,0,0
68.52,-0.420855,6.3178230000000015,7.6277466,1000.48206,0,0
68.56,-0.3730613,6.3321223,7.1353693,1000.4948,0,0
68.6,-0.34439040000000004,6.15576,7.944951,1000.5405,0,0
68.64,-0.12930557,6.427454,6.9554595999999975,1000.4924,0,0
68.68,-0.16754876,6.408388,7.3815565,1000.48224,0,0
68.72,-0.14336908,6.503712,7.2111425,1000.5127,0,0
68.76,-0.05732754,6.527545,7.566224000000001,1000.5151,0,0
68.8,0.15777035,6.656242,7.580427999999999,1000.50006,0,0
68.84,0.009599596,6.5895095,7.3957863,1000.4974,0,0
68.88,0.009605601,6.456046,7.457333599999999,1000.4848,0,0
68.92,0.023950726,6.4322133,7.594632000000002,1000.4798,0,0
68.96,-0.37754768,5.7982607,7.604102,1000.4798,0,0
69.0,-0.057295814,6.193885,8.271653,1000.4949,0,0
69.04,0.2533962,6.68484,7.1732710000000015,1000.48236,0,0
69.08,-0.038168326,6.465578,6.7235039999999975,1000.46967,0,0
69.12,0.0956725,6.4846444000000005,7.5567600000000015,1000.4798,0,0
69.16,-0.4109816,6.4179125,6.3684244,1000.4898,0,0
69.2,-0.19588536,6.24155,8.006528999999999,1000.53284,0,0
69.24,-0.71687895,6.1128526,7.7650747,1000.54047,0,0
69.28,-0.17675634,6.322581,7.495213499999997,1000.48737,0,0
69.32,-0.2866883,6.160518,7.869232000000001,1000.50256,0,0
69.36,-0.45397636,6.4226790000000005,6.8797425999999975,1000.4925,0,0
69.4,-0.5017696,6.7515706999999985,7.3626520000000015,1000.53296,0,0
69.44,-0.5208819,6.2272496,8.049141,1000.50256,0,0
69.48,-0.44918007,6.0890193,8.413691499999999,1000.5026,0,0
69.52,-0.21496621,6.217716,7.7177334,1000.5001,0,0
69.56,-0.20062011,6.6085734,6.969699,1000.5101,0,0
69.6,-0.28187332,6.389312,7.168544,1000.4799,0,0
69.64,-0.248408,6.470343,7.2869043000000016,1000.49255,0,0
69.68,-0.28664297,6.417911,7.7272043,1000.5076,0,0
69.72,-0.3255515,6.4322267,6.945966,1000.4848,0,0
69.76,-0.14394057,6.4941926,7.026449,1000.4774,0,0
69.8,-0.27301276,6.422695,7.462013199999999,1000.5077,0,0
69.84,-0.23002148,6.570459,7.1968830000000015,1000.4949,0,0
69.88,-0.37821424,6.408396700000001,7.33418,1000.49756,0,0
69.92,-0.3686776,6.4989614,7.542491,1000.4926,0,0
69.96,-0.38303715,6.4226975,7.4430666,1000.4925,0,0
70.0,-0.33526072,6.4560637000000005,7.523549000000001,1000.5204,0,0
70.04,-0.43565822,6.3940988,7.3720474,1000.4723,0,0
70.08,-0.5264879,6.422699,7.461999,1000.49506,0,0
70.12,-0.7177098000000001,6.322602,7.3767776,1000.49005,0,0
70.16,-0.8180978,6.3845673,7.5898247,1000.5026,0,0
70.2,-0.6938456999999999,6.5752296,7.206336,1000.48987,0,0
70.24,-0.80380285,6.1891394,7.5661488,1000.50507,0,0
70.28,-0.6699885,6.346436,7.566147,1000.5255,0,0
70.32,-0.7608318000000001,6.413169,7.599284,1000.48987,0,0
70.36,-0.708266,6.2892385000000015,7.717643700000001,1000.5127,0,0
70.4,-0.708266,6.2892385000000015,7.717643700000001,1000.4748,0,0
70.44,-0.708266,6.2892385000000015,7.717643700000001,1000.4825,0,0
70.48,-0.708266,6.2892385000000015,7.717643700000001,1000.5227,0,0
70.52,-0.708266,6.2892385000000015,7.717643700000001,1000.5101,0,0
70.56,-0.65580267,6.294008,7.3199434,1000.4976,0,0
70.6,-0.7036169,6.212977,6.960127000000001,1000.4722,0,0
70.64,-0.4981016,6.422706,6.789687,1000.4875,0,0
70.68,-0.33083537,6.4751387000000005,7.6939564,1000.5204,0,0
70.72,-0.36864886,6.1986675,8.044341000000001,1000.51013,0,0
70.76,-0.2061379,6.3511972000000005,7.5519630000000015,1000.5026,0,0
70.8,0.037627354,6.7706547000000015,7.2489605,1000.50775,0,0
70.84,-0.22048633,6.2844663,7.712931599999999,1000.5051,0,0
70.88,-0.16313225,6.341665,7.608774,1000.5127,0,0
70.92,-0.28263092,6.2939997000000005,7.6277113,1000.48755,0,0
70.96,-0.1249014,6.408396700000001,7.79815,1000.53296,0,0
71.0,0.018489376,6.6038256,7.140067,1000.4798,0,0
71.04,-0.26830292,6.4274635,6.9790964,1000.4951,0,0
71.08,-0.18704979,6.4322295,7.291567999999999,1000.48254,0,0
71.12,-0.1870536,6.6181259999999975,6.7471112999999985,1000.51025,0,0
71.16,1.7726624,6.479896,10.851838,1000.4876,0,0
71.2,-0.32089525,6.2987666,7.3767853,1000.4773,0,0
71.24,-0.3591375,6.317833,7.1021899999999984,1000.50775,0,0
71.28,-0.2874442,6.3702655,7.959116000000002,1000.56085,0,0
71.32,-0.40216404,6.2225018,6.9885635,1000.48755,0,0
71.36,-0.40694785,6.4941955,7.5850982999999985,1000.4926,0,0
71.4,-0.18707903,6.246335,7.438331599999999,1000.51025,0,0
71.44,-0.16796508,6.6610255,7.054844,1000.45966,0,0
71.48,-0.072371855,6.5847607,7.561425,1000.52295,0,0
71.52,-0.17275131,6.4608300000000005,7.2205477,1000.5052,0,0
71.56,-0.23011297,6.584761,7.3389072,1000.52045,0,0
71.6,-0.4356491,6.432231,7.319969,1000.4976,0,0
71.64,-0.42609233,6.384566,7.504611,1000.485,0,0
71.68,-0.41653675,6.4751306,7.2205460000000015,1000.48755,0,0
71.72,-0.28748559999999995,6.498963,7.466735000000001,1000.49255,0,0
71.76,-0.25881082,6.465597,7.864424700000002,1000.54333,0,0
71.8,-0.45000675,6.3178344000000015,7.722392,1000.4976,0,0
