Timestamp,Ax,Ay,Az,P,LPFRMSAcc,LPFPValue,Value,Type
0.0,-0.046379343,6.533467,7.8025675,1002.5242,0.02115219835474796,3.60908712,0,0
0.02,0.34074485,6.762262299999999,7.224966999999999,1002.56195,0.06034651214029532,10.394306805599998,0,0
0.04,0.31683248,6.5096354000000005,7.7031402999999985,1002.51654,0.11573365015620565,19.961366959295994,0,0
0.06,0.13116942,6.314188,7.4996295,1002.4786,0.18463560890266695,31.951883350048323,0,0
0.08,0.10727607,6.3332543,7.4570208,1002.48114,0.2651885789082189,46.04060895685689,0,0
0.1,-0.12693049,6.1854910000000025,7.7836943,1002.49347,0.356076543302294,61.93263720278825,0,0
0.12,-0.06957095,6.19979,7.6606,1002.4886,0.4555871390094769,79.36083482696317,0,0
0.14,0.14552782,6.333254,7.689007000000001,1002.5165,0.5625813288273931,98.08375064230705,0,0
0.16,0.045153886,6.2426895999999985,7.6416636,1002.4913,0.6756053872524818,117.8831862344326,0,0
0.18,0.19333161,6.361853,7.7552895999999985,1002.4735,0.7938938410603168,138.56249265319082,0,0
0.2,-0.021757707,6.2379227,7.4712257,1002.47107,0.915785169900886,159.94479868325402,0,0
0.22,0.026046053,6.2951217,7.457022999999999,1002.46857,1.0404750459835994,181.8712898681582,0,0
0.24,-0.09822503,6.4285846,7.5422425,1002.4988,1.167504292012998,204.19979651561414,0,0
0.26,-0.15080096,6.5048494,7.362335000000002,1002.47864,1.2959661660623203,226.80306882585,0,0
0.28,-0.13167605,6.304653599999999,7.428617,1002.471,1.425062636467407,249.56772479140136,0,0
0.30000000000000004,-0.15557313,6.4142847000000005,7.253444,1002.4811,1.5541298516247386,272.39306295331346,0,0
0.32,-0.14122802,6.428584,7.471228,1002.4758,1.6830667384024487,295.18982960654705,0,0
0.34,-0.1125454,6.5096154,7.357602,1002.4787,1.8113563050148216,317.8792925547607,0,0
0.36000000000000004,0.045191944000000005,6.5763474,7.400212299999999,1002.4888,1.9387692174698048,340.3922962426052,0,0
0.38,0.035634205,6.4714828,7.324461500000001,1002.4684,2.0646863646846247,362.66826027471114,0,0
0.4,0.026080295,6.3570857000000025,7.499635700000002,1002.4635,2.18894820664603,384.65456495649096,0,0
0.42,-0.031273536,6.519149,7.4096823,1002.4683,2.3113787737347664,406.30579321946817,0,0
0.44,-0.09340904,6.638312299999999,7.2203064,1002.4911,2.4316242627201134,427.58308561704484,0,0
0.46,-0.35151273,6.4810157,7.86892,1002.47107,2.5503203473308242,448.4532979233222,0,0
0.48,-0.26069456,6.4476495000000025,7.91153,1002.48114,2.667238955373696,468.88871774862497,0,0
0.5,-0.10773708,6.5811133,7.575388,1002.48627,2.7818043550627825,488.86640589436735,0,0
0.52,-0.30370525,6.3332524,7.3954806,1002.4787,2.89326702834263,508.3676953987257,0,0
0.54,-0.2219711000000001,6.3046412000000025,7.395524000000001,1002.4455,3.0015437313622293,527.3777149013413,0,0
0.56,-0.092893556,6.442871,7.168275,1002.4458,3.1064450058992685,545.8852132402076,0,0
0.5800000000000001,-0.16935904,6.3713717,7.135135000000001,1002.4862,3.2078378277334867,563.8822023247651,0,0
0.6,-0.27449188,6.3141727,7.864235400000001,1002.4888,3.306850148867817,581.363325631511,0,0
0.62,-0.15975372,6.4142704,7.0688577000000015,1002.5037,3.4022749632717977,598.3257515330781,0,0
0.64,-0.08325405,6.4047364999999985,7.381330499999999,1002.4558,3.4946569482262326,614.7686192341837,0,0
0.66,-0.15492828,6.314171,7.291378999999999,1002.45593,3.5837549947125398,630.6932114536378,0,0
0.68,0.08409616,6.5000663,7.423945,1002.4635,3.6700902863156513,646.1025541775143,0,0
0.7000000000000001,0.031529754,6.657361999999999,7.55651,1002.5141,3.754095723168843,661.0013309732923,0,0
0.72,-0.39861834,6.4285665000000005,7.6985445000000015,1002.4633,3.8356708945061433,675.3951532385379,0,0
0.74,-0.460733,6.333235299999999,7.5659839999999985,1002.46606,3.914472430616097,689.2909898564502,0,0
0.76,-0.37467372,6.4285655,7.338734,1002.4685,3.990302199368023,702.6967901285542,0,0
0.78,-0.15000008,6.5429626,7.2677207,1002.4837,4.063268092214591,715.6213881245227,0,0
0.8,-0.17866749,6.433331,7.684349,1002.4583,4.133946271119504,728.0741757965121,0,0
0.8200000000000001,-0.1164958,6.4333300000000015,7.575461,1002.4685,4.202173670132253,740.0652785506145,0,0
0.84,-0.016097054,6.5715600000000025,7.3576803,1002.4913,4.267835897050634,751.6053506213573,0,0
0.86,-0.28374323,6.490528,7.324541,1002.4684,4.330840266308068,762.7052652808286,0,0
0.88,-0.4175663,6.3904305,7.3671527,1002.45325,4.391208800930293,773.3762426189262,0,0
0.9,-0.39363307,6.4762273,7.182513,1002.49115,4.448859716203371,783.6299318614414,0,0
0.92,-0.44619948,6.4333277,7.244061500000001,1002.4988,4.503942372696716,793.4780196014267,0,0
0.94,-0.32667014,6.44286,7.6796303,1002.4736,4.557245451572129,802.9321740179123,0,0
0.96,-0.38878477,6.4523926,7.442912,1002.471,4.608427573603774,812.0042046338542,0,0
0.98,-0.3075053,6.366594,7.6559625,1002.4861,4.657767426899643,820.7059857094191,0,0
1.0,-0.35528046,6.480991,7.258274,1002.48114,4.7048344362094765,829.0492700232343,0,0
1.02,-0.2883518,6.5238895,7.064164999999999,1002.438,4.749480485527734,837.0455954708376,0,0
1.04,-0.18370727,6.495303,7.684325,1002.4735,4.792747941628935,844.7066890926448,0,0
1.06,-0.33665973,6.3570730000000015,7.3197765,1002.4659,4.833887835029131,852.0439645761403,0,0
1.08,-0.088108666,6.4333377,7.679591,1002.4685,4.8736602522493895,859.0687095208827,0,0
1.1,-0.19326305,6.45717,7.419199000000001,1002.4712,4.911704896071419,865.7920231197818,0,0
1.12,-0.18370284,6.4762363,7.4097300000000015,1002.4709,4.948096751504903,872.2247869725381,0,0
1.14,-0.20282078,6.47147,7.4002614,1002.476,4.98287664053242,878.3776814797322,0,0
1.16,-0.12634261,6.5477347,7.310308,1002.4585,5.0160693775893535,884.261070012962,0,0
1.18,-0.19803843,6.5048356,7.33398,1002.4735,5.047720082443845,889.8851968688773,0,0
1.2,-0.24583584,6.4524035,7.324511,1002.48096,5.077809660192046,895.2600201060358,0,0
1.22,-0.15979809,6.45717,7.561231599999997,1002.4761,5.106785922462613,900.3951918060077,0,0
1.24,-0.12633818,6.4428706,7.4854816999999985,1002.48865,5.1345342825774285,905.3001659696007,0,0
1.26,-0.25061120000000003,6.523902,7.386058999999999,1002.4659,5.161057647185572,909.9839977830612,0,0
1.28,-0.13111484,6.5382013,7.291371000000002,1002.44574,5.18627106586962,914.4554938454158,0,0
1.3,-0.1884712000000001,6.481003,7.632248,1002.4709,5.2106938059131815,918.7233632282687,0,0
1.32,-0.260167,6.3427725,7.6227794000000015,1002.461,5.234133450051959,922.795908107336,0,0
1.34,-0.21714813,6.33324,7.788483599999997,1002.47614,5.256871239156866,926.6812575972937,0,0
1.36,-0.22192666,6.4857693,7.3150434,1002.4658,5.278362401953121,930.3871767592696,0,0
1.38,-0.30796188,6.361839,7.367122,1002.46075,5.298591401378935,933.9211917944583,0,0
1.4,-0.26494238,6.361839,7.3150434,1002.47845,5.3175479285059275,937.2906536090908,0,0
1.42,-0.28884012,6.352306,7.4712796,1002.4836,5.3355464728438164,940.5026046755077,0,0
1.44,-0.31273788,6.395204,7.428669500000002,1002.4937,5.352625943896626,943.5638525809616,0,0
1.46,-0.09286499,6.4381037,7.584904700000001,1002.4484,5.369127144091522,946.4807556009292,0,0
1.48,-0.25537702,6.390438,7.400264,1002.45575,5.384708052640241,949.2596410892096,0,0
1.5,-0.26493603,6.3523054000000005,7.362388,1002.4734,5.3993088880205145,951.9066338387323,0,0
1.52,-0.31751263,6.4714694,7.490216999999999,1002.4635,5.413357212796985,954.4275213503917,0,0
1.54,-0.25990313,6.476229,7.452364999999999,1002.4787,5.426810312988054,956.8279617988323,0,0
1.56,-0.26467153,6.357065,7.7506337,1002.4583,5.440003126009823,959.1132601965988,0,0
1.58,-0.18818325,6.404731,7.3387413,1002.48096,5.45232535002587,961.2886735801574,0,0
1.6,-0.29332182,6.3951970000000005,7.381353,1002.4938,5.463893167209159,963.359207300981,0,0
1.62,-0.24551806,6.423796,7.281931,1002.4686,5.474633591892713,965.3295247104172,0,0
1.64,-0.16424997,6.438096,7.428698,1002.4939,5.484849879582035,967.2042889244376,0,0
1.66,-0.33631152,6.399963,7.5470595,1002.4558,5.494710472320322,968.9877360238183,0,0
1.68,-0.29806167,6.4333285999999985,7.357684,1002.4635,5.503965821977293,970.6841026311454,0,0
1.7,-0.39364058,6.3570633,7.6275473,1002.4786,5.512983522617197,972.2974723559073,0,0
1.72,-0.30281866,6.3761296,7.670157400000001,1002.4939,5.521845534431359,973.8317529842253,0,0
1.74,-0.2502294,6.357063,7.7080335999999985,1002.4533,5.530570398441341,975.290480916664,0,0
1.76,-0.22631896,6.3808956,7.4002979999999985,1002.4685,5.5386845531253135,976.6772537864673,0,0
1.78,-0.07335378,6.5286584,7.2393293,1002.461,5.546177194780353,977.9954277805936,0,0
1.8,-0.23107593,6.3570623,7.5423326,1002.47363,5.553339074281144,979.248287849794,0,0
1.82,-0.2358386,6.3141623,7.6322875,1002.48865,5.560269480211462,980.4389803106798,0,0
1.84,-0.20237426,6.3951936,7.5423345999999984,1002.4634,5.566933684423917,981.5703640800003,0,0
1.86,-0.28361952,6.4094934,7.4287095,1002.4964,5.5731827425873135,982.6453885078836,0,0
1.88,-0.27405423,6.39996,7.3008814,1002.4585,5.578828518975136,983.6666072937333,0,0
1.9,-0.2740371,6.3141612999999985,7.580213,1002.48364,5.584246328216278,984.6366975306523,0,0
1.92,-0.2931506,6.299862,7.3908369999999985,1002.4736,5.589124332036411,985.5580821128838,0,0
1.94,-0.09716152,6.4714575,7.3150883,1002.4912,5.593614594697001,986.433176754137,0,0
1.96,-0.044572234,6.4952903,7.461856,1002.4938,5.598007248561753,987.2642286228336,0,0
1.98,-0.13060302,6.509589,7.7127795,1002.47107,5.6027147204527425,988.0532906829717,0,0
2.0,-0.05411472,6.5906205,7.6133585,1002.4837,5.607634317151073,988.8024553928508,0,0
2.02,-0.18315804,6.271261,7.8027353,1002.47614,5.612603838240323,989.5136425950856,0,0
2.04,-0.30264172,6.3856587,7.1304507,1002.4635,5.616694153899272,990.1886670936383,0,0
2.06,-0.2780975,6.337977,7.585013000000001,1002.4711,5.6206408333607,990.829335499022,0,0
2.08,-0.2016029,6.328443,7.5376705999999984,1002.4812,5.624354390781656,991.4373768142227,0,0
2.1,-0.24938318,6.29031,7.476125,1002.48364,5.627701994506215,992.0144086678032,0,0
2.12,-0.16327575,6.471438,7.144723,1002.466,5.630439121558787,992.5618997424224,0,0
2.14,-0.13934124,6.4333043,7.551885,1002.4585,5.633209686900071,993.0812906168833,0,0
2.16,-0.23969936,6.3522725,7.6513095,1002.47845,5.636053548054545,993.5740541673359,0,0
2.18,-0.067590944,6.4571357,7.580296499999997,1002.5141,5.638973728018283,994.0416442055138,0,0
2.2,-0.14881213,6.428536,7.632378,1002.4762,5.6419968396828875,994.4851711641078,0,0
2.22,0.0041771084,6.571532,7.4430055999999984,1002.4888,5.644993737913637,994.9058846485308,0,0
2.24,-0.14874116,6.3522690000000015,7.7270727,1002.48096,5.648112855656809,995.304897354632,0,0
2.26,-0.13912831,6.395167,7.324653,1002.504,5.650747926229465,995.6833817512663,0,0
2.28,-0.12955092,6.4285326,7.272576299999999,1002.48114,5.652909987613891,996.042282493828,0,0
2.3,-0.13907507,6.4285316,7.414611999999999,1002.4685,5.654868691222121,996.3825415729776,0,0
2.32,-0.31589234,6.247401,7.7554927,1002.46375,5.6569512609306525,996.7050868456515,0,0
2.34,-0.18200456,6.380863,7.3767447,1002.48395,5.658702301151052,997.0108917559419,0,0
2.36,-0.009896129,6.461894,7.4761705,1002.4735,5.660417056738968,997.3007663643532,0,0
2.38,-0.033759654,6.461893,7.329407700000001,1002.47107,5.661863884850881,997.5755126614335,0,0
2.4,-0.09109956,6.447593,7.390956,1002.4534,5.6631461038077235,997.8358388839528,0,0
2.42,-0.30615526,6.2807627,7.3909593,1002.48364,5.664061171855751,998.0825952181883,0,0
2.44,-0.30610204,6.3188944000000005,7.4288397,1002.4508,5.6647597928256825,998.3163546523334,0,0
2.46,-0.286965,6.32366,7.499857400000002,1002.48914,5.665382429256648,998.5379265155956,0,0
2.48,-0.20087537,6.4332895,7.5282683000000015,1002.4812,5.6661236736277605,998.7479031985181,0,0
2.5,-0.15783934,6.433289,7.4951296,1002.4912,5.666913123716638,998.9469144640336,0,0
2.52,-0.25339997,6.3474910000000015,7.6561027,1002.49896,5.6678871660720125,999.1355481821727,0,0
2.54,-0.1721078,6.457120400000001,7.514074000000001,1002.4913,5.668938596664405,999.3143056420644,0,0
2.56,-0.25812656,6.3808545999999975,7.5661535,1002.48364,5.670038179203233,999.4836653373137,0,0
2.58,-0.3106689,6.295056,7.750798,1002.4735,5.671361355487535,999.6440749688213,0,0
2.6,-0.3010738,6.261689,7.604035400000001,1002.451,5.67259681691074,999.7959178493334,0,0
2.62,-0.23890084,6.32842,7.755539999999999,1002.4735,5.674078150305894,999.9397255142966,0,0
2.64,-0.13848944,6.4142175,7.357852999999999,1002.4761,5.675250600930741,1000.0759249152063,0,0
2.66,-0.25793135,6.2998185,7.594578,1002.466,5.676371660663707,1000.2048749761557,0,0
2.68,-0.21489531,6.3331842000000025,7.5188284,1002.4989,5.677364828805826,1000.3270737400965,0,0
2.7,-0.16846435,6.3379846,7.7080803,1002.4711,5.678548224085939,1000.44276706245,0,0
2.72,-0.1302335,6.37135,7.490296400000001,1002.48615,5.679591533953753,1000.5523498606567,0,0
2.74,-0.20193815,6.290319,7.466624,1002.451,5.680363485101032,1000.656012361654,0,0
2.76,-0.13024867,6.4047165,7.551842,1002.4811,5.681179089675938,1000.7541788630333,0,0
2.78,-0.120696686,6.4237833,7.788562,1002.471,5.682432894563651,1000.8470993397448,0,0
2.8,-0.06334282,6.480982,7.8264369999999985,1002.45856,5.684204706141608,1000.9350051313443,0,0
2.82,-0.19718492,6.2664866,8.011078,1002.47614,5.686450832739579,1001.0182267743284,0,0
2.84,-0.27844536,6.233121,7.958999,1002.4533,5.688983991658815,1001.096927681682,0,0
2.86,-0.13028282,6.242655,7.50923,1002.451,5.69104035734166,1001.1713424637653,0,0
2.88,-0.15896925,6.271254,7.154148599999999,1002.4509,5.6921462291576805,1001.2417017723446,0,0
2.9,-0.21633449,6.271254,7.234633,1002.4762,5.692536682528541,1001.3083154510248,0,0
2.92,-0.28325933,6.2664876,7.542368400000001,1002.48627,5.692778291475477,1001.3714159338828,0,0
2.94,-0.20201024,6.371352,7.315117,1002.4812,5.692664831681957,1001.4311667431745,0,0
2.96,-0.10642558,6.4952830000000015,7.4997573000000015,1002.4635,5.692693506708102,1001.4876789579887,0,0
2.98,-0.10642558,6.4952830000000015,7.4997573000000015,1002.46606,5.692847668830815,1001.5411353227499,0,0
3.0,-0.27373390000000003,6.36182,7.433474499999999,1002.47614,5.692833534724067,1001.5917353834913,0,0
3.02,-0.27374148,6.333221,7.116267999999999,1002.4636,5.692135122595445,1001.6395843097816,0,0
3.04,-0.2880885,6.4333186,7.187284,1002.47864,5.69108402048616,1001.6848842215364,0,0
3.06,-0.3024317,6.3808865999999975,7.428737599999999,1002.47107,5.690031331066447,1001.7277414923656,0,0
3.08,-0.37414014,6.3046217,7.5897070000000015,1002.4787,5.6891393657708935,1001.7683136274976,0,0
3.1,-0.37892377,6.280789,7.4524083,1002.4558,5.688142541533615,1001.8066381170416,0,0
3.12,-0.23554102,6.371353599999999,7.4997516000000015,1002.4533,5.687243913695138,1001.842829618781,0,0
3.14,-0.18774673,6.361821,7.400328599999999,1002.461,5.686263213889935,1001.8770338430903,0,0
3.16,-0.31681287,6.290323,7.476078,1002.466,5.6852441019770765,1001.9093769738547,0,0
3.18,-0.19254553,6.480985,7.4476710000000015,1002.4838,5.684400740130505,1001.9400232870928,0,0
3.2,-0.19254553,6.480985,7.4476710000000015,1002.47107,5.683715707145147,1001.969014137636,0,0
3.22,-0.14459719,6.4809813,7.7270145,1002.4762,5.683612741466085,1001.9964563222808,0,0
3.24,-0.13025838,6.5000480000000005,7.665467299999999,1002.4687,5.68395181910615,1002.0224043138724,0,0
3.26,-0.1684981,6.395184,7.831171,1002.4813,5.6848067494640695,1002.0469839837127,0,0
3.28,-0.21151826,6.4094834,7.3624649999999985,1002.4864,5.685390572672827,1002.0702844776424,0,0
3.3,-0.26887655,6.419017,7.452419,1002.49646,5.6858899293676375,1002.0924070259593,0,0
3.32,-0.2401996,6.3332190000000015,7.6086535,1002.4661,5.686443860333887,1002.1132998043588,0,0
3.34,-0.23542044,6.2903194,7.7932960000000016,1002.4685,5.687284000840522,1002.1330393840564,0,0
3.36,0.0609255,6.438083,7.234636,1002.44824,5.687681308321028,1002.1516159988948,0,0
3.38,-0.029892027,6.447616,7.3577304,1002.48114,5.687890486405737,1002.16921658217,0,0
3.4,0.07048257,6.490515,7.352996000000001,1002.47864,5.687984608060264,1002.1858823818559,0,0
3.42,-0.044233993,6.3904176,7.324589,1002.4888,5.687794803031392,1002.201698785884,0,0
3.44,-0.07769325,6.371351,7.348261,1002.451,5.6873663565483765,1002.216571644854,0,0
3.46,-0.034676917,6.4666824,7.3151199999999985,1002.4839,5.68680676648695,1002.2306756851184,0,0
3.48,-0.12549382,6.4142504,7.267775500000001,1002.4585,5.685988975182723,1002.2439581826297,0,0
3.5,-0.15895371,6.366585,7.485558500000002,1002.4813,5.685224211515227,1002.2565490279727,0,0
3.52,-0.1254957,6.4142504,7.4997615999999985,1002.4839,5.684594792914875,1002.2684927624176,0,0
3.54,-0.29279077,6.2903194,7.5471059999999985,1002.4838,5.684003651061032,1002.2798213522284,0,0
3.56,-0.15417771,6.5143476,7.263041,1002.4711,5.683299855720781,1002.2905198973167,0,0
3.58,-0.28801352,6.2998533,7.556574,1002.4585,5.682675154970305,1002.3005778601269,0,0
3.6,-0.26411575,6.2998533,7.6702,1002.4332,5.682303083926767,1002.3099425157692,0,0
3.62,-0.1637405,6.385651599999999,7.518698700000002,1002.46106,5.682023729809168,1002.3187611484384,0,0
3.64,-0.0681457,6.4571495,7.46662,1002.49646,5.6818394846291636,1002.32719300813,0,0
3.66,-0.1876427,6.3999510000000015,7.4808226,1002.46106,5.681688022742398,1002.3351253205244,0,0
3.68,-0.12550649,6.4190172999999975,7.4855576,1002.4813,5.6815972706391396,1002.3426605406024,0,0
3.7,-0.16374621,6.390418,7.4524164000000015,1002.456,5.681470682195332,1002.3497266831172,0,0
3.72,-0.08166720000000001,6.466663,7.4382887,1002.4788,5.681392089954241,1002.3564349905837,0,0
3.74,-0.16768844,6.385631,7.523509,1002.4738,5.681383063837839,1002.3627849650952,0,0
3.76,-0.25370967,6.2807660000000025,7.5424479999999985,1002.4839,5.6813292634628265,1002.3688318166992,0,0
3.78,-0.029013239,6.395162,7.499842599999999,1002.46606,5.6813148673725165,1002.374524836236,0,0
3.8,-0.03852717,6.538158,7.2489240000000015,1002.4382,5.681139269552407,1002.3797844188887,0,0
3.82,-0.22968888,6.27123,7.703428999999999,1002.4764,5.681183577746937,1002.3847796022123,0,0
3.84,-0.22968888,6.27123,7.703428999999999,1002.4585,5.6814220353865,1002.3894587396294,0,0
3.86,0.11928247,6.4618907,7.68923,1002.4714,5.682056980964996,1002.3938882139884,0,0
3.88,0.009362191,6.438058,7.4430428,1002.4458,5.6826169892933835,1002.3979889799617,0,0
3.9,-0.1674601,6.2855277,7.532998599999999,1002.4635,5.683048952216827,1002.4018482564476,0,0
3.92,-0.1387356,6.290293,7.353096000000002,1002.4635,5.6830860770105005,1002.4054802594272,0,0
3.94,-0.1626194,6.25216,7.6608334,1002.43335,5.683214931857124,1002.4087898283265,0,0
3.96,-0.014399812,6.438055,7.3720393,1002.46375,5.6832122111545775,1002.4119120200237,0,0
3.98,0.11946516,6.5333853,7.461995,1002.4635,5.683365890245503,1002.4148565053353,0,0
4.0,-0.19119164,6.29029,7.618233,1002.4635,5.683579637669936,1002.4176333691373,0,0
4.02,-0.052546903,6.3665543,7.6087669999999985,1002.46356,5.683928330009695,1002.4202523418636,0,0
4.039999999999999,-0.071650915,6.380853,7.4430647,1002.4357,5.684151652703253,1002.4226220777343,0,0
4.06,-0.08118006,6.571515,7.2394880000000015,1002.4838,5.6842084078725055,1002.4249362168697,0,0
4.079999999999999,-0.17195065,6.328419,8.077481,1002.4534,5.685126143509204,1002.427083459829,0,0
4.1,-0.20061426,6.280753,8.039609,1002.43585,5.686679399772945,1002.4290123232524,0,0
4.119999999999999,-0.028495677,6.423749,7.1779509999999975,1002.48645,5.687600941134435,1002.4309234426096,0,0
4.14,-0.06671885,6.380849400000002,7.3625937000000015,1002.4687,5.688190449173797,1002.4327481032802,0,0
4.159999999999998,-0.11925107,6.342716,7.338926,1002.4485,5.688396435042251,1002.434417080277,0,0
4.18,-0.1287954,6.333183,7.367334,1002.46625,5.68829483784442,1002.4360063868622,0,0
4.199999999999998,-0.104865946,6.3522477,7.3910084,1002.4686,5.6879843695170935,1002.4375280351683,0,0
4.22,-0.20527653,6.32365,7.419411999999999,1002.4611,5.687499981067138,1002.4389574226848,0,0
4.239999999999998,-0.09532708,6.41898,7.4288820000000015,1002.45105,5.687004105000527,1002.4402639627733,0,0
4.26,-0.18132174,6.347481299999999,7.471495599999999,1002.45605,5.686472957324362,1002.4414752513287,0,0
4.2799999999999985,-0.02356033,6.4666443,7.447825999999999,1002.46375,5.6860331821518395,1002.442625734992,0,0
4.3,-0.15258715,6.3903785000000015,7.485703999999999,1002.45605,5.6856343654561625,1002.4436906297107,0,0
4.3199999999999985,-0.12388046,6.5190754,7.409956,1002.4611,5.685328543333071,1002.4446942444173,0,0
4.34,-0.21946257,6.371311,7.570926700000001,1002.4738,5.685162723805598,1002.445685819092,0,0
4.3599999999999985,-0.28157213,6.328411599999999,7.7318993,1002.4711,5.685324910041111,1002.446653465526,0,0
4.38,-0.2528515,6.271212,7.55673,1002.4762,5.685418285770565,1002.4476148454387,0,0
4.4,-0.08551658,6.519072,7.253731699999999,1002.45605,5.685304647353168,1002.4484946872864,0,0
4.42,-0.18586454,6.3427086,7.4715175999999985,1002.4533,5.685111154453465,1002.4492894146688,0,0
4.44,-0.16195156,6.3951400000000005,7.4999247,1002.47864,5.68496248794078,1002.4500972978908,0,0
4.46,-0.2192674,6.357006500000002,7.6987733999999985,1002.4889,5.685121867858148,1002.4509508332336,0,0
4.48,-0.17623526,6.395139,7.523602,1002.45856,5.685322934958142,1002.4517324100627,0,0
4.5,-0.10930403,6.47617,7.362633,1002.471,5.685415189585854,1002.4524923746727,0,0
4.52,-0.20009245,6.328406,7.6088247,1002.45355,5.685603137370968,1002.4531676868536,0,0
4.539999999999999,-0.16182612,6.4237366,7.2537475,1002.46124,5.685442538866508,1002.4537934530236,0,0
4.56,-0.1713439,6.4380355000000025,7.3863144,1002.43317,5.685201459998693,1002.4542721355806,0,0
4.579999999999999,-0.17609584,6.438035,7.201675,1002.45355,5.6846026438668575,1002.4546924998,0,0
4.6,-0.2382054,6.290271,7.873963400000001,1002.46375,5.684561615114987,1002.4550965406247,0,0
4.619999999999999,-0.30988854,6.2759705000000015,7.8644953,1002.4509,5.684983736741753,1002.4554384435512,0,0
4.64,-0.17124635,6.380833999999999,7.604106,1002.4534,5.68552591118841,1002.4557332105804,0,0
4.659999999999998,-0.14731944,6.428499,7.428935000000001,1002.4636,5.6859585707421525,1002.4560219871694,0,0
4.68,-0.20463525,6.3617663,7.528361999999999,1002.4712,5.68636194200887,1002.4563317910097,0,0
4.699999999999998,-0.2189607,6.3855987,7.3011117,1002.47363,5.6864128192918635,1002.4566678072348,0,0
4.72,-0.27689874,6.290282,7.6087947,1002.4485,5.686513853094463,1002.4569353070656,0,0
4.739999999999998,-0.11915955,6.4571114000000005,7.5377793,1002.4864,5.686762598307007,1002.4572777428108,0,0
4.76,-0.25299025,6.3379474,7.523576299999997,1002.49896,5.686963386657429,1002.457730375161,0,0
4.7799999999999985,-0.2051903,6.414212,7.6040616,1002.4737,5.687348784268345,1002.458187811755,0,0
4.8,-0.28166145,6.342713400000001,7.362607499999997,1002.4661,5.687421669036089,1002.4586204866072,0,0
4.8199999999999985,-0.17172216,6.4904769999999985,7.424154799999997,1002.4585,5.687510694735041,1002.4590023643547,0,0
4.84,-0.22429618,6.4380445,7.514108999999999,1002.4509,5.6876858924083376,1002.4593106230208,0,0
4.8599999999999985,-0.29120964,6.2902812999999975,7.840783,1002.4788,5.688266773771168,1002.4596531621353,0,0
4.88,-0.29120964,6.2902812999999975,7.840783,1002.4458,5.689204026069159,1002.4599059583132,0,0
4.9,-0.18604824,6.3951449999999985,7.428889999999999,1002.456,5.689928542366622,1002.460115267566,0,0
4.92,-0.1573656,6.385612,7.3957505,1002.43066,5.690396335138978,1002.4601941742586,0,0
4.94,-0.16214160000000002,6.34748,7.499907,1002.4764,5.690748806720274,1002.4603222371848,0,0
4.96,-0.19559836,6.3141136,7.6182675,1002.4663,5.691143419473814,1002.4604569135324,0,0
4.98,-0.23383297,6.34748,7.5141115,1002.4635,5.691454079910855,1002.4605868686646,0,0
5.0,0.057740748,6.4142113,7.490439999999999,1002.4636,5.691736398480713,1002.4607125442925,0,0
5.02,-0.01873231,6.404678,7.779238,1002.4508,5.6924393133234075,1002.4607879061173,0,0
5.039999999999999,0.029067665,6.5238414,7.5141125,1002.45355,5.693250479886833,1002.4608284393636,0,0
5.06,-0.07608422,6.404678,7.315268,1002.4813,5.6936806260333865,1002.4609379521588,0,0
5.079999999999999,-0.10953526,6.5715075,7.3342056,1002.46375,5.694032577275622,1002.4610448410364,0,0
5.1,-0.10953526,6.5715075,7.3342056,1002.4966,5.694314168475933,1002.4612672866213,0,0
5.119999999999999,-0.28160244,6.204482,7.9307413,1002.4888,5.695000431058651,1002.461562957308,0,0
5.14,-0.20511991,6.3045792999999986,7.258456,1002.45605,5.695092104694388,1002.4618043652806,0,0
5.159999999999998,-0.20511991,6.3045792999999986,7.258456,1002.46356,5.694658069511482,1002.4620239936501,0,0
5.18,-0.123859406,6.399911,7.324738000000001,1002.4838,5.693992201137682,1002.4622964509002,0,0
5.199999999999998,-0.13278759,6.3331633,7.646735700000002,1002.47644,5.693543984273868,1002.4625881109033,0,0
5.22,-0.07062097,6.3617620000000015,7.5899253,1002.4661,5.6932357083835265,1002.4628584644826,0,0
5.239999999999998,-0.16618785,6.4904585,7.4147553,1002.48645,5.692952085470357,1002.4631822784332,0,0
5.26,-0.10403583,6.4284930000000005,7.4857726,1002.4636,5.692716650129957,1002.4634699042376,0,0
5.2799999999999985,-0.19480836,6.390358999999999,7.3768850000000015,1002.4762,5.6923043951027825,1002.4637698787427,0,0
5.3,-0.11830232,6.3283935,7.542592,1002.4763,5.6919133641165365,1002.4640800446524,0,0
5.3199999999999985,-0.06093008,6.380825,7.4905149999999985,1002.4638,5.691529107273557,1002.4643530990896,0,0
5.34,-0.080020115,6.3760575999999975,7.367423,1002.4688,5.690951946163442,1002.4646103788333,0,0
5.3599999999999985,-0.24250427,6.4141900000000005,7.3200816999999985,1002.494,5.690189852970152,1002.4649435138513,0,0
5.38,-0.07996178,6.3283906,7.7651186,1002.48145,5.689852941213934,1002.465297295303,0,0
5.4,-0.12773061,6.3569894,7.74145,1002.4738,5.689893522840129,1002.4656405063307,0,0
5.42,-0.0703438,6.4523196,7.499997,1002.4636,5.690009646788994,1002.4659364217723,0,0
5.44,-0.113332845,6.452319,7.244342,1002.4762,5.689793120995609,1002.4662348415378,0,0
5.46,-0.16588151,6.51905,7.291688400000001,1002.48627,5.689450763245612,1002.4665706518132,0,0
5.48,-0.23756398,6.4523177,7.433722,1002.45593,5.689131324264264,1002.466829067426,0,0
5.5,-0.30920273,6.361752,7.566291,1002.46606,5.6889246107255484,1002.4670546348186,0,0
5.52,-0.30920273,6.361752,7.566291,1002.4636,5.688818245556678,1002.4672415094814,0,0
5.539999999999999,-0.046269745,6.4618483,7.5710289999999985,1002.4636,5.688933097273478,1002.4673935224993,0,0
5.56,-0.20397408,6.3474507,7.5710320000000015,1002.4966,5.689093597546065,1002.4676329845212,0,0
5.579999999999999,-0.1991651,6.376049,7.296439,1002.4638,5.688898781975608,1002.467830774419,0,0
5.6,-0.2182697,6.366515,7.130736,1002.45874,5.688120384504804,1002.467972814785,0,0
5.619999999999999,-0.21824054,6.42848,7.395866000000002,1002.4815,5.687327650431615,1002.4681470195192,0,0
5.64,-0.3568257,6.2711830000000015,7.537901,1002.4663,5.68654663495831,1002.468294297552,0,0
5.6599999999999975,-0.2994243,6.3426800000000005,7.646795699999997,1002.47394,5.6860437272318105,1002.4684447569507,0,0
5.68,-0.3233087,6.347447,7.6941414,1002.4839,5.685872018700926,1002.46863334175,0,0
5.6999999999999975,-0.17031124,6.4189434,7.7367544000000015,1002.47644,5.6861486548173925,1002.4688280792489,0,0
5.72,-0.2761187,6.328395400000002,7.556788,1002.46387,5.686417663403898,1002.4689823002172,0,0
5.7399999999999975,-0.20442037,6.3569945999999975,7.499975,1002.5194,5.686623337628959,1002.4693000735842,0,0
5.76,-0.30957353,6.271197,7.457366,1002.4787,5.686595402924137,1002.4696146978664,0,0
5.7799999999999985,-0.2569906,6.2902627,7.509444999999999,1002.4915,5.6864663257559585,1002.4699714869696,0,0
5.8,-0.17095289,6.2997956,7.552054400000001,1002.47644,5.6863250829479375,1002.4703100324684,0,0
5.8199999999999985,-0.15182984,6.3236284000000005,7.485773,1002.4787,5.686099289679892,1002.470639375154,0,0
5.84,-0.15182984,6.3236284000000005,7.485773,1002.4711,5.685799600481138,1002.4709320406006,0,0
5.8599999999999985,-0.27610093,6.356994,7.646742999999999,1002.484,5.6857421933439545,1002.4712376844427,0,0
5.88,-0.26654008,6.3712935,7.4573674,1002.4812,5.685616804764442,1002.471543615678,0,0
5.9,-0.36213234,6.261663,7.850322699999999,1002.46625,5.685922665851217,1002.4717948795012,0,0
5.92,-0.36213234,6.261663,7.850322699999999,1002.4813,5.686608478043211,1002.4720511146487,0,0
5.94,-0.2760908,6.2854958,7.5141807,1002.4815,5.687112288038242,1002.4723115400128,0,0
5.96,-0.23785111,6.304561,7.462102400000001,1002.4914,5.687394044557568,1002.47261037032,0,0
5.98,-0.47683746,6.1567984,7.4289618000000015,1002.4689,5.687247116599332,1002.4728610594464,0,0
6.0,-0.34778023,6.204464,7.575728999999999,1002.4763,5.687008724660668,1002.4730949485446,0,0
6.02,-0.3668982,6.2092304,7.6088695999999985,1002.4889,5.686751379676871,1002.4733585111368,0,0
6.039999999999999,-0.28563774,6.423725,7.424228,1002.4636,5.6864656203778825,1002.4735562644032,0,0
6.06,-0.2187179,6.49999,7.963950599999999,1002.4838,5.687112855066916,1002.4737678766376,0,0
6.079999999999999,-0.50072384,6.213997,7.916607000000001,1002.4738,5.68815489110227,1002.4739549728523,0,0
6.1,-0.5532991,6.190164599999999,7.7082929999999985,1002.4889,5.689178405138669,1002.4741740931653,0,0
6.119999999999999,-0.57241577,6.252128599999999,7.239588,1002.4838,5.68951903676306,1002.474402361138,0,0
6.14,-0.45769793,6.2092300000000025,7.457370299999999,1002.48895,5.689529482116088,1002.4746564302188,0,0
6.1599999999999975,-0.5293938,6.1615644,7.481041999999999,1002.49146,5.689230449501606,1002.47494141851,0,0
6.18,-0.4768147,6.2044635,7.447901700000001,1002.4713,5.688657200896486,1002.4751801250572,0,0
6.1999999999999975,-0.44813198,6.252128599999999,7.499981,1002.4864,5.687987301562273,1002.4754314377122,0,0
6.22,-0.41408962,6.4809093,7.518971400000001,1002.4711,5.6875685901717175,1002.4756379043984,0,0
6.2399999999999975,-0.42363656,6.3236127,7.7178179999999985,1002.4739,5.6874801365673955,1002.4758140819064,0,0
6.26,-0.4666294,6.2187480000000015,7.9119306,1002.46106,5.687865852035912,1002.4759166376576,0,0
6.2799999999999985,-0.40924644,6.2568793,7.6468062,1002.4914,5.6882839746950165,1002.476062996024,0,0
6.3,-0.2514875,6.285478,7.381682,1002.46606,5.688333431393343,1002.4761563074907,0,0
6.3199999999999985,-0.28970057,6.309310400000001,7.556857000000001,1002.5093,5.6883693244134514,1002.4763580747957,0,0
6.34,-0.39483088,6.252111,7.504780999999999,1002.4941,5.688241555831393,1002.4766002273172,0,0
6.3599999999999985,-0.4043525,6.185378599999999,7.537925200000001,1002.4687,5.6879351851130355,1002.4767857524668,0,0
6.38,-0.47125703,6.242577,7.6373487,1002.504,5.6877132713113845,1002.47704765378,0,0
6.4,-0.5238095,6.3045415999999985,7.5805387,1002.49646,5.687563124445688,1002.4773489542267,0,0
6.42,-0.5428907,6.152010400000001,7.632620299999999,1002.4737,5.68736216382743,1002.4776020470664,0,0
6.44,-0.44248945,6.213975,7.3106833,1002.4687,5.686673638247759,1002.4777936325302,0,0
6.46,-0.28951034,6.2997727,7.334357700000001,1002.48395,5.685697843915729,1002.4779850803686,0,0
6.48,-0.28471786,6.37127,7.44325,1002.4814,5.684739866850276,1002.4781665373897,0,0
6.5,-0.32769805,6.34267,7.51427,1002.494,5.683877803302457,1002.4783838732784,0,0
6.52,-0.31812575,6.3522034000000005,7.7462564,1002.4938,5.683486087248868,1002.478631409326,0,0
6.539999999999999,-0.5188522,6.2235055,7.8078059999999985,1002.4938,5.6834601877446325,1002.4789047391043,0,0
6.56,-0.2798239,6.2854695,7.708387400000001,1002.4737,5.683657758985897,1002.4791275162356,0,0
6.579999999999999,-0.36584777,6.218738,7.741529499999999,1002.4889,5.68402418918525,1002.4793595430499,0,0
6.6,-0.27978587,6.299769,7.5284834,1002.4991,5.684297133993706,1002.4796356275888,0,0
6.619999999999999,-0.32754588,6.1710706,7.608971,1002.5068,5.684448616138012,1002.4799773676276,0,0
6.64,-0.28451502,6.2664013,7.3864554999999985,1002.4838,5.684260062953662,1002.4802930906025,0,0
6.6599999999999975,-0.2414587,6.3188324,7.462209700000002,1002.4991,5.683959819637215,1002.4806397682968,0,0
6.68,-0.38484013,6.2092013,7.741541000000002,1002.47363,5.683874404738367,1002.4809208575416,0,0
6.6999999999999975,-0.29002577,6.261653,7.8361573,1002.4888,5.68419398275946,1002.4811975929114,0,0
6.72,-0.25179118,6.3045519999999975,7.717797,1002.46857,5.684732836768192,1002.4813966569496,0,0
6.7399999999999975,-0.18966132,6.433249,7.500014,1002.4711,5.685285274027063,1002.4815354819684,0,0
6.76,-0.17055354,6.285486,7.7272634999999985,1002.4713,5.686012590867232,1002.4816213000205,0,0
6.7799999999999985,-0.17055354,6.285486,7.7272634999999985,1002.46106,5.686891812964817,1002.4816231081708,0,0
6.8,-0.45257717,6.147256,7.665715,1002.4661,5.687640668276512,1002.481568822663,0,0
6.8199999999999985,-0.45257717,6.147256,7.665715,1002.5016,5.6882716356170775,1002.4815929682268,0,0
6.84,-0.39044735,6.185389,7.533150999999997,1002.4889,5.6886267486027275,1002.4816406085614,0,0
6.8599999999999985,-0.43347704,6.2092223,7.608900500000002,1002.499,5.6888936729201065,1002.4817451973703,0,0
6.88,-0.33788472,6.1853894999999985,7.774604300000001,1002.4865,5.689310884217068,1002.4818547293312,0,0
6.9,-0.32833272,6.266421,7.665713,1002.5092,5.689788312549871,1002.4820499547459,0,0
6.92,-0.2375279,6.2997875,7.698852,1002.48645,5.690409033606487,1002.4822382960858,0,0
6.94,-0.27099034,6.242589,7.774602400000001,1002.4967,5.691203341729567,1002.4824567766276,0,0
6.96,-0.1801855,6.2759547,7.410052,1002.4965,5.691603515398465,1002.4827003816383,0,0
6.98,-0.22798735,6.309321,7.424255400000002,1002.4763,5.691723436926655,1002.4828925896522,0,0
7.0,-0.18497673,6.280721,7.6373024,1002.4914,5.691894959903247,1002.4830930513305,0,0
7.02,-0.2519016,6.2425894999999985,7.68938,1002.49396,5.692148193247129,1002.4833093002844,0,0
7.039999999999999,-0.29970726,6.323621299999999,7.5236754,1002.49146,5.692317280955456,1002.4835297203791,0,0
7.06,-0.3475129,6.3760533,7.8219423,1002.5092,5.6929614083180535,1002.4838168965816,0,0
7.079999999999999,-0.47657526,6.2044578,8.158085,1002.4686,5.694361836678784,1002.4840158646463,0,0
7.1,-0.31406957,6.180625,7.8314095,1002.4939,5.695845648008986,1002.4842272557156,0,0
7.119999999999999,-0.13722820000000002,6.3283887000000005,7.163858,1002.47363,5.696521198836429,1002.4843758907438,0,0
7.14,-0.23282808,6.2282905999999985,7.0502315000000015,1002.4888,5.696169340934037,1002.4845231514481,0,0
7.1599999999999975,-0.32365197,6.242591,7.1875285999999985,1002.4838,5.695150621638838,1002.4846506676613,0,0
7.18,-0.108572245,6.376055,7.575749000000001,1002.51166,5.694329723722335,1002.4848605745833,0,0
7.1999999999999975,-0.23675498,6.3283677,7.8930335,1002.49646,5.694137775887773,1002.4850878062712,0,0
7.22,-0.22716747,6.4236975,7.410126700000001,1002.50653,5.693857851013706,1002.4853657800884,0,0
7.239999999999997,-0.2844972,6.3807983,7.4480047,1002.4989,5.6935057340454875,1002.4856601209443,0,0
7.26,-0.30836838,6.256867,7.590039699999997,1002.5093,5.693152845609541,1002.4860053040898,0,0
7.2799999999999985,-0.19840498,6.3664975,7.519025999999997,1002.5068,5.6928274798904726,1002.4863851688222,0,0
7.3,-0.15537278,6.395096,7.329650999999999,1002.47894,5.692266271855488,1002.4866940146919,0,0
7.3199999999999985,-0.19834924,6.352196,7.5379686,1002.4941,5.691770917686917,1002.4869935724496,0,0
7.34,-0.24613328,6.356962,7.542704,1002.5043,5.691351679252553,1002.4873205648233,0,0
7.3599999999999985,-0.31778850000000003,6.3474283,7.4669576,1002.5118,5.690872560059347,1002.4876976212516,0,0
7.38,-0.31299484,6.3283615,7.528506299999999,1002.51184,5.6904140122811855,1002.4881177008748,0,0
7.399999999999999,-0.36554477,6.352194,7.698947,1002.50146,5.690282770844643,1002.4885369155072,0,0
7.42,-0.2842602,6.4332247,7.429088,1002.5169,5.690116191769698,1002.48900944066,0,0
7.439999999999999,-0.28901209999999994,6.4141580000000005,7.4906387,1002.5346,5.689990328622893,1002.489591089899,0,0
7.46,-0.24595207,6.2759266,7.793644400000002,1002.50903,5.690199355276303,1002.4901750152428,0,0
7.479999999999999,-0.20769972,6.342657599999999,7.471706399999999,1002.4939,5.690274489834577,1002.4907043816215,0,0
7.5,-0.11685555,6.4522886,7.3864894,1002.5091,5.690242394119737,1002.4912383539804,0,0
7.52,-0.19331846,6.3903227,7.358084,1002.5116,5.689989092240407,1002.491783473882,0,0
7.539999999999999,-0.31278569,6.3331237,7.3438835,1002.49396,5.6894476253600725,1002.4922729773214,0,0
7.56,-0.3223034,6.3378887000000015,7.500122500000002,1002.5292,5.688907410224815,1002.4928384398416,0,0
7.579999999999999,-0.3223034,6.3378887000000015,7.500122500000002,1002.5168,5.688370245906002,1002.4934243441412,0,0
7.6,-0.20754635,6.3617206,7.7131743,1002.4991,5.688202876433077,1002.4939624815414,0,0
7.619999999999999,-0.1979449,6.3617196,7.528536999999999,1002.48895,5.688067913754348,1002.4944199348148,0,0
7.64,-0.18837133,6.356952,7.372302499999999,1002.5166,5.687708309644827,1002.4949039887616,0,0
7.659999999999997,-0.22656794,6.395084,7.287087,1002.5042,5.687071606427841,1002.4953651644696,0,0
7.68,-0.21698043,6.337885,7.5806227,1002.50397,5.686577830573357,1002.4958036367333,0,0
7.699999999999997,-0.1787281,6.3521839999999985,7.77,1002.5092,5.686532782922013,1002.4962392977327,0,0
7.72,-0.21247718,6.3140583,7.779442299999999,1002.499,5.686850937735858,1002.4966341863203,0,0
7.739999999999997,-0.21246192,6.356957,7.547458,1002.4862,5.687174149454294,1002.4969455468056,0,0
7.76,-0.26502454,6.4046226,7.4953813999999985,1002.5014,5.68748486696554,1002.497236700962,0,0
7.7799999999999985,-0.17418545,6.371255400000001,7.7273684,1002.5067,5.688103913792943,1002.4975280326512,0,0
7.8,-0.29845273,6.2759247,7.8362612999999985,1002.5319,5.689049932172682,1002.4979091924138,0,0
7.8199999999999985,-0.24585962,6.3331230000000005,7.547464,1002.5193,5.6898897611103845,1002.4983229920875,0,0
7.84,-0.2601762,6.3188224,7.3675585,1002.4864,5.69032923342546,1002.4986457027077,0,0
7.8599999999999985,-0.28406757,6.3426550000000015,7.405434599999999,1002.5218,5.690506730299853,1002.499014205282,0,0
7.88,-0.23624675,6.294989599999999,7.343889,1002.504,5.690287903443509,1002.4993577630175,0,0
7.899999999999999,-0.2649103,6.328355,7.367563,1002.499,5.689803686795956,1002.4996600426857,0,0
7.92,-0.15017979,6.37602,7.4338455,1002.49896,5.689250663717481,1002.4999246168468,0,0
7.939999999999999,-0.15972415,6.3140545,7.850475,1002.52936,5.689222971146593,1002.5002643619553,0,0
7.96,-0.14537717,6.3140545,7.930960000000002,1002.499,5.689789710537387,1002.5005600090296,0,0
7.979999999999999,-0.15970132,6.3331203,7.504865,1002.5092,5.690220319525647,1002.5008523467524,0,0
8.0,-0.26005435,6.3998513,7.1734589999999985,1002.499,5.6901043068586326,1002.5011039879156,0,0
8.02,-0.31262457,6.3045197,7.320226,1002.5092,5.689607703234106,1002.501355483691,0,0
8.04,-0.38908622,6.2711535000000005,7.594823,1002.51166,5.6891736685371175,1002.5016148016168,0,0
8.059999999999999,-0.365172,6.2663864999999985,7.7226534,1002.54456,5.688993767273046,1002.5019985376503,0,0
8.08,-0.0974801,6.480881,7.656374,1002.5091,5.689204550721692,1002.502363172074,0,0
8.1,-0.17872918,6.4284487,7.741594,1002.4989,5.689827818194343,1002.5026728956312,0,0
8.12,-0.31254846,6.252086,7.680047999999997,1002.504,5.690488646977163,1002.5029513449423,0,0
8.139999999999999,-0.14046029999999998,6.414149,7.334438,1002.499,5.690840331027053,1002.5031831579117,0,0
8.16,-0.31251037,6.333117,7.3865185,1002.53687,5.690897493940607,1002.5035092604828,0,0
8.18,-0.31251037,6.333117,7.3865185,1002.5394,5.690694212191612,1002.5039266113768,0,0
8.2,-0.4033038,6.2425513,7.6563816,1002.49426,5.690577785465143,1002.504260582826,0,0
8.219999999999999,-0.31663656,6.2520690000000005,7.7653303,1002.4787,5.690720265712787,1002.5044636619002,0,0
8.24,-0.16842338,6.352165,7.4623322,1002.55194,5.690731112178176,1002.5048140173874,0,0
8.26,-0.20186237,6.375998,7.438662,1002.53436,5.690621686904564,1002.5052299570332,0,0
8.28,-0.2687403,6.3044987,7.736933,1002.5018,5.690789990218687,1002.5055851334587,0,0
8.299999999999999,-0.26870102,6.32833,7.419731599999999,1002.5246,5.690728561759744,1002.5059674208684,0,0
8.32,-0.2591021,6.3426290000000005,7.5380955,1002.5271,5.690670675872961,1002.506381287308,0,0
8.34,-0.30684120000000004,6.2806625,7.523897,1002.5243,5.690513681759659,1002.50681148706,0,0
8.36,-0.2877023,6.337861,7.471821,1002.54456,5.690262203860137,1002.5073275062073,0,0
8.379999999999999,-0.34024084,6.3140269999999985,7.490761999999997,1002.52686,5.689929720031043,1002.5078537777035,0,0
8.4,-0.23504587,6.3378587,7.557047,1002.53687,5.689657728265197,1002.508423249598,0,0
8.42,-0.12029125,6.4045897000000025,7.656472999999999,1002.50653,5.689683334835508,1002.5089196192653,0,0
8.44,-0.20626882,6.356922,7.5807285,1002.51666,5.689790461795948,1002.509386076874,0,0
8.459999999999999,-0.3974216,6.2091584000000015,7.8458586,1002.52686,5.6902144289826975,1002.50986114494,0,0
8.48,-0.10581431,6.3378544,7.576001,1002.51404,5.690635364733508,1002.5102959589616,0,0
8.5,-0.10579465,6.3283205,7.576003,1002.5292,5.691039400851,1002.5107482151786,0,0
8.52,-0.09619573,6.390285,7.4481773,1002.5091,5.69130728962588,1002.5111418951976,0,0
8.54,0.028098822,6.480849299999999,7.391366,1002.51666,5.69148715204424,1002.5115096160392,0,0
8.559999999999999,-0.24429107,6.2901855000000015,7.765389999999999,1002.5292,5.691933787572376,1002.5118982195577,0,0
8.58,-0.20601332,6.371216,7.339297,1002.52435,5.692042435300256,1002.5122864160356,0,0
8.6,-0.21077344,6.395048,7.372439999999999,1002.52185,5.691936731350242,1002.5126638553462,0,0
8.62,-0.10075938,6.380747,7.5523543,1002.5015,5.691903087699552,1002.5129571708417,0,0
8.639999999999999,-0.19153634,6.3569125999999985,7.405591499999999,1002.4989,5.691671717436233,1002.5131657385983,0,0
8.66,-0.21061622,6.347379,7.557096,1002.5091,5.691494447592308,1002.5133353924092,0,0
8.68,-0.19145773,6.437943,7.2304254,1002.50653,5.690974419426406,1002.513460799104,0,0
8.7,-0.03370454,6.547573000000001,7.310911999999999,1002.5317,5.690426138614148,1002.5136372695823,0,0
8.719999999999999,-0.12583002,6.3664755999999985,7.6753415999999985,1002.51917,5.690184424802388,1002.5138131167267,0,0
8.74,-0.15452977,6.342643700000001,7.547511,1002.4864,5.689979631777312,1002.5138698080432,0,0
8.76,-0.21190137,6.4189086,7.2634454,1002.50653,5.689466705046978,1002.5138934771816,0,0
8.78,-0.20713553,6.4236755,7.358132,1002.51154,5.688837511100696,1002.5139059187145,0,0
8.799999999999997,-0.21192928,6.3426447,7.509632000000001,1002.52924,5.68823721130198,1002.5139721147452,0,0
8.82,-0.18804418,6.409376,7.4386144,1002.49896,5.687641317148883,1002.5139765619452,0,0
8.84,-0.15459254,6.399844,7.4764886,1002.50903,5.6870970539813746,1002.5139626838679,0,0
8.86,-0.22630355,6.385545,7.4670186,1002.4962,5.68656898699201,1002.5138864755372,0,0
8.879999999999997,-0.22154471,6.3855453,7.457548599999999,1002.5244,5.686041955770463,1002.513856986544,0,0
8.9,-0.18809304,6.433210400000001,7.495423,1002.5194,5.685640508962545,1002.513850884918,0,0
8.92,-0.14987549,6.3998456,7.433873700000001,1002.4962,5.6852079140267495,1002.5137819503357,0,0
8.94,-0.17378852,6.4332113,7.462279,1002.5295,5.6848401530702235,1002.5137776247174,0,0
8.959999999999997,-0.31241679999999994,6.3140480000000005,7.5759034,1002.5291,5.684558099903978,1002.5138289631523,0,0
8.98,-0.23117405,6.3378809999999985,7.523823299999999,1002.499,5.684296999127524,1002.5138209415258,0,0
9.0,-0.20728199,6.2949824,7.646917299999999,1002.53436,5.684193763225874,1002.5138877942273,0,0
9.02,-0.11169988,6.437979,7.4528050000000015,1002.5267,5.684110372263431,1002.5139929892148,0,0
9.04,-0.13084002,6.4093800000000005,7.528554,1002.52924,5.684126117617812,1002.514140828745,0,0
9.06,-0.19298446,6.3950809999999985,7.4385996,1002.51654,5.684070158653897,1002.5142800967703,0,0
9.08,-0.35073888,6.294984,7.6232395,1002.5266,5.684119452868275,1002.514447505649,0,0
9.1,-0.2647164,6.356949299999999,7.5616913,1002.51166,5.684240175199058,1002.514585393114,0,0
9.12,-0.15000804,6.409381400000001,7.5380187,1002.5268,5.684451356598978,1002.5147512030627,0,0
9.14,-0.24083826,6.409382,7.5758924,1002.52936,5.684805452383058,1002.5149503044023,0,0
9.16,-0.28864327,6.2997513,7.5616884,1002.5216,5.685118149220165,1002.5151501692503,0,0
9.18,-0.21219432,6.3521843,7.419653999999999,1002.51404,5.685233909666348,1002.5153227732206,0,0
9.2,-0.21219432,6.3521843,7.419653999999999,1002.5242,5.685175240379902,1002.5155072441053,0,0
9.22,-0.35887820000000004,6.3092484,7.452930499999999,1002.51166,5.68496638366034,1002.5156563925,0,0
9.24,-0.15330094,6.4522443,7.642311,1002.5042,5.685106790044968,1002.5157469370083,0,0
9.26,-0.17717715,6.3473797,7.5949693,1002.5014,5.68534062126954,1002.5157752931633,0,0
9.28,-0.15798941,6.4331755999999976,7.71807,1002.5115,5.685966143278848,1002.515784957606,0,0
9.3,-0.10056329,6.4236407,7.424542999999999,1002.4864,5.686456128283608,1002.5156877112604,0,0
9.32,-0.27737033,6.304476,7.538173,1002.49896,5.686851064464633,1002.5155415646286,0,0
9.34,-0.27737033,6.304476,7.538173,1002.4989,5.68716059373475,1002.5153525198323,0,0
9.36,-0.22948101,6.32354,7.628135,1002.51416,5.687559978211333,1002.5151811867787,0,0
9.38,-0.21989857,6.318773,7.580792999999999,1002.51416,5.687954886659287,1002.5150261206204,0,0
9.4,-0.16249526,6.4141026,7.3724833,1002.48627,5.688140956640228,1002.5147855821284,0,0
9.42,-0.22934404,6.299704,7.590273,1002.49146,5.688335542433215,1002.5144890702212,0,0
9.44,-0.23885792,6.4522324,7.20679,1002.51917,5.68814078793836,1002.5142439236473,0,0
9.46,-0.31531197,6.375967,7.34409,1002.5041,5.6877164376895895,1002.5139907940096,0,0
9.48,-0.3869862,6.337834,7.585546000000001,1002.50903,5.687426546853001,1002.5137492698033,0,0
9.5,-0.24832627,6.323533,7.850677,1002.4912,5.687654329165097,1002.5134546816432,0,0
9.52,-0.19092292,6.3902636,7.613961,1002.50653,5.6880442011818575,1002.513169454691,0,0
9.54,-0.10003818,6.4474607000000015,7.495607400000001,1002.5015,5.688462645204724,1002.5128754181192,0,0
9.56,-0.16690977,6.380728,7.4482675,1002.4989,5.6887417265536175,1002.5125652958992,0,0
9.58,-0.21468496,6.3568945,7.4198637,1002.5394,5.688821550185107,1002.5123878768402,0,0
9.6,-0.28631353,6.361659,7.448276,1002.52936,5.688780128350817,1002.512292209003,0,0
9.62,-0.3053871,6.3473587,7.566640400000002,1002.51184,5.68880141427616,1002.5122060489498,0,0
9.64,-0.2623232,6.318758,7.5666447,1002.5191,5.688837327263987,1002.5121547361508,0,0
9.66,-0.33875436,6.380722,7.509836,1002.5241,5.688883545771924,1002.5121523991112,0,0
9.68,-0.40562594,6.2663236,7.7134194,1002.5241,5.689117326775444,1002.512193345466,0,0
9.7,-0.14841245,6.4379425,7.3961320000000015,1002.5065,5.689225973021332,1002.5122090296214,0,0
9.72,-0.1962067,6.352144,7.367726299999997,1002.5191,5.6890640479958785,1002.5122476956348,0,0
9.74,-0.24399331,6.2758784000000025,7.703869999999997,1002.50903,5.689099426513902,1002.5122702772197,0,0
9.76,-0.31568658,6.237746,7.424539999999999,1002.5141,5.6888155990313045,1002.5122968173104,0,0
9.78,-0.06234935,6.447474,7.4292755,1002.52167,5.688531038606845,1002.5123540115919,0,0
9.8,-0.25830990000000004,6.34261,7.590246,1002.50903,5.688366865135357,1002.5123925820177,0,0
9.82,-0.18182921,6.3950415000000005,7.6517944,1002.4914,5.688474135748844,1002.5123510895503,0,0
9.84,-0.27742147,6.3235435,7.6944035999999985,1002.51654,5.688798812704303,1002.5123295068837,0,0
9.86,-0.30609277,6.2901773,7.580779,1002.547,5.6890900145237016,1002.5124352502147,0,0
9.88,-0.12923236,6.399808,7.4860916,1002.5244,5.689338731192846,1002.5125717581217,0,0
9.9,-0.22004102,6.3616753,7.528702,1002.5065,5.6895685091974775,1002.5126705181784,0,0
9.92,-0.23914883,6.3712077,7.4908275999999985,1002.51917,5.689734429924292,1002.5127811806993,0,0
9.94,-0.22480181,6.3092427,7.623391000000002,1002.4912,5.689970890576299,1002.5128012698525,0,0
9.96,-0.100519285,6.4188730000000005,7.40561,1002.5216,5.6900664500835205,1002.5128506960564,0,0
9.98,-0.12919049,6.39504,7.3961415,1002.51917,5.689990566820706,1002.5129171185448,0,0
10.0,-0.18654056,6.3378415,7.547643700000001,1002.5444,5.6899279425839016,1002.5130891478284,0,0
10.02,-0.20565218,6.337841,7.391408,1002.5166,5.689630498401152,1002.5132537919716,0,0
10.04,-0.19130512,6.442705,7.599723299999999,1002.5141,5.689596830291551,1002.5134023178847,0,0
10.06,-0.13393986,6.3473739999999985,7.5571136,1002.5242,5.689598959440388,1002.5135724270378,0,0
10.08,-0.19128612,6.4427047,7.434021,1002.4964,5.689568661384543,1002.5136609147479,0,0
10.1,-0.18171886,6.414105,7.4766309999999985,1002.52936,5.689537692558582,1002.5137956191955,0,0
10.12,-0.18171124,6.3426065000000005,7.4150839999999985,1002.51917,5.689312445839505,1002.5139339918164,0,0
10.14,-0.26296034,6.328307,7.476632,1002.52405,5.688998333585088,1002.5140926754933,0,0
10.16,-0.26296034,6.328307,7.476632,1002.51404,5.688606830547763,1002.5142326987587,0,0
10.18,-0.2438335,6.261575,7.5287112999999986,1002.4839,5.688141101647857,1002.5142472256005,0,0
10.2,-0.14345002,6.3998050000000015,7.363008,1002.5242,5.687531065161313,1002.5142958915056,0,0
10.22,-0.1397003,6.4284295999999985,7.5570245,1002.5141,5.6871401227051175,1002.5143381874899,0,0
10.24,-0.24487248,6.314032599999999,7.594898,1002.48615,5.686855654771898,1002.5142740827467,0,0
10.26,-0.21622667,6.3473997,7.656442,1002.50385,5.686807588011629,1002.5141799130977,0,0
10.28,-0.07766188,6.3807664000000015,7.5901565999999985,1002.4964,5.686903008562478,1002.5140326971087,0,0
10.3,-0.1302562,6.4331985000000005,7.5002007,1002.5065,5.687054043066037,1002.5138754993512,0,0
10.32,-0.31671804,6.123374,7.6185565,1002.5292,5.687040390642427,1002.5137917676152,0,0
10.34,-0.27849615,6.2330055,7.6564302,1002.51154,5.687083279337704,1002.5137096758896,0,0
10.36,0.3667279000000001,6.7048955,7.4007679999999985,1002.4988,5.687417885265673,1002.513583464808,0,0
10.38,-0.18298256,6.25684,7.6895633,1002.50146,5.687847165750876,1002.5134283002226,0,0
10.4,-0.4076664,6.1662765,7.812655,1002.5091,5.688454321968751,1002.5132756149144,0,0
10.42,-0.38856363,6.2330084,7.6280117,1002.51917,5.689002657385704,1002.513161921962,0,0
10.44,-0.34081513,6.2902083,7.6564136,1002.5216,5.689614311743621,1002.5130918399506,0,0
10.46,-0.26913458,6.3569403,7.599599400000002,1002.5115,5.6902727402557725,1002.5130241848613,0,0
10.48,-0.22613288,6.418906,7.3202677,1002.51904,5.690610790279727,1002.5129860617592,0,0
10.5,-0.30743903,6.247311,7.9546733,1002.50146,5.691455863373497,1002.5129108823636,0,0
10.52,-0.36959302,6.237778,7.7463584,1002.4913,5.692399241466704,1002.5127666546726,0,0
10.54,-0.13063581,6.328344,7.438619,1002.49646,5.6930409021920525,1002.5125805111287,0,0
10.56,-0.18805946,6.213948,7.878912400000001,1002.49146,5.693972824620774,1002.5123400008533,0,0
10.58,-0.18805946,6.213948,7.878912400000001,1002.5066,5.695157867369852,1002.5121068219704,0,0
10.6,-0.26458585,6.304514,7.414936,1002.51904,5.695939204207866,1002.5119257445506,0,0
10.62,0.103426054,6.447511,7.850498700000001,1002.50635,5.697239925776223,1002.5117456718621,0,0
10.64,-0.39372304,6.2997494000000005,7.372319,1002.49646,5.6980512775383625,1002.5115315312157,0,0
10.66,-0.18820798,6.3188157,7.429130000000002,1002.50635,5.698530036305829,1002.5113236630284,0,0
10.68,-0.05440649400000002,6.452281,7.235017,1002.476,5.698587681003952,1002.5110128255108,0,0
10.7,-0.45116323,6.2616185999999985,7.5001407,1002.49896,5.698452655751209,1002.5106947793088,0,0
10.72,-0.40676212,6.252052,7.3061566,1002.50385,5.6978233390493545,1002.5103891124788,0,0
10.74,-0.2776732,6.371215,7.5807547999999985,1002.49365,5.697345235844115,1002.5100587644632,0,0
10.76,-0.42582428,6.1662526,7.6517735,1002.5193,5.6968567951116516,1002.5098001374043,0,0
10.78,-0.32063437,6.3521476,7.348774400000001,1002.47614,5.696116884451525,1002.5094504380406,0,0
10.8,-0.32063437,6.3521476,7.348774400000001,1002.51904,5.695157438641696,1002.509175966106,0,0
10.82,-0.14853859,6.3902793,7.433996,1002.5012,5.694184719944607,1002.5089047292264,0,0
10.84,-0.19152257,6.4570102999999985,8.148894,1002.509,5.694439570182937,1002.5086654072943,0,0
10.86,-0.53086585,6.5714073000000015,6.567605,1002.51917,5.69350659748448,1002.508491758969,0,0
10.88,-0.0480828,6.42841,8.13943,1002.47363,5.693743266355227,1002.5082128209764,0,0
10.9,-0.47347397,6.3187785000000005,7.254097,1002.4736,5.693474392485256,1002.5078417452106,0,0
10.92,-0.06715637,6.375977,8.395091,1002.49896,5.694651579452704,1002.5074818883812,0,0
10.94,-0.5212149,6.361676,6.695442699999999,1002.5013,5.6944177756836485,1002.5071416640884,0,0
10.96,-0.5642103,6.5189724,6.6481004,1002.4432,5.69309927682264,1002.5066108519127,0,0
10.98,0.1766821,6.8812304000000015,7.2730436,1002.5216,5.692252751705822,1002.5061957872074,0,0
11.0,0.38222516,6.733466,8.272003999999999,1002.4938,5.693195947495655,1002.5057844111998,0,0
11.02,-0.14829884,6.333075,7.315658,1002.50146,5.693647584311818,1002.5054053514792,0,0
11.04,0.052475736,6.490371,7.585520699999999,1002.5141,5.694299576379218,1002.5051017150447,0,0
11.06,-0.05744835,6.36644,7.462427000000001,1002.5268,5.694764477997166,1002.504911535717,0,0
11.08,0.019062743,6.32354,7.2115073,1002.4812,5.694609290676062,1002.5046581317343,0,0
11.1,-0.014384463,6.2854075,7.353540400000001,1002.5292,5.694078050244379,1002.5045225747012,0,0
11.12,0.24374779,6.290173,8.167859,1002.5065,5.694543283094572,1002.5044099152376,0,0
11.14,0.11471592,6.3426046,7.173637400000001,1002.51154,5.694357684643145,1002.5043360376407,1,1
11.16,0.24379344,6.442702,7.3298745,1002.51654,5.6939837529833435,1002.5043146936607,1,1
11.18,0.36331135,6.423635,7.519253,1002.51404,5.693723815557037,1002.5043308452227,1,1
11.2,0.42546022,6.437935,7.8080525,1002.5065,5.694049159269231,1002.5043529257003,1,1
11.22,0.45423752,6.294935700000001,7.3772306,1002.52167,5.694016912736517,1002.5044347774775,1,1
11.24,0.6741339,6.1138059999999985,7.618687599999999,1002.51404,5.693841634868439,1002.5045416805092,1,1
11.26,1.0613233,6.1471705000000005,7.8601446,1002.50903,5.694045742664054,1002.504652297978,1,1
11.28,1.2381886999999998,6.113805,7.9027553,1002.53436,5.694653538754009,1002.5048569873007,1,1
11.3,1.5011032,6.13287,7.6234274000000015,1002.5166,5.695263664095777,1002.505080125632,1,1
11.32,1.6445227999999998,6.2329674000000015,7.651836999999999,1002.51404,5.696095334933653,1002.5053095462092,1,1
11.34,1.6684598000000002,6.190068,7.3961825,1002.53174,5.696668154700108,1002.505607411865,1,1
11.36,1.4055833,6.080436,7.471934,1002.5596,5.696900851168048,1002.5060649792757,1,1
11.38,1.1474992,5.7992089999999985,8.049534,1002.53937,5.6973554589779924,1002.5065891839142,1,1
11.4,0.55006176,5.5751795999999985,7.9927244,1002.51654,5.69753364650537,1002.5070881940708,1,1
11.42,0.35411513,5.6228447,7.64238,1002.53186,5.696914162742624,1002.5076182979464,1,1
11.44,0.08647153,5.389282700000001,8.54192,1002.5166,5.696850994011988,1002.5081190318583,1,1
11.46,-0.10470797,5.6180773,8.878064,1002.4963,5.698124580284562,1002.5085189318283,1,1
11.48,0.1582193,6.3282933,7.7986226,1002.509,5.699613656259309,1002.5088740152873,1,1
11.5,0.09609449,6.1233306,8.1205635,1002.4964,5.701550690598768,1002.5091428605763,1,1
11.52,-0.08551268,5.7372394,8.395161,1002.50146,5.703871866292594,1002.509352753976,1,1
11.54,-0.58735406,5.8611684,7.04586,1002.51654,5.704477115480122,1002.5095640898693,1,1
11.56,-0.56822217,6.0851965,6.7807336,1002.4887,5.703449178276857,1002.5096757155412,1,1
11.58,-0.5968756,6.309224,7.1358166,1002.5065,5.7018447096609375,1002.5097629154088,1,1
11.6,-1.1847534,5.6371384,8.044825999999999,1002.509,5.700465594099766,1002.5098372187166,1,1
11.62,-0.6828613,5.923132,8.002217,1002.5266,5.699466796268505,1002.5099632191319,1,1
11.64,0.2970364,6.27109,8.523005,1002.55206,5.700068080484372,1002.51022610151,1,1
11.66,-0.32432538,5.970796599999999,8.906493,1002.5596,5.702376010077548,1002.5106361304137,1,1
11.68,0.07721616,6.123325,9.100608,1002.55194,5.7066856823340295,1002.5111471258837,1,1
11.7,0.31621903,6.1376247,9.720815,1002.55206,5.713853267602586,1002.5117459278276,1,1
11.72,-0.9221743,5.7372440000000005,9.602416,1002.50397,5.722944819292447,1002.512247035885,1,1
11.74,0.33492553,4.8554306,9.171587,1002.5369,5.73195604319336,1002.5127785656357,1,1
11.76,0.55480033,4.8792634,9.081634,1002.5091,5.7407419654426155,1002.5132349824868,1,1
11.78,1.1475073999999998,5.570414,5.9427247,1002.4963,5.744935347039704,1002.5135773064792,1,1
11.8,0.80336916,5.689578,7.5334845,1002.53424,5.747651662195697,1002.513954169656,1,1
11.82,0.6074010999999999,5.9040728,7.57136,1002.51654,5.749355922244039,1002.5142964749484,1,1
11.84,0.7077806999999999,6.2186656,6.633949,1002.5392,5.7491205591000725,1002.5146885885944,1,1
11.86,0.64565086,6.2043653,7.410392,1002.53156,5.748348410028176,1002.5150957972934,1,1
11.88,-0.26250046,6.0566015,7.756004300000002,1002.5216,5.747432728555819,1002.5154790220296,1,1
11.9,-0.34374952,6.4522260000000005,6.586607000000001,1002.4989,5.7451102985955025,1002.5157579549268,1,1
11.92,-0.49669945,6.375961,6.955891,1002.53156,5.742015224935867,1002.5160613073973,1,1
11.94,-0.70222336,6.061368,7.8648973,1002.53687,5.7392989771484295,1002.5164042609337,1,1
11.96,-0.7165552,5.7753744000000005,8.518247,1002.5292,5.737679742013914,1002.5167533593393,1,1
11.98,-0.5779331999999999,6.161465,8.447230000000001,1002.50885,5.73735804604393,1002.5170333705963,1,1
12.0,-0.4536469,6.4474583,9.3846445,1002.51917,5.740103464240747,1002.5172884804092,1,1
12.02,-0.90772444,6.261563,9.663974,1002.49896,5.7458730594659615,1002.5174479129103,1,1
12.04,-0.9124966999999998,6.8907475000000025,7.5997744,1002.50885,5.751692224451388,1002.517557834982,1,1
12.06,-1.0367601999999998,5.446481,9.43199,1002.54425,5.758868006373241,1002.5177510539183,1,1
12.08,-1.5481954,4.788696,9.488803,1002.50385,5.766801044022567,1002.5178717383764,1,1
12.1,-1.2422803999999998,5.8325714999999985,7.4293375,1002.52655,5.7728509784881945,1002.5180096169054,1,1
12.12,-1.3904466999999998,6.3139935,7.434073,1002.53674,5.777891792464689,1002.5181988757527,1,1
12.14,-0.7499452,6.0375333,7.694466,1002.55206,5.7819333392799095,1002.5184880049176,1,1
12.16,0.21558656,5.346382,8.674489,1002.53674,5.785873181908817,1002.5188091866298,1,1
12.18,0.17735572,4.960291000000002,8.23419,1002.5193,5.788508561706193,1002.519094749719,1,1
12.2,0.32553345,5.098521,8.059016999999999,1002.5066,5.789831104996018,1002.5193020921657,1,1
12.22,0.44357067,5.2844524,6.4302483,1002.4836,5.787480042598308,1002.5193567724195,1,1
12.24,0.3335858,5.0318265,7.992597,1002.52924,5.784210234627607,1002.5194406675113,1,1
12.26,0.46739554,5.1223917000000005,8.238783999999999,1002.5193,5.780685169532009,1002.5195142908113,1,1
12.28,0.75888944,6.814521000000001,7.074114,1002.4913,5.777236403767989,1002.5194777729124,1,1
12.3,0.31909806,7.186313,7.1782664999999986,1002.5344,5.774512976063899,1002.519499225714,1,1
12.32,0.080058426,6.2520695,8.598583,1002.55963,5.773415624752985,1002.5196626521972,1,1
12.34,-0.20197472,5.6753173,9.313476,1002.5369,5.7743341700560045,1002.5198691102901,1,1
12.36,-0.61789185,5.270161,8.475479,1002.50885,5.775141777783166,1002.5200118678637,1,1
12.38,-0.0013465881,5.527557,8.660117,1002.53436,5.776418617328828,1002.5201896617313,1,1
12.4,-0.34554186,5.599056,7.438636,1002.49896,5.7761162606765,1002.5202703336107,1,1
12.42,-0.4937405,5.737287,6.8468328,1002.49396,5.773649972656795,1002.5202468980824,1,1
12.44,-0.80928177,5.7039230000000005,7.0788116,1002.5394,5.7696554059102825,1002.5202951416161,1,1
12.46,-0.39826804,5.556161,7.888391,1002.51666,5.7654265948417365,1002.5203246830928,1,1
12.48,-0.030247867,5.8040223,7.992545599999999,1002.51166,5.761464834287598,1002.5203195930824,1,1
12.5,0.08444272,5.8993535,8.068294999999999,1002.53687,5.757997880056754,1002.5203746770143,1,1
12.52,-0.07814477,5.4179335,8.707431,1002.5242,5.755521767414737,1002.5204371203392,1,1
12.54,0.07000445,5.241572,8.3902235,1002.53436,5.753176565243208,1002.520542417628,1,1
12.56,0.38539732,4.8697815,10.2981825,1002.5344,5.754083340372622,1002.5206853456086,1,1
12.58,-0.040029928,4.884082299999998,9.914693,1002.4686,5.757141985566281,1002.5206241295282,1,1
12.6,1.0353516,6.3855495000000015,7.2113414,1002.52924,5.759254304044802,1002.5206010561333,1,1
12.62,-0.6519684,4.869785299999998,9.176115,1002.5367,5.762021502105558,1002.5206386246792,1,1
12.64,-1.4454653,5.422707599999999,8.025649000000001,1002.5342,5.7640780415442885,1002.520720641198,1,1
12.66,-1.0153078000000002,5.885064,8.626917,1002.5268,5.766952371295407,1002.5208149966852,1,1
12.68,-0.7572477,5.308312,9.242385,1002.5115,5.7709398504534075,1002.520864835206,1,1
12.7,0.38505125,5.284481,8.996189,1002.5497,5.77538811270376,1002.5210126791161,1,1
12.72,0.27984613,4.5075336,9.521703,1002.51666,5.780430964184277,1002.52112764435,1,1
12.74,0.8390337999999999,4.674364,8.375974000000001,1002.48645,5.7840900166962825,1002.5211043881112,1,1
12.76,1.3791021,5.112889,7.012460000000001,1002.4813,5.784764670146723,1002.5209405431017,1,1
12.78,0.7194398,5.146256,6.2786230000000005,1002.47864,5.78147511730346,1002.5206434876956,1,1
12.8,0.3895839,5.4084177,6.6810427,1002.5344,5.775639476966938,1002.5204305329834,1,1
12.82,0.14100935,5.5275826,7.059792999999999,1002.4963,5.768329248118692,1002.5201554962808,1,1
12.84,-0.09325044,6.137703,6.3164873,1002.5344,5.75941070336897,1002.5199637540636,1,1
12.86,0.021440104,6.271167,6.676299,1002.5595,5.749834575146681,1002.5199366611264,1,1
12.88,-0.15070698,6.1091056,10.047188,1002.5623,5.745115721713287,1002.5200652298264,1,1
12.9,0.10732825,5.789748,9.838868,1002.51654,5.74399243514204,1002.5201661423024,1,1
12.92,1.1636153,6.428468,8.7688875,1002.51166,5.745049341613113,1002.5202246864543,1,1
12.94,0.5469713,5.8278832000000005,8.532164,1002.50385,5.7468069639162564,1002.5202174671956,1,1
12.96,0.26013368,5.3988943,8.499019,1002.514,5.748606152010149,1002.5201887053764,1,1
12.98,0.60423017,4.9556055,9.247049,1002.51904,5.751342683124441,1002.5201591560941,1,1
13.0,0.7045813,4.8269095,9.919333,1002.4762,5.756030943559144,1002.5199747933858,1,1
13.02,0.6376145999999999,4.8793426,7.594735000000001,1002.4558,5.758260936342776,1002.5195808612407,1,1
13.04,0.7379163000000001,5.961353,5.767248,1002.4989,5.756809521011959,1002.519158331697,1,1
13.06,0.8095886,6.0805173,5.563667,1002.5444,5.752015219381815,1002.5188758545979,1,1
13.08,0.6565854999999999,5.7373265999999985,7.575784700000002,1002.55194,5.746870687083407,1002.5187452887566,1,1
13.1,-0.05262781,5.3940616,8.949035,1002.53186,5.743354310955852,1002.5186771337396,1,1
13.12,0.65958214,5.8182845,9.266241,1002.5241,5.742353857326129,1002.5186364342853,1,1
13.14,1.0132972,5.8850155,9.507696,1002.53674,5.7441332758955825,1002.5186656450841,1,1
13.16,0.9464087,6.109043,8.641302,1002.5091,5.747110100570962,1002.5186570194234,1,1
13.18,0.7026483,6.294939,8.504006,1002.4839,5.751090167396089,1002.5185242725197,1,1
13.2,0.8126028000000001,6.742995,7.590267999999999,1002.5014,5.755072792337423,1002.5183453299744,1,1
13.22,0.34420127,6.5475655,6.7854214000000015,1002.5367,5.757485157388233,1002.5182532931536,1,1
13.24,-0.23412631,5.632386,8.991655999999997,1002.4913,5.760947767603168,1002.5180749375636,1,1
13.26,-0.5639232,5.7992153,7.902744,1002.48865,5.763675215918071,1002.5178114127887,1,1
13.28,0.41596532,6.8097243,6.349862,1002.5115,5.764707629455723,1002.5175558412117,1,1
13.3,0.559369,6.323535400000001,6.804365,1002.57214,5.764208828063487,1002.517526521138,1,1
13.32,1.3146067,5.4941535,9.952747,1002.5317,5.7668033830438015,1002.5175516384446,1,1
13.34,1.4245614,5.5370526,8.617647,1002.4813,5.769830400898143,1002.5174433261984,1,1
13.36,1.4341304,5.5656514,8.082661,1002.5091,5.772347429699592,1002.5173175855232,1,1
13.38,1.400691,5.689581,6.3972135,1002.48627,5.771821912038129,1002.5170947097548,1,1
13.4,1.2047477,5.4417195,6.8611884000000005,1002.5292,5.768951899386157,1002.5169413557708,1,1
13.42,1.2095467,5.722946,7.1405195999999975,1002.504,5.764832963799769,1002.5167592633096,1,1
13.44,1.7257943,5.746778,8.016387,1002.52155,5.7612523379717295,1002.5166156130628,1,1
13.46,1.7257943,5.746778,8.016387,1002.55975,5.758160252899146,1002.516643967498,1,1
13.48,1.3434387,6.623824000000001,7.935904499999999,1002.4686,5.756364454778093,1002.5164960631938,1,1
13.5,1.0566599,6.9860826000000005,6.8280554,1002.5015,5.754477092573457,1002.5163113891232,1,1
13.52,1.4295038999999998,7.963226,6.936947999999999,1002.58734,5.7542440501415015,1002.5164039141133,1,1
13.54,1.0519282,5.2224545,12.073779,1002.5673,5.760751982935322,1002.5166688951041,1,1
13.56,0.66477364,5.217688,11.04168,1002.48645,5.771184281620432,1002.5167942442848,1,1
13.58,1.1332135,5.427416,8.409353,1002.48627,5.780561602781919,1002.516795115542,1,1
13.6,0.6640535,4.6743183,7.651781,1002.471,5.786725043029492,1002.5166310229685,1,1
13.62,-0.08160732,4.9078794000000014,6.73804,1002.4711,5.788665675604547,1002.5163221190879,1,1
13.64,-0.15808989999999998,5.1795735,6.7948520000000014,1002.509,5.787302396263938,1002.5160228119904,1,1
13.66,-0.6169625,5.308271,7.093118,1002.5266,5.783722155699168,1002.5157964221156,1,1
13.68,-0.50703835,5.494167,7.736996,1002.51154,5.779488548122942,1002.5155810609027,1,1
13.7,0.4489053,6.2854160000000014,6.998428,1002.50385,5.7745151111284425,1002.515348535916,1,1
13.72,0.5731745,6.4427123,7.0457716,1002.51917,5.7692118012020766,1002.5151568341084,1,1
13.74,-0.3302256,6.3759812999999985,6.6859546000000005,1002.4889,5.762971348160964,1002.514892921788,1,1
13.76,-0.22029583,6.633375,6.884799,1002.54175,5.756586874735018,1002.5147564143435,1,1
13.78,-0.09602664,6.962268400000001,7.680178999999999,1002.51416,5.7517685306654345,1002.514633649274,1,1
13.8,0.9889659,8.273071,6.392419,1002.5292,5.748631957167827,1002.5145776129212,1,1
13.82,0.9889659,8.273071,6.392419,1002.57983,5.746992687812213,1002.5147630077932,1,1
13.84,-0.17732328,4.907882,11.657075,1002.4737,5.751146243502253,1002.5147789958742,1,1
13.86,-0.09607231,5.689598,8.324053999999999,1002.4636,5.755069706386322,1002.5146088785573,1,1
13.88,1.8779694,6.328317,6.941606,1002.52435,5.7577281322898965,1002.5144936309332,1,1
13.9,1.8540648,5.6943655,8.077863,1002.5571,5.760249482113196,1002.5145451810614,1,1
13.92,1.3234951,4.8506846,9.147837,1002.499,5.7634366048680965,1002.5145347681027,1,1
13.94,1.1800839,5.8945613,6.3071923,1002.4914,5.763614333971644,1002.5144422820473,1,1
13.96,1.4238483,6.204388,5.734329,1002.5115,5.760829850747254,1002.5143499691534,1,1
13.98,1.3664733999999998,5.756332,7.8174652999999985,1002.52936,5.758007402512377,1002.5143224375912,1,1
14.0,1.0127621999999998,5.584736,7.2919464,1002.51416,5.753990747286652,1002.5142975259278,1,1
14.02,0.07112381,5.0699487,7.452914,1002.49896,5.748462876625596,1002.5142202988884,1,1
14.04,0.037659466,5.3130426,6.6101894,1002.51416,5.740511053766926,1002.5141518440004,1,1
14.06,0.08544038,5.365475,7.1073008,1002.57465,5.731328882747523,1002.514309150623,1,1
14.08,-0.06273927,5.4703393,8.565497,1002.55444,5.723707125002048,1002.5145926178124,1,1
14.1,0.037625223,6.1900900000000005,10.714915,1002.5723,5.7220870912521455,1002.5150508359967,1,1
14.12,-0.8128999,5.3035035000000015,10.28411,1002.51666,5.724165445552227,1002.5154615105753,1,1
14.14,0.25777614,5.341636,9.607091,1002.5749,5.728248100550414,1002.5160383611943,1,1
14.16,1.4097087,4.974611,11.458243,1002.4988,5.737361787696321,1002.5164860083013,1,1
14.18,0.9604073,4.936478,8.882727000000003,1002.4633,5.745976129331857,1002.516690079655,1,1
14.2,1.2615348999999998,5.212939,7.5002804,1002.49146,5.752067011259742,1002.5167795688163,1,1
14.22,1.6391394,5.236772,7.0363089999999975,1002.504,5.755287612464088,1002.5168126349917,1,1
14.24,1.5100847,5.131907,7.6943913,1002.5063,5.756892094958768,1002.516804006778,1,1
14.26,0.6927383,5.131907,8.456631,1002.5468,5.758195432652612,1002.5169043684642,1,1
14.28,-0.095929325,4.8983464,8.925336,1002.5342,5.759779580151753,1002.5170553123236,1,1
14.3,-0.58824915,4.9841440000000015,8.773835,1002.48865,5.761452823812282,1002.5170864271936,1,1
14.32,-0.100709125,5.7515597000000005,6.2882724,1002.5091,5.7599037486274645,1002.5170851691548,1,1
14.34,-0.19630522,6.061386,6.922683,1002.51154,5.7569282291800805,1002.5170640949423,1,1
14.36,-0.93239504,5.942222,8.958477,1002.5493,5.756001634421711,1002.5171615230266,1,1
14.38,-1.2239631000000002,5.8325910000000025,8.934805,1002.5444,5.756783993487253,1002.517345668999,1,1
14.4,-0.6695058,6.232982,7.874298599999999,1002.5141,5.757670434471079,1002.5174966959717,1,1
14.42,-0.64560676,6.428411,7.045778,1002.51917,5.757595152085742,1002.5176361672992,1,1
14.44,-1.5298705,5.4179005999999985,8.769101,1002.5493,5.7584603376144425,1002.5178733939624,1,1
14.46,-1.6254667,5.2987366,8.0258,1002.4912,5.758766782416557,1002.5179869832233,1,1
14.48,-1.2478621,6.309247,7.7085943,1002.50635,5.759172148960235,1002.5180454575548,1,1
14.5,-1.4629533,6.385512,7.467139200000001,1002.5216,5.759443571469184,1002.5181099218267,1,1
14.52,-1.3099996,6.356912,7.2919664000000015,1002.5268,5.7592396119532365,1002.518198166739,1,1
14.54,-1.0757892,6.0137205,8.361941999999999,1002.5065,5.759850421104606,1002.5182340265433,1,1
14.56,-0.88459694,5.3130364000000005,9.166791,1002.4913,5.761753014271302,1002.5181687497708,1,1
14.58,-0.8272394000000001,5.6085629999999975,7.391389,1002.4736,5.7620531126051295,1002.5179506237153,1,1
14.6,-0.7888109999999999,5.6800566,7.187827,1002.4912,5.760686573987662,1002.5176615852873,1,1
14.62,-0.45422095,6.042315,7.632861599999999,1002.552,5.758996450728443,1002.5175298092253,1,1
14.64,-0.16742513,5.7896876,9.0389805,1002.5216,5.759084058210548,1002.5174280245836,1,1
14.66,-0.2295512,5.823053,8.949028,1002.5091,5.760625107749225,1002.5173081067858,1,1
14.68,-0.12439166,6.161478,7.5476446,1002.52405,5.7615011257338375,1002.5172264182353,1,1
14.7,0.29623866,5.9374504,8.267275,1002.5292,5.762698271956828,1002.5171973431262,1,1
14.72,-1.6491302,4.626647,7.6754746,1002.4862,5.76195041734817,1002.5170600619248,1,1
14.74,-0.88913375,5.8325853,7.287253999999999,1002.5268,5.760034718713943,1002.516973824032,1,1
14.76,-1.0038414,5.1271353,9.143142,1002.5216,5.759493197492097,1002.5169142784636,1,1
14.78,-1.0372962,5.2129330000000005,8.802265,1002.4938,5.7596523811843,1002.5167784525968,1,1
14.8,-1.0420722,5.1176014,8.309888,1002.50397,5.759457934074542,1002.5166123264315,1,1
14.82,-0.6692359999999999,4.221489,9.095799,1002.50635,5.759440595028536,1002.5164285929767,1,1
14.84,-0.16734907,4.5122485,8.963237,1002.509,5.759551417590648,1002.5162395031616,1,1
14.86,-0.24859808,4.4264503,8.219936,1002.5191,5.758326335470157,1002.5160827211893,1,1
14.88,0.10511501,4.4312167,9.162084,1002.53174,5.757668334362986,1002.5160005548423,1,1
14.9,-0.0048090965,5.1080675000000015,8.660237,1002.49896,5.757257112544633,1002.5158666066608,1,1
14.92,0.4301569000000001,4.969837,8.825942,1002.5369,5.757239327267658,1002.5158239702637,1,1
14.94,0.6070173000000001,5.0079694,8.878022,1002.54443,5.757721018979797,1002.51588927845,1,1
14.96,0.22942413,4.459815,10.288875,1002.53937,5.760731316312379,1002.5160315153612,1,1
14.98,0.22942413,4.459815,10.288875,1002.5191,5.765965052500781,1002.51616824244,1,1
15.0,0.16251828,4.4502816,9.768091,1002.57983,5.772145043938012,1002.5165182368147,1,1
15.02,0.7695648,4.578978,9.602388,1002.5822,5.778994979764684,1002.5170639461916,1,1
15.04,0.6691928,4.721975,10.610816,1002.4711,5.788422615993501,1002.5173806647906,1,1
15.06,-0.3919160999999999,4.9269370000000015,6.5629015,1002.4558,5.792990851102831,1002.5174388269514,1,1
15.08,-0.30587208,5.079466,7.798581599999999,1002.54175,5.795527100615917,1002.5175777392598,1,1
15.1,-0.5596035,4.3549595000000005,9.0342245,1002.52924,5.797781754421883,1002.517742466314,1,1
15.12,-0.20113152,5.2034072999999985,7.968982,1002.52405,5.798687828138688,1002.5179107262604,1,1
15.14,0.09520747,5.4369682999999975,8.1394205,1002.48615,5.798958717739207,1002.5179450621343,1,1
15.16,-0.009957075,5.2034080000000005,8.982142999999997,1002.5822,5.799897255116013,1002.5182067190892,1,1
15.18,-0.27285075,5.3273377,8.267248,1002.50385,5.800296518391478,1002.5183862349857,1,1
15.2,-0.22506157,5.4989347,7.803275,1002.56213,5.7996150975578615,1002.5187023327857,1,1
15.22,-0.17249261,5.827827,7.770133500000001,1002.53424,5.798325244971652,1002.5190375724036,1,1
15.24,-0.48318434,5.6752973,8.200964,1002.5241,5.7970647903818975,1002.5193520148697,1,1
15.26,-0.29678082,5.3940706,8.693341,1002.5216,5.796354975056597,1002.5196379489792,1,1
15.28,0.33891976,5.9755907,8.134681,1002.509,5.7958518769229626,1002.5198523037418,1,1
15.3,0.10470496,5.7420290000000005,8.390338,1002.5014,5.795675185608492,1002.5199752793167,0,0
15.32,0.31500298,5.7038975,8.385602,1002.5014,5.795743789228933,1002.520017069529,0,0
15.34,0.5109706,5.913625700000001,8.106272,1002.5266,5.7958221819074,1002.5200776939104,0,0
15.36,0.26241183,5.646699400000001,8.314585000000001,1002.4787,5.795923696299603,1002.5199823019155,0,0
15.38,-0.15344436,5.6895986,7.2777495,1002.4964,5.7943511493211695,1002.5198131172624,0,0
15.4,-0.25860897,5.6943655,7.58075,1002.5342,5.79181566152022,1002.5197154184802,0,0
15.42,-0.18214095,5.7753973,8.05419,1002.5166,5.789327586868957,1002.5196178763299,0,0
15.44,-0.12956753,5.832596,8.002110499999999,1002.4888,5.786870578118171,1002.5194207437312,0,0
15.46,-0.41636908,5.7277317000000005,7.7511864,1002.514,5.783917372981231,1002.5192270426896,0,0
15.48,-0.50240993,5.637167,8.058922,1002.5367,5.780953783068916,1002.5191187910956,0,0
15.5,-0.6888312,5.556136,8.366657,1002.5242,5.7784477527386775,1002.5190414323387,0,0
15.52,-0.545446,5.756332,8.073124,1002.51654,5.77607047527055,1002.5189640729852,0,0
15.54,-0.42595536,5.861196,8.030514,1002.5292,5.773859013383262,1002.5189325675976,0,0
15.56,-0.6936376,5.4655724,8.418733,1002.509,5.77203098125579,1002.5188689721936,0,0
15.58,-0.77011895,5.5132384000000005,7.983167599999999,1002.51904,5.769864859273473,1002.5188133949948,0,0
15.6,-0.47377998,5.7753987,7.9026823,1002.4811,5.767547438554258,1002.5186285187601,0,0
15.62,-0.29654905,5.9708185,7.9974046,1002.53424,5.765489701858371,1002.5185213634512,0,0
15.64,-0.33478427,5.8325879999999986,8.219922,1002.5367,5.763876079983484,1002.518492124112,0,0
15.66,-0.5116275,5.74679,8.309877,1002.51904,5.7627268584655775,1002.5184682605852,0,0
15.68,-0.43514752,5.8516545,8.224657,1002.4786,5.761964855556734,1002.5183036490346,0,0
15.7,-0.46381992,5.8564205000000005,8.177315,1002.5115,5.761476139553793,1002.518133705132,0,0
15.72,-0.5833086999999999,5.8659534,7.9547977,1002.4938,5.7608816977928825,1002.5178959413614,0,0
15.74,-0.7075739999999999,5.9755835999999976,7.396139,1002.4963,5.759434845228697,1002.5176081079046,0,0
15.76,-0.525932,5.918385,8.115769,1002.52155,5.758328244771349,1002.5173679690738,0,0
15.78,-0.6741028,5.9517508,7.888519,1002.48615,5.757207360241183,1002.5170433977142,0,0
15.8,-0.61673564,5.999416,8.428242,1002.51904,5.7570317808346525,1002.5167637942293,0,0
15.82,-0.50679696,5.9708166,8.191522,1002.52405,5.757246272560704,1002.5165429669304,0,0
15.84,-0.35861350000000003,5.7086563,8.584477,1002.52405,5.758150182339003,1002.5163748692484,0,0
15.86,-0.35861350000000003,5.7086563,8.584477,1002.4912,5.759660007833067,1002.5161357086072,0,0
15.88,-0.38728598,5.7849207,7.883786,1002.51654,5.760599513217104,1002.5159258417135,0,0
15.9,-0.18174805,6.10428,7.6565356,1002.4787,5.7610474571627535,1002.5156063902963,0,0
15.92,-0.34903172,5.81352,7.916929,1002.54193,5.761131346150463,1002.5154188880188,0,0
15.94,-0.5736760999999999,5.3702296999999986,8.494527,1002.5115,5.761387299733157,1002.5152391030097,0,0
15.96,-0.25342292,5.546592,8.054228,1002.5065,5.7612052429519744,1002.5150487842044,0,0
15.98,-0.1721631,5.675289,8.021088,1002.48114,5.760729758758006,1002.5147585468852,0,0
16.0,0.06205365,6.028014,7.4813649999999985,1002.5216,5.7595406263140045,1002.5145267224216,0,0
16.02,-0.10523315,5.9279160000000015,7.793837,1002.5014,5.758109114644669,1002.5142746261242,0,0
16.04,0.023831114,5.823052,7.9453387000000015,1002.5115,5.756589398901213,1002.514041885182,0,0
16.06,-0.08609804,5.6943545,8.129980999999999,1002.51904,5.75515409965513,1002.5138542284986,0,0
16.08,-0.033517048,5.722954,8.158388,1002.4912,5.753880366434201,1002.5136068598308,0,0
16.099999999999998,0.14774694,5.9088583,7.7275233,1002.5165,5.752262018011303,1002.5133987001808,0,0
16.12,0.1429538,5.8564267,7.8600854999999985,1002.5242,5.750499087245539,1002.5132536549927,0,0
16.14,0.10470648,5.904093,7.665974,1002.53424,5.748351983932468,1002.5132010439073,0,0
16.16,0.18117891,5.946992,7.779599,1002.51154,5.7461171049639175,1002.5131485769936,0,0
16.18,0.20984884,6.051856,7.244611,1002.5419,5.743081395362383,1002.5132057223517,0,0
16.2,-0.014810801,5.937459,7.954770599999999,1002.5292,5.740355437420896,1002.5133137953895,0,0
16.22,0.0043039770000000005,6.0423236,7.665971300000002,1002.4962,5.737569325708642,1002.5133476790623,0,0
16.24,0.2815237,6.3330835999999975,7.5097356,1002.5191,5.734878721150321,1002.5133983270313,0,0
16.259999999999998,0.03296505,6.266352,7.7038455,1002.5241,5.7324961745168945,1002.513481605599,0,0
16.28,0.004272908,6.1376553,7.926361,1002.51904,5.730590272241352,1002.5135752007616,0,0
16.3,0.037722677,6.142422,8.129939,1002.5241,5.7294546484773585,1002.5136957907242,0,0
16.32,-0.038758613,6.128123,7.656499,1002.514,5.728208654201943,1002.5138034391687,0,0
16.34,-0.06267094599999999,5.8897953,7.8695455,1002.50903,5.726916828417767,1002.5138813729532,0,0
16.36,-0.14393206,5.9279275,7.519199,1002.504,5.72506177140871,1002.5139146623025,0,0
16.38,0.10938425,6.213921,7.528666999999999,1002.5216,5.7231033106712195,1002.5139717439873,0,0
16.4,-0.00533548,6.142423,7.7653865999999985,1002.53174,5.721348570635669,1002.5140861470855,0,0
16.419999999999998,-0.09616061,6.00896,7.931089999999997,1002.50397,5.71988364113537,1002.5141508155338,0,0
16.44,0.39615035,6.3950510000000005,7.907417,1002.4787,5.7191511184365815,1002.5140803336386,0,0
16.46,0.36746258,6.45225,7.519195,1002.4914,5.7185226091640375,1002.5139364066347,0,0
16.48,0.26229358,6.3473864,7.689632400000002,1002.52655,5.7181119679739485,1002.5138546416707,0,0
16.5,0.15234922,6.2520547,7.599678,1002.5266,5.717620297797303,1002.5138282774382,0,0
16.52,0.03762953,6.199623,7.6091466,1002.5216,5.717002691775818,1002.5138329602036,0,0
16.54,0.061515227,6.1948566,7.864803299999997,1002.4964,5.716684799638525,1002.5137743392385,0,0
16.56,0.07107037,6.1900900000000005,8.006835,1002.4988,5.716859643466525,1002.5136686341324,0,0
16.58,0.18099259,6.1519585,7.5144553,1002.5214,5.716621962383548,1002.5136030660176,0,0
16.599999999999998,0.07174653,6.018478,7.699160000000001,1002.5342,5.716144137546323,1002.5136192789937,0,0
16.62,0.109994516,5.9708120000000005,7.7749114000000015,1002.54175,5.715520357707169,1002.5137348753752,0,0
16.64,0.31076527,6.085209,7.689694,1002.49365,5.714785306711607,1002.5137647107864,0,0
16.66,0.5258755,6.118574,7.770181,1002.50635,5.714147664895099,1002.5137643803968,0,0
16.68,0.35383117,6.1424065,7.2683363,1002.51135,5.712806009828587,1002.5137553966953,0,0
16.7,0.55460197,6.3044686,7.315682400000001,1002.51904,5.711160039497192,1002.5137664832685,0,0
16.72,0.48292392,6.309235,7.7891245,1002.52655,5.710003761181508,1002.5138223000247,0,0
16.74,0.36821812,6.2615690000000015,7.8601413,1002.54175,5.709327220314788,1002.5139721594304,0,0
16.759999999999998,0.31087953,6.1900705999999985,8.021111999999999,1002.50885,5.7092445011205815,1002.5140861354274,0,0
16.78,0.02411984,6.113805,7.415112,1002.50385,5.708593327423321,1002.5141499945308,0,0
16.8,0.11973499,6.094738,7.585551700000001,1002.51904,5.707693415265298,1002.5142240244544,0,0
16.82,0.05761653,5.9565077,7.7559924,1002.53436,5.706676876421052,1002.5143619268066,0,0
16.84,0.10064429,6.0327715999999985,7.618695699999999,1002.51666,5.705434121535842,1002.5144920503883,0,0
16.86,0.23449783,6.032771,7.9737773,1002.51416,5.7045842333079735,1002.514605832204,0,0
16.88,0.21539767,5.9851055,8.035326,1002.5292,5.704126468372924,1002.5147589088203,0,0
16.9,0.32057238,6.1471677000000025,7.694451299999999,1002.5344,5.703667622184117,1002.5149648752472,0,0
16.919999999999998,0.24410506,6.1185684,7.481403999999999,1002.53186,5.7028232901170455,1002.5152076896304,0,0
16.94,0.11028956,6.066136,7.8222833,1002.53174,5.702122608341452,1002.515481756737,0,0
16.96,0.095969215,6.089968,7.9785204,1002.52655,5.701838634832343,1002.5157637681082,0,0
16.98,0.19637363,6.1709986,7.869631299999999,1002.5292,5.701850993701749,1002.5160613237904,0,0
17.0,0.08644767,6.1281,7.8933043,1002.5267,5.702105860660768,1002.5163625432256,0,0
17.02,0.12948494,6.1805315,7.7276015,1002.552,5.70237200798467,1002.5167569955632,0,0
17.04,0.1629626,6.0804334,8.030605,1002.5241,5.7030173997528175,1002.5171319684648,0,0
17.06,-0.009091288,6.132865,7.3441186,1002.4965,5.702943690332482,1002.5173890194336,0,0
17.08,-0.032961726000000004,6.142397,7.666060400000001,1002.5342,5.7027654557267216,1002.5176766692,0,0
17.099999999999998,-0.06592736,6.0994864,7.793935,1002.5419,5.7026488441377285,1002.5180180405245,0,0
17.12,0.0870454,6.147151,7.860218,1002.5191,5.702756985317532,1002.5183235712808,0,0
17.14,0.16356029,6.166217,7.8081429999999985,1002.5268,5.703004718799415,1002.5186240534002,0,0
17.16,0.24007522,6.1995809999999985,7.6519116999999985,1002.5218,5.703167928304641,1002.518900992809,0,0
17.18,0.14931603,6.085183,7.879167999999999,1002.51904,5.70347505167953,1002.5191461968964,0,0
17.2,0.14931603,6.085183,7.879167999999999,1002.51917,5.703908231705504,1002.5193629449193,0,0
17.22,0.20674975,6.1614456,7.6377196,1002.51135,5.704157723011942,1002.5195256168704,0,0
17.24,0.16853033,6.151912,7.6803317,1002.51917,5.704299097030453,1002.519668073586,0,0
17.259999999999998,0.24504526,6.3187404,7.604584,1002.5242,5.704444950818791,1002.5198102632747,0,0
17.28,0.32635897,6.352105,7.656667999999999,1002.5495,5.704726637646379,1002.520042785136,0,0
17.3,0.14952527,6.1995745000000015,7.765561,1002.53186,5.705093969971353,1002.520290783426,0,0
17.32,0.34077448,6.4140687000000005,7.5241117,1002.52167,5.705442128058594,1002.5205148798947,0,0
17.34,0.27865607,6.285371,7.765568300000001,1002.55194,5.705983093178498,1002.520826021967,0,0
17.36,0.24525453,6.2424707,7.864996,1002.5342,5.706796111122942,1002.5211490934227,0,0
17.38,0.33132905,6.2996683,7.505184700000001,1002.5269,5.707347787103064,1002.521455262625,0,0
17.4,0.25967002,6.2901344,7.254264999999997,1002.5191,5.707252581816709,1002.5217173147864,0,0
17.419999999999998,0.3027073,6.361633,7.1453753,1002.5321,5.7065168575049805,1002.5219862417433,0,0
17.44,0.35054338,6.394997,7.5667405,1002.53687,5.705927813567939,1002.5222774471316,0,0
17.46,0.34580165,6.4521956,7.722979,1002.5345,5.705795055006943,1002.5225787574034,0,0
17.48,0.23592322,6.3854623,7.940767299999999,1002.5342,5.706321449626638,1002.5228868316327,0,0
17.5,0.17380477,6.280597,8.262709,1002.5266,5.707818646710589,1002.523172413428,0,0
17.52,0.42717242,6.3044286,8.030726,1002.552,5.709832493041318,1002.523528532814,0,0
17.54,0.7092189999999999,6.5713553,7.4768043,1002.5344,5.711798311608512,1002.5238823371852,0,0
17.56,0.6232015000000001,6.3568597,7.585697,1002.52686,5.7135842989553804,1002.524205678314,0,0
17.58,0.46072626,6.318726,7.083854,1002.5013,5.714346480386803,1002.5244089220932,0,0
17.599999999999994,0.3795076,6.3044257,7.282702400000002,1002.5166,5.714484440786709,1002.5245603961772,0,0
17.62,0.12623508,6.2710586,7.254301499999999,1002.51917,5.713966520263671,1002.5246748332512,0,0
17.64,0.07369529,6.328256,7.216429700000001,1002.537,5.7128884875817585,1002.5248203204504,0,0
17.66,0.045035467,6.2281580000000005,7.585714999999999,1002.52167,5.711769721359063,1002.5249375317856,0,0
17.68,0.32935637,6.485613,7.590223299999999,1002.5522,5.710980869375013,1002.5251392446072,0,0
17.7,0.38190937,6.480847,7.9168954,1002.52924,5.711004385944912,1002.5253322407758,0,0
17.72,0.48699087,6.580946000000001,7.386635000000001,1002.5294,5.7110526383549916,1002.5255174161236,0,0
17.74,0.5538586,6.7096443,7.2114577,1002.52686,5.71104086981246,1002.5256858703627,0,0
17.759999999999994,0.5442494999999999,6.4141192,7.632814999999999,1002.54956,5.7112238208502575,1002.5259206633953,0,0
17.78,0.43428922,6.2901893,7.7227664,1002.54193,5.711546837562593,1002.5261857601303,0,0
17.8,0.5011569,6.2139254,7.5428543,1002.51166,5.711609749654534,1002.5263677068692,0,0
17.82,0.3290097,6.23776,7.1546264000000015,1002.4787,5.710844172060669,1002.5263568712628,0,0
17.84,0.16166703,6.428424,6.8137445,1002.54193,5.709081738935512,1002.5264033601843,0,0
17.86,0.109064445,6.4093575,6.9889154000000016,1002.52167,5.706682835129371,1002.5264273976989,0,0
17.88,0.15681298,6.476091,7.173553,1002.52167,5.704108719174853,1002.5264315106148,0,0
17.9,0.2762338,6.766853,7.296640400000001,1002.52924,5.701991096283376,1002.5264452553496,0,0
17.919999999999995,0.21404682,6.933684,7.931046,1002.52936,5.701493038113602,1002.5264678932776,0,0
17.94,0.2857191,7.0719147,7.878965400000001,1002.542,5.702540797315552,1002.5265438117348,0,0
17.96,0.2808898,6.7239565999999975,7.826883,1002.50397,5.704392019784143,1002.5265296275618,0,0
17.98,0.20911844,6.6524606,6.766369,1002.53687,5.7052190193212855,1002.5265543197673,0,0
18.0,0.26167154,6.5761957,6.903664599999999,1002.504,5.705235542223999,1002.5264949422486,0,0
18.02,0.122982964,6.652463000000001,6.700078,1002.5267,5.70433723069671,1002.5264432144812,0,0
18.04,0.20899464,6.633397,7.26347,1002.532,5.703457604191827,1002.5264175122536,0,0
18.06,-0.1161063,6.5476007,6.9746647,1002.52155,5.7020328823561375,1002.5263772787213,0,0
18.08,0.36182457,7.0099583,6.7474089999999975,1002.50885,5.700483457913209,1002.5262786301686,0,0
18.1,0.3952585,7.1291227,6.7568755000000005,1002.50903,5.699024666502473,1002.5261293692388,0,0
18.12,0.060622662,6.9622946,6.8799652999999985,1002.53674,5.697563823817384,1002.526035680552,0,0
18.14,0.02711451,6.7668667000000005,7.448088999999999,1002.52185,5.696677478466578,1002.5259378287784,0,0
18.16,-0.17731082,6.4474800000000005,7.916897,1002.54443,5.696610872325152,1002.525917938768,0,0
18.18,-0.2490091,6.504679,7.784333,1002.5292,5.697135089136706,1002.5259121793747,0,0
18.2,-0.2251139,6.571411,6.927406,1002.537,5.6969401416377785,1002.5259470065292,0,0
18.22,-0.4258682,6.4093475,7.1309843,1002.5395,5.696206933910153,1002.5260265705797,0,0
18.24,-0.37329167,6.395048,7.287219500000001,1002.52924,5.695219106337035,1002.5261084417205,0,0
18.26,-0.13430397,6.4427137000000005,7.741722999999999,1002.5168,5.6947793506586,1002.52614727267,0,0
18.28,-0.3254999,6.638142599999999,7.3345633,1002.5497,5.6944617952965935,1002.5262663735156,0,0
18.3,-0.4784562,6.3140173,7.4434547,1002.532,5.693992794012798,1002.5263922520779,0,0
18.32,-0.41154152,6.4093480000000005,7.3771725,1002.4938,5.693409843167628,1002.5263861462684,0,0
18.34,-0.09607698,6.628610000000001,7.287217999999997,1002.5292,5.6928743457092015,1002.5263908810484,0,0
18.36,-0.14865609,6.628610000000001,7.5192039999999984,1002.5317,5.692743235059337,1002.5264141775281,0,0
18.38,-0.17733872,6.5237455,7.741721000000001,1002.5497,5.693178884288585,1002.5265185912584,0,0
18.4,-0.22991782,6.5142126,7.4339848,1002.52435,5.693618038321298,1002.5266030443024,0,0
18.42,-0.29683888,6.36645,7.462390400000001,1002.54456,5.693906268810568,1002.5267423120523,0,0
18.44,-0.24904338,6.185321,7.036294,1002.55457,5.693141698152659,1002.5269655487126,0,0
18.46,-0.12476974,6.347384,6.908465,1002.54193,5.691472021468122,1002.5272166726503,0,0
18.48,0.14289673,6.571412,7.481327499999999,1002.5216,5.690206001353557,1002.5274183457402,0,0
18.5,-0.16779304,6.6810427,6.7190886,1002.5317,5.688299861919832,1002.5276119580376,0,0
18.52,-0.14867637,6.704875500000001,7.2256694,1002.532,5.686627986433827,1002.527798830815,0,0
18.54,-0.28729323,6.6381435,7.036293,1002.55194,5.684793473891102,1002.52805085981,0,0
18.56,-0.29207426,6.4427147000000025,7.415045,1002.52936,5.6831330017430925,1002.5282782655348,0,0
18.58,0.013829336,5.975592,7.9926424,1002.542,5.6819485105026,1002.5285285994768,0,0
18.6,0.5587257,6.24252,7.997376400000001,1002.4939,5.6815654400007976,1002.5286251315904,0,0
18.62,-0.50239456,6.1662550000000005,7.5144672,1002.53424,5.681004161542723,1002.528730640892,0,0
18.64,-0.6218909,6.0756903,8.158346,1002.5116,5.681238491293786,1002.5287621986037,0,0
18.66,-0.08785789999999999,6.3331165,8.068273,1002.5369,5.682312576340811,1002.5288193790826,0,0
18.68,-0.2456187,6.266385,8.11088,1002.5246,5.684114787182327,1002.5288547139893,0,0
18.7,-0.50858974,6.023293,8.276577,1002.53937,5.686546396541861,1002.5289237909424,0,0
18.72,-0.47515833,5.942262,8.428075,1002.5268,5.689679792291218,1002.5289771816907,0,0
18.74,0.12223531,6.233024,7.504858500000001,1002.52924,5.692244026204716,1002.529025303902,0,0
18.76,0.21777688,6.2949905,7.1971173,1002.5242,5.6938964025365975,1002.5290504535936,0,0
18.78,0.17948388,6.2330265,7.5190516,1002.5267,5.695161369525298,1002.5290642142284,0,0
18.8,0.2846123,6.2759266,7.5569243,1002.52924,5.696202124097524,1002.5290770059539,0,0
18.82,0.6717219,6.495189,7.6468735,1002.55457,5.697515400871575,1002.5291800835013,0,0
18.84,0.35142052,6.418926,7.732087599999999,1002.5319,5.699064535628049,1002.5292809545211,0,0
18.86,0.42303574,6.275931,8.281271,1002.55194,5.701531285711623,1002.5294516567185,0,0
18.88,0.38476998,6.0757365,8.664756,1002.5166,5.7051955609232445,1002.5295562232156,0,0
18.9,0.40864182,6.0376043,8.323875,1002.5195,5.709284240935215,1002.5296124157687,0,0
18.92,0.8148433,6.404631,7.0550475000000015,1002.5294,5.712220548951514,1002.5296613028121,0,0
18.94,0.74309164,6.457064599999999,7.1355276,1002.54456,5.714312437845805,1002.5297581347136,0,0
18.96,0.6618078000000001,6.485665,7.4432616,1002.5342,5.71615493781227,1002.5298596860963,0,0
18.98,0.41798317,6.5905304000000005,7.253880499999997,1002.53687,5.717593718798377,1002.5299746540286,0,0
19.0,0.27453458,6.7859607,7.339094,1002.54443,5.719064939932277,1002.5301282789392,0,0
19.02,0.44652575,6.8955936,8.129732,1002.52924,5.721952699742332,1002.5302608241057,0,0
19.04,0.5755259,6.828862700000001,7.665756,1002.52924,5.7252769284793255,1002.5303742660479,0,0
19.06,0.65194815,6.8669963,7.5663285,1002.5066,5.728883859293712,1002.5303889159904,0,0
19.08,0.59934306,6.8336320000000015,7.2822619999999985,1002.5066,5.7322408263814975,1002.530316220582,0,0
19.1,0.30772042,6.361744,7.2112412,1002.5218,5.734568371003787,1002.5302213285253,0,0
19.12,-0.108177006,6.14725,6.8088117,1002.51904,5.735048120564728,1002.530097229121,0,0
19.14,0.09249297,6.5047435999999985,6.1743937,1002.504,5.733467619233725,1002.5298936248628,0,0
19.16,0.44347966,6.8526516000000015,6.3024106,1002.542,5.730803364934629,1002.5297573030904,0,0
19.18,0.42917067,7.071913,6.9415584,1002.5294,5.728434048612793,1002.5296355628814,0,0
19.2,0.5104425,7.1529440000000015,6.7616524999999985,1002.509,5.726203930004032,1002.5294537052063,0,0
19.22,0.5582862,7.2149076,7.211425299999997,1002.5497,5.724853085603588,1002.5293659024256,0,0
19.24,0.5582862,7.2149076,7.211425299999997,1002.56726,5.7242840309334495,1002.5294247386399,0,0
19.26,-0.00090517104,6.5809546,7.339258,1002.54706,5.7236625755777295,1002.5295402132599,0,0
19.28,0.2954731,6.8240485,6.960509,1002.542,5.7227776500495615,1002.5296871018663,0,0
19.3,0.31938738,6.76685,6.5344133,1002.55457,5.720956765900035,1002.5299064710724,0,0
19.32,0.65401936,6.6286182,7.8316445,1002.54706,5.720121249225986,1002.5301620584066,0,0
19.34,0.5727930999999999,6.561886,7.282457000000001,1002.4991,5.7191997901962095,1002.5302760719652,0,0
19.36,0.4628728,6.604784,7.258786,1002.5066,5.718217007343973,1002.5302915804865,0,0
19.38,0.20960407,6.652448700000001,7.400823599999999,1002.5394,5.717450899719862,1002.530338074126,0,0
19.4,0.11403845,6.614315,7.362951,1002.5294,5.716764255588207,1002.5303757788392,0,0
19.42,0.19054575,6.5809479999999985,7.372422699999999,1002.48895,5.71612115054325,1002.5302599619196,0,0
19.44,0.35786933,6.833575200000001,7.0457516,1002.5395,5.71538916676831,1002.530190890227,0,0
19.46,0.31488156,6.7668433000000014,7.050489,1002.51917,5.71448905279971,1002.5300901832744,0,0
19.48,0.15716322,6.781142,7.1451783,1002.5218,5.7135985759826085,1002.5299713539513,0,0
19.5,0.085496634,6.6953429999999985,7.201994,1002.514,5.7126819676699725,1002.5298088594873,0,0
19.52,0.056848258,6.652443400000001,7.2446065000000015,1002.51917,5.711749681260081,1002.5296269794844,0,0
19.54,0.31500328,6.7811394,7.277752,1002.5041,5.711049131100673,1002.529374373188,0,0
19.56,0.43452883,6.838337400000001,7.0362997000000025,1002.51416,5.710283881083999,1002.5290963985208,0,0
19.58,0.51102096,6.7954383,7.320365400000001,1002.5317,5.709838086497434,1002.5288601530704,0,0
19.6,0.2672814000000001,6.6905727,7.10732,1002.504,5.7091842954358425,1002.5285619100392,0,0
19.62,0.44416457,6.871701700000001,6.7948513,1002.50903,5.708160712678097,1002.5282280676207,0,0
19.64,0.3820576,6.6381392,7.249357700000001,1002.52185,5.707152450513705,1002.5279101234164,0,0
19.66,0.5206871,6.814501299999999,7.2825,1002.5345,5.7064737218729515,1002.5276529114732,0,0
19.68,0.57314706,6.6905737000000025,7.448192999999999,1002.5546,5.706174231008233,1002.5275226485187,0,0
19.7,0.6353085999999999,6.776371000000001,7.4339924,1002.52435,5.7063162666089,1002.5273961266375,0,0
19.72,0.6401005,6.8812356,7.145194,1002.52435,5.706560117190052,1002.5272733658473,0,0
19.74,0.54932034,6.7525377,7.0599785000000015,1002.5015,5.70656923931058,1002.527072110296,0,0
19.76,0.49676663,6.7334704,7.154669,1002.55457,5.706480434390287,1002.526993273294,0,0
19.78,0.4442008,6.7144046,7.183076,1002.5168,5.7063161336398665,1002.526886917135,0,0
19.8,0.42033792,6.8097343,7.0694537,1002.5445,5.706048645276638,1002.5268563479312,0,0
19.82,0.4012308,6.9384313,7.206753,1002.52167,5.706080064492157,1002.5268106661302,0,0
19.84,0.09056762,6.7906675000000005,7.2540994,1002.5344,5.706219537650356,1002.5267976232927,0,0
19.86,0.35826075,6.981329,7.6896663,1002.5243,5.707400213114368,1002.526777107198,0,0
19.88,0.23880176,7.0242270000000016,7.4482149999999985,1002.4535,5.7091817897027575,1002.5264951815905,0,0
19.9,0.23880176,7.0242270000000016,7.4482149999999985,1002.50903,5.7114879088489285,1002.5261831974699,0,0
19.92,0.05721743400000001,6.5857024000000015,6.7996063,1002.5444,5.712639416248278,1002.52597310879,0,0
19.94,0.05721743400000001,6.5857024000000015,6.7996063,1002.52435,5.712766563281491,1002.5257816312413,0,0
19.96,0.095492005,6.742998599999999,6.127324,1002.5266,5.711251055017695,1002.5256153878064,0,0
19.98,0.24846984,6.7525306,6.662314,1002.51416,5.709074370960761,1002.5254272557112,0,0
20.0,0.29627990000000004,6.771597,6.917973,1002.5266,5.706728433457746,1002.5252652440712,0,0
20.02,0.43015063,6.828794500000001,7.3724794,1002.51416,5.705017281473638,1002.5250821117078,0,0
20.04,0.37758482,6.9002924,7.1310253,1002.5319,5.7036067005457864,1002.5249448403492,0,0
20.06,0.18166105,6.8669252000000025,6.7901525,1002.54706,5.70190291827397,1002.5249031619513,0,0
20.08,0.19123267,6.8621583,6.90378,1002.52686,5.700106316952295,1002.524873379536,0,0
20.1,0.19604863,6.9288893,6.9984713,1002.5342,5.698471724334554,1002.5248806396277,0,0
20.12,0.19604863,6.9288893,6.9984713,1002.5218,5.6969861671410325,1002.5248759643416,0,0
20.14,0.30602026,7.024219500000001,7.0789589999999984,1002.5193,5.6959016461172425,1002.5248517597876,0,0
20.16,0.11817439,6.8383594,7.1119685,1002.5193,5.694946242443304,1002.5248103863084,0,0
20.18,0.108580485,6.7525619999999975,7.173513400000001,1002.5191,5.694077900526265,1002.5247532713112,0,0
20.2,0.051205724,6.743028999999999,7.1877146,1002.5193,5.6932965861927665,1002.5246831727228,0,0
20.22,-0.015728666999999998,6.857427,6.861039,1002.5016,5.692272321392075,1002.5245381341887,0,0
20.24,0.04637456,6.895560700000001,6.7663474,1002.5319,5.6909550522819226,1002.5244364808568,0,0
20.26,0.1419364,6.8478955999999975,7.1308937000000014,1002.5546,5.689854542949012,1002.5244552486416,0,0
20.28,0.38567215,6.9622936,7.396017599999999,1002.54456,5.689525816285095,1002.5245442089612,0,0
20.3,0.5146926,7.143424,7.149825,1002.5419,5.689786984060527,1002.5246852951473,0,0
20.32,0.4142825,7.000428,7.4102144,1002.54706,5.690739802218848,1002.5248905078388,0,0
20.34,0.19437726,6.8955645999999975,7.1214128,1002.52936,5.6917023490296055,1002.5250879239447,0,0
20.36,0.19434299,6.7430353,7.031455499999999,1002.504,5.692315477223334,1002.5251864442896,0,0
20.38,0.17995225,6.762103,6.6905737000000025,1002.51666,5.6921400346416835,1002.5252428016672,0,0
20.4,0.27075142,6.728738000000001,6.917824,1002.5394,5.691559395380375,1002.5253435649596,0,0
20.42,0.43799317,6.7811713000000005,7.268165,1002.5319,5.691237399126072,1002.5254562025714,0,0
20.44,0.48097718,6.8145375,7.2539587,1002.5394,5.691175035676888,1002.5256059268356,0,0
20.46,0.38058412,6.723973299999999,6.974627000000001,1002.5722,5.690783351225599,1002.5259059618588,0,0
20.48,0.26583463,6.723974,7.0645776,1002.5444,5.690229098612982,1002.526237651343,0,0
20.5,0.11282952,6.585746,7.0693073,1002.5119,5.6893372330310505,1002.5264791166264,0,0
20.52,-0.0019200146,6.5762134,7.017225999999999,1002.522,5.688056272462244,1002.5266763505307,0,0
20.54,0.07452260000000001,6.623879400000001,7.2113333,1002.5296,5.686799851077813,1002.5268611515463,0,0
20.56,0.07452260000000001,6.623879400000001,7.2113333,1002.5545,5.685569635633677,1002.5271239415787,0,0
20.58,0.39949793,6.847909,7.443314599999999,1002.5648,5.685052902975468,1002.5274917766612,0,0
20.6,0.3469029000000001,6.83361,7.2870774,1002.5091,5.6849064284151245,1002.5277505853444,0,0
20.62,0.3898698,6.7716460000000005,7.320214,1002.53186,5.685053581184679,1002.5279940625895,0,0
20.64,0.06480886,6.6286497,6.9793334000000025,1002.56226,5.684724074878041,1002.5283325564579,0,0
20.66,0.045655385,6.4713545,7.429098599999999,1002.5522,5.6844459808997785,1002.5287175724367,0,0
20.68,0.17574666,6.471328700000001,7.57596,1002.52924,5.684448420330304,1002.5290596532952,0,0
20.7,0.24267535,6.657224,7.0220356,1002.5166,5.684104357322887,1002.5293170611895,0,0
20.72,0.24267535,6.657224,7.0220356,1002.52686,5.68345536338813,1002.5295356613848,0,0
20.74,0.13753106,6.5666595,7.320304400000001,1002.53687,5.6828630905244255,1002.5297552201364,0,0
20.76,0.09451662,6.528527,7.533353,1002.53723,5.682601737392657,1002.5299761314566,0,0
20.78,-0.10144395,6.5380597,7.2019452999999976,1002.5144,5.6821316980064935,1002.530115254626,0,0
20.8,-0.115775734,6.480861,7.2919,1002.5242,5.681538932759535,1002.5302168889416,0,0
20.82,0.027629793,6.6619899999999985,6.9746957,1002.5394,5.6806087292212375,1002.5303397522232,0,0
20.84,0.13279305,6.5237594,7.822155499999999,1002.542,5.680508689900233,1002.5304902911104,0,0
20.86,0.13279305,6.5237594,7.822155499999999,1002.55457,5.681142543823174,1002.5307099942232,0,0
20.88,-0.07273091,6.580957400000001,7.6375136,1002.5394,5.682205462965884,1002.5309354079144,0,0
20.9,-0.07749930000000001,6.452261,7.5238895,1002.54205,5.683290302929753,1002.5311745959835,0,0
20.92,0.008540988000000001,6.4379610000000005,7.4860144,1002.55457,5.6843108988068565,1002.5314701660159,0,0
20.94,0.027675405,6.590490299999999,7.3013744,1002.53174,5.685192761743437,1002.5317323030988,0,0
20.96,0.027675405,6.590490299999999,7.3013744,1002.5369,5.685948865547192,1002.5319825311341,0,0
20.98,0.3670529000000001,6.6810550000000015,7.334516000000002,1002.52924,5.686782625369752,1002.5321937595136,0,0
21.0,0.40051532,6.6667547,7.168812299999999,1002.5166,5.6874113707136695,1002.532324263376,0,0
21.02,0.45788062,6.700121,7.325048,1002.5066,5.688147341769131,1002.5323469692406,0,0
21.04,0.2666998,6.528524,7.4055347,1002.5394,5.688847124611995,1002.5323924230532,0,0
21.06,0.39098233,6.6286216,7.102533,1002.52936,5.689194557913878,1002.5324216693193,0,0
21.08,0.39098614,6.585723,7.0504546,1002.51654,5.689089551182508,1002.5323903373101,0,0
21.1,0.22848041,6.471325,7.670662400000001,1002.509,5.689380450634888,1002.5322784471324,0,0
21.12,0.38144177,6.6905866,6.9794399999999985,1002.53424,5.689266591650047,1002.5321866425617,0,0
21.14,0.32409167,6.642921,6.9747059999999985,1002.55444,5.688715637608095,1002.5321856361301,0,0
21.16,0.31931950000000003,6.661987,7.3487253,1002.51154,5.6883762968515486,1002.5321104225568,0,0
21.18,0.3191011,6.709658,7.301361,1002.5065,5.688219232300452,1002.5319517663223,0,0
21.2,0.25218266,6.5904940000000005,7.187735000000001,1002.52936,5.687878430463537,1002.5318022473148,0,0
21.22,0.37645626,6.6429257,7.2729545,1002.5218,5.687588915715888,1002.5316341242294,0,0
21.24,0.34777611,6.7334905,6.984155,1002.5243,5.687034837129875,1002.531459167824,0,0
21.26,0.36689472,6.7239575,7.0362339999999985,1002.51154,5.6863147724907686,1002.5312328673399,0,0
21.28,0.19482051,6.5857277000000005,7.1119843,1002.5344,5.685358154147465,1002.5310443099097,0,0
21.3,0.23305704,6.6619925,7.5286117,1002.5447,5.684945909748938,1002.5309268610488,0,0
21.32,0.2043776,6.6715255,7.3676424,1002.54694,5.684778839434864,1002.5308807305354,0,0
21.34,0.4624858,6.79069,7.481267,1002.5292,5.685187949139336,1002.5308339189836,0,0
21.36,0.27129233,6.6190934000000015,7.164062,1002.5292,5.685363448612003,1002.5307866741887,0,0
21.38,0.27607018,6.6047935,7.339235,1002.52435,5.68558109150067,1002.5307217566603,0,0
21.4,0.24261029,6.6333933000000025,7.0646396,1002.5395,5.685453508849673,1002.5306959972085,0,0
21.42,0.2569484,6.5857277000000005,7.3202972000000015,1002.557,5.6853462044909575,1002.5307679305668,0,0
21.44,0.27606577,6.614327,7.5948925,1002.5395,5.685724875638496,1002.5308629263319,0,0
21.46,0.27606577,6.614327,7.5948925,1002.52167,5.6865315915272285,1002.5309137700557,0,0
21.48,0.5580717,6.8717217,7.05517,1002.509,5.6872757718545675,1002.5308798059976,0,0
21.5,0.33819938,6.6810589999999985,7.2445460000000015,1002.504,5.687954319166304,1002.5307530280544,0,0
21.52,0.23304306,6.5761943,7.2824216,1002.5292,5.688477350893388,1002.5306354161626,0,0
21.54,0.10876693,6.6095605,6.993623,1002.51666,5.688462742541598,1002.5304811827967,0,0
21.56,0.12310572,6.6476936,7.126186,1002.5093,5.688228582070656,1002.5302686499367,0,0
21.58,-0.048969172000000005,6.604794,7.197201700000001,1002.5395,5.687847694774853,1002.5301140887616,0,0
21.6,0.15178137,6.657226,7.206670299999999,1002.52936,5.687429009407798,1002.529974803788,0,0
21.62,0.16133966,6.6953588,7.258749000000001,1002.54205,5.687112028606447,1002.5298952022918,0,0
21.64,0.06574233,6.5094633,7.2208733999999986,1002.52936,5.686565262944825,1002.5298229396813,0,0
21.66,0.16133775,6.6905923,6.9415436,1002.5317,5.685651772223263,1002.5297658458558,0,0
21.68,0.308609,6.781178999999999,7.036149000000001,1002.54944,5.68469709048072,1002.5297862247064,0,0
21.7,0.055242628,6.5952845,7.627946400000001,1002.5093,5.684347756527027,1002.5297304810499,0,0
21.72,0.059985638,6.580985000000001,7.1781745,1002.5194,5.683816607305322,1002.5296440362233,0,0
21.74,0.29415923,6.743049000000001,7.310734299999999,1002.52155,5.6835661863693305,1002.5295385150439,0,0
21.76,0.27500325,6.7049174,7.1639646999999975,1002.51404,5.683286257326998,1002.529389481876,0,0
21.78,0.2271684,6.6429534,7.320196000000001,1002.5242,5.683130184751122,1002.5292391140338,0,0
21.8,0.23667283,6.633422,7.466958,1002.5295,5.683298256736566,1002.5291071881979,0,0
21.82,0.21273704,6.695388,7.0645304000000015,1002.50385,5.683221866355583,1002.528899692652,0,0
21.84,0.21273704,6.695388,7.0645304000000015,1002.54175,5.682929744032996,1002.528762610694,0,0
21.86,0.2461405,6.6572565999999975,7.5000906,1002.5317,5.683063160678188,1002.5286520596773,0,0
21.88,0.18394788,6.6667914,7.154474,1002.51154,5.683051285656612,1002.528492773384,0,0
21.9,0.18394788,6.6667914,7.154474,1002.55206,5.682911073668362,1002.5284368700313,0,0
21.92,0.054837987000000005,6.5857615,7.358047999999997,1002.51154,5.682853557927468,1002.5283266450966,0,0
21.94,0.19341548,6.6667933,7.2917633,1002.56213,5.682883755613254,1002.528350942422,0,0
21.96,0.2077365,6.6191277999999985,7.5616226,1002.53424,5.6833438613931335,1002.528393612146,0,0
21.98,0.32239664,6.6667953,7.438523,1002.5292,5.684062687367975,1002.5284342181103,0,0
22.0,0.19330515,6.580997999999999,7.305956399999999,1002.504,5.684676528661733,1002.5283821343553,0,0
22.02,0.15982811,6.6477304,7.0360929999999975,1002.52167,5.684875954683666,1002.5283119494658,0,0
22.04,0.31272662,6.762128999999999,7.277543,1002.5268,5.685244761543857,1002.5282444910792,0,0
22.06,0.10715832,6.5095024000000015,7.3485556,1002.53424,5.685509373421338,1002.5282064686808,0,0
22.08,0.27441466,6.681099400000001,7.4053655,1002.5166,5.686013333010847,1002.5281310888023,0,0
22.1,0.26483667,6.657267,7.324878699999997,1002.5267,5.6865692310865175,1002.5280593312224,0,0
22.12,0.25522184,6.590536599999999,7.4858437,1002.52167,5.687325332424692,1002.527972924632,0,0
22.14,0.14046977,6.5333385,7.107088,1002.49896,5.6875861537092005,1002.5277921292401,0,0
22.16,0.32349008,6.5905036999999975,6.785275,1002.50653,5.687013182531133,1002.5275558347664,0,0
22.18,0.32350022,6.600036,6.9935899999999975,1002.52686,5.686031803952793,1002.5273445399646,0,0
22.2,0.28527194,6.7096663,7.093013000000001,1002.5369,5.684997138517088,1002.5271922395337,0,0
22.22,0.34264988,6.676300500000001,7.5995965,1002.5369,5.684654010007512,1002.5270926148106,0,0
22.24,0.17537703,6.4761047,7.7889743,1002.54456,5.684943124433702,1002.527067468992,0,0
22.26,0.24230443,6.519003400000001,7.462301299999999,1002.51654,5.685333899600217,1002.5270073512582,0,0
22.28,0.44786644,6.695365,7.1261616,1002.5191,5.685556571042013,1002.5269257647642,0,0
22.3,0.5195837999999999,6.666765,7.1166945,1002.5091,5.6855823254224624,1002.5267895021848,0,0
22.32,0.51482433,6.6572312999999985,7.2681975,1002.5267,5.685650718092918,1002.526668778362,0,0
22.34,0.2854241,6.585733,7.1403713,1002.5241,5.6854411545538195,1002.52655285919,0,0
22.36,0.23764642,6.5952660000000005,7.3770933,1002.5115,5.685361539342329,1002.5263962427164,0,0
22.38,0.23764642,6.5952660000000005,7.3770933,1002.53925,5.685397033087878,1002.5263041299263,0,0
22.4,0.3237133,6.5809646,7.5759416,1002.5319,5.685829456990468,1002.5262428841977,0,0
22.42,0.39544088,6.661996,7.145113,1002.50635,5.686063830379987,1002.5261171530886,0,0
22.44,0.51973605,6.671528,7.168786999999999,1002.5321,5.686183888795028,1002.5260275953295,0,0
22.46,0.40504104,6.704894,7.419712,1002.5241,5.6866221651694016,1002.5259415227504,0,0
22.48,0.37637234,6.6858273,7.2113996,1002.5292,5.686991820676838,1002.5258771995376,0,0
22.5,0.09917413,6.5857286,7.325027499999999,1002.5419,5.687319720269933,1002.5258780456282,0,0
22.52,0.041826636,6.509464,7.43392,1002.5093,5.687672781908957,1002.5258191122698,0,0
22.54,0.041826636,6.509464,7.43392,1002.51666,5.688046805709868,1002.52573406595,0,0
22.56,0.16614212,6.6762924,7.2540164,1002.53705,5.688394122368227,1002.5256996563846,0,0
22.58,0.060996592,6.557128,7.429189999999997,1002.53705,5.6888187060273925,1002.5257101133296,0,0
22.6,0.08969571,6.6190925000000025,7.386582400000001,1002.5194,5.689329900474714,1002.525696636678,0,0
22.62,0.2617991,6.704890299999999,7.2918973,1002.50397,5.6898962687285985,1002.5256065128168,0,0
22.64,0.20446171,6.638158,7.178273,1002.509,5.690238961608193,1002.5254670959268,0,0
22.66,0.3241024,6.7191854000000015,7.3108497,1002.50903,5.69070607905298,1002.5252847336176,0,0
22.68,0.29543626,6.7573175,7.031522,1002.5116,5.690910960397093,1002.52507433324,0,0
22.7,0.104282185,6.514222,7.4434179999999985,1002.5395,5.691164720839202,1002.5249403558666,0,0
22.72,0.11863427,6.5285215,7.476560000000001,1002.51666,5.691532511118058,1002.5247921641783,0,0
22.74,0.37676913,6.8002143,7.159357000000001,1002.5369,5.691905993251858,1002.5247048102118,0,0
22.76,0.21906091,6.7906814,7.519174,1002.5369,5.692808403744537,1002.52467152693,0,0
22.78,0.18086053,6.518986,7.4955063,1002.50385,5.693762039087907,1002.5245671603253,0,0
22.8,0.20478494,6.6381497000000005,6.8563633,1002.504,5.693947089720213,1002.5244009002164,0,0
22.82,0.13789300000000002,6.58095,6.8611007,1002.50903,5.693374458622611,1002.5241986575431,0,0
22.84,0.20005585,6.633382000000001,7.1593703999999985,1002.542,5.6926624527787695,1002.5240840407499,0,0
22.86,0.07102652,6.6524477,7.116762599999999,1002.5394,5.691788303808652,1002.5240379028047,0,0
22.88,0.075819016,6.6476808000000025,7.1499047,1002.5268,5.690817735320778,1002.5240070788665,0,0
22.9,0.047165558,6.6953454,7.2256575,1002.53687,5.689947884065844,1002.5240261493504,0,0
22.92,0.109328404,6.7620764000000015,7.367692,1002.53436,5.689482212713157,1002.5240802018924,0,0
22.94,0.066348225,6.733476,7.3487577,1002.51654,5.68930538613613,1002.5241008179919,0,0
22.96,0.06636092,6.681044,7.4150405,1002.5291,5.6894130967022924,1002.5241370314324,0,0
22.98,0.023368016,6.628611,7.2777457,1002.5065,5.689486781561918,1002.5241055363156,0,0
23.0,0.22415785,6.7954399999999975,6.7948394,1002.5191,5.689048720200285,1002.5240596872992,0,0
23.02,0.06165719,6.690575,7.2730155,1002.51904,5.688721521485121,1002.5240011042343,0,0
23.04,0.104713485,6.6905740000000025,7.448192,1002.52155,5.688763617575287,1002.5239405162628,0,0
23.06,-0.03387542,6.614309,7.3156314,1002.51904,5.6888200635861965,1002.5238693388727,0,0
23.08,-0.057761766,6.6572074999999975,7.1972723,1002.514,5.688767848823638,1002.5237709169107,0,0
23.1,-0.029044904,6.633373700000001,7.183072,1002.48615,5.688564247366847,1002.5235485159643,0,0
23.12,0.013998687,6.590474,7.2872314,1002.4988,5.688327203062258,1002.5232629078308,0,0
23.14,0.0044518113,6.557108,7.362982700000001,1002.52167,5.688132301698735,1002.5230048100155,0,0
23.16,0.21002115,6.6572046,7.367721,1002.53174,5.688126207408431,1002.5228082014702,0,0
23.18,0.20048685,6.657203999999999,7.07419,1002.51654,5.687838116140723,1002.5226119126339,0,0
23.2,0.17660056,6.6810365,7.0599884999999984,1002.5091,5.6873134538229655,1002.522389828933,0,0
23.22,0.22441123,6.6524367,7.3251157,1002.514,5.686947320466765,1002.5221633923906,0,0
23.24,0.16228645,6.6190705,7.4056025,1002.51904,5.686797914568667,1002.521952068849,0,0
23.26,0.13843818,6.7048674,7.3298564,1002.4913,5.686842621040112,1002.5216549959199,0,0
23.28,0.16236256,6.685801,7.3061867,1002.5012,5.686996398078771,1002.5213188642945,0,0
23.3,0.10501759,6.6143017,7.4387507,1002.499,5.687349436898253,1002.5209415104788,0,0
23.32,0.01900649,6.5571027000000015,7.344065,1002.50653,5.6876501346846995,1002.5205561992094,0,0
23.34,0.15286638,6.600001299999999,7.358270599999999,1002.52924,5.687987381461553,1002.5202469998547,0,0
23.36,0.2771793,6.681031699999999,7.078944,1002.51416,5.688048224656607,1002.5199518781053,0,0
23.38,0.11947115,6.5999994000000015,7.1689,1002.5344,5.687879866728624,1002.5197431217664,0,0
23.4,0.057346344,6.5094347,7.254121,1002.547,5.687512888524282,1002.5196567894271,0,0
23.42,0.14818801,6.647664,7.296732400000002,1002.51166,5.687232074872229,1002.51955171773,0,0
23.44,0.109974936,6.80496,7.310938,1002.5116,5.687270542574471,1002.5194302501947,0,0
23.46,0.057435125,6.60953,7.6376157,1002.51404,5.687824086120497,1002.5193035165796,0,0
23.48,0.14349692,6.700094,7.2778034,1002.4988,5.688399961715382,1002.5191177220979,0,0
23.5,0.20086728,6.6571946,7.045819,1002.51666,5.688582223051362,1002.5189447062944,0,0
23.52,0.21521936,6.619062,7.0647573,1002.5241,5.688391034546004,1002.5188103885872,0,0
23.54,0.21524473,6.5952287,7.254136,1002.514,5.688126152580699,1002.5186743880624,0,0
23.56,0.25830096,6.6619595999999985,7.296749,1002.5063,5.68795809567104,1002.518509670202,0,0
23.58,0.07191402,6.5046625,7.547675,1002.51385,5.68804293551391,1002.5183473506876,0,0
23.6,0.29182303,6.5999928,7.2778172,1002.52655,5.688070397107122,1002.518233454702,0,0
23.62,0.25360996,6.752522,7.1783967,1002.5038,5.688108140271669,1002.5180808557724,0,0
23.64,0.29665357,6.6810226,7.282556,1002.5241,5.688214771699608,1002.5179676882776,0,0
23.66,0.11431824,6.5809419999999985,7.5097437,1002.51917,5.688586712897941,1002.5178720218007,0,0
23.68,0.11909424,6.609542,7.500274,1002.51654,5.689216311889199,1002.517782695624,0,0
23.7,0.26248455,6.771605,7.571289500000002,1002.5242,5.690410896986671,1002.5177268693097,0,0
23.72,0.30071914,6.5761759999999985,7.746462299999999,1002.53424,5.69211024438484,1002.5177369884487,0,0
23.74,0.257699,6.490378400000001,7.6565084,1002.51154,5.69398917500459,1002.5177236205617,0,0
23.76,0.19077604,6.6095424,6.7332993000000005,1002.5141,5.694765781213717,1002.5176987636627,0,0
23.78,-0.06255736,6.3235493,7.0363007,1002.51154,5.694614075908433,1002.5176546285576,0,0
23.8,0.018695518,6.6905737000000025,6.884799,1002.5141,5.693933139873415,1002.5176028341158,0,0
23.82,-0.014765024,6.5285106,7.301427,1002.5444,5.693190820591942,1002.5176535383442,0,0
23.84,-0.10080528,6.542811,8.002118,1002.53174,5.69352435684562,1002.5177490518628,0,0
23.86,0.16685988,6.7096399999999985,7.372442200000001,1002.5065,5.6940445454223765,1002.5177929510204,0,0
23.88,0.3054723,6.785905400000001,7.381911,1002.5266,5.694856061596322,1002.5178634456928,0,0
23.9,0.23377146,6.7668395000000015,7.1546593,1002.53436,5.6955456803874265,1002.5179851223807,0,0
23.92,0.12861199999999998,6.5952435,7.007892599999999,1002.509,5.69565449115697,1002.5180602894617,0,0
23.94,0.018672675,6.557111,7.112048599999999,1002.5166,5.695352346106657,1002.5181214500524,0,0
23.96,0.20508121,6.619076299999999,7.438722,1002.5115,5.695282239444497,1002.5181516543303,0,0
23.98,0.042564064000000006,6.647676,7.2540803,1002.51404,5.69516822293412,1002.5181635408742,0,0
24.0,0.0043218285,6.695341,6.960547,1002.4811,5.69463863335278,1002.5180406150772,0,0
24.02,-0.13429627,6.5523443,7.1688600000000005,1002.4989,5.6938582339552495,1002.5178630916292,0,0
24.04,-0.17732026,6.6619754,7.0504994000000005,1002.50885,5.692835379362996,1002.5176737847804,0,0
24.06,-0.30159703,6.5666447,7.1546564,1002.53674,5.6916317296536825,1002.5175751516234,0,0
24.08,0.042543128,6.9050702999999976,7.452922999999997,1002.53674,5.691195705872783,1002.5175569928202,0,0
24.1,-0.05305867,6.866937599999999,7.410313,1002.51654,5.69132079894912,1002.5175372865276,0,0
24.12,0.15247105,6.9050702999999976,7.39611,1002.5165,5.691975706497152,1002.5175161398157,0,0
24.14,0.15246911,6.738241,7.486063499999997,1002.51904,5.692999912606807,1002.517502940478,0,0
24.16,0.2624008,6.738241,7.5334067,1002.50635,5.694424663958171,1002.5174511269574,0,0
24.18,0.4690227,6.809712400000001,7.0363946,1002.50903,5.695559244139737,1002.5173750284737,0,0
24.2,0.44992316,6.776346,7.112147,1002.5115,5.696496947986074,1002.5172866377507,0,0
24.22,0.21099193,6.6476479999999984,6.979589,1002.50885,5.696856720477241,1002.517178163812,0,0
24.24,-0.16179344,6.437918700000001,6.951186,1002.4912,5.696361140623523,1002.5169887948504,0,0
24.26,-0.07095751,6.480817,7.0222034,1002.52155,5.695278144033892,1002.5168378887739,0,0
24.28,-0.21907246,6.552314,6.984334,1002.4811,5.6937282718763855,1002.5165758917656,0,0
24.3,-0.17125478,6.509414,7.0742892999999984,1002.4861,5.691845692640227,1002.5162346779983,0,0
24.32,0.03435546,6.8001723,7.093234,1002.52167,5.690115321809473,1002.5159527486728,0,0
24.34,0.115631774,6.8573710000000005,7.3678317,1002.53937,5.6890234805498485,1002.5157879380258,0,0
24.36,-0.051622063,6.8478365000000005,7.4814606,1002.50903,5.688658776846521,1002.5156179827612,0,0
24.38,0.36904,6.9431667,7.5856210000000015,1002.5216,5.6892448477519775,1002.5154893455513,0,0
24.4,0.35951978,6.9098,7.2494826,1002.51135,5.6901106245435535,1002.5153607800688,0,0
24.42,0.10624911,6.6476374000000025,7.0269704,1002.519,5.690497657447263,1002.5152602808,0,0
24.44,0.07282983,6.7906337,6.5014553,1002.4988,5.689894358459643,1002.5151122226351,0,0
24.46,-0.027506761,6.7953987000000025,7.079056,1002.52167,5.689273205716437,1002.5150050064392,0,0
24.48,-0.060926065,7.043259,6.7287135,1002.519,5.688489229366603,1002.5149246521856,0,0
24.5,0.197203,7.248221000000001,6.515667400000001,1002.51886,5.687579425342737,1002.514867818419,0,0
24.52,0.116005346,6.9908247,7.722945699999999,1002.5444,5.6879530697128144,1002.5149239159564,0,0
24.54,0.116005346,6.9908247,7.722945699999999,1002.5268,5.689459423964046,1002.5150162376433,0,0
24.56,0.38851315,7.16242,7.1311507,1002.53156,5.691331122256356,1002.5151573706302,0,0
24.58,0.24513869,7.000356,7.4814987,1002.51135,5.6937978934513165,1002.5152683692032,0,0
24.6,0.22129868,6.933623,7.03647,1002.52405,5.6960173274780574,1002.5153980614133,0,0
24.62,-0.094129086,6.628562,6.955989,1002.4962,5.6974446448113865,1002.5154435444284,0,0
24.64,-0.07499019,6.657160799999999,6.974928,1002.52155,5.698236067244839,1002.5155057164612,0,0
24.66,-0.39519775,6.5904284,7.1216984,1002.51135,5.6986061872573535,1002.51554569109,0,0
24.68,-0.22452772,6.833557000000001,6.2267675,1002.5013,5.697639293077293,1002.5155297281841,0,0
24.7,-0.16241689999999998,6.7048607,7.1689115,1002.51654,5.6966778370417535,1002.5155192603387,0,0
24.72,0.004858479000000001,6.9860883000000005,7.2825356,1002.5088,5.696295290900299,1002.5154858216137,0,0
24.74,-0.03338884,6.962256,7.1783776,1002.5316,5.696235555274957,1002.5155142861985,0,0
24.76,-0.07165392,6.8335589999999975,7.405627000000001,1002.5366,5.696620980719537,1002.5156153460747,0,0
24.78,3.424287e-05,6.8335589999999975,7.2067804,1002.5065,5.697095996648433,1002.5156718273358,0,0
24.8,0.009567216,6.8669257,6.979527,1002.52155,5.697356904048427,1002.5157428955997,0,0
24.82,0.03822829,6.8812265,7.168901400000001,1002.53674,5.697730824191562,1002.5158812810936,0,0
24.84,0.15770562,7.1815190000000015,6.880101,1002.50635,5.698223011489463,1002.5159692459039,0,0
24.86,0.1290179,7.1481533,6.951117,1002.5166,5.698869674365879,1002.5160492423247,0,0
24.88,0.1720184,6.957492,7.2020383,1002.5518,5.699741483450986,1002.5162486298905,0,0
24.9,0.29628444,6.9384265,7.093146000000001,1002.5267,5.700625306097339,1002.5164624336757,0,0
24.92,0.07638679400000001,6.6905660000000005,6.8138137,1002.5317,5.7007327659590885,1002.5167062059387,0,0
24.94,-0.024006829,6.8907614,6.83275,1002.51886,5.7004746817018095,1002.5169293567693,0,0
24.96,-0.17697832,6.6858005999999985,7.254110300000002,1002.5166,5.700232648789703,1002.5171253471589,0,0
24.98,0.009416297,7.024226,7.159421000000001,1002.50385,5.700344525800519,1002.5172507330172,0,0
25.0,-0.090968475,6.9479612999999985,7.173622999999999,1002.5014,5.700680056414488,1002.5173044613226,0,0
25.02,0.26271033,7.1624575,7.064728999999999,1002.5166,5.7013713129741275,1002.5173493995927,0,0
25.04,0.26747245,7.0766589999999985,7.1688848,1002.54694,5.7024015767332985,1002.5174956332097,0,0
25.06,0.16708763,6.990862,7.097867999999999,1002.5242,5.703492901171553,1002.5176489809539,0,0
25.08,0.023666888,6.814499400000001,7.1594130000000025,1002.52655,5.704468308034679,1002.5178165226893,0,0
25.1,0.13836445,7.071894,6.605485400000001,1002.519,5.70490939209358,1002.517968823085,0,0
25.12,0.028402314,6.800201,7.377191000000002,1002.55676,5.7056152182228805,1002.5182430439515,0,0
25.14,0.023613617000000003,6.8192676999999975,7.268298599999999,1002.51636,5.706413653889736,1002.518478566551,0,0
25.16,0.00082311034,6.881206,6.8375697,1002.5063,5.706738564774349,1002.5186428314804,0,0
25.18,-0.061286427,6.9813023,6.832837599999999,1002.51636,5.706785525655644,1002.5187797577784,0,0
25.2,-0.14250122,6.7811065,7.306282,1002.5063,5.70700323969634,1002.5188558187276,0,0
25.22,-0.16159256,6.738207000000001,7.036423700000001,1002.514,5.706902419175536,1002.5189055452347,0,0
