Timestamp,Ax,Ay,Az,P,Value,Type
0.0,-3.5110006,5.2011166,5.122681,1004.05835,0,0
0.04,-2.0866275,5.3727126,7.513555,1004.14795,0,0
0.08,-0.021761596,4.8579254,8.621405000000001,1004.22034,0,0
0.12,-0.22252163,3.0514004,6.803392,1004.1827,0,0
0.16,-1.3692337,0.8873728999999999,10.079641,1004.2029,0,0
0.2,-1.9953793,0.92550504,13.157004,1004.2853,0,0
0.24,-2.2821589,1.473659,13.251694,1004.29254,0,0
0.28,-1.655996,1.8788162,11.997077,1004.2797,0,0
0.32,-0.42757744,1.3258953000000002,11.570982,1004.18536,0,0
0.36,-0.10732058,1.5022577,11.277449,1004.0877,0,0
0.4,-0.65698856,2.1600423,9.023873,1004.1122,0,0
0.44,0.5762096999999999,4.643418,6.8839235,1004.12256,0,0
0.48,-0.049937956,3.0799873,8.720874,1004.14716,0,0
0.52,0.0026498884,3.3659804,9.478379,1004.19037,0,0
0.56,0.7817674,4.638651,7.911291599999997,1004.13245,0,0
0.6,-0.030790985,4.7816477,7.314758,1004.10474,0,0
0.64,0.30858397,4.729214700000001,8.503094,1004.1145,0,0
0.68,0.57147986,4.5909843,9.48785,1004.14246,0,0
0.72,-0.53742355,4.467054,8.593049,1004.1279,0,0
0.76,0.17477553,5.7158914,8.247438,1004.11237,0,0
0.8,-0.21237916,5.916087,8.441549,1004.1574,0,0
0.84,-0.15501317,5.5871944,7.433122,1004.1377,0,0
0.88,-0.08808762,5.4060644999999985,8.261643,1004.18787,0,0
0.92,-0.5230409,5.2630677000000015,8.441550999999999,1004.1849,0,0
0.96,-0.31272340000000004,5.5013957,7.3052955000000015,1004.175,0,0
1.0,0.08879176,5.768322,7.542016999999999,1004.1622,0,0
1.04,-0.23144673,5.9875836,7.527814,1004.18463,0,0
1.08,-0.25055763,5.9637504,7.442596000000001,1004.1673,0,0
1.12,-0.097594485,5.744489,7.778739999999999,1004.1754,0,0
1.16,0.20454489,6.1353215999999975,7.229641,1004.1954,0,0
1.2,-0.39288247,6.159153,7.314864999999997,1004.1477,0,0
1.24,-0.46453744,6.2115846,6.770412400000001,1004.1647,0,0
1.28,-0.4358104,5.920823,7.078153,1004.1927,0,0
1.32,-0.52179873,5.668195,8.171804,1004.1874,0,0
1.36,-0.3831393,5.6634264000000005,8.020308,1004.18964,0,0
1.4,0.12357108,5.4489307,8.167079,1004.2004,0,0
1.44,0.37694585,5.3535986,8.683133999999999,1004.1775,0,0
1.48,0.7832803,5.610991,8.27598,1004.1625,0,0
1.52,0.6638273,5.8540845,7.887761599999997,1004.17236,0,0
1.56,-0.45459867,6.1782093,7.3291062999999985,1004.19037,0,0
1.6,-0.44976765,6.0924096,8.37068,1004.2148,0,0
1.64,-0.49752057,5.4107910000000015,9.317566,1004.2148,0,0
1.68,-0.12943053,5.3631244,8.725769,1004.2223,0,0
1.72,0.4155153,5.7682805,8.744711,1004.19495,0,0
1.76,0.205252,5.935109,8.129242999999999,1004.1923,0,0
1.8,-0.74110395,5.4155526,8.010886,1004.16785,0,0
1.84,-0.53552127,5.51565,8.455925,1004.1802,0,0
1.88,-0.38730222,5.558547,8.209741000000001,1004.20233,0,0
1.92,-0.16260329999999998,5.672943599999999,7.755242,1004.1575,0,0
1.96,-0.038283244,5.406016,8.062983000000001,1004.1849,0,0
2.0,0.071700364,5.515645,8.228692,1004.1649,0,0
2.04,0.18646081,5.4918113,7.883083999999997,1004.1929,0,0
2.08,-0.014239818,5.5919075,7.6179614,1004.16785,0,0
2.12,-0.18626758,5.620506,8.001452,1004.1578,0,0
2.16,-0.044917256,5.706354,8.091219,1004.16296,0,0
2.2,-0.044953674000000006,5.6396235999999975,8.545719,1004.19763,0,0
2.24,-0.1931597,5.53476,8.607263,1004.1652,0,0
2.28,-0.39872772,5.334565,8.664073,1004.1923,0,0
2.32,-0.45611966,5.386998,8.332662,1004.12994,0,0
2.36,-0.28407663,5.529995400000002,8.100673,1004.15546,0,0
2.4,-0.50398403,5.363167,8.379999,1004.1782,0,0
2.44,-0.5565939999999999,5.3107357,8.256902,1004.1574,0,0
2.48,-0.42757362,5.353636,8.195352,1004.1374,0,0
2.52,-0.45628458,5.3345704000000005,8.219021000000001,1004.14795,0,0
2.56,-0.38940373,5.3298044,8.51255,1004.15784,0,0
2.6,-0.51371074,5.220174299999999,8.133795,1004.1679,0,0
2.64,-0.33689016,5.358405599999998,8.219011,1004.1249,0,0
2.68,-0.27000928,5.3393397,8.323164,1004.1178,0,0
2.72,-0.3369587,5.38224,8.465194,1004.1374,0,0
2.76,-0.36567175,5.3536415,8.512535,1004.15784,0,0
2.8,-0.22709171,5.420374400000001,8.559875,1004.16046,0,0
2.84,-0.22234616,5.520472,8.413105999999999,1004.16547,0,0
2.88,-0.22715592,5.468041,8.223727,1004.17303,0,0
2.92,-0.39448553,5.4108434,8.171645,1004.16534,0,0
2.96,-0.38974,5.468043,8.067486,1004.14795,0,0
3.0,-0.35153368,5.530009,8.062748,1004.17566,0,0
3.04,-0.5045195,5.315514599999998,8.441497,1004.20544,0,0
3.08,-0.42807907,5.344115,8.313665,1004.16296,0,0
3.12,-0.33251733,5.320283,8.176364,1004.158,0,0
3.16,-0.27952123,5.3441052,8.512546,1004.2157,0,0
3.2,-0.20783857,5.4299035,8.100651,1004.1761,0,0
3.24,-0.18873684,5.47757,8.237947,1004.156,0,0
3.28,-0.11227545,5.5490685,8.290024,1004.17847,0,0
3.32,-0.13618992,5.544302,8.043834,1004.18854,0,0
3.36,-0.26526216,5.434672,8.346834,1004.1736,0,0
3.4,-0.38955253,5.3345747,8.337363,1004.21185,0,0
3.44,-0.2652941,5.3774739999999985,8.427316000000001,1004.148,0,0
3.48,-0.3848057,5.27261,8.493596,1004.1736,0,0
3.52,-0.28444624,5.372708,8.072232000000001,1004.1761,0,0
3.56,-0.26534152,5.4108410000000005,8.209529,1004.1835,0,0
3.6,-0.27491862,5.45374,8.370497,1004.18646,0,0
3.64,-0.31317252,5.4489746,8.237932,1004.204,0,0
3.68,-0.4040053,5.468041,8.3989,1004.1843,0,0
3.72,-0.4613794,5.463275,8.1101,1004.2045,0,0
3.76,-0.62390924,5.3822436,8.185849000000001,1004.2043,0,0
3.8,-0.43751234,5.4823413,8.185847,1004.1586,0,0
3.84,-0.5570239,5.4013104000000025,8.493583000000001,1004.194,0,0
3.88,-0.4949019,5.4394436,8.185844,1004.18646,0,0
3.92,-0.50925887,5.4060783,8.271063,1004.16925,0,0
3.96,-0.4853753,5.358413,8.275796000000001,1004.169,0,0
4.0,-0.3850159,5.4203787000000005,8.114824,1004.15906,0,0
4.04,-0.42805064,5.3822465,8.275793,1004.1616,0,0
4.08,-0.30378908,5.482344,8.493574,1004.1536,0,0
4.12,-0.28468943,5.5824428,8.521978,1004.1436,0,0
4.16,-0.34058416,5.59194,8.446361999999999,1004.14435,0,0
4.2,-0.39312017,5.482308,8.512648,1004.15686,0,0
4.24,-0.43609655,5.5395059999999985,7.991867,1004.167,0,0
4.28,-0.43605733,5.496606,8.025011,1004.14404,0,0
4.32,-0.43601805,5.468005000000002,8.171781,1004.17926,0,0
4.36,-0.34038013,5.5156703,8.043956,1004.18225,0,0
4.4,-0.34989786,5.5013695,7.821442999999999,1004.17975,0,0
4.44,-0.35463846,5.5395010000000005,8.294887,1004.2049,0,0
4.48,-0.3498063,5.5299664,8.489002000000001,1004.17926,0,0
4.52,-0.4405808,5.4441676,8.271224,1004.192,0,0
4.56,-0.3258341,5.5108986,8.219147999999999,1004.1795,0,0
4.6,-0.21585941,5.5442634,8.129197999999999,1004.18756,0,0
4.64,-0.25405857,5.6491265,7.8451369999999985,1004.167,0,0
4.68,-0.36872935,5.4775295,7.935095299999999,1004.1597,0,0
4.72,-0.3352185,5.5919256,8.181289,1004.1695,0,0
4.76,-0.38298774,5.5871587,8.048729,1004.1548,0,0
4.8,-0.37816343,5.5633245,8.167092,1004.16455,0,0
4.84,-0.42591178,5.520424,8.252316,1004.1695,0,0
4.88,-0.47845823,5.4822907,8.138694000000001,1004.17255,0,0
4.92,-0.44972974,5.4489236,8.309136,1004.17896,0,0
4.96,-0.3732241,5.5537870000000025,8.086622,1004.1573,0,0
5.0,-0.4639855,5.5394864,8.257066,1004.1521,0,0
5.04,-0.43526477,5.63005,8.067694,1004.18976,0,0
5.08,-0.5977414000000001,5.4632196,8.233400999999999,1004.142,0,0
5.12,-0.35871202,5.596682,8.579016000000001,1004.21,0,0
5.16,-0.29422733,5.7206725999999986,8.256853999999999,1004.16504,0,0
5.2,-0.48548567,5.5681443,7.5230155,1004.155,0,0
5.24,-0.7388606,5.482347,7.930169599999997,1004.15027,0,0
5.28,-0.69112873,5.472816000000001,8.223697,1004.1495,0,0
5.32,-0.8584742,5.5014167,8.536162,1004.17224,0,0
5.36,-0.9971303,5.444219,8.403596,1004.1597,0,0
5.4,-0.8442462,5.396555,8.753935,1004.1625,0,0
5.44,-0.63877046,5.5872183,8.323099000000001,1004.1397,0,0
5.48,-0.7822168,5.3202925,8.966973,1004.16974,0,0
5.52,-0.6771029000000001,5.3965583,8.469858,1004.1675,0,0
5.56,-0.39994055,5.6158220000000005,7.399875,1004.1425,0,0
5.6,-0.5290475,5.60629,7.5466375,1004.1703,0,0
5.64,-0.5291102,5.420396,8.001134,1004.1928,0,0
5.68,-0.5578413000000001,5.5681605,7.1110615999999975,1004.1625,0,0
5.72,-0.4049399,5.7111583,8.029531500000001,1004.15497,0,0
5.76,-0.37153703,5.7302256,8.133683,1004.18,0,0
5.8,-0.27121687,5.8684572999999975,8.3703985,1004.1949,0,0
5.84,-0.37164852,5.601532,8.720739,1004.19507,0,0
5.88,-0.39082003,5.530034,8.242559,1004.1929,0,0
5.92,-0.25704128,5.5920014,8.484010000000001,1004.17255,0,0
5.96,-0.32879406,5.5395703,8.427191,1004.18066,0,0
6.0,-0.34796554,5.5729375,8.180997999999999,1004.1728,0,0
6.04,-3.5110006,5.2011166,5.122681,1004.05835,0,0
6.08,-2.0866275,5.3727126,7.513555,1004.14795,0,0
6.12,-0.021761596,4.8579254,8.621405000000001,1004.22034,0,0
6.16,-0.22252163,3.0514004,6.803392,1004.1827,0,0
6.2,-1.3692337,0.8873728999999999,10.079641,1004.2029,0,0
6.24,-1.9953793,0.92550504,13.157004,1004.2853,0,0
6.28,-2.2821589,1.473659,13.251694,1004.29254,0,0
6.32,-1.655996,1.8788162,11.997077,1004.2797,0,0
6.36,-0.42757744,1.3258953000000002,11.570982,1004.18536,0,0
6.4,-0.10732058,1.5022577,11.277449,1004.0877,0,0
6.44,-0.65698856,2.1600423,9.023873,1004.1122,0,0
6.48,0.5762096999999999,4.643418,6.8839235,1004.12256,0,0
6.52,-0.049937956,3.0799873,8.720874,1004.14716,0,0
6.56,0.0026498884,3.3659804,9.478379,1004.19037,0,0
6.6,0.7817674,4.638651,7.911291599999997,1004.13245,0,0
6.64,-0.030790985,4.7816477,7.314758,1004.10474,0,0
6.68,0.30858397,4.729214700000001,8.503094,1004.1145,0,0
6.72,0.57147986,4.5909843,9.48785,1004.14246,0,0
6.76,-0.53742355,4.467054,8.593049,1004.1279,0,0
6.8,0.17477553,5.7158914,8.247438,1004.11237,0,0
6.84,-0.21237916,5.916087,8.441549,1004.1574,0,0
6.88,-0.15501317,5.5871944,7.433122,1004.1377,0,0
6.92,-0.08808762,5.4060644999999985,8.261643,1004.18787,0,0
6.96,-0.5230409,5.2630677000000015,8.441550999999999,1004.1849,0,0
7.0,-0.31272340000000004,5.5013957,7.3052955000000015,1004.175,0,0
7.04,0.08879176,5.768322,7.542016999999999,1004.1622,0,0
7.08,-0.23144673,5.9875836,7.527814,1004.18463,0,0
7.12,-0.25055763,5.9637504,7.442596000000001,1004.1673,0,0
7.16,-0.097594485,5.744489,7.778739999999999,1004.1754,0,0
7.2,0.20454489,6.1353215999999975,7.229641,1004.1954,0,0
7.24,-0.39288247,6.159153,7.314864999999997,1004.1477,0,0
7.28,-0.46453744,6.2115846,6.770412400000001,1004.1647,0,0
7.32,-0.4358104,5.920823,7.078153,1004.1927,0,0
7.36,-0.52179873,5.668195,8.171804,1004.1874,0,0
7.4,-0.3831393,5.6634264000000005,8.020308,1004.18964,0,0
7.44,0.12357108,5.4489307,8.167079,1004.2004,0,0
7.48,0.37694585,5.3535986,8.683133999999999,1004.1775,0,0
7.52,0.7832803,5.610991,8.27598,1004.1625,0,0
7.56,0.6638273,5.8540845,7.887761599999997,1004.17236,0,0
7.6,-0.45459867,6.1782093,7.3291062999999985,1004.19037,0,0
7.64,-0.44976765,6.0924096,8.37068,1004.2148,0,0
7.68,-0.49752057,5.4107910000000015,9.317566,1004.2148,0,0
7.72,-0.12943053,5.3631244,8.725769,1004.2223,0,0
7.76,0.4155153,5.7682805,8.744711,1004.19495,0,0
7.8,0.205252,5.935109,8.129242999999999,1004.1923,0,0
7.84,-0.74110395,5.4155526,8.010886,1004.16785,0,0
7.88,-0.53552127,5.51565,8.455925,1004.1802,0,0
7.92,-0.38730222,5.558547,8.209741000000001,1004.20233,0,0
7.96,-0.16260329999999998,5.672943599999999,7.755242,1004.1575,0,0
8.0,-0.038283244,5.406016,8.062983000000001,1004.1849,0,0
8.04,0.071700364,5.515645,8.228692,1004.1649,0,0
8.08,0.18646081,5.4918113,7.883083999999997,1004.1929,0,0
8.12,-0.014239818,5.5919075,7.6179614,1004.16785,0,0
8.16,-0.18626758,5.620506,8.001452,1004.1578,0,0
8.2,-0.044917256,5.706354,8.091219,1004.16296,0,0
8.24,-0.044953674000000006,5.6396235999999975,8.545719,1004.19763,0,0
8.28,-0.1931597,5.53476,8.607263,1004.1652,0,0
8.32,-0.39872772,5.334565,8.664073,1004.1923,0,0
8.36,-0.45611966,5.386998,8.332662,1004.12994,0,0
8.4,-0.28407663,5.529995400000002,8.100673,1004.15546,0,0
8.44,-0.50398403,5.363167,8.379999,1004.1782,0,0
8.48,-0.5565939999999999,5.3107357,8.256902,1004.1574,0,0
8.52,-0.42757362,5.353636,8.195352,1004.1374,0,0
8.56,-0.45628458,5.3345704000000005,8.219021000000001,1004.14795,0,0
8.6,-0.38940373,5.3298044,8.51255,1004.15784,0,0
8.64,-0.51371074,5.220174299999999,8.133795,1004.1679,0,0
8.68,-0.33689016,5.358405599999998,8.219011,1004.1249,0,0
8.72,-0.27000928,5.3393397,8.323164,1004.1178,0,0
8.76,-0.3369587,5.38224,8.465194,1004.1374,0,0
8.8,-0.36567175,5.3536415,8.512535,1004.15784,0,0
8.84,-0.22709171,5.420374400000001,8.559875,1004.16046,0,0
8.88,-0.22234616,5.520472,8.413105999999999,1004.16547,0,0
8.92,-0.22715592,5.468041,8.223727,1004.17303,0,0
8.96,-0.39448553,5.4108434,8.171645,1004.16534,0,0
9.0,-0.38974,5.468043,8.067486,1004.14795,0,0
9.04,-0.35153368,5.530009,8.062748,1004.17566,0,0
9.08,-0.5045195,5.315514599999998,8.441497,1004.20544,0,0
9.12,-0.42807907,5.344115,8.313665,1004.16296,0,0
9.16,-0.33251733,5.320283,8.176364,1004.158,0,0
9.2,-0.27952123,5.3441052,8.512546,1004.2157,0,0
9.24,-0.20783857,5.4299035,8.100651,1004.1761,0,0
9.28,-0.18873684,5.47757,8.237947,1004.156,0,0
9.32,-0.11227545,5.5490685,8.290024,1004.17847,0,0
9.36,-0.13618992,5.544302,8.043834,1004.18854,0,0
9.4,-0.26526216,5.434672,8.346834,1004.1736,0,0
9.44,-0.38955253,5.3345747,8.337363,1004.21185,0,0
9.48,-0.2652941,5.3774739999999985,8.427316000000001,1004.148,0,0
9.52,-0.3848057,5.27261,8.493596,1004.1736,0,0
9.56,-0.28444624,5.372708,8.072232000000001,1004.1761,0,0
9.6,-0.26534152,5.4108410000000005,8.209529,1004.1835,0,0
9.64,-0.27491862,5.45374,8.370497,1004.18646,0,0
9.68,-0.31317252,5.4489746,8.237932,1004.204,0,0
9.72,-0.4040053,5.468041,8.3989,1004.1843,0,0
9.76,-0.4613794,5.463275,8.1101,1004.2045,0,0
9.8,-0.62390924,5.3822436,8.185849000000001,1004.2043,0,0
9.84,-0.43751234,5.4823413,8.185847,1004.1586,0,0
9.88,-0.5570239,5.4013104000000025,8.493583000000001,1004.194,0,0
9.92,-0.4949019,5.4394436,8.185844,1004.18646,0,0
9.96,-0.50925887,5.4060783,8.271063,1004.16925,0,0
10.0,-0.4853753,5.358413,8.275796000000001,1004.169,0,0
10.04,-0.3850159,5.4203787000000005,8.114824,1004.15906,0,0
10.08,-0.42805064,5.3822465,8.275793,1004.1616,0,0
10.12,-0.30378908,5.482344,8.493574,1004.1536,0,0
10.16,-0.28468943,5.5824428,8.521978,1004.1436,0,0
10.2,-0.34058416,5.59194,8.446361999999999,1004.14435,0,0
10.24,-0.39312017,5.482308,8.512648,1004.15686,0,0
10.28,-0.43609655,5.5395059999999985,7.991867,1004.167,0,0
10.32,-0.43605733,5.496606,8.025011,1004.14404,0,0
10.36,-0.43601805,5.468005000000002,8.171781,1004.17926,0,0
10.4,-0.34038013,5.5156703,8.043956,1004.18225,0,0
10.44,-0.34989786,5.5013695,7.821442999999999,1004.17975,0,0
10.48,-0.35463846,5.5395010000000005,8.294887,1004.2049,0,0
10.52,-0.3498063,5.5299664,8.489002000000001,1004.17926,0,0
10.56,-0.4405808,5.4441676,8.271224,1004.192,0,0
10.6,-0.3258341,5.5108986,8.219147999999999,1004.1795,0,0
10.64,-0.21585941,5.5442634,8.129197999999999,1004.18756,0,0
10.68,-0.25405857,5.6491265,7.8451369999999985,1004.167,0,0
10.72,-0.36872935,5.4775295,7.935095299999999,1004.1597,0,0
10.76,-0.3352185,5.5919256,8.181289,1004.1695,0,0
10.8,-0.38298774,5.5871587,8.048729,1004.1548,0,0
10.84,-0.37816343,5.5633245,8.167092,1004.16455,0,0
10.88,-0.42591178,5.520424,8.252316,1004.1695,0,0
10.92,-0.47845823,5.4822907,8.138694000000001,1004.17255,0,0
10.96,-0.44972974,5.4489236,8.309136,1004.17896,0,0
11.0,-0.3732241,5.5537870000000025,8.086622,1004.1573,0,0
11.04,-0.4639855,5.5394864,8.257066,1004.1521,0,0
11.08,-0.43526477,5.63005,8.067694,1004.18976,0,0
11.12,-0.5977414000000001,5.4632196,8.233400999999999,1004.142,0,0
11.16,-0.35871202,5.596682,8.579016000000001,1004.21,0,0
11.2,-0.29422733,5.7206725999999986,8.256853999999999,1004.16504,0,0
11.24,-0.48548567,5.5681443,7.5230155,1004.155,0,0
11.28,-0.7388606,5.482347,7.930169599999997,1004.15027,0,0
11.32,-0.69112873,5.472816000000001,8.223697,1004.1495,0,0
11.36,-0.8584742,5.5014167,8.536162,1004.17224,0,0
11.4,-0.9971303,5.444219,8.403596,1004.1597,0,0
11.44,-0.8442462,5.396555,8.753935,1004.1625,0,0
11.48,-0.63877046,5.5872183,8.323099000000001,1004.1397,0,0
11.52,-0.7822168,5.3202925,8.966973,1004.16974,0,0
11.56,-0.6771029000000001,5.3965583,8.469858,1004.1675,0,0
11.6,-0.39994055,5.6158220000000005,7.399875,1004.1425,0,0
11.64,-0.5290475,5.60629,7.5466375,1004.1703,0,0
11.68,-0.5291102,5.420396,8.001134,1004.1928,0,0
11.72,-0.5578413000000001,5.5681605,7.1110615999999975,1004.1625,0,0
11.76,-0.4049399,5.7111583,8.029531500000001,1004.15497,0,0
11.8,-0.37153703,5.7302256,8.133683,1004.18,0,0
11.84,-0.27121687,5.8684572999999975,8.3703985,1004.1949,0,0
11.88,-0.37164852,5.601532,8.720739,1004.19507,0,0
11.92,-0.39082003,5.530034,8.242559,1004.1929,0,0
11.96,-0.25704128,5.5920014,8.484010000000001,1004.17255,0,0
12.0,-0.32879406,5.5395703,8.427191,1004.18066,0,0
12.04,-0.34796554,5.5729375,8.180997999999999,1004.1728,0,0
12.08,-0.3767001,5.5300400000000005,8.379837,1004.16284,0,0
12.12,-0.49147117,5.329846,8.389301,1004.1675,0,0
12.16,-0.54410124,5.3822800000000015,8.233061,1004.18787,0,0
12.2,-0.544157,5.220217,8.323008999999999,1004.14484,0,0
12.24,-0.50119454,5.229752,8.180972,1004.15497,0,0
12.28,-0.48213106,5.1439557,8.512375,1004.15753,0,0
12.32,-0.55388045,5.306019999999998,8.171494000000001,1004.1597,0,0
12.36,-0.5395933,5.4680839999999975,8.100472,1004.1703,0,0
12.4,-0.38669878,5.4633193,8.772752,1004.20526,0,0
12.44,-0.33211607,5.425137,8.706655,1004.17474,0,0
12.48,-0.3846839,5.410837,7.8591967,1004.16754,0,0
12.52,-0.58542573,5.3488717,8.20481,1004.1347,0,0
12.56,-0.5519576999999999,5.3679375999999985,8.522016,1004.1824,0,0
12.6,-0.31773803,5.472802,8.285296,1004.1628,0,0
12.64,-0.36552674,5.5442996,8.346845,1004.1573,0,0
12.68,-0.51846987,5.448969,8.237954,1004.17,0,0
12.72,-0.4037453,5.4775677000000025,8.247423,1004.1625,0,0
12.76,-0.4467535,5.5014005,8.323174,1004.1675,0,0
12.8,-0.24121132,5.4871,8.152738000000001,1004.1728,0,0
12.84,-0.34635764,5.5014,8.242692,1004.16,0,0
12.88,-0.35112750000000004,5.506166,8.228489999999999,1004.1575,0,0
12.92,-0.43237424,5.396535,8.223756,1004.1548,0,0
12.96,-0.4706033,5.3488690000000005,8.417867999999999,1004.17285,0,0
13.0,-0.33675888,5.5347652,8.081725,1004.16,0,0
13.04,-0.29851043,5.4537325,8.593041,1004.1653,0,0
13.08,-0.13598777,5.6062627,8.157477,1004.15015,0,0
13.12,-0.17899668,5.563363,8.162212,1004.15015,0,0
13.16,-0.2602428,5.453732,8.23323,1004.1903,0,0
13.2,-0.2889116,5.4203663,8.005980000000001,1004.15784,0,0
13.24,-0.40361762,5.367934,8.252169,1004.1828,0,0
13.28,-0.35102975,5.3202677000000005,8.304249,1004.1601,0,0
13.32,-0.26976317,5.425132,8.507829,1004.13763,0,0
13.36,-0.14547889,5.4966300000000015,8.323188,1004.1775,0,0
13.4,-0.25062525,5.5204625,8.190625,1004.14996,0,0
13.44,-0.33187133,5.4823294,8.219033,1004.16504,0,0
13.48,-0.33705842,5.525239,8.209527,1004.155,0,0
13.52,-0.5043575,5.3870087,8.271074,1004.19745,0,0
13.56,-0.39442837,5.4346747,8.550403,1004.17535,0,0
13.6,-0.2701598,5.4013085,8.308948,1004.14496,0,0
13.64,-0.16978985,5.558605,8.04382,1004.17285,0,0
13.68,-0.37532735,5.410842400000001,8.048554,1004.15015,0,0
13.72,-0.24149919,5.415609,8.23793,1004.1725,0,0
13.76,-0.41357845,5.2440133,8.237929,1004.16724,0,0
13.8,-0.14113562,5.530007,8.346821,1004.17004,0,0
13.84,-0.17460096,5.5538397,8.200052000000001,1004.1725,0,0
13.88,-0.26542357,5.3536444,8.450975,1004.1675,0,0
13.92,-0.2845487,5.4823413,8.290007000000001,1004.1575,0,0
13.96,-0.40882957,5.3917775,7.9443936,1004.1626,0,0
14.0,-0.46619403,5.301213,8.48885,1004.17725,0,0
14.04,-0.37060344,5.439443,8.076956,1004.16754,0,0
14.08,-0.47098643,5.3536453,8.252127999999999,1004.1775,0,0
14.12,-0.4375338,5.4918755999999975,8.280534,1004.17755,0,0
14.16,-0.38974208,5.4394436,8.408362,1004.175,0,0
14.2,-0.40886724,5.4394436,8.4272995,1004.16504,0,0
14.24,-0.4232126,5.434677,8.356282,1004.16754,0,0
14.28,-0.44233775,5.372712,8.242657000000001,1004.16,0,0
14.32,-0.3610874,5.4728103,8.304203999999999,1004.1573,0,0
14.36,-0.38021338,5.4346776,8.28053,1004.1497,0,0
14.4,-0.35632026,5.377479,8.342077,1004.2102,0,0
14.44,-0.43280345,5.4203787000000005,8.323139,1004.1949,0,0
14.48,-0.41375536,5.3917813,8.218975,1004.17004,0,0
14.52,-0.45678192,5.3536487,8.195303,1004.1625,0,0
14.56,-0.41855234,5.2630844,8.0438,1004.1626,0,0
14.6,-0.34686357,5.320283,8.2947235,1004.1678,0,0
14.64,-0.32775384,5.539545,8.114816000000001,1004.1725,0,0
14.68,-0.5285139,5.382249,8.540911999999999,1004.18744,0,0
14.72,-0.3564504000000001,5.4060817000000005,8.318394,1004.1678,0,0
14.76,-0.31822032,5.4299145,8.252110499999999,1004.14996,0,0
14.8,-0.34690797,5.3774824,8.60719,1004.1778,0,0
14.84,-0.33735728,5.3488836,8.12428,1004.1678,0,0
14.88,-0.38516364,5.296451599999998,8.313656,1004.16,0,0
14.92,-0.42341042,5.2201867,8.47936,1004.18256,0,0
14.96,-0.38996065,5.3345847,8.209497,1004.1725,0,0
15.0,-0.31827247,5.358418,8.384669,1004.185,0,0
15.04,-0.38519862,5.387017299999999,8.342058999999999,1004.16974,0,0
15.08,-0.4138863,5.201122,8.574044,1004.1597,0,0
15.12,-0.2752809,5.391784,8.318385000000001,1004.1497,0,0
15.16,-0.28007066,5.320286,8.209493,1004.17224,0,0
15.2,-0.28007790000000005,5.377485,8.450948,1004.1425,0,0
15.24,-0.13669485,5.310753,8.446212,1004.13007,0,0
15.28,-0.29921484,5.220189,8.479352,1004.157,0,0
15.32,-0.24186774,5.286921,8.299443,1004.175,0,0
15.36,-0.28011453,5.2535553,8.280505,1004.17004,0,0
15.4,-0.3518182,5.353653400000002,8.379928,1004.18005,0,0
15.44,-0.26579064,5.429918,8.129002999999999,1004.18994,0,0
15.48,-0.46050525,5.277357599999998,8.559948,1004.19525,0,0
15.52,-0.2979589,5.344089,8.413185,1004.17725,0,0
15.56,-0.33614922,5.3297877,8.432127000000001,1004.1522,0,0
15.6,-0.3647976,5.363153,8.294832000000001,1004.16675,0,0
15.64,-0.4460035,5.253521,8.470011,1004.16187,0,0
15.68,-0.28823190000000004,5.3345513,8.417933999999999,1004.1548,0,0
15.72,-0.22606656,5.4775475999999985,8.067591,1004.1775,0,0
15.76,-0.3407413,5.2582846,8.380067,1004.16504,0,0
15.8,-0.16383526,5.525211,8.138617,1004.17505,0,0
15.84,-0.3071888,5.344081,8.389544,1004.14185,0,0
15.88,-0.1828784,5.382212,8.252248,1004.1845,0,0
15.92,-0.30233294,5.415577,8.195439,1004.19226,0,0
15.96,-0.26405394,5.4155760000000015,8.2996,1004.19226,0,0
16.0,-0.2831325,5.315477400000002,8.271197,1004.17474,0,0
16.04,-0.19705802,5.439407,8.559999000000001,1004.14685,0,0
16.08,-0.14443956,5.415572599999999,8.446378,1004.17206,0,0
16.12,-0.16829805,5.434638,8.266474,1004.152,0,0
16.16,-0.23517467,5.3917384,8.384838,1004.1596,0,0
16.2,-0.4167717000000001,5.3154726,8.39431,1004.1597,0,0
16.24,-0.3259098,5.363137,8.26175,1004.17975,0,0
16.28,-0.48360527,5.3107038,8.399052000000001,1004.167,0,0
16.32,-0.32104883,5.4441667,8.470073,1004.167,0,0
16.36,-0.35924917,5.482298,8.148136000000001,1004.1824,0,0
16.4,-0.24449587,5.472764,8.337515,1004.1596,0,0
16.44,-0.3496135,5.3488326,8.309113,1004.18475,0,0
16.48,-0.19326831,5.5109296,8.077,1004.14185,0,0
16.52,-0.18850279,5.3584,8.427342999999999,1004.18475,0,0
16.56,-0.37493032,5.434665,8.162216,1004.18475,0,0
16.6,-0.46098107,5.6014953,7.916025599999997,1004.1601,0,0
16.64,-0.62828946,5.296436,8.479419,1004.17456,0,0
16.68,-0.46579134,5.372701,8.593043,1004.17255,0,0
16.72,-0.43234694,5.3059699999999985,8.157477,1004.1695,0,0
16.76,-0.47060156,5.277371,8.451008999999999,1004.1472,0,0
16.8,-0.37023902,5.391769,8.417866,1004.19226,0,0
16.84,-0.38937342,5.3727026,8.342114,1004.1471,0,0
16.88,-0.21731669,5.534766,8.209549,1004.17224,0,0
16.92,-0.28902796,5.4108357000000025,8.280564,1004.1496,0,0
16.96,-0.16954812,5.477568,8.237953,1004.15393,0,0
17.0,-0.28905840000000005,5.348871,8.048575999999999,1004.1395,0,0
17.04,-0.32731116,5.3298054000000015,8.266357000000001,1004.1745,0,0
17.08,-0.30820715,5.305973000000002,8.432058999999999,1004.18256,0,0
17.12,-0.10746966,5.577667,8.119588,1004.19995,0,0
17.16,-0.27955878,5.410838,8.427322,1004.177,0,0
17.2,-0.23177499,5.439438,8.100647,1004.17706,0,0
17.24,-0.3799641,5.387006,7.9964895,1004.1596,0,0
17.28,-0.28438324,5.4680376,8.147988,1004.1522,0,0
17.32,-0.4994887,5.5681357,8.005955,1004.16974,0,0
17.36,-0.10278021,5.9303946,8.247408,1004.18005,0,0
17.4,0.20789187,5.825531,8.62616,1004.17456,0,0
17.44,0.4707678,5.6396356,8.588284,1004.16974,0,0
17.48,0.8528119000000001,5.5347795,7.911232000000001,1004.14655,0,0
17.52,1.0057377,5.4299154000000005,8.005918,1004.1695,1,1
17.56,0.929233,5.568146700000002,7.537209,1004.1745,1,1
17.6,0.9722251,5.73021,7.698175999999999,1004.1497,1,1
17.64,0.8192434000000001,5.8636746,7.3667655,1004.17706,1,1
17.68,0.8000980999999999,6.254533,7.6366243,1004.1775,1,1
17.72,0.5276196,6.3498645,7.816528999999999,1004.16205,1,1
17.76,-0.12723969,5.8970423,8.233153999999999,1004.1745,1,1
17.8,-0.29933876,5.9399424000000005,8.962251,1004.1895,1,1
17.84,-0.3997426,6.1973367,8.166867,1004.177,1,1
17.88,-0.8156116,6.020975,8.327835,1004.1718,1,1
17.92,-1.0355123,6.3689337,7.257857,1004.16205,1,1
17.96,-1.5995553999999998,6.0686417,7.485105499999999,1004.17206,1,1
18.0,-1.5852438,5.8541474,8.308889,1004.169,1,1
18.04,-1.4944555,5.282161,9.771818,1004.2122,1,1
18.08,-0.5719812,6.054344,8.635557,1004.16437,1,1
18.12,-0.54333025,5.41086,8.285211,1004.1715,1,1
18.16,-0.3617238,5.3107624000000015,7.7170787,1004.14655,1,1
18.2,-0.11798174,5.5204916,6.4151154,1004.13934,1,1
18.24,-0.1132281,5.5300255,7.144211,1004.172,1,1
18.28,-0.95928305,4.800743,8.933813,1004.18365,1,1
18.32,-0.964089,5.1105695,7.6555214,1004.1795,1,1
18.36,-0.5243732,5.5204945,9.435656,1004.197,1,1
18.4,-0.36666754,5.4489965,9.8144045,1004.2043,1,1
18.44,-0.12292544,4.638683,8.280455,1004.162,1,1
18.48,1.1311985,4.9627643,10.193321,1004.1718,1,1
18.52,0.4907493,4.700603,8.981317500000003,1004.14355,1,1
18.56,-0.10190475,4.8149989999999985,8.067581,1004.1596,1,1
18.6,0.29486334,5.062858599999998,7.79299,1004.167,1,1
18.64,0.1562934,4.8149967,9.180175,1004.19934,1,1
18.68,-0.24038866,4.714898000000002,8.408471,1004.169,1,1
18.72,-0.59882677,4.762562,7.982377499999999,1004.15686,1,1
18.76,-0.058667347,5.3059487,7.4473944,1004.14935,1,1
18.8,0.39067858,5.78737,7.5894303,1004.15393,1,1
18.84,-0.10160237,5.3488455,8.791972,1004.1815,1,1
18.88,-0.26884840000000004,5.5013742,9.308027,1004.212,1,1
18.92,0.4051484,5.9923286,9.416923,1004.1616,1,1
18.96,-0.31178057,5.5156717,10.321197,1004.18933,1,1
19.0,-1.0382692,5.7587657,7.911389999999999,1004.13184,1,1
19.04,-0.78966945,4.900784,9.123402,1004.16925,1,1
19.08,-1.0142814,4.8626504,8.659433,1004.1745,1,1
19.12,-1.0811541999999998,5.3679047,7.807245,1004.13116,1,1
19.16,-1.1480271999999998,5.015178,8.233345,1004.1541,1,1
19.2,-0.37843433,4.762549400000001,7.816722,1004.1895,1,1
19.24,-0.3497166,4.409823,8.157602,1004.13116,1,1
19.28,-0.71771437,4.2477593,7.267538,1004.16925,1,1
19.32,-0.2444611,4.6862807,7.357497,1004.1416,1,1
19.36,-0.11058222,4.6958129999999985,8.077131,1004.1845,1,1
19.4,-0.49292213,4.552815,9.573207,1004.16864,1,1
19.44,-0.53113,4.9722714,8.792033,1004.17645,1,1
19.48,-0.90965426,5.916073,9.757768,1004.192,1,1
19.52,-0.8331714,6.378428,9.516313,1004.1815,1,1
19.56,-1.0052384,5.3011865999999985,10.074973,1004.1611,1,1
19.6,-0.44599468,3.8807526,11.400607,1004.2143,1,1
19.64,0.075010315,4.1619787000000015,7.4663176999999985,1004.12115,1,1
19.68,-0.17831333,5.196322,6.6377974,1004.1296,1,1
19.72,0.11325945,5.730176,6.552578,1004.14905,1,1
19.76,-0.05880715,5.5156803,7.366896,1004.15686,1,1
19.8,-0.8809259,4.9484606,8.768281,1004.2043,1,1
19.84,-0.6945071999999999,5.52998,7.0496925999999975,1004.15607,1,1
19.88,-0.6849411999999999,5.849339,6.8224415999999986,1004.13654,1,1
19.92,-0.9143655,5.491847,7.830871000000001,1004.16144,1,1
19.96,-1.6361097,5.5299797,7.7787929999999985,1004.2015,1,1
20.0,-1.1055454,6.3545933,7.561011,1004.1645,1,1
20.04,-0.98126453,5.782607,10.127058,1004.21655,1,1
20.08,-1.5596148,5.8541050000000014,8.910317,1004.1611,1,1
20.12,-1.7746993000000002,5.577645,8.162281,1004.14435,1,1
20.16,-2.5824811000000003,3.9760814,11.424287,1004.2265,1,1
20.2,-1.8750628,5.7206410000000005,7.376372,1004.12646,1,1
20.24,-2.137946,5.3202496,8.219096,1004.1514,1,1
20.28,-1.3014736999999998,4.262074,8.181222,1004.1845,1,1
20.32,-0.54625875,4.3145065,9.928218,1004.18146,1,1
20.36,-0.2833628,4.0761786,8.03919,1004.17413,1,1
20.4,-0.16386217,4.0666449999999985,7.390578,1004.1321,1,1
20.44,0.17073046,4.3288054,8.384803,1004.1943,1,1
20.48,-0.07878673,4.5194917000000006,7.513584,1004.16925,1,1
20.52,-0.59025544,4.6100574,7.523050299999999,1004.15906,1,1
20.56,-0.6285255999999999,5.0533476,8.834477,1004.202,1,1
20.6,-0.3991267,5.7969313,9.7008705,1004.23926,1,1
20.64,-0.0024366379,5.7778654000000005,10.202714,1004.19403,1,1
20.68,-0.012025952,5.3059773,9.4215355,1004.19653,1,1
20.72,0.5232804,5.64917,8.602481,1004.1743,1,1
20.76,0.1647654,5.2964454000000005,8.749244000000001,1004.1686,1,1
20.8,-0.7912271,4.672027,7.508827,1004.15393,1,1
20.84,-0.4423331,5.33458,8.252125999999999,1004.14856,1,1
20.88,-1.1306566,5.22495,7.75501,1004.1611,1,1
20.92,-1.259739,4.9532566,7.139535,1004.1416,1,1
20.96,-1.57046,4.5909986,7.55616,1004.17645,1,1
21.0,-0.9013171,5.3107495,6.604542,1004.16187,1,1
21.04,-0.6480172,5.4680467,8.072205,1004.17926,1,1
21.08,-1.451058,5.258319,8.4651575,1004.2086,1,1
21.12,-1.3220328,5.1296230000000005,9.430973,1004.20654,1,1
21.16,-1.2981656,4.99616,10.884433,1004.22406,1,1
21.2,-0.51430744,5.844608,9.520921,1004.1666,1,1
21.24,-1.0257782,5.3250537000000016,9.6582155,1004.1686,1,1
21.28,-1.240901,3.8712552,9.610868,1004.1866,1,1
21.32,-1.2457125,4.085751,9.180036,1004.17413,1,1
21.36,-1.2983221,4.7626023,9.161095,1004.1761,1,1
21.4,-0.8012521,4.9246664,8.313634,1004.18176,1,1
21.44,-1.2888238,4.0619206,10.425175,1004.1891,1,1
21.48,-0.86241597,4.1333942000000015,8.465223,1004.15106,1,1
21.52,-0.3318494,4.190593,9.317417,1004.16113,1,1
21.56,-0.43699622,4.4289203,8.30899,1004.1461,1,1
21.6,-0.064163715,4.98184,6.6046042,1004.13116,1,1
21.64,-0.35572284,4.6291150000000005,7.925503999999999,1004.1661,1,1
21.68,-0.6042638000000001,5.077171,7.665113000000002,1004.1686,1,1
21.72,-0.12627453,5.734956,7.731395699999997,1004.1605,1,1
21.76,0.0362477,5.477562,9.203795,1004.16595,1,1
21.8,-0.08323909,6.0447817000000015,7.7550693,1004.148,1,1
21.84,-0.1358075,6.612002,9.14225,1004.18317,1,1
21.88,-0.0019646585,6.2783422,8.308996,1004.16315,1,1
21.92,-0.31742284,4.8865075,10.013383,1004.21857,1,1
21.96,0.52861136,5.2153997,9.970774,1004.1804,1,1
22.0,1.7044514,6.0209480000000015,8.148028,1004.16644,1,1
22.04,1.1452231000000002,5.382229,8.195374000000001,1004.1507,1,1
22.08,0.71982956,5.4394274000000005,6.8034589999999975,1004.12604,1,1
22.12,0.2896561,5.2010994,6.869742,1004.13605,1,1
22.16,-0.37950757,5.1200676,7.660388,1004.1736,1,1
22.2,-0.34604055,5.2964296,7.674592,1004.15857,1,1
22.24,0.050691426,5.7873855,7.792953,1004.1711,1,1
22.28,0.031580552000000005,6.283107,7.46628,1004.17365,1,1
22.32,0.8632757999999999,6.41657,8.200113,1004.18146,0,0
22.36,0.3470654,6.035246,8.768244000000001,1004.18304,0,0
22.4,0.5430467,6.283106299999999,6.694574,1004.1006,0,0
22.44,-0.016182005,5.7397184,7.7124724,1004.1611,0,0
22.48,-0.17881587,5.973283,7.338443300000002,1004.15045,0,0
22.52,-0.21705101,6.111513,6.9549565000000015,1004.1383,0,0
22.56,0.04584226,5.877951,8.512577,1004.17334,0,0
22.6,0.0936441,5.6348567,8.228513000000001,1004.1736,0,0
22.64,0.27050066,6.0257144,8.039137,1004.18066,0,0
22.68,0.012394801,6.1544113,7.4473357,1004.16064,0,0
22.72,-0.12621568,5.8541183,8.635672,1004.18567,0,0
22.76,-0.27916586,5.782620400000001,8.181169500000001,1004.1458,0,0
22.8,-0.2791611,5.739721,8.119622999999999,1004.16565,0,0
22.84,-0.1309843,5.6968217,8.612,1004.1729,0,0
22.88,0.18448631,5.8588843,7.977591,1004.1429,0,0
22.92,0.69592935,6.225909,7.7503405,1004.13043,0,0
22.96,0.39002532,5.78262,8.290063,1004.1757,0,0
23.0,0.15103908,5.6062565000000015,7.8876386,1004.1427,0,0
23.04,0.19884066,5.8302846,8.247454,1004.1477,0,0
23.08,0.04589051,5.668222,7.8118880000000015,1004.16296,0,0
23.12,0.32312316,5.668222,8.436831,1004.1779,0,0
23.16,0.069798335,5.911316,7.641450999999999,1004.1399,0,0
23.2,0.06024231,5.7254205,7.7882175,1004.1727,0,0
23.24,0.18930055,5.7206535,8.493644999999999,1004.1802,0,0
23.28,0.03157018,5.9637475,7.7692809999999985,1004.1502,0,0
23.32,0.41395926,6.230675,7.7976875,1004.16534,0,0
23.36,0.21321128,5.930382,8.095955,1004.1832,0,0
23.4,-0.07357339,5.739719,7.9633927,1004.1599,0,0
23.44,0.02749388,6.0638285000000005,7.5752343999999985,1004.15717,0,0
23.48,-0.24492128,6.178225,7.381127,1004.1602,0,0
23.52,-0.354827,6.101959,7.89718,1004.1777,0,0
23.56,-0.47429633,6.073359,8.001339,1004.1727,0,0
23.6,-0.5746346,6.116257,7.698340400000001,1004.16534,0,0
23.64,-0.69888765,6.0542912000000015,7.6225924,1004.1274,0,0
23.68,-0.71318954,5.982792400000001,7.977676,1004.1698,0,0
23.72,-0.6701455,5.935126,7.674676400000001,1004.1625,0,0
23.76,-0.521934,6.1305537,7.8877277,1004.1954,0,0
23.8,-0.5697003,5.8922253,7.835653,1004.162,0,0
23.84,-0.4836321,6.0447545,8.096047,1004.1419,0,0
23.88,-0.5361802,5.8779244,7.617875,1004.1673,0,0
23.92,-0.5648273,5.6824946,7.2912050000000015,1004.1444,0,0
23.96,-0.19675273,5.8874559999999985,7.239128599999999,1004.1495,0,0
24.0,-0.39747083,5.606228,7.9587617,1004.17,0,0
24.04,-0.30662286,5.7110915,8.735207,1004.20746,0,0
24.08,-0.10584137,5.9637184,8.607380000000001,1004.17194,0,0
24.12,-0.08669239,5.792121400000001,8.924588,1004.1625,0,0
24.16,0.16189106,5.9684834,8.190759,1004.17944,0,0
24.2,0.09500353,5.9970818,7.935103999999999,1004.1318,0,0
24.24,-0.029241659,5.835018,8.181295,1004.16693,0,0
24.28,-0.2108445,5.487059,8.062939,1004.1544,0,0
24.32,-0.07219651,5.610988,8.4701,1004.16693,0,0
24.36,-0.053045556,5.6014550000000005,7.7220664,1004.14136,0,0
24.4,0.12861864,5.725384,8.171839,1004.162,0,0
24.44,-0.28860050000000004,5.4918566,7.8213663,1004.1647,0,0
24.48,-0.42723858,5.5061574,7.9918027,1004.18207,0,0
24.52,-0.21217282,5.653921,8.342146000000001,1004.1974,0,0
24.56,-0.2026386,5.5919566,8.299534,1004.18463,0,0
24.6,-0.08316726,5.720654,8.261657000000001,1004.16693,0,0
24.64,0.012401879,5.76832,8.129091,1004.1919,0,0
24.68,0.012379646,5.625324,8.323199,1004.17444,0,0
24.72,0.026693732,5.668224,8.280588,1004.1519,0,0
24.76,0.23697974,5.6968239999999986,7.9491773,1004.1419,0,0
24.8,0.17003866,5.7015910000000005,8.252175999999999,1004.16693,0,0
24.84,0.20825334,5.825522,7.9681106,1004.17944,0,0
24.88,-0.15982012,5.5490623,8.209562,1004.1974,0,0
24.92,-0.20764193,5.4155992999999985,8.25217,1004.18195,0,0
24.96,-0.0499338,5.8445897,7.67457,1004.1644,0,0
25.0,-0.116874784,5.701594,8.280572,1004.1817,0,0
25.04,-0.112117186,5.6634617,8.152741,1004.18463,0,0
25.08,-0.21252006,5.5824313,8.247425999999999,1004.1539,0,0
25.12,-0.09783009,5.6968293,8.058048,1004.1717,0,0
25.16,-0.13131408,5.6205645,8.223749,1004.1614,0,0
25.2,0.03117387,5.7111300000000025,8.219013,1004.1814,0,0
25.24,-0.054884776,5.663465,7.911274400000001,1004.1542,0,0
25.28,-0.14094824,5.582433999999999,8.2379465,1004.1569,0,0
25.32,-0.07405634,5.6301003,8.024896,1004.15924,0,0
25.36,-0.035843268,5.6348677,8.285286,1004.1664,0,0
25.4,0.0023713857,5.6539345,8.375237,1004.1714,0,0
25.44,-0.031112604,5.5681367,8.484126,1004.1542,0,0
25.48,0.055968583,5.7111077,7.849811,1004.1542,0,0
25.52,-0.025272638,5.6300764,7.7787967,1004.1539,0,0
25.56,-0.13997145,5.620543,8.138613000000001,1004.2046,0,0
25.6,-0.14473374,5.563344,8.119677000000001,1004.17944,0,0
25.64,-0.10647985,5.749239,7.8829584000000015,1004.14905,0,0
25.68,-0.22117865,5.5728754999999985,7.878225,1004.1564,0,0
25.72,-0.20682484,5.6253075999999975,8.077072,1004.17944,0,0
25.76,-0.22114667,5.6396074,8.077074,1004.1814,0,0
25.8,-0.22113124,5.62054,8.38481,1004.17426,0,0
25.84,-0.13985915,5.682505,8.384812,1004.1764,0,0
25.88,0.089588925,5.811202,7.8403573,1004.1764,0,0
25.92,-0.13504535,5.6062393,8.2333145,1004.15137,0,0
25.96,-0.12068946,5.658671,8.048675,1004.1689,0,0
26.0,-0.24972871,5.54904,8.36588,1004.16425,0,0
26.04,0.20436911,5.8112,8.9340105,1004.1664,0,0
26.08,-0.31661403,5.6110044000000014,7.92085,1004.1237,0,0
26.12,-0.30703792,5.839799,7.53263,1004.164,0,0
26.16,-0.5460116,5.6014705000000005,7.6036477,1004.1739,0,0
26.2,-0.55555475,5.4775395,7.868775999999999,1004.15894,0,0
26.24,-0.44560277,5.57287,8.351686500000001,1004.18353,0,0
26.28,-0.4599278,5.5633370000000015,7.944528,1004.1587,0,0
26.32,-0.26394036,5.644368,8.465314999999999,1004.18616,0,0
26.36,-0.28782183,5.630068,8.119705,1004.18146,0,0
26.4,-0.12050913,5.7587647,7.935065299999999,1004.1461,0,0
26.44,-0.15395439,5.706332,8.148114,1004.1789,0,0
26.48,-0.22686288,5.6157975,7.863939,1004.16364,0,0
26.52,-0.26513305,5.601498,8.138532000000001,1004.164,0,0
26.56,-0.21258497,5.687297,8.072247500000001,1004.15607,0,0
26.6,-0.13613979999999998,5.687298,8.332638000000001,1004.17615,0,0
26.64,-0.18396954,5.6491656,8.299494000000001,1004.146,0,0
26.68,-0.24135888,5.6158013,8.076972999999999,1004.16864,0,0
26.72,-0.23661077,5.6205683,7.920735,1004.141,0,0
26.76,-0.07412719999999999,5.7397327,8.048561,1004.151,0,0
26.8,-0.26056728,5.5681376,8.285279,1004.1809,0,0
26.84,-0.18890391,5.6968355000000015,8.252135,1004.1759,0,0
26.88,-0.25585485,5.582439,8.1101,1004.1534,0,0
26.92,-0.18418556,5.668238,8.190582000000001,1004.17615,0,0
26.96,-0.2941547,5.5586075999999975,8.100626,1004.1765,0,0
27.0,-0.050416455,5.7445045,8.266326,1004.1684,0,0
27.04,-0.05044815,5.7302050000000015,8.072212,1004.1784,0,0
27.08,-0.15084979,5.7016063,8.058007,1004.14557,0,0
27.12,-0.13655397,5.653942,8.133754,1004.17615,0,0
27.16,-0.19394135,5.5681443,8.086407000000001,1004.19116,0,0
27.2,-0.093589246,5.615811,8.361,1004.1655,0,0
27.24,-0.18443722,5.653944,8.157418,1004.1759,0,0
27.28,-0.19881627,5.568147,8.176352,1004.146,0,0
27.32,-0.103243984,5.653946,8.020114,1004.1684,0,0
27.36,-0.1988777,5.6110477,8.261565,1004.16113,0,0
27.4,-0.25626507,5.5776825,8.252092999999999,1004.17346,0,0
27.44,-0.13545501,5.5967160000000025,8.17173,1004.17053,0,0
27.48,-0.14978014,5.5585833,8.351638000000001,1004.1734,0,0
27.52,-0.06850065,5.730179,7.925544,1004.1784,0,0
27.56,-0.12104855,5.7158785000000005,8.195408,1004.1734,0,0
27.6,-0.21662182,5.620547,8.162269,1004.1684,0,0
27.64,-0.25006044,5.5871806,8.190678,1004.17053,0,0
27.68,-0.14966172,5.7015777000000005,8.195414,1004.1909,0,0
27.72,-0.18787733,5.6729774000000015,8.133868,1004.17804,0,0
27.76,-0.19263431,5.6872764,7.8214,1004.17096,0,0
27.8,-0.1973913,5.5824120000000015,8.432139999999999,1004.1756,0,0
27.84,-0.13045266,5.6491430000000005,8.067592999999999,1004.1959,0,0
27.88,-0.11130919,5.6539087,8.133877,1004.1631,0,0
27.92,-0.13996658,5.6777415,8.024988,1004.1506,0,0
27.96,-0.19252157,5.6634407,8.039193,1004.1784,0,0
28.0,-0.25463623,5.587176,8.346932,1004.1606,0,0
28.04,-0.17335816,5.6777396,8.119682000000001,1004.186,0,0
28.08,-0.254592,5.687272,8.261716,1004.18604,0,0
28.12,-0.06815825,5.8684005999999975,7.873497,1004.17554,0,0
28.16,-0.28322655,5.6062393,8.280658,1004.1835,0,0
28.2,-0.08245343,5.8112010000000005,8.086549,1004.1955,0,0
28.24,-0.3262006,5.7111025,8.356411999999999,1004.18054,0,0
28.28,-0.32139796,5.7158685,7.537362,1004.18304,0,0
28.32,-0.28313667,5.6825023,8.318541999999999,1004.18335,0,0
28.36,-0.35481090000000004,5.668202,7.7882895,1004.1934,0,0
28.4,-0.2161738,5.730166400000001,7.92559,1004.1854,0,0
28.44,-0.25439224,5.6157694000000005,8.091295,1004.1759,0,0
28.48,-0.10199921,5.8159785,8.124385,1004.1754,0,0
28.52,-0.13545784,5.7730794,8.247479,1004.1934,0,0
28.56,-0.25973275,5.5871835,8.294824,1004.1704,0,0
28.6,-0.25973275,5.6539154,7.930275,1004.18054,0,0
28.64,-0.19281548,5.677748,8.318497,1004.1976,0,0
28.68,-0.21671453,5.7301800000000025,7.7977114,1004.1884,0,0
28.72,-0.31231058,5.5871835,7.9350095,1004.17804,0,0
28.76,-0.2023751,5.5681167,8.370574000000001,1004.1704,0,0
28.8,-0.10199921,5.7301800000000025,8.171729,1004.18054,0,0
28.84,-0.0781002,5.7015805,7.9066033,1004.17303,0,0
28.88,-0.25017312,5.515685,8.3327,1004.1804,0,0
28.92,-0.13545784,5.5490513,8.114917,1004.1801,0,0
28.96,-0.08765979,5.6205497000000015,8.266417500000001,1004.1801,0,0
29.0,-0.1975953,5.4298863,8.209605,1004.17554,0,0
29.04,-0.17847607,5.515685,7.991822,1004.1901,0,0
29.08,-0.011182934,5.711114,8.181198,1004.1701,0,0
29.12,0.03661512,5.649149,8.413184,1004.2005,0,0
29.16,0.11309196,5.6539154,8.209605,1004.18054,0,0
29.2,0.022275686,5.611016,8.20487,1004.18054,0,0
29.24,0.050954506,5.5776505,8.294824,1004.1829,0,0
29.28,-0.025522336,5.639616,8.105447999999999,1004.1581,0,0
29.32,-0.03986176,5.5919504,8.280621,1004.1849,0,0
29.36,-0.2023751,5.4680195,8.256949,1004.1824,0,0
29.4,-0.23105389,5.425121,8.40845,1004.16986,0,0
29.44,-0.106779024,5.658681400000001,8.214339,1004.1674,0,0
29.48,-0.03934396,5.696801,7.8024936,1004.1623,0,0
29.52,-0.16837712,5.4584737,8.432171,1004.1854,0,0
29.56,-0.03452485,5.6062355,8.062889,1004.1399,0,0
29.6,-0.13487919,5.5347376,8.280673,1004.1849,0,0
29.64,-0.17787711,5.6062346,7.982408,1004.1471,0,0
29.68,-0.04880341,5.5299697,8.271208999999999,1004.1674,0,0
29.72,0.06114988,5.6538997,8.020287,1004.14996,0,0
29.76,-0.08700123400000001,5.6109996,8.266478,1004.1955,0,0
29.8,-0.058303386,5.587167,8.14812,1004.1674,0,0
29.84,-0.11086097,5.630065,8.318561,1004.1905,0,0
29.88,0.00865446,5.668197,7.916136999999999,1004.1524,0,0
29.92,-0.24465483,5.4632344,8.318564,1004.1801,0,0
29.96,-0.13470037,5.653897,8.029766,1004.1676,0,0
30.0,-0.27807546,5.5728645,8.072377000000001,1004.1901,0,0
30.04,-0.2780552,5.496599,8.313834,1004.1799,0,0
30.08,-0.12986094,5.6395955,7.9540215,1004.1901,0,0
30.12,-0.03902436,5.758759,8.100791000000001,1004.157,0,0
30.16,-0.17761964,5.6348276,7.972963,1004.1874,0,0
30.2,-0.12502149,5.744458,7.920886500000001,1004.1471,0,0
30.24,-0.17279926,5.663426,8.228624,1004.1824,0,0
30.28,-0.21101743,5.7301574,8.228626,1004.1521,0,0
30.32,-0.32093385,5.591927,8.389598,1004.14935,0,0
30.36,-0.1106022,5.72539,8.015582,1004.16205,0,0
30.4,-0.230077,5.510895,8.039255,1004.1595,0,0
30.44,-0.11056162,5.5919256,8.010850999999999,1004.152,0,0
30.48,-0.20219876,5.68251,7.816664999999999,1004.1795,0,0
30.52,-0.12573454,5.4489493,8.962391,1004.167,0,0
30.56,-0.14486565,5.5681133,8.261697,1004.17706,0,0
30.6,-0.0110446215,5.749243,7.920819,1004.16455,0,0
30.64,-0.27394575,5.4298835,8.436867999999999,1004.15674,0,0
30.68,-0.011069178999999998,5.5776477,8.095989,1004.1748,0,0
30.72,-0.04931871,5.425118,8.0013,1004.1873,0,0
30.76,-0.020653352,5.663446,8.081783999999999,1004.15436,0,0
30.8,-0.020665258,5.63008,8.238017999999999,1004.16425,0,0
30.84,-0.10671519,5.5728817,8.470003,1004.1695,0,0
30.88,-0.20232236,5.52045,8.252219,1004.1923,0,0
30.92,-0.16409738,5.439419,8.413188,1004.1595,0,0
30.96,-0.068513975,5.5585833,8.176466,1004.16675,0,0
31.0,0.022289604,5.5681167,8.119652,1004.1468,0,0
31.04,-0.07331834,5.549051,8.342168,1004.17426,0,0
31.08,-0.09723085,5.45372,8.077041,1004.16925,0,0
31.12,-0.06378646,5.529985400000001,8.290088,1004.17175,0,0
31.16,0.060478926,5.663449,8.043897,1004.17444,0,0
31.2,0.02222544,5.5776515,8.498399000000001,1004.17926,0,0
31.24,0.15127064,5.6825156,8.214334,1004.18176,0,0
31.28,0.03654346,5.630084,8.157519,1004.15924,0,0
31.32,0.03174703,5.6729835999999985,8.02022,1004.16925,0,0
31.36,-0.078201175,5.549053,8.323221,1004.16174,0,0
31.4,-0.006516769499999999,5.5299873,8.048625,1004.15643,0,0
31.44,0.10340999,5.5442870000000015,7.7361526,1004.17194,0,0
31.48,-0.04852636,5.482297,8.148139,1004.17444,0,0
31.52,0.018425748,5.5823936,7.9919076,1004.1514,0,0
31.56,-0.1344983,5.5156617,7.9729724000000015,1004.16925,0,0
31.6,-0.029323429,5.610992,8.067661,1004.16925,0,0
31.64,-0.04362967,5.5156603,8.299650999999999,1004.17426,0,0
31.68,0.109353706,5.715854,8.361201,1004.15643,0,0
31.72,0.056803748,5.672955,8.11028,1004.1589,0,0
31.76,0.037708983,5.777818700000001,8.039267,1004.1739,0,0
31.8,-0.10087742,5.534724,8.285459,1004.16925,0,0
31.84,-0.02915071,5.6300545,8.441696,1004.192,0,0
31.88,0.028231353,5.8016489999999985,7.797819,1004.17676,0,0
31.92,0.0043602586,5.73015,8.394358,1004.1814,0,0
31.96,0.15734185,5.7301497,8.257061,1004.1739,0,0
32.0,0.037876442,5.577619,8.370689,1004.16425,0,0
32.04,0.09048042,5.625284,7.840439,1004.139,0,0
32.08,-0.062447116,5.4775199999999975,7.930395,1004.17645,0,0
32.12,-0.028962322,5.6062164,7.958804,1004.1589,0,0
32.16,-0.11018933,5.6062155,8.0724325,1004.16925,0,0
32.2,-0.1722989,5.5585494,8.654767,1004.1739,0,0
32.24,-0.019318998,5.873142,8.635831,1004.20386,0,0
32.28,-0.07664700599999999,5.7063117,8.796804,1004.17896,0,0
32.32,-0.04794199,5.668178599999999,9.147153,1004.1789,0,0
32.36,-0.095712125,5.711077,8.010898,1004.14386,0,0
32.4,-0.033548504,5.7968745,7.201317,1004.14874,0,0
32.44,0.189849,6.0256996,7.485266,1004.1589,0,0
32.48,-0.025266245,6.04,7.570483,1004.1637,0,0
32.52,0.008169785,6.1686974,7.461589999999997,1004.17365,0,0
32.56,-0.006193756999999999,5.7397075,8.588376,1004.18365,0,0
32.6,-0.034895144,5.9732699999999985,7.1633179999999985,1004.1689,0,0
32.64,0.11803447,6.011403,7.7267103000000015,1004.1589,0,0
32.68,-0.14966014,6.0733685,7.0354842999999985,1004.14136,0,0
32.72,-0.011068404,6.211599,7.4426417,1004.15375,0,0
32.76,-0.1544851,5.9923387,7.721969,1004.1662,0,0
32.8,-0.14017132,6.092437,7.6604204,1004.1637,0,0
32.84,-0.13541408,6.016172,7.849794,1004.1739,0,0
32.88,-0.32663184,5.897009400000001,7.935011,1004.1585,0,0
32.92,-0.2645155,6.044773,7.916071,1004.1637,0,0
32.96,-0.054228187,6.0543065,7.849786999999999,1004.16394,0,0
33.0,-0.19764641,5.9065437,8.242742,1004.17365,0,0
33.04,-0.08773349,6.1401057,7.594125,1004.1662,0,0
33.08,-0.15467335,5.96851,7.85925,1004.1812,0,0
33.12,-0.2024985,5.8016815,7.9965449999999985,1004.16833,0,0
33.16,-0.14516342,5.7587833,7.944464,1004.1637,0,0
33.2,-0.11172891,5.76355,8.105432,1004.17096,0,0
33.24,-0.08307268,5.835049,7.887647,1004.16846,0,0
33.28,-0.07353718,5.9113145,8.077022,1004.17096,0,0
33.32,-0.23129325,5.787385,7.958659599999999,1004.1608,0,0
33.36,-0.24565679,5.630089,8.398956,1004.15826,0,0
33.4,-0.11662464,5.7540197,8.048608999999999,1004.1533,0,0
33.44,-0.15010887,5.739721,8.157497,1004.1408,0,0
33.48,-0.067774095,5.7539940000000005,8.048705,1004.17596,0,0
33.52,-0.08687546,5.77306,8.427458999999999,1004.1935,0,0
33.56,-0.00559859,5.787359,8.039239,1004.14044,0,0
33.6,-0.110736474,5.6777277,8.181273,1004.1812,0,0
33.64,-0.1919753,5.70156,8.001368,1004.1689,0,0
33.68,-0.17761561,5.715859,7.949291,1004.1857,0,0
33.72,-0.16325842,5.6157613,8.361186,1004.17096,0,0
33.76,-0.13934156,5.610994,7.8877473,1004.1583,0,0
33.8,-0.32573372,5.4775300000000025,8.313846,1004.17584,0,0
33.84,-0.18710153,5.6348257,8.039251,1004.1757,0,0
33.88,-0.3543768,5.6252923,8.176551,1004.18335,0,0
33.92,-0.17750508,5.7587557,8.2381,1004.1683,0,0
33.96,-0.28264052,5.4679947,8.342258000000001,1004.1583,0,0
34.0,-0.07231016,5.6729565000000015,8.091337,1004.16284,0,0
34.04,-0.19656603,5.577625,8.261777,1004.16046,0,0
34.08,0.042441964000000006,5.715854,8.162355999999999,1004.1807,0,0
34.12,-0.043576658,5.7015543,8.124483,1004.16327,0,0
34.16,-0.08657462,5.6824879999999975,7.9777184,1004.16583,0,0
34.2,-0.057877995,5.606222,8.190767999999998,1004.196,0,0
34.24,-0.11999641,5.510891,8.167098,1004.1679,0,0
34.28,-0.16299686,5.5728555,7.977722999999999,1004.13544,0,0
34.32,-0.09606053,5.620521,8.181303999999999,1004.1909,0,0
34.36,0.023453593,5.7539835,8.418026,1004.15295,0,0
34.4,0.1525261,5.7444506,8.081884,1004.16547,0,0
34.44,0.023490429,5.6586523,7.9729958,1004.1454,0,0
34.48,-0.09647046,5.5871654,8.124454,1004.1708,0,0
34.52,-0.09169065,5.6348305,8.290159,1004.1857,0,0
34.56,-0.00087438524,5.6634297,8.020296,1004.16284,0,0
34.6,-0.034333013,5.4918337,8.427456,1004.16034,0,0
34.64,0.046923637,5.6920294999999985,7.660482400000001,1004.1683,0,0
34.68,-0.029553205,5.4966006,8.233345,1004.17285,0,0
34.72,0.046923637,5.5394998,8.171797999999999,1004.19324,0,0
34.76,0.06604287,5.5966983,8.124454,1004.16547,0,0
34.8,-0.053452216,5.553799,8.204939,1004.1778,0,0
34.84,-0.1490483,5.506133599999999,8.3375025,1004.15784,0,0
34.88,-0.07257145,5.5252,8.290159,1004.18286,0,0
34.92,-0.07735126,5.630064,8.275955999999999,1004.16547,0,0
34.96,-0.058232024,5.6109977,8.167064,1004.17035,0,0
35.0,-0.058232024,5.591932,8.152861,1004.16,0,0
35.04,-0.1490483,5.5252,8.176533000000001,1004.1804,0,0
35.08,-0.19684635,5.506133599999999,8.252283,1004.17035,0,0
35.12,-0.029553205,5.6252975,8.432191,1004.1653,0,0
35.16,0.013465017,5.696796,8.105516,1004.15784,0,0
35.2,-0.058232024,5.6252975,8.077110000000001,1004.1678,0,0
35.24,-0.23030496,5.5109005,8.39905,1004.1903,0,0
35.28,-0.1538281,5.577632,7.8025145999999985,1004.17004,0,0
35.32,-0.22552514,5.5823984000000015,8.261751,1004.1625,0,0
35.36,-0.12992910000000002,5.6538973,8.195471000000001,1004.14496,0,0
35.4,-0.19684635,5.6634297,8.053438,1004.19293,0,0
35.44,-0.20640597,5.6348305,8.4748,1004.1675,0,0
35.48,-0.06314212,5.658666,8.05816,1004.1778,0,0
35.52,-0.14918370000000006,5.6729665,8.001347,1004.1725,0,0
35.56,-0.07271128,5.706332700000001,7.679407,1004.1497,0,0
35.6,-0.21132939,5.5824018,8.2143955,1004.17,0,0
35.64,-0.15397808,5.658667,8.072362,1004.185,0,0
35.68,-0.24001992,5.6014686,8.247535000000001,1004.17004,0,0
35.72,-0.13008891,5.711099,8.034486,1004.18744,0,0
35.76,-0.13009429,5.6348343000000005,8.138641,1004.17035,0,0
35.8,-0.020163864,5.7635317000000015,7.9682026,1004.19495,0,0
35.84,-0.20180117,5.6491346,8.086563,1004.1522,0,0
35.88,-0.28306288,5.6539015999999975,8.157577999999999,1004.1497,0,0
35.92,-0.22571029,5.763532,8.02028,1004.1625,0,0
35.96,-0.31175125,5.6014695,8.280671,1004.185,0,0
36.0,-0.22094,5.6825013,8.285406,1004.1522,0,0
36.04,-0.21138552,5.6110024,8.21439,1004.1775,0,0
36.08,-0.09667562,5.739699400000001,8.148108,1004.16956,0,0
36.12,-0.25919336,5.6014695,8.029746000000001,1004.1497,0,0
36.16,-0.14926326,5.730167,7.878245,1004.1625,0,0
36.2,-0.22096506,5.663435,8.275935,1004.18994,0,0
36.24,-0.3070063,5.682502,8.010807000000002,1004.17474,0,0
36.28,-0.25921366,5.577637,8.323277000000001,1004.16473,0,0
36.32,-0.20664091,5.639603,8.100760000000001,1004.1723,0,0
36.36,-0.19230625,5.7158675,7.9066496,1004.15497,0,0
36.4,-0.10149503,5.7349343,8.114963000000001,1004.185,0,0
36.44,-0.1629499,5.7063184,8.001399000000001,1004.1522,0,0
36.48,-0.35412067,5.615753,8.328075,1004.1725,0,0
36.52,-0.23938254,5.7253833,8.020341,1004.18463,0,0
36.56,-0.3301774,5.568086599999999,8.252328,1004.15906,0,0
36.6,-0.12940142,5.6777167,8.204987,1004.18,0,0
36.64,-0.12937999,5.687249,8.015613,1004.16956,0,0
36.68,-0.08155912,5.6967816,8.25707,1004.172,0,0
36.72,-0.048077688,5.682482,8.091368,1004.18463,0,0
36.76,-0.11019373,5.73968,8.138714,1004.175,0,0
36.8,-0.14362949,5.7539787,7.7646976,1004.17224,0,0
36.84,-0.20574418,5.66818,8.266546,1004.17474,0,0
36.88,-0.24873953,5.701545200000001,8.209736,1004.15906,0,0
36.92,-0.2104826,5.720611,8.133987,1004.1571,0,0
36.96,-0.17699824,5.6920114,8.200271,1004.169,0,0
37.0,-0.06704136,5.7063107,7.991959,1004.1516,0,0
37.04,-0.20563288,5.6205120000000015,8.029836999999999,1004.18207,0,0
37.08,-0.11001536,5.7444425,7.7457743,1004.16205,0,0
37.12,-0.18646795,5.64911,8.176607,1004.1695,0,0
37.16,-0.1768855,5.7349076,8.138734,1004.18976,0,0
37.2,-0.17208433,5.7825727,8.06772,1004.14655,0,0
37.24,-0.13382307,5.7539725,7.958831299999999,1004.18896,0,0
37.28,-0.2485184,5.587143,8.290242,1004.16156,0,0
37.32,-0.20069751,5.663407,8.044054,1004.1567,0,0
37.36,-0.042939745,5.6920056,8.17662,1004.14905,0,0
37.4,-0.009459704,5.75397,8.067731,1004.16473,0,0
37.44,0.009683788,5.8445344000000015,8.034591,1004.1665,0,0
37.48,0.013642937,5.730157,8.313847,1004.164,0,0
37.52,-0.038945034,5.649126,8.328049,1004.1596,0,0
37.56,-0.13455126,5.6014614,8.034513,1004.14667,0,0
37.6,-0.0915425,5.6205273,7.9303565,1004.15906,0,0
37.64,-0.13935006,5.6729593000000005,8.053450999999999,1004.16156,0,0
37.68,-0.09156218,5.653894,7.9682302,1004.187,0,0
37.72,-0.14892995,5.5919285000000025,8.337513000000001,1004.1563,0,0
37.76,0.12350933,5.8779225,8.067652,1004.1342,0,0
37.8,-0.09637237,5.6729603,8.148135,1004.1717,0,0
37.84,-0.005565613499999999,5.7921247000000005,8.091321,1004.16156,0,0
37.88,-0.077272855,5.634828,8.162336,1004.15894,0,0
37.92,-0.07250315,5.6538954000000015,8.1860075,1004.1665,0,0
37.96,-0.086852685,5.649129,7.9634895,1004.1666,0,0
38.0,-0.024724752000000003,5.653896,8.119723,1004.15894,0,0
38.04,-0.039074317,5.7253942,7.939816,1004.1641,0,0
38.08,0.008713573,5.8207254,8.167066,1004.1687,0,0
38.12,-0.07255260000000001,5.7110953,8.176534,1004.1613,0,0
38.16,-0.06300312,5.6300635,8.133924,1004.1891,0,0
38.2,-0.086912274,5.6681967,8.129189,1004.16144,0,0
38.24,-0.053463154000000006,5.6586633,8.152859,1004.17413,0,0
38.28,-0.03435409,5.7492285,7.6604804999999985,1004.1563,0,0
38.32,-0.16341832,5.582399,8.266483000000001,1004.17413,0,0
38.36,-0.1443092,5.6252985,8.318562,1004.17377,0,0
38.4,-0.02482424,5.753995400000001,8.034495,1004.1838,0,0
38.44,-0.020054623,5.730163,8.129183,1004.18396,0,0
38.48,-0.11017001,5.7349124000000025,8.200263,1004.1662,0,0
38.52,-0.06713511,5.7587449999999984,8.044027999999999,1004.1662,0,0
38.56,-0.071897134,5.644347,8.157657,1004.16644,0,0
38.6,-0.076659195,5.6634126,8.091376,1004.14856,0,0
38.64,-0.14833845,5.696778299999999,7.868861,1004.16644,0,0
38.68,-0.11008229,5.682478400000001,8.205006,1004.16644,0,0
38.72,-0.15308496,5.630046,8.186069,1004.1666,0,0
38.76,-0.10526808,5.7206097,8.2050085,1004.1636,0,0
38.8,-0.18650806,5.644345,7.977759,1004.17896,0,0
38.84,-0.04309617,5.7301416,8.190808,1004.1637,0,0
38.88,-0.057417817,5.7349086,8.110325,1004.1762,0,0
38.92,-0.08130021,5.7158419999999985,8.029841000000001,1004.1814,0,0
38.96,-0.10518147,5.7158413,8.214485,1004.1585,0,0
39.0,-0.023903668,5.7396736,8.053517999999999,1004.1812,0,0
39.04,-0.14816083,5.6395754999999985,8.318646000000001,1004.1786,0,0
39.08,-0.052550323,5.725373,7.8736130000000015,1004.15826,0,0
39.12,-0.14335102,5.658641,8.148211,1004.18097,0,0
39.16,-0.009497672,5.777804,7.835741,1004.1812,0,0
39.2,-0.3440617,5.491810299999999,8.195559,1004.16315,0,0
39.24,-0.14329441,5.801636,8.058261,1004.1661,0,0
39.28,0.05269642,5.815935,8.351796,1004.1838,0,0
39.32,-0.052442633,5.6300397,8.309188,1004.18097,0,0
39.36,-0.09066216,5.706303599999999,7.9919850000000014,1004.1786,0,0
39.4,-0.06674763,5.706303599999999,7.8546886,1004.14276,0,0
39.44,-0.023716062000000003,5.749202,7.9588466,1004.1761,0,0
39.48,-0.009418711,5.7635026,8.096141000000001,1004.18066,0,0
39.52,-0.08110058,5.69677,7.9967194,1004.15826,0,0
39.56,-0.16234772,5.591906,8.266582000000001,1004.15045,0,0
39.6,-0.057172045,5.844533,7.963581,1004.17566,0,0
39.64,-0.21011153,5.6872363,8.053535,1004.15796,0,0
39.68,0.076691985,5.8874309999999985,7.9541144,1004.18097,0,0
39.72,-0.124045536,5.7635,8.04407,1004.1532,0,0
39.76,-0.10013038,5.8635980000000005,8.034602,1004.1482,0,0
39.8,-0.28652936,5.6824684,7.949384700000001,1004.16565,0,0
39.84,-0.2291565,5.854064,7.897307400000001,1004.1407,0,0
39.88,-0.31039703,5.696767,8.247655,1004.13794,0,0
39.92,-0.18132706,5.8063974,7.9825296,1004.1532,0,0
39.96,-0.104836896,5.7634983,8.006203,1004.1556,0,0
40.0,-0.0761419,5.792097,7.9446573,1004.17596,0,0
40.04,-0.03788922,5.9017277,7.7174070000000015,1004.1507,0,0
40.08,-0.15736909,5.811163,8.058286,1004.19104,0,0
40.12,-0.21471155,5.8397617,7.9115205,1004.16565,0,0
40.16,-0.25771550000000004,5.7825627,8.205055,1004.1781,0,0
40.2,-0.20034263,5.792095,8.105634,1004.1852,0,0
40.24,-0.2051072,5.7539625,7.939931,1004.1628,0,0
40.28,-0.11427571,5.706297,8.006214,1004.16064,0,0
40.32,0.07693072,5.9064918,7.8594490000000015,1004.16315,0,0
40.36,0.019588307,5.815926599999999,7.897325500000001,1004.14276,0,0
40.4,0.06740059,5.9160247,7.8547173,1004.1677,0,0
40.44,0.014837012,5.815926,7.963609,1004.17316,0,0
40.48,-0.09150343,5.7778225,8.309113,1004.17316,0,0
40.52,-0.12499182,5.75399,7.845138499999999,1004.1681,0,0
40.56,-0.091566846,5.7635245,8.048716,1004.1681,0,0
40.6,-0.12983303,5.7349260000000015,8.072384,1004.18317,0,0
40.64,-0.15854749,5.8159585,8.067647000000001,1004.16315,0,0
40.68,-0.18725608,5.839792,8.043972,1004.16785,0,0
40.72,-0.16816658,5.7396946,8.129189,1004.14026,0,0
40.76,-0.15385884,5.7110963,7.982419,1004.15784,0,0
40.8,-0.120431915,5.7825956,7.8687906,1004.16254,0,0
40.84,-0.15870205,5.758764,8.100774000000001,1004.1927,0,0
40.88,-0.08703472,5.868395,7.9729424,1004.16785,0,0
40.92,-0.087064445,5.82073,8.110236,1004.16284,0,0
40.96,-0.03452027,5.7968980000000006,8.010811,1004.17316,0,0
41.0,-0.015430763,5.839798,8.006074,1004.15027,0,0
41.04,-0.10627873,5.7540007000000015,7.9681954,1004.1677,0,0
41.08,-0.17322773,5.777834,8.1481,1004.1753,0,0
41.12,-0.17325746,5.692037,8.242785000000001,1004.1677,0,0
41.16,-0.11593147,5.7826023,8.020266000000001,1004.2006,0,0
41.2,0.06566936,5.877934,7.854559,1004.18036,0,0
41.24,-0.02039881,5.7444715,8.024995,1004.17285,0,0
41.28,-0.010870889,5.734939,8.029725,1004.17505,0,0
41.32,-0.12561591,5.677741,8.162286,1004.16754,0,0
41.36,-0.07784958,5.7587733,8.086533,1004.1906,0,0
41.4,-0.02530142,5.77784,7.972904700000001,1004.1475,0,0
41.44,-0.029865399,5.7683015,8.020268,1004.15753,0,0
41.48,-0.005986600999999999,5.720637,8.129158,1004.20544,0,0
41.52,-0.0442466,5.730170200000001,8.048671,1004.1603,0,0
41.56,-0.02514892,5.7254043,8.114951,1004.16254,0,0
41.6,-0.068187386,5.734938,7.8971663,1004.16785,0,0
41.64,0.032168314,5.81597,7.996587299999999,1004.15283,0,0
41.68,-0.029990725,5.6634400000000005,8.271180000000001,1004.17285,0,0
41.72,-0.13516797,5.7444725,8.238037,1004.1979,0,0
41.76,-0.04437326,5.715873200000001,7.8450804,1004.17,0,0
41.8,-0.0013752282,5.696808,8.261705000000001,1004.1728,0,0
41.84,-0.034854107,5.701575,7.8971550000000015,1004.16284,0,0
41.88,-0.0635558,5.644377,7.9066215,1004.1903,0,0
41.92,-0.03967703,5.7301755,8.043918,1004.155,0,0
41.96,-0.020579353,5.7492423,8.247494999999999,1004.165,0,0
42.0,-0.03015919,5.749243,8.266430999999999,1004.1773,0,0
42.04,-0.0779788,5.687278,8.238023,1004.17255,0,0
42.08,-0.06844074,5.6920449999999985,8.03444,1004.165,0,0
42.12,-0.078021914,5.663446,8.143331,1004.16003,0,0
42.16,-0.11628191,5.5681157,8.119655999999999,1004.14484,0,0
42.2,-0.12586172,5.630081,8.010763,1004.16003,0,0
42.24,0.012731001,5.773078400000001,7.835588,1004.1523,0,0
42.28,-0.17370291,5.539518,8.384777,1004.2024,0,0
42.32,-0.14982408,5.696815,8.214336,1004.18005,0,0
42.36,-0.15462679,5.692049,8.219069000000001,1004.17,0,0
42.4,-0.01603271,5.7015824,8.095972999999999,1004.1648,0,0
42.44,-0.011273116,5.649151,8.015486,1004.1899,0,0
42.48,0.00036236644,5.6491,8.119833,1004.1597,0,0
42.52,-0.07605362,5.5871330000000015,8.143510000000001,1004.1823,0,0
42.56,0.01004374,5.5775986,8.181392,1004.1648,0,0
42.6,0.08181305,5.6967607000000005,8.100913,1004.1619,0,0
42.64,0.08185872400000001,5.615728,8.2382145,1004.1564,0,0
42.68,0.0006629377599999999,5.6443257,7.9825625,1004.1597,0,0
42.72,-0.018395439,5.6014256,8.100928,1004.15936,0,0
42.76,0.07725774,5.6252565,8.100934,1004.17224,0,0
42.8,-0.003938034,5.56329,8.280846,1004.15894,0,0
42.84,0.115633115,5.7968497,8.039398,1004.1823,0,0
42.88,-0.056382723,5.658618,8.233514,1004.1564,0,0
42.92,-0.0037439913,5.682449299999999,8.257193,1004.1519,0,0
42.96,-0.16621170000000002,5.544218,8.22879,1004.1597,0,0
43.0,0.005937353,5.7634773,8.001545,1004.1775,0,0
43.04,-0.037023842,5.6872115,8.129379,1004.16943,0,0
43.08,-0.099100396,5.6586102999999985,8.304558,1004.1673,0,0
43.12,-0.15161736,5.6300097,8.039437,1004.1544,0,0
43.16,-0.09419884,5.596642,8.309303,1004.1718,0,0
43.2,0.07313613599999999,5.7396379999999985,8.205150999999999,1004.18195,0,0
43.24,0.001515165,5.72057,8.053657000000001,1004.1544,0,0
43.28,-0.18005651,5.5680385,7.916364,1004.18445,0,0
43.32,-0.12265704,5.5823374,8.408747,1004.16187,0,0
43.36,-0.03176465,5.715799,7.774342999999999,1004.147,0,0
43.4,-0.11296421,5.515602,8.23832,1004.1789,0,0
43.44,0.07616149,5.7778134,8.0014105,1004.16693,0,0
43.48,0.028341264,5.7396817,8.110299000000001,1004.1673,0,0
43.52,-0.13419901,5.6920166,8.337548,1004.16705,0,0
43.56,-0.038628317,5.7063169999999985,8.242859,1004.17694,0,0
43.6,-0.024312653,5.706318,7.9256509999999984,1004.17206,0,0
43.64,-0.009992287,5.696785,7.935117999999999,1004.1768,0,0
43.68,-0.17253736,5.5966879999999986,8.148163,1004.1718,0,0
43.72,-0.05784579400000001,5.6920199999999985,7.9682536,1004.18933,0,0
43.76,-0.15824704,5.6538879999999985,8.096081,1004.1718,0,0
43.8,-0.12959361,5.634822,8.427486,1004.1919,0,0
43.84,0.028114557,5.8302517,8.062936,1004.15137,0,0
43.88,-0.072286725,5.773053599999999,7.9209003,1004.16693,0,0
43.92,-0.14878576,5.6586566,8.26651,1004.18933,0,0
43.96,-0.1583707,5.5680933,8.242836,1004.1838,0,0
44.0,-0.015000418,5.7349234,8.029785,1004.1613,0,0
44.04,-0.010247543,5.696791,7.887750599999999,1004.16693,0,0
44.08,0.042308107000000005,5.76829,7.679435000000002,1004.1664,0,0
44.12,-0.10111296,5.720625,7.9729657,1004.15405,0,0
44.16,-0.16327736,5.663427,8.328043,1004.1943,0,0
44.2,-0.19197996,5.6109953,8.181274,1004.16144,0,0
44.24,0.0039666444,5.7301598,8.162335,1004.1818,0,0
44.28,-0.000835374,5.7539935,7.8782682,1004.15155,0,0
44.32,-0.04388056,5.682496,8.171799,1004.1868,0,0
44.36,-0.039126113,5.6872625,8.029764,1004.16394,0,0
44.4,-0.091729306,5.6824975,8.119716,1004.18646,0,0
44.44,-0.12889929,5.615739,8.195564,1004.1484,0,0
44.48,-0.17189854,5.720603,7.935174000000001,1004.1535,0,0
44.52,-0.10018363,5.7063026,8.186099,1004.1585,0,0
44.56,-0.08104543,5.7063026,8.176632000000001,1004.1538,0,0
44.6,-0.16706406,5.620504,8.124555,1004.16846,0,0
44.64,0.00980778,5.7492003,8.152964,1004.136,0,0
44.68,-0.037970096,5.625269,8.152966000000001,1004.1559,0,0
44.72,0.1580197,5.906496,7.9351845,1004.1588,0,0
44.76,0.028982818,5.672934,8.337609,1004.1912,0,0
44.8,0.081579685,5.753965,8.233455000000001,1004.1584,0,0
44.84,-0.0092175305,5.634801,8.039346,1004.1984,0,0
44.88,0.07683556,5.7253647,7.845237299999999,1004.133,0,0
44.92,-0.0139605105,5.6681657,8.1151,1004.1859,0,0
44.96,-0.085638545,5.7205977,7.9683347000000015,1004.17096,0,0
45.0,-0.042601295,5.687231,8.313949000000001,1004.17096,0,0
45.04,-0.21943614,5.5633,8.242934,1004.1609,0,0
45.08,0.010013431,5.6824636,8.029886999999999,1004.1563,0,0
45.12,0.04827088,5.701529,8.143514999999999,1004.1585,0,0
45.16,0.1869042,5.892191,7.897328,1004.151,0,0
45.2,-0.319736,5.444134,8.181394000000001,1004.1484,0,0
45.24,0.2490785,5.839758,8.025160000000001,1004.141,0,0
45.28,0.029226542,5.58713,8.096177,1004.14594,0,0
45.32,0.110501066,5.691994,8.048835,1004.1784,0,0
45.36,-0.05199325,5.6443276,7.8736644,1004.1684,0,0
45.4,-0.018516809,5.5728290000000005,8.205074,1004.1784,0,0
45.44,-0.17145035,5.5823617,8.081980999999999,1004.16833,0,0
45.48,0.07178798,5.8540687999999985,7.878353,1004.16595,0,0
45.52,0.25819767,5.6395735999999985,8.668999000000001,1004.1734,0,0
45.56,0.4446075,5.377413,8.418075,1004.18304,0,0
45.6,0.32033032,5.4393783,7.452255999999997,1004.151,0,0
45.64,0.32032764,5.463211,7.381239999999999,1004.1334,0,0
45.68,0.3920223,5.730138,8.152947,1004.1884,0,0
45.72,0.68358785,5.9827660000000025,9.114031,1004.1981,0,0
45.76,0.17692606,5.52041,8.749483,1004.1984,0,0
45.8,0.29163897,5.558542299999999,8.768419,1004.1559,0,0
45.84,0.25339782,5.4489117,7.944633,1004.14594,0,0
45.88,0.30119348,5.4298453,8.550636,1004.1759,0,0
45.92,0.38722748,5.725372,8.072461,1004.1508,0,0
45.96,0.18169336,5.706306,7.930428999999997,1004.1484,0,0
46.0,-0.07641859,5.544243,8.181352,1004.1734,0,0
46.04,-0.038182534,5.344048,8.096132,1004.1734,0,0
46.08,-0.21025805,5.067588,8.034585,1004.1884,0,0
46.12,0.15778436,5.463212,8.081928999999999,1004.1809,0,0
46.16,0.03828688,5.3774137,7.8499427,1004.1609,0,0
46.2,0.10520147,5.453678599999999,8.607448,1004.1681,0,0
46.24,-0.23894665,5.4346128,7.797863499999999,1004.1508,0,0
46.28,-0.2580684,5.5919089999999985,8.242898,1004.1734,0,0
46.32,-0.39668545,5.448912,8.7873535,1004.17804,0,0
46.36,-0.5018435,5.353582,8.640587,1004.1759,0,0
46.4,-0.4636076,5.5394773,8.455945,1004.18304,0,0
46.44,-0.8412145000000001,5.1867523,7.987239,1004.13794,0,0
46.48,-0.9270274,5.124781,8.4607,1004.19086,0,0
46.52,-0.7836271,5.0342164,8.569592,1004.1806,0,0
46.56,-0.71670264,5.391708,7.7031965,1004.1531,0,0
46.6,-0.71669745,5.391708,7.968323,1004.13794,0,0
46.64,-0.5924162,5.3011436,8.512781,1004.1656,0,0
46.68,-0.2769413,5.4822717,8.493843,1004.1959,0,0
46.72,-0.33907443,5.3869405,8.484376,1004.1754,0,0
46.76,-0.22913252,5.515638,8.134029,1004.15814,0,0
46.8,-0.37729853,5.320208999999998,8.422830000000001,1004.1754,0,0
46.84,-0.43942964,5.186744999999998,8.200313000000001,1004.16046,0,0
46.88,-0.41074485,5.3202085,8.351813,1004.18335,0,0
46.92,-0.26256502,5.367874,8.290268,1004.188,0,0
46.96,-0.43941104,5.2677760000000005,8.588536,1004.18054,0,0
47.0,-0.43940508,5.3345075,8.650084,1004.16296,0,0
47.04,-0.49197817,5.568069,7.774219,1004.1502,0,0
47.08,-0.7357402,5.2773085,8.901009,1004.1933,0,0
47.12,-0.56844115,5.0246806,9.123527,1004.16986,0,0
47.16,-0.58277464,5.2773085,8.361288,1004.15295,0,0
47.2,-0.33899832,5.625267,7.54697,1004.1507,0,0
47.24,-0.33421177,5.096179,8.574337,1004.188,0,0
47.28,-0.38678482,5.439371,7.329188999999999,1004.1729,0,0
47.32,-0.13344769,5.6348,8.228726,1004.1804,0,0
47.36,-0.37243193,5.4203043,8.380228,1004.1927,0,0
47.4,-0.19079264,5.5347019999999985,8.205055999999999,1004.1677,0,0
47.44,-0.39588067,5.410760400000001,8.361331,1004.1628,0,0
47.48,-0.20944422,5.5537567,8.2903185,1004.15045,0,0
47.52,-0.19030243,5.682453,8.579118,1004.16296,0,0
47.56,-0.48662615,5.3058944000000015,8.479697999999999,1004.1527,0,0
47.6,-0.042080313,5.5775875999999975,8.721155,1004.1674,0,0
47.64,-0.21412921,5.363092,8.408686999999999,1004.1728,0,0
47.68,-0.18064944,5.439356,7.954185499999999,1004.1555,0,0
47.72,-0.0611303,5.506087,8.157767,1004.17316,0,0
47.76,-0.104124464,5.5632854000000025,8.285599000000001,1004.1649,0,0
47.8,-0.18535551,5.5680513,7.8547697,1004.1577,0,0
47.84,-0.12797531,5.548985,8.082024,1004.13995,0,0
47.88,-0.23788518,5.429819599999999,7.665398,1004.1553,0,0
47.92,-0.16138726,5.282056,7.9399953,1004.1804,0,0
47.96,0.048949704,5.515617,8.31875,1004.1823,0,0
48.0,0.015512124,5.6872125,7.883186999999999,1004.17053,0,0
48.04,0.029875666,5.5013165,8.934227,1004.1649,0,0
48.08,-0.017899826,5.4631834,7.96841,1004.1728,0,0
48.12,-0.027433835,5.434583,8.366100999999999,1004.158,0,0
48.16,0.034727722,5.6967435,7.7316947,1004.1555,0,0
48.2,0.09688924,5.5346794,8.247746000000001,1004.1779,0,0
48.24,-0.11817934,5.3440166,8.044169,1004.1777,0,0
48.28,-0.09903605,5.8016057,7.390824,1004.13965,0,0
48.32,-0.32844254,5.534678,8.432395,1004.1674,0,0
48.36,-0.17546622,5.6443086,8.721196,1004.19763,0,0
48.4,-0.06072686,5.6490736,8.811152,1004.1652,0,0
48.44,-0.032025464,5.4631777,8.953186,1004.20013,0,0
48.48,0.067468286,5.5823636,8.171928,1004.15497,0,0
48.52,-0.11417708,5.3297360000000005,7.982550999999999,1004.13965,0,0
48.56,0.10568391,5.487033,8.077239,1004.1779,0,0
48.6,-0.06640117599999999,5.5394654,7.812110400000001,1004.1324,0,0
48.64,-0.20502621,5.401235,8.2098,1004.1528,0,0
48.68,-0.119001135,5.501333,8.451253,1004.1523,0,0
48.72,-0.0377559,5.510867,8.205063,1004.17737,0,0
48.76,0.019591048,5.4918010000000015,8.328156,1004.14276,0,0
48.8,0.09605721,5.5823655,8.261873,1004.1374,0,0
48.84,-0.061688446,5.415536,8.223997,1004.1728,0,0
48.88,-0.004341513,5.5204010000000014,8.181386999999999,1004.15967,0,0
48.92,-0.080830514,5.291607,8.716372999999999,1004.14215,0,0
48.96,-0.071281604,5.5061016,8.380230000000001,1004.1627,0,0
49.0,-0.20512754,5.4012379999999975,8.2524,1004.1573,0,0
49.04,-0.20035915,5.377405,8.28554,1004.1571,0,0
49.08,-0.28162646,5.2820745,8.489119,1004.16956,0,0
49.12,-0.1430236,5.410772,8.413364999999999,1004.1827,0,0
49.16,-0.11913529,5.487037,8.432302,1004.1499,0,0
49.2,-0.009211227,5.396473,8.24766,1004.14966,0,0
49.24,-0.052240863,5.5919019999999975,7.6795306,1004.1624,0,0
49.28,-0.15262742,5.491804599999999,8.290268,1004.17236,0,0
49.32,-0.076162025,5.491804599999999,8.134031,1004.17236,0,0
49.36,-0.21000797,5.5204043,8.238188000000001,1004.1624,0,0
49.4,-0.33429426,5.353575,8.41336,1004.1876,0,0
49.44,-0.19091156,5.4632063,8.233450999999999,1004.1777,0,0
49.48,-0.17635617,5.539466,8.105642,1004.16693,0,0
49.52,-0.20025791,5.4536676,8.621691,1004.17194,0,0
49.56,-0.33409482,5.568065,8.091438,1004.16986,0,0
49.6,-0.539629,5.6157309999999985,7.71742,1004.1552,1,2
49.64,-0.8216398000000001,5.4918003,7.9115305,1004.1599,1,2
49.68,-1.051073,5.4441347,7.949405,1004.1823,1,2
49.72,-0.77384675,5.701529,8.143516,1004.1898,1,2
49.76,-0.9124635,5.477501,8.247672,1004.1772,1,2
49.8,-0.8264294,5.525167,8.200328,1004.1698,1,2
49.84,-0.5922215999999999,5.677696,8.508064,1004.17194,1,2
49.88,-0.6543616,5.391703,8.1103735,1004.1728,1,2
49.92,-0.38669497,5.305905,8.152984,1004.15497,1,2
49.96,-0.18594572,5.1629086,7.4191504,1004.15466,1,2
50.0,0.35416955,5.4632015,8.115108,1004.16943,1,2
50.04,0.14863543,4.8959813,7.5895886,1004.1672,1,2
50.08,0.6648519,5.029445,7.8499804000000015,1004.1919,1,2
50.12,0.8656010000000001,5.181975,7.599057000000001,1004.1569,1,2
50.16,1.0567905,5.4536685999999985,6.619035,1004.132,1,2
50.2,1.1810632,5.181975,7.887855,1004.1717,1,2
50.24,1.3913718000000002,5.267773,9.204019,1004.2044,1,2
50.28,2.4142473,6.235384,8.886814,1004.1996,1,2
50.32,2.1083376,5.9779897,8.806329,1004.1899,1,2
50.36,1.3148875,5.9541574,7.0972085000000025,1004.11426,1,2
50.4,1.1523718,5.8445269999999985,7.9825415999999985,1004.1948,1,2
50.44,0.7891043000000001,5.3059059999999985,9.080924,1004.23975,1,2
50.48,0.46853286,5.286848,9.412302,1004.2021,1,2
50.52,0.58323294,5.6777053,9.748444,1004.2173,1,2
50.56,0.3585679,4.962723,11.334468,1004.1994,1,2
50.6,0.46370357,5.1962843,11.074074,1004.21686,1,2
50.64,1.1280811000000002,5.787338,8.560103,1004.1571,1,2
50.68,0.44933474,3.0084357,12.087234,1004.1739,1,2
50.72,-0.07167342,2.4984142999999994,11.031461,1004.1969,1,2
50.76,0.50666285,4.095211,6.9551363,1004.1199,1,2
50.8,0.5066467,3.8711836,7.0214167000000005,1004.1474,1,2
50.84,0.92725426,3.6376226,8.465409,1004.1973,1,2
50.88,0.45404035,3.3754623,10.401779,1004.2223,1,2
50.92,0.38710696,3.8664184,8.11506,1004.17694,1,2
50.96,0.597404,4.1095123,8.829953999999997,1004.1393,1,2
51.0,0.951098,4.5003705,8.460669000000001,1004.1723,1,2
51.04,0.6738514,4.3907404,8.389650999999999,1004.1748,1,2
51.08,0.4205094,4.1047473,8.304432,1004.1948,1,2
51.12,0.53998744,4.2858768,8.654776,1004.17206,1,2
51.16,0.6546865,4.176246,8.44646,1004.18726,1,2
51.2,0.320085,4.1762466,9.2513075,1004.18195,1,2
51.24,0.21491508,4.195313,9.540105,1004.17944,1,2
51.28,0.4730093,4.1190486,8.853615,1004.1649,1,2
51.32,1.5962478999999998,3.842589,11.055111,1004.1971,1,2
51.36,1.2616475,4.3859763,8.190795,1004.1571,1,2
51.4,1.3333302,4.7720675,6.794144599999999,1004.1374,1,2
51.44,2.194616,4.5194182000000005,8.527021000000001,1004.18726,1,2
51.48,1.5780439,3.4469426,11.112007,1004.2146,1,2
51.52,1.1335436,3.6376042,9.147232,1004.18726,1,2
51.56,1.2052649,4.810176,6.974142999999999,1004.1374,1,2
51.6,0.8276833,4.76251,7.381303999999999,1004.1499,1,2
51.64,0.69865143,4.6719446,8.6548605,1004.1996,1,2
51.68,-0.376783,4.938872,8.683269000000001,1004.17194,1,2
51.72,-0.69700694,5.2153316,8.664333000000001,1004.21014,1,2
51.76,-1.165405,4.209587,11.755901,1004.25226,1,2
51.8,-1.2561998,4.943637,10.813757,1004.1796,1,2
51.84,-1.3087562,5.496557,8.276117999999999,1004.1199,1,2
51.88,-1.2800533,3.1609435,11.130966,1004.2248,1,2
51.92,-1.1175171,3.8377936,9.653833,1004.1902,1,2
51.96,-1.4377425,4.6719403,7.0167727,1004.1377,1,2
52.0,-1.7388475,4.0904202000000005,9.374509,1004.17523,1,2
52.04,-1.1413505,3.7901268,9.289291,1004.2022,1,2
52.08,-1.2273642,3.3373032,9.526013,1004.19214,1,2
52.12,-0.9453314,3.1037412,9.535484,1004.1777,1,2
52.16,-0.61072373,3.5374973,8.200384,1004.1574,1,2
52.2,-0.25699544,3.8139575,8.176715,1004.1599,1,2
52.24,-0.31911153,3.8091903,8.920017999999997,1004.1447,1,2
52.28,-0.08487827,4.1714473,8.787456500000001,1004.1673,1,2
52.32,-0.099196285,4.9674625,8.427644,1004.1673,1,2
52.36,-0.26646805,5.3583193,8.763788,1004.1445,1,2
52.4,-0.51977485,5.2343884,9.175683,1004.1548,1,2
52.44,-0.3624854,4.409785,10.051508,1004.1848,1,2
52.48,0.13939731,3.5136726,11.310861,1004.2198,1,2
52.52,0.8324729,3.8282652,8.957861999999997,1004.1377,1,2
52.56,0.039029047,4.2381883,7.651166,1004.14246,1,2
52.6,-0.09002189,4.438383999999999,7.958903,1004.13983,1,2
52.64,-0.64447534,4.02846,9.099895,1004.1927,1,2
52.68,-0.58711386,4.3096866999999985,8.285577,1004.1599,1,2
52.72,-1.2276039,4.2763205,8.768487,1004.1628,1,2
52.76,-1.777278,3.9617279,8.711674,1004.1599,1,2
52.8,-0.7257172,4.109491,9.469179,1004.1648,1,2
52.84,-0.5297411999999999,4.161923000000002,8.858441000000003,1004.1627,1,2
52.88,-0.9169016,4.2620206,8.261907,1004.14777,1,2
52.92,-0.9599165,4.414550299999998,9.038349,1004.1876,1,2
52.96,-0.6492252,3.9569612,9.5591345,1004.17523,1,2
53.0,-0.70179945,3.5422707,10.354514,1004.20734,1,2
53.04,-1.1749961000000002,4.352585,9.104632,1004.1624,1,2
53.08,-0.9694611,4.2429543,10.47761,1004.1851,1,2
53.12,-1.6720883999999998,2.8415864,9.440775,1004.18567,1,2
53.16,-2.2743397,2.9273841,9.3555565,1004.17523,1,2
53.2,-1.8680531,2.96075,10.643315,1004.1876,1,2
53.24,-1.7772330000000005,2.0932367,11.320334,1004.21265,1,2
53.28,-0.72089225,2.7939203,9.890545,1004.1557,1,2
53.32,-0.8260441999999999,2.7796204,10.084656,1004.14795,1,2
53.36,-0.93119645,2.5651257000000003,9.568607,1004.1578,1,2
53.4,0.053446904,3.3325412000000005,9.014682,1004.1432,1,2
53.44,0.3784774,3.5613353,9.118838,1004.1555,1,2
53.48,0.27797586,3.852099,8.347119000000001,1004.158,1,2
53.52,0.28753418,4.171458,8.65959,1004.1656,1,2
53.56,0.83243054,4.09996,9.374485,1004.198,1,2
53.6,0.83242935,3.752001,9.800581,1004.18835,1,2
53.64,0.4404843,4.128559,7.565942,1004.12317,1,2
53.68,0.09155722,4.0427610000000005,8.285571000000001,1004.1684,1,2
53.72,0.38312417,4.4097857000000005,8.602777,1004.1681,1,2
53.76,-0.26693052,3.799667,9.781643,1004.18304,1,2
53.8,-0.11875786,4.0713599999999985,9.175639,1004.1809,1,2
53.84,0.25406563,4.8626084,8.986263000000003,1004.1609,1,2
53.88,0.20148654,4.552783,10.065707000000002,1004.17053,1,2
53.92,0.53607154,4.54325,10.089379,1004.1455,1,2
53.96,0.81807894,4.433619,10.524944,1004.1984,1,2
54.0,0.9901505,3.7853673,10.884759,1004.1709,1,2
54.04,0.72726,3.9950962,8.782683,1004.15155,1,2
54.08,0.06286597,4.5480165,7.0877657,1004.141,1,2
54.12,0.20147903,3.6662035,8.924714999999997,1004.1713,1,2
54.16,-0.04707191,3.0799172,9.975753,1004.22644,1,2
54.2,0.081981555,4.157159,7.2676729999999985,1004.14154,1,2
54.24,0.28751177,4.3239884,8.934183,1004.16144,1,2
54.28,0.10587807,4.714846,8.162476,1004.1694,1,2
54.32,0.4500227,4.94364,9.426561,1004.16394,1,2
54.36,-0.023179114,4.3144550000000015,9.734297,1004.17645,1,2
54.4,-0.24305138,4.509884,8.990995,1004.1365,1,2
54.44,-0.08088451,4.814952,8.422836,1004.1519,1,2
54.48,-0.06655552,4.691022,8.645352,1004.1564,1,2
54.52,0.10549839,4.8340190000000005,8.829991,1004.16187,1,2
54.56,0.30145514,4.8530855000000015,8.901007,1004.1544,1,2
54.6,0.14849092,4.8292527000000005,8.148234,1004.1446,1,2
54.64,0.23928814,5.024682,9.000425,1004.16254,1,2
54.68,0.048080787,4.853087,8.754235000000001,1004.19006,1,2
54.72,0.6312017,5.167680000000002,8.687952000000001,1004.17,1,2
54.76,0.54993075,4.857854,8.53645,1004.1903,1,2
54.8,1.0756966,5.0056176,8.280791,1004.1575,1,2
54.84,0.6741752,4.6481265999999986,10.146145,1004.1977,1,2
54.88,0.4351697,4.714859,8.394414999999999,1004.16284,0,0
54.92,0.5833284000000001,4.7720575,9.085635,1004.1728,0,0
54.96,0.54507947,4.8435564000000015,9.3649645,1004.1882,0,0
55.0,0.74581325,5.5728397,8.020391,1004.1704,0,0
55.04,0.37297428,5.5061083,8.171892,1004.1603,0,0
55.08,0.26780242,5.5061088,7.97778,1004.14526,0,0
55.12,0.21042953,5.4775095,8.384936999999999,1004.1532,0,0
55.16,-0.15285078,5.277314700000002,8.299716,1004.17566,0,0
55.2,-0.4444331,5.2534823,8.266574,1004.16565,0,0
55.24,-0.32016963,5.353581,7.892554799999999,1004.16846,0,0
55.28,-0.13855611,5.0914207000000005,8.59798,1004.16565,0,0
55.32,-0.14335018,5.0866537,8.058256,1004.156,0,0
55.36,-0.02387029,5.282083,7.939895,1004.1563,0,0
55.4,0.03347306,5.320216,8.399131,1004.20905,0,0
55.44,0.26760578,5.6252775,7.79312,1004.1862,0,0
55.48,0.2580284,5.4107833,8.086652,1004.15375,0,0
55.52,0.18631361,5.367883999999999,9.147157,1004.1941,0,0
55.56,0.19107674,5.758743,7.5800667,1004.1541,0,0
55.6,0.30099446,5.73491,8.522212,1004.1491,0,0
55.64,0.105005875,5.6443458,8.309161999999999,1004.1995,0,0
55.68,0.1193275,5.3774190000000015,8.8015375,1004.182,0,0
55.72,-0.019304588,5.024694,9.085602,1004.202,0,0
55.76,0.023695916,5.644347,7.9398737000000015,1004.1464,0,0
55.8,0.32002705,5.7730446,7.414353399999999,1004.1491,0,0
55.84,0.12403627,5.334522,8.233403,1004.167,0,0
55.88,0.07622045,5.458453,7.674742,1004.162,0,0
55.92,-0.24404415,5.4107876,8.138712,1004.1645,0,0
55.96,-0.43047208,5.3297567,8.94356,1004.2049,0,0
56.0,-0.44482923,5.425088,8.545867999999999,1004.1397,0,0
56.04,0.27212358,5.801646,8.186050999999999,1004.17285,0,0
56.08,-0.029021814,5.1962943,8.659491000000001,1004.16223,0,0
56.12,-0.07205781,5.148629,8.1813135,1004.16,0,0
56.16,0.22427334,5.386957,8.588471,1004.16,0,0
56.2,0.34853053,5.501355,8.124497999999999,1004.1625,0,0
56.24,0.5014675999999999,5.4679894,8.275997,1004.16034,0,0
56.28,-0.08646604,5.105732,8.16237,1004.16284,0,0
56.32,0.09514871,5.2534957,9.06664,1004.1857,0,0
56.36,0.17638762,5.5585556,10.098738,1004.2159,0,0
56.4,0.2576276,6.0971769999999985,7.745736999999999,1004.1857,0,0
56.44,-0.26338875,5.0962005,9.360168,1004.1704,0,0
56.48,-0.52603555,5.2439575,7.267583,1004.138,0,0
56.52,-0.29183275,5.415553599999999,8.318621,1004.1585,0,0
56.56,-0.5164912,5.6062164,6.614234,1004.1564,0,0
56.6,-0.57863575,5.4918194000000025,7.958804,1004.1762,0,0
56.64,-0.25361717,5.8874435,7.8073025,1004.1733,0,0
56.68,-0.15324938,5.9589424000000015,7.660536,1004.1362,0,0
56.72,-0.2679709,5.6681824,8.858338,1004.17114,0,0
56.76,-0.09590598,5.968476,7.3243914,1004.16394,0,0
56.8,-0.4782974,5.6205173,7.674736500000002,1004.16895,0,0
56.84,-0.70773506,5.525186,8.332818,1004.1589,0,0
56.88,-0.6264866,6.106706,7.1634192,1004.1514,0,0
56.92,-0.4544208,6.054274,8.536396,1004.1892,0,0
56.96,-0.36361212,5.4965873,10.363876,1004.2093,0,0
57.0,-0.09117134,5.6348176,7.991937599999999,1004.16437,0,0
57.04,-0.7173326999999999,4.7863708,9.132929,1004.17926,0,0
57.08,-0.521368,5.048531,8.077157000000001,1004.16437,0,0
57.12,-0.033835575,5.28686,7.390667,1004.1268,0,0
57.16,-0.11032009,4.962733999999998,8.133967,1004.182,0,0
57.2,0.44890982,5.267794,7.901981,1004.16675,0,0
57.24,0.59229636,5.4965887,7.9966683,1004.1874,0,0
57.28,0.6496460000000001,5.568087599999999,7.9871993,1004.1521,0,0
57.32,0.52536434,5.2534947,8.465373,1004.1949,0,0
57.36,0.5492558000000001,5.391725,7.608445,1004.17004,0,0
57.4,0.45365262,5.601454,7.106598,1004.16003,0,0
57.44,0.12861829,5.263028599999998,8.446433,1004.1881,0,0
57.48,0.49103355,5.4012794,8.470028999999998,1004.1801,0,0
57.52,0.07037023,5.5061445,8.668869,1004.1854,0,0
57.56,0.26152432,5.1772532,9.151775,1004.2034,0,0
57.6,0.643868,5.186787000000002,8.787222,1004.17554,0,0
57.64,0.57691276,5.3440847,7.9444941999999985,1004.1377,0,0
57.68,0.051093742,5.210622,7.442644,1004.1405,0,0
57.72,-0.08278135,5.1057587,8.981321000000003,1004.2105,0,0
57.76,-0.24533272,5.291655,7.8971395000000015,1004.17804,0,0
57.8,0.15135296,5.391754,9.009721,1004.17804,0,0
57.84,0.29948628,5.539518,8.323228,1004.17053,0,0
57.88,-0.025583468,5.1915607,8.4321165,1004.1804,0,0
57.92,0.25638437,5.5871863,8.342158,1004.1884,0,0
57.96,0.68174887,5.630086,8.375296,1004.1959,0,0
58.0,0.47139436,5.568121400000001,8.446308,1004.1784,0,0
58.04,0.14154477,5.224931,8.029676,1004.15607,0,0
58.08,-0.03056112,4.9437045999999985,9.085445,1004.19354,0,0
58.12,0.1653703,5.1820330000000006,8.54572,1004.1634,0,0
58.16,0.28004748,5.491860400000001,7.7929463,1004.1385,0,0
58.2,0.1127138,5.205868,8.488899,1004.20105,0,0
58.24,0.27996635,5.077172,8.848711,1004.2061,0,0
58.28,0.6384111,5.3488665,8.455751,1004.17084,0,0
58.32,0.57145834,5.3584010000000015,8.304248,1004.16113,0,0
58.36,0.5140474,5.4108343,8.24743,1004.17896,0,0
58.4,0.21766154,5.286905,8.195348,1004.20105,0,0
58.44,0.28588444,5.38697,8.659439,1004.18365,0,0
58.48,0.06602396,5.234441,8.678378,1004.1509,0,0
58.52,-0.00565657,5.1963077,8.683113,1004.1411,0,0
58.56,0.061274663,5.4537010000000015,8.531613,1004.1461,0,0
58.6,-0.19682081,5.3679028,8.119721,1004.17145,0,0
58.64,-0.23504613,5.4251013,8.228614,1004.16614,0,0
58.68,-0.31150907,5.4489335999999975,8.1765375,1004.1692,0,0
58.72,-0.34973350000000003,5.396501,8.768339,1004.20166,0,0
58.76,-0.23978497,5.4536989999999985,7.759912,1004.1817,0,0
58.8,-0.22543597,5.282103,8.081853,1004.17896,0,0
58.84,-0.14416099999999998,5.6729603,8.043979,1004.15643,0,0
58.88,-0.24452291,5.2630363,9.132893,1004.18677,0,0
58.92,-0.09633595,5.024708,9.3648815,1004.2069,0,0
58.96,-0.034185417,5.5633287000000005,8.252296000000001,1004.1619,0,0
59.0,0.04708521,5.3869653,8.2617655,1004.1493,0,0
59.04,0.15225486,5.382199,8.162346000000001,1004.17694,0,0
59.08,0.17138802,5.496596,8.143409,1004.1569,0,0
59.12,0.12360306,5.3535986,8.626319,1004.18994,0,0
59.16,0.10449864,5.2678,7.9587702999999985,1004.15717,0,0
59.2,0.3482809,5.3202324,8.195491,1004.1644,0,0
59.24,0.44867074,5.2916327,7.830942999999999,1004.16,0,0
59.28,0.48692304,5.2058339999999985,7.954039,1004.1595,0,0
59.32,0.32442373,5.3488307,7.935103,1004.14966,0,0
59.36,0.27185982,5.272565,8.086604,1004.1672,0,0
59.4,0.45350546,5.4060287,8.275983,1004.17444,0,0
59.44,0.47195137,5.2010830000000015,8.564719,1004.18463,0,0
59.48,0.49583644,5.406045400000001,7.878228999999997,1004.14716,0,0
59.52,0.3811081,5.396513,8.365871,1004.19763,0,0
59.56,0.5914055,5.3631470000000006,8.711481,1004.1894,0,0
59.6,0.433658,5.229684,7.8166785,1004.165,0,0
59.64,0.42408448,5.27735,8.3327265,1004.1877,0,0
59.68,0.56268567,5.2821164000000005,9.218059,1004.17944,0,0
59.72,0.5913506,5.315483,8.645196,1004.17236,0,0
59.76,0.34278685,4.9675245000000015,8.787227,1004.2002,0,0
59.8,0.6008832,5.16772,8.735146499999999,1004.1929,0,0
59.84,0.5530712,4.900793,9.194383,1004.1919,0,0
59.88,0.8494050999999999,5.4394145,8.219094,1004.1499,0,0
59.92,0.6438604,5.2344527,8.711471000000001,1004.17236,0,0
59.96,0.22800265,5.0247245000000005,8.167013,1004.14966,0,0
60.0,0.67251134,5.4775480000000005,8.488952000000001,1004.1444,0,0
60.04,0.36181015,4.876962000000002,8.6404505,1004.1852,0,0
60.08,0.38091624,4.881728599999999,8.219088000000001,1004.17236,0,0
60.12,0.6055531,5.0866914,8.711464999999999,1004.1849,0,0
60.16,0.36654896,5.2630544000000015,7.598878,1004.1702,0,0
60.2,0.50993,5.091459,9.094949,1004.2002,0,0
60.24,0.5290344,5.2153893,8.678321,1004.18994,0,0
60.28,0.40474725,5.3726864,7.996564999999999,1004.1702,0,0
60.32,0.29957676,5.3583870000000005,8.318503,1004.17,0,0
60.36,0.022334173,5.010428,8.986052,1004.1649,0,0
60.4,0.25175166,5.4251194000000025,8.162265,1004.1898,0,0
60.44,0.17526262,5.3965206,8.086513,1004.20325,0,0
60.48,-0.17810157,5.0771523,8.304327,1004.1877,0,0
60.52,-0.09684492,5.372679,7.87823,1004.1624,0,0
60.56,-0.24979864,5.0247199999999985,8.79197,1004.1802,0,0
60.6,-0.04904689,5.2296824,8.749361,1004.17487,0,0
60.64,-0.006028652,5.4441776,8.313796,1004.1627,0,0
60.68,-0.11118434,5.2296824,8.370608,1004.1624,0,0
60.72,-0.14942275,5.072386,8.531578,1004.17523,0,0
60.76,-0.30715626,4.905556,8.323264,1004.1852,0,0
60.8,-0.25457844,4.9865879999999985,8.365872999999999,1004.1575,0,0
60.84,-0.0012488365,5.2582817,8.413217999999999,1004.1877,0,0
60.88,-0.034707464,5.296414,8.399014,1004.1599,0,0
60.92,0.12302606,5.234449400000001,8.574188000000001,1004.17737,0,0
60.96,0.17560391,5.243982,8.413217999999999,1004.18536,0,0
61.0,0.10868664,5.1200519999999985,8.498438,1004.1599,0,0
61.04,0.046549186,5.100985,8.408484,1004.1697,0,0
61.08,0.13258569,5.1629505,8.64047,1004.17737,0,0
61.12,0.24730097,5.2392154,8.536313,1004.1602,0,0
61.16,0.24252115,5.1105185,8.635735,1004.1624,0,0
61.2,0.4145941,5.296414,8.342202,1004.1677,0,0
61.24,0.4958508,5.4537106,8.455828,1004.16534,0,0
61.28,0.24252115,5.1820164,8.507906,1004.1652,0,0
61.32,-0.06338629,4.7625594000000016,8.943472,1004.18536,0,0
61.36,-0.06816610000000001,4.9341555,8.403749000000001,1004.1852,0,0
61.4,0.0035309643,5.0533199999999985,7.9397774,1004.17035,0,0
61.44,-0.04904689,4.8626575,8.810908,1004.18787,0,0
61.48,0.17014717,5.091469,8.806111,1004.1927,0,0
61.52,0.21791856,5.2630653,8.3232,1004.1578,0,0
61.56,0.03625776,5.296432,8.200104,1004.1757,0,0
61.6,-0.25055543,4.9532404,8.678276,1004.1754,0,0
61.64,-0.25536022,4.9675410000000015,9.075963,1004.1804,0,0
61.68,0.27516973,5.263068,8.962336,1004.17786,0,0
61.72,0.16042946,5.019974,9.364758,1004.1982,0,0
61.76,0.28468108,5.23447,8.100669,1004.1374,0,0
61.8,0.42804688,5.305969,8.63092,1004.1757,0,0
61.84,0.15557145,5.0295095000000005,8.138539,1004.15326,0,0
61.88,0.10296531,4.977078400000001,8.403664,1004.1823,0,0
61.92,0.08382113,4.9723120000000005,8.110128,1004.1849,0,0
61.96,0.16027306,4.938946700000002,8.256892,1004.1702,0,0
62.0,0.15068679,5.205874400000001,8.474672,1004.1779,0,0
62.04,0.04072465,5.234474700000002,8.247418,1004.17035,0,0
62.08,0.112390086,5.1582108,8.777669,1004.16534,0,0
62.12,0.117148235,5.191577,8.351569999999999,1004.1702,0,0
62.16,0.021522224,5.172511,8.540944,1004.13794,0,0
62.2,-0.27963203,5.0819480000000015,8.730317999999999,1004.1624,0,0
62.24,0.14574386,5.4489730000000005,8.346828,1004.16296,0,0
62.28,-0.059815988,5.120081400000001,8.181122,1004.15045,0,0
62.32,0.11701347,5.4442080000000015,8.223728999999999,1004.1757,0,0
62.36,-0.32275516,5.1486816,8.048554,1004.1349,0,0
62.4,-0.38970065,5.182048,8.166911,1004.16547,0,0
62.44,-0.16984801,5.301213,8.602475,1004.15784,0,0
62.48,-0.27399470000000004,5.2439895,8.077048,1004.163,0,0
62.52,-0.22618355,5.105759,8.749335,1004.16046,0,0
62.56,-0.17359091,5.1581907,8.820352999999997,1004.1754,0,0
62.6,-0.07798175,5.2106223,8.384788,1004.15784,0,0
62.64,-0.2978431,5.1343575,8.398992,1004.15045,0,0
62.68,-0.24046716,5.077158,8.697262,1004.18536,0,0
62.72,-0.12095985,5.105757,8.555231,1004.1708,0,0
62.76,-0.11138457,5.0962234,8.545763,1004.15045,0,0
62.8,0.022462144,5.129589,8.498421,1004.15076,0,0
62.84,0.022476092000000003,5.2773523,9.061815,1004.15533,0,0
62.88,0.055947796,5.5156794,7.9066224,1004.14075,0,0
62.92,-0.3312015,4.900793599999999,8.294845,1004.1458,0,0
62.96,-0.34552777,5.124821,7.669904700000001,1004.163,0,0
63.0,-0.33117446,5.425114,8.167019,1004.16534,0,0
63.04,-0.2594635,5.510912,8.32799,1004.16296,0,0
63.08,-0.44108206,5.315483,8.479491000000001,1004.18097,0,0
63.12,-0.2976757,5.377447,7.849817,1004.15283,0,0
63.16,-0.45539534,5.239217,7.8734902999999985,1004.15784,0,0
63.2,-0.51273817,5.1867847000000005,8.451089,1004.1679,0,0
63.24,-0.46970767,5.196317700000002,8.52684,1004.198,0,0
63.28,-0.48881203,5.1057525,9.071299,1004.1905,0,0
63.32,-0.35974340000000005,5.1343517,8.754094,1004.19293,0,0
63.36,-0.38841006,5.2916474,8.313796,1004.1661,0,0
63.4,-0.36927512,5.1200514,8.626268,1004.16547,0,0
63.44,-0.5269964,5.086685,7.86403,1004.15857,0,0
63.48,-0.6139937,4.824548,8.48415,1004.16315,0,0
63.52,-0.3989252,4.910346499999998,8.550429,1004.1608,0,0
63.56,-0.27945268,4.9484797,8.858162,1004.1807,0,0
63.6,-0.34161420000000003,5.1439095,8.678253999999999,1004.1782,0,0
63.64,-0.5519497,5.000913,8.806080999999997,1004.18286,0,0
63.68,-0.35600176,5.134377,9.170628,1004.17804,0,0
63.72,-0.45162046,5.0771785000000005,8.654574,1004.1458,0,0
63.76,-0.42296726,4.948483,8.379978,1004.1355,0,0
63.8,-0.38953122,4.881751,8.337365,1004.1358,0,0
63.84,-0.76237994,4.672023,8.195331,1004.1482,0,0
63.88,-0.39913905,5.024749,8.394175,1004.156,0,0
63.92,-0.5138754,4.88652,8.976503999999998,1004.1882,0,0
63.96,-0.21755317,5.1105485,9.132736,1004.1982,0,0
64.0,0.02619274,5.429908,8.441511,1004.1383,0,0
64.04,-0.25105846,5.0009190000000014,8.995435,1004.20294,0,0
64.08,-0.20328455,5.0104523,8.394163,1004.1957,0,0
64.12,-0.30368453,4.900822,8.460443,1004.17566,0,0
64.16,-0.46622044,4.881756299999998,8.351549,1004.18567,0,0
64.2,-0.49014503,4.977088,8.29,1004.15607,0,0
64.24,-0.6335618000000001,5.105786,8.3846855,1004.1557,0,0
64.28,-0.42805278,5.2678494,8.389418,1004.18066,0,0
64.32,-0.4376350000000001,5.201118,8.820247,1004.19104,0,0
64.36,-0.3611837,5.2154183,8.592993,1004.19293,0,0
64.4,-0.3181896,5.124854,8.361005,1004.148,0,0
64.44,-0.41858804,4.8388615,8.900725,1004.16785,0,0
64.48,-0.011035293,5.1438904,8.2759,1004.1605,0,0
64.52,-0.15918092,4.9150944,8.626248,1004.1957,0,0
64.56,-0.13525696,4.5862017,8.488953,1004.16815,0,0
64.6,-0.0061756223,4.791163,8.309047999999999,1004.18854,0,0
64.64,-0.17822357,4.862660400000001,7.9018917,1004.15826,0,0
64.68,-0.07781943,4.938925,8.583649000000001,1004.16315,0,0
64.72,-0.16382925,4.6481647000000015,8.924528,1004.191,0,0
64.76,0.13254352,5.115286,8.417949,1004.1557,0,0
64.8,0.12300892,5.20585,8.304326,1004.18854,0,0
64.84,-0.26412863,4.981821,8.16703,1004.18604,0,0
64.88,0.11350252,5.1820154,8.801442999999997,1004.15857,0,0
64.92,-0.0011878014,5.091451,8.484241,1004.1835,0,0
64.96,-0.087195985,4.972286,8.777776,1004.1711,0,0
65.0,-0.1397489,5.019951,8.683089,1004.15857,0,0
65.04,-0.24009815,5.058083,8.848797,1004.15857,0,0
65.08,0.0036967844,4.8864865,9.066582,1004.18604,0,0
65.12,0.037182063,5.0962143,8.413236,1004.1882,0,0
65.16,-0.039268173,4.8245196,8.687834,1004.1661,0,0
65.2,-0.1443989,4.6624565,8.957697999999997,1004.18097,0,0
65.24,-0.134811,4.8769503,7.849848700000001,1004.1611,0,0
65.28,-0.16824302,4.705353700000001,9.042921,1004.163,0,0
65.32,-0.02960372,4.9675136,8.536342999999999,1004.1761,0,0
65.36,-0.1012775,5.067611,8.048701,1004.16064,0,0
65.4,-0.16338831,4.9150805,9.203898,1004.17316,0,0
65.44,-0.12989977,4.772083,8.697319,1004.1811,0,0
65.48,-0.19708252,4.810222,8.446372,1004.17096,0,0
65.52,-0.3452412,4.7673225,8.943486,1004.14355,0,0
65.56,-0.4025846,4.710123,8.612079,1004.15326,0,0
65.6,-0.40257037,4.600492,8.791986999999999,1004.15106,0,0
65.64,-0.08230825,4.83882,8.967161,1004.133,0,0
65.68,-0.015375733,4.791154,8.744646000000001,1004.1636,0,0
65.72,-0.005797118,4.6719894,9.023977,1004.17847,0,0
65.76,-0.05836448,4.710121,8.560007,1004.17053,0,0
65.8,-0.115706906,4.619557,8.687838000000001,1004.15106,0,0
65.84,-0.05833023,4.7673197,8.711511,1004.15607,0,0
65.88,-0.16347162,4.8102183,8.526871,1004.17566,0,0
65.92,-0.18735544,4.6576877,8.806202,1004.1736,0,0
65.96,-0.0965268,4.843584,8.578951,1004.16815,0,0
66.0,-0.26380283,4.7005870000000005,8.720985,1004.1761,0,0
66.04,-0.17297038,4.6481543,9.099738,1004.16815,0,0
66.08,0.0947139,4.9913454,8.526878,1004.1535,0,0
66.12,-0.2541975,4.6719856,8.768333,1004.17914,0,0
66.16,-0.15380643,4.6624527,8.455864,1004.17114,0,0
66.2,-0.12511711,4.7053514000000005,8.455865,1004.1636,0,0
66.24,-0.08686348,4.9103127,8.261755,1004.1711,0,0
66.28,-0.1824405,4.805448,8.896168,1004.1815,0,0
66.32,-0.21588492,4.9865775,8.569495,1004.184,0,0
66.36,-0.45963967,4.70535,8.522153,1004.15356,0,0
66.4,-0.34490913,4.8626456,8.612107,1004.16364,0,0
66.44,-0.20628436,5.0580745,8.380123,1004.1461,0,0
66.48,-0.2174536,4.948483,8.73979,1004.17316,0,0
66.52,-0.09800364,4.977083,8.886553999999997,1004.20355,0,0
66.56,-0.12673068,4.981851,8.521999000000001,1004.1611,0,0
66.6,-0.021623194,5.0438175,8.574074000000001,1004.1761,0,0
66.64,-0.117264435,5.1105504,8.422568,1004.1761,0,0
66.68,-0.30372196,4.881757,8.593002,1004.17914,0,0
66.72,-0.23684987,4.886524700000002,8.981219,1004.1686,0,0
66.76,-0.3181608,4.7816615,8.682947,1004.18854,0,0
66.8,-0.146133,4.8007290000000005,8.479363000000001,1004.1636,0,0
66.84,-0.050582156,4.9723263,8.332593,1004.15857,0,0
66.88,-0.13666679,5.019993,8.342057,1004.1535,0,0
66.92,-0.1558372,4.8769975,8.749211,1004.1535,0,0
66.96,-0.11286417,4.972329599999999,8.711331,1004.1686,0,0
67.0,-0.012536481,5.0247626,8.469873,1004.15857,0,0
67.04,-0.012581661,5.0438304,8.488807000000001,1004.1718,0,0
67.08,0.049507618,5.0962634000000016,8.630835000000001,1004.1761,0,0
67.12,0.0016613603,5.043833,8.611892999999998,1004.14105,0,0
67.16,-0.041405052000000005,5.124865,8.308886,1004.15106,0,0
67.2,-0.18962413,5.067668,8.559805,1004.1736,0,0
67.24,-0.25658658,5.077202,8.507723,1004.16064,0,0
67.28,-0.118023455,5.191601,8.209451,1004.15857,0,0
67.32,-0.35705882,4.962807,8.450901,1004.17914,0,0
67.36,-0.44792336,4.786445,8.474568,1004.1736,0,0
67.4,-0.60092217,4.8245792000000005,8.157359,1004.1611,0,0
67.44,-0.0067770183,4.9770737,8.962341,1004.15607,0,0
67.48,0.07449077,5.191568,8.214307000000002,1004.13605,0,0
67.52,0.1462005,4.9866056,8.896061999999997,1004.212,0,0
67.56,-0.13101704,4.886508,8.053338,1004.1611,0,0
67.6,-0.08320475,5.000905,8.545717,1004.1561,0,0
67.64,-0.10231206,4.7768764,8.351607000000001,1004.17413,0,0
67.68,-0.07840038,4.7530437,8.578861,1004.1386,0,0
67.72,-0.17876275,4.7673426,8.058078,1004.16113,0,0
67.76,-0.31736597,4.6672449999999985,8.52205,1004.15826,0,0
67.8,-0.11660151,4.772108599999998,8.190642,1004.1636,0,0
67.84,-0.14048788,4.743509,8.133832,1004.1611,0,0
67.88,-0.32688755,4.3478847,8.6924925,1004.18115,0,0
67.92,-0.068765454,4.619577400000002,7.944456599999999,1004.13074,0,0
67.96,-0.106991194,4.5385456,8.195382,1004.1636,0,0
68.0,-0.21691403,4.4098487,8.588339,1004.1786,0,0
68.04,0.22283907,4.853138,8.020211,1004.1561,0,0
68.08,0.04121998,4.676775,8.735108,1004.13354,0,0
68.12,0.1272683,4.638643,8.56467,1004.17096,0,0
68.16,0.007786706,4.629109,8.309012,1004.1516,0,0
68.2,0.055595845,4.629108400000002,8.488921000000001,1004.1616,0,0
68.24,-0.078226775,4.3097496,8.228532000000001,1004.17645,0,0
68.28,-0.006517008,4.4622784000000015,7.972874000000001,1004.17114,0,0
68.32,-0.06864099,4.4384456,7.830842999999999,1004.18146,0,0
68.36,0.02696696,4.638641000000002,7.935001,1004.17914,0,0
68.4,0.031759456,4.548075700000001,8.559942999999999,1004.19617,0,0
68.44,0.012652114,4.610041000000002,8.261677,1004.17566,0,0
68.48,-0.13563842,4.47658,8.214323,1004.17664,0,0
68.52,0.14159833,4.6434093,8.219057000000001,1004.1711,0,0
68.56,0.14638476,4.633876,7.6272573,1004.1611,0,0
68.6,0.13683327,4.500412,8.384764,1004.17847,0,0
68.64,0.12728079,4.595743,7.5420394,1004.17413,0,0
68.68,0.026912987000000003,4.5862102999999985,8.062825,1004.21356,0,0
68.72,-0.1308134,4.676774,7.3716025,1004.21906,0,0
68.76,-0.24552202,4.362181700000002,8.323217999999999,1004.22156,0,0
68.8,-0.12601885,4.6672410000000015,8.498391999999999,1004.2086,1,3
68.84,0.21335484,4.791171,8.039156,1004.21893,1,3
68.88,0.11298655,4.6195745000000015,8.304283999999999,1004.196,1,3
68.92,0.19903012,4.8960357000000005,7.6462016,1004.19867,1,3
68.96,0.055643663,4.6434073,7.859250500000001,1004.196,1,3
69.0,-0.18333891,4.4718113,8.275879,1004.226,1,3
69.04,-0.15943277,4.695839,7.428421000000001,1004.19104,1,3
69.08,-0.025591612000000003,4.7435045,7.778767599999999,1004.21655,1,3
69.12,-0.09250076,4.786403,8.550476,1004.2361,1,3
69.16,-0.0016764253,4.9103336,7.916066000000002,1004.21356,1,3
69.2,0.050908536,4.8674345,8.474727,1004.2411,1,3
69.24,0.07481471,4.881734,8.185929,1004.2157,1,3
69.28,0.14651985,5.0056642999999985,8.238008500000001,1004.21606,1,3
69.32,-0.030323848,4.876967,8.148056,1004.2465,1,3
69.36,-0.06855658,4.6958375,8.479465,1004.2236,1,3
69.4,-0.025530718,4.8960333,8.010759,1004.24316,1,3
69.44,0.012715265,4.8197675,8.006024,1004.25037,1,3
69.48,0.0022594184,4.919887,8.503055999999999,1004.276,1,3
69.52,0.021343768,4.977087,8.308941,1004.2685,1,3
69.56,0.20772819,5.101018,8.275799000000001,1004.24347,1,3
69.6,0.088213935,4.867457,8.564594999999999,1004.2506,1,3
69.64,0.026048556,4.8912900000000015,8.233184,1004.2481,1,3
69.68,-0.017002806000000002,4.872225299999998,8.498308999999999,1004.2936,1,3
69.72,0.112022266,4.934191,8.119553999999999,1004.29846,1,3
69.76,-0.01705861,4.853160400000001,8.394146000000001,1004.29846,1,3
69.8,0.025931716,4.829328,8.531442,1004.3059,1,3
69.84,0.17408122,4.958026,8.545641999999999,1004.2956,1,3
69.88,0.164492,4.943727,8.716078,1004.3034,1,3
69.92,-0.0028273016,5.005693,8.181088,1004.2685,1,3
69.96,0.021049023,5.0533595,8.649792,1004.311,1,3
70.0,-0.06502056,5.005694,8.540897,1004.3208,1,3
70.04,0.006648615,5.0009284,8.753943,1004.3208,1,3
70.08,0.020960093,5.1010265,8.427266,1004.311,1,3
70.12,-0.14157937,4.8960657,8.512483999999999,1004.3159,1,3
70.16,-0.20374475,4.929432,8.739733,1004.336,1,3
70.2,-0.11773439,4.9151335,8.682917,1004.33093,1,3
70.24,-0.02216801,4.991399,8.559819000000001,1004.3492,1,3
70.28,0.020822376,5.1057973,8.507739,1004.35144,1,3
70.32,-0.10347873,4.910369,8.55508,1004.3534,1,3
70.36,-0.17998347,4.8865366,8.6545,1004.3559,1,3
70.4,-0.13699317,4.9389696,8.446183999999999,1004.3485,1,3
70.44,-0.26607227,4.838872,8.488791,1004.3709,1,3
70.48,-0.17938235,4.967553,8.621414999999999,1004.36346,1,3
70.52,-0.3418969,4.938954,8.550399,1004.3788,1,3
70.56,-0.22240303,5.1153164,8.413101,1004.3684,1,3
70.6,-0.11246878,5.172515,8.318413,1004.3938,1,3
70.64,-0.25586414,4.881755,8.810791,1004.3559,1,3
70.68,-0.28932405,4.7435255,8.602477,1004.3555,1,3
70.72,-0.093353376,4.857923,8.593007,1004.401,1,3
70.76,-0.07901517,5.0581182999999985,8.119567,1004.37335,1,3
70.8,-0.09335591,5.0533519999999985,8.531460000000001,1004.4059,1,3
70.84,0.026137993,5.205881,8.611945,1004.4033,1,3
70.88,-0.0073218197,5.0104523,8.810791,1004.4059,1,3
70.92,0.03569509,4.943721,8.40363,1004.3883,1,3
70.96,0.045253485,4.8865223,8.375224000000001,1004.4389,1,3
71.0,-0.059903458,4.8865223,8.290006,1004.4307,1,3
71.04,-0.3036747,4.83409,8.346817999999999,1004.41296,1,3
71.08,-0.1746213,4.934187400000001,8.772914,1004.4415,1,3
71.12,-0.31323670000000003,4.8150234,8.791852,1004.44324,1,3
71.16,-0.12682572,4.9770865,8.806055,1004.44086,1,3
71.2,-0.17940474,4.9437213,8.313677,1004.41833,1,3
71.24,-0.13160796,4.9627876,8.654553,1004.4459,1,3
71.28,-0.08859114,5.0438185,8.408364,1004.43585,1,3
71.32,-0.27978444,4.8626895,8.924414,1004.47833,1,3
71.36,-0.19374916,4.7911915999999986,9.004899,1004.4658,1,3
71.4,-0.0073380022999999985,4.9580207000000005,8.692428999999999,1004.4716,1,3
71.44,-0.07903631,5.0247526,8.654553,1004.4658,1,3
71.48,-0.0543594,5.0056677,8.938688,1004.4982,1,3
71.52,0.060383245,5.2010956,8.8298,1004.4991,1,3
71.56,-0.08298173,5.105764,8.692505,1004.47833,1,3
71.6,-0.20722927,4.9770660000000015,8.862946,1004.4683,1,3
71.64,-0.26933756,4.834069,8.877151,1004.5168,1,3
71.68,-0.18327188,4.8817330000000005,8.62623,1004.4683,1,3
71.72,-0.24538201,4.824534,8.938704,1004.50085,1,3
71.76,-0.06372031,5.048561,8.763535000000001,1004.50323,1,3
71.8,-0.097149774,5.024728,9.080742,1004.47833,1,3
71.84,0.008035094,5.1152916,8.82982,1004.4907,1,3
71.88,-0.14011149,5.086692,8.829823,1004.51074,1,3
71.92,-0.13530251,4.915095,9.203844,1004.54065,1,3
71.96,-0.025337845,5.062857599999999,9.076018,1004.50336,1,3
72.0,-0.14958358,5.0628567,8.867707000000003,1004.51575,1,3
72.04,-0.14955625,5.134354599999999,9.203851,1004.5562,1,3
72.08,-0.18298572,5.1200542,9.530528,1004.5507,1,3
72.12,-0.22597477,5.167719,9.246467,1004.58124,1,3
72.16,-0.13990916,5.267816000000002,8.886655000000003,1004.56366,1,3
72.2,-0.12554242,5.019954,9.445316,1004.54584,1,3
72.24,0.11347516,5.3202467,8.427422,1004.53046,1,3
72.28,-0.058568597,4.948455,9.445322,1004.57324,1,3
72.32,-0.087218285,5.239214,8.787243,1004.58374,1,3
72.36,-0.08241115,5.2106137000000015,9.421655,1004.5761,1,3
72.4,-0.034583926,5.1820135,9.066578,1004.5782,1,3
72.44,0.05626151,5.258278,9.175471,1004.5832,1,3
72.48,-0.07864309,5.086708,8.914982,1004.59576,1,3
72.52,-0.06431761400000001,5.16774,9.000199,1004.58875,1,3
72.56,-0.011752859,5.191573,9.151699,1004.5854,1,3
72.6,0.059930265,5.186807,9.303199,1004.5961,1,3
72.64,0.04557775,5.215406400000001,8.995461,1004.57367,1,3
72.68,-0.09305135,5.005678,9.094882,1004.5962,1,3
72.72,-0.059605837,5.010445,9.255851,1004.5832,1,3
72.76,-0.21257350000000005,5.1105433,8.971786,1004.6083,1,3
72.8,-0.121773794,5.0819445,9.341067,1004.60895,1,3
72.84,-0.15046304,5.177275700000001,9.255847,1004.5962,1,3
72.88,-0.054881833,5.067645,9.374207,1004.6066,0,0
72.92,-0.1887294,4.876983,9.378939,1004.60315,0,0
72.96,0.10282467,5.129611,8.9197,1004.5807,0,0
73.0,0.011995316,4.953249,8.938637,1004.6132,0,0
73.04,-0.12663293,4.872218,8.995448,1004.62366,0,0
73.08,-0.05494897,4.9008174,9.2842455,1004.6037,0,0
73.12,0.05019279,5.139146,8.914962,1004.58026,0,0
73.16,-0.1410168,4.9723167,8.957569,1004.59827,0,0
73.2,-0.0645539,5.072415,9.132741,1004.61816,0,0
73.24,-0.11236501,5.0009169999999985,9.284242,1004.6033,0,0
73.28,0.06447376,5.062882,9.274771,1004.6316,0,0
73.32,0.10269825,5.0485826,9.094863,1004.60815,0,0
73.36,0.0023084134,4.986618,8.919687,1004.60077,0,0
73.4,0.06921522,4.9866185,8.881811,1004.6087,0,0
73.44,-0.074320845,4.7864260000000005,8.981221000000003,1004.64355,0,0
73.48,-0.040881217,4.8579254,8.839188,1004.6287,0,0
73.52,0.0116799325,4.8817580000000005,8.848654,1004.6203,0,0
73.56,0.04512313,4.8960586,8.649808,1004.6083,0,0
73.6,0.0068609416,4.881759,8.853385000000003,1004.61145,0,0
73.64,0.040301725,4.9341917,8.744492999999999,1004.60565,0,0
73.68,0.11198093,5.067656,8.521974,1004.6037,0,0
73.72,0.0020311773,4.938959,8.588255,1004.62823,0,0
73.76,-0.112709075,4.891294,8.645064,1004.65607,0,0
73.8,-0.017130837,4.986626,8.640328,1004.6315,0,0
73.84,-0.22745529,4.810263,9.170581,1004.6207,0,0
73.88,-0.17490242,4.9055953,8.44148,1004.6365,0,0
73.92,-0.021966547000000003,5.077192,8.474619,1004.60114,0,0
73.96,-0.14625566,4.891296,8.787088,1004.61816,0,0
74.0,-0.08892183,4.919896,8.872306,1004.62396,0,0
74.04,-0.117618464,4.8340983,8.678194,1004.62067,0,0
74.08,-0.0985171,4.7626004,8.327847,1004.64105,0,0
74.12,-0.0029400736,4.9008317,8.725533500000001,1004.6037,0,0
74.16,-0.12245417,4.8722324,8.498281500000001,1004.63104,0,0
74.2,0.025699526,4.9055985999999985,8.753936999999999,1004.64825,0,0
74.24,-0.065134585,4.7673693,8.777607000000001,1004.6287,0,0
74.28,0.020884037,4.8627005,8.687653,1004.6331,0,0
74.32,0.102121666,4.9389663,8.607165,1004.6287,0,0
74.36,0.073425055,4.915133999999999,8.578757000000001,1004.6356,0,0
74.4,0.09252401,4.819803,8.734991,1004.6611,0,0
74.44,0.073387,4.8007374,8.749191999999999,1004.64606,0,0
74.48,0.11768438,4.862671400000001,8.7398405,1004.64075,0,0
74.52,0.19897275,5.000900700000001,8.389498,1004.6332,0,0
74.56,0.06516798,4.8340707,8.834535,1004.64124,0,0
74.6,-0.020836785,4.7816377,9.0570545,1004.6337,0,0
74.64,0.08434862,4.8865013,8.531538000000001,1004.62646,0,0
74.68,0.17041878,4.9532323,8.668839,1004.6186,0,0
74.72,0.25648493,4.9818305999999986,8.44159,1004.64124,0,0
74.76,0.007966861,4.757802,8.5126095,1004.62616,0,0
74.8,0.2278695,4.8912644,8.683050999999999,1004.62823,0,0
74.84,0.22789724,4.7864,8.82982,1004.6511,0,0
74.88,0.22315313,4.948462,8.479477000000001,1004.66644,0,0
74.92,0.12758471,4.924628299999998,8.493683,1004.66064,0,0
74.96,0.26145095,4.9818263,8.541030000000001,1004.6307,0,0
75.0,0.3140605,4.953226,8.754081,1004.6157,0,0
75.04,0.23283355,4.943692,8.673599000000001,1004.6432,0,0
75.08,0.24720661,4.9579906,8.361132000000001,1004.6566,0,0
75.12,0.1946585,4.8483589999999985,8.593119999999999,1004.66394,0,0
75.16,0.20425178,4.972289,8.498435,1004.62366,0,0
75.2,0.1755987,4.90079,8.820377,1004.6557,0,0
75.24,0.19953339,4.953222,8.6499405,1004.6356,0,0
75.28,0.17088623,5.0533185,8.342208,1004.6391,0,0
75.32,-0.029835753,4.9818190000000016,8.38482,1004.60114,0,0
75.36,-0.13974155,4.714891400000001,8.626278,1004.6432,0,0
75.4,-0.0154349655,5.067616,8.219121000000001,1004.6287,0,0
75.44,0.09350456,5.072406299999999,8.602517,1004.6087,0,0
75.48,-0.002101019,4.8150125,8.881846000000003,1004.6506,0,0
75.52,0.08392528,4.8865113,8.626187,1004.63617,0,0
75.56,0.007438943000000002,4.8960447,8.630922,1004.61316,0,0
75.6,0.13170435,4.8197800000000015,8.465216999999999,1004.63104,0,0
75.64,0.021758035,4.83408,8.801358,1004.6307,0,0
75.68,0.31809634,4.967544,8.8534355,1004.65356,0,0
75.72,0.09821525,4.7864146,8.498355,1004.6257,0,0
75.76,0.09820573,4.829314,8.654589,1004.644,0,0
75.8,-0.102556825,4.7673492,8.389461500000001,1004.6132,0,0
75.84,-0.34155595,4.5957537,8.701931,1004.64624,0,0
75.88,0.007359028,5.0152106,8.432069,1004.6586,0,0
75.92,0.08382633,5.029511,8.299505,1004.63104,0,0
75.96,-0.007000074,4.78165,9.2274475,1004.63574,0,0
76.0,-0.08348772,4.9103474999999985,8.252158999999999,1004.6312,0,0
76.04,-0.27468944,4.6815524,8.716128999999999,1004.6562,0,0
76.08,-0.29859787,4.805484,8.559892999999999,1004.65375,0,0
76.12,-0.37508494,4.748285,8.621439,1004.65814,0,0
76.16,-0.48502994,4.524257,8.924439999999997,1004.6511,0,0
76.2,-0.38466483,4.7101526,8.787142,1004.6511,0,0
76.24,-0.26995906,5.010446,8.531483,1004.60815,0,0
76.28,-0.48027992,4.7435193,8.943375999999997,1004.64075,0,0
76.32,-0.5376483,4.5528574,8.877092,1004.6257,0,0
76.36,-0.3990436,4.72922,8.839217,1004.6562,0,0
76.4,-0.3847143,4.710154,8.820278,1004.62103,0,0
76.44,-0.36082542,4.848385,8.427321000000001,1004.63104,0,0
76.48,-0.40853608,4.843616,8.63091,1004.6386,0,0
76.52,-0.5375970999999999,4.6148214,8.678253,1004.62317,0,0
76.56,-0.39420938,4.843616,8.815549,1004.64355,0,0
76.6,-0.5089306,4.7244525,8.820284,1004.65393,0,0
76.64,-0.571074,4.6434207,8.924439,1004.64825,0,0
76.68,-0.5041635,4.776885,8.787142,1004.6315,0,0
76.72,-0.5424079,4.70062,8.853423,1004.64124,0,0
76.76,-0.4420383,4.767352,8.668778999999999,1004.6076,0,0
76.8,-0.52808267,4.7006207,8.763468,1004.6187,0,0
76.84,-0.5997857,4.719687,8.469934,1004.6162,0,0
76.88,-0.5041939999999999,4.686321,8.597763,1004.63275,0,0
76.92,-0.045341156,4.738754,8.976515,1004.66364,0,0
76.96,0.46609157,5.4251375,8.138524,1004.59357,0,0
77.0,0.07414125,4.9151163,8.711387,1004.65356,0,0
77.04,-0.14095546,4.643422,8.739792,1004.63617,0,0
77.08,-0.09316416,4.6863217000000015,8.455727,1004.6062,0,0
77.12,-0.045372464,4.848385,8.540946,1004.65686,0,0
77.16,-0.04059902,4.9580160000000015,8.129053,1004.6137,0,0
77.2,-0.16010006,4.6815557,8.735056,1004.62573,0,0
77.24,-0.050170533,4.7387546999999985,8.474663,1004.6532,0,0
77.28,0.0024006069,4.8960514,8.574084,1004.63385,0,0
77.32,0.050194263,4.7673545,8.948102,1004.64105,0,0
77.36,-0.16012381,4.9151177000000015,8.436786,1004.6137,0,0
77.4,-0.18881015,4.8579197,8.460458000000001,1004.6207,0,0
77.44,-0.40321958,4.586208999999998,8.3895035,1004.6391,0,0
77.48,-0.3219413,4.700606,8.545739999999999,1004.6337,0,0
77.52,-0.44141483,4.795936,9.260638,1004.6386,0,0
77.56,-0.41749424,4.3955449999999985,9.753018,1004.6689,0,0
77.6,-0.14502522,4.7244367999999985,8.545746000000001,1004.6491,0,0
77.64,0.22781967,5.2487580000000005,7.357413,1004.59644,0,0
77.68,0.12746675,4.772101,8.531547,1004.63666,0,0
77.72,0.15138729,4.767334,7.9444833,1004.62646,0,0
77.76,0.008013397,4.853132,8.299565,1004.62366,0,0
77.8,-0.13057935,4.738734,8.716194,1004.6415,0,0
77.84,0.17056714,4.848364,8.933978999999997,1004.6511,0,0
77.88,0.33310342,4.834064,9.203842,1004.6636,0,0
77.92,0.18017124,4.814997,8.791952,1004.5962,0,0
77.96,-0.10659548,4.757798,8.621514,1004.63617,0,0
78.0,-0.31688526,4.5433025,8.749346000000001,1004.5992,0,0
78.04,-0.34076545,4.662466,9.042881,1004.6466,0,0
78.08,-0.60363305,4.6576986,8.810897,1004.61646,0,0
78.12,-0.5940505,4.405071,9.644155,1004.6768,0,0
78.16,-0.5175535,4.476568,8.683071,1004.6516,0,0
78.2,-0.28810132,4.581432,8.891387,1004.6242,0,0
78.24,-0.49839252,4.4193687000000015,8.493699000000001,1004.62646,0,0
78.28,-0.4314537000000001,4.290671,9.10444,1004.6132,0,0
78.32,-0.24024129,4.61003,8.522109,1004.6212,0,0
78.36,-0.34537542,4.533765,8.583658,1004.62616,0,0
78.4,-0.20673823,4.7673254,8.678349,1004.6466,0,0
78.44,-0.35542244,4.6100416,8.915023,1004.6516,0,0
78.48,-0.44145894,4.419379,9.516292,1004.63666,0,0
78.52,-0.29328495,4.8007035,8.943429,1004.6287,0,0
78.56,-0.41755986,4.6720066,9.038116,1004.6517,0,0
78.6,-0.47491753,4.414613,8.938695,1004.64166,0,0
78.64,-0.16423029,4.386013,9.156477,1004.63617,0,0
78.68,-0.32674363,4.519476999999998,8.190659,1004.6316,0,0
78.72,-0.35542244,4.5004106,8.522067,1004.6214,0,0
78.76,-0.30284458,4.419379,8.995507,1004.61414,0,0
78.8,-0.07341402,4.5957417000000005,8.574146,1004.61115,0,0
78.84,-0.2215879,4.366947,9.019179,1004.64624,0,0
78.88,0.21815403,4.8007035,8.541005,1004.6186,0,0
78.92,-0.016056373999999998,4.586208999999998,8.588349000000001,1004.6291,0,0
78.96,-0.29806477,4.2859154,9.090196,1004.64856,0,0
79.0,-0.23592733,4.333581,9.00971,1004.67914,0,0
79.04,-0.039955392,4.586208999999998,8.588349000000001,1004.6416,0,0
79.08,-0.26460618,4.366947,8.649896,1004.6291,0,0
79.12,0.012622446,4.624341,8.986039,1004.6541,0,0
79.16,-0.14033128,4.52901,8.981304,1004.62616,0,0
79.2,0.017402247,4.5433097,8.891351,1004.6187,0,0
79.24,0.09865892,4.619574,8.962367,1004.6365,0,0
79.28,0.12733777,4.7053723,8.692506,1004.6187,0,0
79.32,-0.0447352,4.6434073,8.332691,1004.6168,0,0
79.36,-0.030395776,4.633874,8.791928,1004.6315,0,0
79.4,-0.12121205,4.5004106,9.004976,1004.6689,0,0
79.44,-0.14511105,4.5004106,8.649896,1004.63916,0,0
79.48,0.02612099,4.6624947,9.014368,1004.6517,0,0
79.52,0.05954872,4.6195955,8.886536999999997,1004.65686,0,0
79.56,-0.016963198999999998,4.605297,8.905471,1004.6391,0,0
79.6,0.102498904,4.681563,8.744497,1004.6441,0,0
79.64,-0.10306354,4.614831400000001,8.479368,1004.62195,0,0
79.68,-0.1317774,4.448003,9.109041,1004.67175,0,0
79.72,-0.06967085,4.524269,8.820239,1004.6341,0,0
79.76,-0.17485747,4.4623046,8.55511,1004.61646,0,0
79.8,-0.05539327,4.343141,9.113767,1004.64636,0,0
79.84,0.20268314,4.648202,8.313649,1004.6186,0,0
79.88,0.030577242,4.509972,9.000135,1004.64435,0,0
79.92,-0.14152868,4.390809,9.023804,1004.63617,0,0
79.96,-0.07942421,4.614838,8.749206,1004.6292,0,0
80.0,-0.089016765,4.409877,9.066408,1004.6517,0,0
80.04,-0.012572898999999998,4.633906,8.649776,1004.6243,0,0
80.08,0.063875124,4.395579,9.535108,1004.6616,0,0
80.12,0.17855535,4.5576425,8.6118965,1004.6216,0,0
80.16,0.14506586,4.5719433,8.730253,1004.6266,0,0
80.2,0.09245707,4.471846,8.673438,1004.6416,0,0
80.24,0.08286245,4.638676,8.479322999999999,1004.6622,0,0
80.28,-0.031889945,4.495681299999998,9.08059,1004.6341,0,0
80.32,-0.017577335,4.6339115999999985,8.772851,1004.64166,0,0
80.36,-0.17056198,4.4766154,8.891208,1004.6517,0,0
80.4,-0.09412013,4.514749,9.009565,1004.63916,0,0
80.44,-0.13238949,4.5862484000000014,8.379888000000001,1004.6316,0,0
80.48,-0.06398279,4.467048,9.009698,1004.6469,0,0
80.52,-0.15477079,4.533779,8.649886,1004.6291,0,0
80.56,-0.1834313,4.500413,8.957624000000003,1004.6365,0,0
80.6,0.022126898,4.6338754,8.531528999999999,1004.62213,0,0
80.64,-0.121233925,4.552843,8.829801,1004.6117,0,0
80.68,-0.19768417,4.571909,8.905553999999997,1004.6466,0,0
80.72,-0.16419889,4.590975,8.957635,1004.6546,0,0
80.76,-0.24543723,4.619573,8.73512,1004.6441,0,0
80.8,-0.039872408,4.648172,8.526810000000001,1004.5892,0,0
80.84,0.15612288,4.672004,8.683046000000001,1004.6216,0,0
80.88,-0.011141971,4.5147066,9.236975,1004.6821,0,0
80.92,0.031902924,4.6815357,8.583629,1004.63666,0,0
80.96,-0.11624436,4.366943,8.881899,1004.6216,0,0
81.0,-0.030189604,4.357409,9.009729,1004.6372,0,0
81.04,-0.0014774799,4.428906400000002,8.773012,1004.62195,0,0
81.08,0.09414522,4.5719023000000005,8.711468,1004.64935,0,0
81.12,-0.034884498,4.419372,8.848767,1004.63666,0,0
81.16,0.10375644,4.6291,8.801426,1004.6316,0,0
81.2,0.07988404,4.6767650000000005,8.484223,1004.63666,0,0
81.24,-0.02046521,4.443203,9.076026,1004.62213,0,0
81.28,0.051256806,4.68153,8.886652,1004.62964,0,0
81.32,-0.015635446,4.6529303,8.806169500000003,1004.62476,0,0
81.36,0.041747138,4.586198,8.891391,1004.6471,0,0
81.4,0.036997333,4.5623646,8.7683,1004.60693,0,0
81.44,0.21312441,4.7292112999999985,8.796639,1004.61664,0,0
81.48,-0.05932822,4.3764863,8.815577000000003,1004.6397,0,0
81.52,-0.054552212,4.419386,8.891327,1004.6521,0,0
81.56,-0.035436578,4.5719156,8.630934,1004.62964,0,0
81.6,0.06493549,4.576682,8.744558999999999,1004.64966,0,0
81.64,0.055372313,4.52425,9.317423,1004.6622,0,0
81.68,0.1700838,4.4146194,9.241672,1004.66437,0,0
81.72,0.14140119,4.529017,8.451025999999999,1004.6097,0,0
81.76,0.23221366,5.0295057,7.972850999999999,1004.60223,0,0
81.8,-0.068917535,4.762578,8.744557,1004.6471,0,0
81.84,0.026674733,4.6672473,9.378968,1004.6469,0,0
81.88,0.21786334,4.7530456,8.96234,1004.6371,0,0
81.92,0.2991162,4.743512,8.540977499999999,1004.6346,0,0
81.96,0.107920215,4.738746,8.086474,1004.60187,0,0
82.0,-0.09283531,4.5814495000000015,9.019152,1004.6595,0,0
82.04,-0.11673789,4.824544,8.27585,1004.6097,0,0
82.08,-0.10240230000000004,4.748279,8.67354,1004.6243,0,0
82.12,0.017089218,4.700614,8.9623375,1004.64716,0,0
82.16,0.1987177,4.881743,8.597789,1004.61456,0,0
82.2,0.055320054,4.7721124,8.801368,1004.6546,0,0
82.24,-0.116756685,4.614816,8.607256,1004.6346,0,0
82.28,-0.3222921,4.500418700000001,8.706679,1004.63684,0,0
82.32,-0.1597823,4.7578125,8.687741,1004.64716,0,0
82.36,-0.09286861,4.6767817,9.21326,1004.63934,0,0
82.4,0.093539685,4.972308,8.725615,1004.6446,0,0
82.44,0.04095827,4.929409,8.380003,1004.62994,0,0
82.48,-0.050283246,4.5766945,9.165875,1004.63684,0,0
82.52,-0.055083334000000005,4.672025700000002,8.716105,1004.6199,0,0
82.56,0.045273528,4.7339916,8.536196,1004.6246,0,0
82.6,0.08827272,4.776891,8.32788,1004.5967,0,0
82.64,-0.016903266,4.762592,8.919678999999997,1004.64215,0,0
82.68,-0.06472287,4.7006273,8.735035,1004.63495,0,0
82.72,-0.09820181,4.7053943,8.484110000000001,1004.6374,0,0
82.76,-0.08865994,4.733994,8.839189999999997,1004.62726,0,0
82.8,-0.031323887,4.93419,8.597733,1004.6321,0,0
82.84,-0.036122724,4.8626924,8.957545,1004.6396,0,0
82.88,-0.088720836,4.919891000000002,8.611932000000001,1004.61487,0,0
82.92,-0.24169362,4.662498,8.744493499999999,1004.6446,0,0
82.96,-0.2656142,4.6624985,8.640335,1004.6017,0,0
83.0,-0.040982455,4.843628,8.517238,1004.63684,0,0
83.04,0.02113469,4.8769946,8.654534,1004.6574,0,0
83.08,-0.031462178,4.781664,8.739751,1004.6574,0,0
83.12,0.116691425,4.943727,8.739749,1004.6168,0,0
83.16,0.1071115,4.929428,8.294714,1004.6396,0,0
83.2,-0.017183676000000002,4.714934,8.886513,1004.6271,0,0
83.24,0.035375133,4.8817635,8.503022999999999,1004.6344,0,0
83.28,-0.0411233,4.7769,8.682929,1004.6196,0,0
83.32,0.05923356,4.934196,8.531426,1004.6271,0,0
83.36,-0.055500783,4.829333,8.474611999999999,1004.6125,0,0
83.4,0.035295203,4.929431,8.616643,1004.5871,0,0
83.44,-0.09855962,4.8579335,8.7113285,1004.6175,0,0
83.48,-0.040413156,4.910346,8.6025095,1004.63464,0,0
83.52,-0.03562265,4.872213,8.782418,1004.62213,0,0
83.56,-0.045170844,4.967544,8.327916,1004.6196,0,0
83.6,-0.049939238,4.8865123,8.574107000000001,1004.62494,0,0
83.64,-0.116845764,4.8865123,8.583577,1004.6599,0,0
83.68,-0.1598526,4.8245463,8.545702,1004.5994,0,0
83.72,-0.021226883,4.9008107,8.768221,1004.6575,0,0
83.76,0.06960012,5.0199747000000015,8.545703999999999,1004.6421,0,0
83.8,0.07439205,4.8388453,8.810832000000003,1004.63184,0,0
83.84,0.17477931,4.872211,8.578847,1004.60205,0,0
83.88,0.040956244,4.9246426,8.237969999999999,1004.6324,0,0
83.92,0.040966913,4.8865104000000015,8.545708,1004.64996,0,0
83.96,-0.04505884,4.843611,8.640397,1004.64996,0,0
84.0,-0.08806564,4.7721124,8.58832,1004.6396,0,0
84.04,-0.011577383,4.767345400000001,8.825042,1004.5994,0,0
84.08,0.01233305,4.9484744,8.256914,1004.6474,0,0
84.12,-0.06413309,4.872209,8.687746,1004.62494,0,0
84.16,0.0553727,4.786410299999999,9.042827,1004.66284,0,0
84.2,0.13186096,4.838843,8.791903999999999,1004.6574,0,0
84.24,0.050615698,4.7721105,8.730358,1004.61725,0,0
84.28,0.122327045,4.9055734000000015,8.432091999999999,1004.6449,0,0
84.32,0.11277528,4.934172599999999,8.413155,1004.6196,0,0
84.36,-0.25525534,4.552848,9.2890215,1004.62494,0,0
84.4,-0.07839191,4.7101440000000006,8.853457,1004.6324,0,0
84.44,-0.07369401,4.714913,8.365806,1004.61456,0,0
84.48,0.11272548,4.834076400000002,8.578855,1004.62494,0,0
84.52,0.017135069,4.6767797,8.725621,1004.62744,0,0
84.56,0.0028028040000000003,4.80071,8.58359,1004.62744,0,0
84.6,-0.11190251,4.5766816,9.038094,1004.64746,0,0
84.64,0.021939144,4.63388,8.8155775,1004.6175,0,0
84.68,0.036283776,4.7339773,8.488904,1004.615,0,0
84.72,0.11754994,4.8054760000000005,8.716157,1004.64496,0,0
84.76,-0.054515347,4.600514,8.848721000000003,1004.6499,0,0
84.8,-0.025828913,4.6434126,8.825049,1004.64246,0,0
84.84,-0.073619835,4.7053775999999985,8.522048,1004.6271,0,0
84.88,-0.049712762,4.795942,8.626206,1004.65247,0,0
84.92,-0.078384444,4.705377,8.777707000000001,1004.60986,0,0
84.96,-0.00668025,4.7387432999999985,8.929209,1004.6553,0,0
85.0,-0.025791839,4.6529446,8.815584,1004.62494,0,0
85.04,0.084150776,4.786408,8.744568,1004.62787,0,0
85.08,0.0076820105,4.6672444,8.683022,1004.6354,0,0
85.12,0.012469411,4.70061,8.815586,1004.64526,0,0
85.16,0.04593517,4.791174400000001,8.612007,1004.61255,0,0
85.2,-0.07355279,4.6720104000000005,8.6924925,1004.6503,0,0
85.24,-0.08788413,4.6863093000000005,8.716166000000001,1004.66046,0,0
85.28,-0.09743661,4.714909,8.787182000000001,1004.6304,0,0
85.32,-0.11654867,4.7149085999999985,8.697227999999999,1004.64526,0,0
85.36,0.060312152,4.7578073,8.758777,1004.61536,0,0
85.4,-0.0400566,4.710141,8.683027000000001,1004.6429,0,0
85.44,-0.041206196,4.8388667000000005,8.626109,1004.62994,0,0
85.48,-0.14639874,4.6625055999999985,8.867561,1004.6379,0,0
85.52,-0.031722784,4.7626038,8.753931,1004.62,0,0
85.56,-0.012640417,4.7626047,8.602427,1004.64526,0,0
85.6,0.0016596913,4.805505,8.602423,1004.6379,0,0
85.64,-0.1178747,4.672042,8.848609,1004.64746,0,0
85.68,-0.13225344,4.7340083,8.6829,1004.6404,0,0
85.72,-0.103611514,4.70541,8.744444999999999,1004.6503,0,0
85.76,-0.031953752,4.7197104,8.971692,1004.62994,0,0
85.8,-0.06545169,4.7483106,8.555062,1004.60754,0,0
85.84,-0.07983042,4.7435455,8.597667999999999,1004.62994,0,0
85.88,-0.07508745,4.629149,8.7349615,1004.6304,0,0
85.92,-0.041665718,4.705415,8.692349,1004.6379,0,0
85.96,-0.056044422,4.7292485,8.616595,1004.64526,0,0
86.0,-0.008283243000000001,4.776914,8.66867,1004.65796,0,0
86.04,-0.046563447,4.7483163,8.919589,1004.66046,0,0
86.08,-0.099180594,4.7149519999999985,8.659193,1004.6379,0,0
86.12,-0.084878065,4.7769175000000015,8.7349415,1004.62787,0,0
86.16,-0.11837597,4.762619,8.559764,1004.61285,0,0
86.2,-0.21879119,4.6815886,8.787011,1004.6304,0,0
86.24,-0.19970883,4.6625233,8.654446,1004.63794,0,0
86.28,-0.075473234,4.819821,8.682848,1004.64545,0,0
86.32,0.034422934,4.8531876,8.701782000000001,1004.64795,0,0
86.36,-0.09466861,4.800756,8.682839999999999,1004.65045,0,0
86.4,-0.013451263,4.7912245,8.555009,1004.6304,0,0
86.44,-0.11386402,4.7054267,8.824866,1004.66046,0,0
