Timestamp,Ax,Ay,Az,P,LPFRMSAcc,LPFPValue,Value,Type
0.0,1.399868,6.6053257,9.556534,1004.98145,0.024320418098606224,3.61793322,0,0
0.02,1.203896,6.629158500000001,7.7527256,1005.01965,0.06707090833526339,10.419785193600001,0,0
0.04,0.9553463,6.738789,7.118314999999999,1005.02374,0.12507365892511912,20.010475834775995,0,0
0.06,0.53950334,6.2430673,7.6580377,1005.01135,0.19644114980660915,32.030813232313925,0,0
0.08,0.7928329000000001,6.533827,7.814273,1004.99896,0.28002942945966314,46.1546686851421,0,0
0.1,0.68767726,6.490928,7.4639273,1005.0361,0.3734887097778332,62.08648051599455,0,0
0.12,0.5156043,6.514761,7.1751285000000005,1005.0336,0.4748965985783204,79.55843907987821,0,0
0.14,0.46302652,6.4861617,7.2934885,1005.0361,0.5831003914612877,98.32838124623824,0,0
0.16,0.27246356,6.243052,7.468719,1005.0289,0.6968504802956585,118.1776240119475,0,0
0.18,0.22470354,6.366981,7.2414710000000015,1005.0057,0.8148983487747995,138.9089959932852,0,0
0.2,0.13867976,6.2764163,7.4403169999999985,1005.0163,0.9365057063119308,160.34522257041937,0,0
0.22,0.2677725,6.033321,7.99898,1005.0188,1.0614185274071049,182.3270972527216,0,0
0.24,0.17696889,6.042854,7.7859335,1005.00775,1.1884585924682598,204.71193207189404,0,0
0.26,0.46856236,6.271648,7.7906704,1005.018,1.3172430748584154,227.37227396265598,0,0
0.28,0.39209813,6.271648,8.12208,1005.02295,1.4476390010894788,250.1944944910676,0,0
0.30000000000000004,-0.018939674,6.1906157,7.6770477,1005.02545,1.5781433443496864,273.0775999898044,0,0
0.32,0.09580101,6.233514,7.7717385,1005.0081,1.7084838342049875,295.9320618085248,0,0
0.34,0.30613768,6.2049136,8.022664,1005.0131,1.8385919036772504,318.67895600903563,0,0
0.36000000000000004,0.36831325,6.1381817000000005,7.596571000000001,1005.0383,1.9672502500328664,341.24900536297434,0,0
0.38,0.41612393,6.147714,7.520822,1005.0229,2.094058853888061,363.58148699280787,0,0
0.4,0.44962066,6.223978,7.449808999999999,1005.02106,2.2187668285053617,385.6236502237547,0,0
0.42,0.35404992,6.1048136,7.539765400000001,1005.0161,2.341148601391564,407.3299184738137,0,0
0.44,0.5357205,6.3288410000000015,7.411939999999999,1005.031,2.4611449605085696,428.66130099306014,0,0
0.46,0.5357205,6.3288410000000015,7.411939999999999,1005.0352,2.5786015811262915,449.58465662349136,0,0
0.48,0.44016248,6.1524773,7.771758,1005.0511,2.6937258650503155,470.07221285469575,0,0
0.5,0.62182033,6.3097730000000025,7.6534,1005.04333,2.806409121012765,490.1009135623111,0,0
0.52,0.5979594,6.309772,7.643934700000001,1005.0252,2.9165116317357307,509.6520009387357,0,0
0.54,0.75092584,6.424169,7.819109,1005.05334,3.024390006963985,528.7107865651649,0,0
0.56,0.5549791999999999,6.614830499999999,7.421422,1005.026,3.1295187335814987,547.2658643130433,0,0
0.5800000000000001,0.3924786,6.5719314,6.96692,1005.04254,3.2310673492693933,565.3091270435416,0,0
0.6,0.73666245,6.524265,7.809647,1005.0161,3.330370205605029,582.8350990948531,0,0
0.62,0.7510146,6.548097,7.937477,1005.035,3.4275688268671938,599.8409676426505,0,0
0.64,0.63632464,6.371734,8.292561,1005.0136,3.5228906082457265,616.3259745679708,0,0
0.66,0.17636125,6.0285687,7.686455199999997,1005.02783,3.6147414573817347,632.291453366739,0,0
0.68,0.1906804,6.30503,7.141997,1005.02295,3.7026930213934683,647.7403838212102,0,0
0.7000000000000001,0.32927442,6.533825,6.9573535999999985,1005.018,3.786926800478347,662.6772581890249,0,0
0.72,0.51565635,6.5195265,7.336103,1005.01526,3.868149834621948,677.1078971869454,0,0
0.74,0.49173707,6.4146624,7.383445299999999,1004.9845,3.9463477608510615,691.0391655756348,0,0
0.76,0.41525,6.386063,7.326631,1005.0131,4.02145584037282,704.4791404878085,0,0
0.78,0.38177115,6.343165,7.501802400000001,1005.04346,4.093778502062727,717.4367338704492,0,0
0.8,0.43432868,6.729256,7.217736200000001,1005.00287,4.163475436937794,729.9213014734167,0,0
0.8200000000000001,0.14273019,6.4575634000000015,7.4165782999999985,1005.0548,4.230512685015077,741.9431460020945,0,0
0.84,0.14273019,6.4575634000000015,7.4165782999999985,1005.04504,4.2949584997447525,753.5128146460268,0,0
0.86,0.14748968,6.3860655,8.112534,1005.04083,4.357902204665315,764.6412747150798,0,0
0.88,0.023194492,6.681593,7.279277,1005.0483,4.418367870112903,775.3398473231206,0,0
0.9,0.06617215,6.53383,7.4781179999999985,1005.0285,4.476529650304755,785.6199852292218,0,0
0.92,0.12829943,6.4956975,7.388164,1004.9856,4.532254770766631,795.493231296228,0,0
0.94,-0.17284848,6.023809,7.653288400000001,1005.0222,4.585423860373079,804.9715358083682,0,0
0.96,0.08523056,6.257371400000001,7.2035174,1005.02545,4.635729528104472,814.0667597663852,0,0
0.98,0.104339585,6.2812047,7.2271886,1005.0336,4.683393995436601,822.7907802805299,0,0
1.0,0.15211736,6.305038,7.59647,1005.0131,4.7291714687982385,831.1553251578184,0,0
1.02,0.35284877,6.591032000000001,7.345544999999999,1005.0655,4.773121030042309,839.1723136408223,0,0
1.04,0.2572325,6.457568599999999,7.9468117,1005.0179,4.816061213882264,846.8531687752977,0,0
1.06,0.23332326,6.438503,7.875795399999999,1005.04095,4.857814322615512,854.2094483845289,0,0
1.08,0.24285243,6.7483296,7.397618,1005.04095,4.898037458441517,861.2524504530612,0,0
1.1,0.022971317,6.500469,7.572789699999999,1005.0486,4.936689077666963,867.9933132191858,0,0
1.12,0.13287641,6.295508,7.710084399999999,1005.04346,4.973760067667003,874.4429200877437,0,0
1.14,0.06115906,6.462338,7.189298,1005.04095,5.008703012358256,880.6119456244861,0,0
1.16,0.14341317,6.3383827,7.5065947,1005.0483,5.041969627414852,886.5108674645031,0,0
1.18,0.11953442,6.3479155999999985,7.497127499999999,1005.02295,5.073632381185203,892.1497982994704,0,0
1.2,0.09087592,6.381281,7.4071755,1005.0154,5.10366621405708,897.5386737513693,0,0
1.22,0.033528388,6.3193154,7.5634127000000015,1005.0104,5.132316152864508,902.6871823151621,0,0
1.24,0.10046592,6.3240814000000025,7.989510000000001,1005.0155,5.160334445352917,907.6047864257947,0,0
1.26,0.004890129,6.2621155,7.648635400000001,1005.0606,5.187060055459702,912.300822346817,0,0
1.28,0.19132276,6.2287493,7.7007155,1005.04333,5.2125912632182985,916.7841127141836,0,0
1.3,0.31084824,6.209682,7.6012955,1005.0336,5.236796227325201,921.0632462370178,0,0
1.32,0.36343622,6.2478147,7.4450607,1005.0359,5.25954649902289,925.1465901713408,0,0
1.34,0.15792497,6.2811794,7.1752020000000005,1005.0387,5.28053735046918,929.0422444670917,0,0
1.36,0.28223026,6.3574443,7.5918326,1005.0585,5.300664569360939,932.7581031227356,0,0
1.38,0.267901,6.338377,7.705458599999999,1005.0461,5.320111761138152,936.3016726196208,0,0
1.4,0.3683073,6.414642,7.558695299999999,1005.0335,5.338762357139322,939.680205205638,0,0
1.42,0.4065559,6.4861403,7.6202435,1005.04095,5.356838596868854,942.9007752799023,0,0
1.44,0.25840223,6.4051075,7.7906837,1005.04095,5.374495633602892,945.9701756265148,0,0
1.46,0.2775417,6.481372,7.5965753,1005.0378,5.391512311004428,948.894941220526,0,0
1.48,0.043361723,6.347908,7.8143606,1005.04333,5.408064481953772,951.6813982990004,0,0
1.5,-0.047444433,6.285942,7.7812204,1005.018,5.424012073619883,954.335523539664,0,0
1.52,0.11030944,6.4337053,7.4876895,1005.0378,5.439096945951879,956.8632367975714,0,0
1.54,0.13900854,6.4241714000000005,7.525567,1005.02264,5.453412867406019,959.2700980837873,0,0
1.56,-0.07128262,6.266875,7.520834,1005.0335,5.46677801244638,961.561548963186,0,0
1.58,0.010004491,6.214442,7.73862,1005.0154,5.479535779292612,963.7427088239552,0,0
1.6,-0.03778337,6.1906089999999985,7.7670270000000015,1005.05334,5.491726235928558,965.8186999491646,0,0
1.62,0.24902506,6.3860373,7.5161057,1005.04596,5.503233328354584,967.7942638435827,0,0
1.64,0.18211798,6.328839,7.980078,1005.0286,5.5147620297171445,969.6739157108535,0,0
1.66,0.15823923,6.271639,7.6770773,1005.0186,5.525702412053571,971.4620169642152,0,0
1.68,0.3012032,6.1953845,7.766992,1005.0235,5.536136297100991,973.162804570614,0,0
1.7,0.34422266,6.252583,7.639163000000001,1005.0285,5.54595612084541,974.7803370031739,0,0
1.72,0.19127275,6.1429519999999975,7.3787713,1005.05084,5.55462705495347,976.3185624713727,0,0
1.74,0.14347596,6.147719,7.222536,1005.0311,5.562007862622703,977.7811036301758,0,0
1.76,0.21995537,6.2096839999999975,7.227271000000001,1005.0353,5.568316349997013,979.1715201050258,0,0
1.78,0.20083873,6.0619206,8.330387,1005.03015,5.575262075992283,980.4931831698253,0,0
1.8,0.37769526,6.390813,7.4971323,1005.0359,5.58181910642096,981.7493584344704,0,0
1.82,0.29166007,6.4003463,7.217802499999999,1005.0327,5.587578047128943,982.9431349279467,0,0
1.84,0.43027818,6.2907150000000005,8.297248,1005.01117,5.594211538246532,984.077400763842,0,0
1.86,0.439839,6.3574476,7.9421678,1005.02783,5.601098201380212,985.1550596016893,0,0
1.88,0.43984157,6.4766107,7.553946499999999,1005.0321,5.60772082207394,986.1788362962449,0,0
1.9,0.1960754,6.257349,7.511336999999997,1005.0131,5.613708365903312,987.1512487328878,0,0
1.92,0.16261806,6.2525825999999975,7.5066023,1005.0204,5.619098025192431,988.074801306467,0,0
1.94,0.057464868,6.1763177,7.553947,1005.06323,5.623912532154732,988.9520107037782,0,0
1.96,0.06224723,6.1048193,7.989511999999999,1005.0452,5.628819674084044,989.7850484087088,0,0
1.98,0.23432396,6.343147,7.3172274,1005.05316,5.633025310480584,990.5760857265144,0,0
2.0,0.2773447,6.366979,7.25568,1005.0483,5.636534495434716,991.3271462719116,0,0
2.02,0.24388738,6.276415,7.4734630000000015,1005.0179,5.6396345674675965,992.040070083246,0,0
2.04,0.15785472,6.190617,7.700714599999999,1005.0352,5.642610009787619,992.7167920306412,0,0
2.06,0.30125135,6.243049,7.7243867,1005.0403,5.645578188349089,993.3591081720492,0,0
2.08,0.2964741,6.243049,7.8616853,1005.0252,5.648751580535934,993.9686566451784,0,0
2.1,0.31081474,6.2287493,7.492400999999999,1005.0353,5.6514816138482304,994.547093592112,0,0
2.12,0.40641344,6.2239822999999985,7.8569502999999985,1005.0674,5.654399012692387,995.0960735814914,0,0
2.14,0.2247834,6.071453,7.5113397,1005.04504,5.6567008261847125,995.6169685792134,0,0
2.16,0.28692335,6.0952854000000025,7.7149186,1005.02765,5.658815162592046,996.1111098523156,0,0
2.18,0.13875069,5.923689,7.90903,1005.04755,5.660851866614905,996.5799042657602,0,0
2.2,0.35384566,6.228749,7.899561,1005.04004,5.663194346552478,997.0245874981233,0,0
2.22,0.26781303,6.2430487,7.932702499999999,1005.0325,5.665865531783358,997.446338087246,0,0
2.24,0.47334713,6.433711,7.610763,1005.01666,5.6685654676424635,997.8462500666806,0,0
2.26,0.47334713,6.433711,7.610763,1005.0296,5.671281087787576,998.2254723514693,0,0
2.28,0.22002257,5.923689,7.776467999999999,1005.04944,5.6735874731569576,998.5851194458428,0,0
2.3,0.22002257,5.923689,7.776467999999999,1005.02466,5.675523955691173,998.9260859644264,0,0
2.32,0.30606282,6.271648,7.0094943,1005.04,5.676362805302652,999.249374070775,0,0
2.34,0.36820412,6.209682,8.060534,1005.0271,5.677831466497444,999.5558312548897,0,0
2.36,0.35386592,6.1810827,8.112611,1005.0197,5.679900026411206,999.846286750256,0,0
2.38,0.39688802,6.285947,7.4876704,1005.0346,5.681616805345353,1000.1216111536606,0,0
2.4,0.40166909,6.319313,7.3456383,1005.0109,5.682837086606448,1000.3824892363556,0,0
2.42,0.3060755,6.038086,7.7859383,1005.0197,5.683945826603763,1000.6296950689743,0,0
2.44,0.3682155,6.00472,7.449795699999999,1005.04425,5.684365770164673,1000.864018540428,0,0
2.46,0.36343825,5.9093885,8.013189,1005.0208,5.684981113047671,1001.0860311730588,0,0
2.48,0.24394442,5.8617234000000025,7.942174,1005.0389,5.685581786013565,1001.2964318630279,0,0
2.5,0.22960882,5.9951870000000005,7.9658465,1005.0388,5.686371787933616,1001.4958144379783,0,0
2.52,0.3682257,6.028552,8.183629,1005.02374,5.687739082329197,1001.6846894132277,0,0
2.54,0.31086928,5.9284550000000005,8.221505,1005.0542,5.6895486751129365,1001.8637095794701,0,0
2.56,0.33477080000000004,5.9141555,7.989519,1005.0389,5.6913375039621545,1002.0333224838761,0,0
2.58,0.47338766,6.0190196,7.7670026,1005.02625,5.6928764342497775,1002.1939669852667,0,0
2.6,0.3586762,5.85219,8.013191,1005.0311,5.694379227226971,1002.3461261455493,0,0
2.62,0.31565922,5.847423,7.894831699999999,1005.0257,5.695637698767188,1002.4902204454504,0,0
2.64,0.4016983,5.8903217,7.9185038,1005.0389,5.696774855129787,1002.6267174152396,0,0
2.66,0.30132484,5.8760223,7.8427539999999984,1005.02374,5.69764942209622,1002.7559554190505,0,0
2.68,0.22962911,5.952287,7.648643499999999,1005.0183,5.698060384374678,1002.878294559709,0,0
2.7,0.16271691,6.0333185,8.003724,1005.0559,5.698745652710112,1002.9942328039799,0,0
2.72,0.10058075,6.028552,8.036864,1005.02325,5.699718230476301,1003.1039802985235,0,0
2.74,0.06712337,5.933221,8.197835000000001,1005.0183,5.701092404986897,1003.2078447356278,0,0
2.76,0.3730359,6.028551599999999,7.88063,1004.9979,5.702419928489765,1003.3060635512047,0,0
2.78,0.33002020000000004,5.9046216,7.937443300000001,1005.0023,5.703637460669722,1003.398956147864,0,0
2.8,0.34436214,5.80929,7.899567999999999,1005.0405,5.7045734289713375,1003.48694560414,0,0
2.82,0.43518096,5.9093876,7.757536999999999,1005.0149,5.705153174920497,1003.5701937235305,0,0
2.84,0.33958608,5.8712550000000014,7.790677499999997,1005.0177,5.705415222446478,1003.6489627844188,0,0
2.86,0.34436846,5.942754,7.743333,1005.0399,5.705407583216053,1003.7235705005963,0,0
2.88,0.3826095,5.942754,8.027398,1005.02515,5.705635771346028,1003.7941795648084,0,0
2.9,0.3204745,5.9093876,7.724396,1005.0381,5.705522346115552,1003.8610478475133,0,0
2.92,0.30135906,5.966586,7.804881599999999,1005.01276,5.7053112141304325,1003.9242788258597,0,0
2.94,0.32047957,6.0619172999999975,7.591833599999997,1005.0043,5.704788935745755,1003.9840377945537,0,0
2.96,0.22966592,5.9427533,8.207305999999999,1005.0344,5.704856510479383,1004.0406221232312,0,0
2.98,0.13407107,5.866488,8.486637,1005.0372,5.705823847146347,1004.0942077164074,0,0
3.0,0.2392293,6.047617400000001,8.117352499999999,1005.0068,5.70718272429582,1004.1448412787583,0,0
3.02,0.22487901,5.995186,8.216775,1005.0369,5.708983621932753,1004.1927925058484,0,0
3.04,0.3395965,6.0619172999999975,7.904304,1005.0171,5.710738480669332,1004.238129717084,0,0
3.06,0.23444416,6.0047190000000015,7.9421797,1005.0065,5.712430658731414,1004.28095580995,0,0
3.08,0.15318973,5.9046205999999986,7.9847894,1005.0364,5.714004417324448,1004.321516544691,0,0
3.1,0.18664946,5.856955,7.9658523,1005.03174,5.715378605533546,1004.3599128143472,0,0
3.12,0.19143145,5.8712544,8.22151,1005.003,5.717019343837046,1004.3961548720836,0,0
3.14,0.13885696,5.885555,7.771742,1005.01074,5.718152453298236,1004.43039086076,0,0
3.16,0.119739905,5.890321,7.8096175,1005.0336,5.718901187191277,1004.4628133332557,0,0
3.18,0.22967769,5.9522862000000005,7.880633400000002,1005.0408,5.719507020041701,1004.4935425819533,0,0
3.2,0.22967769,5.9522862000000005,7.880633400000002,1005.0358,5.719984404532597,1004.5226470728073,0,0
3.22,0.1245264,5.9904184,7.7622740000000015,1005.03424,5.720195229351647,1004.550205535464,0,0
3.24,0.04805067,5.8998537,7.6912575,1005.04114,5.719936595972424,1004.5763235571396,0,0
3.26,-0.061882578,5.9141536,7.8569619999999984,1005.01776,5.7195564450540495,1004.6009906122864,0,0
3.28,-0.13835731,5.871254,7.804883999999999,1005.021,5.718931819147596,1004.62429845601,0,0
3.3,-0.18137214,5.8283553,7.8569627,1005.0259,5.7181282387455274,1004.6463390322824,0,0
3.32,-0.18615088,5.8331222999999985,7.8048844,1005.01526,5.717088726045133,1004.6671422009607,0,0
3.34,-0.18614861,5.8807874,7.6865244000000015,1005.03723,5.715708041770212,1004.6868561968813,0,0
3.36,-0.11444935,5.8855543,7.7196655,1005.03503,5.714089307009147,1004.705528909368,0,0
3.38,0.0050490797,5.89032,8.060543,1005.0302,5.712838375906607,1004.7231969340472,0,0
3.4,0.20580305,5.9951844,7.9374485,1005.0174,5.711845973692273,1004.7398675316916,0,0
3.42,0.11976768,5.8664875,8.084214999999999,1005.0097,5.711168649200869,1004.7555690686557,0,0
3.44,0.1054305,5.8950863,7.767010000000001,1005.0229,5.710277841171032,1004.7704053380704,0,0
3.46,0.11021255,5.885554,7.9327145,1005.0171,5.709465283083158,1004.7844027665076,0,0
3.48,0.10543497,5.918919,7.866433,1005.02686,5.708655834284634,1004.7976437403156,0,0
3.5,0.048079506,5.856954,7.9989963,1005.0319,5.707995596481132,1004.8101867873075,0,0
3.52,0.13916077,5.885547,8.264147999999999,1005.0369,5.707952910328079,1004.8220859911952,0,0
3.54,0.22998975,5.9570446,8.249946000000001,1005.04175,5.70852207752658,1004.8333909181816,0,0
3.56,0.16307879999999994,5.7997484,8.193133,1005.0545,5.70934097591214,1004.8441759443616,0,0
3.58,0.038822994,5.6710505,7.828586,1005.04736,5.709603214700744,1004.8544370560944,0,0
3.6,0.043609172,5.6710505,7.776508,1005.0213,5.709285130310308,1004.8641044810196,0,0
3.62,-0.03285505,5.6805835,7.9753536999999985,1005.02625,5.7088022031359245,1004.873230341552,0,0
3.64,0.10578467,5.7902136,8.178936,1005.0413,5.708653335425434,1004.8818990026888,0,0
3.66,0.10578467,5.7902136,8.178936,1005.0207,5.708800178580999,1004.8900583152594,0,0
3.68,0.17272098,5.7949800000000025,8.3115015,1005.04364,5.709440831255777,1004.897820777912,0,0
3.7,0.23008503,5.8092794,8.36358,1005.0338,5.710623673429554,1004.9051692151112,0,0
3.72,0.058031097,5.7282470000000005,7.8664694000000015,1004.99677,5.711336642419076,1004.9119920570461,0,0
3.74,0.034138456,5.7234807,7.714968700000001,1005.0163,5.711372036379571,1004.9183962287744,0,0
3.76,0.10107474,5.8331113,8.079519,1005.0411,5.7115555701592635,1004.92449668849,0,0
3.78,0.10108109,5.823578,8.084255,1005.0232,5.711865733845942,1004.9302423866161,0,0
3.8,0.07720111,5.7282457,8.202617,1005.0428,5.712372252202523,1004.9357244928883,0,0
3.82,0.07720111,5.7282457,8.202617,1005.033,5.713050446079347,1004.9409186738161,0,0
3.84,0.010302946,5.6424475,8.174211999999999,1005.0577,5.71372708304972,1004.9459286648579,0,0
3.86,0.1632757,5.937974,7.932759,1005.0163,5.714353799019897,1004.9506088297496,0,0
3.88,0.19196723,5.885542,8.122136,1005.04535,5.715187480789306,1004.9550852916603,0,0
3.9,0.019906983,5.647213,8.02745,1005.0355,5.715749238599678,1004.9593301863547,0,0
3.92,0.15375422,5.780677,8.0085125,1005.033,5.716200080070587,1004.9633461866356,0,0
3.94,0.005592957,5.6233797,7.8996224,1005.05365,5.7161743865534556,1004.9672198182122,0,0
3.96,-0.008740082,5.59478,7.913827,1005.03973,5.715717410022617,1004.9709035957277,0,0
3.98,-0.10910325,5.551881,8.320986999999999,1005.01575,5.7155293529697255,1004.974320028596,0,0
4.0,0.17292418,5.7997413,8.060596,1005.0355,5.7154300820846675,1004.9775590365754,0,0
4.02,0.062043563,5.6996665,8.212010000000001,1005.06006,5.715543856161232,1004.980718027494,0,0
4.039999999999999,-0.043124773,5.623402,8.207275,1005.0526,5.715747170073129,1004.9837680869708,0,0
4.06,-0.114847235,5.6567690000000015,8.008428,1005.04694,5.715730404780215,1004.9866905384113,0,0
4.079999999999999,-0.10054587,5.6996684,8.230941,1005.0322,5.715948987614392,1004.989436650566,0,0
4.1,-0.033666693,5.718736,8.098374,1005.0701,5.716170713597507,1004.9921535033237,0,0
4.119999999999999,-0.0193526,5.7330365,8.079434,1005.033,5.716379381374298,1004.9947011618083,0,0
4.14,-0.19623075,5.6424723,8.008415,1005.03534,5.716350605785945,1004.9970985726633,0,0
4.159999999999998,0.014055297,5.8045354000000025,8.31615,1005.033,5.716825148008389,1004.9993461700328,0,0
4.18,-0.08633325,5.728271,8.268805,1005.0453,5.717572175353954,1005.0014975808563,0,0
4.199999999999998,-0.16284816,5.785471,8.046285000000001,1005.04956,5.718249976069102,1005.0035715921692,0,0
4.22,-0.20109935,5.8045373,8.169377,1005.042,5.719096765289095,1005.0055425308334,0,0
4.239999999999998,-0.18199278,5.7997713,8.1930485,1005.0444,5.72012346138149,1005.0074239391259,0,0
4.26,-0.33497182,5.6186422999999985,8.306672,1005.0346,5.721293585603631,1005.0091841853124,0,0
4.2799999999999985,-0.33020467,5.618643,8.301936,1005.0243,5.7225777544665855,1005.0107939557756,0,0
4.3,-0.119931445,5.7282743,8.055744,1005.0444,5.723657730163812,1005.0123373307159,0,0
4.3199999999999985,-0.05781933,5.7759404000000005,8.10782,1005.0643,5.724697860908072,1005.0138881224228,0,0
4.34,-0.09130329,5.8760395,7.6675186,1005.0416,5.725087169413317,1005.0153581647344,0,0
4.3599999999999985,-0.26819405,5.6615449999999985,7.94211,1005.0346,5.725100720548415,1005.0167263647277,0,0
4.38,-0.28255886,5.556681,8.150422,1005.04895,5.725013479514666,1005.0180513113287,0,0
4.4,-0.2252139,5.5614485999999985,8.159889,1005.0363,5.7248562603441275,1005.0192877294247,0,0
4.42,-0.029280014,5.6806135,8.022588,1005.03687,5.72453947336225,1005.0204435246285,0,0
4.44,0.051951334,5.7950115,7.932632000000001,1005.0312,5.724070075084176,1005.0215035085816,0,0
4.46,-0.02455093,5.7282796,7.9989114,1005.04645,5.723497631505045,1005.0225299177721,0,0
4.48,-0.058034956,5.7568803,7.9989085000000015,1005.06104,5.7228711525443,1005.0235754892284,0,0
4.5,-0.024601653,5.809313,8.20722,1005.0734,5.722614614363391,1005.0246787244059,0,0
4.52,-0.08121199,5.71873,8.249899000000001,1005.0665,5.722651136362895,1005.0258040996013,0,0
4.539999999999999,-0.12900749,5.6758304000000015,8.207289999999999,1005.05096,5.722823956257839,1005.0268890423648,0,0
4.56,-0.114663005,5.685364,8.235697,1005.07886,5.723176058405287,1005.0280347932387,0,0
4.579999999999999,-0.14811656,5.661531,8.093664,1005.01404,5.723415556411908,1005.0289967974547,0,0
4.6,-0.15288875,5.7377954,7.989508,1005.05084,5.723469899391265,1005.0299254599097,0,0
4.619999999999999,-0.10030842,5.7663946,7.7717257,1005.0855,5.723028491794397,1005.0309460943988,0,0
4.64,-0.23891515,5.5090010000000005,8.273572999999999,1005.0659,5.7227011693516365,1005.0319737610936,0,0
4.659999999999998,-0.26759136,5.528066,8.06526,1005.04834,5.72214087975682,1005.0329407258452,0,0
4.68,-0.10507045,5.771161,8.103135,1005.0553,5.721724242476017,1005.0338756292869,0,0
4.699999999999998,-0.10506539,5.7616277,8.159949000000001,1005.0236,5.7215208936094255,1005.0346647177023,0,0
4.72,-0.02858349,5.8950906,8.103136,1005.0574,5.721571300025572,1005.0354438032423,0,0
4.739999999999998,-0.057259753,5.8712583,8.069996000000002,1005.0545,5.721761159212836,1005.036200805534,0,0
4.76,-0.24366456,5.7377944,7.904292599999999,1005.052,5.7216378441529,1005.036926569859,0,0
4.7799999999999985,-0.22932258,5.7377944,7.913761599999999,1005.0224,5.721253456633055,1005.037515559565,0,0
4.8,-0.1862993,5.747328,8.131544,1005.08246,5.721017403139098,1005.0381977908548,0,0
4.8199999999999985,-0.26277107,5.747328,8.036857000000001,1005.0548,5.720756508048384,1005.0388603783753,0,0
4.84,-0.14327341,5.8283587,7.932700599999999,1005.0377,5.720393073248861,1005.0394416633462,0,0
4.8599999999999985,-0.09547037,5.766393,8.022655,1005.0747,5.720014667803216,1005.0400822167584,0,0
4.88,-0.023768187000000003,5.742561,7.9800453,1005.06964,5.7195226769409535,1005.0407546177732,0,0
4.9,0.12919061,5.8998566,8.10314,1005.04913,5.7193327143956205,1005.041378902686,0,0
4.92,0.004920751,5.8140583,7.946905,1005.0896,5.719041151967358,1005.042104116785,0,0
4.94,-0.09545009,5.752093,8.2641115,1005.04736,5.7191236697445476,1005.0427638371428,0,0
4.96,-0.018965602,5.7187276,8.188362,1005.0699,5.719366711732841,1005.0434444562367,0,0
4.98,-0.023742855,5.7568593,8.055799,1005.06885,5.7195714345742585,1005.0441373112262,0,0
5.0,-0.114551514,5.723493,7.8995633,1005.05164,5.719438809340724,1005.0447765275743,0,0
5.02,-0.15700677,5.7330127,7.9516935,1005.04095,5.7191092018328185,1005.04532756364,0,0
5.039999999999999,-0.15700677,5.7330127,7.9516935,1005.06934,5.7186067273743095,1005.0459009038788,0,0
5.06,-0.10438897,5.742545,8.103197999999999,1005.0565,5.718219545232942,1005.0464456640598,0,0
5.079999999999999,-0.042224877,5.77591,8.041653,1005.04913,5.717870819365484,1005.0469366777652,0,0
5.1,-0.037431806,5.780677,8.008513,1005.0685,5.717507180780232,1005.0474481654352,0,0
5.119999999999999,-0.06609731,5.7949758000000005,7.814404,1005.0417,5.716823932383523,1005.0478794225446,0,0
5.14,-0.003893286,5.8188066,8.003786,1005.059,5.716206868951695,1005.0483005154056,0,0
5.159999999999998,-0.032558784,5.7854404000000015,8.164758,1005.05896,5.715881989454492,1005.0487109672019,0,0
5.18,-0.1137888,5.775907,8.074806,1005.04614,5.715653900101527,1005.0490643869272,0,0
5.199999999999998,-0.07074397,5.8331050000000015,8.273653,1005.06635,5.71591712118656,1005.0494388968036,0,0
5.22,-0.11373558,5.7330065,8.216844,1005.05023,5.716398209786383,1005.0497726617019,0,0
5.239999999999998,-0.027685791,5.8140373,8.150563,1005.01874,5.7170533325382875,1005.0499558587841,0,0
5.26,-0.04199855,5.761605,8.2263155,1005.0527,5.7179256466525485,1005.050127610634,0,0
5.2799999999999985,-0.041971907,5.752071,7.857034,1005.0433,5.718351135228231,1005.0502547911708,0,0
5.3,-0.10408272,5.6901054,7.909116,1005.1059,5.718393205911847,1005.0505674906444,0,0
5.3199999999999985,-0.16618027,5.704404,7.989603999999999,1005.06256,5.718251392352912,1005.050886964933,0,0
5.34,-0.09924969,5.7663684,7.9990735,1005.0453,5.718036791729925,1005.0511491393409,0,0
5.3599999999999985,-0.12313541,5.747302,7.961199799999997,1005.03784,5.71767218990391,1005.0513328837458,0,0
5.38,-0.11832896,5.737768,7.894921000000001,1005.04,5.7170530558535635,1005.0514544419208,0,0
5.4,-0.013119981,5.7806664,8.25474,1005.0476,5.716870391790513,1005.051547974733,0,0
5.42,0.139847,5.8283315,8.212132,1005.03784,5.717060754269885,1005.051581271617,0,0
5.44,0.1972446,5.8712290000000005,8.131651,1005.0476,5.717497930922469,1005.0515963601656,0,0
5.46,0.1924781,5.847396400000001,7.961213000000001,1005.0573,5.71783595973187,1005.051630225511,0,0
5.48,0.14469342,5.7758975,7.871261,1005.06464,5.717844842805027,1005.051706984118,0,0
5.5,0.019971684,5.804508,7.767063,1005.0375,5.7174220186751175,1005.0517236628804,0,0
5.52,-0.027823217,5.7091765,8.041658,1005.0527,5.7169639682790905,1005.0517419150484,0,0
5.539999999999999,-0.19510685,5.70441,7.9327683,1005.03894,5.7162905005088565,1005.05171195577,0,0
5.56,-0.066048965,5.694877,7.928035,1005.0272,5.715405978028289,1005.0515972407106,0,0
5.579999999999999,0.110810146,5.680577,8.231036999999999,1005.0791,5.714836804700076,1005.051594888418,0,0
5.6,0.18729328,5.733009,8.193163,1005.0289,5.714548238417403,1005.0515111083336,0,0
5.619999999999999,0.21119554,5.775908,8.160022,1005.0444,5.714504632190504,1005.051411480261,0,0
5.64,0.3020181,5.861706,7.8712234,1005.0517,5.7143016803841125,1005.0513244875673,0,0
5.6599999999999975,0.12995468,5.7473083,8.169492,1005.06177,5.7143135406754455,1005.0512852246677,0,0
5.68,-0.022992685,5.694876,7.99432,1005.0517,5.714153334514814,1005.0512520251607,0,0
5.6999999999999975,0.07260975,5.761607,8.122149,1005.06964,5.714139070371128,1005.0512888867861,0,0
5.72,0.015255272,5.7139416,8.264182,1005.0345,5.714438262173313,1005.0512610177257,0,0
5.7399999999999975,-0.027756616,5.733008,7.980117999999999,1005.0463,5.714553624546476,1005.0512185329601,0,0
5.76,0.024827555,5.733008,8.027462,1005.02606,5.714586121064423,1005.0510904227024,0,0
5.7799999999999985,0.12043311,5.737774,8.103213,1005.0484,5.7146807846593966,1005.0509675389573,0,0
5.8,0.15867476,5.7234745,8.117416,1005.04614,5.714838112726562,1005.0508415797397,0,0
5.8199999999999985,0.09654361,5.752074,7.909103999999999,1005.066,5.7147311866092085,1005.0507848524878,0,0
5.84,0.13957138,5.828338,8.10795,1005.04083,5.714819982935082,1005.0506988908193,0,0
5.8599999999999985,0.12045528,5.7520733,8.264186,1005.05365,5.715254442793433,1005.050633559082,0,0
5.88,0.06310716,5.747306299999999,8.003794000000001,1005.0561,5.715544033593469,1005.050595511146,0,0
5.9,0.06310716,5.747306299999999,8.003794000000001,1005.0557,5.715704575566701,1005.0505802681496,0,0
5.92,0.15393297,5.690108,8.207375,1005.03076,5.71602975825013,1005.050495446473,0,0
5.94,0.077462465,5.728239,7.8144197,1005.0437,5.7158783584757495,1005.0503960344321,0,0
5.96,0.029670715,5.7377725,7.970655000000002,1005.0409,5.715580218972553,1005.0502740082287,0,0
5.98,0.015334532,5.7091730000000025,8.122157000000001,1005.0709,5.71537556478908,1005.0502404394458,0,0
6.0,0.05358249,5.742539,8.188439,1005.03564,5.715407123937813,1005.0501582164873,0,0
6.02,-0.022760823,5.699637,8.174248,1005.06616,5.7155717709897935,1005.0501431707016,0,0
6.039999999999999,0.053727463,5.7377687,7.8996534,1005.0557,5.715434617540594,1005.050149880831,0,0
6.06,0.12543593,5.7806682999999985,8.008546,1005.0456,5.715268247734275,1005.0501394303303,0,0
6.079999999999999,0.025071472,5.637671,8.117438,1005.05804,5.715088030632289,1005.0501586383186,0,0
6.1,0.12067895,5.771134,8.018017,1005.0431,5.714889115789754,1005.0501501993992,0,0
6.119999999999999,0.03465967,5.6758018,8.098503,1005.0649,5.714694637662344,1005.0501958420523,0,0
6.14,-0.017912462,5.6758018,8.079566,1005.0456,5.714472467898272,1005.0502196268692,0,0
6.1599999999999975,0.096814245,5.7901989999999985,7.9138637,1005.0476,5.714086228196147,1005.0502312124763,0,0
6.18,0.034688205,5.6567354000000005,8.174256,1005.0579,5.713835677310582,1005.050269057154,0,0
6.1999999999999975,0.020354524,5.6662683,8.27368,1005.04803,5.7138872894846395,1005.0502944361057,0,0
6.22,0.049050465,5.733,8.041696,1005.0476,5.713890116333093,1005.0503071609774,0,0
6.2399999999999975,0.025162876,5.7329993,7.980149000000001,1005.04987,5.713745611219113,1005.050316830894,0,0
6.26,-0.027409278,5.7044,8.122182,1005.0472,5.713677706247639,1005.0503141546416,0,0
6.2799999999999985,0.034745306000000004,5.732999,8.079574000000001,1005.06036,5.713639710496802,1005.0503479549479,0,0
6.3,0.015637517,5.7234654,8.160060000000001,1005.0347,5.7137534502370535,1005.0503214882608,0,0
6.3199999999999985,-0.036934614,5.6996325999999975,8.122186,1005.0397,5.713908079817399,1005.0502598649388,0,0
6.34,0.15905444,5.8044962999999985,8.055905000000001,1005.04175,5.714114824319759,1005.0501747790573,0,0
6.3599999999999985,0.13994665,5.7615967,8.060639,1005.045,5.714322286166555,1005.050080967968,0,0
6.38,0.04436201,5.661499,8.169533,1005.0216,5.714593126621383,1005.0498955450046,0,0
6.4,0.04915893,5.7377634,8.036971000000001,1005.04425,5.714784878893024,1005.0497113813119,0,0
6.42,0.07306372,5.7472970000000005,8.055909,1005.0219,5.7149499150053575,1005.0494485333007,0,0
6.44,0.07784924,5.6996307,8.032237,1005.04846,5.714993303820528,1005.049212722078,0,0
6.46,0.015723199,5.671031500000002,8.188474000000001,1005.0439,5.715160217633581,1005.0489852334822,0,0
6.48,-0.041623026,5.723463,7.9943643,1005.04175,5.7151687018832575,1005.0487581777184,0,0
6.5,0.0061864257,5.671031,8.131663,1005.03613,5.715207157472143,1005.0485120898056,0,0
6.52,0.10599856,5.699643599999999,8.032189,1005.04913,5.71513825386431,1005.0482968710023,0,0
6.539999999999999,0.16335051,5.7377763,8.112674,1005.02655,5.715158659410888,1005.0480284149326,0,0
6.56,0.14899404,5.7616096,8.089,1005.04425,5.715245983200588,1005.0477776048554,0,0
6.579999999999999,0.1155297,5.728244,8.169483999999999,1005.0414,5.715487777002598,1005.0475330296936,0,0
6.6,0.04860103,5.685345,8.088998,1005.06647,5.715675900212033,1005.047385096174,0,0
6.619999999999999,0.024690598,5.6329136,8.155278,1005.0213,5.7158664688641725,1005.0471604757696,0,0
6.64,0.03901857,5.62338,8.202621,1005.03644,5.716128437007535,1005.0469234074676,0,0
6.6599999999999975,0.16327642,5.709179,8.070057,1005.05347,5.716331008339969,1005.0467375016493,0,0
6.68,0.120252445,5.6948795,8.032182,1005.04877,5.716397671620718,1005.0465805522618,0,0
6.6999999999999975,0.14414008,5.647214,8.051117999999999,1005.0389,5.71631974391592,1005.0464142217952,0,0
6.72,0.14413439,5.6567473,8.074788999999999,1005.04596,5.716165991065549,1005.0462656169963,0,0
6.7399999999999975,0.08676538,5.7187133,8.084257000000001,1005.0529,5.7160346229193975,1005.0461581935747,0,0
6.76,-0.023187265,5.6138496,8.278366,1005.0562,5.716130334479648,1005.0460994247427,0,0
6.7799999999999985,-0.0566516,5.6567483,8.245224,1005.0562,5.716419962618732,1005.046083858674,0,0
6.8,0.04371287,5.7377796,8.126863499999999,1005.0562,5.716774051373356,1005.0461065226041,0,0
6.8199999999999985,0.12495245,5.651983,8.09372,1005.0579,5.7170264142837794,1005.0461690049713,0,0
6.84,0.17751889,5.694882,8.074782,1005.06287,5.717208654488116,1005.0462843379731,0,0
6.8599999999999985,0.11536433,5.666283,8.141063,1005.0554,5.717405076583716,1005.0464190625968,0,0
6.88,0.02453664,5.6567497000000015,7.9422164,1005.0456,5.717262646869923,1005.0465351566487,0,0
6.9,0.05320975,5.7139487,7.970622,1005.0604,5.716938711334714,1005.0466876507892,0,0
6.92,0.010185853,5.7139487,8.098450999999999,1005.03076,5.7166717898985295,1005.0467650550688,0,0
6.94,0.12009849,5.7234826,8.183667,1005.0554,5.716614020634196,1005.0468645352923,0,0
6.96,0.12009849,5.7234826,8.183667,1005.05005,5.716741266198259,1005.0469639036908,0,0
6.98,0.23001693,5.623385,8.306761999999999,1005.0302,5.717128347259799,1005.046991355554,0,0
7.0,0.17265357,5.6281524,8.11265,1005.0374,5.717414077619447,1005.0469810831404,0,0
7.02,0.37459028,5.7854195,8.093821,1005.0431,5.717776952965213,1005.0469580345367,0,0
7.039999999999999,0.3316273,5.680553400000001,8.074888,1005.01483,5.7180454291560965,1005.046822007866,0,0
7.06,0.4654802,5.771118,8.155375,1005.0431,5.718485690160441,1005.0466884154716,0,0
7.079999999999999,0.6901678000000001,5.961779,8.4110365,1005.0426,5.719764268561687,1005.046555654936,0,0
7.1,-0.19404075,5.499421599999999,8.070164,1005.03705,5.7206047452074325,1005.0464041273692,0,0
7.119999999999999,-0.2704992,5.4183903,8.250073,1005.03217,5.721275931820964,1005.0462189947524,0,0
7.14,-0.40427852,5.518486,7.9849515,1005.05505,5.7214641503092265,1005.0460872031912,0,0
7.1599999999999975,-0.41858113,5.5899839999999985,8.089111,1005.0593,5.7214885450899535,1005.0460183182364,0,0
7.18,-0.41376454,5.518484,7.937614,1005.0529,5.721024532066632,1005.0459822255444,0,0
7.1999999999999975,-0.04090301,5.771111,7.9186797,1005.06976,5.720384883589344,1005.0460359340296,0,0
7.22,-0.19859976,5.6996117,7.951823700000001,1005.0221,5.719565138090317,1005.0459972214846,0,0
7.239999999999997,-0.19859976,5.6996117,7.951823700000001,1005.0642,5.7185892099466775,1005.0460285450827,0,0
7.26,-0.13162732,5.7139096,8.079658,1005.04193,5.717710103945692,1005.046041467852,0,0
7.2799999999999985,-0.31322306,5.723442,8.17435,1005.0292,5.717100469877916,1005.0459922571263,0,0
7.3,-0.4374795,5.570912,8.212227,1005.03534,5.716625863711567,1005.0459104264037,0,0
7.3199999999999985,-0.3657089000000001,5.6090426,8.444219,1005.067,5.716710474747408,1005.0459140432416,0,0
7.34,-0.2509568,5.6614738,8.212237,1005.05255,5.716943506441679,1005.0459411285243,0,0
7.3599999999999985,-0.23181918,5.647174,8.108081,1005.04114,5.717111066420177,1005.0459477770172,0,0
7.38,-0.21264471,5.6853045999999985,8.056007000000001,1005.03864,5.717176159347143,1005.0459273436284,0,0
7.399999999999999,-0.23652533,5.6567050000000005,7.932914699999999,1005.02185,5.716908615225563,1005.045822610249,0,0
7.42,-0.19823173,5.5995054,8.254859,1005.03864,5.716827722810316,1005.045704210438,0,0
7.439999999999999,-0.19823173,5.5995054,8.254859,1005.06903,5.7169120470554775,1005.0456835652077,0,0
7.46,-0.18859854,5.690068,8.027614999999999,1005.04846,5.7168608381479045,1005.045675318247,0,0
7.479999999999999,-0.19813973,5.675768,7.947131,1005.03613,5.716536943279787,1005.0456336680874,0,0
7.5,-0.17898369,5.7329655,7.6725397,1005.08356,5.715581830787753,1005.0457334008008,0,0
7.52,-0.3426444,5.4231677000000005,8.4820175,1005.0288,5.715098904222014,1005.0457605643837,0,0
7.539999999999999,-0.22793423,5.5566309999999985,8.368392,1005.05597,5.714981773890183,1005.0458213200934,0,0
7.56,-0.16102707,5.704395,8.316312,1005.03046,5.715267669701495,1005.0458197030864,0,0
7.579999999999999,-0.14670287,5.6424303,8.273700999999999,1005.0436,5.715762401544716,1005.0458102833678,0,0
7.6,-0.3331254,5.594764,8.212153,1005.0527,5.716287744127017,1005.0458267630844,0,0
7.619999999999999,-0.29011726,5.618598,8.032245,1005.0452,5.716555975258317,1005.0458390682152,0,0
7.64,-0.45742053,5.480367,8.055916999999999,1005.0559,5.716486791080804,1005.0458861603827,0,0
7.659999999999997,-0.5673611,5.3564370000000014,8.164807000000001,1005.0425,5.7161767359637174,1005.0459155808447,0,0
7.68,-0.24234965,5.7806615999999975,7.7481775,1005.04285,5.715423267248901,1005.045930540674,0,0
7.699999999999997,-0.24234965,5.7806615999999975,7.7481775,1005.0411,5.714280710766503,1005.0459263692323,0,0
7.72,-0.24236992,5.6328983,8.174273,1005.01776,5.713339077168796,1005.0458212844176,0,0
7.739999999999997,-0.23282048,5.6328983,8.093786,1005.03534,5.7124404016891885,1005.0456906988513,0,0
7.76,-0.24716496,5.6138330000000005,8.112722999999999,1005.03723,5.711593385592168,1005.0455448549292,0,0
7.7799999999999985,-0.21849117,5.6519650000000015,8.0133,1005.04034,5.710669678103035,1005.0453972497617,0,0
7.8,-0.36190557,5.551868,8.160066,1005.03015,5.7098225401844775,1005.0452119357367,0,0
7.8199999999999985,-0.27109945,5.590001,8.117455,1005.04,5.709011754748747,1005.0450294292954,0,0
7.84,-0.2758843,5.5995339999999985,8.193205,1005.03503,5.708377268070506,1005.0448321686584,0,0
7.8599999999999985,-0.26155505,5.5900016,8.14586,1005.03015,5.707807683789481,1005.0446050133523,0,0
7.88,-0.2806844,5.618601,8.008560000000001,1005.0548,5.707098096071213,1005.044441000876,0,0
7.899999999999999,-0.2376763,5.5614023,8.358906,1005.05975,5.706799032449868,1005.0443511918487,0,0
7.92,-0.23290664,5.613835,8.302092,1005.0529,5.706826200238218,1005.0443026123012,0,0
7.939999999999999,-0.376316,5.499438,8.292622999999999,1005.0644,5.707002034012247,1005.0443320380092,0,0
7.96,-0.38110086,5.547103400000001,8.221605,1005.0573,5.707241416703157,1005.0444047232277,0,0
7.979999999999999,-0.26161587,5.7044,8.107978999999998,1005.0573,5.7075190743121205,1005.0445153708832,0,0
8.0,-0.35622913,5.604278,8.311648,1005.0347,5.708066112644265,1005.0445778038164,0,0
8.02,-0.35141888,5.594744,8.202760000000001,1005.0344,5.708650543902862,1005.0445963294625,0,0
8.04,-0.35141888,5.594744,8.202760000000001,1005.04706,5.709265911598742,1005.044621567937,0,0
8.059999999999999,-0.24621761,5.6614747,8.098607000000001,1005.05206,5.7098005267172995,1005.0446706470088,0,0
8.08,-0.35135806,5.599509200000001,8.060733,1005.03503,5.7101303367873975,1005.0446793069472,0,0
8.1,-0.3513276,5.618575,7.9707823000000015,1005.0588,5.710147615184844,1005.044737793364,0,0
8.12,-0.35129720000000003,5.642407,8.136489,1005.01715,5.710199129240128,1005.0446901559058,0,0
8.139999999999999,-0.33691213,5.7282033,8.037071000000001,1005.0573,5.710213227730137,1005.0446934588864,0,0
8.16,-0.37035555,5.685304,8.183838,1005.064,5.710394732661513,1005.0447658809476,0,0
8.18,-0.3224967,5.7377353,8.018139999999999,1005.0366,5.710501491362221,1005.04480047591,0,0
8.2,-0.35114503,5.661469,8.19805,1005.0411,5.710758466094407,1005.0448177223053,0,0
8.219999999999999,-0.35590965,5.61857,8.193317,1005.04706,5.711088984192724,1005.04484103342,0,0
8.24,-0.32720038,5.632869,8.131772,1005.0243,5.711392832782487,1005.0447876834004,0,0
8.26,-0.26023751,5.6900663,8.122309,1005.0564,5.711719688139442,1005.0447823476633,0,0
8.28,-0.26023751,5.6900663,8.122309,1005.05115,5.712065695596597,1005.0448005565539,0,0
8.299999999999999,-0.44660413,5.599501,8.041827,1005.05145,5.7121965013842475,1005.0448405839262,0,0
8.32,-0.33187366,5.690065,7.994485000000001,1005.0341,5.712155101411268,1005.0448372860104,0,0
8.34,-0.2362472,5.7281966,8.084441,1005.0386,5.712154211938742,1005.0448119177423,0,0
8.36,-0.32703298,5.670997,8.089178,1005.0141,5.712134072987378,1005.0446789394364,0,0
8.379999999999999,-0.23617108,5.79016,7.866666,1005.04645,5.711860570005027,1005.0445678156236,0,0
8.4,-0.29351357,5.7377276,7.947152,1005.0437,5.711438362070725,1005.0444665024864,0,0
8.42,-0.36038515,5.680528,8.089189,1005.0239,5.711062322791758,1005.0443029427893,0,0
8.44,-0.29345268,5.7329597,8.022908000000001,1005.03314,5.710674433955938,1005.0441182348468,0,0
8.459999999999999,-0.32208592,5.7138925,8.060788,1005.05853,5.710320471493289,1005.0440069092637,0,0
8.48,-0.3507495,5.7043586,8.122336,1005.066,5.7100928316607895,1005.0439877171048,0,0
8.5,-0.40807664,5.6805252999999984,8.15548,1005.0669,5.710010217727202,1005.0440532431315,0,0
8.52,-0.35667276,5.6757874,8.112763000000001,1005.03076,5.709973550565093,1005.0440632862536,0,0
8.54,-0.39492893,5.6900879999999985,8.018072,1005.0436,5.709836980376967,1005.044070492526,0,0
8.559999999999999,-0.41407484,5.5756907,8.264259,1005.0281,5.7098994938303695,1005.0440193662148,0,0
8.58,-0.47144133,5.547092,8.387353,1005.04614,5.710322513970084,1005.0439818252879,0,0
8.6,-0.48100984,5.5804577,8.283196,1005.0635,5.710922102672575,1005.0440189195544,0,0
8.62,-0.25638574,5.7282214000000025,8.084348,1005.0406,5.711492941965772,1005.0440393879373,0,0
8.639999999999999,-0.2946419,5.680556299999999,8.112753,1005.0353,5.7120297540743215,1005.0440260120039,0,0
8.66,-0.33768678,5.675791,8.027531,1005.04553,5.712386945514012,1005.0440196073863,0,0
8.68,-0.41896117,5.6328917,8.065405,1005.04846,5.712603764245732,1005.0440299336792,0,0
8.7,-0.40941048,5.58046,8.207436999999999,1005.0602,5.712876023812399,1005.0440972702304,0,0
8.719999999999999,-0.41420805,5.523262,8.226372,1005.0411,5.71316278657941,1005.0441459786343,0,0
8.74,-0.20869428,5.647193,8.1553545,1005.0378,5.713471071201687,1005.044166171857,0,0
8.76,-0.19916135,5.62336,8.259509,1005.0431,5.713947249312128,1005.0441801763698,0,0
8.78,-0.19916135,5.62336,8.259509,1005.0281,5.714570063867513,1005.0441346621224,0,0
8.799999999999997,-0.30912346,5.5566297,8.193225,1005.05054,5.7151342053251755,1005.0441175049497,0,0
8.82,-0.33782005,5.5184975,8.093801,1005.03296,5.715431096812518,1005.044062177854,0,0
8.84,-0.3282693,5.5518637,8.136409,1005.02295,5.715602279165133,1005.043937286992,0,0
8.86,-0.35219496,5.5375648,8.297377000000001,1005.0748,5.715924024353173,1005.0439380391932,0,0
8.879999999999997,-0.40479058,5.4898989999999985,8.273703999999999,1005.0353,5.716286023869023,1005.0439076068973,0,0
8.9,-0.2088364,5.575698,8.174278999999999,1005.02295,5.716597811312332,1005.0438052695357,0,0
8.92,-0.2757625,5.5327997,8.349451,1005.02936,5.717119821590687,1005.0436628412724,0,0
8.94,-0.31879857,5.5280333,8.273699,1005.0596,5.717691859371227,1005.0435943654304,0,0
8.959999999999997,-0.28535765,5.5613995,8.278433,1005.02686,5.718350688558169,1005.0434736164607,0,0
8.98,-0.32840255,5.480368,8.169538000000001,1005.0399,5.7188049515745485,1005.043354057652,0,0
9.0,-0.37142968,5.427936,8.3021,1005.03217,5.719249427130241,1005.0432081528813,0,0
9.02,-0.29405499,5.4803467,8.264307,1005.04474,5.719672566487594,1005.0430847460752,0,0
9.04,-0.19366017,5.59951,8.25484,1005.03217,5.720191797842803,1005.0429364107356,0,0
9.06,-0.21276984,5.5661445,8.297450999999999,1005.06995,5.720829508029118,1005.0429025905507,0,0
9.08,-0.23186058,5.5613769999999985,8.212234500000001,1005.0316,5.721418123418977,1005.0428320177097,0,0
9.1,-0.23183203,5.5041769999999985,8.259582,1005.0565,5.721976625780992,1005.0428188642833,0,0
9.12,-0.23182252,5.5089440000000005,8.179097,1005.0694,5.722373082517962,1005.0429029340044,0,0
9.14,-0.16009697,5.656706,8.037067,1005.0366,5.7225530098025,1005.0429545274477,0,0
9.16,-0.34171054,5.4136114,8.2974615,1005.02716,5.7227150321431575,1005.0429432551152,0,0
9.18,-0.31779253,5.4183774000000025,8.117556,1005.0399,5.722552517424497,1005.042922339164,0,0
9.2,-0.37513113,5.4422097,7.951853,1005.04694,5.721850640603173,1005.0429183214084,0,0
9.22,-0.2556266,5.513708,7.980261,1005.04895,5.720799393489284,1005.0429364853622,0,0
9.24,-0.32729506,5.5280066,8.359015,1005.0442,5.720116194143365,1005.0429570836847,0,0
9.26,-0.15998292,5.6185712999999975,8.269063000000001,1005.06494,5.719701732037293,1005.0430544228611,0,0
9.28,-0.2985878,5.4803405,8.216986,1005.0568,5.7192826996801065,1005.0431899158352,0,0
9.3,-0.17906415,5.537539,8.448974,1005.03705,5.7193228429604135,1005.0432875337303,0,0
9.32,-0.16949502,5.6328692,8.288006,1005.05707,5.719599968905473,1005.0434234057808,0,0
9.34,-0.42758548,5.466039,8.084427999999999,1005.04645,5.719557169789207,1005.0435543580637,0,0
9.36,-0.43713558,5.45174,7.9565997,1005.0593,5.718996596083312,1005.0437267518117,0,0
9.38,-0.29371288,5.523237,8.377965,1005.0518,5.7187786783453225,1005.043908142621,0,0
9.4,-0.36062062,5.470805,8.335355999999999,1005.04944,5.718735055715055,1005.0440883342267,0,0
9.42,-0.30801433,5.5280027,8.20753,1005.04645,5.718686587656159,1005.0442560535263,0,0
9.44,-0.19328001,5.6424,8.1128435,1005.0383,5.718599872512432,1005.0443828085067,0,0
9.46,-0.32231575,5.456504,8.330627,1005.0667,5.718645594029628,1005.0445751510968,0,0
9.48,-0.37488407,5.399305,8.359035,1005.0738,5.718796677865631,1005.0448503144652,0,0
9.5,-0.24103051,5.4898685999999985,8.231208,1005.05066,5.718912923263174,1005.0451143636858,0,0
9.52,-0.27468967,5.4469748,8.430035,1005.0383,5.719296218337313,1005.0453231458677,0,0
9.54,-0.1982027,5.5184727,8.179112,1005.0588,5.71955708223912,1005.0455561424783,0,0
9.56,-0.475411,5.485107,8.022878,1005.0461,5.719421251312933,1005.0457639761709,0,0
9.58,-0.41804832,5.594737,7.975535000000002,1005.0442,5.7189787076691045,1005.0459419877072,0,0
9.6,-0.3750149,5.5184717,8.363757000000001,1005.021,5.718840689088544,1005.0460094875447,0,0
9.62,-0.3750149,5.5184717,8.363757000000001,1005.06635,5.718972245720775,1005.0461423562464,0,0
9.64,-0.29852277,5.556604,8.283275,1005.0358,5.7192408561119095,1005.0462225265486,0,0
9.66,-0.30329242,5.518471,8.079696,1005.0613,5.719235250341562,1005.046347643932,0,0
9.68,-0.312847,5.4755720000000005,8.027617,1005.0283,5.7188483942332615,1005.0463932261338,0,0
9.7,-0.33673075,5.423139599999999,8.316417999999999,1005.0588,5.718566384062131,1005.0464781669533,0,0
9.72,-0.1407486,5.6662339999999976,8.141246,1005.0655,5.7183486417800085,1005.0466216992604,0,0
9.74,-0.35582972,5.5709023,8.425311,1005.06323,5.718576781629357,1005.0468083142893,0,0
9.76,-0.5613511,5.3516407,8.354295,1005.04816,5.718845726114638,1005.0469780733977,0,0
9.78,-0.4609651,5.413605,8.117576,1005.0602,5.718798015263827,1005.0471756714817,0,0
9.8,-0.30322140000000003,5.4994035000000006,8.306952,1005.05804,5.718884178950473,1005.047389380731,0,0
9.82,-0.3796882,5.523236,8.089171,1005.0252,5.718746017624255,1005.0474983324533,0,0
9.84,-0.3940174,5.566135,8.041828,1005.05725,5.718380764311497,1005.0476297081984,0,0
9.86,-0.40835178,5.5137024000000014,8.155455,1005.05066,5.717950668248802,1005.0477567008568,0,0
9.88,-0.42746586,5.4231377,8.306955,1005.0556,5.717624476376072,1005.0478971474472,0,0
9.9,-0.3270748,5.518468,8.335363000000001,1005.0503,5.7175414407486285,1005.0480298963232,0,0
9.92,-0.25058782,5.5566006,8.28802,1005.0256,5.7176310313173,1005.0480664456036,0,0
9.94,-0.20755938,5.5566,8.065503999999999,1005.04486,5.717488346360398,1005.0480871973436,0,0
9.96,-0.25057260000000003,5.508935,8.207537,1005.04315,5.717331372636165,1005.0480877596705,0,0
9.98,-0.24100286,5.5756664,8.259616000000001,1005.05066,5.717329040823874,1005.0480975166076,0,0
10.0,-0.40828073,5.4708014,8.136523,1005.04785,5.7171409992032185,1005.0481052467776,0,0
10.02,-0.15516427,5.594737,8.169644,1005.04474,5.71697601444981,1005.0480999622673,0,0
10.04,-0.23163989,5.585204,8.240661,1005.04224,5.716945901356151,1005.0480741970099,0,0
10.06,-0.26509720000000003,5.4898725,8.283271000000001,1005.0621,5.717000067336008,1005.0481019237192,0,0
10.08,-0.18383867,5.561372,8.278537,1005.04047,5.71719898094392,1005.048098948114,0,0
10.1,-0.22207648,5.5423050000000025,8.269067999999999,1005.0441,5.717488279648593,1005.0480819226564,0,0
10.12,-0.26031297,5.6090364,8.193317,1005.04736,5.7178057765512955,1005.0480642800404,0,0
10.14,-0.26031297,5.6090364,8.193317,1005.0416,5.718147046392925,1005.0480254196164,0,0
10.16,-0.38458663,5.5041723,8.240662,1005.02966,5.718475930635451,1005.0479249670352,0,0
10.18,-0.32722703,5.5423050000000025,8.032349,1005.067,5.718474874012425,1005.0479048772536,0,0
10.2,-0.35112548,5.528005,8.141239,1005.0522,5.718353876827733,1005.047902588364,0,0
10.22,-0.26030728,5.580437,8.221724499999999,1005.0621,5.718321020833316,1005.0479516765832,0,0
10.24,-0.28420568,5.5613712999999985,8.254864999999999,1005.037,5.7184023727325295,1005.0479556248978,0,0
10.26,-0.20294708,5.60427,8.150708,1005.037,5.718451441879956,1005.047919673379,0,0
10.28,-0.2842031,5.585204,8.150708,1005.03925,5.718453549904496,1005.0478566957927,0,0
10.3,-0.30332044,5.5089393,8.226459,1005.0667,5.7184567670904665,1005.0478688846927,0,0
10.32,-0.34155825,5.5137057,8.179114,1005.04694,5.718387429728571,1005.04787631082,0,0
10.34,-0.25552052,5.6471686,7.975536,1005.0563,5.718058450389927,1005.047913197827,0,0
10.36,-0.35589445,5.470806,8.349554,1005.0543,5.7179435963550045,1005.0479687836743,0,0
10.38,-0.2889766,5.4994054000000006,8.297476,1005.04913,5.717956217841338,1005.0480220797076,0,0
10.4,-0.20293947,5.5756702,8.226459,1005.039,5.718042662275634,1005.0480366925957,0,0
10.42,-0.2029369,5.594736599999999,8.141241,1005.042,5.718070091705616,1005.0480278724505,0,0
10.44,-0.26029402,5.556604,8.150708999999999,1005.04913,5.718019553526246,1005.048024046629,0,0
10.46,-0.36544776,5.4565067,8.179115,1005.04663,5.717839901415464,1005.0480156475656,0,0
10.48,-0.28896958,5.5327715999999985,8.127038,1005.0717,5.717540353375036,1005.0480934898218,0,0
10.5,-0.2363911,5.561371,8.164913,1005.0617,5.7172315220787695,1005.0482112546761,0,0
10.52,-0.29316324,5.5089245,8.306999000000001,1005.02924,5.717102980763364,1005.0482470151843,0,0
10.54,-0.30271077,5.518457,8.278592999999999,1005.0219,5.717096621303067,1005.0481837639148,0,0
10.56,-0.29311496,5.527989,8.340145,1005.0269,5.717315107822741,1005.0480512535428,0,0
10.58,-0.19271502,5.589954,8.022941000000001,1005.0596,5.71725359156726,1005.0479757428656,0,0
10.6,-0.2835192,5.518455,8.179178,1005.0539,5.717133194232877,1005.0479303489568,0,0
10.62,-0.32651332,5.4421897,8.226523,1005.04395,5.7169577324569065,1005.0478759096428,0,0
10.64,-0.2691436,5.504154,8.240728,1005.0366,5.716826497218232,1005.04778721379,0,0
10.66,-0.20220220000000005,5.6233177,8.008744,1005.06647,5.716473686081016,1005.0477761001648,0,0
10.68,-0.35035205,5.4135885,8.520062,1005.06647,5.716576239246169,1005.0478335782054,0,0
10.7,-0.24517226,5.5470524,8.359095,1005.0657,5.71694486217669,1005.0479486849202,0,0
10.72,-0.2881543,5.4469533,8.467989,1005.0637,5.7176252778911545,1005.0481070979476,0,0
10.74,-0.14951585,5.5899496,7.918800999999997,1005.0415,5.7177920357255365,1005.0482232861464,0,0
10.76,-0.13515239999999998,5.5518160000000005,8.098711,1005.03827,5.717765569313741,1005.0482901182083,0,0
10.78,-0.1972657,5.442185,8.259682000000002,1005.0506,5.717721197086807,1005.048357486593,0,0
10.8,-0.1733546,5.5232160000000015,8.254949,1005.0204,5.717745184713691,1005.0483163663458,0,0
10.82,-0.17809825,5.5470486,8.39225,1005.0408,5.7180946789799965,1005.0482529735766,0,0
10.84,-0.20676503,5.513682,8.217078,1005.0506,5.718390265791798,1005.0482054090207,0,0
10.86,-0.31666434,5.4660153,8.401724,1005.04315,5.718908647109162,1005.0481451815068,0,0
10.88,-0.30709267,5.451715,8.406459,1005.0439,5.719613471172969,1005.0480766818221,0,0
10.9,-0.1827816,5.5327463,8.18868,1005.036,5.720189754306656,1005.0479726794459,0,0
10.92,-0.37394968,5.4755464000000025,8.141338000000001,1005.04083,5.720513632236054,1005.0478550693003,0,0
10.94,-0.2305314,5.59471,7.8714786,1005.03577,5.720283733294452,1005.0477076427264,0,0
10.96,-0.06800599,5.7329397,7.951964999999999,1005.031,5.7198633791325895,1005.0475172290918,0,0
10.98,-0.23526298,5.4993777,8.264439999999999,1005.04565,5.719538995402981,1005.0473422575792,0,0
11.0,-0.25915,5.4564786,8.250237,1005.03827,5.719227949543267,1005.0471549926241,0,0
11.02,-0.10715371,5.599499,8.141258,1005.0234,5.71890240179856,1005.0469040073357,0,0
11.04,-0.15018715,5.5280010000000015,8.23121,1005.03394,5.718637463618817,1005.0466355663086,0,0
11.06,-0.18844084,5.5899663,8.411116999999999,1005.0154,5.718810795533424,1005.0462859237783,0,0
11.08,-0.049841747,5.7472629999999985,8.207536,1005.0207,5.7192020759689335,1005.0458848703132,0,0
11.1,-0.21715009,5.728197,8.259611999999999,1005.0236,5.719855289570223,1005.045450273938,0,0
11.12,-0.14069599,5.899794,7.8524512999999985,1005.0204,5.7202573976347555,1005.0449760835949,0,0
11.14,-0.07856623,6.038024,7.762497,1005.03827,5.7204607019893645,1005.0445329471066,0,0
11.16,-0.32235143,5.837829,7.8335114,1005.0512,5.720363366327707,1005.044165393096,0,0
11.18,-0.48010778,5.780631,7.861916000000001,1005.06067,5.719990937471782,1005.0439000389572,0,0
11.2,-0.33672884,5.8997955,7.7340856,1005.0256,5.71930016804168,1005.0435996918998,0,0
11.22,-0.33672884,5.8997955,7.7340856,1005.0553,5.718330599650179,1005.043376426349,0,0
11.24,-0.6378793,5.704367,8.093899,1005.06726,5.717511625527421,1005.0432651297735,0,0
11.26,-0.45626193,5.8759637000000025,7.809833,1005.0729,5.716540808430129,1005.0432734736522,0,0
11.28,-0.4514898,5.8711967000000005,7.890317,1005.0654,5.7155667266224635,1005.0433605017984,0,0
11.3,-0.44673276,5.7472672,8.122301,1005.05804,5.7148315449457545,1005.0434902460615,0,0
11.32,-0.3511443,5.8473654,7.975533,1005.05975,5.714176290473274,1005.0436634232068,0,0
11.34,-0.45154303,5.766334,8.093891000000001,1005.0305,5.713703102138938,1005.043769054209,0,0
11.36,-0.40375262,5.7568015999999975,8.074953,1005.035,5.713344703281638,1005.0438308211673,0,0
11.38,-0.39421582,5.7949343,7.9897313,1005.07495,5.712990765222638,1005.0439974274952,0,0
11.4,-0.48026752,5.7282023,8.155435,1005.04443,5.7128494751929235,1005.0441461981078,0,0
11.42,-0.40381342,5.7377367,8.150698,1005.0179,5.712892890409362,1005.0441831655078,0,0
11.44,-0.40381342,5.7377367,8.150698,1005.0654,5.713099354886527,1005.0442922105066,0,0
11.46,-0.47553337,5.666239,8.098618,1005.0553,5.7132819441349785,1005.0444281907097,0,0
11.48,-0.42774296,5.7234373,7.999194,1005.06067,5.713338312058325,1005.0446068133307,0,0
11.5,-0.40802407,5.6995897000000015,8.056063,1005.0401,5.713348726119229,1005.0447484197504,0,0
11.52,-0.408019,5.713889599999999,8.022922,1005.06976,5.71327956505965,1005.044963584872,0,0
11.54,-0.5083847,5.6662235,8.160219999999999,1005.0503,5.7133262405711855,1005.0451729158676,0,0
11.56,-0.45102197,5.7281885,8.027657000000001,1005.05005,5.713318333944932,1005.0453754382384,0,0
11.58,-0.39843398,5.7520213,7.9945179999999985,1005.0549,5.713230408463057,1005.0455886754276,0,0
11.6,-0.47489572,5.628091,8.302255,1005.04504,5.713455607160287,1005.0457751165764,0,0
11.62,-0.30759240000000004,5.7520204,7.9282384000000015,1005.05975,5.713454785405241,1005.0459901655556,0,0
11.64,-0.29324788,5.7949199999999985,7.9187699999999985,1005.0302,5.713289928608058,1005.0461233382381,0,0
11.66,-0.41272777,5.718654,8.008724,1005.06213,5.7130482564491825,1005.0462986336024,0,0
11.68,-0.47485507,5.647156,8.231243,1005.07495,5.7130387553477275,1005.0465566695053,0,0
11.7,-0.5561016,5.604256,8.122353,1005.05676,5.713006518451272,1005.0468214020187,0,0
11.72,-0.43660146,5.7043542999999985,8.060805,1005.0821,5.712956127552079,1005.0471823226204,0,0
11.74,-0.24061425,5.7758517,8.131824,1005.0498,5.713082222518923,1005.0475106557028,0,0
11.76,-0.24061425,5.7758517,8.131824,1005.04504,5.713363806455116,1005.0477918764535,0,0
11.78,-0.14022817,5.86165,7.899838000000001,1005.0747,5.713492382319831,1005.048137232354,0,0
11.8,-0.41266185,5.6233214999999985,7.9945283,1005.05005,5.7133707298422,1005.0484492747912,0,0
11.82,-0.27403736,5.8092169999999985,7.980326,1005.06213,5.7132190713012125,1005.0487742460992,0,0
11.84,-0.28836662,5.7186522,8.235985000000001,1005.0525,5.713366169604898,1005.0490748034613,0,0
11.86,-0.23099886,5.8330493,7.947187,1005.0745,5.713423339532932,1005.0494319066536,0,0
11.88,-0.39350206,5.6376204,8.235986,1005.05725,5.7136661280451335,1005.0497755881706,0,0
11.9,-0.29789585,5.680519,7.9850636,1005.04254,5.713688674705086,1005.0500532170416,0,0
11.92,-0.28832102,5.7424839999999975,8.146034,1005.05975,5.713863264350669,1005.0503334383304,0,0
11.94,-0.34088868,5.7234173,8.022941000000001,1005.0518,5.713943535446941,1005.0505863214836,0,0
11.96,-0.35522303,5.7424839999999975,8.11763,1005.0691,5.714124506154626,1005.05087641828,0,0
11.98,-0.42690992,5.6948175,8.037146,1005.0518,5.714206062511996,1005.0511360727036,0,0
12.0,-0.37432706,5.675751,7.8193636,1005.0696,5.713804392140367,1005.0514319734907,0,0
12.02,-0.25035566,5.732958,8.074994,1005.0543,5.7134696628129396,1005.0517037563216,0,0
12.04,-0.20733994,5.7758565000000015,8.117602999999999,1005.0624,5.713317035312903,1005.0519824101082,0,0
12.06,-0.2408024,5.7567906,7.923491999999999,1005.0548,5.712976823244871,1005.0522387719176,0,0
12.08,-0.36030006,5.680526,8.174416,1005.06976,5.712812810028405,1005.0525283696334,0,0
12.1,-0.39376116,5.5994945,8.202822,1005.0654,5.712760835317037,1005.0528305960443,0,0
12.12,-0.3794256,5.656693,8.070258,1005.05005,5.712648034844487,1005.0530876331552,0,0
12.14,-0.3698672,5.6614594,8.160212,1005.05676,5.7126400551364025,1005.0533279716672,0,0
12.16,-0.2551545,5.7567910000000015,8.117600999999999,1005.0617,5.7127584921007415,1005.0535704740787,0,0
12.18,-0.33163255,5.6662264,8.396931,1005.05927,5.713363063103622,1005.0538052675024,0,0
12.2,-0.25993937,5.7567910000000015,8.060789,1005.0425,5.713924231399788,1005.0539720320088,0,0
12.22,-0.31729954,5.7281914,8.079725,1005.04443,5.714446107136849,1005.0540850338111,0,0
12.24,-0.30774120000000005,5.6757593,8.16968,1005.0321,5.715021151285766,1005.054105736082,0,0
12.26,-0.41289937,5.670993,8.008709,1005.04694,5.7153696567360175,1005.0540982319587,0,0
12.28,-0.41768044,5.7091255,7.8808804000000015,1005.04443,5.7153474618102775,1005.0540567956804,0,0
12.3,-0.56585824,5.5184636,8.112865,1005.0473,5.715179992073853,1005.0539958581204,0,0
12.32,-0.3412112,5.6805267,8.122334500000001,1005.0795,5.7150705380521085,1005.0540338286028,0,0
12.34,-0.3412112,5.6805267,8.122334500000001,1005.04193,5.715012740750331,1005.0540238055383,0,0
12.36,-0.25517857,5.761558,8.155475,1005.05927,5.715148572593793,1005.0540338354587,0,0
12.38,-0.16436608,5.7043595,8.1128645,1005.04694,5.715310181393673,1005.0540171600888,0,0
12.4,-0.2982031,5.613795,8.051317,1005.06726,5.715287811890218,1005.0540500999556,0,0
12.42,-0.36512166,5.5184636,8.037114,1005.037,5.714970733047173,1005.0540178252617,0,0
12.44,-0.26474825,5.718659,7.9755660000000015,1005.06464,5.714521905090496,1005.0540275471716,0,0
12.46,-0.29342967,5.651928,8.188614999999999,1005.0487,5.714242218850505,1005.0540169582813,0,0
12.48,-0.2360745,5.6090282999999985,8.382725,1005.0821,5.7143933147798425,1005.0541087008876,0,0
12.5,-0.28865490000000005,5.604262,8.188614999999999,1005.0574,5.714587801399715,1005.0542016133318,0,0
12.52,-0.26001048,5.742493,7.729373,1005.0821,5.71420812281243,1005.0543841449593,0,0
12.54,-0.35561040000000005,5.6090293,8.477409,1005.07007,5.714442015802628,1005.0546018989836,0,0
12.56,-0.30781618,5.6423955,8.056046499999999,1005.0473,5.714529346403363,1005.0547680196028,0,0
12.58,-0.28392280000000003,5.5470643,8.060781,1005.0375,5.7143804944660195,1005.0548526389116,0,0
12.6,-0.28392280000000003,5.5470643,8.060781,1005.04443,5.714023487505008,1005.0548898870328,0,0
12.62,-0.17399302,5.632862,8.098655,1005.04486,5.713644665520643,1005.0548866918792,0,0
12.64,-0.10707766,5.666229,8.368516,1005.037,5.71374764040512,1005.0548194765512,0,0
12.66,-0.14532177,5.6328625999999975,8.179139,1005.037,5.713912825183008,1005.0546959349713,0,0
12.68,-0.25526112,5.7234273,8.288030000000001,1005.04755,5.714430077052707,1005.0545610482652,0,0
12.7,-0.2839418,5.7424936,8.354312,1005.0827,5.7153940240577645,1005.0545431625984,0,0
12.72,-0.12621403,5.8521247,7.77198,1005.0473,5.715893140637063,1005.0545012834376,0,0
12.74,0.007618591,5.9855886,7.9566216,1005.04755,5.7164514820594725,1005.0544392543907,0,0
12.76,-0.17880137,5.313504,8.340108,1005.04443,5.716922699589842,1005.0543484122093,0,0
12.78,-0.011510119,5.542299,8.2264805,1005.0726,5.717374990005496,1005.0543338497736,0,0
12.8,0.24659546,6.1095190000000015,7.435835400000001,1005.06726,5.717201379114139,1005.0543675165463,0,0
12.82,0.5955193,6.1428847,8.520014999999999,1005.0401,5.718332442011005,1005.0543459014473,0,0
12.84,-0.44648176,5.5613655999999985,7.6772895,1005.0553,5.718471411445049,1005.0543302371003,0,0
12.86,-0.28397417,5.5089335,8.458467,1005.0649,5.718996526294871,1005.05435444723,0,0
12.88,-0.24095786,5.5089335,8.515279,1005.0296,5.7199576415422095,1005.0542867232904,0,0
12.9,-0.24574146,5.566132,8.401652,1005.0401,5.721168351984223,1005.0541758102137,0,0
12.92,-0.31744236,5.528,8.103384,1005.0493,5.722040982266708,1005.0540602545019,0,0
12.94,-0.12147411,5.6519309999999985,7.890336,1005.0548,5.7223873086393775,1005.0539608125592,0,0
12.96,-0.22663358,5.475568,8.302228,1005.04,5.7227689961817,1005.0538226867334,0,0
12.98,-0.1071423,5.5899653,8.273822000000001,1005.04504,5.7232592909094375,1005.0536690210812,0,0
13.0,-0.12626539,5.594732,7.999225999999997,1005.06213,5.7233795632934426,1005.0535637016353,1,1
13.02,-0.12566681,5.7281804,8.075031,1005.0676,5.723460949023461,1005.0535211720468,1,1
13.04,-0.18299401,5.5661172999999975,8.74732,1005.0493,5.724481426535799,1005.0534683966832,1,1
13.06,-0.18298385,5.518451,8.950901,1005.02264,5.726633975989282,1005.0533107821435,1,1
13.08,-0.21164235,5.4469523,8.638432,1005.0525,5.7291505848504665,1005.053168595121,1,1
13.1,-0.1877332,5.4564857,8.373305,1005.06726,5.7315256870162505,1005.0530936877252,1,1
13.12,-0.25463018,5.494618,7.9093356,1005.0804,5.73301465197307,1005.0531258022743,1,1
13.14,-0.11598547,5.356386,8.392247,1005.07526,5.734385879215447,1005.053233861802,1,1
13.16,-0.13508436,5.3706856,8.335436999999999,1005.04315,5.735565293794937,1005.053293041298,1,1
13.18,-0.19720154,5.46125,8.022967,1005.0654,5.736135683534927,1005.053388917352,1,1
13.2,-0.31668645,5.356385,8.018234,1005.0726,5.7360425099611305,1005.0535427933307,1,1
13.22,-0.41225207,5.2467537,8.43013,1005.04816,5.735966343686791,1005.0536593800896,1,1
13.24,-0.3739934,5.2896523,8.24549,1005.04535,5.735625733713071,1005.0537324823816,1,1
13.26,-0.43610036,5.294418,8.226555000000001,1005.06604,5.7350302924774335,1005.0538413826304,1,1
13.28,-0.5412459,5.3659163,8.1650095,1005.03796,5.734196552555201,1005.0538804339124,1,1
13.3,-0.6511611999999999,5.542278,8.245496000000001,1005.0562,5.7335106534503675,1005.0539232900634,1,1
13.32,-0.6320216,5.327782599999999,9.306005,1005.0861,5.73459038415472,1005.0540769939138,1,1
13.34,-0.61288214,4.99889,9.736837,1005.05817,5.7376844792289035,1005.054227541458,1,1
13.36,-0.45035857,5.0227222000000005,9.159241,1005.05084,5.7414945809398255,1005.054348370119,1,1
13.38,-0.27825522,5.351614,8.373332000000001,1005.06866,5.744854456501352,1005.0545066561913,1,1
13.4,-0.5459141,5.21815,8.018253,1005.0138,5.747058096710553,1005.0544999738023,1,1
13.42,-0.8422315,5.389745,7.0334997,1005.05896,5.7468163244706485,1005.054510125338,1,1
13.44,-0.8422213,5.370679,7.3838468,1005.0562,5.744972036122656,1005.0545251787836,1,1
13.46,-0.45024705,5.3897443,8.539043,1005.0617,5.743669160602836,1005.0545643093648,1,1
13.48,-1.0094638,5.137116000000002,8.576921,1005.07404,5.742726166501044,1005.0546689976325,1,1
13.5,-0.8756089,5.5804057,8.084545,1005.03925,5.741717794426923,1005.054705991794,1,1
13.52,-0.49875218,5.9426823,8.070273,1005.0261,5.741013172018646,1005.0546356982647,1,1
13.54,-0.11638306,6.223909,7.416924000000002,1005.0493,5.739848750196872,1005.0545543783888,1,1
13.56,-0.34103894,6.0761466,7.5400186,1005.0596,5.738295802349317,1005.054500688384,1,1
13.58,-1.0914783,5.423128,7.790940799999999,1005.03674,5.736125705692503,1005.0543893094176,1,1
13.6,-1.1584057,5.4612612999999985,8.060801,1005.0642,5.733938076730722,1005.0543262134488,1,1
13.62,-0.90986085,5.580425,8.690476,1005.05237,5.732912187452551,1005.0542634194827,1,1
13.64,-0.3649735,5.3373313,9.982968,1005.06476,5.734908031369837,1005.054245722424,1,1
13.66,0.40455467,5.623325,9.362759,1005.0696,5.738741738442386,1005.0542853607022,1,1
13.68,0.28983426,5.308732,9.211257000000002,1005.0333,5.743575206772437,1005.0542448377862,1,1
13.7,0.060388446,4.7319794,8.292782,1005.03796,5.747014465143889,1005.0541504063216,1,1
13.72,-0.068676405,4.422153,7.7435894,1005.04535,5.747898995079192,1005.0540352852166,1,1
13.74,0.600486,4.8892760000000015,6.995553,1005.0436,5.745771226290338,1005.0538959971816,1,1
13.76,-0.10693512,4.460286,8.505827,1005.0655,5.743169825378268,1005.053814696684,1,1
13.78,-0.4941044,4.1456940000000015,8.600514,1005.06793,5.740066572531207,1005.0537936746564,1,1
13.8,-0.5801509,4.832078,8.3922,1005.0358,5.736824002639687,1005.0537103223636,1,1
13.82,-0.94820595,5.237236,6.801439,1005.0408,5.731256710109742,1005.0535901951176,1,1
13.84,-0.22646578,5.761557,8.150743499999999,1005.0588,5.7264564043947175,1005.0535028059804,1,1
13.86,-0.4367923,5.184804,8.349586500000001,1005.0383,5.722047756428945,1005.0533708588373,1,1
13.88,-0.20736682,5.313501400000002,8.799355499999997,1005.0761,5.7189221663015495,1005.0533360952496,1,1
13.9,0.045952603,5.5184636,9.769907,1005.07904,5.718894296053313,1005.0533979122008,1,1
13.92,0.01248385,5.66146,10.05397,1005.0732,5.722263757580807,1005.053523821175,1,1
13.94,-0.74751514,5.337335,10.588958,1005.0218,5.729336265591241,1005.0535208685884,1,1
13.96,-0.61847055,5.98082,8.401662,1005.04395,5.736433617634603,1005.053483804556,1,1
13.98,-0.19785798,5.685294,9.064477,1005.0531,5.744296750013643,1005.0534496730804,1,1
14.0,-0.46553206,5.041809,9.670481,1005.04944,5.753253216510732,1005.0534050796853,1,1
14.02,-1.3834295,4.1123347,8.624161,1005.0395,5.760521074323919,1005.0533156186748,1,1
14.04,-1.6941332999999998,4.2267323,8.108108999999999,1005.04974,5.765533287877664,1005.0532236986984,1,1
14.06,-1.5889859,4.1647677000000005,8.150718,1005.0395,5.76851509255512,1005.0530930728924,1,1
14.08,-1.0871229,4.307764499999998,7.819308,1005.0546,5.769075476763014,1005.0529830768672,1,1
14.1,-0.5087831,4.531793,7.8761196,1005.0501,5.767718155650227,1005.0528755053032,1,1
14.12,-0.9867882,3.9693403,7.923461,1005.02747,5.7642884165889825,1005.0526889952498,1,1
14.14,-0.035631895,4.6890907,8.306946,1005.04974,5.760333082202567,1005.0525135785837,1,1
14.16,-0.34154759999999995,4.322066,9.088122,1005.0818,5.757029603724602,1005.0524640115348,1,1
14.18,-0.42759234,4.1266375,9.154403,1005.0355,5.754275175724041,1005.0523591436487,1,1
14.2,0.055143163,5.5804377,8.089159,1005.0528,5.751551948574046,1005.0522680694676,1,1
14.22,0.29411685,5.1180825,10.295391,1005.0882,5.752344800181984,1005.0523169512708,1,1
14.24,0.117247686,4.846389,10.854049,1005.0461,5.75704453615346,1005.0523377622078,1,1
14.26,0.38490844,5.0894837,9.376914,1005.03076,5.762661564301579,1005.0522784708077,1,1
14.28,0.39445162,5.2563133,8.264327,1005.05304,5.7672527209970585,1005.0522288224316,1,1
14.3,0.29883903,4.431699299999999,8.770907000000001,1005.07153,5.770981712534771,1005.0522544373656,1,1
14.32,0.40397006,4.4364667,8.586263,1005.0638,5.773606327369473,1005.052318634747,1,1
14.34,0.17452292,4.569930599999998,7.814553299999999,1005.05365,5.773959649203866,1005.052380152468,1,1
14.36,0.27488238,4.5889974,7.5683630000000015,1005.0338,5.771890778259838,1005.0523676209773,1,1
14.38,0.5090763,4.6938615,9.263278,1005.05145,5.770893896163392,1005.0523532447168,1,1
14.4,0.031087667000000006,4.3888025,9.599421,1005.0592,5.771176324619278,1005.0523651901719,1,1
14.42,-0.494699,4.117108999999999,8.889259,1005.057,5.771037029766148,1005.0523924304912,1,1
14.44,-0.4947155,4.045611,8.557849000000001,1005.03265,5.769839623659152,1005.0523454272881,1,1
14.46,-0.06933766599999999,4.97509,6.593069,1005.0347,5.765177919250838,1005.0522403717192,1,1
14.48,0.24611296,5.2372510000000005,7.421588000000002,1005.0592,5.759190687677632,1005.0521725992804,1,1
14.5,0.5567837,5.2134185,8.917659,1005.07153,5.7546684957396605,1005.0521824021961,1,1
14.52,-0.002478063,5.3564157,10.248024,1005.057,5.753990043251648,1005.0522084074044,1,1
14.54,-0.6095214,5.156221,10.039709,1005.044,5.756168682313348,1005.0522018353398,1,1
14.56,-0.42791355,5.7997065,9.272734,1005.04224,5.760121251557455,1005.0521601656565,1,1
14.58,-0.5952149,5.375483,9.694095,1005.10175,5.7659496802519525,1005.0523018697277,1,1
14.6,-0.66214854,4.0789804,11.081274,1005.03754,5.774923623667308,1005.0523739367143,1,1
14.62,-0.7721088,4.4412394,7.743516,1005.0054,5.780686424425168,1005.0522685089313,1,1
14.64,-1.0732447,4.6891003,6.725619,1005.01526,5.782154394052224,1005.05204212231,1,1
14.66,-1.1401786,4.193379,8.287971,1005.0425,5.782086277557446,1005.0518077354512,1,1
14.68,-1.0015724,4.0742154,8.572034,1005.0452,5.7810467801620185,1005.051576843375,1,1
14.7,0.006941512,4.2696447,8.804018,1005.03503,5.779653660008166,1005.0513132585004,1,1
14.72,-0.2798549,4.136181,8.832424000000003,1005.03046,5.777895380551107,1005.0510052831746,1,1
14.74,-0.6861547,4.164781,7.819259,1005.014,5.774010080661394,1005.0505999371572,1,1
14.76,0.03557098,4.6748033,7.9186797,1005.05096,5.76890345633778,1005.0502430696423,1,1
14.78,-0.08394064,4.3268447,8.785074,1005.03754,5.763977909876879,1005.0498820104558,1,1
14.8,0.021206856,4.760601,7.937614999999999,1005.0132,5.758113158518353,1005.0494309233208,1,1
14.82,0.4370333,5.365955400000002,8.278491,1005.06335,5.752726897143765,1005.0490824514044,1,1
14.84,0.2697237,5.2467914,9.286917,1005.0539,5.749434909432838,1005.048791884794,1,1
14.86,0.5995136999999999,5.256325,9.272713,1005.02826,5.748017267024126,1005.0484612253516,1,1
14.88,0.75245094,5.0799627,9.675135,1005.0465,5.748838319551751,1005.0481619942572,1,1
14.9,1.3546896000000002,4.6605062,8.974442,1005.0616,5.750074001633916,1005.0479459704828,1,1
14.92,1.1730406,3.916924,10.229057,1005.049,5.753361878723397,1005.0477588863824,1,1
14.94,0.5325223000000001,4.1457190000000015,8.103308,1005.0242,5.7545059230117594,1005.0475087668798,1,1
14.96,0.5181747,4.488911,7.326864200000001,1005.05963,5.75269246646412,1005.0473313977266,1,1
14.98,0.5140371,4.588993,6.9860463,1005.0369,5.747785939108423,1005.047137121311,1,1
15.0,0.4805771,4.426930400000002,7.700941,1005.0415,5.741247830121537,1005.0469451650335,1,1
15.02,0.17466564,4.0074735,9.623109,1005.0593,5.736471611390604,1005.0468200298726,1,1
15.04,-0.28419816,4.7367563,7.909254,1005.0448,5.73077084137022,1005.0467021883368,1,1
15.06,0.07428312,5.637636,7.317454,1005.04944,5.724302894904164,1005.0466079196781,1,1
15.08,0.007363245,5.227712,7.3837350000000015,1005.04504,5.716784204785634,1005.04651897938,1,1
15.1,0.36584723,5.2134123,8.093895,1005.04944,5.709585313390572,1005.0464509074068,1,1
15.12,0.41364253,5.2181787,9.36745,1005.0921,5.704973370238893,1005.0465550957448,1,1
15.14,0.34672266,5.0894822999999985,10.347471,1005.0695,5.704338731648134,1005.0467297582156,1,1
15.16,0.43275517,4.913119999999998,11.606824,1005.0745,5.709454399242334,1005.0469840628454,1,1
15.18,0.43275517,4.913119999999998,11.606824,1005.0325,5.719632620978228,1005.0471566237896,1,1
15.2,0.2272196,5.470807,8.666758,1005.03564,5.729342843987527,1005.0472676387944,1,1
15.22,0.5713629,4.6032934,9.571028,1005.0456,5.739403365556893,1005.0473597281532,1,1
15.24,0.15551727,3.9073765,8.344816999999999,1005.0426,5.7467853075463315,1005.0474239632887,1,1
15.26,0.24633084,4.3601995,6.9671054,1005.06976,5.749710097703855,1005.0475611311873,1,1
15.28,-0.4467433,4.0789723,7.653593499999999,1005.0612,5.7496452277737475,1005.0477314326697,1,1
15.3,0.22242655,4.717691,6.2380066,1005.0456,5.745151573524447,1005.0478742379022,1,1
15.32,0.6812864000000001,4.8845205,7.175418400000001,1005.0559,5.738595292875765,1005.0480293133493,1,1
15.34,0.9393931,4.403098,9.073915,1005.06287,5.733196877215388,1005.0482197644859,1,1
15.36,0.5904635,4.0408406,9.405322,1005.04846,5.7290991177528285,1005.0483889119583,1,1
15.38,0.6287005999999999,4.231503,7.790889999999999,1005.0587,5.7233272112802815,1005.0485754905818,1,1
15.4,1.3169882,4.2744017,6.749321000000001,1005.0579,5.714452076417342,1005.0487739196876,1,1
15.42,1.3647836000000002,4.708158,7.0854630000000025,1005.06335,5.70394572399133,1005.0490017255344,1,1
15.44,1.5033967,5.280145,6.862946000000001,1005.0431,5.692394947762383,1005.0491817685687,1,1
15.46,1.0440656,5.5613839999999986,9.570982,1005.08344,5.68480558904683,1005.0494641842273,1,1
15.48,0.69034934,5.056129,10.238532,1005.11554,5.681411467221638,1005.0499515996396,1,1
15.5,0.9245382,4.44601,12.089683,1005.0562,5.684801455140263,1005.0504047741392,1,1
15.52,0.94840485,5.0847297,7.99442,1005.06354,5.687122255477246,1005.0508524859404,1,1
15.54,1.4646128,5.0799637,8.18853,1005.09827,5.688957941524088,1005.0514187871383,1,1
15.56,1.5888662,3.6547637,11.46947,1005.06586,5.695336581194714,1005.0519711592433,1,1
15.58,1.0057086,3.5451334,9.178017,1005.03406,5.701025863008133,1005.052394755062,1,1
15.6,1.110832,4.2029185,8.117506,1005.07355,5.704668264777356,1005.0528452032092,1,1
15.62,0.9530876,4.29825,8.25007,1005.0431,5.7067862164413246,1005.0532081364604,1,1
15.64,1.4119165,4.0789895,9.097525,1005.06335,5.7090424560742425,1005.0535653349896,1,1
15.66,1.7417011999999998,3.854962,10.1390915,1005.0859,5.713317794844817,1005.0539973604043,1,1
15.68,1.6986723,3.845429,9.594635,1005.0464,5.718299836202528,1005.0543517475634,1,1
15.7,1.5839462,4.0789905,8.311608999999999,1005.01843,5.721639232205996,1005.0545355657657,1,1
15.72,1.8850306,4.9322047,7.6819296,1005.06854,5.723366580682285,1005.0547484034926,1,1
15.74,1.8850306,4.9322047,7.6819296,1005.0883,5.723663305509048,1005.0550572526556,1,1
15.76,1.4978452,4.7177105,8.472572999999999,1005.0884,5.723715166932457,1005.0554501856662,1,1
15.78,1.1823457,4.603314,9.736656,1005.07275,5.7256751360938685,1005.0558596606062,1,1
15.8,1.0293704,4.722478400000001,9.627763,1005.0537,5.729185572216249,1005.0562136978847,1,1
15.82,0.8763953000000001,5.1896014,8.676146000000001,1005.06354,5.732753895781973,1005.0565528999119,1,1
15.84,0.42707205,4.7034129999999985,9.211131,1005.06366,5.736783726191227,1005.0568782043832,1,1
15.86,0.36970365,4.388821,9.2916155,1005.0587,5.741064115059322,1005.0571722018783,1,1
15.88,0.31709343,3.0875517999999995,10.53676,1005.0439,5.747009062867183,1005.0573841981384,1,1
15.9,0.28839314,3.7215044,9.064359,1005.03406,5.751947574393505,1005.0574875509204,1,1
15.92,-0.33300295,4.3840556,7.2321424,1005.0312,5.753195763465669,1005.0574842382553,1,1
15.94,-0.83012414,4.1790949999999984,7.847613000000001,1005.0612,5.752147125022813,1005.0574946879268,1,1
15.96,0.37914473,4.7844477,8.00858,1005.0813,5.749918570959549,1005.0575896203796,1,1
15.98,0.8529392,4.431708,9.717755,1005.06366,5.749519557701051,1005.0576953560616,1,1
16.0,0.4227593,3.7500908,10.631495,1005.06616,5.751916724616407,1005.0578192568288,1,1
16.02,0.38452214,3.8692546,10.276415,1005.06146,5.756164912658105,1005.0579418422217,1,1
16.04,0.6856523,4.550872,8.131730000000001,1005.02905,5.758617029127287,1005.057946148043,1,1
16.06,0.5088034,4.7749,8.472608000000001,1005.0595,5.760294350852287,1005.0579555465338,1,1
16.08,-0.19382656,4.560405,8.164871,1005.06146,5.760481592643787,1005.0579764670726,1,1
16.099999999999998,-0.17948458,5.0513606,8.794547,1005.07355,5.760992371644888,1005.0580510171793,1,1
16.12,-0.19860256,5.046593,10.176994,1005.06354,5.764318106647493,1005.0581366499918,1,1
16.14,0.10730998,5.1323915,7.7908545,1005.0612,5.7658973856883975,1005.0582233432048,1,1
16.16,0.36064088,4.3554425000000005,9.239582,1005.08344,5.767779654835574,1005.0583907252924,1,1
16.18,0.37020302,3.0637062000000004,12.023413,1005.06396,5.774479028120158,1005.0585586734938,1,1
16.2,0.5948564000000001,3.2162359,8.97919,1005.0389,5.779472976341716,1005.0586363013,1,1
16.22,1.3500678999999998,3.6833582,8.889237,1005.03156,5.783274675498849,1005.0586074185452,1,1
16.24,1.2783732,3.8311214,7.738777000000002,1005.0746,5.783957544067558,1005.0586394710358,1,1
16.259999999999998,0.886432,4.4412403,6.943397,1005.03815,5.780968749815428,1005.0585940305208,1,1
16.28,0.23638119,4.202913,8.212218,1005.0715,5.776696952703849,1005.0586003407724,1,1
16.3,-0.4710272,3.945518700000002,9.192241,1005.0566,5.772940623165125,1005.0585987152832,1,1
16.32,-0.5236038,4.1028147000000015,8.927114,1005.0439,5.769288361039853,1005.0585443636264,1,1
16.34,-0.18901505,4.674802,8.013373,1005.0406,5.764578249748174,1005.0584317387932,1,1
16.36,0.15513341,5.199123,7.956561,1005.0512,5.7594215202504015,1005.0583061892313,1,1
16.38,0.16469558,5.370719,8.278501499999999,1005.0559,5.754644308547739,1005.0581865913566,1,1
16.4,-0.7386823,4.765366,9.665682,1005.0537,5.752157650092359,1005.0580647629456,1,1
16.419999999999998,-0.39931375,5.189589,9.1496315,1005.05414,5.751131574715696,1005.0579429862157,1,1
16.44,-0.17466165,5.4326835,8.600439999999999,1005.0562,5.750667311599377,1005.0578291095462,1,1
16.46,-0.32761285,4.979861,9.324805,1005.05414,5.751537134001588,1005.057715207327,1,1
16.48,-0.1509485,5.060897,8.856081,1005.0464,5.752803088904767,1005.0575738285795,1,1
16.5,0.09281641,5.404089,7.591995699999999,1005.0538,5.7525816019218645,1005.0574353205353,1,1
16.52,-0.21309862,5.1323953,7.478368799999997,1005.06146,5.750533741365618,1005.0573274236735,1,1
16.54,-0.14618641,4.884535,8.680907000000001,1005.06396,5.7487276199612065,1005.0572559632816,1,1
16.56,-0.33260387,4.6748066,8.81347,1005.06366,5.747183651839138,1005.0572158754112,1,1
16.58,-0.89184856,4.322081,8.827672,1005.057,5.745642546737945,1005.0571796766172,1,1
16.599999999999998,-0.9014107,4.4126463,8.572014,1005.04663,5.7437225644433605,1005.0571097125273,1,1
16.62,-0.9014107,4.4126463,8.572014,1005.01917,5.741474718196953,1005.056911309292,1,1
16.64,-0.46167886,5.2563267,7.388412,1005.0464,5.737689846555171,1005.0566981594801,1,1
16.66,-0.3708651,5.2563267,7.5919919999999985,1005.06604,5.7328978948952924,1005.0565434509323,1,1
16.68,-1.1021827,4.417413,9.348453999999998,1005.0538,5.729637484197848,1005.0563968740358,1,1
16.7,-0.8106198,4.565176,9.395799,1005.0537,5.727907061274881,1005.0562576499437,1,1
16.72,-0.8106223000000001,4.932201,9.031248,1005.05414,5.727211817809701,1005.0561270079961,1,1
16.74,-0.56208014,5.833081,7.942335000000001,1005.0414,5.7264944273231375,1005.0559585555425,1,1
16.759999999999998,-0.56208014,5.833081,7.942335000000001,1005.0735,5.7257600503342365,1005.0558728601544,1,1
16.78,-0.77239907,5.1371636,9.428938,1005.101,5.726873697481271,1005.0559595974128,1,1
16.8,-1.0639721000000002,5.2372613,7.350533500000001,1005.10846,5.726129971621878,1005.0562252399036,1,1
16.82,0.23612942,5.9570117,10.31427,1005.02905,5.729620006328838,1005.0563621307452,1,1
16.84,0.37952095,5.7949486,9.944987,1005.0414,5.736013625720682,1005.056429223822,1,1
16.86,-0.9110336,4.9417353,7.672472,1005.0562,5.740076113205955,1005.0564876820587,1,1
16.88,-0.14149033,5.370725599999999,8.444179,1005.0562,5.743803605118064,1005.0565383001016,1,1
16.9,-0.055458948,5.3278265,8.2216625,1005.04596,5.7467825599934175,1005.0565449443236,1,1
16.919999999999998,-0.4952085,5.1085653,7.999144,1005.0587,5.748480363976838,1005.0565585733588,1,1
16.94,-0.39483768,4.855938,8.292677000000001,1005.0562,5.7492765004312565,1005.05656932511,1,1
16.96,-0.44263828,4.789206,8.316349,1005.06335,5.749250306187342,1005.0566032357872,1,1
16.98,-0.24218884,4.8654785,8.567244,1005.07104,5.7490139554105415,1005.0566851716126,1,1
17.0,-0.28521526,5.041841000000002,8.273710000000001,1005.0559,5.748255352540814,1005.05675474349,1,1
17.02,-0.5337898,4.9846435,8.742414,1005.06854,5.747837578916088,1005.0568586441244,1,1
17.04,-0.509899,4.9417443,8.870242,1005.07355,5.747907332316136,1005.0570105396063,1,1
17.06,-0.40475982,5.0990410000000015,8.799225,1005.0612,5.748430945708216,1005.0571598365112,1,1
17.08,-0.30917206,5.0895085,8.770817999999998,1005.0587,5.749285748337675,1005.0572972998452,0,0
17.099999999999998,-0.21837223,4.770149,8.9128475,1005.0587,5.7503598195869206,1005.0574238121677,0,0
17.12,0.039720684,4.822582,9.078551,1005.04846,5.751974209283447,1005.0575033287317,0,0
17.14,-0.103689946,4.7367845,8.325778999999999,1005.05896,5.7526041562605705,1005.0575788335844,0,0
17.16,-0.16584387,4.8702483,8.287902,1005.06146,5.752434498667058,1005.0576595218712,0,0
17.18,0.12091966,4.9512800000000015,8.619308,1005.05414,5.752237678457923,1005.0577181477628,0,0
17.2,0.37424105,5.032312,8.680855000000001,1005.06354,5.752225516605859,1005.0577909082688,0,0
17.22,0.388564,4.884549,9.177967,1005.0414,5.7531312325851935,1005.057796192182,0,0
17.24,0.3742081,4.689121,8.562492,1005.0562,5.753525884413508,1005.0577951147555,0,0
17.259999999999998,0.7661355,5.0418463,8.695053,1005.0838,5.7541132792242085,1005.0578877803287,0,0
17.28,0.6370643,4.684355,9.064336,1005.0529,5.755165751510009,1005.05795170362,0,0
17.3,0.95729464,4.960816,8.6193,1005.02094,5.756142852260357,1005.0578749441072,0,0
17.32,0.63225156,5.180077,8.368376,1005.05164,5.7567822669787025,1005.0577846736028,0,0
17.34,-0.099083185,4.9465175000000015,8.122185,1005.06647,5.756389836564107,1005.05773617776,0,0
17.36,-0.2950717,4.732022,8.998047999999997,1005.06854,5.75645956930583,1005.0577322205936,0,0
17.38,-0.24251032,4.798754,8.429917,1005.03644,5.755965466994867,1005.0576520720473,0,0
17.4,-0.13736287,4.674824,8.68084,1005.0512,5.7553021059818565,1005.057558025332,0,0
17.419999999999998,-0.18518563,4.746323,8.453586999999999,1005.04913,5.754150979844903,1005.0574445847632,0,0
17.44,-0.3190284,4.7844553,7.961207400000001,1005.0562,5.751735578419732,1005.0573398681717,0,0
17.46,-0.12785272,5.032317,7.724486,1005.0562,5.748058474265162,1005.057243237066,0,0
17.48,0.08763762,4.979875,8.856045,1005.0566,5.7452346394065845,1005.0571555381675,0,0
17.5,0.31706816,4.865478,9.277407,1005.06647,5.7438402429227615,1005.0571115794836,0,0
17.52,0.44134313,5.0561404,8.373135000000001,1005.04663,5.742281076482708,1005.0570350039039,0,0
17.54,0.36486626,5.046607,8.590919,1005.0768,5.740953895347264,1005.057038495708,0,0
17.56,0.28360957,4.751081,9.007545,1005.06116,5.7402884846368885,1005.0570564184816,0,0
17.58,0.4891411,5.0037084,8.780294,1005.07184,5.740064945962657,1005.0571254759376,0,0
17.599999999999994,0.6994524999999999,4.7749133000000015,9.4573145,1005.03894,5.741271108070365,1005.0571210273924,0,0
17.62,0.4365633,4.4746203,9.263204,1005.05164,5.743069357052757,1005.0570973649593,0,0
17.64,0.23581152,5.146705,7.795538,1005.045,5.743404852821188,1005.0570329063193,0,0
17.66,0.16411446,5.122872,8.160088,1005.05164,5.743053659956857,1005.0569565362024,0,0
17.68,0.06373857,4.803513,9.01228,1005.04736,5.743295025589537,1005.0568545080368,0,0
17.7,0.05895877,4.608084,8.780294,1005.06647,5.7434429164719605,1005.0567989717207,0,0
17.72,0.14499526,4.608084,8.770825,1005.045,5.743492096714327,1005.0567074235337,0,0
17.74,0.6755535,4.851178,8.983874,1005.0447,5.7441264504448215,1005.0565833048307,0,0
17.759999999999994,0.40310472,5.051374,8.202697,1005.0401,5.744048086191357,1005.0564142936473,0,0
17.78,0.03505975,4.7844467,8.325791,1005.03156,5.743259011028446,1005.0561754799088,0,0
17.8,0.0016011298,4.865478,8.316322,1005.06476,5.741912116547183,1005.0559953683617,0,0
17.82,-0.1752516,4.698649,8.671403,1005.06726,5.740553345640856,1005.0558767744724,0,0
17.84,-0.1752516,4.698649,8.671403,1005.04987,5.739188972300607,1005.055750360524,0,0
17.86,-0.089215145,4.803513,8.396808,1005.0573,5.7374295570409215,1005.0556442398613,0,0
17.88,-0.17047179999999998,4.803513,8.382605,1005.0401,5.735304068777458,1005.0554945123796,0,0
17.9,-0.34732455,4.898844,8.448886,1005.063,5.7330907828183175,1005.0553892329327,0,0
17.919999999999995,-0.05097671,4.9608089999999985,9.069093,1005.0579,5.731981761692874,1005.0553052467752,0,0
17.94,0.101977006,4.94651,9.050156,1005.0681,5.73180445538769,1005.0552770977174,0,0
17.96,0.25939858,4.827353,8.742391,1005.04816,5.731777108776843,1005.0552266036584,0,0
17.98,0.30241048,4.8035207,8.870218,1005.0684,5.732094125235458,1005.0552294113347,0,0
18.0,0.18290268,4.736789,8.841811,1005.0585,5.73259057060919,1005.0552436663164,0,0
18.02,0.14465160000000002,4.9512839999999985,8.732919,1005.068,5.733259487401893,1005.05530218482,0,0
18.04,0.13029952,4.932218,8.846544,1005.0278,5.73426440644548,1005.055254883904,0,0
18.06,0.020345002,4.6366925000000005,8.770792,1005.0635,5.735129400022164,1005.0552427712328,0,0
18.08,0.26888216,4.922686,8.29735,1005.05365,5.735307476229957,1005.0552263344999,0,0
18.1,0.28799498,4.936986,8.619288000000001,1005.05804,5.735471899528009,1005.0552219401986,0,0
18.12,0.039432526,4.851188,8.671367,1005.02856,5.735621501039826,1005.0551220744092,0,0
18.14,0.039413497,4.9703526,8.780255,1005.0733,5.736076168559022,1005.0550992735301,0,0
18.16,0.039413497,4.9703526,8.780255,1005.0561,5.736798755599269,1005.0550827292882,0,0
18.18,0.08241907,4.956053,8.590878,1005.0313,5.737399532706704,1005.0549824929707,0,0
18.2,-0.02274935,4.8988547,8.590877,1005.05115,5.737830707305862,1005.0548801271859,0,0
18.22,0.08238737,5.0132527,8.505655,1005.0413,5.738077150705173,1005.0547407883206,0,0
18.24,-0.03234697,4.960821,8.434638,1005.061,5.737976387061348,1005.0546402016612,0,0
18.26,0.058462948,5.0418525,8.33995,1005.0864,5.737486672205043,1005.0546656585632,0,0
18.28,0.020205498,5.0227866,8.425167,1005.0617,5.7367861816613175,1005.0547134759108,0,0
18.3,0.11578892,5.1800833,8.240523,1005.05444,5.735746764800861,1005.0547547428056,0,0
18.32,0.09188351,5.079986,8.458306,1005.082,5.734687817007552,1005.05488928916,0,0
18.34,-0.10410109,4.9751225,8.543524,1005.06714,5.733657178384509,1005.0550522768781,0,0
18.36,-0.013303846,4.927457,8.429896000000001,1005.0649,5.732400227151363,1005.0552317446285,0,0
18.38,0.08706574,4.9989557,8.339943,1005.05005,5.730863429700514,1005.0553716680522,0,0
18.4,0.20654811,5.270649400000001,8.458302,1005.06177,5.729592949771501,1005.0555183383844,0,0
18.42,0.20653544,5.2944827000000005,8.212111,1005.0665,5.728156771477763,1005.0556874702721,0,0
18.44,0.115712866,5.089521,8.519847,1005.0698,5.7268949974781655,1005.0558877203148,0,0
18.46,0.14437266,5.070455,8.429892,1005.06964,5.725611930756184,1005.0561141694592,0,0
18.48,0.18323855,5.1467047,8.396809,1005.0649,5.724339488579871,1005.0563458889134,0,0
18.5,-0.09875083,4.855944,8.941265,1005.06,5.723756442561393,1005.0565637910228,0,0
18.52,-0.017481506,5.02754,8.4915,1005.0824,5.7231464784798805,1005.0568493396793,0,0
18.54,0.22152133,5.265867,8.311592999999998,1005.08484,5.722459981728831,1005.0572024168492,0,0
18.56,0.3266834,5.332599,8.197967,1005.0573,5.721590678462403,1005.0575147471358,0,0
18.58,0.1880881,5.118104,8.401548,1005.05023,5.720675917233257,1005.0577644970874,0,0
18.6,0.05426629,5.065671,8.340003,1005.0556,5.719554935248648,1005.0579773839552,0,0
18.62,0.059052423,5.1705356,8.354206,1005.08374,5.7183949230059925,1005.0582582362092,0,0
18.64,0.0017074496,5.2515664000000015,8.311598,1005.0476,5.717218444020243,1005.0584680276103,0,0
18.66,0.07819699,5.2468,8.600398,1005.0749,5.716537027802964,1005.0587125543933,0,0
18.68,-0.007826805,5.180067,8.425226,1005.0527,5.71591195083868,1005.0589069730628,0,0
18.7,-0.03649296,5.1324015,8.382617999999999,1005.0576,5.715211745722911,1005.0590740562959,0,0
18.72,0.23596855,5.3230629999999985,8.486775,1005.08026,5.714846082198968,1005.0592979604379,0,0
18.74,0.42717338,5.180066,8.392089,1005.06067,5.714466664090728,1005.0595007414807,0,0
18.76,0.11649881,4.9846373,8.619342,1005.05334,5.714255754733185,1005.0596577401407,0,0
18.78,0.18821488,5.218198,7.994402,1005.0681,5.713344436071545,1005.0598268562919,0,0
18.8,0.08785175,5.1848316,8.524656,1005.0754,5.712709983548572,1005.0600323506408,0,0
18.82,-0.1033341,4.994169,8.8039875,1005.0878,5.712622599255903,1005.0603138889846,0,0
18.84,-0.16545889,5.008469,8.406298,1005.0629,5.712321058498224,1005.0605719662656,0,0
18.86,0.054424822000000005,5.1895976,8.486784,1005.0657,5.712166549046545,1005.060818464272,0,0
18.88,0.030544743,5.1037993,8.472583,1005.06146,5.712024543138144,1005.0610385794392,0,0
18.9,0.0496767,4.9894013,8.57674,1005.0305,5.71195941791541,1005.061123134315,0,0
18.92,0.0496767,4.9894013,8.57674,1005.0783,5.711962458917331,1005.0612596837196,0,0
18.94,0.29345936,5.2420287000000005,8.448912,1005.0385,5.712077189321862,1005.0612984039122,0,0
18.96,0.30303800000000003,5.1323977,8.718775,1005.08417,5.71265280627849,1005.0614149548204,0,0
18.98,0.20652123,5.027556,8.552987,1005.0557,5.713221133647437,1005.0614973653653,0,0
19.0,0.15871115,5.018023,8.491439999999999,1005.05365,5.713658893930581,1005.0615419328076,0,0
19.02,0.02963236,4.927459,8.49617,1005.05334,5.713890530497882,1005.0615517856412,0,0
19.04,0.053495243,5.0704565000000015,8.439355,1005.0585,5.713988816322463,1005.0615495051773,0,0
19.06,0.12516819,4.9322267,9.031153,1005.06635,5.71489470042912,1005.0615647719403,0,0
19.08,0.072578356,4.9274607,8.903323,1005.05896,5.716272276683163,1005.0615688844732,0,0
19.1,0.26374644,5.113357,8.387271,1005.101,5.717335151669928,1005.0617144703232,0,0
19.12,0.23979916,5.0466266,8.392000000000001,1005.0758,5.718051443332423,1005.0618938178868,0,0
19.14,0.14417903,5.003728,8.638187,1005.08417,5.718850321825675,1005.0621324836496,0,0
19.16,0.14417903,5.003728,8.638187,1005.07385,5.719719298080013,1005.0623855517767,0,0
19.18,0.0963328,4.9608300000000005,8.756542999999999,1005.0654,5.720815012895369,1005.0626200147874,0,0
19.2,0.0963328,4.9608300000000005,8.756542999999999,1005.07184,5.722107129329912,1005.0628603782504,0,0
19.22,0.09152892,4.960831,8.467742,1005.05615,5.723047938726665,1005.0630486060446,0,0
19.24,0.12015958,4.956065,8.458269,1005.0916,5.723653593882518,1005.0633177091416,0,0
19.26,0.12015958,4.956065,8.458269,1005.0763,5.723960926392549,1005.0636022248856,0,0
19.28,0.105796024,4.960833,8.732861999999999,1005.061,5.724502494926273,1005.063844254987,0,0
19.3,0.09142052,4.9703665,8.358839999999999,1005.07135,5.724586648349185,1005.0640851334668,0,0
19.32,0.19655211,5.1085973,8.339902,1005.0565,5.7243843013463485,1005.064270667211,0,0
19.34,0.10093196,4.9417686,8.756527,1005.059,5.724497166300621,1005.0644156304254,0,0
19.36,0.081800684,4.9989676,8.770728,1005.05084,5.724972107046832,1005.0644948476524,0,0
19.38,0.124794826,4.998968,8.6192255,1005.0635,5.72549321535304,1005.0645612625424,0,0
19.4,0.06740102,4.9417706,8.486659,1005.06683,5.725754136635741,1005.0646281141941,0,0
19.42,0.06260919599999999,4.946537,8.472453999999999,1005.06635,5.725763636261259,1005.0646933831024,0,0
19.44,0.04825774,4.951304,8.391967999999999,1005.05896,5.725411520065155,1005.0647304145303,0,0
19.46,0.124686405,4.9751377,8.576607000000001,1005.07135,5.725098788665727,1005.064786966008,0,0
19.48,0.124686405,4.9751377,8.576607000000001,1005.05414,5.724821983505683,1005.064798605816,0,0
19.5,0.12943007,5.0418706,8.63815,1005.09357,5.7247583480727195,1005.0649124677693,0,0
19.52,0.03382191,4.9846725,8.557664,1005.0899,5.724677280299956,1005.0651030313072,0,0
19.54,0.16760828,4.941774400000001,8.576597,1005.0861,5.72457328477373,1005.065347002337,0,0
19.56,0.2488529,5.032339,8.481908,1005.0573,5.72437809639205,1005.0655336059302,0,0
19.58,0.291835,4.9894414000000005,8.600265,1005.0639,5.724272468728551,1005.0656926078841,0,0
19.6,0.33006144,5.0704727,8.491372,1005.08167,5.7241392825552415,1005.0658906206218,0,0
19.62,0.27745944,5.118139299999998,8.44876,1005.04834,5.723954044417554,1005.0660024024428,0,0
19.64,0.07189171,4.894112000000002,8.775431,1005.06647,5.72406885944803,1005.0661028562108,0,0
19.66,0.07189171,4.894112000000002,8.775431,1005.06146,5.724448388123784,1005.066174902878,0,0
19.68,0.21523766,4.9942107,8.444019,1005.04913,5.72457112873181,1005.0661772016628,0,0
19.7,0.13396896,4.9608455000000005,8.500831,1005.0763,5.724530200395646,1005.0662156749432,0,0
19.72,0.2677794000000001,5.0514107,8.571843,1005.0763,5.724572935438702,1005.0662859735036,0,0
19.74,0.15781982,4.9560795,8.515029,1005.0557,5.724482547808115,1005.0663099798073,0,0
19.76,0.21515335,5.013279,8.548167999999999,1005.0733,5.7243965312267004,1005.0663563558496,0,0
19.78,0.15299182,4.9799137,8.496086,1005.04706,5.7241838438586905,1005.0663278668401,0,0
19.8,0.14342017,4.937015,8.491352000000001,1005.0738,5.7238062523609505,1005.06632959363,0,0
19.82,0.26765895,4.9703813,8.496082000000001,1005.0758,5.723333128044164,1005.0663652128846,0,0
19.84,0.3011055,4.9989815,8.548160000000001,1005.0763,5.722902690113528,1005.0664324512919,0,0
19.86,0.14811568,4.9084177,8.675985,1005.05365,5.722640735163169,1005.066445846324,0,0
19.88,0.109853104,4.9131846,8.519749000000001,1005.05365,5.722250522229299,1005.0664116171272,0,0
19.9,0.20065735,5.0466485,8.425058,1005.0869,5.7217222654263304,1005.0664551303876,0,0
19.92,0.3113519,5.0704627,8.766005499999999,1005.06885,5.721715439469903,1005.0665022002347,0,0
19.94,-0.0041225255,4.956065,8.666582,1005.0866,5.721861752476755,1005.066616143231,0,0
19.96,0.00064997375,4.898867,8.68552,1005.06885,5.722118367027018,1005.0667248651467,0,0
19.98,-0.047155432,4.7844696,8.5198145,1005.06885,5.722054996700172,1005.0668285823172,0,0
20.0,0.0054114014,4.894101,8.467734,1005.0681,5.721727630155063,1005.0669248039123,0,0
20.02,0.057985544000000014,4.8988676,8.614500999999999,1005.071,5.721438095626186,1005.06702449602,0,0
20.04,0.12011562,4.994199299999999,8.576626,1005.07294,5.721214789152585,1005.0671338797806,0,0
20.06,0.05319108,4.8750353,8.73286,1005.0738,5.7212090001010525,1005.0672545293044,0,0
20.08,0.053180084,4.9608335,8.534013999999999,1005.08417,5.721124594609523,1005.0674220309178,0,0
20.1,-0.018524364,4.946534,8.600294,1005.0733,5.7210751473547425,1005.0675911960319,0,0
20.12,0.014930576,4.9513006,8.55295,1005.078,5.720976475044812,1005.0677781420212,0,0
20.14,-0.018539056,4.85597,8.529278,1005.07385,5.720693353393152,1005.0679651861864,0,0
20.16,0.014912203,4.865503,8.614495,1005.0557,5.720412104675673,1005.0680863037402,0,0
20.18,0.0149048865,4.9036355,8.661839500000001,1005.04285,5.720258192576067,1005.0681024725174,0,0
20.2,-0.04245644,4.846437,8.65237,1005.0606,5.720142031486039,1005.0680897503478,0,0
20.22,0.019673705,4.9227023,8.6523695,1005.0531,5.720137422381091,1005.0680245459372,0,0
20.24,0.21085481,4.9131694,8.742322,1005.08374,5.720388956958067,1005.0680235069552,0,0
20.26,0.15349354,4.875037,8.799135,1005.0763,5.720928237681264,1005.0680523842852,0,0
20.28,0.13915043,4.8941035,8.647634,1005.0685,5.721464035000964,1005.0680795117108,0,0
20.3,0.09133768,4.8035393,8.538739999999999,1005.04285,5.721704065563659,1005.0680126552617,0,0
20.32,0.09133768,4.8035393,8.538739999999999,1005.0758,5.72168189250984,1005.0679816153444,0,0
20.34,0.019633263,4.832139,8.66657,1005.0635,5.721688128772002,1005.0679380546582,0,0
20.36,0.07220009,4.8130727,8.784928,1005.09607,5.721916081456307,1005.0680008394393,0,0
20.38,0.057856977,4.8369055,8.666568,1005.0576,5.722147618565952,1005.0680188730496,0,0
20.4,0.15822189,4.8273726,8.685505000000001,1005.0531,5.72240850219149,1005.0679810996048,0,0
20.42,0.10564034,4.846439,8.524534,1005.05023,5.722420708929079,1005.0678838190303,0,0
20.44,0.0819547,4.8035355000000015,8.652383,1005.0506,5.72240065662981,1005.0677356401663,0,0
20.46,0.07717614,4.855967,8.5718975,1005.0629,5.7222594933513165,1005.0675873010176,0,0
20.48,0.034159794,4.732036,8.8038845,1005.0606,5.722309020289612,1005.0674310742619,0,0
20.5,0.034159794,4.732036,8.8038845,1005.04987,5.722526862806489,1005.0672298124333,0,0
20.52,0.17277534,4.8702664,8.500882,1005.07294,5.722484448072131,1005.0670725341566,0,0
20.54,0.12497921,4.8654995,8.685525,1005.0556,5.722539717582383,1005.0668922619487,0,0
20.56,0.05806321,4.8130674,8.623977,1005.0731,5.72251498496466,1005.0667553212824,0,0
20.58,0.048504934000000006,4.8512,8.623977,1005.0575,5.722458285614975,1005.0666010013533,0,0
20.6,0.14888142,4.8273673,8.732868,1005.0649,5.722549150450393,1005.0664585206587,0,0
20.62,0.12020381,4.8178344000000015,8.595571000000001,1005.0654,5.722510312700035,1005.066328814043,0,0
20.64,0.15844356,4.8607335,8.586102499999999,1005.0624,5.722384744486574,1005.0662000615467,0,0
20.66,0.18234448,4.875033,8.676055999999999,1005.0523,5.722361271089063,1005.0660362556197,0,0
20.68,0.12498744,4.803535,8.642914999999999,1005.0531,5.7222936387428085,1005.0658449461818,0,0
20.7,0.0007144809,4.7701683,8.505618,1005.03705,5.721902617452084,1005.0655722433563,0,0
20.72,0.0007150769,4.722502,8.586102499999999,1005.03015,5.721325395566857,1005.065203763064,0,0
20.74,0.23970719,4.8702664,8.775478999999999,1005.09283,5.721084722764728,1005.0649776283304,0,0
20.76,0.28272605,4.9226980000000005,8.633447,1005.0598,5.720940838363344,1005.0647591762178,0,0
20.78,0.18713124,4.746335500000002,8.79915,1005.0606,5.721001652670207,1005.0645511788967,0,0
20.8,0.20147131,4.7272690000000015,8.837026,1005.0525,5.7212942869614505,1005.0643240082196,0,0
20.82,0.27795064,4.813067,8.581369,1005.06506,5.72141429153052,1005.0641259297802,0,0
20.84,0.27795064,4.813067,8.581369,1005.0698,5.72138132846063,1005.0639713343236,0,0
20.86,0.13933833,4.813067,8.5719,1005.0748,5.7211900525942285,1005.0638737169743,0,0
20.88,0.048523307,4.708203,8.818089500000003,1005.04694,5.721201907096923,1005.0637265009036,0,0
20.9,0.019845083,4.708203,8.671323,1005.0795,5.721124410712178,1005.0636532053804,0,0
20.92,0.09154342,4.765402,8.657119,1005.07965,5.7210002081028035,1005.0636460299166,0,0
20.94,0.09194815,4.7558584,8.576673,1005.0754,5.72067925207326,1005.0636820039692,0,0
20.96,0.14453422,4.7796917,8.676095,1005.0419,5.720391717027272,1005.0636353754276,0,0
20.98,0.05373442,4.7796910000000015,8.666628,1005.0624,5.720115626470051,1005.063589727097,0,0
21.0,0.1063288,4.774924,8.6050825,1005.05927,5.719734802725491,1005.0635338412144,0,0
21.02,0.010749176,4.8130555,8.586145,1005.0548,5.719265854403628,1005.06345301862,0,0
21.04,0.07290310000000001,4.813055,8.510397,1005.0649,5.718584091585318,1005.0633868129088,0,0
21.06,0.111158,4.8273544,8.803932000000003,1005.0345,5.718264945594411,1005.0632243210156,0,0
21.08,0.05381684,4.7510895999999985,8.827605,1005.0548,5.71823394532653,1005.0630504156234,0,0
21.1,0.08728373,4.832121,8.704512,1005.0766,5.718314444986205,1005.0629455313223,0,0
21.12,0.13987805,4.8273535,8.52934,1005.0668,5.718172011260878,1005.0628667316412,0,0
21.14,0.11122395,4.827353,8.619296,1005.0845,5.717995255738356,1005.0628749840092,0,0
21.16,0.0921212,4.8082867,8.661906,1005.0772,5.7178464513777,1005.0629338458588,0,0
21.18,0.11602844,4.851185,8.723455,1005.0649,5.717878522015607,1005.0629929343444,0,0
21.2,0.096933946,4.827351599999999,8.59563,1005.0692,5.717813800545219,1005.0630674903664,0,0
21.22,0.120849445,4.8178186,8.581427,1005.0896,5.7176288970867,1005.0632288851019,0,0
21.24,0.07305968,4.74632,8.571959,1005.0562,5.717247933844295,1005.0633461895044,0,0
21.26,0.116094396,4.860717,8.524616,1005.0665,5.7167266588297485,1005.0634611933916,0,0
21.28,0.14478974,4.8750157,8.841823,1005.0668,5.7166736256715405,1005.0635748305303,0,0
21.3,0.2499701,4.860716,8.500948,1005.0665,5.716406659473301,1005.0636857709164,0,0
21.32,0.25475818,4.9512800000000015,8.330509,1005.05115,5.715740714267494,1005.063738669066,0,0
21.34,0.240427,4.960813,8.344713,1005.06866,5.714759358728695,1005.0638031266625,0,0
21.36,0.07793017,4.7034183,8.818156,1005.04614,5.714092075903888,1005.0637964941386,0,0
21.38,0.14009229999999998,4.803516,8.590907000000001,1005.0709,5.713391336537763,1005.0638162062615,0,0
21.4,0.18311878,4.8940806,8.628782000000001,1005.0561,5.712825957342233,1005.0638058455513,0,0
21.42,0.116320714,4.736781,8.766091000000001,1005.0632,5.712471426707027,1005.0637945097833,0,0
21.44,0.18325822,4.9083767,8.54831,1005.0557,5.712084756945416,1005.0637553532636,0,0
21.46,0.08291282,4.779679,8.690344999999999,1005.0532,5.711794560345356,1005.063682755291,0,0
21.48,0.1163816,4.865476,8.600392,1005.05084,5.711514951474085,1005.0635723738034,0,0
21.5,0.09250285,4.7463117,8.775568,1005.0656,5.711443875330684,1005.0634821401753,0,0
21.52,0.13553126,4.7177124,8.79924,1005.0459,5.711573471573068,1005.0633391140367,0,0
21.54,0.2024789,4.8225756,8.439428,1005.0607,5.711333639002197,1005.0632032353301,0,0
21.56,0.18338002,4.865474,8.576728,1005.03815,5.711059513691891,1005.0629929812578,0,0
21.58,0.07824463,4.6891110000000005,8.728231,1005.05066,5.710851653593641,1005.0627628020272,0,0
21.6,0.035246655,4.793975,8.789781,1005.05115,5.7109188416069605,1005.0625176095717,0,0
21.62,0.011357814,4.789208,8.496247,1005.05054,5.710690327674231,1005.0622578381233,0,0
21.64,0.135653,4.822573,8.737703999999999,1005.06537,5.7106753299590896,1005.0620395078544,0,0
21.66,0.06876618,4.6891093,8.732972,1005.06287,5.7107063511513685,1005.0618495810004,0,0
21.68,0.14525317,4.7796736,8.562535,1005.04987,5.710559335423489,1005.0616386351406,0,0
21.7,0.2552089,4.813039,8.666694,1005.0554,5.710483010191456,1005.0614297842925,0,0
21.72,0.06882702,4.8225713,8.619352000000001,1005.0426,5.710386792633332,1005.0611774564596,0,0
21.74,0.04972814,4.7129400000000015,9.002841,1005.061,5.710865618691411,1005.0609538607432,0,0
21.76,-0.026738621,4.6557407,8.837138000000003,1005.0579,5.711490457891547,1005.0607452976697,0,0
21.78,0.19316281,4.8654685,8.5009985,1005.06537,5.711843443335441,1005.060577660266,0,0
21.8,0.17405368,4.79397,8.671438,1005.0624,5.712190062226099,1005.0604360962793,0,0
21.82,0.030700192,4.760603,8.652503999999999,1005.03925,5.712458776730831,1005.060234740394,0,0
21.84,0.030700192,4.760603,8.652503999999999,1005.04987,5.712657687547936,1005.0600195092684,0,0
21.86,-0.045746267,4.798735,8.737726,1005.057,5.712987725969242,1005.0598184608124,0,0
21.88,0.01640135,4.6986375,8.851353,1005.04425,5.713541209567782,1005.0595847679376,0,0
21.9,0.07854897,4.6319046,8.95551,1005.04254,5.714418123920629,1005.0593169157492,0,0
21.92,0.092577234,4.684345,8.780308999999999,1005.0472,5.715306235906794,1005.0590366206586,0,0
21.94,0.040005773,4.7177105,8.643011,1005.03186,5.715982117963701,1005.0586911160823,0,0
21.96,0.18818603,4.8368745,8.818186,1005.05975,5.716909825309769,1005.0583896402203,0,0
21.98,0.025679037,4.7367764,8.676153,1005.0573,5.717694271019707,1005.0581193334443,0,0
22.0,-0.046014875,4.6700444,8.718763000000001,1005.04913,5.718361384896017,1005.0578481287764,0,0
22.02,0.044810906,4.751076,8.553061,1005.05414,5.718700718817277,1005.0575951430684,0,0
22.04,-0.045998998,4.803508,8.879735,1005.05237,5.719396990981289,1005.0573527943816,0,0
22.06,-0.08901088,4.698643700000001,8.728235,1005.06396,5.720026139276038,1005.0571624410223,0,0
22.08,0.020930931,4.708176,8.732969,1005.04663,5.720610986330023,1005.0569563280064,0,0
22.1,0.020930931,4.708176,8.732969,1005.0464,5.721154583358271,1005.0567362037648,0,0
22.12,0.08785771,4.7701410000000015,8.543593,1005.05975,5.721377415925999,1005.0565525516513,0,0
22.14,0.09264064,4.7606077,8.482047,1005.05164,5.721194815468775,1005.0563725914577,0,0
22.16,0.06874798,4.7558417,8.7945175,1005.0512,5.7212182749986615,1005.0561949573012,0,0
22.18,-0.07463661,4.732008,8.780315,1005.05896,5.721374305291913,1005.0560479539143,0,0
22.2,0.063987195,4.8464055,8.865536,1005.0512,5.721915857268088,1005.0559006090876,0,0
22.22,0.063987195,4.8464055,8.865536,1005.04877,5.722796106616185,1005.0557447450062,0,0
22.24,-0.026822768,4.7701406,8.68563,1005.069,5.72356801691875,1005.0556547424216,0,0
22.26,0.06400308,4.817806,8.491521,1005.0587,5.723937790473363,1005.0555861790656,0,0
22.28,0.15482254,4.808273000000002,8.718771,1005.05835,5.724355521140258,1005.0555355462393,0,0
22.3,-0.031580336,4.827338,8.614614999999999,1005.02875,5.7246417665769584,1005.0553943791074,0,0
22.32,-0.0363506,4.7701397000000005,8.685633000000001,1005.0562,5.724882238336416,1005.0552725440648,0,0
22.34,0.078367844,4.855938,8.70457,1005.03564,5.725202698907999,1005.0550942134627,0,0
22.36,-0.0267815,4.7129407,8.8702755,1005.06604,5.725752470887658,1005.0549760453742,0,0
22.38,0.03536226,4.7796726,8.453649,1005.02905,5.725810243457575,1005.0547782982878,0,0
22.4,0.011466458,4.6938744,8.643024,1005.05835,5.725690801716713,1005.0546164270883,0,0
22.42,0.0061002523,4.7463207,8.695049000000001,1005.0735,5.725562287270424,1005.0545413785593,0,0
22.44,-0.022596285,4.698656,8.799205,1005.06085,5.725569695726768,1005.0544977767157,0,0
22.46,0.08732143,4.7701544999999985,8.666639,1005.04114,5.7255265294184765,1005.0544111621307,0,0
22.48,0.0777441,4.7939878,8.766061,1005.05835,5.725643655061481,1005.0543488092999,0,0
22.5,0.106405154,4.7987547,8.4488535,1005.0402,5.7253314925909855,1005.0542427786247,0,0
22.52,0.0012317151,4.73679,8.784995,1005.0554,5.7251888580726655,1005.0541532559176,0,0
22.54,0.06334253,4.6795917000000005,8.837069999999997,1005.07104,5.725236381569662,1005.054134945932,0,0
22.56,0.10635193,4.755857,8.780257,1005.0529,5.725423262911876,1005.0541143214232,0,0
22.58,0.18281098,4.8178225,8.576675999999999,1005.0406,5.725426663712125,1005.0540474460504,0,0
22.6,0.1302243,4.784456700000002,8.500925,1005.0529,5.725094977291169,1005.0539842241652,0,0
22.62,0.03460157,4.603328,8.704502,1005.03705,5.724657821736435,1005.0538673981005,0,0
22.64,0.14451043,4.8321239999999985,8.66189,1005.06537,5.724280303198656,1005.0538055799562,0,0
22.66,0.11104293,4.751093,8.837062,1005.0504,5.7241943603641605,1005.0537386973564,0,0
22.68,0.15883212,4.717727,8.84653,1005.0579,5.724352312939375,1005.0536945805806,0,0
22.7,0.082337484,4.793992,8.453573,1005.035,5.724084033095733,1005.0535882985074,0,0
22.72,0.087090656,4.7320275,8.652415,1005.0481,5.723738578019183,1005.053474629793,0,0
22.74,0.1014034,4.7415614,8.728164,1005.05505,5.723474174138134,1005.0533798634495,0,0
22.76,0.11095415,4.8035274,8.661881,1005.05505,5.72322375639966,1005.0533021404,0,0
22.78,0.14916597,4.736796,8.874927,1005.05963,5.723310287394719,1005.0532562446083,0,0
22.8,0.110918656,4.8225940000000005,8.529314,1005.06287,5.723149510388957,1005.0532503006058,0,0
22.82,0.039203867,4.679598,8.538781,1005.06287,5.722642274701629,1005.0532796794032,0,0
22.84,0.03440629,4.6652985000000005,8.837048,1005.0574,5.722362583998276,1005.0533204716626,0,0
22.86,0.12998457,4.631933,8.661873,1005.0554,5.721932556253043,1005.053364002005,0,0
22.88,0.21600334,4.698665,8.481963,1005.067,5.7211123200523435,1005.0534515550083,0,0
22.9,0.18252693,4.8607287,8.557711999999999,1005.04944,5.720250879419031,1005.053514475244,0,0
22.92,-0.022547051,4.6271559999999985,9.021727,1005.08514,5.719970663169981,1005.0536839234537,0,0
22.94,0.08260989,4.7939854,8.458332,1005.06213,5.719339593758464,1005.0538640537668,0,0
22.96,0.14474799,4.7844524,8.581427,1005.04504,5.718615585476919,1005.0539914503184,0,0
22.98,0.092171445,4.6080904,8.979116000000003,1005.035,5.7183666256400345,1005.0540356486896,0,0
23.0,0.27380586,4.6176224,8.780272,1005.0325,5.7181876748763525,1005.0539971740358,0,0
23.02,0.13997264,4.484159,8.415724,1005.06976,5.717266068110766,1005.0540199240048,0,0
23.04,0.22600977,4.612856400000001,8.434661,1005.04694,5.715856661679325,1005.0540145381513,0,0
23.06,0.26902926,4.6843543,8.84182,1005.06213,5.7148389179041725,1005.0540389948734,0,0
23.08,0.2642507,4.6033230000000005,8.893899000000003,1005.0667,5.714188399740845,1005.0541061844516,0,0
23.1,0.32160962,4.584257,8.927039,1005.0642,5.713911231319503,1005.0542018908988,0,0
23.12,0.35984933,4.6509886,8.68085,1005.0319,5.713579194918682,1005.0542061703084,0,0
23.14,0.24035548,4.6891212,8.477271,1005.074,5.712858673335584,1005.0542812093815,0,0
23.16,0.02526623,4.4793925,8.7566,1005.067,5.712099127220575,1005.0543933015532,0,0
23.18,0.08740434,4.6319222,8.614567999999998,1005.044,5.7111944107799335,1005.0544549303099,0,0
23.2,0.015707925,4.660522,8.785008,1005.0715,5.710504376293424,1005.0545707477304,0,0
23.22,0.044387996,4.655755,8.832353,1005.0715,5.71008905685814,1005.0547340293117,0,0
23.24,0.3263989,4.550891,8.931774,1005.07904,5.710011980806778,1005.0549658064107,0,0
23.26,0.3263989,4.550891,8.931774,1005.0637,5.710234054083233,1005.0552020477527,0,0
23.28,0.3072816,4.5699573,8.302097999999999,1005.0616,5.70958090244075,1005.0554338232306,0,0
23.3,0.5175942,4.8750160000000005,8.273692,1005.04926,5.708437950907568,1005.0556163942791,0,0
23.32,-0.13723697,4.3649945,8.993321,1005.0737,5.707657265796305,1005.0558428150383,0,0
23.34,-0.23283243,4.1886325,8.709257000000001,1005.074,5.706512274038137,1005.0561082462867,0,0
23.36,0.010938808,4.7892184,9.831312,1005.06586,5.707686720712384,1005.0563778876517,0,0
23.38,0.43156284,5.0704449999999985,8.401523,1005.0564,5.708592445113384,1005.0566162223656,0,0
23.4,0.25471205,4.5842566,8.969650999999997,1005.06335,5.709785326804571,1005.0568510565186,0,0
23.42,0.102295265,4.43648,8.567275,1005.06287,5.710337887806594,1005.0570802241726,0,0
23.44,0.102295265,4.43648,8.567275,1005.0885,5.710322672228062,1005.0573958279048,0,0
23.46,-0.06973204,3.9073913,9.509425,1005.0312,5.711121003561303,1005.0575803903819,0,0
23.48,-0.3373782,4.331614,6.446268,1005.0683,5.7074237942275605,1005.0577820603817,0,0
23.5,-0.16529387,4.5222760000000015,7.345806599999999,1005.06586,5.701542789346024,1005.0579893365756,0,0
23.52,-0.9300282,4.026553,9.239571,1005.0737,5.696858229244201,1005.0582290442093,0,0
23.54,-1.7855903999999998,3.7357929,9.982875,1005.05835,5.694673250264567,1005.058441285315,0,0
23.56,-1.7138703999999998,3.621395,9.788767,1005.0366,5.6942255511433295,1005.0585501929288,0,0
23.58,-1.2406583999999998,3.9788864,9.201701,1005.0559,5.694326507716876,1005.058636883002,0,0
23.6,-0.5427841999999999,4.403109,8.889233,1005.08606,5.6945652520391725,1005.058812205572,0,0
23.62,-0.56188065,4.288711,8.406325,1005.06586,5.6939252047941125,1005.0589924926544,0,0
23.64,-0.72435963,3.8406544,8.491548,1005.0737,5.692290604189558,1005.0592047413472,0,0
23.66,-0.5761744000000001,4.279177,8.742473,1005.05054,5.690620262878396,1005.0593610912233,0,0
23.68,-0.27978086,4.6700335,8.998135000000003,1005.05347,5.6897372280570435,1005.0594780340448,0,0
23.7,0.08350706,4.198144,9.902408,1005.0774,5.690829612453376,1005.0596458838,0,0
23.72,0.08350706,4.198144,9.902408,1005.03613,5.693663544686624,1005.0597095386617,0,0
23.74,2.06716,5.604277,7.9044919999999985,1005.0559,5.696263138532682,1005.0597520697582,0,0
23.76,1.5748628,4.9226594000000015,8.027588,1005.04,5.697897718187969,1005.0597185427845,0,0
23.78,1.359783,4.984625,7.8003383,1005.03754,5.698276352457093,1005.059609075596,0,0
23.8,1.1590542,5.2229514,7.279555999999999,1005.0653,5.69687409713745,1005.0595328377161,0,0
23.82,-0.24139409,4.8845253,9.130712,1005.10785,5.696654875453667,1005.05963941571,0,0
23.84,-0.59986794,4.541332700000001,9.097571,1005.06335,5.697123881039648,1005.0597469461284,0,0
23.86,-0.22702041,4.870225,8.965011,1005.05347,5.6982393453475355,1005.0598193630003,0,0
23.88,-0.44686854,5.1705174000000005,8.174367,1005.07764,5.6988363724315825,1005.0599475048413,0,0
23.9,-0.29866046,5.132384,8.501043,1005.05835,5.6994969841165215,1005.0600549799547,0,0
23.92,-0.25594490000000003,5.0990252,7.8997464000000015,1005.06256,5.699112374238973,1005.0601589630372,0,0
23.94,-0.38498944,4.9131293,8.174342999999999,1005.06824,5.698094629085005,1005.0602799342216,0,0
23.96,-0.5474926999999999,4.689101,8.733004,1005.0477,5.697315870361315,1005.0603415365973,0,0
23.98,-0.6717523,5.1228576,8.766146,1005.0799,5.697266744068718,1005.0604663789244,0,0
24.0,-0.48533487,4.9846272,10.2574835,1005.0799,5.700438425477778,1005.0606466506406,0,0
24.02,0.15994875,4.7796650000000005,8.879774000000003,1005.03503,5.7036820603882274,1005.0607137187868,0,0
24.04,0.6092605,5.2467875,7.4310455,1005.03015,5.7049642921482,1005.060662950813,0,0
24.06,0.47543615,5.856906,7.5210004,1005.05054,5.705396983314341,1005.0605816496086,0,0
24.08,-0.48529434,4.8416295,8.392132,1005.09247,5.7054025334481775,1005.0606246099256,0,0
24.1,-0.6191236999999999,4.6748,8.889244999999997,1005.0824,5.705782691917608,1005.060740961066,0,0
24.12,-0.36577892,4.6080675000000015,9.405296,1005.06226,5.707359782801437,1005.060849237474,0,0
24.14,-0.21759483,4.741531,7.890288000000001,1005.03784,5.707345143274625,1005.060862077253,0,0
24.16,-0.37053847,4.9846252999999985,7.028627,1005.0523,5.704711859827625,1005.0608425990036,0,0
24.18,-0.81505,4.9655585,7.852414599999999,1005.0669,5.701232659050652,1005.0608471946659,0,0
24.2,-0.542586,4.417404,10.451604,1005.1024,5.701244793351259,1005.0610008454927,0,0
24.22,0.14571081,4.7510633,10.716731,1005.06226,5.705098022291101,1005.0611411443193,0,0
24.24,0.14571081,4.7510633,10.716731,1005.0559,5.712331370829988,1005.0612462442427,0,0
24.26,1.5270944,5.7520394,9.62782,1005.0746,5.721683833749148,1005.0613871840559,0,0
24.28,0.8483724,5.203885,9.045489,1005.0523,5.7311111070428975,1005.0614790046125,0,0
24.3,0.09316845,4.8559265,8.666738,1005.05975,5.739458223360491,1005.0615539128394,0,0
24.32,-0.380022,4.917891,8.590988000000001,1005.0598,5.746761581790545,1005.0616137876624,0,0
24.34,-0.2652914,5.4851117,8.704614999999999,1005.06226,5.753918198556714,1005.0616690194206,0,0
24.36,-0.50905126,5.017988,8.26905,1005.06226,5.759659430323121,1005.0617199497324,0,0
24.38,-0.49948156,4.936957,9.244338,1005.0447,5.765804697171018,1005.0617036799364,0,0
24.4,-0.75758594,4.736761,8.860853,1005.04987,5.771420308196868,1005.0616467026973,0,0
24.42,-0.007141456,5.6042742999999975,7.8145504,1005.05054,5.775592460018041,1005.0615563734787,0,0
24.44,-0.007136345,5.561375,7.8571606,1005.05756,5.7784945419037,1005.0614621716368,0,0
24.46,-0.26045588,5.5184755,7.700926299999999,1005.06964,5.779955147572763,1005.0614083750714,0,0
24.48,-0.15051018,5.365946,8.250117999999999,1005.0444,5.7808957510213,1005.061299610276,0,0
24.5,-0.48508638,5.2610817,8.463167,1005.0872,5.781652339879727,1005.0612967471058,0,0
24.52,-0.62847024,5.3230457000000015,7.9944625,1005.02515,5.781512164553419,1005.0611640889192,0,0
24.54,-0.7479603,5.4231440000000015,7.544694,1005.0573,5.779949456594533,1005.061032961425,0,0
24.56,-0.8965359,5.3945545999999975,7.715096000000001,1005.0425,5.777416049809394,1005.0608503785104,0,0
24.58,-0.61453205,5.5661507000000015,7.213248700000001,1005.05206,5.7733590225470826,1005.0606574028841,0,0
24.6,-0.17001492,5.5661507000000015,7.743500999999997,1005.082,5.7688144254943365,1005.0605637229704,0,0
24.62,-0.10787896,5.5470843,7.9565496,1005.06226,5.764191994404775,1005.060487053996,0,0
24.64,-0.017067328,5.513718,8.5767565,1005.0771,5.760548889655037,1005.0604791158956,0,0
24.66,-0.012289003,5.5756836,8.501006,1005.05206,5.757722312743138,1005.060441792973,0,0
24.68,-0.17958525,5.451753,8.519943,1005.0548,5.755523670493924,1005.0603885039841,0,0
24.7,-0.093553364,5.5137186,8.3542385,1005.0567,5.753666775514697,1005.0603281392188,0,0
24.72,-0.14613271,5.4183879999999975,8.576756,1005.06464,5.752400858086463,1005.0602903236113,0,0
24.74,0.21234949,5.5804505,8.467864,1005.0517,5.751656585644506,1005.0602259845754,0,0
24.76,0.025934085,5.413621,8.9271,1005.0845,5.751992859825838,1005.0602565210588,0,0
24.78,0.26969945,5.5041857000000025,8.08911,1005.01685,5.751926533723655,1005.0601272396196,0,0
24.8,0.3127162,5.5232519999999985,8.245346000000001,1005.06226,5.751798533156411,1005.0600206844774,0,0
24.82,0.22667812,5.413621400000001,8.519942,1005.05023,5.751965041918018,1005.0598912858895,0,0
24.84,0.12151937,5.4898862999999976,7.236916499999999,1005.0644,5.750286694977714,1005.0597931806683,0,0
24.86,0.19321336,5.656716,7.4689026,1005.06476,5.747580446975424,1005.0597243754444,0,0
24.88,0.05459602,5.475587,8.482064999999999,1005.0344,5.7454821866654875,1005.0595724113967,0,0
24.9,0.064152524,5.6519494,7.6062,1005.08167,5.742640839848439,1005.0595176872833,0,0
24.92,0.054588348,5.5756845,8.690377999999999,1005.04645,5.7409176618973765,1005.0594222893823,0,0
24.94,0.15018134,5.6996155,7.9707484,1005.0616,5.7390967819596215,1005.0593458355554,0,0
24.96,0.059363544,5.6328835,8.150656,1005.0793,5.737420246704612,1005.059350115946,0,0
24.98,-0.06969577,5.427922,8.212202,1005.0795,5.73574484646546,1005.0594264376816,0,0
25.0,-0.093596354,5.442221599999999,8.358969,1005.0264,5.734348249708201,1005.0593749803917,0,0
25.02,-0.093599394,5.508953599999999,7.899731,1005.0542,5.7324889673391235,1005.0593108828004,0,0
25.04,0.14568661,5.6376433,8.624122999999999,1005.0564,5.731626346056749,1005.059243766991,0,0
25.06,0.16959007,5.6996083,8.392137,1005.0718,5.731318440626347,1005.0592296659006,0,0
25.08,0.03098461,5.504179,8.392138000000001,1005.074,5.73127343924626,1005.05927037938,0,0
25.1,-0.09327696,5.470813,7.8098073,1005.04675,5.730420891077228,1005.0592612804444,0,0
25.12,0.11704336,5.6042760000000005,7.8713546,1005.0517,5.7291229061956335,1005.0592260200154,0,0
25.14,0.1983044,5.6710080000000005,8.098607000000001,1005.0567,5.727904515264339,1005.0591857702284,0,0
25.16,0.07403837,5.6042760000000005,7.9234347,1005.04675,5.726379721707816,1005.0591054367436,0,0
25.18,0.04537286,5.6424084,8.117547,1005.0567,5.724965154789888,1005.0590257945044,0,0
25.2,-0.026315287000000003,5.5280104,8.150689,1005.0369,5.723575130843337,1005.0588757697614,0,0
25.22,-0.0024074167,5.628108,8.202767,1005.057,5.722418386077298,1005.0587364551274,0,0
25.24,0.20313303,5.6805400000000015,8.396879,1005.0592,5.721870946366303,1005.0586150254782,0,0
25.26,0.15533946,5.5995083,8.387411,1005.06903,5.721751839316631,1005.0585452241484,0,0
25.28,0.33220553,5.775871,8.183832,1005.0638,5.721879213327307,1005.0585024648866,0,0
25.3,0.28441185,5.747271,8.321131,1005.03937,5.722420738841048,1005.0583958059293,0,0
25.32,0.098012835,5.62334,7.9897227,1005.0444,5.7226066038088295,1005.0582511771734,0,0
25.34,0.098012835,5.62334,7.9897227,1005.0517,5.7224775380043145,1005.0580997989664,0,0
25.36,0.1744986,5.6614723,8.122288000000001,1005.0567,5.72234398766176,1005.0579610019066,0,0
25.38,0.12192963,5.6471725,8.240648,1005.06964,5.722390784392824,1005.0578804052176,0,0
25.4,0.06936066,5.7091379999999985,8.103351,1005.05853,5.722434870019064,1005.0578115285248,0,0
25.42,0.17452519,5.661472,8.392151,1005.04987,5.7229169932039055,1005.0577220795759,0,0
25.44,0.07416265,5.59474,8.373214,1005.07214,5.7236718806185305,1005.0576949469985,0,0
25.46,0.0024700463,5.589973400000001,8.302197999999999,1005.057,5.724536395995653,1005.057668470844,0,0
25.48,0.23669372,5.7425027,7.9944644,1005.06476,5.725156488670182,1005.0576706060184,0,0
25.5,0.04551047,5.5423074,8.259591,1005.05457,5.725768005966088,1005.0576613304773,0,0
25.52,0.026395723,5.5613737,8.127028,1005.0669,5.726163739536643,1005.0576863938188,0,0
25.54,0.22111075,5.7377663,7.9328027,1005.0845,5.726253308555645,1005.0578050687704,0,0
25.56,0.077653825,5.6281376,7.838108999999997,1005.04224,5.725774594477259,1005.0578538957097,0,0
25.58,0.16366942,5.6853365999999985,8.022749000000001,1005.06287,5.725179116402979,1005.0579150971686,0,0
25.6,0.04891227,5.623372,8.022745,1005.0795,5.724405830800245,1005.058046880428,0,0
25.62,-0.0036865175,5.5757074,8.065352,1005.06226,5.723494047323874,1005.0581784913464,0,0
25.64,0.12532632,5.685339,7.951722599999999,1005.0477,5.722402692120402,1005.0582570601853,0,0
25.66,0.015349045,5.6281414000000005,8.10322,1005.0771,5.721343862141503,1005.0583943181945,0,0
25.68,-0.05638989,5.4946795,8.477235,1005.06256,5.720808856341863,1005.0585305958258,0,0
25.7,0.17777862,5.7282410000000015,8.1316185,1005.05054,5.720418251341988,1005.058622244596,0,0
25.72,0.2159753,5.7568417,8.254709,1005.03754,5.7204017809188645,1005.0586273293686,0,0
25.74,-0.042175993,5.451782700000001,8.363597,1005.0481,5.7205444290057335,1005.0585939238879,0,0
