Timestamp,Ax,Ay,Az,P,LPFRMSAcc,LPFPValue,Value,Type
0.0,0.6385116999999999,6.345644,7.3513202999999985,1000.5027,0.020228114052326492,3.60180972,0,0
0.02,0.7477784000000001,6.1646485,8.131998,1000.55853,0.05929542645497132,10.3734129816,0,0
0.04,0.48485708,5.954921,7.597007,1000.53076,0.11368999992821655,19.921368072816,0,0
0.06,0.50872403,6.116985,7.828989999999999,1000.53076,0.1820209892246949,31.888135002352318,0,0
0.08,0.48001093,5.940623,7.791111999999999,1000.5029,0.2621312729768296,45.94898341528214,0,0
0.1,0.39393806,5.811927,7.928406699999999,1000.5133,0.3524216931054344,61.80958061265192,0,0
0.12,-0.08885633,5.692764,7.952075,1000.5335,0.451261209924355,79.20341040604228,0,0
0.14,0.054509982,5.7880949999999975,7.966276,1000.5386,0.5574382052231146,97.88940509402029,0,0
0.16,0.4033993,6.016891,7.8053026,1000.5309,0.669750302032033,117.64985938197916,0,0
0.18,0.05921699,5.606968,8.108300999999999,1000.516,0.7870682681001127,138.28851489704448,0,0
0.2,-0.12722744,5.6165023000000005,7.9047194,1000.50085,0.9080533204317986,159.62879531652686,0,0
0.22,-0.03644544,5.60697,8.188781,1000.5059,1.0323143935030423,181.512224672042,0,0
0.24,-0.16075458,5.459207,8.335543,1000.50867,1.1591079307953411,203.7968100537558,0,0
0.26,-0.13210782,5.4258419999999985,8.207711,1000.5034,1.2874217706302162,226.35561342084458,0,0
0.28,-0.08434406,5.525941,8.250319000000001,1000.4982,1.4168049066338608,249.07548538768918,0,0
0.30000000000000004,0.03511682,5.5736074,8.1935005,1000.50604,1.5466240239591469,271.8559142541974,0,0
0.32,0.0016260892,5.468744,7.847888,1000.50104,1.6756456201662653,294.60782365332886,0,0
0.34,-0.089353405,5.621277,8.288172,1000.5163,1.804432597036987,317.25268131324964,0,0
0.36000000000000004,-0.43831837,5.664178,7.5543356,1000.50366,1.931378724341693,339.7213810648277,0,0
0.38,-0.28062415,5.8119416,7.9046783,1000.5241,2.056996208260669,361.95361395348885,0,0
0.4,-0.24720486,5.6498795,8.482272,1000.50366,2.181775843225138,383.8967950996772,0,0
0.42,-0.19944617,5.7261453,7.999358999999999,1000.50397,2.3046280167029716,405.5055757900904,0,0
0.44,-0.07998548400000001,5.735679599999999,8.136652999999999,1000.50635,2.425575399792456,426.7410971952952,0,0
0.46,-0.123045474,5.516419,8.496464999999999,1000.514,2.544769198496417,447.5703863590312,0,0
0.48,-0.22824048,5.5926847,7.5874557,1000.5066,2.660524779485092,467.9657166332157,0,0
0.5,0.09196706,5.873913,7.9377975,1000.5066,2.7737537779170878,487.9041776436055,0,0
0.52,0.08237056400000001,5.8310146,7.923590700000001,1000.48645,2.8842657882173066,507.36709797286886,0,0
0.54,0.13968889999999998,5.7881165,7.999337,1000.5016,2.9920551798592614,526.3398185831038,0,0
0.56,0.0058175623,5.7547507000000016,7.999334299999999,1000.50635,3.0970081928497963,544.8111140274082,0,0
0.5800000000000001,0.0965945,5.931115,7.805220599999997,1000.5091,3.198971670818805,562.7728634314968,0,0
0.6,0.09656252,5.993081,8.217111000000001,1000.5193,3.298690125774712,580.2197523765961,0,0
0.62,-0.089886665,5.912050700000001,7.6773853,1000.494,3.39506705931678,597.1488107399302,0,0
0.64,-0.061256975,5.878686,7.8904295,1000.5169,3.4884551076640062,613.5594518311084,0,0
0.66,-0.23336679,5.7404566,8.127146,1000.5271,3.5791008108880984,629.4529778326813,0,0
0.68,-0.19038785,5.9358864,7.9898443,1000.5244,3.667002357368806,644.8323545274737,0,0
0.7000000000000001,0.13459946,6.202814599999999,8.122404,1000.53955,3.752714664118578,659.7021176786932,0,0
0.72,0.30185568,6.336279,8.236027,1000.52966,3.8365474532987935,674.0680195514676,0,0
0.74,0.08673264,5.9406557,8.226554,1000.522,3.9179020604586174,687.9369647758658,0,0
0.76,-0.41518852,5.5593324,7.762580000000002,1000.5119,3.995546390787149,701.3168345429508,0,0
0.78,-0.4534662999999999,5.668963400000001,7.099759,1000.52484,4.068676021945484,714.2164362887926,0,0
0.8,-0.37703124,5.6927977,7.5495234,1000.5347,4.138314280643998,726.6452701407785,0,0
0.8200000000000001,-0.38185036,5.8024297,7.701021000000001,1000.5273,4.205005564076008,738.6133630398866,0,0
0.84,-0.16688687,5.8310312999999985,8.08923,1000.5323,4.269524837866394,750.131278098595,0,0
0.86,-0.1860546,5.916831,7.970866,1000.5222,4.331800102765771,761.2099151633148,0,0
0.88,-0.057043016,5.702337,8.122361999999999,1000.52747,4.391859414579635,771.8605420711133,0,0
0.9,-0.06186597,5.9501987000000005,7.4879494000000015,1000.5124,4.448996396644662,782.0945826953878,0,0
0.92,-0.11926671,6.0550637,7.464272500000001,1000.5399,4.503444720955819,791.9237841332935,0,0
0.94,-0.34396059999999995,5.797672,8.226507000000002,1000.55786,4.556273149820393,801.3599491969471,0,0
0.96,0.05749981,6.0503,7.8382826,1000.535,4.6071305299891065,810.4147748300824,0,0
0.98,0.07657857,6.0789003,7.762529400000001,1000.53754,4.65597566117813,819.1000607141324,0,0
1.0,-0.07640748,6.0836678,7.5163364,1000.5199,4.7024727751598245,827.4274907427083,0,0
1.02,-0.06211926,5.950205,7.9045534,1000.5151,4.7471929662080585,835.4087233092839,0,0
1.04,-0.20555921,5.6832795,7.956628,1000.5353,4.789945334652007,843.0553960811967,0,0
1.06,-0.14346218,5.8548765,8.122328,1000.53253,4.8312904204137785,850.3789138245668,0,0
1.08,-0.114826456,5.807212,7.7909155,1000.52246,4.8706283204552445,857.3904908688402,0,0
1.1,-0.09097058,5.869178,8.112851,1000.525,4.9086660793811525,864.1012045780319,0,0
1.12,-0.11013022,5.940677,7.904534299999999,1000.53253,4.945158222081458,870.521943982993,0,0
1.14,-0.15797137,5.764316,8.122311999999999,1000.5632,4.980303943795354,876.6634578428778,0,0
1.16,-0.2058125,5.7166514,8.117574000000001,1000.5074,5.01407004217092,882.5359376812378,0,0
1.18,-0.24887115,5.764318,7.9944754,1000.50256,5.046346772420819,888.1495407067601,0,0
1.2,-0.23457758,5.750019,7.994471499999999,1000.50757,5.077173202939103,893.5142092455674,0,0
1.22,-0.18681726,5.75002,7.9613276,1000.5099,5.10654917583838,898.6396148531734,0,0
1.24,-0.15340176,5.831053,8.127027499999999,1000.54034,5.1349144329816605,903.5352658585826,0,0
1.26,-0.32552052,5.635625,8.150694999999999,1000.5403,5.162099471919031,908.2102812098714,0,0
1.28,-0.22518507,5.6594586,8.112816,1000.5529,5.188101613664384,912.6735582019144,0,0
1.3,-0.21088877,5.688059,8.108077,1000.5356,5.2129902830912105,916.9336131025568,0,0
1.32,-0.2348309,5.6785274,8.188559,1000.52795,5.236932441845816,920.9987372255953,0,0
1.34,-0.06270215,5.8072233,7.9045,1000.51526,5.2596215963717015,924.8769403827,0,0
1.36,-0.1487755,5.7166595,8.103341,1000.5431,5.28134924435331,928.57611886694,0,0
1.38,-0.08667736,5.811991,8.013384,1000.55304,5.302110763571166,932.1038298916933,0,0
1.4,-0.22055362,5.678529,8.122272,1000.55835,5.321971624346372,935.4673516255552,0,0
1.42,-0.15367326,5.7166624000000015,8.112799,1000.52783,5.3409919548889775,938.6735771517436,0,0
1.44,-0.22063228,5.664231299999999,8.074921,1000.533,5.359076695104696,941.7292919489372,0,0
1.46,-0.16809133,5.707131,7.92815,1000.5205,5.376070499664223,944.6409698927216,0,0
1.48,-0.11077052,5.659466,7.984959599999999,1000.5129,5.392075971821293,947.4148674722355,0,0
1.5,-0.18250692,5.616568,7.9234095,1000.5306,5.406996864478256,950.057100010594,0,0
1.52,-0.09172506,5.7166667,7.989686999999999,1000.528,5.421135932560697,952.5734719214496,0,0
1.54,-0.11566831,5.7738667,7.8334484,1000.566,5.434340920085561,954.9697112429643,0,0
1.56,-0.2638791,5.692836,7.966008,1000.53564,5.4468030311401625,957.2510656509801,0,0
1.58,-0.1731046,5.7023697,8.145912,1000.5459,5.458876339456941,959.422731809559,0,0
1.6,-0.07754785,5.802469,8.122235,1000.51807,5.470640081713006,961.4895592447654,0,0
1.62,-0.17795077,5.7786365,7.9328575,1000.5282,5.481742464770669,963.456347073232,0,0
1.64,-0.06805709,5.859669,7.857103299999999,1000.55585,5.492190825280703,965.3277590090016,0,0
1.66,-0.14457572,5.7023735,8.221649000000001,1000.55347,5.502449586157067,967.1081511550155,0,0
1.68,-0.1111564,5.7643394,7.9139089999999985,1000.5281,5.512056282324144,968.8016174710752,0,0
1.7,-0.17811053,5.664243,8.264251,1000.5255,5.521528864602296,970.4121702850496,0,0
1.72,-0.044320256,5.778641,8.145887,1000.5305,5.530779960703387,971.9436807384512,0,0
1.74,0.12772076,5.8882732,8.093805,1000.54083,5.5398485720209285,973.3998731124184,0,0
1.76,0.07988338,5.888274,7.719784,1000.513,5.548098833331497,974.7841719508513,0,0
1.78,0.118080005,5.816777,8.022782000000001,1000.513,5.556013761552519,976.0999621854672,0,0
1.8,0.036798805,5.778645,8.022780000000001,1000.5408,5.563556150700324,977.3505814529063,0,0
1.82,-0.015828207,5.7738795,7.8239307,1000.5483,5.570402293235722,978.5391404243852,0,0
1.84,0.0028674304,5.7691236,7.8380947,1000.5281,5.5766263941066265,979.668511386056,0,0
1.86,-0.01152654,5.812024,8.036934,1000.50793,5.582664890034027,980.7414454747984,0,0
1.88,-0.011577651,5.7548265,8.145822,1000.5484,5.588632637372067,981.7607950719023,0,0
1.9,0.107862905,5.897824,7.823876400000001,1000.54596,5.594152291747585,982.729118969644,0,0
1.92,0.060003564,5.854927,8.084264,1000.5383,5.599637579547327,983.6488430173981,0,0
1.94,0.08384465,5.8358626,7.942226400000001,1000.51044,5.604811264366346,984.5222129351308,0,0
1.96,0.064684495,5.8501629999999984,7.875940299999999,1000.53076,5.609597542454426,985.351553363873,0,0
1.98,-0.06442469,5.740533,8.107921000000001,1000.54346,5.61428082239525,986.1390494305997,0,0
2.0,0.011997625,5.840632,7.700758,1000.498,5.618296159718622,986.8865731772094,0,0
2.02,0.021502703,5.812034,8.04163,1000.51556,5.622240937552119,987.5961495122757,0,0
2.04,-0.050245494,5.8358690000000015,7.752826700000001,1000.54095,5.6256557109091405,988.2697324436957,0,0
2.06,-0.026407823,5.788204,8.155246,1000.5335,5.6292065049996625,988.9090598851017,0,0
2.08,-0.14117762,5.821572,7.937458,1000.5333,5.632540219622607,989.5158168767412,0,0
2.1,-0.10777692,5.893071,8.178906,1000.5486,5.636162518712407,990.0916653737978,0,0
2.12,-0.09825822,5.8454065,8.065277,1000.5434,5.6397771314816305,990.6381113504514,0,0
2.14,-0.04573147,5.902607,7.998991,1000.5309,5.643330124514701,991.1565650545607,0,0
2.16,-0.06968506,5.8740087,8.00372,1000.5359,5.646788854505128,991.6484363533154,0,0
2.18,-0.12710744,5.835878,7.643901,1000.55615,5.649506853988522,992.1151216020234,0,0
2.2,-0.11282257,5.9884086,7.9705687,1000.5182,5.652292804701985,992.557735770014,0,0
2.22,-0.036403626,5.883546400000001,8.358784,1000.54596,5.655651983339449,992.9775872560783,0,0
2.24,-0.031661317,5.955045,7.975295,1000.5334,5.658947426434808,993.3757689550432,0,0
2.26,0.0065191835,6.0170125999999975,7.814319599999997,1000.5283,5.6619858028239145,993.7533514160104,0,0
2.28,0.030356854,5.9169160000000005,7.937408400000002,1000.54095,5.664864470016033,994.1114186334233,0,0
2.3,-0.10352877,5.8120527000000015,7.8569183,1000.5335,5.667328443712375,994.450926319649,0,0
2.32,-0.012767032,6.002716,7.3929424,1000.5258,5.668896502934871,994.7727848564474,0,0
2.34,-0.18489109,5.869254,7.894784,1000.5258,5.670324414797945,995.0778899140793,0,0
2.36,-0.27576193,5.8978543,7.643855999999999,1000.5358,5.671248049398004,995.367129219312,0,0
2.38,-0.08462427,5.950288,8.074682000000001,1000.5386,5.672495957021859,995.6413183642262,0,0
2.4,-0.16115564,5.9026239999999985,7.6769867,1000.5182,5.67330792938745,995.9011486665613,0,0
2.42,0.029985368,6.036089,8.226172,1000.54596,5.674808420877807,996.1474560425045,0,0
2.44,-0.16125789999999998,6.002724,7.5065393,1000.5208,5.675684872604793,996.3808372781352,0,0
2.46,0.05855514,6.0408583,7.984709,1000.54846,5.6768375152968655,996.6020563797373,0,0
2.48,-0.15181075,5.969361,7.738515,1000.5132,5.677735300722087,996.8116056949457,0,0
2.5,-0.06582542,6.036094,7.790588400000002,1000.5283,5.67857313030467,997.0101435693621,0,0
2.52,0.07751422,6.188626,7.587003699999999,1000.49304,5.6792212138731895,997.1981100623468,0,0
2.54,-0.19020933,5.9455323,7.6627493000000015,1000.5182,5.679511156214027,997.3761495793233,0,0
2.56,-0.2093831,5.8168370000000005,7.558588,1000.5081,5.679149636174135,997.5447403180383,0,0
2.58,-0.24628383,5.8358703,7.724414,1000.51825,5.678513584515597,997.704411729622,0,0
2.6,-0.38491416,5.678574,7.691272,1000.51074,5.677396004484651,997.8556001706706,0,0
2.62,-0.35147277,5.607076,8.145773,1000.51575,5.676536826424725,997.9987668165668,0,0
2.64,-0.14117852,5.9502682999999985,7.946925999999999,1000.5182,5.675978557686718,998.1343388243413,0,0
2.66,-0.23679176,5.8168054000000025,8.46771,1000.5284,5.6764097336101145,998.2627488706427,0,0
2.68,-0.117313825,5.7834400000000015,7.852236,1000.54095,5.676626720085242,998.3844135116208,0,0
2.7,0.1837977,5.9598026,8.287798,1000.5359,5.6776033258591525,998.4996617397467,0,0
2.72,0.09774409,5.912138,7.951654400000002,1000.5335,5.678622714978903,998.6088168918559,0,0
2.74,-0.0026478767,5.8406395999999985,8.126826,1000.5335,5.679881467816099,998.7121952434493,0,0
2.76,-0.055243954000000005,5.9264383,7.7007284,1000.51825,5.680743266550559,998.8100421520404,0,0
2.78,-0.07915905,5.8883066,8.420356,1000.5182,5.6824107876236205,998.902649048724,0,0
2.8,-0.27036837,5.6928782,7.965852000000001,1000.5031,5.683785496916679,998.9902381260583,0,0
2.82,-0.16045001,5.945506,7.984788000000001,1000.5333,5.685232731024578,999.0731868575373,0,0
2.84,-0.012293264,5.983639,7.8522234,1000.5333,5.68656377440271,999.1517367639847,0,0
2.86,0.011588573,5.9884057,8.126816999999999,1000.5231,5.688250036842378,999.2260803689716,0,0
2.88,0.0020118058,5.8978410000000006,7.6675777,1000.51575,5.689368275797899,999.2964131890094,0,0
2.9,-0.15095802,5.7929773,7.927969,1000.5132,5.690285289054418,999.3629397013144,0,0
2.92,-0.21789242,5.8263440000000015,7.473464,1000.4956,5.690311716589924,999.4258001046626,0,0
2.94,-0.18923077,5.745313,8.131544,1000.5333,5.69054774784575,999.485330556684,0,0
2.96,-0.08887099,5.850178,7.8143387,1000.5081,5.690560239982482,999.5416136340863,0,0
2.98,-0.12712438,5.9502754,7.9232283,1000.5107,5.690681905888456,999.594834072196,0,0
3.0,-0.16060017,5.8501782,7.861679,1000.50287,5.690673608817098,999.6451285806501,0,0
3.02,-0.10325971,5.893078,8.202555,1000.5511,5.691173433891475,999.6928303054297,0,0
3.04,-0.17975588,6.098040599999999,7.2320004,1000.513,5.69079224185799,999.7379321603453,0,0
3.06,-0.09851529,5.9931765,8.169411,1000.5484,5.6910285321895016,999.7807018435716,0,0
3.08,-0.2660343,5.7357879999999986,8.145719,1000.5207,5.691463726584196,999.8211571290332,0,0
3.1,-0.060523346,6.040848,7.771698,1000.51575,5.691818357705071,999.8594039536027,0,0
3.12,-0.108351536,5.993183,7.8758526,1000.5383,5.692212576815343,999.8956428735594,0,0
3.14,-0.18962243,5.8168206,7.8853206999999985,1000.518,5.692438883396141,999.9299040688884,0,0
3.16,-0.23745061,5.6642923,7.70541,1000.50287,5.692029231440263,999.9622399384332,0,0
3.18,-0.10363988,5.7310243,7.8142996,1000.52325,5.6913186637844495,999.9928315489843,0,0
3.2,0.034945875,5.988419,7.5254974,1000.50793,5.690191569664211,1000.0217166504912,0,0
3.22,0.116178766,6.0170193,8.197780999999999,1000.5331,5.689848185013073,1000.0490805062407,0,0
3.24,0.06835379,5.969354,7.79062,1000.5256,5.689461135393423,1000.0749746793583,0,0
3.26,0.18304683,6.1743164,7.6343822,1000.5281,5.68904831430334,1000.0994860218796,0,0
3.28,0.07786898,5.993188,7.890038499999997,1000.53314,5.688797265953268,1000.1227053984528,0,0
3.3,0.120860234,5.8787913,8.207241,1000.5307,5.689080362594509,1000.1446908201582,0,0
3.32,0.18775053,6.0265546,7.4071235999999985,1000.5305,5.688701033855658,1000.1655060518243,0,0
3.34,0.20684598,5.912159,8.131485000000001,1000.5532,5.68878695192721,1000.1852940887384,0,0
3.36,-0.27594274,5.654765,7.658042999999997,1000.53564,5.688177577211361,1000.204040043436,0,0
3.38,-0.041757762,5.8978595999999985,7.781134599999999,1000.50793,5.687455452195334,1000.2216979728504,0,0
3.4,-0.0752417,5.969359,7.5728187999999985,1000.52057,5.686385038973662,1000.2383764585786,0,0
3.42,0.015553966,6.0265580000000005,7.819006,1000.53815,5.68548681440686,1000.2541927533173,0,0
3.44,-0.056163743,5.8883286,8.249835000000001,1000.55347,5.685292348021097,1000.2692454294363,0,0
3.46,-0.027516618,5.940761,7.516,1000.52057,5.684565908091877,1000.2834507425093,0,0
3.48,0.015474662,5.831131,8.496017,1000.53815,5.684877282468111,1000.2969194744676,0,0
3.5,-0.13749966,5.807299,8.046248,1000.5255,5.685313496983332,1000.3096433359177,0,0
3.52,-0.08972703,5.8168324999999985,7.525461,1000.52057,5.685001910918263,1000.3216454758856,0,0
3.54,-0.3430804,5.6404705,7.9988994999999985,1000.5609,5.684616244794926,1000.333111883048,0,0
3.56,-0.10411876,5.821601,7.809520699999997,1000.53326,5.684057503981888,1000.343964133638,0,0
3.58,-0.13233989999999998,5.8215895,7.8379699999999985,1000.5081,5.68339597786355,1000.3541440713782,0,0
3.6,-0.027188182,5.826356,7.9089839999999985,1000.518,5.6827687817495285,1000.3637289457083,0,0
3.62,0.22613148,6.069451,8.02261,1000.5483,5.682670903313046,1000.3728625964618,0,0
3.64,0.14487089,5.9550532999999986,7.9705305,1000.5383,5.68280858636354,1000.3815286649203,0,0
3.66,0.044488624,5.7786903,8.155172,1000.5584,5.683246562331598,1000.3898227398167,0,0
3.68,0.09706171,5.931221,7.757481599999997,1000.53577,5.683471329250962,1000.3976767945315,0,0
3.7,-0.16583620000000002,5.6738267,8.088889,1000.5584,5.683748368447616,1000.4051952408175,0,0
3.72,-0.20886078,5.6642942000000005,7.672261,1000.5205,5.683357987619384,1000.4122536370887,0,0
3.74,0.049243107,5.8644896,7.6817293000000015,1000.5255,5.682640359235897,1000.4188981229406,0,0
3.76,0.039675936,5.7882247000000016,8.387155,1000.54584,5.682729640149366,1000.4252261813966,0,0
3.78,0.2595414,5.997954,7.78115,1000.5381,5.6827777662628005,1000.4312239995952,0,0
3.8,0.14960031,6.059919,7.7432747000000015,1000.50543,5.682801426111637,1000.4367908133572,0,0
3.82,0.06355952,5.907389,7.610711,1000.54584,5.68238924550254,1000.442102227069,0,0
3.84,-0.08940217,5.7405596,8.084151,1000.54315,5.682177250794816,1000.4471591642073,0,0
3.86,-0.05117087,5.8501910000000015,8.036806,1000.54333,5.682195460259168,1000.4519736888716,0,0
3.88,0.0014018416,5.9550550000000015,7.781148,1000.54315,5.682121270650513,1000.456556037585,0,0
3.9,0.058753148,5.974121,7.9137106,1000.528,5.6822094003834085,1000.4608621991728,0,0
3.92,-0.28062004,5.702428,8.254586,1000.5356,5.682692132200898,1000.4649361796347,0,0
3.94,-0.2806252,5.7739267,7.814286999999997,1000.50037,5.682863800604572,1000.4686635105245,0,0
3.96,-0.17547429,5.8215923,8.249852,1000.5358,5.683546729672545,1000.4721986714604,0,0
3.98,0.010929748,6.017021,7.9042397,1000.5331,5.684336547467601,1000.4755415844464,0,0
4.0,-0.13247228,5.926457,8.055738999999999,1000.54315,5.685359104264936,1000.4787387726566,0,0
4.02,-0.26631117,5.78346,7.7243309999999985,1000.5307,5.685859179821888,1000.4817508685776,0,0
4.039999999999999,-0.4622891,5.588031299999999,8.103083,1000.5358,5.686312943733102,1000.4846069334067,0,0
4.06,-0.2950031,5.8740253,7.733799,1000.52045,5.6864377240556525,1000.4872595873288,0,0
4.079999999999999,-0.3273156,5.8263316,8.003764,1000.5433,5.686664430976593,1000.4898052178206,0,0
4.1,-0.24601965,5.750066,7.98483,1000.5154,5.6868506944375214,1000.4921466781387,0,0
4.119999999999999,-0.12169559,5.7500644,8.292572,1000.523,5.687518065207312,1000.4943266644348,0,0
4.14,-0.073860675,5.8024955,7.894885,1000.5483,5.687997748088745,1000.496447204334,0,0
4.159999999999998,0.117360964,5.8930597,7.819136599999997,1000.5129,5.688296834774281,1000.4983801434532,0,0
4.18,0.12695985,5.845392,7.8238745,1000.51794,5.68838393449432,1000.5001585039424,0,0
4.199999999999998,0.13177897,5.9216566,7.497205,1000.53827,5.687841694747454,1000.5018670646564,0,0
4.22,-0.09283249,5.75006,7.84282,1000.5129,5.687100016591188,1000.5034164674707,0,0
4.239999999999998,-0.15014102,5.688093,7.890167999999999,1000.561,5.686190133526844,1000.5049928205144,0,0
4.26,-0.09752628,5.845388400000001,8.055875,1000.55054,5.6856041546799885,1000.50654965591,0,0
4.2799999999999985,0.050677106,5.8596883,7.885439999999999,1000.54047,5.685037824233231,1000.5080473889044,0,0
4.3,0.0650558,5.8596873,8.145836,1000.53546,5.6849279701270925,1000.509469471178,0,0
4.3199999999999985,0.05553551,5.8549194,7.6913366,1000.528,5.684456454987129,1000.5107927329789,0,0
4.34,-0.040013865,5.859685,8.036952000000001,1000.54315,5.684248905109633,1000.5120784532672,0,0
4.3599999999999985,-0.0065208375,5.854917,7.842845,1000.53296,5.683944640485724,1000.5132896892824,0,0
4.38,-0.044722423,5.802484,7.913864,1000.53046,5.683610068626836,1000.514421750544,0,0
4.4,-0.02556391,5.8215494,8.197932000000002,1000.55054,5.683751765613732,1000.5155520655728,0,0
4.42,0.022268534,5.9073462,7.8002452999999985,1000.54565,5.683752654920047,1000.516659164496,0,0
4.44,-0.0828429,5.8310804,8.079578,1000.53284,5.684002409430274,1000.5176956481123,0,0
4.46,-0.1545056,5.7452817000000005,7.9044104000000015,1000.52045,5.684073515704162,1000.5186214007026,0,0
4.48,-0.04931304,5.8310785,7.8760059999999985,1000.51776,5.684042107988027,1000.5194362946487,0,0
4.5,-0.06839049999999999,5.8072453,8.070121,1000.52277,5.684217145423522,1000.520168336279,0,0
4.52,-0.13525617,5.792944,8.26897,1000.5179,5.68489515083721,1000.5208070022528,0,0
4.539999999999999,-0.034853235,5.8549089999999975,7.8618145,1000.53046,5.685402758815763,1000.5214060782993,0,0
4.56,0.08466889,5.950239,7.999114,1000.53546,5.686105820077201,1000.521986016012,0,0
4.579999999999999,-0.05444033400000002,5.7119230000000005,7.9896,1000.51526,5.686670760944562,1000.5224742353172,0,0
4.6,-0.03052798,5.6356583,8.08429,1000.50757,5.6871807702324455,1000.522851970648,0,0
4.619999999999999,-0.08308582,5.6976233,7.8191643,1000.54315,5.687267051622308,1000.5232588104924,0,0
4.64,0.017306685,5.711922,7.970667999999999,1000.5352,5.6872505448009,1000.5236612824608,0,0
4.659999999999998,-0.025693774,5.602291,7.596651,1000.5481,5.686380528673779,1000.5241048860753,0,0
4.68,-0.006561234599999999,5.707155,7.5209017,1000.495,5.684763908455255,1000.524392076639,0,0
4.699999999999998,-0.016096428,5.8167849999999985,8.098500999999999,1000.5557,5.683594660035382,1000.5247585467453,0,0
4.72,0.05083193,6.026513,7.970673599999999,1000.5076,5.682869907107854,1000.5250205889627,0,0
4.739999999999998,0.0030571818,5.873983,8.302083,1000.5328,5.682909067205943,1000.5252801353462,0,0
4.76,0.10822843,6.0455785,7.928066999999999,1000.51245,5.683208919787222,1000.5254632820433,0,0
4.7799999999999985,0.08434717,5.9502473,8.126913,1000.5353,5.683950029878401,1000.5256605226492,0,0
4.8,-0.16896467,5.8072504999999985,8.231072,1000.5024,5.685082904311112,1000.5257510665672,0,0
4.8199999999999985,0.065263465,5.8644485,7.724492999999999,1000.5074,5.685775878733541,1000.5257650073337,0,0
4.84,-0.06855106,5.831082,8.036964999999999,1000.5177,5.686557900117142,1000.5257482913682,0,0
4.8599999999999985,-0.025516182,5.7977157,7.767106,1000.51776,5.686922504712857,1000.5257047632924,0,0
4.88,0.1513521,5.8596807,8.079577,1000.55054,5.687518738098523,1000.5257557087367,0,0
4.9,0.041434377,5.7786484000000025,7.7244997,1000.5277,5.6876211763582445,1000.5258077235798,0,0
4.92,-0.030247152000000006,5.835847,7.8854704,1000.54285,5.687626228773558,1000.5259150360904,0,0
4.94,-0.09714995,5.8024807,7.866534,1000.5227,5.6874732527171545,1000.5259982832944,0,0
4.96,-0.049327508,5.8549120000000014,7.686629300000001,1000.5277,5.686946608707005,1000.5260779667044,0,0
4.98,0.0032647848,5.9121102999999975,7.9706945,1000.52783,5.686634826770509,1000.5261546822853,0,0
5.0,0.04629968,5.8739777,7.904414999999997,1000.5202,5.686356390945942,1000.5262010313164,0,0
5.02,0.070217535,5.8453774,7.7813215,1000.52527,5.685868186231416,1000.5262386336074,0,0
5.039999999999999,0.11325355,5.8882765999999975,7.857074000000001,1000.5402,5.685376671162661,1000.5263221199108,0,0
5.06,0.027232602,5.859677,7.885482,1000.5376,5.684894490694772,1000.5264364887767,0,0
5.079999999999999,0.06901814,5.9455050000000025,8.060542,1000.5376,5.6848212904493725,1000.5265777337472,0,0
5.1,0.01162082,5.9121404,8.046335000000001,1000.52,5.685044355981742,1000.5266788579614,0,0
5.119999999999999,0.07373647400000001,5.8978405,7.95638,1000.53253,5.685360870372608,1000.5267892754283,0,0
5.14,-0.01711151,5.7929773,8.145753,1000.53015,5.685948723556295,1000.5268989389107,0,0
5.159999999999998,0.0019859374,5.792978,7.9516399999999985,1000.5249,5.686446732767768,1000.5269886413839,0,0
5.18,0.10710396,5.807278599999999,7.890089,1000.525,5.6867791228457225,1000.5270607433803,0,0
5.199999999999998,0.11185007,5.8883114,8.084197,1000.53253,5.687389076297108,1000.5271441420276,0,0
5.22,-0.03157577,5.9312105000000015,7.7007074000000015,1000.5151,5.6876563650753305,1000.5271744741613,0,0
5.239999999999998,0.11178072,5.845413,7.96583,1000.52234,5.687954423284916,1000.5271838715275,0,0
5.26,0.05439134,5.8406477,8.164672,1000.5426,5.688606456027869,1000.5272476731027,0,0
5.2799999999999985,0.13561629,5.8692474,7.875870699999999,1000.5126,5.6891208036117185,1000.5272513165518,0,0
5.3,0.14515413,5.9264470000000005,7.7811804,1000.53754,5.6894262795263435,1000.5272915751635,0,0
5.3199999999999985,0.006508096999999999,5.792984,7.9752884,1000.54535,5.689702020321404,1000.5273921580023,0,0
5.34,0.0925069,5.897849,7.748033500000001,1000.5099,5.689702423358183,1000.52741806123,0,0
5.3599999999999985,0.039901316,5.8740172,8.060501,1000.53253,5.689950073551759,1000.5274593523012,0,0
5.38,-0.084401354,5.7357879999999986,8.074701,1000.5401,5.690272039718499,1000.5275413434238,0,0
5.4,0.015942842,5.8025203,8.245138,1000.525,5.6910271160413695,1000.5276046419432,0,0
5.42,0.092378065,5.8787866,7.8332415,1000.5099,5.691563676837959,1000.5275968358044,0,0
5.44,0.07801886,5.864487,7.965802,1000.5098,5.6921083550467095,1000.5275258696904,0,0
5.46,-0.03194633,5.797756,8.079425,1000.5477,5.692767195670812,1000.5275357909018,0,0
5.48,0.082735255,5.840656,7.837967999999999,1000.5377,5.693172684178256,1000.5275811484368,0,0
5.5,-0.10370681,5.726258799999999,8.088888,1000.53754,5.6936354916113165,1000.5276570782204,0,0
5.52,-0.017702073000000002,5.86449,7.7290706999999985,1000.50476,5.693712813697385,1000.5276417402953,0,0
5.539999999999999,-0.032065272,5.7786922,8.084147999999999,1000.53,5.693937832543115,1000.5276366774398,0,0
5.56,0.007872388000000001,5.8692155,8.065367,1000.5222,5.694370846992247,1000.527612631862,0,0
5.579999999999999,-0.02078186,5.8167825,8.321027,1000.52246,5.695355464797963,1000.5275728357144,0,0
5.6,0.08441804,5.9550123,7.662948599999999,1000.53503,5.6958939841639555,1000.52756451763,0,0
5.619999999999999,0.08922978,5.9359446,7.975422,1000.5323,5.696529433187725,1000.5275742155072,0,0
5.64,-0.073244244,5.8358464,7.9659576,1000.50464,5.697108561803009,1000.5275002213756,0,0
5.6599999999999975,-0.011055216,5.8167787,8.032244,1000.5149,5.697723319984193,1000.527389479364,0,0
5.68,-0.11618391,5.6642485,8.070121,1000.5222,5.6982488118760335,1000.5272729455968,0,0
5.6999999999999975,0.0033578426,5.8358436,7.904421000000001,1000.5146,5.698620989152883,1000.527124353756,0,0
5.72,-0.05397278,5.8310757,7.9186277,1000.5096,5.698874549476512,1000.526929970332,0,0
5.7399999999999975,0.022555664,5.812009,7.9281006,1000.5272,5.699014535353378,1000.5267591852452,0,0
5.76,0.02736497,5.840607,7.994385,1000.5297,5.699199968922322,1000.5266188664757,0,0
5.7799999999999985,-0.0012770444,5.740508,7.9612474,1000.52484,5.699246863370773,1000.5264884768916,0,0
5.8,-0.02990675,5.754807,7.9896584000000015,1000.517,5.699236553005853,1000.5263391061383,0,0
5.8199999999999985,0.04183206,5.740506,7.8997087,1000.5044,5.699006929942244,1000.5261281413583,0,0
5.84,0.05142854,5.7214394,8.197979,1000.5196,5.699066438054928,1000.5259182315702,0,0
5.8599999999999985,0.075357005,5.7405043,8.008606,1000.5274,5.699083062405692,1000.5257380896477,0,0
5.88,0.08973329,5.8644342000000025,7.776623700000001,1000.5196,5.698826107170363,1000.525556819122,0,0
5.9,-0.015385583,5.8406005,7.7908306,1000.51715,5.698321339198103,1000.5253663839368,0,0
5.92,-0.029673398,5.7357354,8.207463,1000.5272,5.6981731880759545,1000.5252047164254,0,0
5.94,0.137659,5.7834,7.961277000000001,1000.4943,5.697983342841011,1000.5249506100326,0,0
5.96,-0.0009159595,5.6976010000000015,7.8713274,1000.53217,5.697499299726868,1000.5247520714281,0,0
5.98,0.07560016,5.8644295,7.6866894,1000.5145,5.696656475765617,1000.52453973526,0,0
6.0,0.046950832000000005,5.9502263,7.5115185,1000.50934,5.695321296275525,1000.5242973959747,0,0
6.02,0.0900182,5.807229,8.08912,1000.5273,5.694336118294648,1000.524094074357,0,0
6.039999999999999,0.013575703,5.792928,8.458406,1000.5196,5.6942743186563805,1000.5238982407076,0,0
6.06,-0.15845789999999998,5.6642303,8.235892999999999,1000.5043,5.694498547306818,1000.5236546484288,0,0
6.079999999999999,-0.22604778,5.6213474,8.292645,1000.5172,5.695024547969173,1000.5234161735568,0,0
6.1,-0.24037936,5.4592843,8.221629,1000.5272,5.69550583907314,1000.5232190789347,0,0
6.119999999999999,0.12290071,5.988371400000001,7.6392994,1000.51434,5.69560384349454,1000.5230129614428,0,0
6.14,-0.044381708,5.7738767,8.240569,1000.5119,5.6961000252112415,1000.5227908293657,0,0
6.1599999999999975,0.2041774,5.959771599999999,8.036991,1000.51434,5.696833077189645,1000.5225641304767,0,0
6.18,0.33324564,6.083702,8.188493,1000.52466,5.6981861428148886,1000.5223713644684,0,0
6.1999999999999975,-0.04434742,5.955005,7.165863000000001,1000.50934,5.69823406037316,1000.5221541235117,0,0
6.22,-0.02522108,5.750043,7.7055855,1000.52185,5.69774623616454,1000.5219610745577,0,0
6.2399999999999975,0.07994749,5.840607,7.610899000000002,1000.48145,5.696744065956723,1000.5216446566333,0,0
6.26,0.17555355,6.0074363,7.639305999999999,1000.51434,5.695552985837859,1000.5213387729914,0,0
6.2799999999999985,0.027394608,5.7738748,8.060669,1000.499,5.694605077907201,1000.5209880746228,0,0
6.3,0.19947894,5.9454703,8.022796000000001,1000.48663,5.694025922158757,1000.5205545084757,0,0
6.3199999999999985,0.11345394,5.826306,8.150624,1000.51935,5.693840930711713,1000.5201670731972,0,0
6.34,-0.010810986000000002,5.7929397000000025,8.060672,1000.48395,5.6938112048560505,1000.519694353922,0,0
6.3599999999999985,0.17561279,5.974069,7.6156397,1000.5168,5.693408428753271,1000.5192662394963,0,0
6.38,-0.020347059,5.9216365999999985,7.861828999999997,1000.4992,5.693013490397965,1000.5188157191274,0,0
6.4,-0.12071438,5.8978033,7.610906599999999,1000.4941,5.692183921167557,1000.5183286627406,0,0
6.42,-0.14938033,5.8930370000000005,8.112755,1000.5042,5.691802501750495,1000.5178474365314,0,0
6.44,0.0131444335,6.002667,7.743472,1000.484,5.691338980913026,1000.5173003742813,0,0
6.46,0.16610743,6.1933292999999985,7.786083,1000.5091,5.691121855486549,1000.5167874687296,0,0
6.48,0.07530542,5.9407015,7.6819277,1000.484,5.690626551759034,1000.5162162304973,0,0
6.5,-0.07285704,5.8501363,7.819226299999999,1000.4988,5.690000357890048,1000.5156487859648,0,0
6.52,-0.115867466,5.9025690000000015,7.752944999999999,1000.5042,5.689217320821527,1000.5151061763468,0,0
6.539999999999999,0.06577937,5.9311669999999985,7.6535244,1000.5013,5.6881698788304265,1000.5145770242532,0,0
6.56,-0.015467286,5.907334,7.9612617,1000.5214,5.687371879345252,1000.5141340281764,0,0
6.579999999999999,0.14696072,6.0074344,7.700861,1000.5015,5.686494667075005,1000.513697114341,0,0
6.6,0.118289515,5.964535,7.970723,1000.5015,5.685941355549742,1000.5132671476648,0,0
6.619999999999999,0.113514975,6.002667,7.989661,1000.5015,5.685755152078007,1000.5128448673777,0,0
6.64,0.11830427,5.9311686,7.92338,1000.5042,5.685694752665678,1000.5124406189937,0,0
6.6599999999999975,0.032274917,5.955002,8.037006,1000.5141,5.6859633689604925,1000.5120893988933,0,0
6.68,0.108759865,5.9979,8.027538,1000.5091,5.686560291398845,1000.5117682989764,0,0
6.6999999999999975,-0.034626648,5.9168687,7.752944,1000.4914,5.686887096134742,1000.5114112492136,0,0
6.72,0.046636716,6.045565,8.003867999999999,1000.50146,5.687551277617074,1000.511059935546,0,0
6.7399999999999975,0.07054378,6.097997,7.544631,1000.499,5.687826392137116,1000.5107060990213,0,0
6.76,0.04665242,6.059865,8.089088,1000.499,5.688600933953018,1000.5103513071117,0,0
6.7799999999999985,-0.10629562,6.0026655,7.8902445,1000.51654,5.689413460353428,1000.5100600922743,0,0
6.8,0.13748388,6.0646309999999986,7.752947,1000.52136,5.690110154155249,1000.5098434545123,0,0
6.8199999999999985,-0.10628088,5.955,7.6724625,1000.53424,5.690429194320455,1000.5097398609494,0,0
6.84,0.008443922,6.026498,7.6914015,1000.4988,5.690534616998337,1000.5096089421776,0,0
6.8599999999999985,-0.16362423,6.0407977,7.8807782999999985,1000.4962,5.6907830308815655,1000.5094449901593,0,0
6.88,-0.2018541,5.931166,7.464151400000001,1000.4837,5.690335667473015,1000.5092074401912,0,0
6.9,-0.005873129,6.169494,7.9802017,1000.5037,5.690420474834298,1000.5089777142548,0,0
6.92,-0.10146206,5.988364700000001,7.530434599999999,1000.4963,5.690008348021575,1000.508729088646,0,0
6.94,-0.044096306,5.8787336,7.715076400000001,1000.5214,5.6893205759715055,1000.5085550183388,0,0
6.96,-0.015410855,5.902567,8.183783,1000.4963,5.689203671758863,1000.5083570917495,0,0
6.98,-0.17313626,5.873967,7.5114985,1000.53156,5.688441710051905,1000.5082657342848,0,0
7.0,-0.13967004,5.983597799999999,7.82397,1000.4938,5.687764469054692,1000.5081329341856,0,0
7.02,-0.24959835,5.9978967,7.7198133,1000.52405,5.687015774147841,1000.5080728934547,0,0
7.039999999999999,-0.06317845,6.202858999999999,7.857113000000001,1000.5014,5.686687774242313,1000.5079958190488,0,0
7.06,-0.15876734,5.9931300000000025,7.909191000000001,1000.4987,5.6865538164431015,1000.507894251155,0,0
7.079999999999999,-0.10575978,5.9263883,8.084404,1000.50885,5.686799415618602,1000.5078079464598,0,0
7.1,-0.06750476,5.9835863,7.8145447,1000.49866,5.687001218613101,1000.507698755024,0,0
7.119999999999999,-0.0053447485,6.012185,7.7624674,1000.5012,5.687113628099634,1000.5075788779532,0,0
7.14,0.07116373,6.0979824,7.468938,1000.5087,5.686780654152982,1000.5074769906126,0,0
7.1599999999999975,0.009048834,6.04555,7.828754400000001,1000.4936,5.6865727443513245,1000.5073370057924,0,0
7.18,0.01385273,6.1504135,7.6488495,1000.5062,5.686317303854734,1000.5072092219845,0,0
7.1999999999999975,0.056895033,6.1456456,7.81929,1000.4886,5.686292242528403,1000.5070293190124,0,0
7.22,-0.07213557,6.074147,7.795619999999999,1000.5188,5.686340714876926,1000.506912731198,0,0
7.239999999999997,-0.13424897,6.016948,7.753012700000001,1000.5163,5.686312459969161,1000.506843508373,0,0
7.26,-0.09598944,6.0074143,7.658326,1000.5188,5.686048235012785,1000.5068253864544,0,0
7.2799999999999985,-0.16288110000000006,5.9645142999999985,7.7056723,1000.48334,5.6856011215804605,1000.5067248265359,0,0
7.3,-0.11027922,6.036012,7.5352364,1000.50604,5.684806113862384,1000.5066335064166,0,0
7.3199999999999985,-0.10547681,6.0026455,7.8761160000000014,1000.5188,5.684222042227024,1000.506596615336,0,0
7.34,-0.16759017,6.0312448,7.8666496,1000.5062,5.683848701012764,1000.506562590562,0,0
7.3599999999999985,-0.11021449,6.0741434000000005,7.932932000000001,1000.4834,5.683824809371776,1000.5064491409456,0,0
7.38,-0.1054106,6.102742,7.913997699999999,1000.50104,5.684114681304709,1000.506329423957,0,0
7.399999999999999,-0.17229928,6.031243,7.6820145,1000.4861,5.684210948833411,1000.5061508160996,0,0
7.42,-0.20095399,5.983577,7.8855952999999985,1000.496,5.6844113143819,1000.5059564552593,0,0
7.439999999999999,-0.26784718,5.945443,7.847722,1000.5213,5.684595658068585,1000.5058399547812,0,0
7.46,-0.22002503,6.0312410000000005,7.719895399999999,1000.5038,5.684660909131402,1000.505729671122,0,0
7.479999999999999,-0.18176405,6.050306299999999,7.487912,1000.49854,5.684266253437773,1000.5056063416646,0,0
7.5,-0.15784241,6.04554,8.037105,1000.48566,5.684359870818282,1000.505425560926,0,0
7.52,-0.009642929,6.055071400000001,7.871403699999999,1000.50604,5.684619904990983,1000.5052680350459,0,0
7.539999999999999,0.009500369,6.0932035,7.738842,1000.4834,5.684857288668972,1000.5050501202523,0,0
7.56,-0.0053138584,6.069383,7.658313799999997,1000.4858,5.684911767367038,1000.5047882703078,0,0
7.579999999999999,0.08550532,6.217146,7.3742504,1000.5238,5.68454246093493,1000.5046253419237,0,0
7.6,-0.043546066,6.0598497,7.966050999999997,1000.48065,5.6845552669517065,1000.5043950671724,0,0
7.619999999999999,0.023375914,6.078915,7.6299076,1000.5059,5.6843785522449375,1000.5041970141604,0,0
7.64,-0.096115336,6.03125,7.918708,1000.4706,5.684448588101988,1000.503901065268,0,0
7.659999999999997,-0.005295545,6.1170480000000005,7.6109715,1000.49335,5.684341560392555,1000.5036015809918,0,0
7.68,-0.02919048,6.097982,7.691456,1000.4882,5.684184567968417,1000.5032815109937,0,0
7.699999999999997,0.023391157000000003,6.102748,7.563628,1000.4984,5.683782661524882,1000.5029811237038,0,0
7.72,-0.029183343,6.0503154000000015,7.7861449999999985,1000.50085,5.683460769478471,1000.5027080294493,0,0
7.739999999999997,-0.115216725,6.0217160000000005,7.5967693,1000.49585,5.682865731725105,1000.5024420344597,0,0
7.76,-0.16301048,6.00265,8.060741,1000.5135,5.682773421743216,1000.5022468099628,0,0
7.7799999999999985,-0.010052472,6.055082,7.686723700000001,1000.4858,5.682571996874134,1000.5020151010817,0,0
7.8,-0.048287094,6.093214,7.781411999999999,1000.49335,5.682478847961451,1000.5017791687503,0,0
7.8199999999999985,0.06165172,6.0741487,7.6914587,1000.4833,5.682310403666463,1000.5015041739348,0,0
7.84,-0.06739919,5.945451,7.7246,1000.5034,5.6819659660413135,1000.5012680134897,0,0
7.8599999999999985,-0.06261629,6.1027474,7.549427,1000.5058,5.681383817647585,1000.5010756572716,0,0
7.88,-0.010035098,6.074148,7.6535845,1000.4907,5.680725122484748,1000.5008683389514,0,0
7.899999999999999,-0.15820426,6.0217155999999985,7.8524303,1000.4804,5.68026261188421,1000.5006114664633,0,0
7.92,-0.08172335,6.050315,8.032338000000001,1000.5135,5.680306854192176,1000.5004308926536,0,0
7.939999999999999,-0.13429812,5.9788165,7.980258999999997,1000.5005,5.680624091885973,1000.5002715864217,0,0
7.96,0.009099558,6.0932136,7.592039,1000.5285,5.680687564619388,1000.5002324457242,0,0
7.979999999999999,-0.076932356,6.0312486,7.6772585000000015,1000.5234,5.680585827781091,1000.5002812641992,0,0
8.0,-0.15340567,5.9502169999999985,7.6346493,1000.5007,5.680166838461765,1000.5003259076527,0,0
8.02,-0.1295028,5.983583,7.658321400000001,1000.47046,5.6795497531638715,1000.5002578373404,0,0
8.04,-0.0004447847599999999,6.0550804000000005,7.8571663,1000.5057,5.679175681452199,1000.5002172821984,0,0
8.059999999999999,-0.0052203387,6.074147,7.9187145,1000.49817,5.679143256377312,1000.5001740774588,0,0
8.08,0.047488853,6.1170425,7.639396700000002,1000.5007,5.6790111070914255,1000.5001377950721,0,0
8.1,-0.052875905999999986,5.983579,7.9613369999999986,1000.5285,5.679150046118622,1000.5002078398927,0,0
8.12,-0.1341237,5.969279,7.7435550000000015,1000.5058,5.679151450802069,1000.5002898632727,0,0
8.139999999999999,-0.13411537,5.9788120000000005,7.8287754,1000.5284,5.679183900347216,1000.5004635356237,0,0
8.16,-0.1245491,6.06461,7.563649000000002,1000.5234,5.678919344047669,1000.5006995637843,0,0
8.18,-0.13409816,6.0884423,8.0702305,1000.54614,5.679255086227468,1000.5010717038381,0,0
8.2,-0.12931003,6.0026436,8.008685,1000.5386,5.6799105144635185,1000.5015356286552,0,0
8.219999999999999,-0.038484335,6.1122746,7.7056837,1000.5133,5.680484874806923,1000.5019879043604,0,0
8.24,-0.16753072,5.9978766,7.937670699999999,1000.5159,5.6812240211385765,1000.502437618718,0,0
8.26,-0.14362228,6.00741,7.5115747000000015,1000.5133,5.681418325865648,1000.5028740908972,0,0
8.28,-0.12927619,6.0169435,7.6962175,1000.48285,5.681443384549643,1000.5031876709868,0,0
8.299999999999999,-0.07668947,6.050308,7.8713913,1000.5005,5.681647890002539,1000.5034550747392,0,0
8.32,-0.22963266,5.9406776,7.719891499999999,1000.5157,5.681626709849081,1000.5037354344254,0,0
8.34,-0.10535107,6.0550739999999985,7.7009544,1000.498,5.681516662934072,1000.5039625126802,0,0
8.36,-0.15791948,5.9597435,7.9092693,1000.5434,5.681552176778491,1000.5043051339806,0,0
8.379999999999999,-0.095772035,6.1122727,7.7483005999999985,1000.52325,5.6816431480550325,1000.5046760756793,0,0
8.4,-0.14356233,6.036008,7.5541906,1000.4804,5.681369503718492,1000.5049164458916,0,0
8.42,-0.11009425,6.069374,7.7909117,1000.52826,5.681202961487602,1000.5052128738063,0,0
8.44,-0.14832383,6.1170387,7.459503999999999,1000.4953,5.680656514910795,1000.5054391111656,0,0
8.459999999999999,-0.10529669,6.2076035,7.7483034,1000.51556,5.680359993642439,1000.5056754496964,0,0
8.48,-0.13874812,6.088439,7.7956476,1000.53577,5.680209751655487,1000.5059926188032,0,0
8.5,-0.09094174,6.1742373,7.7861795,1000.50287,5.680282965508961,1000.5062616279984,0,0
8.52,-0.22954609,6.083672,7.999229400000001,1000.51544,5.6807922301088976,1000.5065323666624,0,0
8.54,-0.090922326,6.136104,7.5447273,1000.5031,5.6810051798669425,1000.5067592348256,0,0
8.559999999999999,-0.06701608,6.150404,7.6015406,1000.5281,5.681065562870472,1000.5070365222896,0,0
8.58,-0.08056575,6.0884185,7.781519999999999,1000.51544,5.681203641339854,1000.5073117860126,0,0
8.6,-0.042300284,6.131317,7.6963034,1000.5333,5.681325615691644,1000.5076485666084,0,0
8.62,-0.13307971,6.231414,7.899886,1000.51544,5.681895394103313,1000.5079741951033,0,0
8.639999999999999,-0.046994105,6.1503816,7.478528999999999,1000.52045,5.6820694756679275,1000.5083068333388,0,0
8.66,-0.24292673,6.1217812999999985,7.8478155,1000.5483,5.682461157151513,1000.5087447278833,0,0
8.68,-0.1042731,6.1885123,7.56849,1000.4876,5.682671592034361,1000.5090555304828,0,0
8.7,-0.12335546,6.0931797,7.8667603,1000.533,5.683083261575823,1000.50941635575,0,0
8.719999999999999,-0.06595607,6.140845,7.412261999999999,1000.5053,5.682994755061832,1000.5097203620752,0,0
8.74,-0.12805666,6.1551433,7.611109700000001,1000.4951,5.68280453077389,1000.5099363487607,0,0
8.76,-0.1901548,6.093177,7.6442547,1000.55316,5.682500301233829,1000.5102827997407,0,0
8.78,-0.14231989,6.0884094000000015,7.961463,1000.54565,5.682608281164247,1000.5107162457474,0,0
8.799999999999997,-0.113599315,6.0693426,7.573246000000001,1000.523,5.682419570842625,1000.5111434601542,0,0
8.82,0.05373071,6.298136,7.587452000000001,1000.5077,5.68229176801991,1000.5115085503476,0,0
8.84,-0.17088568,6.1837377999999985,7.7673625999999985,1000.4952,5.682361168144535,1000.5117724332613,0,0
8.86,-0.14217003,6.2314024,7.644272,1000.5305,5.682466557804003,1000.512073019444,0,0
8.879999999999997,-0.23294449,6.0741053,7.762635,1000.54565,5.6825951524491485,1000.5124594945247,0,0
8.9,-0.15643325,6.117003,7.6442785,1000.528,5.682603081380923,1000.5128569297262,0,0
8.92,-0.122927934,6.107469,7.701095599999999,1000.53046,5.68258338101816,1000.5132714745233,0,0
8.94,-0.23760395,6.0884019999999985,7.402832000000001,1000.5305,5.682036661709581,1000.5136997889972,0,0
8.959999999999997,-0.18976659,6.112234,7.435975999999997,1000.5079,5.681108674558244,1000.5140573684262,0,0
8.98,-0.22796813,6.0979333,8.018311,1000.5328,5.68077972961567,1000.5144407990832,0,0
9.0,-0.079754904,6.2075624000000005,7.502264999999999,1000.5104,5.68027784249331,1000.5147650515352,0,0
9.02,0.06845833,6.274294,7.7058477,1000.5151,5.680039833277353,1000.5150527668162,0,0
9.04,-0.022321105,6.240927,7.7011166,1000.51263,5.679984046328716,1000.515298270078,0,0
9.06,-0.031841412,6.188494,8.004121000000001,1000.51263,5.680515702808522,1000.5155055909876,0,0
9.08,-0.013071611499999998,6.188503,7.6158686,1000.52527,5.680932002953376,1000.5157239316162,0,0
9.1,-0.065631375,6.1122375,7.8478565,1000.5152,5.681523965383358,1000.5159149712416,0,0
9.12,-0.08472348,6.0788703,7.620607400000001,1000.5402,5.68185544020872,1000.5161711999581,0,0
9.14,-0.07991807,6.1074696,7.568532,1000.5076,5.681908247330762,1000.516366747332,0,0
9.16,-0.07512167,6.074103,7.620611,1000.51263,5.681755606051445,1000.5165260807014,0,0
9.18,-0.11810983,6.112235,7.791053,1000.5227,5.681749879513216,1000.516689093776,0,0
9.2,-0.055948257,6.1265335,7.762648599999999,1000.52527,5.681844834047477,1000.5168640233912,0,0
9.22,0.020552725,6.140833,7.876276,1000.52,5.682232288425068,1000.5170298807147,0,0
9.24,0.07793449,6.207564,7.5590734,1000.5378,5.682449261216101,1000.5172512046756,0,0
9.26,0.14487429,6.1980305,7.663232000000002,1000.5177,5.682671682206599,1000.5174483821904,0,0
9.28,0.034959897000000004,6.069333,7.7957972999999985,1000.5175,5.682945587840037,1000.5176227940664,0,0
9.3,-0.01281251,6.083632,7.649033500000002,1000.5328,5.683042542370004,1000.5178315423416,0,0
9.32,-0.08926828,6.0693316,7.4643936,1000.52527,5.682665946050812,1000.5180427707652,0,0
9.34,0.030249387000000006,6.25046,7.615896,1000.52026,5.682353548982109,1000.5182373942254,0,0
9.36,-0.05576147,6.045498,7.947306599999999,1000.5453,5.682375579453744,1000.5185067888956,0,0
9.38,-0.08441319,6.1312947,7.866825,1000.5429,5.6826697050088795,1000.5188326415863,0,0
9.4,-0.07005569,6.112228400000001,7.554356599999997,1000.53784,5.682669721032169,1000.5191889915139,0,0
9.42,0.02079074,6.112228,7.7626724,1000.5225,5.682747786235293,1000.5195157819406,0,0
9.44,0.006473914,6.1694260000000005,7.4170628,1000.5402,5.682410870427322,1000.5198789971466,0,0
9.46,0.016059116000000002,6.0597944,7.710599,1000.52765,5.682039689413196,1000.520227909713,0,0
9.48,-0.017376915,6.0740933,7.5875053,1000.5377,5.681457594702232,1000.5205991083817,0,0
9.5,-0.026918411,6.1360583,7.7011337,1000.53784,5.6809561901443,1000.5209891667348,0,0
9.52,-0.07947217,6.0740924000000005,7.6821975999999985,1000.5303,5.680417584588939,1000.5213673412957,0,0
9.54,0.0065944344,6.15989,7.862107300000001,1000.53265,5.680251512474191,1000.5217421139087,0,0
9.56,0.0018357038,6.1217566,7.720077499999999,1000.5303,5.680134297694867,1000.52210407138,0,0
9.58,0.016328468999999998,6.0836205,7.9331407999999985,1000.54034,5.680361180868231,1000.5224895463443,0,0
9.6,-0.1222585,6.1122193,7.668016400000001,1000.5202,5.680495333686032,1000.522821909656,0,0
9.62,-0.06964965,6.1646504,7.398158,1000.55023,5.680180056341268,1000.5232142550036,0,0
9.64,-0.08874156,6.112218,7.7863817,1000.53784,5.680027999533817,1000.5236135840345,0,0
9.66,-0.08393987,6.2409143,7.9426193,1000.5454,5.680441213202049,1000.5240448622636,0,0
9.68,-0.16038573,6.074084,7.7627144,1000.5454,5.68084618661927,1000.524502818203,0,0
9.7,-0.04564309,6.1455817,7.644356699999999,1000.53784,5.681139535416897,1000.5249554819252,0,0
9.72,-0.03604704,6.112215,7.653828599999999,1000.52496,5.681305112350218,1000.5253554718556,0,0
9.74,0.07391034,6.2504444,7.4881268,1000.50214,5.681272563514261,1000.5256253272593,0,0
9.76,-0.18895154,6.055014599999999,7.9047565,1000.5149,5.681490865242207,1000.5258251603155,0,0
9.78,-0.10766572,6.1265125,7.686977400000001,1000.51764,5.681662344739412,1000.5259722662273,0,0
9.8,-0.012040466,6.19801,7.606495,1000.5199,5.681753621587648,1000.5260803888524,0,0
9.82,0.0023317635,6.1360445,7.682247999999999,1000.5048,5.6818153634288855,1000.5260993166037,0,0
9.84,0.011913255,6.183709,7.791141499999997,1000.50464,5.682089570748483,1000.5260387876252,0,0
9.86,-0.06453262,6.155109,7.6443777000000015,1000.51733,5.6822755658094835,1000.5259539525844,0,0
9.88,-0.097956635,6.0740767,7.762741,1000.52496,5.682471499091276,1000.525875414113,0,0
9.9,-0.16962454,6.140808,7.530758,1000.5274,5.682387397680878,1000.5258115060287,0,0
9.92,-0.15047616,6.16464,7.592308,1000.51733,5.6821859825058825,1000.525724503424,0,0
9.94,-0.050071076,6.1884723,7.8385,1000.5375,5.6823098997278105,1000.5256900197099,0,0
9.96,-0.050043747,6.1646385000000015,7.857439,1000.5275,5.682721130187247,1000.5256660658296,0,0
9.98,-0.030899018,6.2361364,7.5733776,1000.5299,5.683017490592477,1000.5256601423434,0,0
10.0,-0.035653293,6.2170695999999985,7.620723700000001,1000.51746,5.683262306443554,1000.5256253878388,0,0
10.02,-0.016497612,6.3124,7.653867699999997,1000.5197,5.683639514320277,1000.5255733473624,0,0
10.04,0.098239556,6.355298,7.544979,1000.52,5.684016567547718,1000.5255073003467,0,0
10.06,0.14128877,6.2980985999999985,7.6538725,1000.4996,5.6844910770817245,1000.5253556749226,0,0
10.08,0.24037392,6.3219633,7.639552,1000.5199,5.685062565209599,1000.525202058268,0,0
10.1,0.27380544,6.288597599999999,7.2749996,1000.5123,5.685096387503986,1000.5250198751824,0,0
10.12,0.41717815,6.307665,7.279731799999999,1000.54755,5.684699046036267,1000.5249400066573,0,0
10.14,0.6561455,6.4363623,7.350746000000001,1000.51733,5.684236123190278,1000.5248420388043,0,0
10.16,0.75172013,6.441129,7.1566343,1000.5197,5.6834369301147865,1000.5247369630698,0,0
10.18,0.78037614,6.4887958,7.047741,1000.5222,5.682247861470481,1000.5246349850836,1,1
10.2,0.6847573,6.512629,7.009864,1000.5324,5.680679326304079,1000.5245728313887,1,1
10.22,0.59870076,6.388699,7.251316,1000.51715,5.678968125300705,1000.5244911901912,1,1
10.24,0.8185475,6.52693,6.990921000000001,1000.51465,5.676963295630375,1000.5243836237444,1,1
10.26,0.48871684,6.441132,7.360203,1000.55505,5.675108785217379,1000.5243989769864,1,1
10.28,0.053733274,6.317202,6.8252125,1000.4996,5.672369821171138,1000.5243232667937,1,1
10.3,-0.47206944,6.3458023,7.2939177,1000.50964,5.669647665497871,1000.5242035095073,1,1
10.32,-0.8066770999999999,6.2981370000000005,7.3980722,1000.52484,5.66709516381974,1000.5240999833344,1,1
10.34,-0.9978905999999998,6.3982353,7.6631966,1000.5375,5.665291087180084,1000.5240567476683,1,1
10.36,-1.4472121999999998,6.5888977,7.1187380000000005,1000.4945,5.663686184472184,1000.523912140342,1,1
10.38,-1.600186,6.9225574000000005,6.801531,1000.52216,5.662322175887108,1000.5237780576033,1,1
10.4,-1.0887753999999998,6.889192,7.630049700000002,1000.5272,5.662218683461693,1000.5236719010879,1,1
10.42,-1.0696719,6.4935684,8.349677,1000.5525,5.6638403046957455,1000.5236818823472,1,1
10.44,-1.0362418,5.9168160000000025,7.914109,1000.5348,5.665534046802035,1000.5237307270113,1,1
10.46,-0.18545379,6.441138,7.431199,1000.5272,5.667078295663639,1000.5237863755392,1,1
10.48,-0.38145286,6.112246,6.6926289999999975,1000.52484,5.666896555142554,1000.5238393396263,1,1
10.5,-0.79732,5.9740157,7.1423960000000015,1000.5323,5.6657594022910525,1000.5239165970717,1,1
10.52,-0.73997957,6.431606,6.7305009999999985,1000.5196,5.6637681651632334,1000.5239693220004,1,1
10.54,-0.39107525,6.5174046,7.488003699999997,1000.5146,5.662268179243868,1000.5239821801885,1,1
10.56,-0.95990044,5.702324,9.35809,1000.56256,5.663422807555832,1000.5241324218347,1,1
10.58,-0.5957505,5.983529,9.618564,1000.55505,5.667631674649607,1000.5243764786346,1,1
10.6,-0.29461336,6.3076553,9.850551,1000.5196,5.675266629330275,1000.5245749319,1,1
10.62,0.51796836,6.0454940000000015,9.410252,1000.5373,5.684854101579959,1000.5247960954505,1,1
10.64,0.6661519,5.092182,10.087274,1000.53217,5.6963868974763585,1000.52501806162,1,1
10.66,0.6470484999999999,4.105505,9.978383,1000.53467,5.708537087766827,1000.5252489379055,1,1
10.68,0.7808925,3.8528774,9.055176,1000.53973,5.7192402275271546,1000.5255050720152,1,1
10.7,0.9051825,4.6059923,7.2371655,1000.5121,5.726037447912577,1000.5256831338547,1,1
10.72,1.1872027,5.3162093,6.863148700000001,1000.502,5.729641413395102,1000.5257552100146,1,1
10.74,0.7140149,5.173212,6.7731952999999985,1000.5146,5.729975552922473,1000.5257787377534,1,1
10.76,-0.21803416,4.806187,6.564883,1000.5322,5.726559651565784,1000.5258226434074,1,1
10.78,-0.36141717,5.320975,6.4370556,1000.5119,5.720300372557316,1000.525811316927,1,1
10.8,-0.11763295,5.7070656,7.5259695,1000.5269,5.7138094855364825,1000.5258052281081,1,1
10.82,-0.4904489000000001,5.840529,8.458648,1000.54956,5.708893498278573,1000.5258853652062,1,1
10.84,-1.1930633,6.3076515,8.719042,1000.5549,5.70650194479074,1000.5260606270316,1,1
10.86,-0.9588452,6.2266197,9.646986,1000.56995,5.707793210898463,1000.5263734901233,1,1
10.88,-1.5085058,5.792862,10.243522,1000.5776,5.7130456873702204,1000.5268343513865,1,1
10.9,-1.857419,6.2885838,7.009925999999999,1000.5017,5.7170703682314645,1000.5271510847335,1,1
10.92,-0.9540232,6.0645555999999985,9.72274,1000.5319,5.723944773241907,1000.5274480464141,1,1
10.94,-0.7867221999999999,5.0969443,9.680131,1000.53955,5.732209894906642,1000.5277540087877,1,1
10.96,-1.527576,5.049278299999999,7.961544,1000.5092,5.738727650476309,1000.5279575627096,1,1
10.98,-1.2312155,5.4210696,7.3981514000000015,1000.5119,5.743061399287972,1000.5280796157292,1,1
11.0,-1.1403865,4.6059875,8.283484,1000.5043,5.746057276030338,1000.5281018551607,1,1
11.02,-1.0830194,3.9434366,8.842146000000003,1000.54456,5.748267057838683,1000.528180755244,1,1
11.04,-1.1786027,4.310461,7.810047,1000.51685,5.748228083407739,1000.5282096806384,1,1
11.06,-1.4988353,4.7632837,7.109357000000001,1000.5043,5.745557333566924,1000.5281491642668,1,1
11.08,-1.0735165,4.5869230000000005,7.989948299999999,1000.51685,5.7417918446610585,1000.5280550150093,1,1
11.1,-0.08408818,5.3972373,8.392374,1000.52185,5.738533997536206,1000.5279494866714,1,1
11.12,0.030635417,5.602199,9.5854435,1000.527,5.73807282856265,1000.5278528236801,1,1
11.14,-0.30872175,5.86436,8.221936,1000.5244,5.738008578389772,1000.5277549820956,1,1
11.16,-0.22745845,6.7080398,8.747456,1000.5295,5.7402116008952175,1000.5276748113362,1,1
11.18,-0.4138602,6.0883875,9.670666,1000.5295,5.745260839889479,1000.527610543132,1,1
11.2,-0.9874296,4.262795400000001,11.095722,1000.5422,5.75382992337104,1000.5276062777916,1,1
11.22,-0.2513286,4.4582243,8.245612,1000.5295,5.760177608083137,1000.5276093263373,1,1
11.24,-0.25132024,4.4200916,9.329791,1000.5244,5.766513892619928,1000.5276004664572,1,1
11.26,-0.7006151999999999,4.272328400000001,7.322404,1000.4867,5.769033698560449,1000.5274453961875,1,1
11.28,-0.5237536,4.939646,6.5364943,1000.5093,5.767555345894582,1000.5272430526712,1,1
11.3,-0.43770656,5.301904,7.080951700000001,1000.527,5.76389423994491,1000.5270633869504,1,1
11.32,-0.62889206,5.4592004,7.2892656,1000.5191,5.7588827551344375,1000.5268759661267,1,1
11.34,-0.5141657000000001,5.7928586,7.0572815,1000.4889,5.7527296745880925,1000.5265736476088,1,1
11.36,-0.7722668,5.759493,8.037303999999999,1000.5319,5.7471971289059285,1000.526325693835,1,1
11.38,-0.83917457,6.1789494000000005,7.1046267000000025,1000.5195,5.74126636894012,1000.5260820293828,1,1
11.4,-0.99690145,6.30288,8.378181,1000.5195,5.7372468535162175,1000.5258430321668,1,1
11.42,-1.1116066999999998,5.611729,10.23407,1000.557,5.737409988812827,1000.5257440193108,1,1
11.44,-1.5800192,6.207548,8.472872,1000.53674,5.738976166074713,1000.525696117082,1,1
11.46,-1.527432,6.293346,10.475527,1000.5523,5.745297381606175,1000.5257495646507,1,1
11.48,-2.5168426,4.0721307,11.786958,1000.5671,5.7566419044550265,1000.5259456524899,1,1
11.5,-1.9193586,5.3305016,6.583847,1000.479,5.763995362059702,1000.5259499113561,1,1
11.52,-1.613444,5.702292400000001,7.185117,1000.50653,5.769100682465654,1000.5258837628087,1,1
11.54,-1.5608584,4.6059839999999985,9.708555,1000.53174,5.775411986446289,1000.5258463964066,1,1
11.56,-0.9490341,4.6965485000000005,5.764797,1000.4763,5.775777467693149,1000.5256350124263,1,1
11.58,-0.5807868,4.3009195,8.794835,1000.5493,5.775691826649872,1000.5255334274968,1,1
11.6,-1.0491921999999998,4.0339923,7.918971000000001,1000.5166,5.773423741049617,1000.525411506714,1,1
11.62,-0.34654450000000003,4.729908999999998,6.385025,1000.5166,5.7671667029785825,1000.525272056086,1,1
11.64,0.6906894,5.4353585,7.696458,1000.50635,5.760512486184198,1000.5250807181096,1,1
11.66,0.4708339,5.530689700000001,8.013663000000001,1000.537,5.7541563995501575,1000.524954561288,1,1
11.68,0.107588425,5.740417,8.406621000000001,1000.5319,5.748984220870548,1000.5248680927,1,1
11.7,0.08370693,5.8738804,8.032605,1000.51685,5.744401531210032,1000.524762823922,1,1
11.72,-0.05967483,5.997811,8.425562,1000.5216,5.741168912392397,1000.5246584222637,1,1
11.74,0.12197314,6.0311765999999984,9.315631,1000.5214,5.740711622714407,1000.524554442638,1,1
11.76,-0.23649669,5.5402203000000005,9.618634,1000.5391,5.742717354626149,1000.5245149302472,1,1
11.78,-0.021385923,4.9444003,9.315634,1000.51135,5.745736318210588,1000.5244326233501,1,1
11.8,-0.43243358,5.1588955,9.55709,1000.5166,5.7503103993563665,1000.5243316995316,1,1
11.82,-0.3750574,5.421056,6.9152945999999975,1000.45355,5.75193074317583,1000.5239877091271,1,1
11.84,0.1889718,5.468721,7.923724000000001,1000.5191,5.752670149303416,1000.5236661634532,1,1
11.86,0.23678736,5.1731940000000005,7.6633330000000015,1000.5191,5.751837637488934,1000.5233656075067,1,1
11.88,-0.030867234,5.521152,6.953173599999999,1000.49896,5.748849373580269,1000.5230121760858,1,1
11.9,-0.016512334,5.9406089999999985,6.5365467000000015,1000.5141,5.743871621164828,1000.5226678002484,1,1
11.92,0.14602266,5.9263086,8.075231,1000.5493,5.7396164802544085,1000.5224593856774,1,1
11.94,0.2655301,6.1551027000000005,7.5828543,1000.5345,5.7355008559652125,1000.522318576774,1,1
11.96,0.30855966,6.69849,7.322463000000001,1000.5191,5.731853358833691,1000.5221825711508,1,1
11.98,-0.57567936,6.598392,9.902715,1000.5444,5.73275771812856,1000.5221423793256,1,1
12.0,-0.9341522,6.5840917,9.599714,1000.5493,5.737191303253037,1000.5222046332635,1,1
12.02,-1.6845618000000002,6.7747536,8.714383,1000.52167,5.7436626486054365,1000.5222577161632,1,1
12.04,-1.1014133999999998,5.611714,9.713344,1000.519,5.752131542195909,1000.5222928924353,1,1
12.06,-1.3738468,4.629802,9.893252,1000.53174,5.761788842495906,1000.5223579837766,1,1
12.08,-1.2258463,5.7499475,7.1804229999999984,1000.50397,5.768868233953468,1000.5223493017439,1,1
12.1,-1.1780393,5.6689157,7.455017999999999,1000.52167,5.773975017328771,1000.522339184814,1,1
12.12,-1.0346391,5.2303925000000016,6.4181843,1000.5065,5.7750435198626935,1000.522273224429,1,1
12.14,-0.87211466,4.911032700000002,8.979499,1000.54425,5.7765470631478975,1000.5222940582248,1,1
12.16,-1.5412784,4.3009133,7.492896000000001,1000.50635,5.775320445129429,1000.5222550683577,1,1
12.18,-0.7526024,5.330489,6.8868933000000006,1000.50885,5.771613842912903,1000.5221723586644,1,1
12.2,-0.28417274,5.344789,8.094167,1000.52905,5.767729777006173,1000.5221240358884,1,1
12.22,-0.73346543,4.801401,7.942667,1000.53156,5.7628846039181605,1000.5221153073544,1,1
12.24,-0.36063182,5.3066559999999985,8.023152,1000.51654,5.757864478107064,1000.5220875237152,1,1
12.26,-0.38452202,5.4830190000000005,8.970034,1000.50635,5.754566035671037,1000.5220063190063,1,1
12.28,-0.48010975,5.5306835,9.467148,1000.5568,5.7537457518145025,1000.5220598237773,1,1
12.3,-0.159854,5.931074,8.581814999999999,1000.5088,5.753992371490856,1000.5220593652267,1,1
12.32,0.16518153,5.6212480000000005,8.392439999999999,1000.5013,5.754493384730523,1000.5219842263373,1,1
12.34,0.85348153,5.1731915,9.514494,1000.5415,5.756799293743818,1000.5219880903993,1,1
12.36,0.81525135,5.5783486,8.960569,1000.54675,5.76011598600682,1000.5220806475592,1,1
12.38,0.5045725999999999,6.2266,7.758032000000001,1000.5113,5.763012775136678,1000.5221236207344,1,1
12.4,-0.26974624,5.749944,7.170966,1000.4988,5.763938037058932,1000.5220776267977,1,1
12.42,-0.016407177,5.230389,8.3498335,1000.5063,5.764484006900389,1000.5219801870984,1,1
12.44,-0.26972845,5.068326,7.3698130000000015,1000.52655,5.762813295398713,1000.5219105407066,1,1
12.46,-0.36053747,5.6069464999999985,7.2514534,1000.5165,5.7596574971525,1000.5218295232083,1,1
12.48,0.19393025,5.9501386,7.223047999999999,1000.5239,5.755589170087697,1000.5217653898633,1,1
12.5,0.33733326,5.8166747,8.198336,1000.5113,5.75217910997339,1000.521671046236,1,1
12.52,0.265644,5.9024730000000005,7.3508787,1000.5113,5.748060256932021,1000.5215503484404,1,1
12.54,0.26565343,5.6307782999999985,8.970044999999997,1000.53156,5.745747537967922,1000.521479734614,1,1
12.56,-0.1979809,5.4162836,8.600762,1000.52155,5.7441490520602105,1000.5214175931925,1,1
12.58,-0.13599503,6.0788383,7.445554,1000.50885,5.742037644037397,1000.5213174416967,1,1
12.6,-0.11687232,6.274267,6.8111440000000005,1000.51886,5.738749929109678,1000.5212201010452,1,1
12.62,0.07432158,5.8834095,8.420841000000001,1000.55426,5.736537035935677,1000.5212530344812,1,1
12.64,-0.27460137,5.211325,8.790125999999999,1000.53143,5.735177269959935,1000.5213187715416,1,1
12.66,-0.5661666,5.935841,8.345092,1000.5063,5.7346468289907975,1000.5213227892308,1,1
12.68,-0.5900635999999999,6.3314657,7.3603363,1000.4963,5.733750128325332,1000.5212362572192,1,1
12.7,-0.40842813,5.707047,8.411374,1000.5113,5.733460331578598,1000.5211240270081,0,0
12.72,-0.28415070000000003,5.058795,9.078925,1000.5542,5.73417371047332,1000.521143933896,0,0
12.74,0.03609839,5.1159940000000015,8.326156,1000.519,5.734472554188025,1000.5211538054604,0,0
12.76,-0.030816808,5.354321499999998,8.373499,1000.5012,5.734750488878524,1000.5210906942748,0,0
12.78,0.12213977,5.873876,7.426619500000001,1000.4937,5.734033020485523,1000.5209363227324,0,0
12.8,-0.12640765,6.3076324,7.729621000000002,1000.53406,5.733494259613867,1000.5208471652753,0,0
12.82,-0.36539546,5.7642446,8.468188,1000.5264,5.733682640599621,1000.5207883759508,0,0
12.84,-0.20765927,5.2875896,8.662299,1000.5391,5.734305715300272,1000.5208023515507,0,0
12.86,0.17472775,5.654614,7.5970583,1000.51654,5.7339001323560375,1000.5207993559253,0,0
12.88,-0.026021332,5.4448857,7.696480800000002,1000.50885,5.732495017821032,1000.5207536913092,0,0
12.9,0.14605369,5.392453700000001,7.3934793,1000.53406,5.72963904196709,1000.5207612447656,0,0
12.92,0.11737789,5.6784472,7.8858576,1000.51385,5.726687901476035,1000.5207430385184,0,0
12.94,-0.03557381,5.7785444,7.4597607,1000.51654,5.7230768605720845,1000.52071182054,0,0
12.96,0.3850516,5.873875599999999,7.98528,1000.5038,5.7199023412567485,1000.5206233537804,0,0
12.98,0.1747425,5.664147,8.302485,1000.5113,5.717398547740928,1000.5205116204776,0,0
13.0,0.18430449,5.587882,8.023156,1000.5013,5.7149288929605255,1000.5203437310976,0,0
13.02,0.22254528,5.888175,7.937937700000001,1000.52136,5.7127204158440525,1000.5201990426095,0,0
13.04,0.1460705,6.078837,7.2656517,1000.51886,5.709895276737094,1000.5200663753084,0,0
13.06,-0.02599959,6.0121055,8.155721,1000.5038,5.7079027837464,1000.5198905915297,0,0
13.08,-0.26020747,5.792843,8.008954,1000.5239,5.706145120031367,1000.5197497028532,0,0
13.1,0.017023891,5.864342,8.098907,1000.4912,5.704832778374381,1000.5195224346887,0,0
13.12,-0.11680762,5.807143,8.3214245,1000.5341,5.704228094572331,1000.5193740997736,0,0
13.14,-0.035548896,5.8023763,8.193596000000001,1000.5013,5.704026555833666,1000.5191779642832,0,0
13.16,0.16042526,5.9358397000000025,7.781703999999999,1000.5088,5.703659007913058,1000.5189672982928,0,0
13.18,0.08395161,5.9120073,7.7201557,1000.5113,5.703012399321163,1000.5187535515497,0,0
13.2,-0.0642198,5.8309755,7.483436599999999,1000.5115,5.701628905064951,1000.5185385721416,0,0
13.22,-0.23629037,5.6403136,8.231473,1000.50635,5.700626303870709,1000.5183047374773,0,0
13.24,-0.16459075,5.730878,8.098908999999999,1000.49615,5.6998423472439885,1000.5180183641127,0,0
13.26,-0.059433013,5.840509,8.250411,1000.4988,5.6996405993943835,1000.5176961384973,0,0
13.28,0.18433939,5.959672,8.037362,1000.52405,5.699743910375089,1000.5174342938443,0,0
13.3,0.19868134,6.097903,7.606532,1000.50885,5.699583321168995,1000.5171720244516,0,0
13.32,0.06962915,5.959672,7.8858624000000015,1000.49115,5.6994681053883625,1000.5168466039281,0,0
13.34,-0.19325705,5.7737765,8.364037,1000.53406,5.699976152970367,1000.5166210305792,0,0
13.36,0.05051531,6.083603,7.7532997,1000.5239,5.700388952842803,1000.5164479182581,0,0
13.38,0.0887558,6.040704,7.8953314,1000.5239,5.700895407820772,1000.5163217837053,0,0
13.4,-0.07853526,5.835742,8.06577,1000.5038,5.701512507404394,1000.5161652527933,0,0
13.42,0.12221937,5.9978045999999985,7.705955499999999,1000.4988,5.701830112294145,1000.5159644271691,0,0
13.44,-0.025951877,5.926306200000001,7.814847,1000.48865,5.701969360211548,1000.5156886457105,0,0
13.46,0.06008698,6.0311704000000015,7.611267999999999,1000.52905,5.70174994072172,1000.5154930660884,0,0
13.48,0.22738262,6.174167,7.9000673,1000.52905,5.701874881465013,1000.5153690568968,0,0
13.5,0.33732070000000003,6.1408010000000015,7.625472,1000.50635,5.7018201334998775,1000.51522701377,0,0
13.52,0.25128597,6.217066,7.696488400000002,1000.4912,5.7018157737227275,1000.5150150072136,0,0
13.54,-0.006820916999999999,6.126501,7.5497217,1000.519,5.70149379352933,1000.5148420241943,0,0
13.56,0.07921873,6.0931354,8.037366,1000.51636,5.701647728041843,1000.5146946411116,0,0
13.58,-0.021412954,6.059776,7.975795,1000.53156,5.702077171202762,1000.5146251287117,0,0
13.6,0.0024789423,6.074075,7.620713999999999,1000.51385,5.702184247401218,1000.5145609170917,0,0
13.62,0.12196641,6.1217413,7.606510000000001,1000.5241,5.702046567946367,1000.5145385204027,0,0
13.64,0.0072445124,6.021643599999999,7.5023527,1000.53174,5.701392464427376,1000.5145806560147,0,0
13.66,0.031136826,6.069309,7.1993504,1000.50635,5.699861054618068,1000.5145882566801,0,0
13.68,-0.08836728,6.083609,7.578102,1000.5239,5.698187549228302,1000.5146284949036,0,0
13.7,0.031121641,6.0645432,8.132026,1000.5317,5.697280170556188,1000.5147255068166,0,0
13.72,-0.0119018555,6.04071,8.207777,1000.49615,5.697149944853822,1000.5147443547183,0,0
13.74,0.0932429,6.2981050000000005,7.5828342000000015,1000.52167,5.697013976628464,1000.5147859410472,0,0
13.76,-0.16009289,5.9930453,8.160430999999999,1000.54675,5.697430975859032,1000.5149377573397,0,0
13.78,-0.15054232,6.021644599999999,7.710661999999999,1000.5266,5.697625464273792,1000.5151138862892,0,0
13.8,0.01196529,6.074077,7.734333,1000.50885,5.6977261774798,1000.5152469638383,0,0
13.82,-0.06929943,6.0311785,7.791145299999997,1000.4937,5.697782456000196,1000.5152869820912,0,0
13.84,0.04062891,6.183708,7.3792515,1000.4987,5.697331034694558,1000.5152626290834,0,0
13.86,-0.15057231,5.950147,7.701189999999999,1000.5013,5.696651850510538,1000.5151908453012,0,0
13.88,-0.08844105,6.1217440000000005,7.871628,1000.51636,5.69627074336016,1000.5151316261084,0,0
13.9,-0.1936043,5.892949,7.989987400000001,1000.5038,5.696066469625207,1000.5150385061754,0,0
13.92,0.1218542,6.1884755999999985,7.800610499999999,1000.4937,5.696077431576782,1000.5148794067804,0,0
13.94,0.045370653,6.1169769999999986,7.8290167,1000.51654,5.696231663117981,1000.5147448046904,0,0
13.96,0.09316014,6.2552080000000005,7.3839817,1000.5113,5.695976403200112,1000.5146134689872,0,0
13.98,0.08359431,6.2170752999999985,7.478669,1000.50885,5.6954598564151135,1000.5144766722713,0,0
14.0,0.050127134,6.0550127,7.909499,1000.53406,5.695203783210025,1000.5144262986728,0,0
14.02,-0.045476064,6.021647,7.843217,1000.519,5.695027215946897,1000.5143982538859,0,0
14.04,-0.13152012,6.0311804,7.772199599999999,1000.52905,5.694818404627633,1000.5144262197985,0,0
14.06,-0.18888444,6.055013,7.5354795,1000.4987,5.694228412555553,1000.5143943160872,0,0
14.08,-0.025578365,6.050227,7.4266605,1000.50885,5.693117879017447,1000.5143461664304,0,0
14.1,-0.11636305,6.2313557,8.136824,1000.53406,5.6929444703897865,1000.5143745911943,0,0
14.12,0.017489538,6.1264910000000015,8.297794,1000.53656,5.693734798384429,1000.5144795747873,0,0
14.14,-0.0541804,6.064525,7.7344035999999985,1000.49615,5.694364156265173,1000.5145063518207,0,0
14.16,-0.011144087,6.0692916,7.9001093,1000.51636,5.695126873828587,1000.5145366851413,0,0
14.18,0.16095896,6.0311584000000025,7.5734386,1000.5013,5.695423798097668,1000.5145158355966,0,0
14.2,0.1466376,6.0406904,7.909583,1000.52155,5.695870677828751,1000.5145227359308,0,0
14.22,0.13710211,6.169387,7.511895,1000.5012,5.6959662861948885,1000.5144808712166,0,0
14.24,0.16102521,6.1264877,7.734414,1000.5038,5.696055910298692,1000.5144054284187,0,0
14.26,-0.020586252,6.121721,7.497696,1000.49615,5.695747615329246,1000.5142730476203,0,0
14.28,-0.08269207,5.9930224,7.862248399999999,1000.50885,5.6955187167165455,1000.5141365529756,0,0
14.3,-0.17826404,6.007322,7.739155999999999,1000.53143,5.695178779218758,1000.5140782027164,0,0
14.32,-0.077876106,6.0216208,7.7060165,1000.5063,5.694703144025862,1000.5139986428978,0,0
14.34,0.09422849,6.0454535000000025,7.8859262,1000.51886,5.6944356342525255,1000.5139458447277,0,0
14.36,0.10859193,6.1264844000000025,7.829116,1000.4987,5.694363070707076,1000.5138443072236,0,0
14.38,0.21376722,6.1884484,7.635007000000001,1000.4988,5.694231260175163,1000.5137004291788,0,0
14.4,0.3380617,6.264714,7.3935537,1000.53156,5.693769726529617,1000.5136375929933,0,0
14.42,0.15167947,5.993018599999999,8.151061,1000.5013,5.693894741428188,1000.5135376556053,0,0
14.44,0.17082725,6.245645,7.511919,1000.49115,5.693815160844282,1000.5133687553688,0,0
14.46,0.08958869,6.155081,7.6870947,1000.5038,5.693715936969514,1000.5131850676007,0,0
14.48,0.07527487,5.9882503,7.710768700000001,1000.5264,5.6934233887116035,1000.5130703348452,0,0
14.5,0.013160005,6.0168495,7.885943400000001,1000.4937,5.693285262568781,1000.5128992237774,0,0
14.52,0.0036230087,5.9930162000000005,7.781789,1000.51886,5.693082116952676,1000.512769488832,0,0
14.54,-0.1206278,5.911984,8.042183,1000.5087,5.693154978417895,1000.5126402048744,0,0
14.56,0.03235303,6.0692797,7.5498075,1000.52136,5.692857926461668,1000.512557360832,0,0
14.58,0.10795276,6.0979004,7.639680999999999,1000.4862,5.6924191972088325,1000.5123892733372,0,0
14.6,0.03624502,6.0454683,7.691758,1000.50635,5.691872947334201,1000.5122190098427,0,0
14.62,0.12227075,6.1503334,7.440834,1000.5013,5.690965845081723,1000.5120292565836,0,0
14.64,0.050560877,6.069302,7.819585000000001,1000.5038,5.690250980335637,1000.5118319652803,0,0
14.66,0.0027506948,6.059769,8.070507000000001,1000.5316,5.690110809272382,1000.5117288036093,0,0
14.68,-0.054616213,6.0073376,8.027897,1000.5038,5.690343023116921,1000.5116091062636,0,0
14.7,0.026630446,5.9787383,7.743831599999999,1000.51385,5.6903971785020335,1000.5115114089067,0,0
14.72,0.05529429,6.0121045,8.1415205,1000.51636,5.690995516230492,1000.5114425384503,0,0
14.74,-0.11678793,5.9167733,8.1320505,1000.53656,5.6919406192186495,1000.5114721073766,0,0
14.76,-0.011642978,6.1694010000000015,7.587592999999999,1000.5088,5.692610460292372,1000.5114886148932,0,0
14.78,-0.049892798,5.9692063,7.743827,1000.53656,5.693031220627568,1000.5115934579213,0,0
14.8,0.017013043000000002,6.0216384000000005,7.544982000000001,1000.519,5.6929722038665975,1000.5117127607724,0,0
14.82,-0.03557551,6.0264050000000005,7.758029,1000.49615,5.69284361362676,1000.5117621508326,0,0
14.84,-0.12162409,5.9263080000000015,7.9095287,1000.5391,5.692779589195564,1000.5119042081468,0,0
14.86,-0.011700749,6.083605,7.502369,1000.5113,5.692304827133813,1000.5120275548404,0,0
14.88,0.031307504,6.097904,7.918996000000001,1000.5063,5.692166819626753,1000.5121159247816,0,0
14.9,-0.064299285,5.997807,7.7248839999999985,1000.4936,5.691880769904867,1000.5121273511323,0,0
14.92,-0.04519148,6.050239,7.895321000000001,1000.52136,5.691811771968727,1000.5121706849916,0,0
14.94,-0.03086634,6.0121074,8.146243,1000.5063,5.692303883103169,1000.5121878403238,0,0
14.96,-0.1503693,6.0979056,7.8905850000000015,1000.5062,5.692975708611258,1000.5121814425502,0,0
14.98,-0.2316374,5.9930415,7.923725,1000.4811,5.6937295061959015,1000.5120638962842,0,0
15.0,-0.30812564,5.883411,7.829035799999999,1000.50366,5.694263157434388,1000.5119297783772,0,0
15.02,-0.14562374,5.983509,7.7012053,1000.50635,5.694507761152779,1000.511791184592,0,0
15.04,-0.18865481,5.9501433,7.786423700000001,1000.4988,5.694595571710344,1000.511621954859,0,0
15.06,0.0025259256,6.2027717,7.431342,1000.50635,5.694291778596924,1000.5114534444293,0,0
15.08,-0.33223534,5.954915,8.15569,1000.51636,5.694524240038321,1000.511322212214,0,0
15.1,-0.14105427,6.021646499999999,7.5780916,1000.4962,5.6943494156232095,1000.5111518154644,0,0
15.12,-0.035913005,6.155110400000001,7.909499,1000.53406,5.694526278631827,1000.5110837223607,0,0
15.14,-0.07417251,6.102679,7.881091,1000.5188,5.694900230249718,1000.5110513338935,0,0
15.16,-0.121989384,6.08838,7.786401,1000.50885,5.695274396630143,1000.5110147906422,0,0
15.18,-0.15546803,6.0121150000000005,7.6112259999999985,1000.52136,5.6952642140580805,1000.511019743779,0,0
15.2,-0.19850066,6.0025825999999975,7.6822405,1000.52136,5.695019894637826,1000.5110613452932,0,0
15.22,-0.17461944,5.9692173,7.7153797000000015,1000.51385,5.694580429650534,1000.511108143548,0,0
15.24,-0.13161784,6.0836153,7.634893400000001,1000.51636,5.693983976093308,1000.5111684011688,0,0
15.26,-0.093392715,6.140814,7.762721000000001,1000.5088,5.693532027996565,1000.5112131185588,0,0
15.28,-0.10775765,6.0168843,7.7863913,1000.48364,5.693089801287056,1000.5111533676177,0,0
15.3,-0.021731183,6.1217489999999986,7.625420599999999,1000.5062,5.6925286098183205,1000.5110827395627,0,0
15.32,-0.112568535,6.069317,7.942622999999997,1000.5012,5.692317443882339,1000.5109847547508,0,0
15.34,-0.103026666,6.09315,7.511790299999999,1000.5264,5.691743162258575,1000.5109536702538,0,0
15.36,-0.01700908,6.1503489999999985,7.5354614,1000.48096,5.69096218544235,1000.5108182267792,0,0
15.38,-0.03614275,6.1312833,7.909477000000001,1000.5038,5.690585234011956,1000.5106732833093,0,0
15.4,-0.08874388,6.097918,7.890538,1000.50616,5.690493745944679,1000.5105289634387,0,0
15.42,-0.19869158,6.0550194,8.008898,1000.4936,5.690799388732216,1000.5103404981328,0,0
15.44,-0.14135389,6.1169853,7.407625,1000.5063,5.690552076651331,1000.5101594243954,0,0
15.46,-0.11268952,6.107453,7.810049,1000.52136,5.69045585286137,1000.5100397497133,0,0
15.48,-0.1700627,6.0645537,7.6301394,1000.49115,5.690146373112444,1000.5098660020648,0,0
15.5,-0.04580888,6.1169867999999985,7.757967,1000.5188,5.689922666784664,1000.5097446410356,0,0
15.52,-0.2513571,5.9692235,7.502308,1000.4758,5.689174947248339,1000.5095152057221,0,0
15.54,-0.03628479,6.1884856,7.871589699999999,1000.49615,5.688844906354366,1000.5092643619388,0,0
15.56,-0.017182216,6.150353400000001,7.4312887,1000.5012,5.6881229083240274,1000.5090136846686,0,0
15.58,0.13709585,6.2170525,7.971132300000002,1000.49866,5.688020680214763,1000.508754912968,0,0
15.6,0.09411533,6.140787,7.8054314,1000.5087,5.688096569080905,1000.5085260646064,0,0
15.62,0.03201562,6.1741524000000005,8.032686,1000.4936,5.688744192324066,1000.5082701203618,0,0
15.64,-0.26907873,5.969189,7.810171,1000.51117,5.689275992545952,1000.5080544075937,0,0
15.66,0.065540835,6.2361155,7.393547,1000.5063,5.689368487991197,1000.5078574879248,0,0
15.68,-0.09693697,6.0073204,8.037429,1000.5087,5.689825466691371,1000.5076865227486,0,0
15.7,0.13252912,6.2218137,7.488242,1000.4781,5.6899831224843975,1000.507428946437,0,0
15.72,-0.044288114,6.121716,7.7486380000000015,1000.5012,5.690163619794843,1000.5071789278012,0,0
15.74,-0.087264195,6.178913,7.5782022,1000.519,5.690162394573671,1000.507000567194,0,0
15.76,-0.08245774,6.121714,7.497720699999999,1000.48846,5.689795756852566,1000.50677622172,0,0
15.78,-0.25449514,6.088347,7.786523,1000.4957,5.689539316092125,1000.5065381156604,0,0
15.8,-0.2305584,6.0978794,7.635025,1000.52386,5.689145241988706,1000.5063900839303,0,0
15.82,-0.21618123,6.112178,7.682372999999999,1000.5087,5.6887257456989575,1000.5062675987914,0,0
15.84,-0.029733405,6.3362050000000005,7.5450773,1000.5113,5.688354210463704,1000.5061774875667,0,0
15.86,-0.21611023,6.12171,7.8338795,1000.50366,5.688216958158407,1000.5060888023337,0,0
15.88,-0.14915527,6.121709,7.587694,1000.49615,5.687883966075933,1000.5059746603732,0,0
15.9,-0.12044755,6.097875,7.748667,1000.4936,5.687609172211503,1000.5058292557596,0,0
15.92,-0.12041426,6.0549746,7.7202635,1000.5188,5.6872852901841116,1000.5057474709224,0,0
15.94,-0.091699935,6.112173,7.7013289999999985,1000.4936,5.6869612934742495,1000.5056314749447,0,0
15.96,-0.015185356,6.1932034000000025,7.48355,1000.50073,5.6863918756363585,1000.5055113355893,0,0
15.98,-0.024713919,6.202736,7.6681940000000015,1000.5235,5.68591726907211,1000.5054699396463,0,0
16.0,-0.07725844,6.0263724000000005,8.132169000000001,1000.4985,5.686066829780192,1000.5054082704088,0,0
16.02,0.08051060000000003,6.226567299999999,7.914389599999999,1000.4959,5.686660201193348,1000.5053195496968,0,0
16.04,0.06143577400000001,6.2408657,7.597189,1000.49866,5.687148086313701,1000.5052171816968,0,0
16.06,0.04233873,6.2503977,7.4598923,1000.49084,5.687333824373977,1000.5050749714778,0,0
16.08,-0.006157279,6.197983,7.819644,1000.51373,5.687762567979813,1000.504980472631,0,0
16.099999999999998,-0.0013718903,6.2361155,7.582924,1000.4859,5.688071446450657,1000.5048282837488,0,0
16.12,0.16592757,6.231349,7.341469999999997,1000.4886,5.687884784430652,1000.5046353878304,0,0
16.14,0.027318403,6.1884494000000005,7.58766,1000.48846,5.6875943717971875,1000.504406713601,0,0
16.16,-0.03481111,6.2122827,8.004287,1000.5134,5.687921887914263,1000.504237032883,0,0
16.18,-0.24033673,6.097885,8.042163,1000.53107,5.688717785672956,1000.5041837016825,0,0
16.2,-0.19731253,6.1264844000000025,7.895397999999999,1000.48584,5.689716916916892,1000.5040705409073,0,0
16.22,0.08948322,6.3791113,7.412489,1000.50336,5.690443868157728,1000.503967994099,0,0
16.24,0.027351707000000003,6.250414,7.616069,1000.50336,5.691078764883734,1000.5038751949603,0,0
16.259999999999998,0.11339454,6.2075152000000005,7.9474773,1000.4858,5.692113286202629,1000.50372812694,0,0
16.28,0.18031578,6.226581,7.777039500000001,1000.4957,5.6932459703575145,1000.50356927638,0,0
16.3,0.1803237,6.174149,6.6833925,1000.47327,5.692666303382072,1000.5033198386302,0,0
16.32,-0.19727486,6.159849,6.8680353,1000.49585,5.690840163838981,1000.5030725440157,0,0
16.34,-0.57965285,5.9644203000000005,7.000599,1000.50336,5.687892858541908,1000.5028550693352,0,0
16.36,-0.7230401999999999,6.1693816,7.260992,1000.52386,5.684672773881093,1000.5027385264584,0,0
16.38,-0.37888843,6.293312,7.256258,1000.511,5.681342156707166,1000.5026652904772,0,0
16.4,0.12299855,7.0273614,7.464573,1000.52124,5.679256322618707,1000.5026674481182,0,0
16.419999999999998,0.03696683,6.6746364,8.151061,1000.52356,5.678865106231737,1000.5027445677966,0,0
16.44,-0.20679642,6.4315414,7.573465299999999,1000.48834,5.6787313650520295,1000.5027608543004,0,0
16.46,-0.034715578,6.522106,7.938014999999999,1000.50336,5.679523469706616,1000.5027774019796,0,0
16.48,-0.42187572,6.307611,8.345174,1000.4784,5.68153708281493,1000.502704264862,0,0
16.5,-0.31671292,6.3981752,7.3746214,1000.50854,5.683166053777982,1000.5026606495514,0,0
16.52,-0.3071477,6.6889353000000025,7.8764687,1000.506,5.685633215632652,1000.5026341327248,0,0
16.54,-0.5556911999999999,6.431541,7.502452000000001,1000.4936,5.687916465884005,1000.5025781795784,0,0
16.56,-0.56524444,6.5221050000000025,7.597140299999999,1000.49854,5.6903016118801615,1000.5025142019321,0,0
16.58,-0.7286186,6.3076315,7.0620747,1000.4959,5.6916628555540525,1000.5024338601567,0,0
16.599999999999998,-0.79556376,6.045471,7.298792,1000.4985,5.6921432382838,1000.5023487082676,0,0
16.62,-0.90075606,6.155103,7.743822,1000.5135,5.69272123119012,1000.5023136127086,0,0
16.64,-0.7191393,6.4363303,7.204098700000001,1000.50854,5.692872691838851,1000.5023050172667,0,0
16.66,-0.9246987,6.140805,7.73435,1000.49084,5.6931282426272585,1000.5022561482724,0,0
16.68,-0.80523497,6.102672599999999,7.388736,1000.50604,5.692847101294267,1000.502226589495,0,0
16.7,-0.771799,6.1837044,7.000512,1000.4808,5.691584509727132,1000.5021233356372,0,0
16.72,-0.67623085,6.169406,7.459746400000001,1000.5263,5.690148464042717,1000.5021191365199,0,0
16.74,-0.8674509,6.140807,7.312977,1000.50867,5.688324609938955,1000.5021390092886,0,0
16.759999999999998,-0.6619541999999999,5.678452,8.193572999999999,1000.5108,5.687000733387443,1000.5021877484337,0,0
16.78,-0.47078127,5.7022853,8.098884,1000.4985,5.685968040553652,1000.5022175384476,0,0
16.8,-0.23660225,5.9978127,7.8858320000000015,1000.5312,5.685184453678052,1000.5023481977656,0,0
16.82,0.016704679,6.074078,7.341373399999997,1000.49084,5.683829826261669,1000.5024222188272,0,0
16.84,-0.1601777,6.0645456,7.5402164,1000.5135,5.682285957466825,1000.5025275038491,0,0
16.86,-0.2271246,6.102679,7.5307445999999985,1000.5035,5.680617677308633,1000.5026240346808,0,0
16.88,-0.227156,6.2885756,8.018385,1000.4959,5.679878607453581,1000.5026851227988,0,0
16.9,-0.29887924,6.1312795,7.989977,1000.54395,5.6797201494660925,1000.5028876538181,0,0
16.919999999999998,-0.32758248,6.164646,8.444477000000001,1000.5134,5.6808746163885315,1000.5031044546724,0,0
16.94,-0.54748654,5.821455,7.653828599999999,1000.50574,5.681462724138756,1000.5033055078708,0,0
16.96,-0.53316635,6.2313795,7.279808999999997,1000.48816,5.6814769196411055,1000.5034286346485,0,0
16.98,-0.72438633,5.6355605,8.354517,1000.49084,5.682036032596742,1000.5034921103844,0,0
17.0,-0.78655005,5.640328,8.326108,1000.5413,5.683041043124888,1000.5036843059474,0,0
17.02,-0.5093492999999999,5.9215550000000015,7.5686007,1000.4959,5.6834717830268,1000.5038261064453,0,0
17.04,-0.385104,6.603173299999999,7.4975815,1000.49835,5.6841727473448165,1000.5039316873823,0,0
17.06,-0.4472675999999999,6.2742815,8.411319,1000.506,5.686159562430066,1000.5040324246236,0,0
17.08,-0.99177635,6.026411,7.559161,1000.506,5.6876437039239605,1000.5041285193213,0,0
17.099999999999998,-0.40865168,6.4506354,8.345072,1000.51605,5.69041870376322,1000.5042563459264,0,0
17.12,-0.70023113,6.464935,7.758004,1000.52875,5.6934251597661385,1000.5044574706695,0,0
17.14,-0.97269136,6.002579,8.108349,1000.50574,5.696650964412576,1000.5046398015982,0,0
17.16,-0.6906965,6.193242,7.4218597000000015,1000.50854,5.699135903262391,1000.504814949921,0,0
17.18,-1.0348501,5.969214,7.639642,1000.50073,5.701080133210659,1000.5049550051593,0,0
17.2,-0.7241744000000001,6.30764,7.223013000000001,1000.49084,5.702262290902528,1000.5050279439492,0,0
17.22,-0.9918548,6.3171735,7.710655,1000.506,5.7035990979318,1000.5050958920656,0,0
17.24,-0.8245731,6.1741767,7.526012400000001,1000.506,5.7045526673766425,1000.5051591858099,0,0
17.259999999999998,-0.7815662,6.2838078,7.1851350000000025,1000.511,5.70476474144221,1000.5052361390937,0,0
17.28,-0.6668615999999999,6.1408114000000005,7.9521065,1000.49066,5.705343568769092,1000.5052516609143,0,0
17.3,-0.6095154,6.007348,7.847949000000002,1000.49084,5.7058967502869935,1000.5052134940158,0,0
17.32,-0.81983966,5.764253599999999,7.9473715,1000.5084,5.706321053933767,1000.5051912411658,0,0
17.34,-0.7816097,5.9453835,7.208802,1000.49567,5.705642630581503,1000.5051373020793,0,0
17.36,-0.50917447,6.055014,7.786399,1000.5135,5.705031330234134,1000.505119747215,0,0
17.38,-0.6860371999999999,5.7594886,7.4502554,1000.49835,5.703577603476287,1000.5050798646467,0,0
17.4,-0.43750024,6.1741790000000005,7.2703466,1000.5058,5.701605958197843,1000.505047216897,0,0
17.419999999999998,-0.5044282,6.00735,7.2087984,1000.49054,5.69886997756015,1000.5049661433644,0,0
17.44,-0.27022782,6.2742767,8.032584,1000.5084,5.697128884132964,1000.5049068686748,0,0
17.46,-0.4853325,6.2313785999999975,7.492861,1000.49567,5.695361350176084,1000.504821240832,0,0
17.48,-0.27503043,6.307644,7.644360499999999,1000.5337,5.6939032573529245,1000.5048495436032,0,0
17.5,-0.1077487,6.2218456,8.051518,1000.5336,5.693267145228464,1000.5049780535744,0,0
17.52,-0.232035,6.1360483,7.7816563,1000.5159,5.692812210944681,1000.5051309239923,0,0
17.54,0.01650624,6.226613,7.729577000000001,1000.49817,5.692546059054713,1000.5052409409673,0,0
17.56,0.24114417,6.3743763,7.275073,1000.5361,5.69192810797745,1000.5054492445787,0,0
17.58,0.017090112,6.093135,7.743833500000001,1000.5185,5.691371479877597,1000.5056802843692,0,0
17.599999999999994,-0.04503782,5.9978037,7.62074,1000.51355,5.690547636703433,1000.5059127621048,0,0
17.62,-0.016343161000000002,6.1789327000000025,7.469239999999999,1000.50085,5.689481823436988,1000.5060999534876,0,0
17.64,-0.06412849999999999,5.9930363,7.407694999999999,1000.49817,5.6878627947765485,1000.5062368079616,0,0
17.66,0.021920651,6.1217337,8.108386999999999,1000.4931,5.687072714677539,1000.506310440066,0,0
17.68,0.19878606,6.2408967,7.7485743,1000.5183,5.686584562226435,1000.5064186638092,0,0
17.7,0.22269695,6.37436,7.360354400000001,1000.50574,5.6859245919076935,1000.5065118471186,0,0
17.72,-0.0067216903,6.226597,7.753310000000001,1000.503,5.685540458582373,1000.5065815412413,0,0
17.74,-0.1214219,6.2218294,7.535528999999999,1000.5185,5.685045739997691,1000.5066860294196,0,0
17.759999999999994,-0.28870794,6.1217318,7.6633587,1000.49054,5.684537431631527,1000.5067202294683,0,0
17.78,-0.18353319,6.0645323,7.720173,1000.53864,5.684032421712044,1000.5068653598053,0,0
17.8,-0.13572565,6.140797,7.8764095,1000.4929,5.683883917796787,1000.5069433216755,0,0
17.82,-0.07357474,6.236128,7.7107066999999985,1000.5058,5.683903109999656,1000.5070080928264,0,0
17.84,-0.16437674,6.221828,7.597082,1000.5032,5.6838707702783084,1000.5070516154808,0,0
17.86,-0.26952209999999993,6.112197,8.079991999999999,1000.5107,5.684445425140238,1000.5071032062823,0,0
17.88,-0.44636136,6.09313,7.9711018,1000.4982,5.685363386071037,1000.5071167403723,0,0
17.9,-0.3364156,6.159862,7.4597874000000015,1000.4856,5.685827023510617,1000.5070512388287,0,0
17.919999999999995,-0.3029411,6.2742586,7.8953543,1000.5058,5.6867380086754,1000.5069888572052,0,0
17.94,-0.25991336,5.959666,7.9853086,1000.52075,5.687787682035276,1000.5069832769163,0,0
17.96,-0.17864476,6.093129,7.388775,1000.49554,5.688148160985238,1000.5069371503764,0,0
17.98,-0.126055,6.350523,7.308291400000001,1000.4728,5.688114619261946,1000.5067734992244,0,0
18.0,-0.23597705,6.016864,8.113141,1000.49066,5.688607569736806,1000.5065708884692,0,0
18.02,-0.16426648,6.226592,7.601826700000001,1000.51324,5.688990804414289,1000.5064158704074,0,0
18.04,-0.10211794,6.3123894,7.545015299999997,1000.5081,5.68929671972105,1000.5062849593146,0,0
18.06,-0.1546815,6.264724299999999,7.246749,1000.4956,5.688998263126918,1000.5061308204196,0,0
18.08,-0.26957777,6.169397,7.649156599999999,1000.4957,5.6886869920416405,1000.5059570723382,0,0
18.1,-0.3221502,6.1598635,7.6917667,1000.5183,5.688425395711781,1000.5058479830733,0,0
18.12,-0.19787021,6.2551947,7.535532000000001,1000.48285,5.688075379879766,1000.5056687990594,0,0
18.14,-0.016232908,6.402958,7.412438400000001,1000.48816,5.687647597134977,1000.5054474403884,0,0
18.16,-0.3173561,6.269494,7.5544699999999985,1000.49054,5.687209313403473,1000.5051981810808,0,0
18.18,-0.33647059999999995,6.545954,7.4077034,1000.5108,5.6869066662086265,1000.5049981021052,0,0
18.2,-0.19785085,6.5602535999999985,7.952161999999999,1000.5132,5.6875970143993175,1000.5048508391546,0,0
18.22,-0.42249623,5.9930334,8.146272999999999,1000.5283,5.688770026848633,1000.5048051345906,0,0
18.24,-0.28865668,6.1884623,7.9095526,1000.5133,5.6902091433295166,1000.5047953315532,0,0
18.26,-0.36512846,6.2933264000000015,6.905859,1000.498,5.690430455669098,1000.504762206396,0,0
18.28,-0.41292232,6.0692983,7.5165977,1000.5182,5.6902388772408425,1000.5047813130636,0,0
18.3,-0.541972,6.0692983,7.611286,1000.5132,5.689849657362888,1000.5048285029884,0,0
18.32,-0.36511546,6.207528,7.611287,1000.5159,5.689450330828514,1000.5049100573954,0,0
18.34,-0.5180613000000001,6.202761,7.540271799999997,1000.52075,5.688937491852741,1000.5050391426623,0,0
18.36,-0.39856267,6.3505244,7.6681004,1000.5107,5.688714633312994,1000.5051735814908,0,0
18.38,-0.63754815,6.274259,7.5118656,1000.50574,5.688424317605112,1000.5052944107463,0,0
18.4,-0.4941476,6.4363220000000005,7.0100193,1000.5058,5.68749609799098,1000.5054029955977,0,0
18.42,-0.45112467,6.4315553,7.5544767,1000.5182,5.686843574429162,1000.5055450103882,0,0
18.44,-0.7809254,6.0883629999999975,7.024223299999999,1000.4982,5.685182935423577,1000.5056440526196,0,0
18.46,-0.64230734,6.269492,7.2988195,1000.5083,5.683292010159707,1000.505741127746,1,2
18.48,-0.48934883,6.2933254000000005,7.384039,1000.5107,5.681352324847162,1000.5058447552676,1,2
18.5,-0.44154537,6.312391000000001,7.5071344,1000.4957,5.679592429189409,1000.5058997994272,1,2
18.52,-0.3650638,6.3505235,7.2940865000000015,1000.526,5.677706459281287,1000.5060207971684,1,2
18.54,-0.16908738,6.240892400000001,7.2751493,1000.5081,5.675525888279225,1000.5061351959024,1,2
18.56,-0.087825015,6.0645294000000005,7.5544796,1000.5107,5.673303270302402,1000.5062527119188,1,2
18.58,0.07992126,6.078818,6.7591410000000005,1000.531,5.669810547242216,1000.506445639308,1,2
18.6,0.9546453,6.040685,7.3698807,1000.5434,5.66621820158774,1000.5067491456476,1,2
18.62,1.1841002,6.0406847,8.245747999999999,1000.5183,5.664033005538081,1000.5070589069247,1,2
18.64,1.2080247,6.3505106,6.815961,1000.5183,5.6612365324863125,1000.5073730799243,1,2
18.66,1.4709296,6.93203,6.0016440000000015,1000.5032,5.657686445508463,1000.5076356600991,1,2
18.68,0.9881952,6.4601407,6.782823599999999,1000.5234,5.653758840099294,1000.5079244275653,1,2
18.7,1.4901017,6.4601398,7.4551115,1000.5359,5.650670844550924,1000.5082802945593,1,2
18.72,1.227231,6.698467,6.9958754,1000.5159,5.647892067751418,1000.5086221695744,1,2
18.74,0.60109955,6.746132000000001,6.494031,1000.51575,5.644606901343473,1000.5089499105272,1,2
18.76,0.30477452,6.588835,7.5261326,1000.5383,5.642183559860986,1000.5093451627556,1,2
18.78,0.57723904,6.5888342999999985,8.667126,1000.55365,5.642390903763312,1000.5098539050383,1,2
18.8,0.37173462,6.650799,9.022209,1000.54114,5.645571013920067,1000.5104160596616,1,2
18.82,0.20446573,6.279007,10.309969,1000.55615,5.6531506678972505,1000.5110774216716,1,2
18.84,-0.4838032,6.002546,10.437799,1000.5459,5.664543005177338,1000.5117871624257,1,2
18.86,-0.31648296,6.326671599999999,8.723948,1000.52325,5.676625216257293,1000.5124555555713,1,2
18.88,0.8641428,6.5983649999999985,8.870714999999997,1000.5383,5.689914088108339,1000.5131391877546,1,2
18.9,0.4817813,5.158864,9.680302,1000.52075,5.703993362754723,1000.513770644076,1,2
18.92,-0.9138986,4.1864862,8.132153,1000.50824,5.715004751619625,1000.5143086885628,1,2
18.94,-1.1719823,4.458179,7.9001694,1000.4957,5.723171395098523,1000.5147171133923,1,2
18.96,-0.4167533,4.7060394,7.2278852,1000.51575,5.72773148533147,1000.5150817159638,1,2
18.98,-0.2685552,4.534443,8.402021000000001,1000.54614,5.730992943308321,1000.5155156886183,1,2
19.0,-0.34023088,4.0816193,7.4125320000000015,1000.52094,5.73084531604792,1000.5159186743767,1,2
19.02,0.57751006,5.335223,7.1900167,1000.5133,5.72873151237237,1000.5162653253653,1,2
19.04,-0.12987381,5.4305544,6.8302039999999975,1000.54114,5.724378925361768,1000.5166611750074,1,2
19.06,-0.7129857,4.5582733,7.1900214999999985,1000.5157,5.717681478729237,1000.5170074875213,1,2
19.08,-1.57875,4.787083,8.633958,1000.5486,5.711959774229735,1000.5174272223034,1,2
19.1,-1.1007721,5.4734674000000005,8.179454,1000.54596,5.7069245029961735,1000.5179008179564,1,2
19.12,-1.2489493,5.3829026,9.434072,1000.5512,5.704654863580824,1000.5184391641307,1,2
19.14,-1.449703,5.3495374,9.306242,1000.56866,5.704625880413342,1000.5190956418196,1,2
19.16,-1.3110912,5.911991,9.576103,1000.5335,5.7076128966101685,1000.5197275611947,1,2
19.18,-0.732738,4.925314,10.347811,1000.5359,5.713573009138093,1000.5203441459346,1,2
19.2,0.28535777,4.0911665,10.063746,1000.5258,5.720857745959463,1000.5209086012852,1,2
19.22,0.32359368,4.1960305999999985,9.135802,1000.54614,5.727605738139576,1000.5214981870683,1,2
19.24,0.3092516,4.901481,7.232572599999999,1000.498,5.7311197039018635,1000.5219345515933,1,2
19.26,-0.03011544,4.8919477,7.227837599999999,1000.50336,5.731732909834022,1000.5222532549013,1,2
19.28,-0.22131076,4.033968,8.283609,1000.5258,5.730796205138866,1000.5225476294268,1,2
19.3,0.08459525,3.9624698,9.107396,1000.55615,5.7299818157258064,1000.5229287072916,1,2
19.32,0.08459525,3.9624698,9.107396,1000.52576,5.729278435897897,1000.5232756203463,1,2
19.34,0.08459525,3.9624698,9.107396,1000.52094,5.72867567630681,1000.5235737444887,1,2
19.36,0.08459525,3.9624698,9.107396,1000.536,5.728163994691503,1000.5238819015004,1,2
19.38,0.08459525,3.9624698,9.107396,1000.5283,5.727734631629411,1000.5241700941907,1,2
19.4,-0.3217025,5.6069317000000005,8.312014999999999,1000.5383,5.727585459831783,1000.5244756089128,1,2
19.42,-0.55591494,5.4258027,8.605547,1000.55115,5.728010568452655,1000.5248415895293,1,2
19.44,-0.5128994,5.430569599999999,9.61871,1000.5562,5.730748448670108,1000.5252778602794,1,2
19.46,-0.22611308,5.2351413,9.561897,1000.5889,5.735199577212054,1000.5258923888173,1,2
19.48,-1.4879847,5.2637405,9.396192,1000.55615,5.741083773652191,1000.5265443136336,1,2
19.5,-1.7078574,5.354305,9.09319,1000.54364,5.747833445039518,1000.5271818988722,1,2
19.52,-1.3876132,4.5106244,9.3772545,1000.5259,5.754924551533812,1000.527740654353,1,2
19.54,-2.4774115,3.676477,9.737069,1000.55347,5.7627095865832425,1000.5283269963403,1,2
19.56,-2.2671025,3.8909726,9.670786,1000.5308,5.7710154475748245,1000.5288539909334,1,2
19.58,-1.51713,4.815696,8.184142,1000.4879,5.777565908049057,1000.5291722089884,1,2
19.6,-1.063069,4.348573,9.192569,1000.5158,5.783806199704312,1000.5294052465096,1,2
19.62,-1.6175464,3.8671517,9.296723,1000.561,5.78969468360616,1000.529724899576,1,2
19.64,-1.412034,4.319975,9.239908,1000.49054,5.795457134641162,1000.5298662793867,1,2
19.66,-1.9951904,3.8290203,8.539214,1000.50824,5.799573396792297,1000.5299133479816,1,2
19.68,-1.7848942,4.029216,7.152033,1000.50073,5.799792619100512,1000.5298498777396,1,2
19.7,-0.50392705,4.787099,8.946371000000003,1000.5308,5.800222414540013,1000.5297972158736,1,2
19.72,-0.29363596,4.7489667,9.003181,1000.5308,5.800886623256472,1000.5297542938721,1,2
19.74,-0.34623793,5.073093,8.681239,1000.50824,5.801501344284933,1000.5296389165334,1,2
19.76,-0.3032387,5.711812,9.258836,1000.5284,5.8037792941812025,1000.5295325090174,1,2
19.78,-0.37973076,5.5878825,8.401907000000001,1000.50073,5.8058858644029465,1000.5293347983037,1,2
19.8,-0.47056484,5.3876870000000014,8.174653999999999,1000.54364,5.8072185178724745,1000.5292115998433,1,2
19.82,0.016948551,6.121738,8.941625,1000.5058,5.810013199538427,1000.529018459924,1,2
19.84,-0.059546083,5.135061,10.901667,1000.55615,5.8166133880186415,1000.528945475036,1,2
19.86,-0.8386781999999999,4.086419,9.074184,1000.54114,5.8222633923788765,1000.5289248858785,1,2
19.88,-0.3176986,4.810936,8.771181,1000.5185,5.827098859495377,1000.5288691637096,1,2
19.9,-0.5232505000000001,4.08642,8.572333,1000.49066,5.83016198887398,1000.5286823746122,1,2
19.92,-0.29861617,3.96249,7.7296085,1000.48566,5.829944353290143,1000.528362447217,1,2
19.94,-0.3990149000000001,4.086421,7.8953114,1000.4957,5.827260684084405,1000.5279621745607,1,2
19.96,-0.26997668,4.1436199999999985,8.259857,1000.5108,5.823126367139019,1000.5275467098128,1,2
19.98,-0.05968812,4.3676486,8.075214,1000.5233,5.817592180372668,1000.5271643170064,1,2
20.0,0.64770126,4.844305,8.591262,1000.5234,5.812302678893494,1000.5268128831816,1,2
20.02,1.135226,5.0683336,8.2835245,1000.5159,5.807026101771518,1000.5264630698745,1,2
20.04,0.7289186,4.610745,8.955807,1000.5284,5.802449518797209,1000.5261609477848,1,2
20.06,1.1065066,4.8538394,8.889525,1000.531,5.798693459494226,1000.525911413294,1,2
20.08,1.4854406,5.273264,8.828099,1000.5158,5.796094226336288,1000.5256545235304,1,2
20.1,1.4806917,5.4639254,8.349927000000001,1000.5133,5.7938991669228885,1000.5253830594504,1,2
20.12,1.3803530000000002,5.5687885,8.127414,1000.503,5.791779038434718,1000.5250626147753,1,2
20.14,0.9358703000000002,5.4686900000000005,8.42095,1000.5182,5.7900152891496965,1000.5247547644472,1,2
20.16,0.52961797,5.6498184,8.908597,1000.5259,5.789566296772658,1000.5244868707454,1,2
20.18,0.5631013000000001,6.193205,9.164257,1000.5083,5.7913461636774635,1000.5241918871357,1,2
20.2,0.9598683,6.369567,8.761836,1000.5108,5.794672972389349,1000.5238830288243,1,2
20.22,0.6826685,6.2742352,7.3557205,1000.4981,5.796896571573251,1000.5235173027166,1,2
20.24,0.40069306,6.4887295,7.74868,1000.50824,5.799015427824421,1000.5231391488384,1,2
20.26,-0.33537203,6.116937,7.729744,1000.5158,5.800511008473125,1000.5227785911355,1,2
20.28,-0.7942022,5.2589564000000015,7.8954515,1000.5284,5.800737081129345,1000.5224802394214,1,2
20.3,-0.7415811,5.249422,7.772361,1000.5107,5.799608954361196,1000.5221742069847,1,2
20.32,-1.0713567,5.092125,6.8775606,1000.4956,5.795658799945833,1000.5218081295784,1,2
20.34,-1.4154757,5.0253925000000015,7.7486944000000015,1000.5486,5.7907241066991615,1000.521581114316,1,2
20.36,-1.2051313999999995,5.3399844000000005,6.9391136,1000.503,5.783887681107254,1000.5213136316183,1,2
20.38,-0.7223341,5.6784089999999985,8.776066,1000.5006,5.7788028309080985,1000.5210027148332,1,2
20.4,-0.21563986,5.3161497,8.359441,1000.5132,5.774101628539702,1000.520699898988,1,2
20.42,-0.024427086,5.120721,9.557247,1000.55615,5.7716969330240575,1000.520559951271,1,2
20.44,-0.33030158,4.891925,9.036467,1000.5385,5.770162571453864,1000.5205008776436,1,2
20.46,0.21463113,5.268482,8.529888,1000.5334,5.768877152617142,1000.5204951170268,1,2
20.48,-0.0004208833,5.3781123,7.502526299999999,1000.52856,5.766159743136639,1000.5205190605247,1,2
20.5,-0.33019233,5.4067106,8.151142,1000.4929,5.763342075146077,1000.5204407883816,0,0
20.52,0.17649779999999998,5.463908,9.055417,1000.5434,5.76208952002846,1000.5204542802776,0,0
20.54,0.21476714,5.6164374000000015,8.421009,1000.5284,5.76128245249895,1000.520494806308,0,0
20.56,0.13279592,5.5354237999999985,8.302584,1000.5284,5.760570819534309,1000.5205590738057,0,0
20.58,0.4243657,5.69272,8.7050085,1000.5133,5.760840367046863,1000.5205897279013,0,0
20.6,0.26663488,5.845249,7.630298599999999,1000.49817,5.760325133307238,1000.5205361028392,0,0
20.62,0.7207191999999999,6.0168457,7.5734863,1000.531,5.759292655481994,1000.5205263897644,0,0
20.64,0.43393344,5.8118834,7.8244095,1000.52075,5.757925236260077,1000.5205186122882,0,0
20.66,0.33833998,5.8261833,7.881222699999999,1000.51575,5.756371423303452,1000.5204945731059,0,0
20.68,0.43393797,5.869082,7.6587067,1000.5056,5.754350738780707,1000.5204197116216,0,0
20.7,0.41482162,5.897681,8.009052,1000.5054,5.7525404284202,1000.5202994930521,0,0
20.72,0.5773377,6.1026435,7.938036,1000.54846,5.751077318698592,1000.5202946457488,0,0
20.74,0.4196065,5.9501133,7.8149424,1000.52826,5.7495144812734775,1000.5203190379473,0,0
20.76,0.40526962,5.997779,7.819676400000001,1000.498,5.7479358162520855,1000.5202602423567,0,0
20.78,0.36703372,5.945346400000001,8.165288,1000.51825,5.746855584178988,1000.5202010537007,0,0
20.8,0.10414688,5.6879525,7.952241000000001,1000.49554,5.745534805570728,1000.5200599748113,0,0
20.82,0.113709256,5.5401893,7.5829573,1000.5258,5.7432045470607065,1000.5199559815946,0,0
20.84,0.2236466,5.587855,7.6776456999999985,1000.5006,5.740212133525847,1000.5197944116553,0,0
20.86,0.41484177,5.8595486,7.8764906,1000.5383,5.737325726406405,1000.5197182685744,0,0
20.88,0.5391191999999999,6.0120783,7.8812256,1000.4929,5.7347542381170795,1000.5195544427812,0,0
20.9,0.48654324,6.212274,7.8528194,1000.5054,5.732673031514016,1000.5193587303168,0,0
20.92,0.3813908,6.193207,7.516677,1000.5107,5.730454967857527,1000.5191546273538,0,0
20.94,0.24277885,6.0788093,8.009055,1000.5258,5.728769830491414,1000.5189982053172,0,0
20.96,0.29535925,6.1741410000000005,7.6255684000000015,1000.5132,5.7270597295578005,1000.5188391172667,0,0
20.98,0.30014092,6.0597434,7.592428,1000.5205,5.725131465443258,1000.5187045262427,0,0
21.0,0.12807097,5.8118824999999985,8.170025,1000.50793,5.723658212900991,1000.5185468133199,0,0
21.02,0.10417433,5.8357153,7.8859615,1000.5231,5.722142961895745,1000.5184238496533,0,0
21.04,0.113736495,5.8738480000000015,8.042197,1000.4827,5.720904836716418,1000.5181865930984,0,0
21.06,0.19021587,5.9072137000000025,7.814946000000001,1000.4953,5.719580749596772,1000.5178945614715,0,0
21.08,0.12404944,5.878596,7.824484,1000.4953,5.7181633036927195,1000.5175551819048,0,0
21.1,0.06671958,5.9262605000000015,8.132222,1000.55084,5.717240402018306,1000.5173751314647,0,0
21.12,0.13844834,5.9310265,8.070678,1000.50543,5.7166619531965495,1000.5171730364224,0,0
21.14,0.32489437,5.988224,7.7771482,1000.50793,5.715983034494388,1000.516961190312,0,0
21.16,0.32014227,6.0692554,7.8955107,1000.5029,5.715514986067643,1000.516723382804,0,0
21.18,0.4779095,6.031121700000001,7.554637,1000.5281,5.714642164239048,1000.5165542119116,0,0
21.2,0.5257313,5.945323,7.980735000000001,1000.50793,5.7140115678365175,1000.5163736853481,0,0
21.22,0.5305389,5.9167233,7.848174,1000.50793,5.713342040113747,1000.5161837748094,0,0
21.24,0.40629572,6.007287,7.530972500000002,1000.5356,5.712222930006665,1000.516085868268,0,0
21.26,0.30117178,5.9405546,7.497833999999999,1000.5205,5.710562420065494,1000.5160152489224,0,0
21.28,0.05743350000000001,5.721292,7.881325,1000.5004,5.708779688935738,1000.5158966347726,0,0
21.3,0.19130562,5.926253,7.526247,1000.51294,5.706567235906074,1000.5157811834243,0,0
21.32,0.08617376,5.8690534,8.288488000000001,1000.5483,5.705178329458853,1000.5157962383528,0,0
21.34,0.34432477,6.0454154,8.0281,1000.50037,5.704312715402964,1000.5157540064296,0,0
21.36,0.7840905,6.364774,7.658819,1000.518,5.703774343240838,1000.5157247758792,0,0
21.38,0.7124291,6.2265434,8.089652000000001,1000.51294,5.704034507577706,1000.5156889225716,0,0
21.4,0.76980853,6.2027097,7.639886,1000.52057,5.704246082198138,1000.5156748144676,0,0
21.42,0.8845675,6.6507645,7.516796,1000.51044,5.704839447313309,1000.5156435032152,0,0
21.44,0.48309565,6.4982343,7.739314999999999,1000.5381,5.7058544963209865,1000.5156966799804,0,0
21.46,0.2584647,6.08831,8.113336,1000.5255,5.707300351785671,1000.5157789589224,0,0
21.48,-0.047401145,6.3314033,7.4410534,1000.49786,5.708338754796653,1000.5157871523436,0,0
21.5,0.029105455,5.9548445,7.398447,1000.5306,5.708445962322522,1000.515847718302,0,0
21.52,-0.009109184,6.0597086,8.231703999999999,1000.5356,5.709235481609819,1000.515972342597,0,0
21.54,0.11041959,6.140739,7.403187,1000.52783,5.7093728808395285,1000.5161251481908,0,0
21.56,0.11448808,6.1216903,7.3036985,1000.5204,5.708749510917097,1000.5162755566797,0,0
21.58,0.018892765,6.0740247000000025,7.2468863,1000.52295,5.707300641752727,1000.5164324856166,0,0
21.6,0.17662798,6.1693554000000015,7.3983880000000015,1000.5076,5.705499577627525,1000.5165393510773,0,0
21.62,0.0332347,6.188422,8.023328999999999,1000.5506,5.7044287670510405,1000.516756395734,0,0
21.64,-0.05758029200000001,6.25992,7.351043700000001,1000.5253,5.703015135821188,1000.5169789333684,0,0
21.66,0.023677617,6.240854,7.474137299999999,1000.533,5.7014734251061965,1000.5172332434618,0,0
21.68,-0.1101552,6.2217875,7.9854536,1000.50507,5.700627677135298,1000.5174141641838,0,0
21.7,-0.18185104,6.188422,7.5262164999999985,1000.50256,5.6996136281285406,1000.5175205507428,0,0
21.72,-0.29178527,6.1073904,7.886032000000001,1000.51776,5.6989393858237625,1000.5176154159236,0,0
21.74,-0.6407101,5.8928947,7.701390299999999,1000.5355,5.698026847518071,1000.5177636233,0,0
21.76,-0.43517694,6.288519,7.739265400000002,1000.5405,5.697453866901947,1000.5179764302941,0,0
21.78,-0.4495151,6.0120587,7.7582026,1000.51514,5.696858260564829,1000.5181542554049,0,0
21.8,-0.26788127,5.8928947,8.141689,1000.5303,5.696720362100103,1000.5183551063533,0,0
21.82,0.19576089,6.321885,7.3084345,1000.49994,5.696179242887695,1000.5184662838684,0,0
21.84,0.01890941,6.2122545,7.5309525,1000.5026,5.695485978576998,1000.5185074016988,0,0
21.86,-0.014548272,6.0501914,7.848157,1000.5405,5.694966212226326,1000.5186229067676,0,0
21.88,-0.03366591,6.636478,7.2847633,1000.5124,5.694487323070916,1000.5187025645822,0,0
21.9,-0.22007696,6.39815,7.6587809999999985,1000.52277,5.694311361201682,1000.5187875929947,0,0
21.92,-0.5355429,6.560212599999999,7.478874,1000.5378,5.694363585414145,1000.518931168765,0,0
21.94,-0.5785602,6.5268474,7.8008137,1000.5099,5.695084547679151,1000.519025520108,0,0
21.96,-0.91792464,5.8261629999999975,7.682453999999999,1000.53015,5.695349999336822,1000.5191489370828,0,0
21.98,-0.44472277,6.269453,7.223216000000002,1000.5252,5.694982343867062,1000.5192797721477,0,0
22.0,-0.4495014,6.1359897000000005,6.891808500000002,1000.5074,5.693357359590133,1000.5193526108313,0,0
22.02,-0.36824337,6.226553400000001,6.79712,1000.52,5.690599891199714,1000.5194193016936,0,0
22.04,-0.05755493,6.4934807,7.635110000000001,1000.55304,5.688509955780377,1000.519599264253,0,0
22.06,-0.29176414,6.3028182999999975,7.512015299999999,1000.52515,5.686574876170035,1000.5197782618193,0,0
22.08,-0.29680198,6.2122602,8.080121,1000.52,5.685586398698387,1000.5199372223262,0,0
22.1,-0.0912793,6.398156,7.852867999999999,1000.55286,5.6852992033800005,1000.5201962018301,0,0
22.12,-0.019590557,6.250393,7.265801400000001,1000.52515,5.684499047173849,1000.5204428697928,0,0
22.14,0.30542659999999994,6.541153400000002,7.4409733,1000.5023,5.683929570507977,1000.5205955112732,0,0
22.16,0.12378855,6.460122,7.994897999999999,1000.5275,5.684329650021772,1000.5207552414453,0,0
22.18,0.023404375,6.278993,7.5072535999999985,1000.5376,5.684561448583594,1000.5209570201556,0,0
22.2,-0.20603788,6.2503934,7.80552,1000.5402,5.685090196380964,1000.5212045865517,0,0
22.22,-0.22994079,6.2217946,7.545128,1000.5376,5.685423113158428,1000.5214823597076,0,0
22.24,-0.048322125999999986,6.1741294999999985,7.79605,1000.5327,5.6859197967414845,1000.5217681835733,0,0
22.26,-0.048330992,6.178896400000001,7.9096746,1000.52,5.686751145307162,1000.5220143720802,0,0
22.28,0.08549465,6.178896400000001,7.6634845999999985,1000.53015,5.687474923319099,1000.5222611925052,0,0
22.3,0.08548577,6.298061,7.6398115,1000.5351,5.688219414392903,1000.52252550274,0,0
22.32,0.05680139400000001,6.2885275,7.398357400000001,1000.51495,5.688581555284912,1000.5227317754534,0,0
22.34,-0.11528101,6.0787992,7.52145,1000.5149,5.688524418801664,1000.5228858436313,0,0
22.36,0.085459664,6.321894,7.2705259999999985,1000.51495,5.688021321203451,1000.5229934092365,0,0
22.38,-0.07228048,6.1026325,7.450433,1000.48694,5.687117579978162,1000.5229586619316,0,0
22.4,-0.09619005,6.0978665,7.459900999999999,1000.5225,5.685872474573767,1000.5229263080304,0,0
22.42,0.047197953,6.3457274,7.308399,1000.50964,5.684420597155317,1000.522849889414,0,0
22.44,-0.1153265,5.997769,8.179527,1000.52496,5.68375673472444,1000.5227899623227,0,0
22.46,-0.12967533,6.202731,7.507242,1000.52484,5.682950886291009,1000.5227443908806,0,0
22.48,-0.34955513,6.0406685,7.720289,1000.5247,5.682167653234773,1000.5227111641472,0,0
22.5,-0.37823898,5.993003400000001,7.668211,1000.52484,5.681263249438009,1000.5226894688144,0,0
22.52,-0.38781083,6.0263686,7.644538000000002,1000.5122,5.680259928022747,1000.5226325367308,0,0
22.54,-0.19662476,6.093101,7.9759445000000015,1000.50726,5.679789993686232,1000.5225268904097,0,0
22.56,-0.33046758,6.126467,8.117975999999999,1000.5324,5.6800772569422815,1000.5224690845148,0,0
22.58,-0.048211366,5.997764,8.155875,1000.517,5.680924981124152,1000.5223983185216,0,0
22.6,0.071285054,6.0692629999999985,7.5688086,1000.50964,5.6813878316131845,1000.5222898597432,0,0
22.62,-0.01475051,6.193193,7.3415565,1000.50464,5.6813072420480975,1000.5221304860719,0,0
22.64,-0.2107209,5.74037,8.444674000000001,1000.5425,5.682010994982499,1000.522062993746,0,0
22.66,-0.2011604,5.8023352999999975,7.630356,1000.50964,5.682105891428621,1000.5219586347495,0,0
22.68,-0.30153470000000004,6.03113,8.165343,1000.50726,5.682842390474002,1000.5218135080546,0,0
22.7,-0.2107171,6.0120635,7.8197327,1000.50464,5.683540979338769,1000.5216234494783,0,0
22.72,0.013934404,6.016830400000001,8.321579,1000.5271,5.6850410949625285,1000.521475229302,0,0
22.74,-0.18681592,6.050196,7.6682320000000015,1000.52966,5.686205805931149,1000.5213737271288,0,0
22.76,-0.11511739,5.969165,8.255298,1000.4943,5.6879398399435255,1000.5211865743908,0,0
22.78,-0.28718895,5.9739309999999985,7.3841677,1000.51465,5.688745888223279,1000.5209976745638,0,0
22.8,-0.26806855,5.969165,7.431512,1000.4893,5.688798271593567,1000.5207166510482,0,0
22.82,-0.32542533,5.8690667,8.023313,1000.5197,5.689037515798986,1000.5204646787262,0,0
22.84,-0.29196543,5.8928995,7.601950599999999,1000.4895,5.688769302316067,1000.520130563139,0,0
22.86,-0.11033154,6.1645937,7.649294999999999,1000.51465,5.688473140049879,1000.5198156085788,0,0
22.88,0.052183345,6.1979585,7.8244677,1000.51215,5.688480080972071,1000.5195097185384,0,0
22.9,-0.067310825,6.074029,8.189017,1000.5299,5.689199667856043,1000.519276839112,0,0
22.92,-0.08642887,6.178893,7.455185,1000.48663,5.6894807020460725,1000.5189535382301,0,0
22.94,-0.18680313,6.026363,7.497794,1000.5069,5.6892443301833975,1000.5186244768332,0,0
22.96,-0.1676831,6.116927,7.2894809999999985,1000.492,5.688335796248553,1000.5182378700664,0,0
22.98,0.119106755,6.226558,7.8386726,1000.502,5.687863401161287,1000.5178378079947,0,0
23.0,0.17646535,6.2980566,7.620889699999997,1000.497,5.687521724528258,1000.5174092970396,0,0
23.02,0.052192107,6.2503905,7.8102655,1000.5071,5.68753666050893,1000.5169935512904,0,0
23.04,-0.033843175,6.2885230000000005,7.1853247000000025,1000.5147,5.686921096166817,1000.5166179415615,0,0
23.06,-0.1956064,6.140742,7.4505196,1000.53217,5.685975918601457,1000.5163420402156,0,0
23.08,-0.34854025,6.002511,7.4789276,1000.5046,5.684616456829282,1000.5160559824416,0,0
23.1,-0.18120554,6.2217717000000015,7.455259299999999,1000.5042,5.683136761256816,1000.5157605402555,0,0
23.12,-0.25288078,6.2503705,7.7724667,1000.5042,5.682107001413795,1000.515457869595,0,0
23.14,-0.4105727,6.121672599999999,7.507344199999999,1000.5017,5.6808933397124015,1000.5151409014688,0,0
23.16,-0.20500945,6.3028007000000015,7.6162386,1000.49945,5.6799217510137625,1000.5148043411873,0,0
23.18,-0.2623433,6.183636,7.654115700000001,1000.517,5.679074569030738,1000.5145148608943,0,0
23.2,-0.17149931,6.236068,7.6067743,1000.50934,5.678328672617053,1000.514240446608,0,0
23.22,-0.16189805,6.2313,7.535761999999999,1000.51685,5.677554391867412,1000.514007368537,0,0
23.24,-0.11885009,6.188400700000001,7.564171000000001,1000.5068,5.676745497562647,1000.5137754742267,0,0
23.26,-0.19531311,6.2169995,7.61625,1000.51935,5.676032890904027,1000.5135906407068,0,0
23.28,-0.19049364,6.1216674000000015,7.7156773,1000.50934,5.675444492896018,1000.5134120195024,0,0
23.3,-0.08051856,6.2360635,7.739352999999999,1000.49176,5.675151731595707,1000.5131762425356,0,0
23.32,-0.056595713,6.1597985999999985,7.8861217,1000.5194,5.675261368400114,1000.5129903155348,0,0
23.34,-0.08045514,6.188397,7.8624525,1000.5069,5.6757244716842825,1000.5128041053008,0,0
23.36,-0.26206386,6.145497,7.54525,1000.54205,5.6759344930999145,1000.5127448551593,0,0
23.38,-0.1903292,6.145496,7.478971499999999,1000.5195,5.6758100663764965,1000.5127168202553,0,0
23.4,-0.3097906,6.021565,7.7488356,1000.50433,5.675674229191166,1000.5126618560613,0,0
23.42,-0.065990865,6.3170905,7.403227,1000.52435,5.67534999194563,1000.5126553670177,0,0
23.44,-0.2810523,6.1407275000000014,7.8056545,1000.5094,5.675282952943336,1000.5126379139772,0,0
23.46,-0.1137255,6.278957,7.763047999999999,1000.50934,5.675546435725577,1000.5126106199808,0,0
23.48,-0.13759282,6.10736,7.744113,1000.50183,5.675848332573925,1000.5125476927733,0,0
23.5,-0.09455474,6.1025925,7.7015057,1000.4713,5.6761064187975006,1000.5123435985988,0,0
23.52,-0.046715096,6.293254,7.322757000000001,1000.5069,5.675969202425307,1000.5121436640312,0,0
23.54,-0.037125766,6.1550226,7.796199,1000.53217,5.676060021690956,1000.512039096657,0,0
23.56,-0.28086406,5.897628299999999,7.758327499999999,1000.51917,5.675970387365575,1000.511972372177,0,0
23.58,-0.07133138,6.1359754,7.336894,1000.4967,5.675337745345651,1000.5118584338866,0,0
23.6,-0.15736784,6.2170067000000016,7.0149546,1000.4967,5.673832533207501,1000.5117031876512,0,0
23.62,-0.03309296,6.35047,7.2516747000000015,1000.49426,5.672111665965272,1000.511503216602,0,0
23.64,-0.28164274,5.9739122,7.6967087,1000.5219,5.670430506276988,1000.5113639506031,0,0
23.66,-0.12390921,5.926246599999999,7.4173784,1000.5066,5.6682662768818926,1000.5112237449446,0,0
23.68,-0.07133138,6.0835433,7.957102000000001,1000.5143,5.666767087413873,1000.5111109337427,0,0
23.7,-0.12868902,6.2694387,7.336894,1000.5066,5.66510241405863,1000.5109950144032,0,0
23.72,-0.15736784,6.3409366999999985,7.3558309999999985,1000.50934,5.663425030616821,1000.5108866300232,0,0
23.74,-0.20038609,6.1502748,7.445785499999999,1000.4914,5.661631438449862,1000.5107207097168,0,0
23.76,-0.17170727,5.8738145999999976,7.658833500000001,1000.4914,5.6597290463609005,1000.5105045479788,0,0
23.78,-0.090450585,5.9405465,7.9428988,1000.50146,5.658289464396103,1000.5102809870947,0,0
23.8,0.07684253,6.140742,7.232736599999999,1000.50653,5.656368587744263,1000.5100699451441,0,0
23.82,0.08162235,6.2408395,7.322691000000002,1000.5268,5.6543066408259595,1000.5099436966738,0,0
23.84,-0.042652562000000005,6.1502748,7.038626700000001,1000.4964,5.6515569706837,1000.5097833862177,0,0
23.86,-0.13346884,6.0406437,7.578347999999999,1000.5016,5.648926595848884,1000.5096122757076,0,0
23.88,-0.2195053,5.8356824000000005,7.28955,1000.5141,5.645679677262815,1000.5094772382687,0,0
23.9,0.0003656745,5.992978599999999,7.2232685,1000.5218,5.6419940682619645,1000.5094022811302,0,0
23.92,0.029044494,6.0263443,7.1948614,1000.5218,5.637933247926942,1000.5093806807904,0,0
23.94,0.03860411,6.021578,7.1664553,1000.4938,5.633503982753459,1000.5093055042792,0,0
23.96,-0.17170727,5.945313,6.863453,1000.50635,5.628186308657894,1000.5092284384987,0,0
23.98,-0.090450585,5.9071803,7.204330400000001,1000.5016,5.622591033459588,1000.5091328807961,0,0
24.0,-0.30076197,5.654553,7.4789257,1000.5065,5.6169032750441525,1000.5090389676393,0,0
24.02,0.0003656745,5.954846,6.7734995,1000.4964,5.610402143403696,1000.5089104856903,0,0
24.04,-0.2051659,5.8356824000000005,7.2658777,1000.50635,5.603834658390807,1000.5087877412919,0,0
24.06,-0.10956982,6.0644765,6.25745,1000.4966,5.595970935817635,1000.5086354084732,0,0
24.08,0.06827669,6.207449,7.043451299999999,1000.51154,5.588391057775046,1000.5085112637236,0,0
24.1,-0.33317524,5.67836,7.247036,1000.5091,5.580723559837214,1000.5084036888736,0,0
24.12,-0.13717377,6.0072519999999985,6.858817,1000.51135,5.572810653386118,1000.5083192424561,0,0
24.14,-0.26140442,5.7546230000000005,6.9535093,1000.4887,5.5645245500690805,1000.5081739963288,0,0
24.16,-0.012815282,5.849953,6.5368853,1000.5067,5.5554035127371595,1000.5080403504636,0,0
24.18,0.0015634298,5.864252,7.3180656000000015,1000.53156,5.546836147689653,1000.508006931716,0,0
24.2,-0.18958938,5.811819,7.39382,1000.52185,5.538848403453399,1000.5080272379562,0,0
24.22,-0.079614565,5.9262156,7.644747,1000.53406,5.531955702977508,1000.5081388984934,0,0
24.24,-0.1943151,5.826117,7.706296000000001,1000.53156,5.5260338842673935,1000.5083218777097,0,0
24.26,-0.1943151,5.826117,7.706296000000001,1000.52924,5.520991255232878,1000.508558863385,0,0
24.28,-0.1943151,5.826117,7.706296000000001,1000.5366,5.5167436316602405,1000.5088692120197,0,0
24.3,-0.1943151,5.826117,7.706296000000001,1000.5243,5.513213766358583,1000.50919898691,0,0
24.32,-0.1943151,5.826117,7.706296000000001,1000.53937,5.51033081978025,1000.5095989916504,0,0
24.34,-0.07938351,5.8118124,6.929872500000001,1000.51416,5.5067453131469275,1000.5099688554687,0,0
24.36,-0.026771232,5.8976097,7.308628999999999,1000.56934,5.5032725547072445,1000.5105094032592,0,0
24.38,-0.08886445,5.8499427000000015,6.939349000000001,1000.5243,5.499257559873623,1000.5110366774353,0,0
24.4,-0.06971818,5.8785415,7.100322,1000.5545,5.495072418082417,1000.511659044858,0,0
24.42,-0.17004246,5.849941,7.024576,1000.55945,5.4905956419296436,1000.5123810161516,0,0
24.44,-0.021829188,6.0263023,7.0908612999999985,1000.5872,5.486215470537896,1000.5132882983283,1,3
24.46,-0.45675695,5.697409,7.3654594,1000.557,5.481972351666497,1000.5142473349856,1,3
24.48,-0.26074323,5.8070393,7.355994,1000.5721,5.477974679862287,1000.5153030093704,1,3
24.5,-0.21768807,5.854703400000001,7.4317484,1000.59717,5.474390923083692,1000.5165305244226,1,3
24.52,0.05480005,6.1359296,6.887295699999999,1000.5819,5.4706888295007285,1000.5178504868352,1,3
24.54,-0.055096105,5.9738655,7.3086615,1000.56177,5.467343084871851,1000.5191749158699,1,3
24.56,-0.112426735,5.978632,7.374945599999997,1000.5895,5.464438403952464,1000.5205983516679,1,3
24.58,-0.27137548,5.826131299999999,7.843539999999999,1000.5946,5.462515523973922,1000.5221225054731,1,3
24.6,-0.17578897,5.8737974,7.573678,1000.6048,5.461075711656966,1000.523766886756,1,3
24.62,-0.046744376,6.1502576,7.606818,1000.615,5.460475552110224,1000.5255483012648,1,3
24.64,-0.27618513,6.0120277,7.4931917000000015,1000.6125,5.460263341640752,1000.5274353852403,1,3
24.66,-0.104122326,6.09306,7.4505805999999986,1000.60736,5.460424799838365,1000.5293905412544,1,3
24.68,-0.25230575,5.945297,7.6494246,1000.5973,5.461053204292903,1000.5313625911598,1,3
24.7,-0.17583652,5.9738965,7.341688,1000.6198,5.461624873799778,1000.5334234691279,1,3
24.72,-0.19496839,6.035862,7.592610400000001,1000.60443,5.4626321555444095,1000.535500084412,1,3
24.74,-0.21887691,5.9929633,7.6352186,1000.6198,5.464035998919315,1000.5376384613727,1,3
24.76,-0.2714649,6.016796,7.763047,1000.6248,5.466027821018405,1000.5398417127943,1,3
24.78,-0.25235584,6.054929,7.4126997,1000.6072,5.468010635841839,1000.5420309955846,1,3
24.8,-0.20934777,5.992964,7.952421000000001,1000.6599,5.470779163339463,1000.544389774274,1,3
24.82,-0.3097325,6.002497,7.635215799999999,1000.64746,5.4737272842932425,1000.5468450439363,1,3
24.84,-0.108990915,6.1788597,7.5973396,1000.67523,5.476981926886651,1000.5494767060519,1,3
24.86,-0.21893719,5.9786654000000015,7.900339999999999,1000.6525,5.480738105181423,1000.5521729265552,1,3
24.88,-0.11379166,6.2741914,7.422163999999999,1000.6575,5.484527822964248,1000.5549344844568,1,3
24.9,-0.24763376,6.240826,7.720431299999999,1000.65753,5.4887722176655664,1000.5577439408743,1,3
24.92,-0.34324127,6.0835300000000005,8.113386,1000.66003,5.4938523678516615,1000.5605946063775,1,3
24.94,-0.20941754,6.1311955000000005,7.852993,1000.64734,5.499275568201953,1000.5634257378335,1,3
24.96,-0.13295081,6.2217607,7.890867,1000.6748,5.505157745364946,1000.5663282729316,1,3
24.98,-0.018245026,6.25036,7.4789724,1000.6701,5.5107952525952575,1000.5692665311619,1,3
25.0,-0.14253071,6.3075595,7.478971499999999,1000.6853,5.516274838118481,1000.572280496622,1,3
25.02,-0.21901453,6.050165,7.635206,1000.7004,5.521510885951178,1000.5754048667146,1,3
25.04,-0.26682466,6.0692315,8.099177000000001,1000.66754,5.527303184665635,1000.5784972466084,1,3
25.06,-0.22381654,6.15503,7.322734,1000.6802,5.532410801317838,1000.5815958033943,1,3
25.08,-0.07610147,6.2646723,7.6020210000000015,1000.6952,5.537482177165719,1000.5847426632788,1,3
25.1,-0.20996211,6.1836410000000015,7.478924799999999,1000.71295,5.542202855522143,1000.5879847750842,1,3
25.12,-0.16697699,6.1407433,7.834002499999999,1000.71295,5.547113840697887,1000.5912993798855,1,3
25.14,-0.26259404,6.1121445,7.739312,1000.7203,5.5519882259726465,1000.5946925669203,1,3
25.16,-0.03796938,6.3266397,7.50259,1000.71277,5.556706310576072,1000.5981158657434,1,3
25.18,-0.033224493,6.3314075,7.7535095,1000.7153,5.561676942844697,1000.6015625554668,1,3
25.2,-0.1288502,6.178878,7.639881,1000.71277,5.566471250958773,1000.6050083973064,1,3
25.22,0.000178352,6.307576,7.5167847,1000.71783,5.5710633587090514,1000.608459300926,1,3
25.24,-0.17670406,6.1455135,7.7298300000000015,1000.73785,5.575593413488924,1000.6119743258806,1,3
25.26,-0.09547352,6.2360787,7.488372999999997,1000.70764,5.579779541967496,1000.6154245983577,1,3
25.28,-0.1576371,6.2265463,7.748763,1000.73035,5.5840547028781895,1000.618886990564,1,3
25.3,-0.038169935,6.2694464000000005,7.3842115,1000.73785,5.587863263152323,1000.6223746271512,1,3
25.32,-0.09077565,6.14075,7.7961016,1000.753,5.591739942815387,1000.6259265541825,1,3
