Timestamp,Ax,Ay,Az,P,Value,Type
0.0,0.3854643,6.38506,7.8720512,1000.48584,0,0
0.04,0.35198677,6.308795,7.147686,1000.48834,0,0
0.08,0.29461008,6.189632,7.786828999999999,1000.4984,0,0
0.12,0.49056423,6.256364,7.569045,1000.50104,0,0
0.16,0.56224227,6.3278627,7.303916,1000.5035,0,0
0.2,0.06034495,6.156267,7.251836999999999,1000.48816,0,0
0.24,0.28019570000000005,6.289731,7.715806,1000.4808,0,0
0.28,0.22282378,6.2039332,8.231855,1000.5083,0,0
0.32,0.2323608,6.3469305,7.673192999999999,1000.5059,0,0
0.36,0.32315803,6.332632,7.980927499999999,1000.4906,0,0
0.4,0.20842375,6.2611337,7.7726115999999985,1000.48816,0,0
0.44,0.34762955,6.237286,7.644837400000001,1000.51074,0,0
0.48,0.42411274,6.323084400000001,7.767933,1000.5083,0,0
0.52,0.09909116,6.2372856,7.138257,1000.48816,0,0
0.56,-0.029959708,6.1562543,6.911006,1000.5009,0,0
0.6,-0.044294044000000005,6.323084,7.166664,1000.508,0,0
0.64,0.10388495,6.2944846,7.9289045,1000.5208,0,0
0.68,-0.06340344,6.2849507,7.7205906,1000.5158,0,0
0.72,0.103894815,6.294484,7.597496,1000.49554,0,0
0.76,0.18037672,6.0942883000000005,8.033062,1000.54846,0,0
0.8,-0.03470941,6.1896195,7.261354400000001,1000.5082,0,0
0.84,0.08479045,6.342149,7.2944955999999985,1000.48535,0,0
0.88,-0.068158224,6.1133547,7.815281,1000.49536,0,0
0.92,-0.0729329,6.1133547,7.019901299999999,1000.513,0,0
0.96,0.16128258,6.351682,7.308700599999999,1000.5006,0,0
1.0,0.08480947,6.3802814,7.805814,1000.53613,0,0
1.04,0.113493994,6.456546,7.389186,1000.50037,0,0
1.08,0.34770912,6.6424417,7.5738287,1000.5233,0,0
1.12,0.44809073,6.513745,7.7395334,1000.5056,0,0
1.16,0.42897636,6.5375767,7.427063,1000.50037,0,0
1.2,0.022697747,6.418413,7.185609,1000.51544,0,0
1.24,0.05616142,6.4327126,7.0293740000000025,1000.5129,0,0
1.28,0.013148606,6.284949,7.455471000000001,1000.52045,0,0
1.32,0.123088196,6.3564477,7.190345,1000.5057,0,0
1.36,0.18045126,6.4756117,7.464941,1000.51294,0,0
1.4,-0.010735542,6.38028,7.261361,1000.5179,0,0
1.44,0.02126962,6.342183,7.8861704,1000.51807,0,0
1.48,-0.060040325,6.3135853,8.056602999999999,1000.5026,0,0
1.52,0.14542799,6.375552,7.786737400000002,1000.523,0,0
1.56,-0.0314714,6.180124299999999,7.824608,1000.5129,0,0
1.6,0.08798043400000001,6.156292400000001,7.048161500000001,1000.5027,0,0
1.64,0.030556217000000007,6.2325589999999975,7.360626,1000.48236,0,0
1.68,0.07352449,6.242094,7.464778999999999,1000.5001,0,0
1.72,-0.060359925,6.3946239999999985,7.0292080000000015,1000.4925,0,0
1.76,-0.08909202,6.556689,6.967657000000001,1000.485,0,0
1.8,-0.08436552,6.423227,7.9192677,1000.523,0,0
1.84,-0.027054474,6.4136944000000025,7.6588707,1000.51794,0,0
1.88,0.207096,6.3946295,7.815100699999999,1000.50775,0,0
1.92,0.15925135,6.3326660000000015,8.009207,1000.5027,0,0
1.96,0.2500077,6.3708,7.388994,1000.5129,0,0
2.0,0.32643455,6.346968,7.327442,1000.4952,0,0
2.04,0.10173051,6.2897706,7.2706240000000015,1000.4773,0,0
2.08,0.11124019,6.308838400000001,7.2990265,1000.5129,0,0
2.12,0.04904948,6.270707,7.4410534,1000.5104,0,0
2.16,0.09679763,6.294541400000001,7.6304255,1000.523,0,0
2.2,0.1779943,6.4184730000000005,7.5830755,1000.4951,0,0
2.24,0.09190793,6.3755755,7.658822,1000.4951,0,0
2.28,0.1826709,6.3422103,7.805583,1000.5154,0,0
2.32,0.053562954,6.3708114999999985,7.417357400000001,1000.49255,0,0
2.36,-0.0038446784,6.351746,7.209038700000002,1000.5052,0,0
2.4,0.039120287,6.2611833,7.777162599999999,1000.51544,0,0
2.44,0.07813613,6.246864,7.384278299999999,1000.52045,0,0
2.48,-0.007919371,6.456593,7.1238839999999986,1000.4976,0,0
2.52,0.039858416,6.537625,7.289586,1000.485,0,0
2.56,0.020717591,6.3946285000000005,7.5405083,1000.52045,0,0
2.6,0.14497347,6.537626,7.483693,1000.5053,0,0
2.64,0.1545179,6.3421974,7.583114599999999,1000.5002,0,0
2.68,0.025439069,6.3231325,7.3416576,1000.51544,0,0
2.72,0.19749303,6.4232306,7.2469673,1000.4925,0,0
2.76,-0.0032803416,6.3231335,7.744078599999999,1000.4902,0,0
2.8,0.19267131,6.5328617,7.412667999999999,1000.5053,0,0
2.84,0.35038453,6.442298,7.6683245,1000.5052,0,0
2.88,0.3408059,6.4184655999999976,7.6304474,1000.5129,0,0
2.92,0.4889595000000001,6.389867,7.620976400000001,1000.51544,0,0
2.96,0.3216461,6.380334,7.417395599999999,1000.5281,0,0
3.0,0.24992876,6.4804325,7.232752,1000.4976,0,0
3.04,0.24990977,6.4708996,7.51208,1000.523,0,0
3.08,0.23555003,6.4041685999999975,7.540484399999999,1000.5003,0,0
3.12,0.16861378,6.3851027,7.370043799999999,1000.49005,0,0
3.16,0.24029054,6.423236,7.5452147,1000.4853,0,0
3.2,0.020399243,6.3660374000000015,7.417383999999997,1000.48505,0,0
3.24,0.106415436,6.385104,6.8445196,1000.4801,0,0
3.28,0.13029416,6.2754736,7.436318400000001,1000.51807,0,0
3.32,0.22109134,6.366039,7.516802,1000.5053,0,0
3.36,0.101575986,6.4184712999999975,6.896592,1000.4954,0,0
3.4,-0.02271925,6.447071,7.327421000000001,1000.49786,0,0
3.44,0.016234562,6.594817,7.540535,1000.5132,0,0
3.48,0.1070597,6.6424823,7.407973299999999,1000.5028,0,0
3.52,0.13096704,6.46612,7.9382267,1000.49554,0,0
3.56,0.059278324,6.342189,7.834071000000002,1000.53076,0,0
3.6,0.2791577,6.4661193,7.564210000000001,1000.4878,0,0
3.64,0.28872716,6.4136868,7.7157116,1000.5029,0,0
3.68,0.22659867,6.4470525,7.275412599999999,1000.5232,0,0
3.72,0.13101147,6.4327526,7.2706795,1000.5057,0,0
3.76,0.07366048,6.318355,7.175992,1000.51324,0,0
3.8,-0.0028063953000000003,6.3040547,7.365369,1000.5131,0,0
3.84,-0.0075767487,6.3707867,7.005555,1000.49536,0,0
3.88,0.20752324,6.580514999999999,7.1475887,1000.4903,0,0
3.92,0.09759556,6.51855,7.3369656,1000.5182,0,0
3.96,0.26489758,6.65678,7.42692,1000.48773,0,0
4.0,0.121512875,6.4947165999999985,7.417452000000001,1000.48804,0,0
4.04,0.092842385,6.423218,7.7251883,1000.50323,0,0
4.08,-0.14613834,6.270688,7.5926266,1000.50073,0,0
4.12,0.107199535,6.427984,7.3701105,1000.4806,0,0
4.16,-0.05052562,6.3660183,7.166531599999999,1000.5108,0,0
4.2,-0.0074985623,6.3803177,7.3937836,1000.4805,0,0
4.24,-0.045728087,6.366018,7.729928,1000.5059,0,0
4.28,0.12157394,6.4279833,7.407988499999999,1000.5034,0,0
4.32,0.07856460000000001,6.4470487,7.5263490000000015,1000.4829,0,0
4.36,0.08335324,6.547147,7.4221935,1000.4856,0,0
4.4,0.08814193,6.489948,7.0955210000000015,1000.49066,0,0
4.44,-0.036124036,6.4327489999999985,7.554758,1000.4705,0,0
4.48,-0.08391435,6.3421835999999985,7.824620200000001,1000.47815,0,0
4.52,0.07382865,6.4899473,7.412728299999999,1000.52625,0,0
4.56,-0.0026404858,6.442281,7.4458694,1000.511,0,0
4.6,0.07384418,6.3898487,7.384322999999997,1000.51117,0,0
4.64,0.049956217,6.366016,7.630513,1000.4858,0,0
4.68,0.045181975,6.375549,7.299104700000001,1000.4833,0,0
4.72,0.15990676,6.575744,7.1570740000000015,1000.4858,0,0
4.76,0.021302402,6.4041476,7.521623599999999,1000.4962,0,0
4.8,0.035649568,6.537611,7.3464518,1000.5161,0,0
4.84,0.06433894,6.4136805999999975,7.36539,1000.51874,0,0
4.88,0.15516357,6.513778,7.365391000000002,1000.4858,0,0
4.92,0.021336779,6.404147,7.5310955,1000.50885,0,0
4.96,0.16940151,6.5328465,7.455334700000001,1000.5038,0,0
5.0,0.088149145,6.3850837,7.370116,1000.51654,0,0
5.04,0.14551426,6.5662127,7.4600716,1000.4859,0,0
5.08,0.21243514,6.5423794,7.355914,1000.49854,0,0
5.12,0.08338587,6.36125,7.204413400000001,1000.4708,0,0
5.16,0.07383384,6.4470477,7.464806599999997,1000.50885,0,0
5.2,0.1407568,6.518546,7.4600735,1000.5038,0,0
5.24,0.21723764,6.5137796,7.393791999999999,1000.4659,0,0
5.28,0.20290534,6.594811,7.1665410000000005,1000.50366,0,0
5.32,0.14077331,6.5709777,7.4979496,1000.5267,0,0
5.36,0.12643926,6.532845,7.531090700000001,1000.5138,0,0
5.4,-0.050407007,6.461347,7.701529499999999,1000.4938,0,0
5.44,-0.107759245,6.413681,7.34645,1000.4889,0,0
5.48,-0.007377982,6.5090116999999985,7.299106599999999,1000.5141,0,0
5.52,-0.25592348,6.2849836,7.218622,1000.51154,0,0
5.56,-0.21289775,6.28975,7.7488766,1000.5092,0,0
5.6,-0.2320115,6.218252,7.474281299999999,1000.5041,0,0
5.64,-0.11251072,6.284983,7.7583466,1000.48615,0,0
5.68,0.016549736000000002,6.3660145,7.597377000000002,1000.4964,0,0
5.72,0.13605027,6.3564816,7.469548,1000.50397,0,0
5.76,0.14083578,6.3040485,7.625783999999999,1000.5065,0,0
5.8,0.20297791,6.3231153,7.488487200000002,1000.499,0,0
5.84,0.17430444,6.346948,7.2849083,1000.5065,0,0
5.88,0.22210969,6.3660135,7.5405664,1000.5014,0,0
5.92,0.1408584,6.404146,7.355925599999999,1000.48615,0,0
5.96,0.21256016,6.4708776,7.3701296,1000.4787,0,0
6.0,0.23683102,6.4041367,7.337022,1000.50653,0,0
6.04,0.3854643,6.38506,7.8720512,1000.48584,0,0
6.08,0.35198677,6.308795,7.147686,1000.48834,0,0
6.12,0.29461008,6.189632,7.786828999999999,1000.4984,0,0
6.16,0.49056423,6.256364,7.569045,1000.50104,0,0
6.2,0.56224227,6.3278627,7.303916,1000.5035,0,0
6.24,0.06034495,6.156267,7.251836999999999,1000.48816,0,0
6.28,0.28019570000000005,6.289731,7.715806,1000.4808,0,0
6.32,0.22282378,6.2039332,8.231855,1000.5083,0,0
6.36,0.2323608,6.3469305,7.673192999999999,1000.5059,0,0
6.4,0.32315803,6.332632,7.980927499999999,1000.4906,0,0
6.44,0.20842375,6.2611337,7.7726115999999985,1000.48816,0,0
6.48,0.34762955,6.237286,7.644837400000001,1000.51074,0,0
6.52,0.42411274,6.323084400000001,7.767933,1000.5083,0,0
6.56,0.09909116,6.2372856,7.138257,1000.48816,0,0
6.6,-0.029959708,6.1562543,6.911006,1000.5009,0,0
6.64,-0.044294044000000005,6.323084,7.166664,1000.508,0,0
6.68,0.10388495,6.2944846,7.9289045,1000.5208,0,0
6.72,-0.06340344,6.2849507,7.7205906,1000.5158,0,0
6.76,0.103894815,6.294484,7.597496,1000.49554,0,0
6.8,0.18037672,6.0942883000000005,8.033062,1000.54846,0,0
6.84,-0.03470941,6.1896195,7.261354400000001,1000.5082,0,0
6.88,0.08479045,6.342149,7.2944955999999985,1000.48535,0,0
6.92,-0.068158224,6.1133547,7.815281,1000.49536,0,0
6.96,-0.0729329,6.1133547,7.019901299999999,1000.513,0,0
7.0,0.16128258,6.351682,7.308700599999999,1000.5006,0,0
7.04,0.08480947,6.3802814,7.805814,1000.53613,0,0
7.08,0.113493994,6.456546,7.389186,1000.50037,0,0
7.12,0.34770912,6.6424417,7.5738287,1000.5233,0,0
7.16,0.44809073,6.513745,7.7395334,1000.5056,0,0
7.2,0.42897636,6.5375767,7.427063,1000.50037,0,0
7.24,0.022697747,6.418413,7.185609,1000.51544,0,0
7.28,0.05616142,6.4327126,7.0293740000000025,1000.5129,0,0
7.32,0.013148606,6.284949,7.455471000000001,1000.52045,0,0
7.36,0.123088196,6.3564477,7.190345,1000.5057,0,0
7.4,0.18045126,6.4756117,7.464941,1000.51294,0,0
7.44,-0.010735542,6.38028,7.261361,1000.5179,0,0
7.48,0.02126962,6.342183,7.8861704,1000.51807,0,0
7.52,-0.060040325,6.3135853,8.056602999999999,1000.5026,0,0
7.56,0.14542799,6.375552,7.786737400000002,1000.523,0,0
7.6,-0.0314714,6.180124299999999,7.824608,1000.5129,0,0
7.64,0.08798043400000001,6.156292400000001,7.048161500000001,1000.5027,0,0
7.68,0.030556217000000007,6.2325589999999975,7.360626,1000.48236,0,0
7.72,0.07352449,6.242094,7.464778999999999,1000.5001,0,0
7.76,-0.060359925,6.3946239999999985,7.0292080000000015,1000.4925,0,0
7.8,-0.08909202,6.556689,6.967657000000001,1000.485,0,0
7.84,-0.08436552,6.423227,7.9192677,1000.523,0,0
7.88,-0.027054474,6.4136944000000025,7.6588707,1000.51794,0,0
7.92,0.207096,6.3946295,7.815100699999999,1000.50775,0,0
7.96,0.15925135,6.3326660000000015,8.009207,1000.5027,0,0
8.0,0.2500077,6.3708,7.388994,1000.5129,0,0
8.04,0.32643455,6.346968,7.327442,1000.4952,0,0
8.08,0.10173051,6.2897706,7.2706240000000015,1000.4773,0,0
8.12,0.11124019,6.308838400000001,7.2990265,1000.5129,0,0
8.16,0.04904948,6.270707,7.4410534,1000.5104,0,0
8.2,0.09679763,6.294541400000001,7.6304255,1000.523,0,0
8.24,0.1779943,6.4184730000000005,7.5830755,1000.4951,0,0
8.28,0.09190793,6.3755755,7.658822,1000.4951,0,0
8.32,0.1826709,6.3422103,7.805583,1000.5154,0,0
8.36,0.053562954,6.3708114999999985,7.417357400000001,1000.49255,0,0
8.4,-0.0038446784,6.351746,7.209038700000002,1000.5052,0,0
8.44,0.039120287,6.2611833,7.777162599999999,1000.51544,0,0
8.48,0.07813613,6.246864,7.384278299999999,1000.52045,0,0
8.52,-0.007919371,6.456593,7.1238839999999986,1000.4976,0,0
8.56,0.039858416,6.537625,7.289586,1000.485,0,0
8.6,0.020717591,6.3946285000000005,7.5405083,1000.52045,0,0
8.64,0.14497347,6.537626,7.483693,1000.5053,0,0
8.68,0.1545179,6.3421974,7.583114599999999,1000.5002,0,0
8.72,0.025439069,6.3231325,7.3416576,1000.51544,0,0
8.76,0.19749303,6.4232306,7.2469673,1000.4925,0,0
8.8,-0.0032803416,6.3231335,7.744078599999999,1000.4902,0,0
8.84,0.19267131,6.5328617,7.412667999999999,1000.5053,0,0
8.88,0.35038453,6.442298,7.6683245,1000.5052,0,0
8.92,0.3408059,6.4184655999999976,7.6304474,1000.5129,0,0
8.96,0.4889595000000001,6.389867,7.620976400000001,1000.51544,0,0
9.0,0.3216461,6.380334,7.417395599999999,1000.5281,0,0
9.04,0.24992876,6.4804325,7.232752,1000.4976,0,0
9.08,0.24990977,6.4708996,7.51208,1000.523,0,0
9.12,0.23555003,6.4041685999999975,7.540484399999999,1000.5003,0,0
9.16,0.16861378,6.3851027,7.370043799999999,1000.49005,0,0
9.2,0.24029054,6.423236,7.5452147,1000.4853,0,0
9.24,0.020399243,6.3660374000000015,7.417383999999997,1000.48505,0,0
9.28,0.106415436,6.385104,6.8445196,1000.4801,0,0
9.32,0.13029416,6.2754736,7.436318400000001,1000.51807,0,0
9.36,0.22109134,6.366039,7.516802,1000.5053,0,0
9.4,0.101575986,6.4184712999999975,6.896592,1000.4954,0,0
9.44,-0.02271925,6.447071,7.327421000000001,1000.49786,0,0
9.48,0.016234562,6.594817,7.540535,1000.5132,0,0
9.52,0.1070597,6.6424823,7.407973299999999,1000.5028,0,0
9.56,0.13096704,6.46612,7.9382267,1000.49554,0,0
9.6,0.059278324,6.342189,7.834071000000002,1000.53076,0,0
9.64,0.2791577,6.4661193,7.564210000000001,1000.4878,0,0
9.68,0.28872716,6.4136868,7.7157116,1000.5029,0,0
9.72,0.22659867,6.4470525,7.275412599999999,1000.5232,0,0
9.76,0.13101147,6.4327526,7.2706795,1000.5057,0,0
9.8,0.07366048,6.318355,7.175992,1000.51324,0,0
9.84,-0.0028063953000000003,6.3040547,7.365369,1000.5131,0,0
9.88,-0.0075767487,6.3707867,7.005555,1000.49536,0,0
9.92,0.20752324,6.580514999999999,7.1475887,1000.4903,0,0
9.96,0.09759556,6.51855,7.3369656,1000.5182,0,0
10.0,0.26489758,6.65678,7.42692,1000.48773,0,0
10.04,0.121512875,6.4947165999999985,7.417452000000001,1000.48804,0,0
10.08,0.092842385,6.423218,7.7251883,1000.50323,0,0
10.12,-0.14613834,6.270688,7.5926266,1000.50073,0,0
10.16,0.107199535,6.427984,7.3701105,1000.4806,0,0
10.2,-0.05052562,6.3660183,7.166531599999999,1000.5108,0,0
10.24,-0.0074985623,6.3803177,7.3937836,1000.4805,0,0
10.28,-0.045728087,6.366018,7.729928,1000.5059,0,0
10.32,0.12157394,6.4279833,7.407988499999999,1000.5034,0,0
10.36,0.07856460000000001,6.4470487,7.5263490000000015,1000.4829,0,0
10.4,0.08335324,6.547147,7.4221935,1000.4856,0,0
10.44,0.08814193,6.489948,7.0955210000000015,1000.49066,0,0
10.48,-0.036124036,6.4327489999999985,7.554758,1000.4705,0,0
10.52,-0.08391435,6.3421835999999985,7.824620200000001,1000.47815,0,0
10.56,0.07382865,6.4899473,7.412728299999999,1000.52625,0,0
10.6,-0.0026404858,6.442281,7.4458694,1000.511,0,0
10.64,0.07384418,6.3898487,7.384322999999997,1000.51117,0,0
10.68,0.049956217,6.366016,7.630513,1000.4858,0,0
10.72,0.045181975,6.375549,7.299104700000001,1000.4833,0,0
10.76,0.15990676,6.575744,7.1570740000000015,1000.4858,0,0
10.8,0.021302402,6.4041476,7.521623599999999,1000.4962,0,0
10.84,0.035649568,6.537611,7.3464518,1000.5161,0,0
10.88,0.06433894,6.4136805999999975,7.36539,1000.51874,0,0
10.92,0.15516357,6.513778,7.365391000000002,1000.4858,0,0
10.96,0.021336779,6.404147,7.5310955,1000.50885,0,0
11.0,0.16940151,6.5328465,7.455334700000001,1000.5038,0,0
11.04,0.088149145,6.3850837,7.370116,1000.51654,0,0
11.08,0.14551426,6.5662127,7.4600716,1000.4859,0,0
11.12,0.21243514,6.5423794,7.355914,1000.49854,0,0
11.16,0.08338587,6.36125,7.204413400000001,1000.4708,0,0
11.2,0.07383384,6.4470477,7.464806599999997,1000.50885,0,0
11.24,0.1407568,6.518546,7.4600735,1000.5038,0,0
11.28,0.21723764,6.5137796,7.393791999999999,1000.4659,0,0
11.32,0.20290534,6.594811,7.1665410000000005,1000.50366,0,0
11.36,0.14077331,6.5709777,7.4979496,1000.5267,0,0
11.4,0.12643926,6.532845,7.531090700000001,1000.5138,0,0
11.44,-0.050407007,6.461347,7.701529499999999,1000.4938,0,0
11.48,-0.107759245,6.413681,7.34645,1000.4889,0,0
11.52,-0.007377982,6.5090116999999985,7.299106599999999,1000.5141,0,0
11.56,-0.25592348,6.2849836,7.218622,1000.51154,0,0
11.6,-0.21289775,6.28975,7.7488766,1000.5092,0,0
11.64,-0.2320115,6.218252,7.474281299999999,1000.5041,0,0
11.68,-0.11251072,6.284983,7.7583466,1000.48615,0,0
11.72,0.016549736000000002,6.3660145,7.597377000000002,1000.4964,0,0
11.76,0.13605027,6.3564816,7.469548,1000.50397,0,0
11.8,0.14083578,6.3040485,7.625783999999999,1000.5065,0,0
11.84,0.20297791,6.3231153,7.488487200000002,1000.499,0,0
11.88,0.17430444,6.346948,7.2849083,1000.5065,0,0
11.92,0.22210969,6.3660135,7.5405664,1000.5014,0,0
11.96,0.1408584,6.404146,7.355925599999999,1000.48615,0,0
12.0,0.21256016,6.4708776,7.3701296,1000.4787,0,0
12.04,0.23683102,6.4041367,7.337022,1000.50653,0,0
12.08,0.05522366,6.3707705,7.6921053,1000.5191,0,0
12.12,0.09348096,6.3946023,7.3606977,1000.49164,0,0
12.16,0.08872135,6.2945046,7.611623,1000.4993,0,0
12.2,0.10308094,6.4089017,7.592687599999999,1000.5193,0,0
12.24,0.12699385,6.442267,7.303889999999999,1000.50684,0,0
12.28,0.10790105,6.4565660000000005,7.403314599999999,1000.5297,0,0
12.32,0.20351605,6.389834,7.545349000000001,1000.5094,0,0
12.36,0.12227456,6.342167400000001,7.550085,1000.5094,0,0
12.4,0.19877283,6.3802996,7.5358839999999985,1000.48914,0,0
12.44,0.28004837,6.575728,7.0624447,1000.49927,0,0
12.48,0.31352717,6.494696,7.303901700000001,1000.5475,0,0
12.52,0.30876756,6.5042285999999985,7.346513000000002,1000.51733,0,0
12.56,0.57646054,6.585260000000001,7.180811,1000.497,0,0
12.6,0.7342141999999999,6.671057000000001,7.029311,1000.48944,1,1
12.64,0.7724728,6.656757400000001,7.303909299999999,1000.48425,1,1
12.68,0.68167543,6.666289999999999,6.882548299999999,1000.4716,1,1
12.72,0.7294911000000001,6.6281567,6.825738,1000.50714,1,1
12.76,0.6817156999999999,6.508992,7.1287413,1000.4691,1,1
12.8,0.78688914,6.4708595,6.9677734,1000.4845,1,1
12.84,0.8538252000000001,6.5709567,7.095604,1000.50726,1,1
12.88,0.76302797,6.518524,6.8778229999999985,1000.4995,1,1
12.92,0.6244325,6.375527,7.275514599999997,1000.51245,1,1
12.96,0.0747778,6.856949,6.768935000000001,1000.4721,1,1
13.0,-0.33604047,6.5232835,6.972538,1000.50476,1,1
13.04,-1.1294659,5.975129,7.891014,1000.525,1,1
13.08,-2.721102,5.9226956,7.730048,1000.4949,1,1
13.12,-1.3110306,7.490892,6.191369,1000.477,1,1
13.16,-0.7756668999999999,7.657721,7.1713924,1000.45416,1,1
13.2,-0.75651646,7.085734,7.990448,1000.4949,1,1
13.24,-0.7803935000000001,6.8140397,8.724282,1000.5227,1,1
13.28,-0.38363492,6.842638000000001,7.5075436,1000.5152,1,1
13.32,-0.09203749,6.7997380000000005,7.3229046,1000.47455,1,1
13.36,-0.3501194,6.4851446,6.963092,1000.5024,1,1
13.4,-0.40266782,6.337381,6.996236,1000.50494,1,1
13.44,-0.06327242,6.456544,7.152474400000001,1000.5002,1,1
13.48,0.056251988,6.5185084,7.483885000000001,1000.50793,1,1
13.52,0.30482012,6.8426339999999986,8.061484,1000.5205,1,1
13.56,0.72548324,7.1476927,8.336083,1000.5207,1,1
13.6,1.0792162,7.390786599999997,7.431814,1000.5054,1,1
13.64,1.4090465,6.8330990000000025,7.327659599999999,1000.4802,1,1
13.68,2.063909,5.4269633000000015,9.240361,1000.50775,1,1
13.72,1.6719999,5.069471,9.036786,1000.49036,1,1
13.76,1.4521585,5.760621,7.1761675,1000.4853,1,1
13.8,1.2705534,5.8178186,7.166701299999999,1000.47253,1,1
13.84,0.9885706,5.517525,7.07675,1000.4549,1,1
13.88,0.4628234000000001,5.4460263,6.6885309999999984,1000.47253,1,1
13.92,0.12826832,5.8321166,6.783222,1000.47504,1,1
13.96,0.3003614,6.137175599999999,6.115673,1000.45996,1,1
14.0,0.46237487,6.8235717000000005,7.578558,1000.4831,1,1
14.04,0.1803736,7.2001304999999975,6.806851400000001,1000.5055,1,1
14.08,0.48150837,7.6005205999999985,8.160891000000001,1000.478,1,1
14.12,-0.08250233,7.1762960000000025,10.16828,1000.53107,1,1
14.16,0.20907481,7.800716,7.436528999999997,1000.4756,1,1
14.2,0.113486335,7.090499,7.4696703,1000.48566,1,1
14.24,-0.9237259,6.28495,8.023597,1000.46277,1,1
14.28,-1.272644,6.1276536,6.7026978,1000.4526,1,1
14.32,-1.4303695,5.8893255999999985,7.7395334,1000.4756,1,1
14.36,-0.8137671,5.7892275,7.337109599999999,1000.4728,1,1
14.4,-0.43615592,5.5032344,8.028334,1000.49335,1,1
14.44,-0.541304,5.565199,6.835264,1000.4856,1,1
14.48,-0.45525944,5.641464,6.6364193,1000.4756,1,1
14.52,-0.9427923,5.0504107000000005,7.1240644,1000.4985,1,1
14.56,-0.43612406,5.5223,6.0682926,1000.4808,1,1
14.6,-0.5508335999999999,5.7510943,5.803167299999999,1000.47833,1,1
14.64,-0.18278062,6.632907,8.842656,1000.49866,1,1
14.68,-0.51735926,7.0809630000000015,7.318178,1000.50104,1,1
14.72,-0.02981262,7.4765869999999985,8.194042999999999,1000.48096,1,1
14.76,0.03711225,6.7663699999999976,9.443927,1000.52405,1,1
14.8,0.3669263,5.574731,10.518637,1000.50885,1,1
14.84,0.26655805,4.9264790000000005,9.803742,1000.4987,1,1
14.88,-0.072799966,6.1133513,6.5938177,1000.4354,1,1
14.92,-0.07279283,6.4136440000000015,5.4007483,1000.4379,1,1
14.96,-0.19706061,6.2086816,7.0199156,1000.4988,1,1
15.0,-0.18271357,6.2134485,7.285042,1000.5166,1,1
15.04,-0.4214689,6.609067,6.8163576,1000.51154,1,1
15.08,-0.5552869,6.3278394,7.976288999999999,1000.4939,1,1
15.12,-1.128848,6.342139,7.3418800000000015,1000.4939,1,1
15.16,-0.8898413000000001,6.866460000000001,7.857931,1000.5193,1,1
15.2,-0.76077,6.4517690000000005,10.120977,1000.52936,1,1
15.24,-1.3295511999999998,6.9236580000000005,8.53022,1000.4586,1,1
15.28,-0.17282219,7.795936999999999,5.8221416,1000.4686,1,1
15.32,-1.0618502,5.541355,10.229874,1000.5068,1,1
15.36,-1.7835831999999998,5.546121,7.048355,1000.47144,1,1
15.4,-0.9853404,6.132407,7.6117506,1000.46625,1,1
15.44,-0.53602344,5.3125596,7.6022835,1000.5043,1,1
15.48,-0.6937404,4.5403767,7.4365807,1000.507,1,1
15.52,-0.5885683,4.7501050000000005,8.028383,1000.5246,1,1
15.56,-0.57421136,5.1600285,7.4176464000000015,1000.4814,1,1
15.6,-0.38778254,5.5890182999999976,7.152521000000001,1000.4763,1,1
15.64,0.24316709,5.64145,7.962105800000002,1000.5042,1,1
15.68,0.32444018,5.8273449999999976,7.85795,1000.46155,1,1
15.72,0.042448297,6.2325025,7.0862436,1000.4794,1,1
15.76,0.29101455,6.9474854000000015,7.573889,1000.4791,1,1
15.8,0.47744232,6.828321000000001,9.027352,1000.5195,1,1
15.84,-0.30165017,6.6567244999999975,9.21673,1000.5018,1,1
15.88,1.1562073999999998,6.451762,8.175162,1000.4642,1,1
15.92,0.5491879,5.08376,10.04999,1000.502,1,1
15.96,-0.44977468,5.188624,7.417660700000001,1000.4639,1,1
16.0,-0.32070446,6.1896005,5.2208986,1000.4412,1,1
16.04,-0.36783653,5.703395,7.479271000000002,1000.4765,1,1
16.08,-0.06667228,5.341136,7.7680729999999985,1000.48926,1,1
16.12,-0.2291385,5.727226,7.341981,1000.5096,1,1
16.16,-0.057026327,5.7224584,7.356188,1000.5222,1,1
16.2,-0.12868938,6.113315,7.919585,1000.497,1,1
16.24,-0.023486614,7.0284925000000005,6.7075815,1000.48956,1,1
16.28,0.16775002,7.0523243,8.643956,1000.5122,1,1
16.32,0.04829158,6.8902600000000005,8.634492,1000.5252,1,1
16.36,-0.12851672,7.352615400000001,9.103201,1000.4868,1,1
16.4,-0.047220826,6.0847106,9.576645,1000.5298,1,1
16.44,-0.7259085,5.503189599999999,9.245241,1000.50995,1,1
16.48,-0.8692634,5.951245,6.7170733999999985,1000.45416,1,1
16.52,-0.5728763000000001,5.889279,8.662917,1000.48206,1,1
16.56,-0.18567553,5.4364550000000005,7.867540400000001,1000.4921,1,1
16.6,-0.26210007,4.807268,8.412003,1000.47437,1,1
16.64,0.01515995,5.140926,8.17055,1000.4747,1,1
16.68,0.13947408,5.712912,6.470902400000001,1000.4744,1,1
16.72,0.39284813,5.7558099999999985,6.584532,1000.4745,1,1
16.76,0.3211903,5.465049,7.919637700000001,1000.51495,1,1
16.8,0.402494,5.8511395,6.522993,1000.4897,1,1
16.84,0.41687012,6.284895,7.020109,1000.477,1,1
16.88,0.32132107,6.6805176999999984,8.090088,1000.50244,1,1
16.92,0.4886561,7.123807000000001,8.823924,1000.5048,1,1
16.96,0.26404720000000004,6.5565853,7.138481,1000.46686,1,1
17.0,0.56999385,5.5031753,9.500952,1000.5353,1,1
17.04,-0.057643905,5.488912,8.724374000000001,1000.4875,1,1
17.08,0.3773005,6.3850254999999985,6.939502,1000.47455,1,1
17.12,0.45376062,6.2849283,7.7916927,1000.4974,1,1
17.16,0.3438074,5.608077,7.7822227,1000.4976,1,1
17.2,0.43460596,5.6891089999999975,7.2945776,1000.4672,1,1
17.24,0.14302127,5.97987,7.0105114,1000.4798,1,1
17.28,0.28639770000000003,6.175299,6.447116,1000.4749,1,1
17.32,0.17644437,5.9894032,7.403464299999999,1000.50006,1,1
17.36,-0.20595549,6.2229652,7.4224005,1000.4873,1,1
17.4,-0.19641472,6.256332,7.834291499999999,1000.495,1,1
17.44,0.12859415,6.0180044000000015,8.38348,1000.5101,1,1
17.48,0.209832,6.38503,8.146759,1000.5101,1,1
17.52,-0.2729449,6.7615886,8.662807,1000.4952,1,1
17.56,-0.39245775,6.9474845,6.4991827,1000.4674,1,1
17.6,-0.1726012,6.6424246,7.304031399999999,1000.48004,1,1
17.64,-0.2060809,5.7892113,8.127814,1000.49255,1,1
17.68,-0.779674,5.2553577,8.781161,1000.4978,1,1
17.72,-1.2003145,5.536585,7.389245,1000.4876,1,1
17.76,-0.7414710999999999,6.008475,7.100444,1000.4902,1,1
17.8,-0.59809476,5.6176176,7.7964,1000.49255,1,1
17.84,-0.1870494,5.3554572999999985,9.235657000000002,1000.49255,1,1
17.88,-0.36391878,5.212461,9.098359,1000.5106,1,1
17.92,-0.2301009,5.5651864999999985,8.1136,1000.4751,0,0
17.96,0.08534728,6.1085744,8.189347999999999,1000.4801,0,0
18.0,-0.0138588995,6.170511,7.536109,1000.4801,0,0
18.04,-0.3484128,5.8559175,7.6544724,1000.47253,0,0
18.08,0.057899043,5.960781,7.7633657,1000.4827,0,0
18.12,-0.53476995,5.493657,8.232074,1000.4928,0,0
18.16,-0.18581004,5.7748837,7.4509,1000.4776,0,0
18.2,-0.26703626,6.075176,7.498247,1000.513,0,0
18.24,-0.6398325,5.8940462999999985,7.455641,1000.49036,0,0
18.28,-0.71627885,5.9226446,7.6686916,1000.4624,0,0
18.32,-0.23826993,6.017976,7.8580704,1000.47504,0,0
18.36,-0.1378636,6.0370407,8.19895,1000.50037,0,0
18.4,-0.06613611,5.965542,8.213156,1000.49536,0,0
18.44,0.11552687,6.232468,7.3657007,1000.4801,0,0
18.48,-0.08041653,6.303965,7.739720299999999,1000.48773,0,0
18.52,-0.08516397,6.313498,7.4414570000000015,1000.5157,0,0
18.56,-0.013436481,6.2276992999999985,7.9149,1000.47504,0,0
18.6,0.010491058,6.275364,7.550353,1000.4826,0,0
18.64,-0.09463419,6.2515300000000025,7.83442,1000.4827,0,0
18.68,-0.42441207,6.0322685,7.867564,1000.4801,0,0
18.72,-0.28577307,6.2324634,7.4604073,1000.46234,0,0
18.76,-0.23316476,6.2991943,7.663989,1000.5055,0,0
18.8,-0.4673466,6.1418967,7.891244,1000.50037,0,0
18.84,-0.42907012,6.2944260000000005,7.5740414,1000.49786,0,0
18.88,-0.43381947,6.2372265,7.8959837,1000.47754,0,0
18.92,-0.29995832,6.256292,7.725548,1000.5182,0,0
18.96,-0.17087126,6.3039565,7.716081599999999,1000.4903,0,0
19.0,-0.12863714,6.2849097,7.555040400000001,1000.4725,0,0
19.04,-0.26725382,6.065648,7.616587599999999,1000.4827,0,0
19.08,-0.25291693,6.265844,7.086334,1000.47504,0,0
19.12,-0.14776318,6.3373423,7.242569,1000.47,0,0
19.16,-0.26248163,6.256311,7.5455704,1000.5055,0,0
19.2,-0.2529246,6.3278089999999985,7.6260557,1000.49536,0,0
19.24,-0.20990857,6.3135095,7.910119,1000.4801,0,0
19.28,-0.03305851,6.4088407,7.3940697,1000.4928,0,0
19.32,-0.08563889999999999,6.280143700000001,7.848572,1000.4878,0,0
19.36,0.033853814,6.404074,7.5171633,1000.508,0,0
19.4,-0.00916709,6.3230433,7.195223,1000.4801,0,0
19.44,-0.1334444,6.1895795,7.5976477,1000.4801,0,0
19.48,0.029066429,6.342109,7.65446,1000.4801,0,0
19.52,-0.24338478,6.17528,7.668663,1000.47,0,0
19.56,-0.14301145,6.346876,7.578709599999999,1000.4826,0,0
19.6,-0.052197695,6.4755730000000025,7.673397,1000.47253,0,0
19.64,-0.09999764,6.31351,7.4982243,1000.49286,0,0
19.68,-0.028303742000000007,6.3468766,7.626053,1000.48773,0,0
19.72,-0.10000335,6.256312,7.162081,1000.5106,0,0
19.76,-0.13824368,6.3659425,7.2899094,1000.4878,0,0
19.8,-0.09522769,6.2944445999999985,7.40827,1000.4725,0,0
19.84,-0.23384528,6.2944445999999985,7.649724000000001,1000.4928,0,0
19.88,-0.12869155,6.3468766,7.450879,1000.49286,0,0
19.92,-0.061776668,6.4231415,7.592911,1000.47754,0,0
19.96,0.08639406,6.4946394,7.3088465,1000.4927,0,0
20.0,-0.009110451,6.3897734,7.981139,1000.4952,0,0
20.04,0.0004500150700000001,6.3802404,7.6118565,1000.49536,0,0
20.08,0.043469533,6.437439,7.110010000000001,1000.4802,0,0
20.12,-0.047345176,6.299208599999999,7.214166599999999,1000.48236,0,0
20.16,-0.076022804,6.4279056,7.110010000000001,1000.5027,0,0
20.2,-0.21463586,6.361174,7.242573700000001,1000.48254,0,0
20.24,-0.10947879,6.3421073,7.777561,1000.48254,0,0
20.28,-0.18595456,6.2563095,7.7917643,1000.495,0,0
20.32,-0.10947641,6.456505,7.6023884000000015,1000.50006,0,0
20.36,-0.02821891,6.513704,7.6497326,1000.4975,0,0
20.4,0.0148010105,6.528003,7.555045,1000.4951,0,0
20.44,0.029141262,6.5327697,7.389340400000001,1000.4902,0,0
20.48,-0.09991216,6.3754735,7.323059,1000.4823,0,0
20.52,-0.1477085,6.3421073,7.4556227,1000.4951,0,0
20.56,-0.23852359,6.2229433,7.460356699999997,1000.4798,0,0
20.6,-0.22418335,6.3230414,7.569248,1000.4902,0,0
20.64,-0.13336569,6.418372,7.341997,1000.4923,0,0
20.68,-0.16682270000000002,6.385006400000001,7.4224825,1000.48975,0,0
20.72,-0.15726203,6.3468738,7.3704042,1000.4823,0,0
20.76,-0.1859399,6.4946365,7.2473087,1000.4926,0,0
20.8,-0.23851615,6.5089364000000005,7.493498,1000.5077,0,0
20.84,-0.27675354,6.2944417,7.417747500000001,1000.50757,0,0
20.88,-0.12379855,6.308741,7.9243298,1000.47217,0,0
20.92,-0.1907147,6.4183717000000025,7.6307964,1000.4924,0,0
20.96,-0.16681409,6.4374379999999976,7.540843,1000.5027,0,0
21.0,-0.36756477,6.2992077,7.379873299999999,1000.5177,0,0
21.04,-0.32418963,6.427896499999999,7.3941097,1000.50244,0,0
21.08,-0.41977143,6.3897634000000005,7.5456114,1000.4848,0,0
21.12,-0.22856593,6.466028,7.455659,1000.47705,0,0
21.16,-0.28112763,6.318265,7.5976925,1000.4923,0,0
21.2,-0.22375952,6.3706964999999975,7.289957000000001,1000.48224,0,0
21.24,-0.22852407,6.2944309999999986,7.479335000000002,1000.4976,0,0
21.28,-0.08033589999999999,6.3754620000000015,7.4130544999999985,1000.49,0,0
21.32,-0.25238886,6.3611617,7.0958520000000025,1000.49005,0,0
21.36,-0.5391628,6.170499,7.4840735999999985,1000.4823,0,0
21.4,0.31165940000000003,6.5422907,7.630841999999999,1000.5104,0,0
21.44,0.19217955,6.3468614,7.564562,1000.50244,0,0
21.48,0.26388896,6.423125700000001,7.7065945,1000.5053,0,0
21.52,0.4359781,6.7758509999999985,7.4604073,1000.4799,0,0
21.56,0.087066665,6.5518217000000005,7.36572,1000.4748,0,0
21.6,0.06796457,6.475557,7.450941,1000.4799,0,0
21.64,-0.089756586,6.3468595,7.488817999999997,1000.49756,0,0
21.68,-0.04194522,6.3420925000000015,7.3467865,1000.5053,0,0
21.72,0.04410456,6.3516254,7.6497899999999985,1000.5002,0,0
21.76,0.10626204,6.575653,7.289977,1000.4875,0,0
21.8,0.044141695,6.5851855,7.2047586,1000.4669,0,0
21.84,0.025032908,6.50892,7.2521048,1000.5102,0,0
21.88,-0.24262084,6.6090174,7.3988724,1000.5079,0,0
21.92,0.091981605,6.6423830000000015,7.8202353,1000.47974,0,0
21.96,-0.17567028,6.3182573,7.460422500000001,1000.4798,0,0
22.0,-0.1708762,6.346856,7.2947197,1000.48505,0,0
22.04,-0.35701120000000003,6.18002,7.2095259999999985,1000.48505,0,0
22.08,-0.25183335,6.27535,7.1574490000000015,1000.4952,0,0
22.12,-0.36652482,6.1800184,7.6166887,1000.5079,0,0
22.16,-0.08927402,6.494611,7.1858606,1000.5053,0,0
22.2,0.06848647,6.6185410000000005,7.611958500000001,1000.4798,0,0
22.24,-0.036646992,6.566108,7.275817999999999,1000.47723,0,0
22.28,-0.19435042,6.456476,7.304228,1000.5002,0,0
22.32,-0.12740779,6.4946084000000015,7.626169,1000.4974,0,0
22.36,-0.11782437,6.3706775,7.4652014000000015,1000.4521,0,0
22.4,-0.17516297,6.456474299999999,7.237952000000001,1000.4952,0,0
22.44,-0.031740323,6.4517074,7.5267534,1000.5102,0,0
22.48,-0.02693355,6.4993725,7.247425999999999,1000.4923,0,0
22.52,-0.117727645,6.4135737,7.266366,1000.49255,0,0
22.56,-0.20851535,6.470772,7.209554700000001,1000.5002,0,0
22.6,-0.045976683,6.637600999999999,7.3941994000000015,1000.47455,0,0
22.64,0.016181393999999998,6.4898370000000005,7.578842999999999,1000.4924,0,0
22.68,-0.0029076636,6.5422683,7.5078297,1000.4976,0,0
22.72,-0.022012606,6.384971599999999,7.394206,1000.4848,0,0
22.76,-0.122356765,6.3754377,7.3231926,1000.4975,0,0
22.8,-0.32308477,6.456468599999999,7.0675364,1000.48236,0,0
22.84,-0.31349188,6.380203,7.5409803,1000.485,0,0
22.88,-0.069701254,6.32777,8.255877,1000.5077,0,0
22.92,0.22666879,6.6185293000000005,8.341097999999999,1000.51526,0,0
22.96,0.31272906,6.8806895999999975,7.6309395,1000.4925,0,0
23.0,-0.05528888,6.527964,7.427362400000002,1000.49005,0,0
23.04,-0.34328002,6.4040627,6.9727497000000005,1000.48474,0,0
23.08,-0.252488,6.7043567,6.840184,1000.4674,0,0
23.12,-0.32420927,6.4850955,7.768125500000001,1000.48987,0,0
23.16,-0.31466684,6.7329570000000025,7.379903,1000.4951,0,0
23.2,-0.22865888,6.575661,7.630822999999999,1000.4674,0,0
23.24,-0.5202455,6.5089297,7.0200834,1000.48987,0,0
23.28,-0.53460914,6.5184636,6.934862,1000.4774,0,0
23.32,-0.79751694,6.294436,7.0248137,1000.5051,0,0
23.36,-0.74495625,6.4374332,6.7833576,1000.4978,0,0
23.4,-0.48687816,6.3087370000000025,7.3940934999999985,1000.50037,0,0
23.44,-0.9027368,6.265838,7.48878,1000.5126,0,0
23.48,-0.8358495000000001,6.2801385000000005,7.7965136,1000.50775,0,0
23.52,-0.85021174,6.346871,7.9764184999999985,1000.51276,0,0
23.56,-0.9745081,6.3564043,7.663946000000001,1000.48254,0,0
23.6,-0.53478754,6.5851994000000005,7.9432744999999985,1000.4902,0,0
23.64,-0.89329857,6.2134094000000015,7.6450043,1000.4697,0,0
23.68,-0.98891455,6.2038765,7.4935006999999985,1000.4927,0,0
23.72,-0.6878112,6.5613685,6.882761,1000.5002,0,0
23.76,-0.7977638000000001,6.5995016,7.0153227,1000.4674,0,0
23.8,-0.8264697,6.351641000000001,7.7444190000000015,1000.5127,0,0
23.84,-0.8217128,6.184812,7.332523299999999,1000.4599,0,0
23.88,-0.8312851000000001,6.4326735,6.802269,1000.49,0,0
23.92,-1.0511875,6.308744,7.209424,1000.4978,0,0
23.96,-0.8074347,6.589971,6.8874836,1000.48236,0,0
24.0,-1.0267407,6.427894,7.48407,1000.4902,0,0
24.04,-0.8594465,6.4898596,7.233146700000002,1000.4851,0,0
24.08,-1.1079952,6.303963,7.555086,1000.4979,0,0
24.12,-0.94548047,6.5661244000000005,7.242615700000001,1000.4827,0,0
24.16,-1.1605705,6.4898596,7.607165299999999,1000.4978,0,0
24.2,-1.0649729,6.041803,8.099542999999999,1000.5129,0,0
24.24,-1.3326409,6.1847997,7.645040499999999,1000.4827,0,0
24.28,-0.6921455,6.332563,7.753932000000002,1000.4674,0,0
24.32,-0.8020799,6.361162,7.4035864,1000.5106,0,0
24.36,-0.5391894,6.2038660000000005,7.0485067,1000.47003,0,0
24.4,-0.53918815,6.7329535000000025,6.565597500000001,1000.45734,0,0
24.44,-0.3384353,6.9951143,6.897005,1000.4878,0,0
24.48,-0.62522274,6.8664174,7.2426167,1000.4649,0,0
24.52,-0.9024496,6.518459,7.550353,1000.4903,0,0
24.56,-0.9072285,6.6805214999999984,7.2284145,1000.5029,0,0
24.6,-0.97414416,6.2705975,7.8296833,1000.49786,0,0
24.64,-1.1031978,6.394528,7.233148599999999,1000.4446,0,0
24.68,-0.85464656,6.732953,6.792848599999999,1000.4649,0,0
24.72,-0.12333525,6.976047500000001,6.5940046,1000.5029,0,0
24.76,-0.3193063,6.494625599999999,7.5645570000000015,1000.50543,0,0
24.8,-1.2083483999999998,6.4469595,6.783380499999999,1000.4852,0,0
24.84,-0.82118297,6.761553,7.4414625,1000.4801,0,0
24.88,-0.82118165,6.389761,7.948044,1000.50543,0,0
24.92,-0.3862182,6.87595,7.583495,1000.5106,0,0
24.96,-0.12810759,7.1571765,7.0248356,1000.5182,0,0
25.0,-0.6013069999999999,6.6090225999999985,7.7018557,1000.5106,0,0
25.04,-0.414602,6.842577,7.133754,1000.45984,0,0
25.08,-0.38591212,6.709113,6.8875656,1000.4928,0,0
25.12,-0.40979528,6.4088197000000005,7.7492285,1000.5004,0,0
25.16,-0.4432444,6.423119,6.9301777,1000.4852,0,0
25.2,-0.30461818,6.6042476,6.6697874000000015,1000.4674,0,0
25.24,-0.43365702,6.5184493,6.8970394,1000.4953,0,0
25.28,-0.3954059,6.461251,7.304199,1000.48773,0,0
25.32,-0.22332034,6.7901425,7.342076299999999,1000.50287,0,0
25.36,-0.16117096,6.980803999999999,6.6981983,1000.4678,0,0
25.4,-0.34279555,6.9236054000000005,6.826028,1000.508,0,0
25.44,-0.46227401,6.8235073,7.114828,1000.4852,0,0
25.48,-0.61043525,6.8378067,7.095892,1000.5004,0,0
25.52,-0.6677801999999999,6.8997717000000005,6.944392,1000.47784,0,0
25.56,-0.82550424,6.7758417,7.2663326,1000.4677,0,0
25.6,-0.6199568,6.7424746,7.2142553,1000.47534,0,0
25.64,-0.41441256,7.057067,6.90652,1000.47784,0,0
25.68,-0.4717583,6.9998684,7.029615400000001,1000.4854,0,0
25.72,-0.80155206,6.694808,6.934929,1000.46533,0,0
25.76,-0.7537414000000001,6.799672,7.0438213,1000.47546,0,0
25.8,-0.71071047,6.7472396,7.200058,1000.47296,0,0
25.84,-0.7393774000000001,6.7710724,7.398903999999999,1000.4474,0,0
25.88,-0.6915675,6.747239,6.9396676999999976,1000.49304,0,0
25.92,-0.514702,6.8187375,7.1243105,1000.46765,0,0
25.96,-0.50034994,6.7281723,7.010686,1000.4499,0,0
26.0,-0.25657123,6.976033,7.2663449999999985,1000.49304,0,0
26.04,-0.58691245,6.7234187000000025,6.816527400000001,1000.4627,0,0
26.08,-0.52956593,6.8521160000000005,6.972761,1000.4957,0,0
26.12,-0.5773723000000001,6.732952,7.110059,1000.4881,0,0
26.16,-0.68731666,6.6662206999999984,7.110058,1000.46014,0,0
26.2,-0.5056925,6.9093156,6.9348839999999985,1000.46,0,0
26.24,-0.64909595,6.6995869999999975,7.029570599999999,1000.4575,0,0
26.28,-0.5535088,6.799685,7.0295695999999985,1000.4854,0,0
26.32,-0.6204344,6.742486500000001,6.963287400000001,1000.4829,0,0
26.36,-0.5487462,6.818752000000001,7.0058966,1000.4829,0,0
26.4,-0.5105139,6.818752000000001,7.143194,1000.44763,0,0
26.44,-0.43882847,6.8187523,7.062708,1000.4879,0,0
26.48,-0.4005972,6.8711843,7.034300999999999,1000.4552,0,0
26.52,-0.4914235,6.813986,7.11005,1000.49347,0,0
26.56,-0.57746667,6.756787299999999,7.327832000000001,1000.4755,0,0
26.6,-0.61571616,6.7996864000000015,6.8970002999999975,1000.4956,0,0
26.64,-0.68264174,6.618558,7.266283,1000.45776,0,0
26.68,-0.72566885,6.742489,6.807045,1000.4628,0,0
26.72,-0.7113383000000001,6.6805233999999984,7.1242495,1000.4731,1,2
26.76,-0.7495857,6.8235199999999985,7.029560000000001,1000.4781,1,2
26.8,-0.7543743,6.899785499999999,7.043763,1000.4907,1,2
26.84,-0.9360135,6.709123599999999,6.953809,1000.468,1,2
26.88,-0.95992094,6.8807199999999975,6.745494,1000.47046,1,2
26.92,-1.0650843,6.9283853,6.7833679999999985,1000.47565,1,2
26.96,-1.1463532,6.6852913,7.431980999999999,1000.4932,1,2
27.0,-1.1556079,6.923611599999999,6.911224400000001,1000.48065,1,2
27.04,-1.0600088,7.038009,6.717113499999999,1000.45795,1,2
27.08,-1.0122064,6.933145,7.484088000000002,1000.496,1,2
27.12,-0.878368,6.9283776,7.0011787,1000.48834,1,2
27.16,-0.6632728,6.9522104,6.7597256,1000.4783,1,2
27.2,-0.9643971,6.7806144,6.7549906,1000.48816,1,2
27.24,-0.54377055,7.0570745,6.8591479999999985,1000.48834,1,2
27.28,0.13018464,6.785381,7.5267,1000.4959,1,2
27.32,0.47911525,7.314468400000001,6.3241615,1000.4882,1,2
27.36,0.83760417,7.810189999999999,6.0590343,1000.45294,1,2
27.4,0.37396574,7.343067599999999,6.4898663,1000.47064,1,2
27.44,-0.060992315,6.756781,6.248411,1000.51624,1,2
27.48,0.9475509,7.5861616,7.0153856,1000.4833,1,2
27.52,0.6703253,7.6338277,5.7228937,1000.4882,1,2
27.56,0.31184357,7.5718619999999985,5.7086906,1000.50854,1,2
27.6,0.28794813,7.6814933,5.8507233,1000.48114,1,2
27.64,0.20191567,7.838789,5.4482985,1000.4657,1,2
27.68,0.09198381,7.691026,5.827052,1000.47327,1,2
27.72,0.8089582,8.315445,7.3988743,1000.50146,1,2
27.76,0.14456896,7.9102869999999985,8.918617999999997,1000.5138,1,2
27.8,-0.6871130999999999,7.652892599999999,7.777627000000002,1000.4936,1,2
27.84,-0.59151244,7.7434573,7.914925599999999,1000.5138,1,2
27.88,-0.27126253,7.114272,8.577742,1000.48114,1,2
27.92,-0.34773558,7.219135799999999,7.2142344,1000.4938,1,2
27.96,-0.5389239,7.242969,7.758691000000002,1000.4583,1,2
28.0,-0.7779103,5.7415032,7.990677000000002,1000.50116,1,2
28.04,-1.2836936,4.8978014000000005,6.7408743000000015,1000.45044,1,2
28.08,-1.2501968,5.460254,6.234297,1000.45044,1,2
28.12,-0.21772116,6.03224,6.5941153,1000.4633,1,2
28.16,-0.9537752,6.1323366,7.290076299999999,1000.49854,1,2
28.2,-0.46141976,5.8940077,6.163291,1000.4984,1,2
28.24,-0.62389266,5.798676,7.436849599999999,1000.4887,1,2
28.28,-0.62863445,6.532725,5.9928589999999975,1000.4532,1,2
28.32,-0.9536254,6.7519855,6.3668804,1000.4606,1,2
28.36,-1.9095457,6.4945903,6.1775084000000025,1000.48334,1,2
28.4,-1.876049,7.447901,5.7892904000000005,1000.458,1,2
28.44,-1.421932,7.4812660000000015,8.412154,1000.4913,1,2
28.48,-1.8807552,7.090407400000001,9.7804,1000.52167,1,2
28.52,-1.469654,6.446921,7.1764812,1000.47064,1,2
28.56,-0.10737418,6.6042166,6.489996,1000.4608,1,2
28.6,0.38020146,6.4087873,6.892423599999999,1000.4959,1,2
28.64,0.22728585,6.8568425,6.774067,1000.5087,1,2
28.68,0.050473556,6.8902073,6.305364599999999,1000.4934,1,2
28.72,0.24647878,6.2133555,6.7930107,1000.5035,1,2
28.76,0.67192173,6.346818,8.77673,1000.51886,1,2
28.8,-0.30312258,6.3277507,7.1244270000000025,1000.50366,1,2
28.84,-0.3317633,6.5279455,7.4084949999999985,1000.51117,1,2
28.88,-0.36996132,6.6137424,7.5268583,1000.50854,1,2
28.92,-0.5228792999999999,6.813936999999999,6.6794024000000025,1000.49097,1,2
28.96,-1.0247207,6.6518726,7.6452246,1000.4884,1,2
29.0,-0.84782994,6.713837,8.369591999999999,1000.5035,1,2
29.04,-0.92049396,6.7424603,8.857147,1000.51373,1,2
29.08,-1.6470253,7.0761194000000005,7.782437299999999,1000.48584,1,2
29.12,-1.6135681,7.281080999999999,7.782437299999999,1000.48584,1,2
29.16,-1.7235048,6.499366,7.4178877,1000.47314,1,2
29.2,-1.235966,5.9512114999999985,8.374238,1000.47815,1,2
29.24,-2.1775887000000003,5.6223197,8.577817,1000.501,1,2
29.28,-1.6470317,5.989344,8.071236,1000.48834,1,2
29.32,-1.0543371,5.8511147,7.308996,1000.4705,1,2
29.36,-1.3745854,5.221929,7.933938,1000.5238,1,2
29.4,-1.2981098,5.631853,8.402643,1000.4959,1,2
29.44,-1.9003663,5.2695947,8.355299,1000.48584,1,2
29.48,-1.7999917,5.1933292999999985,7.427356,1000.5085,1,2
29.52,-1.0830224,5.9226127,8.218002,1000.4959,1,2
29.56,-1.4032705,5.5746546,8.322159,1000.4909,1,2
29.6,-1.5705649,5.207629,7.867655,1000.49084,1,2
29.64,-1.3028971,6.2419724,7.6025285999999985,1000.4529,1,2
29.68,-1.2885588,6.4803,7.867655,1000.47046,1,2
29.72,-1.2503217,6.2372055,8.052297,1000.48065,1,2
29.76,-1.2216441999999998,6.1371083,7.446292999999999,1000.49084,1,2
29.8,-0.80102265,6.3468366,7.417886,1000.47565,1,2
29.84,0.17405616,6.1323414000000005,9.666728,1000.50616,1,2
29.88,-0.3469438,5.0217338,8.691442,1000.50354,1,2
29.92,0.17405353,5.560355,7.86292,1000.46045,1,2
29.96,-0.12707528,5.7367177000000025,8.468924000000001,1000.4731,1,2
30.0,-0.37084654,5.3887587,7.6261990000000015,1000.47833,1,2
30.04,-0.61520195,5.1361456,9.29739,1000.49347,1,2
30.08,-0.6343453,5.326809,8.648775,1000.50854,1,2
30.12,-0.33802003,5.7319665,8.028564999999999,1000.48584,1,2
30.16,-0.6057130999999999,5.355409,8.378909,1000.4783,1,2
30.2,-0.6583135999999999,5.0503497,7.9954205,1000.48834,1,2
30.24,0.14944915,5.7510343,8.677173,1000.5213,1,2
30.28,0.43143344,5.5746727,8.814469,1000.4934,1,2
30.32,0.71341926,5.322046,8.208461999999999,1000.48065,1,2
30.36,0.8233292,5.9178658,7.2047663,1000.45795,1,2
30.4,1.0575155,6.308724,7.772892999999999,1000.47064,1,2
30.44,0.6129711999999999,6.084696299999999,7.711344,1000.4731,1,2
30.48,-0.046664372,5.8225365,8.563533999999999,1000.5188,1,2
30.52,-0.4290743,6.976043700000001,8.402562,1000.4959,1,2
30.56,-0.56771123,6.961745,9.179003,1000.50604,1,2
30.6,-1.1843284,6.037033,7.1763477,1000.45044,1,2
30.64,-0.43870622,6.4564905,6.9301558000000005,1000.46295,1,2
30.68,-0.5773416,6.017968,7.2947025,1000.4959,1,2
30.72,-1.2895565,5.4698150000000005,8.501974,1000.5062,1,2
30.76,-0.7303436,5.9655375,7.105322,1000.47314,1,2
30.8,-0.6777898,6.194332,7.768136,1000.50366,1,2
30.84,-0.5535375,6.099002,8.412014,1000.4834,1,2
30.88,0.11082964,6.547059,8.454621000000001,1000.4937,1,2
30.92,-0.04692647,6.1323690000000015,8.260508999999999,1000.4834,1,2
30.96,-0.032611147,6.0370383,7.848613,1000.4735,1,2
31.0,-0.295523,5.9655404,7.5787497,1000.4761,1,2
31.04,-0.9205011,5.951212,6.8260869999999985,1000.43787,1,2
31.08,-0.8344431999999999,5.9416785,7.962346000000001,1000.4913,1,2
31.12,-0.88221836,6.098974,7.4652357,1000.4659,1,2
31.16,-0.5380497,6.4183330000000005,7.777709,1000.47577,1,2
31.2,-0.22255982,6.732925,6.703001,1000.48083,1,2
31.24,-0.112602904,7.052284200000001,6.196421599999999,1000.4633,1,2
31.28,-0.43760532,6.799656,6.527832,1000.48615,1,2
31.32,-0.47582376,6.790122,6.423677400000001,1000.4761,1,2
31.36,-0.02171813,7.119014,6.878182400000001,1000.47064,1,2
31.4,0.011761874,7.1571455,7.1291075,1000.4786,1,2
31.44,0.059584156,7.1809783,7.664097999999999,1000.5014,1,2
31.48,0.22689731,7.419306,8.004976,1000.5065,1,2
31.52,-0.38011354,6.823485400000001,7.522069,1000.5065,1,2
31.56,-0.51870644,6.8473177,6.7787704,1000.47864,1,2
31.6,0.27476525,6.5184245,7.8487472999999985,1000.48596,1,2
31.64,0.475537,6.69002,7.9245005000000015,1000.5138,1,2
31.68,0.5663775,7.1237764000000015,7.1812,1000.4886,1,2
31.72,0.84840727,7.624264,5.8271627,1000.4633,1,2
31.76,0.34177238,7.3621035,6.253261599999999,1000.4733,1,2
31.8,-0.3178191,6.685250999999999,6.097028,1000.4989,0,0
31.84,-0.4420712000000001,6.218128,7.8582287,1000.5012,0,0
31.88,-0.43248874,6.656650999999999,6.6604259999999975,1000.48114,0,0
31.92,-0.25562033,7.123773,6.035486,1000.4735,0,0
31.96,-0.5137012,6.623284,6.717242999999999,1000.49866,0,0
32.0,-0.6384219,6.475532,6.42367,1000.5088,0,0
32.04,-0.5571616,6.7996570000000025,7.318472,1000.48596,0,0
32.08,-0.35640603,7.057051,7.1622369999999975,1000.48346,0,0
32.12,-0.39464042,6.7662910000000025,7.1433,1000.4758,0,0
32.16,-0.02181217,7.147615400000001,7.318474,1000.5088,0,0
32.2,0.05466847,7.223880999999999,7.157503,1000.4911,0,0
32.24,0.112029925,7.171448,7.233254400000001,1000.5138,0,0
32.28,0.045116022,7.333512,6.882909,1000.4886,0,0
32.32,0.011661679,7.266779,6.452079,1000.4583,0,0
32.36,-0.31336144,7.023685,7.0864887,1000.4912,0,0
32.4,-0.24644084,7.147614999999999,6.6035805,1000.4861,0,0
32.44,-0.18429911,7.0284514000000025,6.8450356,1000.4784,0,0
32.48,0.07381387,7.2048130000000015,6.674597,1000.4811,0,0
32.52,-0.036117807,7.123782,6.6935350000000025,1000.4634,0,0
32.56,0.30803186,7.3811765,6.537299,1000.4937,0,0
32.6,0.41319138,7.1952805999999985,6.996536999999999,1000.509,0,0
32.64,0.52791023,7.543239,6.324252,1000.46826,0,0
32.68,0.40363914,7.443141000000002,6.7314110000000005,1000.4962,0,0
32.72,0.3367254000000001,7.371642,6.494692,1000.49115,0,0
32.76,0.1168585,7.4336076,6.2674410000000025,1000.4633,0,0
32.8,0.045165256,7.362109700000001,6.149081,1000.5088,0,0
32.84,-0.05520706,7.304911,6.4284105,1000.48096,0,0
32.88,-0.21771683,7.4574394,6.3715982,1000.4936,0,0
32.92,-0.2655108,7.276310400000002,6.3858023,1000.4784,0,0
32.96,-0.28940696,7.252478,6.56571,1000.4733,0,0
33.0,-0.24226114,7.300160000000001,6.575117999999999,1000.4911,0,0
33.04,-0.08933022,7.4240910000000016,6.2626457,1000.48364,0,0
33.08,-0.16582847,7.4669905,6.3952074,1000.4585,0,0
33.12,0.039680257,7.571855,6.262642,1000.4763,0,0
33.16,-0.003360808,7.5337224,6.8591747000000005,1000.4585,0,0
33.2,0.015735581999999998,7.4669924,6.3194504,1000.48096,0,0
33.24,0.010932952,7.6338224000000015,6.5419655,1000.49866,0,0
33.28,-0.23285985,7.2906309999999985,6.2721024000000005,1000.4733,0,0
33.32,-0.23766252,7.252497999999999,6.575102,1000.4834,0,0
33.36,-0.17076667,7.4145617,6.2294884,1000.51154,0,0
33.4,-0.2759395,7.343064,6.2058153,1000.4735,0,0
33.44,-0.017858595,7.376431,6.6934565999999975,1000.49146,0,0
33.48,-0.02743958,7.509894999999997,6.4377966,1000.4839,0,0
33.52,-0.0035648346,7.495596000000001,6.324168,1000.4712,0,0
33.56,-0.16131979,7.4050316999999986,6.674511999999999,1000.48645,0,0
33.6,-0.108759046,7.4574637,6.220008,1000.4558,0,0
33.64,-0.17092359,7.424099000000001,6.3904440000000005,1000.456,0,0
33.68,-0.22352287,7.2954025,6.5277395,1000.4812,0,0
33.72,-0.056252524000000005,7.5670967,6.2484074,1000.4609,0,0
33.76,0.010640472,7.5146656,6.575079,1000.4812,0,0
33.8,-0.118437104,7.390735,6.8591413,1000.5062,0,0
33.84,-0.09933926,7.5241995,6.13951,1000.4911,0,0
33.88,-0.08980392,7.495601,6.7218399999999985,1000.49615,0,0
33.92,-0.20931472,7.495601,6.470915,1000.4736,0,0
33.96,-0.108967386,7.4336367,6.3714895,1000.48096,0,0
34.0,-0.05506511,7.6052003,6.489971,1000.5016,0,0
34.04,-0.1840861,7.452669999999999,6.7645693,1000.4964,0,0
34.08,-0.04544209,7.405003,6.750369,1000.4788,0,0
34.12,-0.03585075,7.62903,6.139634,1000.4839,0,0
34.16,-0.25091022,7.314437,6.3810910000000005,1000.5067,0,0
34.2,-0.11704795,7.3525686000000015,6.1112337,1000.499,0,0
34.24,0.07895966,7.462198700000001,6.3479567,1000.49146,0,0
34.28,0.14112489,7.547995599999999,6.01655,1000.4737,0,0
34.32,0.016883656,7.581361,6.054429,1000.4914,0,0
34.36,0.09339027,7.6194935,6.2438080000000005,1000.4886,0,0
34.4,0.026506677000000003,7.5670595,6.1869984,1000.4837,0,0
34.44,-0.19811432,7.424063,5.751436,1000.45325,0,0
34.48,-0.045128882,7.5146265,6.6415070000000025,1000.50397,0,0
34.52,-0.13114357,7.6099567,6.4379290000000005,1000.489,0,0
34.56,-0.11676451,7.4669595,6.6320440000000005,1000.4763,0,0
34.6,-0.23623584,7.466958999999999,6.205949,1000.48627,0,0
34.64,-0.016327202,7.7291183,6.234359,1000.4839,0,0
34.68,-0.14536008,7.5622880000000015,6.4000654,1000.4763,0,0
34.72,-0.30305797,7.452656699999999,6.2722397,1000.4789,0,0
34.76,-0.04969068,7.6814504,6.0355225,1000.4739,0,0
34.8,-0.15482256,7.481255,6.703076400000001,1000.4789,0,0
34.84,-0.106996804,7.4288216,6.7267504,1000.4814,0,0
34.88,0.026869431000000003,7.74818,6.258047,1000.4588,0,0
34.92,-0.011337295,7.514618400000002,6.243847,1000.48663,0,0
34.96,-0.26463714,7.352554,6.764634,1000.4967,0,0
35.0,-0.27416503,7.443117999999999,6.0497417,1000.47894,0,0
35.04,-0.12230673,7.466978,6.2863617,1000.4915,0,0
35.08,-0.20835589,7.2667828,6.764536,1000.46906,0,0
35.12,-0.39478087,7.214351700000001,6.2058754,1000.4563,0,0
35.16,-0.28007513,7.3144490000000015,6.366843,1000.5068,0,0
35.2,-0.20839237,7.409781,6.111185,1000.45135,0,0
35.24,-0.25620547,7.509878599999999,6.5751543,1000.4663,0,0
35.28,-0.20841931,7.691008,6.6319666,1000.47174,0,0
35.32,-0.3996241,7.323983,6.7976694,1000.46655,0,0
35.36,-0.3374994,7.6385765,6.096977,1000.4639,0,0
35.4,-0.29927284,7.381183,6.6935100000000025,1000.45386,0,0
35.44,-0.32318532,7.414549000000001,6.5372734,1000.4817,0,0
35.48,-0.22760032,7.5384793,6.5514765,1000.4794,0,0
35.52,-0.34710896,7.3335184999999985,6.172722,1000.46155,0,0
35.56,-0.22762652,7.5766134,6.423645,1000.4716,0,0
35.6,-0.3614737,7.443149000000001,6.3052835,1000.49695,0,0
35.64,-0.3136868,7.309686,6.9160204,1000.49945,0,0
35.68,-0.2659022,7.5098815,5.940732,1000.4996,0,0
35.72,-0.2611351,7.4908156,6.414171,1000.49945,0,0
35.76,-0.26114696,7.4765167,6.9065485,1000.50726,0,0
35.8,-0.19902301,7.60998,6.0022755,1000.4847,0,0
35.84,-0.30418979999999995,7.405019,6.4378405,1000.47675,0,0
35.88,-0.47627622,7.328754400000001,6.6508865,1000.48193,0,0
35.92,-0.4428295,7.52895,6.049617,1000.4694,0,0
35.96,-0.38548532,7.6099815,6.082756,1000.47705,0,0
36.0,-0.45241368,7.343055,5.7797527,1000.5224,0,0
36.04,-0.22238116,7.710064999999997,6.911331,1000.47943,0,0
36.08,-0.31796575,7.686231599999997,6.5941267,1000.4897,0,0
36.12,-0.65732044,7.4336042,6.437893,1000.46674,0,0
36.16,-0.8389416,7.2953734,6.267455,1000.4921,0,0
36.2,-0.5856019,7.3573384000000015,6.357410400000001,1000.4974,0,0
36.24,-0.35615996,7.6052,6.3905515999999984,1000.48206,0,0
36.28,-0.36092764,7.4383698,6.6272726,1000.4769,0,0
36.32,-0.64292467,7.443135300000002,6.4284295999999985,1000.4872,0,0
36.36,-0.3656846,7.7052960000000015,6.3479449999999975,1000.50745,0,0
36.4,-0.35611498,7.4240694,6.972888,1000.4998,0,0
36.44,-0.5281758000000001,7.3859363,5.926585,1000.47705,0,0
36.48,-0.47080678,7.419302,6.097025,1000.48236,0,0
36.52,-0.32740265,7.3525696,6.4899817,1000.50995,0,0
36.56,-0.19355604,7.414534599999999,6.650951400000001,1000.4998,0,0
36.6,-0.714544,7.3525686000000015,6.4237022,1000.4795,0,0
36.64,-0.5615781,7.915023,6.177514,1000.4698,0,0
36.68,-0.12660453,7.557531,7.152802499999999,1000.4646,0,0
36.72,0.11239566,7.676695,6.8166600000000015,1000.4721,0,0
36.76,-0.22695827,7.295369,6.19172,1000.4697,0,0
36.8,-0.67624915,6.961710000000001,6.452113,1000.4571,0,0
36.84,-0.28429312,7.4145327,5.4389524000000025,1000.4646,0,0
36.88,-0.28906143,7.4478984,6.5894135999999985,1000.50006,0,0
36.92,-0.57105994,7.600428,5.538376,1000.51526,0,0
36.96,-0.2460211,7.2286367,7.739875,1000.5053,0,0
37.0,-0.011800036000000002,7.3287334,6.3337584000000025,1000.4951,0,0
37.04,-0.278287,7.6146984,6.2060375,1000.4799,0,0
37.08,-0.44552666,7.238139,6.632139,1000.48,0,0
37.12,-0.287736,7.438333,6.438034,1000.5307,0,0
37.16,-0.17296720000000002,7.4001990000000015,6.258131,1000.4419,0,0
37.2,-0.3688821,7.4049644,6.338621,1000.4951,0,0
37.24,-0.53133833,7.4478617,6.144516,1000.51794,0,0
37.28,-0.29229105,7.295330499999999,7.062996000000001,1000.4876,0,0
37.32,-0.46431047,7.2714963,6.7599993000000005,1000.513,0,0
37.36,-0.01973164,7.643286,6.3717833,1000.5129,0,0
37.4,-0.22520968,7.543188000000002,6.2865677,1000.4674,0,0
37.44,-0.23470867,7.690949000000002,6.385997,1000.4952,0,0
37.48,-0.36848968,7.395422,6.447549,1000.4978,0,0
37.52,-0.38277203,7.5527163,6.0356607,1000.5154,0,0
37.56,-0.54044485,7.3429866,6.404949,1000.48254,0,0
37.6,-0.37310535,7.3286858,6.499642400000001,1000.50256,0,0
37.64,-0.205748,7.7243085,6.3907566,1000.5154,0,0
37.68,-0.27261174,7.6909413,6.177713400000001,1000.48505,0,0
37.72,-0.435068,7.4287785999999985,6.324485,1000.52045,0,0
37.76,-0.52105093,7.514576400000001,6.4807253,1000.51044,0,0
37.8,-0.5257701,7.5908394,5.794242,1000.467,0,0
37.84,-0.47792214,7.6242037,7.072536500000001,1000.5256,0,0
37.88,-0.51131654,7.595602499999999,5.936285,1000.47723,0,0
37.92,-0.39654768,7.509803999999999,6.17301,1000.48236,0,0
37.96,-0.7215173,7.404938,6.1446085,1000.50037,0,0
38.0,-0.65610594,7.4478735999999985,6.2012835,1000.49756,0,0
38.04,-0.35976326,7.567038,6.7552080000000005,1000.50793,0,0
38.08,-0.38366824,7.752934,6.509019,1000.49756,0,0
38.12,-0.38367575,7.466941,6.097125,1000.4898,0,0
38.16,-0.40757996,7.314411,6.537424,1000.4952,0,0
38.2,-0.25941315,7.586105,5.7799187000000005,1000.475,0,0
38.24,-0.42671147,7.571805499999999,6.1492023,1000.4878,0,0
38.28,-0.5318751,7.5050735,6.248624,1000.4826,0,0
38.32,-0.57011944,7.3906765,6.864095699999999,1000.50037,0,0
38.36,-0.4649685000000001,7.5432070000000015,6.1397314000000005,1000.4903,0,0
38.4,-0.48409408,7.5527396,6.726797,1000.50287,0,0
38.44,-0.47454077,7.4526424,6.5658264000000015,1000.508,0,0
38.48,-0.2020995,7.595638799999999,6.6084356,1000.508,0,0
38.52,-0.19254468,7.4907746,7.1008130000000005,1000.5282,0,0
38.56,-0.51757926,7.376378,5.8982735,1000.5054,0,0
38.6,-0.66097814,7.1332830000000005,6.3764486,1000.48755,0,0
38.64,-0.56539,7.3287125,6.1255245,1000.5004,0,0
38.68,-0.51759785,7.352545,6.456932,1000.4673,0,0
38.72,-0.41722834,7.357311699999999,6.5610886,1000.508,0,0
38.76,-0.49849093,7.447877,6.1491947,1000.4878,0,0
38.8,-0.49849772,7.433577,6.1065836,1000.4777,0,0
38.84,-0.34554994,7.562274,6.617899,1000.45996,0,0
38.88,-0.34555668,7.557508500000001,6.4663982,1000.47754,0,0
38.92,-0.34078124,7.6385393,6.37171,1000.5105,0,0
38.96,-0.5224213,7.20955,6.9919157000000025,1000.4956,0,0
39.0,-0.46075797,7.457422,6.0591946,1000.4956,0,0
39.04,-0.32695043,7.362092,6.740946000000001,1000.49036,0,0
39.08,-0.43691134,7.3096604,6.352722,1000.49054,0,0
39.12,-0.24096315,7.5575223,6.4568768,1000.4778,0,0
39.16,-0.609035,7.276294999999997,6.1680765,1000.4853,0,0
39.2,-0.5516948,7.2810625999999985,6.3669195,1000.4602,0,0
39.24,-0.49914235,7.424060300000002,6.613106,1000.49286,0,0
39.28,-0.5852089,7.171433,6.627307000000001,1000.51825,0,0
39.32,-0.24108998,7.319197,6.6083669999999985,1000.5157,0,0
39.36,-0.35582906,7.3096642,6.418988,1000.5284,0,0
39.4,-0.36062786,7.2048006,6.6746445,1000.51825,0,0
39.44,-0.3415404,7.5670595,6.485265,1000.5132,0,0
39.48,-0.46106082,7.2048016000000015,7.0202503,1000.49304,0,0
39.52,-0.3750482,7.1333046,7.110203,1000.5387,0,0
39.56,-0.3033749,7.047507,6.428446,1000.49304,0,0
39.6,-0.31774125,7.242936599999997,6.267474,1000.50336,0,0
39.64,-0.33688426,7.424067,6.665161,1000.5031,0,0
39.68,-0.44684356,7.123774000000001,6.9255514000000025,1000.50073,0,0
39.72,-0.42297146,7.1094747000000025,6.570469,1000.5006,0,0
39.76,-0.38953823,7.309671000000002,6.935015700000001,1000.5159,0,0
39.8,-0.72892964,7.004612,6.3952913,1000.5006,0,0
39.84,-0.53298146,6.956947,6.963417,1000.5183,0,0
39.88,-0.18407959,7.2095747,6.698289,1000.5489,0,0
39.92,-0.20322418,7.228642,7.0391636,1000.5034,0,0
39.96,-0.4183423,7.409772,6.437892,1000.5034,0,0
40.0,-0.20639294,7.285800999999997,6.6274175999999985,1000.5285,0,0
40.04,-0.41666508,6.9473743,6.996705,1000.5135,0,0
40.08,-0.43575296,7.176168400000001,6.324422,1000.5085,0,0
40.12,-0.20150334,7.266732000000001,6.977773700000001,1000.50336,0,0
40.16,-0.23968688,7.366828,6.5043383000000015,1000.51874,0,0
40.2,-0.2014171,7.3096285,7.2287045,1000.51605,0,0
40.24,-0.30174333,7.276261,6.338641,1000.50854,0,0
40.28,-0.27302268,7.285794,6.8546953,1000.5363,0,0
40.32,-0.60756975,7.0236325,6.2676334,1000.52124,0,0
40.36,-0.70790637,7.037931,6.9588594,1000.51105,0,0
40.4,-0.69830495,7.099895,6.5517054,1000.4959,0,0
40.44,-0.5357498,7.0951276,7.0772276,1000.5085,0,0
40.48,-0.35885528,7.1427917,7.0346212,1000.53394,0,0
40.52,-0.46875936,7.0236273,7.209797,1000.4882,0,0
40.56,-0.39702046,7.166623,6.404952,1000.511,0,0
40.6,-0.39219883,7.2381205999999985,6.4901752,1000.506,0,0
40.64,-0.5164319,7.009325,6.5564604000000015,1000.51874,0,0
40.68,-0.41123706,7.1237216,6.925748,1000.52606,0,0
40.72,-0.5498095000000001,7.1189537,6.850001299999999,1000.51385,0,0
40.76,-0.3442362,7.138019,7.0157089999999975,1000.52124,0,0
40.8,-0.10520411,7.276247,6.835806,1000.5339,0,0
40.84,-0.2055408,7.109417,6.726918,1000.5113,0,0
40.88,-0.38713154,7.118949400000001,6.8121414000000025,1000.5339,0,0
40.92,-0.43966758,7.1284814,6.4523306,1000.5009,0,0
40.96,-0.2675554,7.1856800000000005,6.793211,1000.5388,0,0
41.0,-0.25795394,7.061748,7.0394039999999976,1000.52655,0,0
41.04,-0.36403507,7.095136599999999,7.1245384000000005,1000.5286,0,0
41.08,-0.39271003,7.1809344,6.778928,1000.5012,0,0
41.12,-0.45006418,7.0903697,6.580083,1000.52356,0,0
41.16,-0.52653694,7.166634599999999,6.56588,1000.49866,0,0
41.2,-0.5456524,7.07607,6.8452100000000025,1000.5388,0,0
41.24,-0.5791074,7.023637299999999,6.7694597000000005,1000.5113,0,0
41.28,-0.57432383,7.166634599999999,6.750522599999999,1000.51636,0,0
41.32,-0.5408616,6.9998045,6.788398,1000.5214,0,0
41.36,-0.23973018,7.276264,7.020385000000001,1000.52655,0,0
41.4,-0.35444164,7.023637299999999,6.86415,1000.5214,0,0
41.44,-0.4309147,7.0856020000000015,6.636898,1000.5037,0,0
41.48,-0.4070121,7.1904660000000025,6.655836,1000.5339,0,0
41.52,-0.5121640000000001,7.0617695000000005,6.944635400000001,1000.49854,0,0
41.56,-0.4165641,7.066536,6.679509,1000.5113,0,0
41.6,-0.39744127,7.2095327,6.594289999999999,1000.52136,0,0
41.64,-0.5599508000000001,7.0570024999999985,6.5753527,1000.52905,0,0
41.68,-0.5217086,6.9759707,7.062997,1000.5392,0,0
41.72,-0.32095300000000004,7.171399000000001,6.423853,1000.48334,0,0
41.76,-0.30660957,7.2190647,6.7315884000000015,1000.49097,0,0
41.8,-0.23968899,7.2095323,6.8310119999999985,1000.5165,0,0
41.84,-0.37829953,7.095134700000001,6.84995,1000.5341,0,0
41.88,-0.32571787,7.1809325,6.6416369999999985,1000.5088,0,0
41.92,-0.42130986,7.090367999999999,6.854685000000001,1000.5214,0,0
41.96,-0.28747177,7.209532,6.878358,1000.55194,0,0
42.0,-0.38306433,7.104667,6.8120766,1000.5113,0,0
42.04,-0.36377966,7.0998964,6.7742167,1000.5392,0,0
42.08,-0.38766792,6.980732400000001,6.703201299999999,1000.5163,0,0
42.12,-0.41155803,7.109429,6.4475440000000015,1000.52136,0,0
42.16,-0.3063916,7.257192599999999,6.7694845,1000.48846,0,0
42.2,-0.42109674,7.0998955000000015,6.9777994,1000.53156,0,0
42.24,-0.39240775,7.157094,7.1861143,1000.5062,0,0
42.28,-0.36849925,7.109428,6.9825354000000015,1000.51636,0,0
42.32,-0.5166636,7.0569960000000025,6.6795339999999985,1000.51886,0,0
42.36,-0.5214339,6.999797,6.6227226,1000.49603,0,0
42.4,-0.46884465,7.066528999999999,6.8405055999999975,1000.519,0,0
42.44,-0.57877254,6.928298,6.674803,1000.51886,0,0
42.48,-0.55486083,6.999796400000001,6.764757,1000.5062,0,0
42.52,-0.3684383,7.128492999999999,6.736352,1000.5038,0,0
42.56,-0.41622877,7.028395,6.8405093999999975,1000.52905,0,0
42.6,-0.29194814,7.071294,6.8452444,1000.50366,0,0
42.64,-0.29194814,7.071294,6.8452444,1000.5062,0,0
42.68,-0.29194814,7.071294,6.8452444,1000.5113,0,0
42.72,-0.29194814,7.071294,6.8452444,1000.50116,0,0
42.76,-0.2106883,7.1999910000000025,6.8263073000000025,1000.52655,0,0
42.8,-0.4830845,6.8949304000000025,6.7221556,1000.49854,0,0
42.84,-0.35880068,7.023627,6.5185765999999985,1000.48846,0,0
42.88,-0.33489215,7.1952224000000005,6.807376,1000.5062,0,0
42.92,-0.43525663,6.9711943,7.2476759999999985,1000.5214,0,0
42.96,-0.3683292,7.176156,7.0583009999999975,1000.5413,0,0
43.0,-0.38265848,7.118957000000001,6.7268934000000025,1000.5062,0,0
43.04,-0.28740913,7.080833,6.736331,1000.51636,0,0
43.08,-0.40690827,6.9998016000000005,6.8878317,1000.5316,0,0
43.12,-0.46904927,6.8901705999999985,6.750534,1000.52655,0,0
43.16,-0.42603418,6.9902687000000014,6.9683160000000015,1000.51135,0,0
43.2,-0.49295598,6.9569035,6.6653137000000005,1000.5214,0,0
43.24,-0.59333485,7.0570005999999985,6.8168144,1000.5366,0,0
43.28,-0.4834028,7.1094327,6.5753593,1000.4987,0,0
43.32,-0.34957224,6.96167,7.271316499999997,1000.51636,0,0
43.36,-0.053228512,7.228597,6.703187,1000.5468,0,0
43.4,-0.16794783,7.090367,6.8310156000000015,1000.5165,0,0
43.44,-0.13449277,7.0665345,6.7694683000000015,1000.5138,0,0
43.48,-0.09147857,7.142799,6.741061,1000.5341,0,0
43.52,-0.21097723,7.0856004,6.9209679999999985,1000.52136,0,0
43.56,-0.06758691,7.042702,6.887828,1000.4936,0,0
43.6,-0.038911223,7.1666327,6.5611534,1000.5392,0,0
43.64,-0.32570392,6.999803,6.878358,1000.5062,0,0
43.68,-0.368726,6.966436999999999,6.906764,1000.5062,0,0
43.72,-0.22055516,6.966436999999999,7.195562400000001,1000.5367,0,0
43.76,-0.26835722,7.0713015,6.5706205,1000.51636,0,0
43.8,-0.33527783,7.0713015,7.039326700000001,1000.51385,0,0
43.84,-0.20144711,7.0570020000000016,6.9493722999999985,1000.51636,0,0
43.88,-0.15843269,7.0903683000000015,6.707917,1000.49615,0,0
43.92,-0.12975743,7.009337,7.0109186,1000.5165,0,0
43.96,-0.19667919,7.0522356,6.741057400000001,1000.49097,0,0
44.0,-0.19165334,6.966431,6.7694864,1000.52655,0,0
44.04,-0.22032663,7.052229400000001,6.717408,1000.5163,0,0
44.08,-0.5166697,6.8996997,6.5801115,1000.50385,0,0
44.12,-0.5166609999999999,6.7996016,7.2902727,1000.49866,0,0
44.16,-0.27288586,6.9235320000000025,7.091428,1000.5012,0,0
44.2,-0.05300851,7.0474625,6.949396000000001,1000.5062,0,0
44.24,0.099950746,7.1618595,7.2381964,1000.53424,0,0
44.28,-0.19160898,7.004563,6.693741,1000.4989,0,0
44.32,-0.17248377,6.899698700000001,7.157711999999999,1000.4963,0,0
44.36,-0.33021218,7.085594,6.537505,1000.48364,0,0
44.4,-0.23938875,6.899698299999999,7.3044796,1000.4887,0,0
44.44,-0.05297045400000002,6.9711967,7.0062130000000025,1000.4758,0,0
44.48,0.009173721,7.157092,6.6842747000000005,1000.4887,0,0
44.52,-0.17245288,7.004562400000001,6.8168383000000015,1000.519,0,0
44.56,-0.18678597,7.004562,7.209794,1000.50903,0,0
44.6,-0.14854278,6.9235305999999985,7.1103725,1000.5065,0,0
44.64,-0.2871491,6.856798,6.802637,1000.47864,0,0
44.68,-0.24890517,6.866331599999999,6.693745599999999,1000.48627,0,0
44.72,-0.12940294,7.0093284,6.674808500000001,1000.52905,0,0
44.76,-0.11027856,7.080826299999999,6.973077,1000.504,0,0
44.8,0.08091913,7.233355499999999,7.3234233999999985,1000.4812,0,0
44.84,-0.048127636,7.1332583,6.9494057,1000.4837,0,0
44.88,-0.005104646,7.1189585000000015,6.8310460000000015,1000.4964,0,0
44.92,-0.25842667,7.0283933,7.015689,1000.50146,0,0
44.96,-0.35401642,6.8234315,6.9446735,1000.50385,0,0
45.0,-0.2488556,6.828198,6.826314,1000.51404,0,0
45.04,-0.2393546000000001,6.909231,6.57065,1000.51917,0,0
45.08,-0.22979116,6.9807289999999975,6.565917,1000.4812,0,0
45.12,-0.22022682,7.0379276,6.9209976,1000.4914,0,0
45.16,-0.12940773,7.128492,7.086701400000001,1000.5218,0,0
45.2,-0.21066079,7.1189589999999985,6.954138799999999,1000.4964,0,0
45.24,-0.124620035,7.066527000000002,7.195594,1000.4914,0,0
45.28,-0.20587265,7.0379276,6.816841,1000.4938,0,0
45.32,-0.2727861,7.0331600000000005,6.9352016,1000.4965,0,0
45.36,-0.22976407,6.8472649999999975,7.067765,1000.51154,0,0
45.4,-0.25843910000000003,6.9425955,6.731623599999999,1000.5168,0,0
45.44,-0.014665544,7.1094246,6.5280437,1000.49646,0,0
45.48,-0.13893688,6.8043656000000015,7.044095,1000.5168,0,0
45.52,0.009240851,7.047459599999999,7.1103773,1000.51166,0,0
45.56,-0.31578198,6.9854946,6.7695,1000.4864,0,0
45.6,-0.12458602,7.123725,7.271347,1000.5042,0,0
45.64,-0.2345177,7.0283933,7.020424,1000.49396,0,0
45.68,-0.110238984,7.1189575,6.7458296,1000.4914,0,0
45.72,-0.14369379999999998,7.1094240000000015,6.816846000000001,1000.5219,0,0
45.76,-0.31576318,6.8758630000000025,7.034628,1000.5068,0,0
45.8,-0.26318157,6.9378285,6.86419,1000.4789,0,0
45.84,-0.3205361,6.9044630000000025,7.0298940000000005,1000.5091,0,0
45.88,-0.24883455,7.0236259999999975,6.7742367,1000.5015,0,0
45.92,-0.28229105,6.9187617,7.044099,1000.4991,0,0
45.96,-0.14845106,7.118957000000001,6.854723,1000.4839,0,0
46.0,-0.20999111,7.123709,6.8737144,1000.4992,0,0
46.04,-0.18606246,6.9711789999999985,7.3282204,1000.5016,0,0
46.08,-0.17647843,6.9521117,7.015752,1000.48914,0,0
46.12,-0.056953683,6.852013,6.940004300000001,1000.48145,0,0
46.16,-0.31025538,6.7471485,6.7979746,1000.5041,0,0
46.2,-0.29110822,7.0665070000000005,6.253521,1000.5244,0,0
46.24,-0.5013917,6.952109,6.4997120000000015,1000.5093,0,0
46.28,-0.45357442,6.8567777,6.8547945000000015,1000.49164,0,0
46.32,-0.27192098,6.8234105,7.029969,1000.5144,0,0
46.36,-0.14761122,6.785277400000001,7.1625357,1000.507,0,0
46.4,-0.061546832,7.0712699999999975,6.6701603,1000.5068,0,0
46.44,-0.24792606,7.0855684000000005,6.4855212999999985,1000.5144,0,0
46.48,-0.24311833,6.9616380000000015,6.651228,1000.4967,0,0
46.52,-0.41038525,6.718543,7.1625460000000025,1000.49426,0,0
46.56,-0.22394505,6.804340400000001,6.9542350000000015,1000.5044,0,0
46.6,-0.19524702,6.799573,6.982643,1000.4995,0,0
46.64,-0.1474106,6.9044366,6.4618626,1000.4892,0,0
46.68,-0.10914601,6.88537,6.2488165,1000.4816,0,0
46.72,-0.31464964,6.6851735,6.575492999999999,1000.5095,0,0
46.76,-0.4675842000000001,6.6089087,6.7364645,1000.4995,0,0
46.8,-0.38152856,6.6422734,6.5518246,1000.479,0,0
46.84,-0.23809254,6.766203,6.6133757,1000.5094,0,0
46.88,-0.2619637,6.761436,6.5612993,1000.49927,0,0
46.92,-0.30017945,6.770968400000001,6.163612400000001,1000.48944,0,0
46.96,-0.43398952,6.6661034,6.580242,1000.49945,0,0
47.0,-0.3335875,6.728068,6.1872883000000005,1000.51483,0,0
47.04,-0.5301106,6.4992867,6.442896,1000.5094,0,0
47.08,-0.35803290000000004,6.623217,6.300864,1000.52966,0,0
47.12,-0.34368783,6.7709804,6.1114883,1000.49194,0,0
47.16,-0.46317846,6.6804156,6.239318,1000.5046,0,0
47.2,-0.4870724,6.566018,6.452367,1000.50964,0,0
47.24,-0.47272605,6.599384,6.504445,1000.4897,0,0
47.28,-0.45838183,6.5946174,6.3908205,1000.4996,0,0
47.32,-0.31976438,6.666115799999999,6.3718824,1000.49207,0,0
47.36,-0.31019968,6.680414999999999,6.457102,1000.5151,0,0
47.4,-0.3245334,6.713781,6.158835400000001,1000.51215,0,0
47.44,-0.5061612,6.5660176,6.452368700000001,1000.535,0,0
47.48,-0.40578085,6.6327496,6.1398993,1000.50995,0,0
47.52,-0.43923414,6.499285,6.575464200000001,1000.5302,1,3
47.56,-0.39621237,6.5707836,6.6701527,1000.52515,1,3
47.6,-0.324509,6.6375155,6.3529480000000005,1000.5225,1,3
47.64,-0.32450426,6.6470485,6.324542,1000.5274,1,3
47.68,-0.30060077,6.6613479999999985,6.092557,1000.5378,1,3
47.72,-0.3388332000000001,6.637515,6.5991383,1000.53754,1,3
47.76,-0.3101496,6.6661142999999985,6.6228113,1000.5403,1,3
47.8,-0.38662142,6.5850825,6.6180773,1000.54816,1,3
47.84,-0.35315737,6.7900443,6.2819347,1000.55804,1,3
47.88,-0.4296292,6.656581,6.139903,1000.5504,1,3
47.92,-0.43918467,6.656581,6.547063,1000.53784,1,3
47.96,-0.49653655,6.608915299999999,6.4997196,1000.5557,1,3
48.0,-0.42005464,6.685179700000001,6.8690032999999975,1000.57355,1,3
48.04,-0.34344453,6.8186398,6.5660133,1000.571,1,3
48.08,-0.2143797,6.9378037,6.3577013,1000.5657,1,3
48.12,-0.27650446,6.8663050000000005,6.466593,1000.57574,1,3
48.16,-0.3003946,6.8186393,6.513938,1000.5935,1,3
48.2,-0.381643,6.7233085999999975,6.6891117,1000.586,1,3
48.24,-0.25735924,6.9711690000000015,6.3766413,1000.56085,1,3
48.28,-0.30036604,6.856771000000001,6.8500834,1000.5559,1,3
48.32,-0.22387838,6.9950009999999985,6.466597599999999,1000.5861,1,3
48.36,-0.23820895,7.0140667,6.4855356,1000.5811,1,3
48.4,-0.21907896,6.975934,6.580225,1000.5886,1,3
48.44,-0.27164727,6.942568,6.764867999999999,1000.6241,1,3
48.48,-0.23817722,6.9711675999999985,6.6701812999999985,1000.6115,1,3
48.52,-0.22382829,7.0188320000000015,6.5991649999999975,1000.5761,1,3
48.56,-0.18080118,7.0664979999999975,6.6891193,1000.63184,1,3
48.6,-0.08997474,7.1570616,6.726996400000001,1000.62427,1,3
48.64,-0.21424015,7.0903300000000025,6.722262400000001,1000.6242,1,3
48.68,-0.19032910000000008,7.0760303,6.8832330000000015,1000.63684,1,3
48.72,-0.2572374,7.056964,6.7459364,1000.6345,1,3
48.76,-0.20465009,7.1522945999999985,6.7648754,1000.62177,1,3
48.8,-0.16640466,7.2666917,6.5754994999999985,1000.6496,1,3
48.84,-0.2619906,7.104628599999999,7.082081,1000.64215,1,3
48.88,-0.2237382,7.0760293,6.8406286,1000.62195,1,3
48.92,-0.14725308,7.104628,6.8595667,1000.66986,1,3
48.96,-0.12334206,7.171359,6.670192,1000.6521,1,3
49.0,-0.2237084,7.1046276,6.556567,1000.6521,1,3
49.04,-0.24737199,7.004524000000001,6.537651,1000.6702,1,3
49.08,-0.34773117,6.9663910000000016,6.8501233999999975,1000.67255,1,3
49.12,-0.2425565,7.204718,6.741233,1000.68286,1,3
49.16,-0.127821,7.233316999999999,6.9116735,1000.68787,1,3
49.2,-0.13736278,7.252383,6.7412367,1000.6803,1,3
49.24,-0.33809670000000003,7.118919,6.8974733,1000.703,1,3
49.28,-0.3954341,6.942556,6.798053,1000.7108,1,3
49.32,-0.4097557,7.014054,6.603945,1000.71576,1,3
49.36,-0.15640709,7.223782000000001,6.684431,1000.74615,1,3
49.4,-0.027329803,7.233314,6.7507142999999985,1000.77405,1,3
49.44,-0.18982768,7.1570487000000025,6.925889,1000.7613,1,3
49.48,-0.32842059999999995,7.0855503,6.9306259999999975,1000.73846,1,3
49.52,-0.3714186,7.0426506999999985,6.8454074999999985,1000.7615,1,3
49.56,-0.32838607,7.0760164,6.9116907,1000.759,1,3
49.6,-0.20887199,7.261911,6.7743949999999975,1000.7792,1,3
49.64,-0.26621297,7.1665807,6.840678,1000.7437,1,3
49.68,-0.08933768,7.228544999999999,6.7412577,1000.7666,1,3
49.72,-0.21837574,7.1665797000000016,6.622899,1000.7768,1,3
49.76,-0.3187278,7.128445599999999,6.504541400000001,1000.7767,1,3
49.8,-0.38562727,7.099846,6.826482,1000.8223,1,3
49.84,-0.3712724,7.0617137,6.7459984,1000.8173,1,3
49.88,-0.3091183,7.2094765,6.641844,1000.8046,1,3
49.92,-0.19438277,7.2190084,6.8122835,1000.82745,1,3
49.96,-0.22782233,7.161810000000001,6.8596296,1000.835,1,3
50.0,-0.19062532,7.190435000000001,6.613345,1000.80725,1,3
50.04,-0.30058193,7.0808050000000025,6.750641000000001,1000.8249,1,3
50.08,-0.33884597,7.176136,6.7411699999999986,1000.7995,1,3
50.12,-0.3866591,7.1904364,6.712762,1000.8425,1,3
50.16,-0.3388881,7.1427710000000015,6.745900999999999,1000.8375,1,3
50.2,-0.30067834,7.099873,6.698554,1000.8604,1,3
50.24,-0.2959166,7.076040700000001,6.8689899999999975,1000.8453,1,3
50.28,-0.26248658,7.138007000000001,6.5943929999999975,1000.8604,1,3
50.32,-0.2577309,7.118941,7.0015490000000025,1000.8406,1,3
50.36,-0.15737915,7.261937599999999,6.6606703,1000.84546,1,3
50.4,-0.3390343,6.980712,6.8879194,1000.8656,1,3
50.44,-0.3342801,7.1284757,6.6796026,1000.8684,1,3
50.48,-0.36776286,7.037912,6.8595076,1000.8681,1,3
50.52,-0.353446,7.018846000000001,6.897381,1000.886,1,3
50.56,-0.17183755,7.104645,6.8216286,1000.86334,1,3
50.6,-0.23877741,7.2619414,6.679594,1000.8631,1,3
50.64,-0.27703997,7.118945599999999,7.167235400000001,1000.8533,1,3
50.68,-0.3057429,7.0569805999999975,7.134093300000001,1000.8834,1,3
50.72,-0.2866478,7.037914999999999,6.7174625,1000.8631,1,3
50.76,-0.31535068,7.071282000000001,6.547022,1000.87854,1,3
50.8,-0.34405217,6.8996863,6.745866,1000.89624,1,3
50.84,-0.43011272,6.995017999999999,6.916301700000001,1000.891,1,3
50.88,-0.44447473,6.966419,7.0772695999999975,1000.92395,1,3
50.92,-0.4206013,6.9616536999999985,7.0488605,1000.9417,1,3
50.96,-0.34414709999999993,7.085584,6.7600603,1000.90656,1,3
51.0,-0.1608508,7.342938,6.2536316,1000.9267,1,3
51.04,-0.3472215,7.1475077,6.9069824,1000.92163,1,3
51.08,-0.5527086999999999,6.890112400000001,7.1342382,1000.9368,1,3
51.12,-0.57178354,6.8424463000000015,6.944866,1000.9521,1,3
51.16,-0.44746143,6.8805776,6.8880577,1000.9293,1,3
51.2,-0.22754882,7.133203999999999,6.793373,1000.9293,1,3
51.24,-0.11279192,7.199935000000001,6.537719,1000.92914,1,3
51.28,-0.1509832,7.1427345,6.660817999999999,1000.91144,1,3
51.32,-0.44728944,7.033103,6.7981195,1000.9394,1,3
51.36,-0.6097583000000001,6.9377704,7.0443125,1000.92706,1,3
51.4,-0.51889765,6.9282365000000015,7.0963955,1000.9519,1,3
51.44,-0.33244368,7.1045979999999975,7.1484776,1000.95715,1,3
51.48,-0.24158299,7.185629,6.7460575,1000.9799,1,3
51.52,-0.16505896,7.133195,6.698717,1000.96246,1,3
51.56,-0.470922,6.8805666,6.8407535999999975,1000.95483,1,3
51.6,-0.58081585,6.885332000000001,6.8786325,1000.9675,1,3
51.64,-0.5568751999999999,6.9329967,7.1484976,1000.98505,1,3
51.68,-0.31306082,7.0759919999999985,6.9070463,1001.0284,1,3
51.72,-0.24609914,7.0902910000000015,6.9970045,1000.9954,1,3
51.76,-0.17436045,7.1141229999999975,6.689272,1000.9751,1,3
51.8,-0.39896405,6.985425,6.727152,1000.9979,1,3
51.84,-0.585332,6.8996252999999985,6.812375,1001.01825,1,3
51.88,-0.66654706,6.918690700000001,6.807644,1001.0157,1,3
51.92,-0.41317028,7.02832,7.1627293000000005,1001.0436,1,3
51.96,-0.2458383,7.1045837,6.9402149999999985,1001.03577,1,3
52.0,-0.22214317,7.152255,6.7934303,1001.0459,1,3
52.04,-0.18387268,7.2189856,6.504635,1001.0183,1,3
52.08,-0.53276193,6.952058,6.8928595,1001.0537,1,3
52.12,-0.6092088000000001,6.794760000000001,7.068034,1001.036,1,3
52.16,-0.594833,6.904391,6.9118023,1001.0638,1,3
52.2,-0.34625113,7.02832,6.7603045,1001.06635,1,3
52.24,-0.1837057,7.223748,6.660885,1001.0816,1,3
52.28,-0.1788895,7.3715104999999985,6.6230135,1001.0564,1,3
52.32,-0.33659095,7.0521502000000025,7.1011915,1001.08386,1,3
52.36,-0.6042257,6.847188,7.1485386,1001.09924,1,3
52.4,-0.5611710999999999,6.8757863,6.8502740000000015,1001.08655,1,3
52.44,-0.36516702,7.095047,6.817136,1001.08417,1,3
52.48,-0.28387606,7.123646000000001,6.821873700000001,1001.1245,1,3
52.52,-0.29818982,7.1570106,6.8218755999999985,1001.06647,1,3
52.56,-0.4893477,7.033078999999999,6.6751127000000015,1001.0942,1,3
52.6,-0.47975814,7.0187789999999985,6.8881636,1001.1019,1,3
52.64,-0.5370709,7.004478,6.8834333,1001.12714,1,3
52.68,-0.40320206,7.085509,6.859764,1001.10925,1,3
52.72,-0.278893,7.1331735,6.7650795,1001.1195,1,3
52.76,-0.36490375,7.2142050000000015,6.8360977,1001.13715,1,3
52.8,-0.42223138,6.9997087,6.8408356,1001.1347,1,3
52.84,-0.5608094,6.794746000000001,6.9449960000000015,1001.1575,1,3
52.88,-0.49385786,6.9901740000000006,6.6230583,1001.13226,1,3
52.92,-0.3456518,7.1188702999999975,6.8692512999999975,1001.1449,1,3
52.96,-0.44121367,7.1331687000000015,6.637268,1001.1449,1,3
53.0,-0.39816117,7.099802,6.8976630000000005,1001.12714,1,3
53.04,-0.37468064,7.233275999999999,7.0207205,1001.1652,1,3
53.08,-0.29340744,7.1617770000000025,6.888158,1001.17535,1,3
53.12,-0.40332645,6.999714,7.0538634999999985,1001.17285,1,3
53.16,-0.43676966,6.990180499999999,6.490471,1001.15265,1,3
53.2,-0.42241478,7.0092463,6.802942999999999,1001.1804,1,3
53.24,-0.08303218,7.190375,6.982852,1001.188,1,3
53.28,-0.197731,7.1617746,6.6514444,1001.18536,1,3
53.32,-0.2646328,7.152242,6.793478,1001.1957,1,3
53.36,-0.3841104,7.0902762,6.5614940000000015,1001.2058,1,3
53.4,-0.3745343,7.0902759999999985,6.627777,1001.1905,1,3
53.44,-0.33149958,7.1570066999999975,6.7650766,1001.23615,1,3
53.48,-0.14507173,7.295236599999999,6.646717999999999,1001.2183,1,3
53.52,-0.23587254,7.0998077,7.12016,1001.2362,1,3
53.56,-0.16893777,7.128406,6.930785,1001.2183,1,3
53.6,-0.3505538,6.9663429999999975,6.7603483,1001.2082,1,3
53.64,-0.14500682,7.2046704,6.679865,1001.221,1,3
53.68,-0.08285286,7.1379385,6.6609287,1001.221,1,3
53.72,-0.063718155,7.1713033,6.722478,1001.2058,1,3
53.76,-0.18797556,7.1093383,6.779292,1001.2563,1,3
53.8,-0.25965714,7.0664387,7.0775614,1001.23846,1,3
53.84,-0.40781456,7.1045713,6.9402646999999975,1001.2513,1,3
53.88,-0.3600011,7.1188702999999975,6.836109,1001.25635,1,3
53.92,-0.29784715,7.157002,7.011284,1001.26917,1,3
53.96,0.07021426,7.309531,7.1249113,1001.2741,1,3
54.0,0.07023074,7.385796000000001,7.233803699999997,1001.2867,1,3
54.04,-0.10722059,7.2332807,6.959153,1001.30457,1,3
54.08,0.017046705,7.3953447,6.8644648,1001.28424,1,3
54.12,-0.15981317,7.1570160000000005,7.1864032999999985,1001.28937,1,3
54.16,-0.2506376,7.204682400000001,7.0822460000000005,1001.3018,1,3
54.2,-0.29366243,7.204682400000001,7.091714,1001.26917,1,3
54.24,-0.31278926,7.295247,7.0538380000000025,1001.27905,1,3
54.28,-0.28411853,7.304781,7.290558,1001.30457,1,3
54.32,-0.28412613,7.395345699999999,7.1911345,1001.2869,1,3
54.36,-0.23633525,7.4191785,7.29529,1001.30457,1,3
54.4,-0.16942559,7.404878999999997,7.096445,1001.31464,1,3
54.44,-0.17421255,7.385812299999999,7.2242727,1001.3246,1,3
54.48,-0.2363576,7.3429136,6.9212704,1001.3274,1,3
54.52,-0.2076864,7.342914,7.229007000000001,1001.3423,1,3
54.56,-0.20291375,7.4668446,7.229006,1001.3502,1,3
54.6,-0.27461840000000004,7.576475999999999,7.2005987000000005,1001.3476,1,3
54.64,-0.24594766,7.7290053,7.0964413,1001.3527,1,3
54.68,-0.33199126,7.504977,7.569880499999999,1001.36505,1,3
54.72,-0.26508158,7.57171,7.210064999999997,1001.3578,1,3
54.76,-0.23641041,7.457312,7.5083323,1001.3626,1,3
54.8,-0.15994114,7.5764770000000015,7.2290009999999985,1001.33746,1,3
54.84,-0.202967,7.457312599999999,7.134312599999999,1001.3578,1,3
54.88,-0.14083621,7.485913,7.2858133,1001.3752,1,3
54.92,-0.18386206,7.4716125,7.233733999999999,1001.3679,1,3
54.96,-0.12173223,7.628909599999999,7.238467999999999,1001.3829,1,3
55.0,-0.27947333,7.5717115,7.228998,1001.3626,1,3
55.04,-0.26026455,7.5478754,7.3710384000000015,1001.373,1,3
55.08,-0.36064422,7.476377499999999,7.4278507,1001.36005,1,3
55.12,-0.26027194,7.5669426999999985,7.290553,1001.3626,1,3
55.16,-0.23637669,7.5288105,7.238474000000001,1001.3626,1,3
55.2,-0.25072014,7.681340700000002,6.954409599999999,1001.3549,1,3
55.24,-0.2363843,7.481145,7.3284264000000015,1001.37006,1,3
55.28,-0.28418612,7.557410000000001,7.205332,1001.37006,1,3
55.32,-0.29374933,7.5383434,7.404176700000002,1001.393,1,3
55.36,-0.19337723,7.662274000000001,7.181659700000001,1001.38293,1,3
55.4,-0.18860102,7.652741000000002,7.058565,1001.3905,1,3
55.44,-0.20772406,7.485912299999999,7.091704400000001,1001.3677,1,3
55.48,-0.21728772,7.447779,6.9023285,1001.3981,1,3
55.52,-0.38458443,7.223750999999999,6.9402037,1001.4007,1,3
55.56,-0.36546877,7.2952495,6.760296,1001.3804,1,3
55.6,-0.37503263,7.323848700000001,6.750827,1001.3728,1,3
55.64,-0.37981576,7.271417,7.1059065000000015,1001.3625,1,3
55.68,-0.25554466,7.347682499999999,6.7934350000000014,1001.393,1,3
55.72,-0.15995261,7.2285185,6.916529700000001,1001.388,1,3
55.76,-0.15039660000000002,7.204685,6.7460910000000025,1001.3702,1,3
55.8,-0.12172134,7.2809505,6.963873,1001.39307,1,3
55.84,-0.29379809999999995,7.2046857000000015,6.6892767000000015,1001.38544,0,0
55.88,-0.33682013,7.14272,6.9212627000000015,1001.3676,0,0
55.92,-0.3368237,7.190386,6.930732000000001,1001.3678,0,0
55.96,-0.48500144,7.090289,7.1248417,1001.44354,0,0
56.0,-0.37984958,7.166554,7.011214999999999,1001.4056,0,0
56.04,-0.31248116,7.157009,7.0728045,1001.3727,0,0
56.08,-0.37460554,7.133176299999999,6.6135674,1001.39545,0,0
56.12,-0.3602531,7.1188765,6.646710400000001,1001.403,0,0
56.16,-0.43193617,7.052144,7.21484,1001.3954,0,0
56.2,-0.60877407,7.0902767,6.9165735,1001.4105,0,0
56.24,-0.47014666,7.075976400000001,7.039669,1001.39044,0,0
56.28,-0.30284047,7.190372999999999,7.063342,1001.3802,0,0
56.32,-0.412762,7.080742,6.9165773,1001.403,0,0
56.36,-0.26457414,7.1999062999999985,6.7650776,1001.40045,0,0
56.4,-0.37449485,7.1093407000000015,7.044409,1001.408,0,0
56.44,-0.45573837,7.0235424,6.921314999999999,1001.38275,0,0
56.48,-0.34101,7.047375,6.9544573000000005,1001.3904,0,0
56.52,-0.23106055,7.2142050000000015,6.731942,1001.40814,0,0
56.56,-0.37444073,6.9997087,6.793490400000001,1001.3902,0,0
56.6,-0.3792075,7.0521407000000025,6.8408356,1001.42816,0,0
56.64,-0.37919265,7.085506,6.7887583,1001.41833,0,0
56.68,-0.47477472,7.066439599999999,6.8692446,1001.4056,0,0
56.72,-0.3600455,7.1379375,6.8219013,1001.41046,0,0
56.76,-0.23575753,7.128404,6.897653599999999,1001.40027,0,0
56.8,-0.34567904,7.1284037,6.8503103,1001.40533,0,0
56.84,-0.29786706,7.109336999999999,6.6988115000000015,1001.39777,0,0
56.88,-0.33609155,7.018772,7.0728300000000015,1001.3901,0,0
56.92,-0.47947258,7.1331690000000005,6.4668274000000014,1001.39777,0,0
56.96,-0.5846143,7.0664372,6.793503,1001.3955,0,0
57.0,-0.6914446999999999,6.8710494,7.0442734,1001.38007,0,0
57.04,-0.5624445,7.1046124000000015,6.731797,1001.39764,0,0
57.08,-0.47645915,7.023582000000001,6.878559,1001.3877,0,0
57.12,-0.3283398,7.252378,6.6560373,1001.3977,0,0
57.16,-0.22801846,7.2476125,6.9211589999999985,1001.36725,0,0
57.2,-0.30932626,7.0950837,6.802794500000001,1001.41547,0,0
57.24,-0.33806303,7.0855520000000025,6.854867,1001.4002,0,0
57.28,-0.38113582,7.1284523,6.7365017000000025,1001.40784,0,0
57.32,-0.41464216,7.0903215,6.8217173,1001.3774,0,0
57.36,-0.40992033,7.0569572,6.9258690000000005,1001.41296,0,0
57.4,-0.3526172,7.118923,6.693878,1001.4077,0,0
57.44,-0.13758057,7.1951899999999975,6.7270136,1001.4027,0,0
57.48,-0.31448445,7.056961,7.0536832999999985,1001.38995,0,0
57.52,-0.22371931,7.3286557,6.6891289999999985,1001.40027,0,0
57.56,-0.22855365,7.238092999999999,6.674921,1001.3977,0,0
57.6,-0.28596583,7.1189300000000015,6.793276,1001.4052,0,0
57.64,-0.44375396,6.9378023,6.741192999999999,1001.41034,0,0
57.68,-0.3768912,6.9330373,6.8926887999999975,1001.39514,0,0
57.72,-0.36260295,7.0140696,6.580212599999999,1001.4152,0,0
57.76,-0.30052343,7.261932000000002,6.589677,1001.39764,0,0
57.8,-0.18107948,7.300066,6.6417503,1001.37994,0,0
57.84,-0.22415222,7.1618369999999985,6.8737315999999975,1001.4382,0,0
57.88,-0.29590386,7.0283747000000005,7.0488997000000015,1001.4128,0,0
57.92,-0.37243527,6.942578299999999,6.892659,1001.41284,0,0
57.96,-0.25299135,7.0140777000000005,6.7269497000000005,1001.3975,0,0
58.0,-0.17937905,7.123662,6.6987190000000005,1001.39514,0,0
58.04,-0.06941663,7.0569289999999985,6.684519,1001.3647,0,0
58.08,-0.16020751,7.095061,6.4620037,1001.3748,0,0
58.12,-0.17930138,7.071227,7.006463,1001.40497,0,0
58.16,-0.28921312,6.9186974,7.247919,1001.4152,0,0
58.2,-0.36566466,7.0044947,6.9496536,1001.3924,0,0
58.24,-0.27960283,7.0521593,6.7792176999999985,1001.39246,0,0
58.28,-0.17920160000000002,7.095058,6.7034693,1001.4228,0,0
58.32,-0.31301072,7.104590400000001,6.8123636,1001.38226,0,0
58.36,-0.31777155,7.0140257,6.949663,1001.4052,0,0
58.4,-0.31774145,7.0616903,6.940197,1001.4103,0,0
58.44,-0.25079885,7.0521563999999985,7.0774965,1001.39496,0,0
58.48,-0.3941676,6.9615912,6.7839649999999985,1001.3873,0,0
58.52,-0.26508915,6.980656599999999,6.9544067,1001.39996,0,0
58.56,-0.2555042,6.985423,6.992285000000001,1001.4177,0,0
58.6,-0.28415763,7.0092554000000025,6.6940193,1001.3847,0,0
58.64,-0.2650131,7.028321000000001,6.7792406000000005,1001.4304,0,0
58.68,-0.064237595,7.2142158,6.8029145999999985,1001.3925,0,0
58.72,-0.15502852,7.0902850000000015,7.0775127000000015,1001.3849,0,0
58.76,-0.16934419,7.0283190000000015,7.068045599999999,1001.38745,0,0
58.8,-0.38440844,6.8948545,6.77925,1001.3796,0,0
58.84,-0.37960485,7.004484700000001,6.514126,1001.3773,0,0
58.88,-0.3652401,7.0378504,6.7035036,1001.40265,0,0
58.92,-0.21226262,7.1379470000000005,6.817132000000001,1001.40497,0,0
58.96,-0.36041117,6.971117,6.9260254,1001.39484,0,0
59.0,-0.29006809999999994,7.1665792,6.8501509999999985,1001.39746,0,0
59.04,-0.3713534,7.047415700000001,7.020587,1001.3874,0,0
59.08,-0.2566685,7.0950820000000006,7.0489902,1001.40015,0,0
59.12,-0.24713749,7.037884,6.9069557,1001.405,0,0
59.16,-0.26628906,7.0140524000000015,6.802796400000001,1001.38214,0,0
59.2,-0.16116,6.9330215,6.8406687,1001.3999,0,0
59.24,-0.19465105,7.028353,6.698633,1001.3922,0,0
59.28,-0.23769023,7.099852,6.665489999999999,1001.4048,0,0
59.32,-0.3428764,6.9330235,7.228882,1001.40247,0,0
59.36,-0.17083392,6.8948917000000005,7.361442599999997,1001.39984,0,0
59.4,-0.14697106,7.0188229999999985,6.774373,1001.3972,0,0
59.44,-0.17089294,7.009290700000001,6.764902,1001.405,0,0
59.48,-0.2712993,6.8662944,6.816977499999999,1001.3999,0,0
59.52,-0.18529522,6.899661,6.911663000000001,1001.36426,0,0
59.56,-0.18054205,6.937794,7.077365,1001.3769,0,0
59.6,-0.1471139,6.9091960000000014,6.9921427,1001.3999,0,0
59.64,-0.19972222,7.0092940000000015,6.793295,1001.3972,0,0
59.68,-0.27623147,6.9806952,6.793292,1001.4277,0,0
59.72,-0.41965413,6.8710656000000006,7.011072,1001.3795,0,0
59.76,-0.48182017,6.8281674,7.148367,1001.377,0,0
59.8,-0.43883243,6.7423699999999975,7.375615,1001.39746,0,0
59.84,-0.27157164,6.9806985999999975,7.271456,1001.3771,0,0
59.88,-0.29549927,6.928267,6.9589824999999985,1001.38464,0,0
59.92,-0.290748,6.7376055999999975,7.1672935,1001.4047,0,0
59.96,-0.18562472,6.7566724,6.9353046,1001.4149,0,0
60.0,-0.18565518,6.847238000000001,7.053662299999999,1001.4073,0,0
60.04,-0.08882758,6.7947755,7.039572,1001.3771,0,0
60.08,-0.21308348,6.775709,7.039573700000001,1001.39484,0,0
60.12,-0.38035882,6.613645599999999,7.0111685,1001.40753,0,0
60.16,-0.3660004000000001,6.5421467,7.101124,1001.36945,0,0
60.2,-0.28950453,6.8043070000000005,6.7791862000000025,1001.4024,0,0
60.24,-0.2560257,6.828139299999999,7.129534,1001.4149,0,0
60.28,-0.15563323,6.828139,7.451475,1001.39716,0,0
60.32,-0.15083441,6.7137410000000015,7.716603299999999,1001.3922,0,0
60.36,-0.29420954,6.6613083,7.3047122999999985,1001.39716,0,0
60.4,-0.50450194,6.565977,7.058525,1001.3771,0,0
60.44,-0.47580528,6.589809,7.105870200000001,1001.4073,0,0
60.48,-0.49012452,6.5373764,7.2384357,1001.3872,0,0
60.52,-0.28935373,6.6231740000000014,7.385204300000002,1001.41754,0,0
60.56,-0.19373864,6.6994386,7.389940299999999,1001.38715,0,0
60.6,-0.22718067,6.7280374000000025,7.2337065,1001.38965,0,0
60.64,-0.28929794,6.713736999999999,7.0443324999999986,1001.3896,0,0
60.68,-0.30361837,6.637471700000001,7.342600999999997,1001.3971,0,0
60.72,-0.30360055,6.642237700000001,7.385213,1001.4099,0,0
60.76,-0.20320804,6.7423350000000015,7.205307,1001.4125,0,0
60.8,-0.2414251000000001,6.770934,7.1058854999999985,1001.4174,0,0
60.84,-0.38480026,6.542139,7.134294500000001,1001.40466,0,0
60.88,-0.5186157,6.642235799999999,7.072749000000001,1001.3896,0,0
60.92,-0.5759555000000001,6.4944725,6.854968,1001.39716,0,0
60.96,-0.49468112,6.5469040000000005,7.304738,1001.41754,0,0
61.0,-0.58069736,6.661301,7.1532383,1001.4125,0,0
61.04,-0.56724524,6.6994553,7.2336426,1001.4048,0,0
61.08,-0.5338021,6.6327240000000005,7.735488,1001.4099,0,0
61.12,-0.4955812,6.675623,7.437218700000002,1001.3769,0,0
61.16,-0.37132183,6.7185225000000015,7.262044,1001.4099,0,0
61.2,-0.26140177,6.775722,7.176823599999999,1001.41254,0,0
61.24,-0.41915184,6.6660914,7.1010714,1001.3896,0,0
61.28,-0.39049053,6.670859,7.1957580000000005,1001.38464,0,0
61.32,-0.53390014,6.47543,7.280976299999999,1001.41986,0,0
61.36,-0.41920137,6.6756253,7.238364999999999,1001.4074,0,0
61.4,-0.32840163,6.7518910000000005,7.096331599999999,1001.36444,0,0
61.44,-0.35231614,6.666093300000001,7.209955,1001.4125,0,0
61.48,-0.42402866,6.656561,7.167345,1001.3896,0,0
61.52,-0.33800873,6.7328258000000005,7.233624499999999,1001.41754,0,0
61.56,-0.35236567,6.6184287,7.200482400000001,1001.39215,0,0
61.6,-0.34282157,6.723294,6.859603999999999,1001.4023,0,0
61.64,-0.35717648,6.761426400000001,7.0821190000000005,1001.3895,0,0
61.68,-0.4958083,6.685161999999999,7.262025,1001.39716,0,0
61.72,-0.443246,6.7185283,7.1294603,1001.39215,0,0
61.76,-0.36678666,6.8090935,7.247819,1001.3997,0,0
61.8,-0.32856476,6.8233933,7.1152534,1001.4048,0,0
61.84,-0.32380038,6.8233933,7.025299,1001.382,0,0
61.88,-0.35249266,6.7423625,7.0395,1001.4099,0,0
61.92,-0.43376893,6.8043284,7.001623,1001.37177,0,0
61.96,-0.42900568,6.74713,6.996888,1001.3796,0,0
62.0,-0.38122314,6.847228,7.181528,1001.38965,0,0
62.04,-0.44773436,6.77572,7.0821429999999985,1001.4099,0,0
62.08,-0.4238353,6.751887299999999,7.134221000000001,1001.4048,0,0
62.12,-0.32823923,6.8329186,7.115284,1001.3693,0,0
62.16,-0.48119295,6.742354,6.9637823,1001.3871,0,0
62.2,-0.32823923,6.8329186,6.850157,1001.3972,0,0
62.24,-0.44295454,6.7328205,7.2289095,1001.3746,0,0
62.28,-0.528991,6.6470227,7.2052374000000015,1001.38965,0,0
62.32,-0.35213825,6.7375875,7.252581599999999,1001.39966,0,0
62.36,-0.2708816,6.8805842,7.0063925000000005,1001.39215,0,0
62.4,-0.32823923,6.7995524000000005,7.063205,1001.3845,0,0
62.44,-0.36647767,6.761420200000001,7.181565299999999,1001.3972,0,0
62.48,-0.40471607,6.742354,6.9779854000000014,1001.39215,0,0
62.52,-0.3043402,6.8043194000000025,7.115284,1001.3947,0,0
62.56,-0.20396432,6.8043194000000025,7.3946133,1001.4048,0,0
62.6,-0.35213825,6.6946883,7.134221000000001,1001.44006,0,0
62.64,-0.44773436,6.63749,7.0679398,1001.3871,0,0
62.68,-0.37125748,6.77572,6.873829,1001.4098,0,0
62.72,-0.44773436,6.63749,7.2005032999999985,1001.4072,0,0
62.76,-0.4668535,6.6946883,7.162628,1001.4123,0,0
62.8,-0.39037666,6.7089880000000015,7.318863,1001.3997,0,0
62.84,-0.37125748,6.7042212,7.4608955,1001.4074,0,0
62.88,-0.3760373,6.794786,7.2052374000000015,1001.3946,0,0
62.92,-0.32345942,6.770953,7.157893,1001.40466,0,0
62.96,-0.38081712,6.7375875,7.252581599999999,1001.3896,0,0
63.0,-0.53848803,6.680386500000001,7.1578990000000005,1001.39215,0,0
63.04,-0.59584326,6.666086999999999,6.9685229999999985,1001.39215,0,0
63.08,-0.61495996,6.656553999999999,7.252587299999999,1001.3999,0,0
63.12,-0.576719,6.6756199999999986,7.228916000000001,1001.37177,0,0
63.16,-0.5002396,6.666086999999999,7.470370299999999,1001.3845,0,0
63.2,-0.43332,6.751885400000001,7.1389627,1001.3771,0,0
63.24,-0.41897804,6.7185190000000015,7.2809954,1001.4072,0,0
63.28,-0.45243406,6.6994534,7.157901,1001.42505,0,0
63.32,-0.35683548,6.8567490000000015,6.982728,1001.3947,0,0
63.36,-0.5384654999999999,6.7757177,7.015869,1001.4072,0,0
63.4,-0.5862613,6.7137523,7.318871499999997,1001.3846,0,0
63.44,-0.59103906,6.699453,7.3283396,1001.4074,0,0
63.48,-0.5193388,6.7518850000000015,6.996932000000001,1001.3871,0,0
63.52,-0.481098,6.8090835000000025,6.9353848,1001.4148,0,0
63.56,-0.4189579000000001,6.747118,7.1342306,1001.4123,0,0
63.6,-0.47153348,6.6994524,7.0584803,1001.3921,0,0
63.64,-0.49065,6.6470202999999985,7.1531687,1001.42755,0,0
63.68,-0.45240903,6.6613197,7.295201299999999,1001.3972,0,0
63.72,-0.32335198,6.794783,7.058481,1001.40466,0,0
63.76,-0.4380646,6.7423509999999975,6.864370299999999,1001.4097,0,0
63.8,-0.4619612,6.7614174,7.0821533,1001.3946,0,0
63.84,-0.4141606,6.6899190000000015,7.276263,1001.3974,0,0
63.88,-0.44761676,6.7757172999999975,7.1342325,1001.3819,0,0
63.92,-0.38069725,6.8805814,7.1721067,1001.3896,0,0
63.96,-0.47151083,6.6708527,7.3236084,1001.4173,0,0
64.0,-0.38547218,6.732817,7.2289210000000015,1001.4124,0,0
64.04,-0.48116314,6.6613216,7.086879700000001,1001.3541,0,0
64.08,-0.38078827,6.794785000000001,7.143692999999999,1001.4124,0,0
64.12,-0.42858768,6.7137537,7.148427000000001,1001.4097,0,0
64.16,-0.5241851,6.6517880000000025,7.0442705000000005,1001.3997,0,0
64.2,-0.5241863,6.7137537,7.2052393,1001.3946,0,0
64.24,-0.41903186,6.7328199999999985,7.181567,1001.3871,0,0
64.28,-0.5337483000000001,6.728053599999999,7.181567,1001.3846,0,0
64.32,-0.548089,6.7614193,7.101082000000001,1001.4326,0,0
64.36,-0.5194115,6.766186,7.2999268,1001.39716,0,0
64.4,-0.47161478,6.7423534,7.157895,1001.4097,0,0
64.44,-0.56243217,6.670855499999999,7.148426,1001.4073,0,0
64.48,-0.50029606,6.751887,7.0632066999999985,1001.41473,0,0
64.52,-0.5385358,6.718520599999999,7.1957703,1001.4047,0,0
64.56,-0.46683997,6.689921400000001,7.2904587,1001.3946,0,0
64.6,-0.5289783,6.689921400000001,7.2951926999999985,1001.4123,0,0
64.64,-0.48596132,6.780486,7.0442686000000005,1001.41473,0,0
64.68,-0.48596293,6.8186183000000025,7.0490026,1001.3996,0,0
64.72,-0.49552375,6.699455,7.2241755,1001.3997,0,0
64.76,-0.53376347,6.723287599999999,7.1578940000000015,1001.3996,0,0
64.8,-0.6293608,6.6994553,7.252581599999999,1001.4276,0,0
64.84,-0.61980236,6.77572,7.0679398,1001.40466,0,0
64.88,-0.58634496,6.961614999999999,7.0063925000000005,1001.4197,0,0
64.92,-0.5863461999999999,7.1236786999999975,7.2383785,1001.42224,0,0
64.96,-0.8253377000000001,7.3620066999999985,6.921173,1001.4047,0,0
65.0,-1.0977874,7.152278,6.883298,1001.40717,0,0
65.04,-1.3660762,7.166592999999999,6.3577223,1001.36676,1,4
65.08,-1.624211,6.8615336,6.319845,1001.3945,1,4
65.12,-1.5429718,6.7423699999999975,6.973190299999999,1001.4197,1,4
65.16,-1.437843,6.804336,5.4629135,1001.402,1,4
65.2,-1.1128466,7.376323700000001,6.215681,1001.4071,1,4
65.24,-1.1176517,7.543153999999999,5.4439707,1001.3819,1,4
65.28,-0.6444765,7.919713000000002,6.7553988,1001.4273,1,4
65.32,-0.39117062,8.148507,5.7422333,1001.42004,1,4
65.36,-0.5967292,7.7528844,5.874795,1001.4046,1,4
65.4,-0.11399283,7.509790400000001,6.8832207,1001.4197,1,4
65.44,-0.30042738,7.3334284,6.300887,1001.40717,1,4
65.48,0.26357204,7.500259,6.3671665,1001.397,1,4
65.52,0.105802074,7.037903,7.792219,1001.4349,1,4
65.56,-0.17623176,6.6327467,6.244066,1001.4096,1,4
65.6,-0.05197428,6.7137785,7.072586,1001.4149,1,4
65.64,0.13441114,7.080804,5.3587294000000005,1001.3994,1,4
65.68,0.68406475,7.8815856,4.766926,1001.382,1,4
65.72,0.20128082,7.6623254,5.5907097000000014,1001.392,1,4
65.76,0.73181206,8.315344,6.670151700000001,1001.41205,1,4
65.8,0.30160588,8.138982,7.11045,1001.4349,1,4
65.84,-0.60658056,7.4287649999999985,8.7816925,1001.4349,1,4
65.88,-0.46799165,7.562228699999999,7.593354,1001.4122,1,4
65.92,-0.8982009,7.8672895,8.312981,1001.4099,1,4
65.96,-1.4335629,7.767192999999999,7.4560520000000015,1001.4099,1,4
66.0,0.21066277,7.2571716,7.8111296,1001.41724,1,4
66.04,0.20731215,5.9654,7.759183,1001.4248,1,4
66.08,-1.5468442,4.602164,6.8833210000000005,1001.402,1,4
66.12,-1.6089499,5.5316415,7.290482499999999,1001.4149,1,4
66.16,-1.1070367,5.8938994000000005,6.6087303,1001.41974,1,4
66.2,-0.8632370999999999,5.584072,6.6276712,1001.41724,1,4
66.24,-0.4903826,6.113159,6.883331299999999,1001.41724,1,4
66.28,-0.6719835,6.399152,6.1210957000000015,1001.3921,1,4
66.32,-0.59069705,6.2561545,6.5093193,1001.3919,1,4
66.36,-0.16048099999999998,6.036892,8.75343,1001.4226,1,4
66.4,-0.06963305,5.9463267,8.289462,1001.4575,1,4
66.44,0.9341575,6.9902015,8.781842,1001.40967,1,4
66.48,0.59004325,6.9330025,7.494086999999999,1001.40424,1,4
66.52,0.08341385400000001,6.3705482,7.8870460000000016,1001.40936,1,4
66.56,0.6283411999999999,7.1188970000000005,7.195825599999999,1001.4045,1,4
66.6,0.74787,7.261892299999999,8.384163000000001,1001.4147,1,4
66.64,1.7086422,6.632706,8.085899000000001,1001.4147,1,4
66.68,1.4792413999999998,5.6269620000000025,7.2715845,1001.39465,1,4
66.72,0.78141975,5.3981660000000025,5.846532,1001.3919,1,4
66.76,0.7145342,5.846221400000001,6.177943,1001.3992,1,4
66.8,0.5568344,5.6555589999999984,7.068014,1001.4223,1,4
66.84,-0.06451036,5.8319206,7.536722,1001.4477,1,4
66.88,-0.17919198,6.556437,6.613517,1001.40967,1,4
66.92,0.28447878,7.342917999999999,6.3625965,1001.40686,1,4
66.96,-0.026178777,6.8853273,8.270563000000001,1001.4122,1,4
67.0,-0.64752156,6.74233,8.573568,1001.45276,1,4
67.04,-0.41002232,7.1665907,10.509803,1001.4352,1,4
67.08,-0.935827,7.762410000000001,6.8217,1001.38403,1,4
67.12,-0.15674506,7.404919599999999,8.540286,1001.422,1,4
67.16,-0.26670846,6.4945080000000015,7.153103,1001.42737,1,4
67.2,-0.5439649999999999,6.4802089999999986,7.2619925,1001.3995,1,4
67.24,-0.6826002,6.0798187000000015,8.109448,1001.41473,1,4
67.28,-0.6061582,5.464934,6.674921,1001.3992,1,4
67.32,-0.16644418,5.455401,7.503439,1001.38934,1,4
67.36,0.010380641,5.37437,7.1862315999999975,1001.3995,1,4
67.4,0.24934466,5.741396,7.0252589999999975,1001.40717,1,4
67.44,-0.14740695,5.4792356,5.950547,1001.4094,1,4
67.48,-0.004040718,5.2170763,7.834838,1001.43756,1,4
67.52,0.5169299,6.1846875999999975,7.806427999999999,1001.44495,1,4
67.56,0.7989104,6.327685,9.255154,1001.44495,1,4
67.6,-0.051920727,6.2323546,9.174665,1001.42957,1,4
67.64,-0.032829434,7.409695,9.00896,1001.40717,1,4
67.68,0.9756882,7.528859599999999,7.6265116,1001.3793,1,4
67.72,1.8312399,6.2037573,9.60549,1001.4198,1,4
67.76,1.0616671,5.541206400000001,7.541287400000001,1001.3717,1,4
67.8,1.5921974,5.7557019999999985,7.176735000000001,1001.40967,1,4
67.84,1.3053864,5.3362455,7.3140306,1001.41437,1,4
67.88,0.32071203,5.3410134000000005,6.703289,1001.3944,1,4
67.92,-0.07603955,5.7843037000000015,6.433426,1001.3793,1,4
67.96,-0.11907874,6.0845970000000005,6.177767,1001.3738,1,4
68.0,0.33496952,6.642285,7.1861916,1001.40936,1,4
68.04,-0.40069333,6.632742,8.298815,1001.42957,1,4
68.08,-0.55843896,6.7900386,9.364056,1001.422,1,4
68.12,-0.34813577,7.0093,10.722829,1001.43744,1,4
68.16,-0.58713543,7.4478235,7.707012,1001.39935,1,4
68.2,0.0676875,7.0569663,8.294077,1001.4092,1,4
68.24,-0.6206144,6.3801155,6.987381,1001.40186,1,4
68.28,-0.98866946,6.518346,5.9126699999999985,1001.38635,1,4
68.32,-1.0460384,5.893927,7.0252542,1001.42957,1,4
68.36,-0.67800313,5.7461642999999984,6.040497,1001.37897,1,4
68.4,-0.5202797,5.6270003,8.166244,1001.42975,1,4
68.44,-0.79751915,5.4649377,7.7590837,1001.43976,1,4
68.48,-0.5011802,5.8796287000000005,7.157814,1001.41174,1,4
68.52,-0.056667298,5.7795305,6.447653,1001.4169,1,4
68.56,-0.0088787675,5.9606605,7.782754,1001.43713,1,4
68.6,0.23010068,6.499281400000001,7.56497,1001.43207,1,4
68.64,1.0522155,6.413484,9.321433,1001.43207,1,4
68.68,0.7797565,6.3896510000000015,8.601802000000001,1001.41693,1,4
68.72,0.110576406,6.732842999999999,8.033673,1001.38135,1,4
68.76,0.9518117,6.546948,7.4750130000000015,1001.417,1,4
68.8,0.8992206,5.855798,8.900067,1001.44226,1,4
68.84,-0.018510625,5.989261,5.538639,1001.35345,1,4
68.88,0.26826745,6.0130944,6.774317699999999,1001.39154,1,4
68.92,0.5168071,5.178947,8.81011,1001.4448,1,4
68.96,0.38296306,5.4029756,7.304569199999999,1001.4245,1,4
69.0,0.49301314,6.54218,6.4239807,1001.389,1,4
69.04,0.67942035,7.1427655,5.7658977999999985,1001.3941,1,4
69.08,0.5885991,6.9282710000000005,7.2288284,1001.43225,1,4
69.12,-0.17139481,6.494515,8.620743,1001.43713,1,4
69.16,-0.6350406,6.5660133,9.539217,1001.4878,1,4
69.2,-0.07580826,6.9854702999999985,9.51081,1001.43207,1,4
69.24,0.07236029,7.366794,7.2146235,1001.4094,1,4
69.28,0.4069414,7.2666974,6.5754785999999985,1001.38904,1,4
69.32,-0.07104337,5.9034624,8.549725,1001.42694,1,4
69.36,-0.75934017,5.941595,7.332982,1001.42426,1,4
69.4,-0.81192315,6.4087176,7.522358,1001.39154,1,4
69.44,-0.7641304,6.2466550000000005,6.168318,1001.3763,1,4
69.48,-0.051944464,6.060759,7.522357,1001.40674,1,4
69.52,-0.0041511804,5.8224316,7.957921000000002,1001.41943,1,4
69.56,-0.24792656,6.041693,7.1625414,1001.3991,1,4
69.6,-0.12843654,6.5326486,6.0215489999999985,1001.4041,1,4
69.64,0.019732937,6.589847,5.6759377,1001.38885,1,4
69.68,-1.4333329,5.855798,7.0015697,1001.41425,1,4
69.72,-1.4524572,6.089359,6.2014559999999985,1001.4014,1,4
69.76,-0.9888209,6.995005,5.8037653,1001.3837,1,4
69.8,-0.6542397,6.8567753,8.275124,1001.4169,1,4
69.84,-0.93625325,6.599381,10.737014,1001.4549,1,4
69.88,-0.65424955,7.209500299999997,8.57339,1001.4318,1,4
69.92,1.3676023000000002,6.6804130000000015,9.828008,1001.432,1,4
69.96,0.90873575,5.321944,9.700177,1001.44714,1,4
70.0,0.645466,5.836742,7.938944999999999,1001.3913,1,4
70.04,0.11966853,5.955906400000001,6.4665422,1001.38116,1,4
70.08,0.2678222,5.5507493,6.182476,1001.36597,1,4
70.12,0.32994062,5.55075,7.896329,1001.42175,1,4
70.16,0.40639722,5.9511410000000025,5.5433283,1001.3988,1,4
70.2,0.501973,6.537428,5.4912480000000015,1001.3886,1,4
70.24,0.65968746,6.6899586,5.836858,1001.3837,1,4
70.28,0.12432794,6.4373317000000005,8.06676,1001.4166,1,4
70.32,-0.0429855,6.885388400000001,6.499671,1001.3863,1,4
70.36,0.47321564,6.8615556,8.900012,1001.44714,1,4
70.4,-0.49232632,6.6708940000000005,8.208787,1001.39624,1,4
70.44,-0.41108993,7.4049444000000015,7.309247999999997,1001.3888,1,4
70.48,-0.25815648,7.2285824,7.95786,1001.4242,1,4
70.52,-0.39200997,6.1227417,8.085687,1001.4039,1,4
70.56,-0.25819576,5.8558144999999975,8.256124,1001.4218,1,4
70.6,-0.24387664,6.880625200000001,8.019402000000001,1001.39624,1,4
70.64,-0.3251536,6.861559,7.5412254,1001.38116,1,4
70.68,-0.33473092,6.0703115,8.194571,1001.4141,1,4
70.72,-0.3490919,5.5221577,8.256116,1001.40906,1,4
70.76,-0.52118385,5.6317887,7.8820963000000015,1001.40894,1,4
70.8,-0.5259839,5.808152,7.8110789999999986,1001.3659,1,4
70.84,-0.32525373,5.8653517,7.399184,1001.38873,1,4
70.88,-0.46866804,5.884418,7.351838000000001,1001.38116,1,4
70.92,-0.29183435,5.789088,8.284513,1001.40137,1,4
70.96,-0.009841144,5.8987184,6.921004300000001,1001.3634,1,4
71.0,-0.1578215,5.7271175,7.886841,1001.3988,1,4
71.04,0.17675410000000005,6.0512440000000005,7.0961943,1001.4038,1,4
71.08,0.12894462,6.189474,7.1151304,1001.3862,1,4
71.12,-0.32514745,5.9320807,7.848961999999997,1001.41394,0,0
71.16,-0.19610412,6.0464783,7.5459585,1001.4064,0,0
71.2,0.31532347,6.4039702000000025,7.673787,1001.36334,0,0
71.24,0.17669769,6.184709,7.938912400000001,1001.3988,0,0
71.28,0.10976906,6.2848067,7.62644,1001.39374,0,0
71.32,0.3487485,6.556501,7.380250999999999,1001.39374,0,0
71.36,0.42043418,6.575567200000001,7.214545200000001,1001.3734,0,0
71.4,0.17665349,6.389672,7.81108,1001.3734,0,0
71.44,0.23877876,6.5994009999999985,7.1719339999999985,1001.39105,0,0
71.48,0.12883191,6.5183697,7.6785145,1001.4039,0,0
71.52,-0.03369285,6.5994015,7.4181203999999985,1001.4013,0,0
71.56,0.14793254,6.761464599999999,6.9825554000000025,1001.386,0,0
71.6,0.19093652,6.623234700000001,7.758996000000002,1001.3684,0,0
71.64,0.06664948,6.523137,7.058303,1001.40125,0,0
71.68,0.057082012,6.6184688,7.025161,1001.40125,0,0
71.72,-0.024188906,6.4897722999999985,7.252412,1001.3936,0,0
71.76,0.04749675,6.513605,7.081971,1001.38873,0,0
71.8,-0.00030986965,6.4659394999999975,7.039362,1001.4089,0,0
71.84,-0.119816415,6.3896747000000005,7.5317383,1001.39606,0,0
71.88,-0.15806839,6.3229437000000015,7.602753599999999,1001.41364,0,0
71.92,-0.014684245,6.4897733,7.1813910000000005,1001.4112,0,0
71.96,0.028324679,6.399209,7.2997494,1001.4062,0,0
72.0,-0.023672536,6.2800307,7.915275599999997,1001.4163,0,0
72.04,0.0097948015,6.470692,7.550727,1001.3858,0,0
72.08,-0.12880602,6.456393,7.9484176999999985,1001.41113,0,0
72.12,0.07196160000000001,6.651821000000001,7.9531546,1001.3808,0,0
72.16,-0.08576396,6.5278907,7.659622,1001.4087,0,0
72.2,-0.1526638,6.4373260000000005,6.8547745,1001.4113,0,0
72.24,-0.19089268,6.399193,6.973136,1001.4036,0,0
72.28,-0.0331441,6.5469556,7.1625137,1001.37823,0,0
72.32,-0.0665908,6.423025,6.9542007,1001.39343,0,0
72.36,-0.02833888,6.361059,7.5649405,1001.39856,0,0
72.4,0.0099090785,6.3181605,7.266673,1001.38324,0,0
72.44,0.024258763,6.461157,7.432378999999999,1001.39856,0,0
72.48,-0.02352658,6.527888,7.1814556,1001.4137,0,0
72.52,-0.0043946654,6.394424,7.4465837,1001.3909,0,0
72.56,-0.09041844,6.356292,7.4276475999999985,1001.401,0,0
72.6,-0.15254399,6.4373226,7.5980864000000015,1001.40356,0,0
72.64,-0.15253129999999998,6.465922,7.564947,1001.40356,0,0
72.68,0.0004351139,6.5707855,7.7117147,1001.42346,0,0
72.72,0.08648427,6.470688,8.213563,1001.4311,0,0
72.76,-0.19072847,6.256192,7.626498,1001.38074,0,0
72.8,-0.07600285,6.1799269999999975,7.389778999999999,1001.3858,0,0
72.84,-0.090331145,6.160861,7.55075,1001.39856,0,0
72.88,-0.21459657,6.1608605,7.1862020000000015,1001.4085,0,0
72.92,-0.17156163,6.2990900000000005,7.361376,1001.4163,0,0
72.96,-0.20978661,6.551717,7.186205,1001.3834,0,0
73.0,-0.32448995,6.365821,8.118882000000001,1001.39856,0,0
73.04,-0.28714559999999995,6.199013,7.9530973,1001.4163,0,0
73.08,-0.009938449,6.432575,7.7921257,1001.4113,0,0
73.12,-0.048199713,6.508840599999999,7.356559,1001.39307,0,0
73.16,-0.19639644,6.3801446,7.247664500000001,1001.4184,0,0
73.2,-0.12950064,6.413511,7.484383599999999,1001.4061,0,0
73.24,-0.010029793,6.446877,7.4749117,1001.43365,0,0
73.28,-0.12954485,6.380146,7.517519999999997,1001.4362,0,0
73.32,-0.01485382,6.5898747,6.9872646,1001.3981,0,0
73.36,-0.2060688,6.3849134,7.465437,1001.4086,0,0
73.4,-0.23954883,6.3658480000000015,7.001463,1001.37317,0,0
73.44,-0.18221685,6.5803437,6.991992,1001.36554,0,0
73.48,-0.26826477,6.580344,7.247649000000001,1001.44147,0,0
73.52,-0.30175194,6.499313,7.427553,1001.4189,0,0
73.56,-0.22052094,6.4754809999999985,7.867851299999999,1001.39594,0,0
73.6,-0.072372705,6.5326805,7.233438499999999,1001.4138,0,0
73.64,-0.029370174,6.5279145,7.1671553,1001.396,0,0
73.68,-0.23970723,6.3801513,7.176621400000001,1001.3909,0,0
73.72,-0.10111575,6.4850163,7.294980000000002,1001.4214,0,0
73.76,-0.03422132,6.6041803,7.2097588,1001.4138,0,0
73.8,0.03267452,6.732878,7.2997103,1001.4061,0,0
73.84,-0.01514779,6.5612826,7.498553299999997,1001.3935,0,0
73.88,0.11388837,6.5660505,7.375457000000001,1001.39355,0,0
73.92,-0.058205947,6.4421196,7.564831,1001.4061,0,0
73.96,-0.12036909,6.384922,7.2523584,1001.4188,0,0
74.0,-0.05824876,6.3944554,7.361248,1001.39105,0,0
74.04,-0.005083933499999999,6.5803366,7.176659599999999,1001.3985,0,0
74.08,-0.067220196,6.4897722999999985,7.228739,1001.3859,0,0
74.12,-0.048099697,6.518371599999999,7.673772,1001.4087,0,0
74.16,0.009259343,6.4993050000000006,7.4796619999999985,1001.39355,0,0
74.2,-0.091115326,6.4993050000000006,7.4275837,1001.4113,0,0
74.24,0.018821418,6.5898695000000025,7.1293163,1001.37823,0,0
74.28,-0.095892556,6.4564059999999985,7.441787,1001.39355,0,0
74.32,-0.19626719,6.4897722999999985,7.3423643,1001.4062,0,0
74.36,-0.13890845,6.5279045,7.5601473,1001.4139,0,0
74.4,-0.062430233,6.4993050000000006,7.54121,1001.4087,0,0
74.44,0.03794667,6.651835,7.1387854000000015,1001.38855,0,0
74.48,0.061846927,6.4754725,7.380240400000001,1001.4162,0,0
74.52,-0.057646886,6.504071700000001,7.1719265,1001.38873,0,0
74.56,-0.028966695,6.4897722999999985,7.247677,1001.4088,0,0
74.6,-0.024185374,6.5898695000000025,7.271349000000002,1001.4038,0,0
74.64,-0.03374438,6.6184688,7.228739699999997,1001.4063,0,0
74.68,-0.19147608,6.4993050000000006,7.493867,1001.4062,0,0
74.72,-0.32052958,6.4802384,7.295022,1001.3963,0,0
74.76,-0.27751008,6.5660367,7.2524130000000016,1001.4393,0,0
74.8,-0.1149954,6.5851026,7.782666000000001,1001.3936,0,0
74.84,-0.22014996,6.4039736,7.6027584,1001.42664,0,0
74.88,-0.028956696,6.6280017,7.2287407,1001.41144,0,0
74.92,-0.13411088,6.542204,7.342366,1001.39374,0,0
74.96,-0.1341099,6.5088377,7.261881,1001.3988,0,0
75.0,-0.19146618,6.5517364,7.2192717,1001.4013,0,0
75.04,-0.07684706,6.7185683,6.963605,1001.4013,0,0
75.08,-0.10552797,6.6041713,7.5412025,1001.419,0,0
75.12,-0.23936482,6.5183735,7.44178,1001.42676,0,0
75.16,-0.052955315,6.50884,7.1198397,1001.3938,0,0
75.2,-0.12465462,6.5803385,7.029886200000001,1001.40894,0,0
75.24,-0.04340081,6.5183735,7.815797,1001.3862,0,0
75.28,-0.30151212,6.4325757,7.5127954,1001.414,0,0
75.32,-0.41623008,6.499307,7.418107000000001,1001.40643,0,0
75.36,-0.34931552,6.4802413,7.2760744000000015,1001.38617,0,0
75.4,-0.30152005,6.4802413,7.5506697,1001.39386,0,0
75.44,-0.03863336,6.6804365999999975,7.2855425,1001.3938,0,0
75.48,-0.052975,6.580339,7.574341,1001.4066,0,0
75.52,0.05217813,6.6089387,7.3044796,1001.39636,0,0
75.56,-0.019520625,6.5803394,7.143510000000001,1001.39386,0,0
75.6,-0.067321196,6.518374400000001,6.764757,1001.4141,0,0
75.64,-0.029086426,6.613705,7.063024499999999,1001.40894,0,0
75.68,0.056947485,6.518374400000001,6.982539,1001.41144,0,0
75.72,0.13342179999999998,6.561273,7.631153,1001.4141,0,0
75.76,0.056942537,6.680437,7.13404,1001.41925,0,0
75.8,-0.03387609,6.6709039999999975,7.304478599999999,1001.40894,0,0
75.84,-0.10079588,6.6470720000000005,7.484385499999999,1001.4141,0,0
75.88,-0.21073389,6.4945416,7.621683,1001.41925,0,0
75.92,-0.2107366,6.451643,7.545932,1001.40674,0,0
75.96,-0.08168413,6.589873,7.2381964,1001.4293,0,0
76.0,0.037808448,6.675671,7.4181023,1001.4117,0,0
76.04,-0.028429687,6.661355,7.351883,1001.4066,0,0
76.08,-0.090543024,6.494525,7.351886,1001.41187,0,0
76.12,0.10545154,6.5803227,7.3045434999999985,1001.41693,0,0
76.16,-0.24345006,6.48499,7.3092804,1001.394,0,0
76.2,-0.11915108,6.89968,7.1909227,1001.3992,0,0
76.24,0.052947447,6.627986,8.133071000000001,1001.41693,0,0
76.28,-0.35331175,6.2847934,7.460788000000001,1001.38153,0,0
76.32,-0.44888675,6.5660195,6.665409,1001.40674,0,0
76.36,-0.36282468,6.7519145000000025,6.5517864,1001.4017,0,0
76.4,-0.42015824,6.556485,7.650170299999999,1001.3966,0,0
76.44,-0.08076957,6.7471466,7.0678406,1001.4222,0,0
76.48,-0.10942579,6.656582000000001,7.579159,1001.40924,0,0
76.52,-0.018583924,6.97594,6.3955603,1001.417,0,0
76.56,0.03879629,6.68518,7.678586,1001.4067,0,0
76.6,0.0388204,6.9187407000000025,6.244063400000001,1001.384,0,0
76.64,0.1583396,6.942572599999999,7.252494,1001.41174,0,0
76.68,-0.037608296,6.704244,6.637022999999999,1001.39154,0,0
76.72,0.07235132,6.8996725,6.7695884999999985,1001.4016,0,0
76.76,-0.08057982,6.6851773,7.138874,1001.3738,0,0
76.8,-0.032757685,6.7233095,6.689108,1001.3966,0,0
76.84,0.06286247,6.813872999999999,6.9021587,1001.4272,0,0
76.88,0.08678411,6.728074,6.760128999999999,1001.40674,0,0
76.92,0.26366246,6.9568686,6.925834700000001,1001.4119,0,0
76.96,0.44053173,7.095097999999999,6.9447737000000025,1001.42957,0,0
77.0,-0.06609735,6.9187350000000025,7.8253765,1001.3715,0,0
77.04,0.42624652,6.6375074000000005,6.608636,1001.38654,0,0
77.08,0.20161988,6.770970299999999,7.3850803,1001.427,0,0
77.12,0.3067981,6.813869,6.708063,1001.41425,0,0
77.16,0.19210695,6.7423699999999975,7.9626827,1001.4169,0,0
77.2,0.29250687,6.899665400000001,6.940053,1001.40424,0,0
77.24,0.03920141,6.956864,7.380356,1001.422,0,0
77.28,0.10136144,6.6565704,6.9211197,1001.422,0,0
77.32,0.18742199,6.8043327000000025,6.987404,1001.4449,0,0
77.36,0.16832687,6.689934700000001,7.257267,1001.45764,0,0
77.4,0.33086282,6.8615303,7.479786,1001.3766,0,0
