Timestamp,Ax,Ay,Az,P,Value,Type
0.0,0.1857626,6.775188000000001,8.016805999999999,1000.5824,0,0
0.04,-0.134502,6.417696,8.168304,1000.5925,0,0
0.08,-0.27313405,6.122170400000001,8.565992,1000.6051,0,0
0.12,-0.14409599,6.279467,7.6948614,1000.56976,0,0
0.16,-0.06763691,6.255635,7.9505167,1000.5797,0,0
0.2,-0.30664375,6.02684,7.9079065,1000.5975,0,0
0.24,-0.31622222,6.031607599999999,7.623840299999999,1000.58997,0,0
0.28,0.34815383,6.5797625,7.709058,1000.57965,0,0
0.32,0.023109451,6.12694,7.514946000000001,1000.6026,0,0
0.36,0.15214638,6.155539,7.619100599999999,1000.56726,0,0
0.4,0.056532547,6.2461047,7.486536,1000.5673,0,0
0.44,-0.019960955,6.0745087,7.410784,1000.5646,0,0
0.48,0.013481021,6.2127395,7.661706,1000.5899,0,0
0.52,-0.3067836,5.9172129999999985,7.3018894,1000.56476,0,0
0.56,-0.029573843,6.031611,7.235606,1000.56464,0,0
0.6,0.09946425,6.036378,7.82267,1000.5824,0,0
0.64,0.055449024000000006,5.955371,7.4769679999999985,1000.5747,0,0
0.68,0.012373716000000002,5.9077067,7.5669165,1000.5695,0,0
0.72,0.17482997,6.1937013,7.410676,1000.5646,0,0
0.76,0.45678484,6.279501,7.533766,1000.53925,0,0
0.8,0.20339818,6.0554739999999985,7.495885,1000.58734,0,0
0.84,-0.04042889,6.274737,6.9750957,1000.54956,0,0
0.88,0.21284367,6.6036305,7.363312,1000.5898,0,0
0.92,0.24147253,6.489235,7.9124966,1000.5595,0,0
0.96,0.4182682,6.412971,8.291244500000001,1000.57983,0,0
1.0,0.83883035,6.608402000000001,7.5195312,1000.58215,0,0
1.04,0.38469177,6.365309,7.765714599999999,1000.55695,0,0
1.08,0.08829047,6.2652125,7.2307224,1000.54425,0,0
1.12,0.21728809,6.6751380000000005,7.1407633000000015,1000.56195,0,0
1.16,0.18855219,6.6370063,7.1691647,1000.55194,0,0
1.2,0.20761786,6.698973,7.486365299999999,1000.54443,0,0
1.24,0.40831256,6.8372045,7.4390154000000015,1000.5545,0,0
1.28,0.5038515,6.9182377000000015,7.315916,1000.57715,0,0
1.32,0.28870326,6.756175999999999,7.263832000000002,1000.5593,0,0
1.36,0.17393447,6.5893479999999975,7.169139,1000.5645,0,0
1.4,0.12129958,6.6751475000000005,7.0365705,1000.5518,0,0
1.44,-0.026917174,6.665615,6.7667055,1000.53687,0,0
1.48,-0.07956278,6.374857,7.330093400000001,1000.53937,0,0
1.52,-0.1226417,6.3557925000000015,7.1312428,1000.57715,0,0
1.56,-0.07967698599999999,6.4987900000000005,6.8282365999999985,1000.5671,0,0
1.6,-0.012816787,6.584589500000001,6.9939356,1000.56195,0,0
1.64,-0.16090484,6.613187,6.899255,1000.57983,0,0
1.68,-0.21354768,6.622721,6.889781,1000.54944,0,0
1.72,-0.328315,6.5893570000000015,7.3632154,1000.58734,0,0
1.76,-0.23275793,6.737121000000001,7.1643677,1000.58215,0,0
1.8,-0.26150173,6.689457000000001,7.339534,1000.5593,0,0
1.84,-0.25677395,6.570294400000001,7.6188593,1000.56433,0,0
1.88,-0.027395338,6.808624000000001,7.045992,1000.5721,0,0
1.92,-0.18516137,6.7990910000000016,7.1643496,1000.5621,0,0
1.96,-0.5532713,6.455900700000001,7.277968400000002,1000.58484,0,0
2.0,-0.68237144,6.38917,7.3205740000000015,1000.5695,0,0
2.04,-0.63463193,6.498802,7.282694,1000.56433,0,0
2.08,-0.7828579000000001,6.4559045,7.467331,1000.56177,0,0
2.12,-0.59171766,6.5083375,7.2779493,1000.5694,0,0
2.16,-0.47705114,6.556005,7.604619,1000.56683,0,0
2.2,-0.6730784000000001,6.351044,7.505192,1000.577,0,0
2.24,-0.5631916,6.393944,7.344217299999999,1000.6024,0,0
2.28,-0.3768215,6.4416113,7.3773546,1000.5695,0,0
2.32,-0.7019066999999999,6.40348,7.169035000000001,1000.58234,0,0
2.36,-0.5872271,6.5512443,7.102751,1000.56714,0,0
2.4,-0.62073773,6.551245,7.26845,1000.5796,0,0
2.44,-0.6112430999999999,6.5607796,7.5714455,1000.5822,0,0
2.48,-0.52047235,6.517882299999999,7.7513485,1000.5796,0,0
2.52,-0.38191652,6.598914999999999,7.4862175,1000.56177,0,0
2.56,-0.36284614,6.5607834,7.547758999999999,1000.562,0,0
2.6,-0.31032348,6.608451,7.571426400000001,1000.5821,0,0
2.64,-0.29090846,6.5321784,7.277920699999999,1000.5695,0,0
2.68,-0.33873028,6.575078,7.4436225999999985,1000.5719,0,0
2.72,-0.5873181,6.4034830000000005,7.0127880000000005,1000.5618,0,0
2.76,-0.5108912,6.3319864,7.3773327,1000.56433,0,0
2.8,-0.49658746,6.398719,7.1122026,1000.5769,0,0
2.84,-0.43449044,6.436852,7.344185,1000.5821,0,0
2.88,-0.5492415,6.393954,7.3915253,1000.5794,0,0
2.92,-0.41544497,6.565551299999999,7.3820534,1000.5644,0,0
2.96,-0.42982012,6.4702206,7.2068768,1000.5744,0,0
3.0,-0.4298463,6.455921599999999,7.732394,1000.57935,0,0
3.04,-0.5828499,6.3224589999999985,7.552481699999999,1000.5946,0,0
3.08,-0.45383084,6.436857700000001,7.0743036,1000.58716,0,0
3.12,-0.38217187,6.451158,7.320489,1000.562,0,0
3.16,-0.44912958,6.4225597,7.509861,1000.59467,0,0
3.2,-0.2484135,6.5512576,7.5572023,1000.577,0,0
3.24,-0.18630219,6.474993,7.656623,1000.5847,0,0
3.28,-0.15287451,6.4606949999999985,7.7039633,1000.5769,0,0
3.32,-0.15287451,6.4606949999999985,7.7039633,1000.5642,0,0
3.36,-0.15287451,6.4606949999999985,7.7039633,1000.5694,0,0
3.4,-0.15287451,6.4606949999999985,7.7039633,1000.57184,0,0
3.44,-0.15287451,6.4606949999999985,7.7039633,1000.57684,0,0
3.48,-0.27257174,6.4606996,7.552444500000001,1000.5947,0,0
3.52,-0.5020356,6.422568,7.7181454,1000.5821,0,0
3.56,-0.47340202,6.4225693,7.415139,1000.5921,0,0
3.6,-0.42085987,6.3653708,7.2731037,1000.6098,0,0
3.64,-0.49728167,6.284338,7.604516999999999,1000.5694,0,0
3.68,-0.35391968,6.327238,7.334653,1000.59216,0,0
3.72,-0.24878968,6.556033599999999,7.216290499999999,1000.5896,0,0
3.76,-0.44001603,6.522668,7.1831474,1000.5871,0,0
3.8,-0.60734344,6.374906,7.7702103,1000.55414,0,0
3.84,-0.63605005,6.3320074,7.5997686,1000.582,0,0
3.88,-0.62174916,6.2938766,8.0448,1000.6098,0,0
3.92,-0.2776375,6.5036054000000005,7.2446814,1000.59216,0,0
3.96,-0.16774270000000002,6.3224773,8.021121,1000.56683,0,0
4.0,-0.21557282,6.365377,6.832782000000001,1000.5618,0,0
4.04,-0.20126122,6.7371693,6.3214636,1000.5718,0,0
4.08,-0.39727592,6.641839,6.9606047,1000.5819,0,0
4.12,-0.3208312,6.4464107,7.8317320000000015,1000.60974,0,0
4.16,-0.12010084,6.51791,8.19628,1000.5947,0,0
4.2,-0.08667856,6.589409,7.680226299999997,1000.592,0,0
4.24,-0.10583414,6.513145400000001,7.557128,1000.5692,0,0
4.28,-0.18234524,6.4893136,6.9605894,1000.5819,0,0
4.32,-0.043763027,6.6037107000000015,7.315666999999999,1000.59216,0,0
4.36,-0.17285195,6.5655800000000015,7.1831007,1000.58734,0,0
4.4,-0.02949205,6.789609,7.273051299999999,1000.60474,0,0
4.44,-0.24939731,6.670446000000001,7.1073437,1000.5772,0,0
4.48,-0.33068603,6.5798820000000005,7.4292803,1000.5769,0,0
4.52,-0.407195,6.4082865999999985,7.348793,1000.59216,0,0
4.56,-0.38811213,6.4178205,7.273039,1000.58484,0,0
4.6,-0.3929262,6.465487,7.1452065000000005,1000.6177,0,0
4.64,-0.15875004,6.660917,7.21622,1000.5542,0,0
4.68,-0.06796585,6.7896147,7.377186999999997,1000.6022,0,0
4.72,-0.024981871,6.7896156,7.1830729999999985,1000.6123,0,0
4.76,-0.14928886,6.6847520000000005,7.2256794000000015,1000.57935,0,0
4.8,-0.25448089999999995,6.608488,7.362974,1000.57684,0,0
4.84,-0.24973106,6.5655899999999985,7.5712852,1000.6072,0,0
4.88,-0.29756546,6.694287299999999,7.1925297000000015,1000.5894,0,0
4.92,-0.168545,6.7276545,7.022088,1000.56934,0,0
4.96,-0.21159743,6.63709,7.3203526,1000.582,0,0
5.0,-0.27376482,6.679990299999999,7.112035799999999,1000.5692,0,0
5.04,-0.28335866,6.756256,7.377159,1000.57184,0,0
5.08,-0.14478712,6.7896233,6.9273862999999976,1000.5642,0,0
5.12,-0.2786473,6.6132607000000005,7.220917699999997,1000.5794,0,0
5.16,-0.44597465,6.5179305,7.050475,1000.567,0,0
5.2,-0.36952993,6.5846634,7.1593637,1000.57935,0,0
5.24,-0.4508208,6.64663,6.974719,1000.5896,0,0
5.28,-0.35525894,6.6656960000000005,7.197233,1000.54675,0,0
5.32,-0.24057786,6.608498599999999,7.126214,1000.5745,0,0
5.36,-0.41746488,6.4798026,7.438681599999999,1000.582,0,0
5.4,-0.29322422,6.422605,7.5759754,1000.5971,0,0
5.44,-0.17376333,6.560836,7.3913307,1000.5591,0,0
5.48,-0.25027013,6.7133660000000015,6.974701,1000.59467,0,0
5.52,-0.4797328,6.660935,7.0835886,1000.5593,0,0
5.56,-0.72831476,6.47504,7.192477,1000.5567,0,0
5.6,-0.4463405,6.3892426,7.6659145,1000.5668,0,0
5.64,-0.66978306,6.2938824,7.770181699999997,1000.5721,0,0
5.68,-0.39255995,6.3987465,7.632884,1000.5819,0,0
5.72,-0.25395286,6.5179105,7.481382400000001,1000.5618,0,0
5.76,-0.2539645,6.608475,7.415099,1000.5592,0,0
5.8,-0.20139448,6.6370745,7.1925820000000025,1000.5769,0,0
5.84,-0.13926760000000002,6.822971000000001,7.1263,1000.5745,0,0
5.88,-0.3113466,6.6942735,7.168908,1000.5745,0,0
5.92,-0.42607138,6.379681,7.183111,1000.5771,0,0
5.96,-0.2826856,6.4225807,7.192578299999999,1000.5771,0,0
6.0,-0.034144685,6.646609,7.1641710000000005,1000.55676,0,0
6.04,0.1857626,6.775188000000001,8.016805999999999,1000.5824,0,0
6.08,-0.134502,6.417696,8.168304,1000.5925,0,0
6.12,-0.27313405,6.122170400000001,8.565992,1000.6051,0,0
6.16,-0.14409599,6.279467,7.6948614,1000.56976,0,0
6.2,-0.06763691,6.255635,7.9505167,1000.5797,0,0
6.24,-0.30664375,6.02684,7.9079065,1000.5975,0,0
6.28,-0.31622222,6.031607599999999,7.623840299999999,1000.58997,0,0
6.32,0.34815383,6.5797625,7.709058,1000.57965,0,0
6.36,0.023109451,6.12694,7.514946000000001,1000.6026,0,0
6.4,0.15214638,6.155539,7.619100599999999,1000.56726,0,0
6.44,0.056532547,6.2461047,7.486536,1000.5673,0,0
6.48,-0.019960955,6.0745087,7.410784,1000.5646,0,0
6.52,0.013481021,6.2127395,7.661706,1000.5899,0,0
6.56,-0.3067836,5.9172129999999985,7.3018894,1000.56476,0,0
6.6,-0.029573843,6.031611,7.235606,1000.56464,0,0
6.64,0.09946425,6.036378,7.82267,1000.5824,0,0
6.68,0.055449024000000006,5.955371,7.4769679999999985,1000.5747,0,0
6.72,0.012373716000000002,5.9077067,7.5669165,1000.5695,0,0
6.76,0.17482997,6.1937013,7.410676,1000.5646,0,0
6.8,0.45678484,6.279501,7.533766,1000.53925,0,0
6.84,0.20339818,6.0554739999999985,7.495885,1000.58734,0,0
6.88,-0.04042889,6.274737,6.9750957,1000.54956,0,0
6.92,0.21284367,6.6036305,7.363312,1000.5898,0,0
6.96,0.24147253,6.489235,7.9124966,1000.5595,0,0
7.0,0.4182682,6.412971,8.291244500000001,1000.57983,0,0
7.04,0.83883035,6.608402000000001,7.5195312,1000.58215,0,0
7.08,0.38469177,6.365309,7.765714599999999,1000.55695,0,0
7.12,0.08829047,6.2652125,7.2307224,1000.54425,0,0
7.16,0.21728809,6.6751380000000005,7.1407633000000015,1000.56195,0,0
7.2,0.18855219,6.6370063,7.1691647,1000.55194,0,0
7.24,0.20761786,6.698973,7.486365299999999,1000.54443,0,0
7.28,0.40831256,6.8372045,7.4390154000000015,1000.5545,0,0
7.32,0.5038515,6.9182377000000015,7.315916,1000.57715,0,0
7.36,0.28870326,6.756175999999999,7.263832000000002,1000.5593,0,0
7.4,0.17393447,6.5893479999999975,7.169139,1000.5645,0,0
7.44,0.12129958,6.6751475000000005,7.0365705,1000.5518,0,0
7.48,-0.026917174,6.665615,6.7667055,1000.53687,0,0
7.52,-0.07956278,6.374857,7.330093400000001,1000.53937,0,0
7.56,-0.1226417,6.3557925000000015,7.1312428,1000.57715,0,0
7.6,-0.07967698599999999,6.4987900000000005,6.8282365999999985,1000.5671,0,0
7.64,-0.012816787,6.584589500000001,6.9939356,1000.56195,0,0
7.68,-0.16090484,6.613187,6.899255,1000.57983,0,0
7.72,-0.21354768,6.622721,6.889781,1000.54944,0,0
7.76,-0.328315,6.5893570000000015,7.3632154,1000.58734,0,0
7.8,-0.23275793,6.737121000000001,7.1643677,1000.58215,0,0
7.84,-0.26150173,6.689457000000001,7.339534,1000.5593,0,0
7.88,-0.25677395,6.570294400000001,7.6188593,1000.56433,0,0
7.92,-0.027395338,6.808624000000001,7.045992,1000.5721,0,0
7.96,-0.18516137,6.7990910000000016,7.1643496,1000.5621,0,0
8.0,-0.5532713,6.455900700000001,7.277968400000002,1000.58484,0,0
8.04,-0.68237144,6.38917,7.3205740000000015,1000.5695,0,0
8.08,-0.63463193,6.498802,7.282694,1000.56433,0,0
8.12,-0.7828579000000001,6.4559045,7.467331,1000.56177,0,0
8.16,-0.59171766,6.5083375,7.2779493,1000.5694,0,0
8.2,-0.47705114,6.556005,7.604619,1000.56683,0,0
8.24,-0.6730784000000001,6.351044,7.505192,1000.577,0,0
8.28,-0.5631916,6.393944,7.344217299999999,1000.6024,0,0
8.32,-0.3768215,6.4416113,7.3773546,1000.5695,0,0
8.36,-0.7019066999999999,6.40348,7.169035000000001,1000.58234,0,0
8.4,-0.5872271,6.5512443,7.102751,1000.56714,0,0
8.44,-0.62073773,6.551245,7.26845,1000.5796,0,0
8.48,-0.6112430999999999,6.5607796,7.5714455,1000.5822,0,0
8.52,-0.52047235,6.517882299999999,7.7513485,1000.5796,0,0
8.56,-0.38191652,6.598914999999999,7.4862175,1000.56177,0,0
8.6,-0.36284614,6.5607834,7.547758999999999,1000.562,0,0
8.64,-0.31032348,6.608451,7.571426400000001,1000.5821,0,0
8.68,-0.29090846,6.5321784,7.277920699999999,1000.5695,0,0
8.72,-0.33873028,6.575078,7.4436225999999985,1000.5719,0,0
8.76,-0.5873181,6.4034830000000005,7.0127880000000005,1000.5618,0,0
8.8,-0.5108912,6.3319864,7.3773327,1000.56433,0,0
8.84,-0.49658746,6.398719,7.1122026,1000.5769,0,0
8.88,-0.43449044,6.436852,7.344185,1000.5821,0,0
8.92,-0.5492415,6.393954,7.3915253,1000.5794,0,0
8.96,-0.41544497,6.565551299999999,7.3820534,1000.5644,0,0
9.0,-0.42982012,6.4702206,7.2068768,1000.5744,0,0
9.04,-0.4298463,6.455921599999999,7.732394,1000.57935,0,0
9.08,-0.5828499,6.3224589999999985,7.552481699999999,1000.5946,0,0
9.12,-0.45383084,6.436857700000001,7.0743036,1000.58716,0,0
9.16,-0.38217187,6.451158,7.320489,1000.562,0,0
9.2,-0.44912958,6.4225597,7.509861,1000.59467,0,0
9.24,-0.2484135,6.5512576,7.5572023,1000.577,0,0
9.28,-0.18630219,6.474993,7.656623,1000.5847,0,0
9.32,-0.15287451,6.4606949999999985,7.7039633,1000.5769,0,0
9.36,-0.15287451,6.4606949999999985,7.7039633,1000.5642,0,0
9.4,-0.15287451,6.4606949999999985,7.7039633,1000.5694,0,0
9.44,-0.15287451,6.4606949999999985,7.7039633,1000.57184,0,0
9.48,-0.15287451,6.4606949999999985,7.7039633,1000.57684,0,0
9.52,-0.27257174,6.4606996,7.552444500000001,1000.5947,0,0
9.56,-0.5020356,6.422568,7.7181454,1000.5821,0,0
9.6,-0.47340202,6.4225693,7.415139,1000.5921,0,0
9.64,-0.42085987,6.3653708,7.2731037,1000.6098,0,0
9.68,-0.49728167,6.284338,7.604516999999999,1000.5694,0,0
9.72,-0.35391968,6.327238,7.334653,1000.59216,0,0
9.76,-0.24878968,6.556033599999999,7.216290499999999,1000.5896,0,0
9.8,-0.44001603,6.522668,7.1831474,1000.5871,0,0
9.84,-0.60734344,6.374906,7.7702103,1000.55414,0,0
9.88,-0.63605005,6.3320074,7.5997686,1000.582,0,0
9.92,-0.62174916,6.2938766,8.0448,1000.6098,0,0
9.96,-0.2776375,6.5036054000000005,7.2446814,1000.59216,0,0
10.0,-0.16774270000000002,6.3224773,8.021121,1000.56683,0,0
10.04,-0.21557282,6.365377,6.832782000000001,1000.5618,0,0
10.08,-0.20126122,6.7371693,6.3214636,1000.5718,0,0
10.12,-0.39727592,6.641839,6.9606047,1000.5819,0,0
10.16,-0.3208312,6.4464107,7.8317320000000015,1000.60974,0,0
10.2,-0.12010084,6.51791,8.19628,1000.5947,0,0
10.24,-0.08667856,6.589409,7.680226299999997,1000.592,0,0
10.28,-0.10583414,6.513145400000001,7.557128,1000.5692,0,0
10.32,-0.18234524,6.4893136,6.9605894,1000.5819,0,0
10.36,-0.043763027,6.6037107000000015,7.315666999999999,1000.59216,0,0
10.4,-0.17285195,6.5655800000000015,7.1831007,1000.58734,0,0
10.44,-0.02949205,6.789609,7.273051299999999,1000.60474,0,0
10.48,-0.24939731,6.670446000000001,7.1073437,1000.5772,0,0
10.52,-0.33068603,6.5798820000000005,7.4292803,1000.5769,0,0
10.56,-0.407195,6.4082865999999985,7.348793,1000.59216,0,0
10.6,-0.38811213,6.4178205,7.273039,1000.58484,0,0
10.64,-0.3929262,6.465487,7.1452065000000005,1000.6177,0,0
10.68,-0.15875004,6.660917,7.21622,1000.5542,0,0
10.72,-0.06796585,6.7896147,7.377186999999997,1000.6022,0,0
10.76,-0.024981871,6.7896156,7.1830729999999985,1000.6123,0,0
10.8,-0.14928886,6.6847520000000005,7.2256794000000015,1000.57935,0,0
10.84,-0.25448089999999995,6.608488,7.362974,1000.57684,0,0
10.88,-0.24973106,6.5655899999999985,7.5712852,1000.6072,0,0
10.92,-0.29756546,6.694287299999999,7.1925297000000015,1000.5894,0,0
10.96,-0.168545,6.7276545,7.022088,1000.56934,0,0
11.0,-0.21159743,6.63709,7.3203526,1000.582,0,0
11.04,-0.27376482,6.679990299999999,7.112035799999999,1000.5692,0,0
11.08,-0.28335866,6.756256,7.377159,1000.57184,0,0
11.12,-0.14478712,6.7896233,6.9273862999999976,1000.5642,0,0
11.16,-0.2786473,6.6132607000000005,7.220917699999997,1000.5794,0,0
11.2,-0.44597465,6.5179305,7.050475,1000.567,0,0
11.24,-0.36952993,6.5846634,7.1593637,1000.57935,0,0
11.28,-0.4508208,6.64663,6.974719,1000.5896,0,0
11.32,-0.35525894,6.6656960000000005,7.197233,1000.54675,0,0
11.36,-0.24057786,6.608498599999999,7.126214,1000.5745,0,0
11.4,-0.41746488,6.4798026,7.438681599999999,1000.582,0,0
11.44,-0.29322422,6.422605,7.5759754,1000.5971,0,0
11.48,-0.17376333,6.560836,7.3913307,1000.5591,0,0
11.52,-0.25027013,6.7133660000000015,6.974701,1000.59467,0,0
11.56,-0.4797328,6.660935,7.0835886,1000.5593,0,0
11.6,-0.72831476,6.47504,7.192477,1000.5567,0,0
11.64,-0.4463405,6.3892426,7.6659145,1000.5668,0,0
11.68,-0.66978306,6.2938824,7.770181699999997,1000.5721,0,0
11.72,-0.39255995,6.3987465,7.632884,1000.5819,0,0
11.76,-0.25395286,6.5179105,7.481382400000001,1000.5618,0,0
11.8,-0.2539645,6.608475,7.415099,1000.5592,0,0
11.84,-0.20139448,6.6370745,7.1925820000000025,1000.5769,0,0
11.88,-0.13926760000000002,6.822971000000001,7.1263,1000.5745,0,0
11.92,-0.3113466,6.6942735,7.168908,1000.5745,0,0
11.96,-0.42607138,6.379681,7.183111,1000.5771,0,0
12.0,-0.2826856,6.4225807,7.192578299999999,1000.5771,0,0
12.04,-0.034144685,6.646609,7.1641710000000005,1000.55676,0,0
12.08,0.090121284,6.761007000000001,6.8753720000000005,1000.5693,0,0
12.12,0.27174497,6.803905499999999,7.116826,1000.57184,0,0
12.16,0.15702023,6.8515716,6.823292,1000.54913,0,0
12.2,-0.048519656,6.6895084,6.894307,1000.57434,0,0
12.24,-0.2444994,6.5274462999999985,6.9889946,1000.5668,0,0
12.28,-0.40702218,6.6227775,7.1546974,1000.5719,0,0
12.32,-0.19671915,6.732408500000001,7.055275,1000.60223,0,0
12.36,0.10439958,6.8611054000000005,7.486105,1000.57434,0,0
12.4,-0.024663433,6.8468065000000005,6.899037400000001,1000.582,0,0
12.44,-0.010335699,7.070834599999999,6.809083,1000.5671,0,0
12.48,-0.12505658,6.989804,6.837489,1000.582,0,0
12.52,-0.14896502,6.942137700000001,7.126286500000001,1000.549,0,0
12.56,-0.091616295,6.741942999999999,7.0836763,1000.549,0,0
12.6,0.08044721,6.875406699999999,7.1026125,1000.5794,1,1
12.64,0.027860478,6.985038,6.4303265,1000.5744,1,1
12.68,-0.22550915,6.9516725999999975,5.6870213,1000.5591,1,1
12.72,-0.07256307,6.913540400000001,4.4466066,1000.56433,1,1
12.76,-0.88991773,6.603714,5.573395,1000.60724,1,1
12.8,-1.3726926000000002,7.199535000000001,6.7617283,1000.5822,1,1
12.84,-1.301005,7.642824000000001,6.425585,1000.5795,1,1
12.88,-1.3392516,7.3043995,7.116808,1000.5921,1,1
12.92,-1.176751,6.9040089999999985,7.4292765,1000.61224,1,1
12.96,-1.0238049,6.913542,7.244634599999999,1000.5795,1,1
13.0,-0.8087239,7.194769,6.250408,1000.56934,1,1
13.04,-0.84697247,7.409264599999997,6.67177,1000.5644,1,1
13.08,-0.6271129,7.6761922999999985,7.471883,1000.5896,1,1
13.12,-0.5363049,7.6761922999999985,8.253057499999999,1000.6048,1,1
13.16,-0.26386878,7.0470066,9.327767,1000.5795,1,1
13.2,-0.60801905,6.5274525,10.0616,1000.5846,1,1
13.24,-0.08703375,6.3081913,10.402475,1000.6199,1,1
13.28,0.21886165,5.5693746,10.0758,1000.6073,1,1
13.32,0.2666527,5.0545874,10.108941,1000.6048,1,1
13.36,0.5295310999999999,4.9306564,8.423492,1000.5794,1,1
13.4,0.17581488,4.6923294,6.955825999999999,1000.56195,1,1
13.44,0.5725296999999999,4.878225,6.6054792,1000.5568,1,1
13.48,0.648997,4.8067274000000015,6.8942766,1000.5745,1,1
13.52,0.61074847,4.921125,5.871644,1000.56177,1,1
13.56,0.16621841,5.1356199999999985,5.597048,1000.57965,1,1
13.6,0.15664489999999998,6.417824,5.7816887,1000.58716,1,1
13.64,0.38128746,7.5856309999999985,5.909517299999999,1000.56433,1,1
13.68,1.1890653,8.019388000000001,7.628103999999999,1000.59973,1,1
13.72,0.41521436,7.1423286999999975,9.015328,1000.59717,1,1
13.76,-0.0675374,6.951667,9.602396,1000.5846,1,1
13.8,-0.39733446,7.180462,9.157363,1000.5847,1,1
13.84,-1.2481335,7.1423283,8.129997,1000.5771,1,1
13.88,-2.3426993,6.9802656,7.831730999999999,1000.5645,1,1
13.92,-0.59806067,6.737171000000001,9.450898,1000.5999,1,1
13.96,-1.2815638,5.6837616,8.664988000000001,1000.56464,1,1
14.0,-1.3819304,5.7028275,6.0658007000000005,1000.55927,1,1
14.04,-1.0329962,5.8648906,6.359335,1000.5669,1,1
14.08,-0.77009815,5.6360955000000015,6.4350853,1000.57733,1,1
14.12,-0.81788677,5.636095,7.642359700000001,1000.59973,1,1
14.16,-0.97561187,5.4120665,7.310952,1000.57465,1,1
14.2,-0.4259256,5.879189,6.4776983,1000.5722,1,1
14.24,-0.16302861,6.0031195,6.5534496,1000.5568,1,1
14.28,-0.521505,5.845823,7.1831255,1000.5874,1,1
14.32,-0.062635005,6.4464087,7.5950193,1000.5923,1,1
14.36,0.26240164,6.7371690000000015,8.485088000000001,1000.59753,1,1
14.4,0.06165768200000001,7.2614894,8.399871000000001,1000.57715,1,1
14.44,0.047327682,7.2042904000000005,8.414075,1000.57715,1,1
14.48,0.50141734,5.845822,9.550332,1000.57715,1,1
14.52,0.47274798,5.2071033,9.962226,1000.5822,1,1
14.56,0.25288534,5.278601,7.5145396999999985,1000.55945,1,1
14.6,0.071262226,5.254768,6.226782,1000.5416,1,1
14.64,-0.07212359,5.3262663,6.5534573,1000.5746,1,1
14.68,-0.29198670000000004,5.7361903,6.023205,1000.5645,1,1
14.72,-0.5644272,5.9840508,5.7959538,1000.55426,1,1
14.76,-0.97548145,6.184246,6.7238979999999975,1000.5669,1,1
14.8,-1.0280497,6.7514660000000015,6.946416,1000.56683,1,1
14.84,-1.271811,7.2090554,8.300456,1000.5924,1,1
14.88,-1.4199771,7.3901844,8.049534,1000.5924,1,1
14.92,-1.2526752,6.760998700000001,9.787062,1000.5874,1,1
14.96,-1.4103998,7.2042875,8.963275999999997,1000.5719,1,1
15.0,-1.496428,7.800108,7.1594677,1000.56433,1,1
15.04,-0.25367224,7.004092,8.172630999999999,1000.58484,1,1
15.08,-0.25367224,7.004092,8.172630999999999,1000.5772,1,1
15.12,-0.25367224,7.004092,8.172630999999999,1000.5241,1,1
15.16,-0.25367224,7.004092,8.172630999999999,1000.5669,1,1
15.2,-0.25367224,7.004092,8.172630999999999,1000.5722,1,1
15.24,-1.1235511,4.7495093,7.9832589999999986,1000.5722,1,1
15.28,-0.9849284,4.4015512,8.892265,1000.5669,1,1
15.32,-0.5977543000000001,4.5922127,7.500352,1000.56714,1,1
15.36,0.4155746,5.4120602999999985,6.7191753,1000.54443,1,1
15.4,0.34866405,5.5407577,7.093194,1000.5618,1,1
15.44,-0.08628977,5.5693564,7.4672136,1000.55676,1,1
15.48,-0.58816034,6.2748065,6.738115299999999,1000.55927,1,1
15.52,-0.30136314,7.1280199999999985,7.329917,1000.5644,1,1
15.56,-0.28223732,7.3997135,8.783380000000001,1000.5947,1,1
15.6,0.16707592,6.6894965,9.289962,1000.5797,1,1
15.64,1.1230462,6.1365757000000025,9.739732,1000.5847,1,1
15.68,0.6833103,5.8696480000000015,8.399896,1000.54425,1,1
15.72,0.26217663,5.612267,6.4871492,1000.52155,1,1
15.76,-0.50260335,5.464504,5.966364,1000.51135,1,1
15.8,-0.75594586,6.2557526,5.758049,1000.5316,1,1
15.84,-0.86589354,6.818207000000001,5.758047,1000.53424,1,1
15.88,-0.6221313,6.8420396,6.155737,1000.5671,1,1
15.92,-1.6067858999999998,6.1604223,7.897996000000001,1000.5797,1,1
15.96,-1.5876723999999998,6.236687,7.737025999999997,1000.57965,1,1
16.0,-0.88027495,7.0660686,8.314622,1000.57214,1,1
16.04,0.10913016,6.8468075,9.569238,1000.6101,1,1
16.08,-0.56005234,6.57988,10.004802,1000.61005,1,1
16.12,-1.3917489,7.104202000000001,6.4161224,1000.54944,1,1
16.16,-1.0380527,6.813442,7.883787,1000.54944,1,1
16.2,-2.467227,5.860131299999999,7.2872515,1000.54675,1,1
16.24,-2.037056,6.6323137,6.984248,1000.54944,1,1
16.28,-1.2961978,5.964996,9.843828,1000.595,1,1
16.32,-0.6796151999999999,5.1451487999999985,8.612882,1000.5621,1,1
16.36,-0.29246178,5.316745,8.480317,1000.552,1,1
16.4,0.26198614,5.3834767,7.812765,1000.56964,1,1
16.44,0.4770645000000001,5.1975813,7.983202,1000.55457,1,1
16.48,0.7925201,5.350111,6.259878,1000.54193,1,1
16.52,0.7208116999999999,5.2023487,6.90849,1000.5419,1,1
16.56,0.7877175000000001,5.650405,6.9321613,1000.5392,1,1
16.6,0.5487166,6.212859,6.709643400000001,1000.55945,1,1
16.64,0.5391463000000001,7.1757035,7.1830826,1000.5748,1,1
16.68,0.40177864,8.043186,8.177422,1000.572,1,1
16.72,0.47828996,7.5665298,9.33262,1000.5897,1,1
16.76,1.5776865,6.923043700000001,9.171654,1000.5695,1,1
16.8,1.5299278,6.2223587,9.024891,1000.57465,1,1
16.84,0.8034346,6.393954,6.8091927,1000.5013,1,1
16.88,0.8512744000000001,7.1995015,5.5545797,1000.5216,1,1
16.92,0.5597432,6.9468727,5.9617414,1000.52155,1,1
16.96,0.034004167,6.0555252999999984,6.842345,1000.54425,1,1
17.0,-0.6733675,5.860096,6.813942,1000.5596,1,1
17.04,-0.14754969,6.5989113,5.98069,1000.5621,1,1
17.08,0.28745174,6.6084437000000005,6.5724945,1000.55194,1,1
17.12,-0.28131294,6.3796477,7.050672500000001,1000.557,1,1
17.16,-0.12831497,6.8086367,6.520423,1000.5518,1,1
17.2,0.08681552,7.313891,7.453104,1000.58484,1,1
17.24,-0.46760732,7.4044547,8.115924,1000.5695,1,1
17.28,-0.6683247,8.553194,7.562000999999999,1000.56726,1,1
17.32,-0.41016856,8.515061,6.6340637000000005,1000.5417,1,1
17.36,-0.051643938,7.2948210000000016,7.637760000000001,1000.5444,1,1
17.4,-0.4913515000000001,6.43684,8.466284,1000.5771,1,1
17.44,-0.49609685,6.698999400000001,8.390537,1000.5874,1,1
17.48,-0.13278508,7.1708875,5.8386974,1000.5316,1,1
17.52,-0.18532112,6.889660000000001,5.819763,1000.5242,1,1
17.56,-0.44339854,6.6703978,7.150134,1000.5417,1,1
17.6,-0.3716646,6.3129044,7.2353562999999985,1000.56976,1,1
17.64,0.31188905,6.5035663,7.1501417,1000.57465,1,1
17.68,0.1871808,6.5321755,7.1453667,1000.5317,1,1
17.72,0.19676326,6.9706990000000015,5.1427155,1000.509,1,1
17.76,0.14898549,7.542685,6.2268963,1000.5366,1,1
17.8,-0.18080196,7.2280917,6.7760897,1000.5444,1,1
17.84,0.19204305,7.3758545,7.1927185,1000.56476,1,1
17.88,0.23030175,7.256689999999999,6.9986095,1000.58484,0,0
17.92,-0.02778858,7.113693,6.260045,1000.5621,0,0
17.96,0.07260759,7.704745299999999,5.9807167,1000.52405,0,0
18.0,0.29249758,7.676145599999999,6.00439,1000.5796,0,0
18.04,-0.12810487,7.4092183,7.0648985,1000.54926,0,0
18.08,0.043988362,7.4854827,6.07541,1000.5392,0,0
18.12,0.42161316,7.8048410000000015,6.378414,1000.53687,0,0
18.16,0.40251428,7.714276,5.8244905,1000.5241,0,0
18.2,0.6367436,7.690442999999999,5.6729918,1000.5442,0,0
18.24,1.1243052,8.186164999999999,6.0612144,1000.56976,0,0
18.28,0.7658389,7.957369,5.3889312999999985,1000.5317,0,0
18.32,-0.118404455,7.4282804,5.9570620000000005,1000.55194,0,0
18.36,-0.24265908,7.313882400000002,6.3926287,1000.55945,0,0
18.4,-0.40993446,7.3186493000000015,5.8765793,1000.54175,0,0
18.44,-0.14702618,7.771471000000001,5.881316,1000.54694,0,0
18.48,-0.43379283,7.6237073,5.9996777,1000.54944,0,0
18.52,-0.1804417,7.7667036,6.3452910000000005,1000.53925,0,0
18.56,0.10636558,7.8429685,6.075432,1000.57465,0,0
18.6,0.11594166,7.943065,6.416310299999999,1000.54944,0,0
18.64,-0.08478855,7.6713714999999985,6.2600775,1000.56464,0,0
18.68,-0.17108606,7.652311,6.260053599999999,1000.57214,0,0
18.72,-0.22843704,7.680911,5.881302,1000.5367,0,0
18.76,-0.30490336,7.890639299999999,6.0517416,1000.56726,0,0
18.8,-0.17583975,7.719042999999999,6.0517426,1000.53687,0,0
18.84,-0.43394083,7.485481299999999,6.766638,1000.56476,0,0
18.88,-0.76373845,7.2280874000000015,6.2269163,1000.55707,0,0
18.92,-0.5868785,7.375849700000002,6.5204505999999975,1000.5545,0,0
18.96,-0.6729039000000001,7.1947207,6.889735000000001,1000.547,0,0
19.0,-0.6346571,7.199487,6.6814213,1000.56714,0,0
19.04,-0.48169506,7.232852,6.231654,1000.5444,0,0
19.08,-0.27137482,7.261450999999999,6.671954,1000.57465,0,0
19.12,-0.24746692,7.356782400000001,6.449438,1000.53424,0,0
19.16,-0.25223786,7.2995839999999985,6.425767,1000.552,0,0
19.2,-0.084935285,7.3996806,6.5535975,1000.552,0,0
19.24,-0.056249797,7.576044,5.9286556,1000.5695,0,0
19.28,-0.3095711,7.3853807,6.638818,1000.5595,0,0
19.32,-0.2522029,7.633242,6.2363940000000015,1000.5671,0,0
19.36,-0.51030564,7.418747,6.5393963,1000.5596,0,0
19.4,-0.42904013,7.380614299999999,6.6814300000000015,1000.55695,0,0
19.44,-0.5676444,7.437812299999999,6.506258,1000.58234,0,0
19.48,-0.42902237,7.409213,6.3926325,1000.5518,0,0
19.52,-0.26171923,7.4759445000000015,6.8660746,1000.5341,0,0
19.56,-0.32384837,7.576042,6.771387,1000.567,0,0
19.6,-0.44811547,7.413978599999999,6.245868700000001,1000.5747,0,0
19.64,-0.4433251,7.394912700000001,6.780857000000001,1000.5747,0,0
19.68,-0.40124294,7.385401700000001,6.099017,1000.5369,0,0
19.72,-0.20530017,7.5331655,6.084811,1000.562,0,0
19.76,-0.21966693,7.3472714,5.961714,1000.5621,0,0
19.8,0.033633485,7.580833,5.9333057,1000.55194,0,0
19.84,0.047943696,7.685697599999999,6.2363043,1000.58234,0,0
19.88,-0.17673624,7.4950366,6.3167860000000005,1000.5267,0,0
19.92,-0.19110486,7.599901700000001,5.9475,1000.55194,0,0
19.96,-0.21025324,7.580836,6.4635477,1000.55444,0,0
20.0,-0.090785496,7.585602799999997,6.3783264000000015,1000.5872,0,0
20.04,0.20553131,7.499805999999999,6.6481850000000025,1000.5671,0,0
20.08,0.047770426,7.4235419999999985,6.913308,1000.57715,0,0
20.12,0.16246022,7.7047690000000015,6.5108814000000015,1000.58215,0,0
20.16,0.09551562,7.657103999999999,6.155799,1000.5595,0,0
20.2,-0.024012342,7.4235440000000015,6.2599525,1000.5746,0,0
20.24,-0.062279925,7.5141095999999985,6.326232,1000.58734,0,0
20.28,-0.26305908,7.347280499999999,6.1463223,1000.55194,0,0
20.32,-0.14837292,7.4664449999999984,6.5818844,1000.54926,0,0
20.36,0.10492562,7.5856094,6.7333820000000015,1000.5722,0,0
20.4,-0.009817019,7.442612599999999,6.5534725,1000.57465,0,0
20.44,0.07619028,7.47598,6.9369564,1000.5847,0,0
20.48,0.11918114,7.437848599999999,6.752312700000001,1000.5695,0,0
20.52,0.05701454,7.480747999999997,6.0279455,1000.55444,0,0
20.56,0.15736125,7.633278999999999,6.1841784,1000.5545,0,0
20.6,0.09041478,7.423551,6.4208956,1000.5596,0,0
20.64,0.042593002000000005,7.2138233,6.463504,1000.56714,0,0
20.68,0.13897572,7.2805347,6.435169,1000.557,0,0
20.72,0.043383494,7.361567,6.402029,1000.55695,0,0
20.76,0.03382744,7.352033,6.3357470000000005,1000.5797,0,0
20.8,0.067289874,7.361567,6.4541073,1000.5745,0,0
20.84,0.10075183,7.3282003,6.5440616999999985,1000.58215,0,0
20.88,0.16289283,7.485497,6.3310137000000015,1000.5518,0,0
20.92,0.16767739,7.48073,6.577203,1000.5646,0,0
20.96,0.16767906,7.5093293,6.6482199999999985,1000.567,0,0
21.0,0.16767906,7.5093293,6.6482199999999985,1000.5644,0,0
21.04,0.16767906,7.5093293,6.6482199999999985,1000.56433,0,0
21.08,0.16767906,7.5093293,6.6482199999999985,1000.55194,0,0
21.12,0.16767906,7.5093293,6.6482199999999985,1000.56433,0,0
21.16,0.301534,7.5236287,6.3026104000000025,1000.55927,0,0
21.2,0.11034472,7.4187645999999985,6.46358,1000.572,0,0
21.24,-0.042604983,7.352032,6.174782,1000.53674,0,0
21.28,0.04343529,7.4044642,6.5724716,1000.56195,0,0
21.32,-0.095175445,7.3234324000000015,6.567737599999999,1000.5695,0,0
21.36,0.22029616,7.447363,6.3783617,1000.58484,0,0
21.4,0.22985952,7.5093284,6.67663,1000.5772,0,0
21.44,0.44495422,7.599892999999999,6.5535364000000005,1000.5545,0,0
21.48,0.2298669,7.371098,6.3594255,1000.5621,0,0
21.52,0.08169679,7.399697,6.3310194000000015,1000.5517,0,0
21.56,0.043462172,7.4187636,6.425708,1000.5468,0,0
21.6,0.11516304,7.4330630000000015,6.1842537,1000.5596,0,0
21.64,0.07692744,7.352031,6.1842537,1000.5495,0,0
21.68,0.082435116,7.347247,6.070695,1000.5646,0,0
21.72,0.3262381,7.6856713,6.387903,1000.5822,0,0
21.76,0.24979629,7.4616427,6.676704400000001,1000.58484,0,0
21.8,0.22114633,7.394911,6.421049,1000.5618,0,0
21.84,0.10646607,7.413975200000001,6.2742863,1000.5671,0,0
21.88,0.0013433993,7.4807067,6.07071,1000.5593,0,0
21.92,0.32639885,7.4235077,6.68145,1000.59216,0,0
21.96,0.2117166,7.366307300000001,7.0175962,1000.557,0,0
22.0,0.3025679,7.3329415,6.127532,1000.5493,0,0
22.04,0.226124,7.1136789999999985,6.553631,1000.5618,0,0
22.08,0.15445174,7.361539,6.634117999999999,1000.55426,0,0
22.12,0.55121666,7.4425690000000015,6.018649,1000.55426,0,0
22.16,0.5034495,7.38537,7.0081434000000025,1000.5669,0,0
22.2,0.55606043,7.294803999999999,5.81981,1000.5444,0,0
22.24,0.31710106,7.404434700000001,6.4352856,1000.5595,0,0
22.28,0.41273016,7.6046295,6.577321,1000.5495,0,0
22.32,0.37452465,7.4568644,6.7335587,1000.53424,0,0
22.36,0.3841173,7.2042365,6.373748,1000.5367,0,0
22.4,0.25987124,7.390132,6.3264055,1000.5545,0,0
22.44,0.24556895,7.609392,5.810359,1000.55426,0,0
22.48,0.092642054,7.533127,5.663595,1000.5618,0,0
22.52,0.025757775,7.413962,6.889809599999999,1000.5695,0,0
22.56,-0.26578757,7.3186307,6.364292,1000.5669,0,0
22.6,0.05928649,7.2423644,6.8140649999999985,1000.5747,0,0
22.64,-0.10320209,7.351994,6.9276924,1000.5646,0,0
22.68,-0.053003564,6.951662,6.520316,1000.55194,0,0
22.72,-0.25383213,6.746701700000001,6.6576070000000005,1000.5596,0,0
22.76,0.056798503,7.1470942,6.1936300000000015,1000.5444,0,0
22.8,0.01849541,7.6571174,6.8327694,1000.57214,0,0
22.84,-0.14885432,7.6285195,7.618675,1000.5874,0,0
22.88,-0.31142828,7.3282275,7.542919,1000.5545,0,0
22.92,-0.07729472,7.7619862999999985,6.335639,1000.55695,0,0
22.96,-0.78477037,7.3663634999999985,6.491868,1000.56433,0,0
23.0,-0.58407927,7.099438,6.240939,1000.5621,0,0
23.04,-0.560249,7.080373299999999,7.0789223,1000.57983,0,0
23.08,-0.7036916,7.1042074999999985,7.5002804,1000.56195,0,0
23.12,-0.50301665,7.113743,6.3261404,1000.56714,0,0
23.16,-0.45527518,7.266274,6.6764812,1000.56433,0,0
23.2,-0.19244264,7.304408,6.146223,1000.5821,0,0
23.24,-0.23074575,7.3091755,6.3687334,1000.58215,0,0
23.28,-0.6275543,6.6990585000000005,6.9415894,1000.615,0,0
23.32,-0.8665889999999999,7.0803843,6.113065,1000.57214,0,0
23.36,-0.6515625,7.0613199999999985,7.003125999999999,1000.5695,0,0
23.4,-0.40307337,7.1614184000000005,6.3781795999999975,1000.5342,0,0
23.44,-0.11157001,6.985058,7.1688194,1000.5721,0,0
23.48,-0.33150566,7.2567534,5.9804773,1000.55426,0,0
23.52,-0.216851,7.404517699999999,6.3639593,1000.5796,0,0
23.56,-0.53239894,6.8849649999999984,7.3250350000000015,1000.58215,0,0
23.6,-0.9196156,7.1089945000000005,6.766371,1000.5646,0,0
23.64,-0.4225645000000001,7.3568563,7.003087,1000.57965,0,0
23.68,-0.9176418,7.170911,7.486181299999997,1000.57214,0,0
23.72,-0.5925898,6.8372517,6.2599725999999976,1000.5342,0,0
23.76,-0.66427284,7.051747,6.368865,1000.56714,0,0
23.8,-0.3009824,6.9993134,7.088497,1000.5721,0,0
23.84,-0.44913605,7.2805399999999985,6.425683,1000.54175,0,0
23.88,-0.18622655,7.4902678,6.1274166,1000.53424,0,0
23.92,-0.14319435,7.4283023,6.738156299999999,1000.55945,0,0
23.96,-0.19097085,7.232872500000001,6.9180660000000005,1000.54175,0,0
24.0,-0.4490549,6.9516453999999985,6.288392,1000.5596,0,0
24.04,-0.29608090000000004,7.2328715,6.6624117,1000.5493,0,0
24.08,-0.5589510999999999,7.1804395,6.520381,1000.57214,0,0
24.12,-0.32950023,7.3186693,6.8281193,1000.57965,0,0
24.16,0.24887635,7.4711979999999985,6.747636999999999,1000.5898,0,0
24.2,0.067259,7.318668400000001,6.4493704,1000.5543,0,0
24.24,0.28237426,7.552229,7.0175009999999975,1000.5645,0,0
24.28,-0.1143355,7.294834,6.9796276,1000.5493,0,0
24.32,-0.4536813,7.1232380000000015,6.5582666,1000.5468,0,0
24.36,-0.4010781,7.0946380000000016,7.0033035,1000.55194,0,0
24.4,-0.27678800000000003,6.9325747,6.6671619999999985,1000.5543,0,0
24.44,-0.18595143,7.018372,6.1037703,1000.53925,0,0
24.48,0.23947646,7.4807277,6.7429169999999985,1000.5595,0,0
24.52,0.13911577,7.533158999999999,6.9275600000000015,1000.5543,0,0
24.56,0.21561678,7.2138,6.278949,1000.5444,0,0
24.6,0.19173549,7.356796000000001,6.4919987,1000.53674,0,0
24.64,0.029242441,7.337728500000001,5.9996223,1000.57214,0,0
24.68,0.019325346,7.142308,6.681344,1000.5419,0,0
24.72,0.04800929,7.471201,6.776032400000001,1000.5747,0,0
24.76,-0.09060026,7.347271000000001,6.6197977,1000.5392,0,0
24.8,-0.16707209,7.0660440000000015,7.2305365,1000.5748,0,0
24.84,-0.10015069,7.251939,7.0364255999999985,1000.547,0,0
24.88,0.16274329,7.3472705,6.8423157,1000.55444,0,0
24.92,-0.13359824,7.099409,6.4067516,1000.5495,0,0
24.96,0.0050198883,7.2996050000000015,6.283657,1000.54926,0,0
25.0,-0.057112798,7.1661410000000005,6.6576757,1000.5468,0,0
25.04,-0.17660283,7.0708094,7.0269594,1000.5568,0,0
25.08,0.019375145,7.2567053,6.6150664999999975,1000.55194,0,0
25.12,-0.02841875,7.318670299999999,6.922803,1000.56213,0,0
25.16,-0.023633868,7.3377357,6.5345830000000005,1000.5593,0,0
25.2,-0.13834348,7.4283004,6.4540987,1000.53674,0,0
25.24,-0.26261327,7.2328715,6.8801956,1000.5593,0,0
25.28,-0.27694792,7.075576,6.8470545,1000.54944,0,0
25.32,-0.16222754,7.356802,6.4067554000000015,1000.55695,0,0
25.36,-0.047507197,7.323436,6.766571000000001,1000.56195,0,0
25.4,-0.11441935,7.2185717,6.8328533,1000.5696,0,0
25.44,-0.17655174,7.189972,6.316803,1000.57965,0,0
25.48,-0.2721437,7.218571000000002,6.0516777,1000.5495,0,0
25.52,-0.12874484,7.352034599999999,6.4825087,1000.5646,0,0
25.56,-0.16697726,7.337734700000001,6.6387444,1000.552,0,0
25.6,-0.08571548,7.251937,6.5582600000000015,1000.5242,0,0
25.64,-0.13350879999999998,7.223337,6.970153999999999,1000.57733,0,0
25.68,-0.11422879,7.0946364,6.487259,1000.56976,0,0
25.72,0.08175669599999999,7.189967,7.0459204,1000.5646,0,0
25.76,-0.07118845,7.2185664,6.4304485,1000.5292,0,0
25.8,-0.15243298,7.123235,6.572481,1000.5495,0,0
25.84,-0.07116347599999999,7.313896700000001,6.9038906,1000.57983,0,0
25.88,-0.15240872,7.471192999999999,6.5109367,1000.5495,0,0
25.92,-0.21931459,7.328196000000001,6.9322996,1000.5543,0,0
25.96,0.0005678385500000001,7.394928,6.9559727,1000.55707,0,0
26.0,-0.10457929,7.294829400000001,6.7571287,1000.5518,0,0
26.04,-0.2145012000000001,7.609422,6.307361599999999,1000.5696,0,0
26.08,0.07707824,7.051735000000001,7.04593,1000.5467,0,0
26.12,0.16790588,6.94687,7.074337,1000.5669,0,0
26.16,0.09621744,7.104166499999999,6.7003193,1000.557,0,0
26.2,0.0340921,7.375859700000001,5.8291903,1000.53687,0,0
26.24,-0.54425204,7.2233295,6.189006,1000.52167,0,0
26.28,-0.5633634,7.013601,6.260023,1000.53186,0,0
26.32,-0.41995358,7.132764999999999,7.159561,1000.55945,0,0
26.36,-0.39604598,7.18043,6.714528,1000.54694,0,0
26.4,-0.25741744,7.2233285999999985,6.615106599999999,1000.55963,0,0
26.44,-0.31954777,7.2948265,6.941782000000001,1000.5445,0,0
26.48,-0.59198225,7.328192,6.245825,1000.5849,0,0
26.52,-0.6254295,7.547453,6.345249,1000.5467,0,0
26.56,-0.93132764,7.437823,6.586704300000001,1000.56976,0,0
26.6,-0.94087446,7.580819,6.302641,1000.5545,1,2
26.64,-0.88828516,7.309125,7.0506783,1000.53174,1,2
26.68,-0.8498469000000001,7.0564923,6.960742999999999,1000.55707,1,2
26.72,-0.5152404,7.2757535,6.0091295,1000.5317,1,2
26.76,-0.5343405999999999,7.2471533,6.0185995000000005,1000.5444,1,2
26.8,-0.51998335,7.323417999999997,5.8576317000000016,1000.5646,1,2
26.84,-0.3956894,7.213787,5.459944,1000.5468,1,2
26.88,-0.41957062,6.6179667,5.0764580000000015,1000.55695,1,2
26.92,-0.08974389,6.570301,6.1132946,1000.54944,1,2
26.96,0.33089662,6.3367394999999975,6.92288,1000.5898,1,2
27.0,0.73719895,7.390148,8.385812,1000.6,1,2
27.04,0.85193217,8.119431,6.903946,1000.57733,1,2
27.08,0.70855826,7.804836999999999,6.6009455,1000.54944,1,2
27.12,0.55562,7.2805157,7.4768114,1000.5824,1,2
27.16,0.94758296,7.404445599999999,6.8755436,1000.562,1,2
27.2,0.9523853,7.4378114,6.4825907,1000.562,1,2
27.24,0.45051903,7.4664100000000015,5.8292437,1000.5468,1,2
27.28,1.0814756,8.071762,5.957075,1000.5495,1,2
27.32,1.5021175,8.071761,6.368969,1000.5545,1,2
27.36,1.5833944,7.909698,6.6625039999999975,1000.54944,1,2
27.4,1.7220218,7.8763323,7.0081177,1000.5849,1,2
27.44,1.3109825000000002,7.4282746,8.688832000000001,1000.5645,1,2
27.48,0.42673653,7.428274000000001,8.418973,1000.6226,1,2
27.52,-0.16116385,7.985961,7.481562599999997,1000.5419,1,2
27.56,0.0778489,7.671367999999997,5.3179417,1000.5342,1,2
27.6,1.6026254,6.656091,7.211705,1000.57465,1,2
27.64,-0.33317614,5.6551137,7.831914999999999,1000.55707,1,2
27.68,-0.5860428000000001,6.3843856,7.5715647,1000.5824,1,2
27.72,0.48944753,7.113668,6.4684515,1000.557,1,2
27.76,0.42255783,6.8848724,7.6473207,1000.56976,1,2
27.8,0.1931618,6.155588,7.514761,1000.5518,1,2
27.84,0.58037186,6.3796153,6.719384,1000.55206,1,2
27.88,0.84328866,6.15082,7.5857839999999985,1000.54425,1,2
27.92,-0.1986626,5.1736746,5.957152400000001,1000.55444,1,2
27.96,-0.03134188,5.0259113,6.364314,1000.54425,1,2
28.0,-0.045637578,5.3548019999999985,6.0849876,1000.5317,1,2
28.04,-0.4136457000000001,5.7027597000000005,6.028178,1000.5344,1,2
28.08,-1.4364961,5.983986,7.562127999999999,1000.5797,1,2
28.12,-0.7003627,7.2900224,7.988229,1000.5874,1,2
28.16,-0.07895139,8.77242,6.122876,1000.53436,1,2
28.2,-0.6668305,7.7380767000000015,8.130266,1000.56964,1,2
28.24,0.45646024,8.438759,6.2507124,1000.5747,1,2
28.28,1.3598777,8.238564,7.1360493,1000.57996,1,2
28.32,-0.81490326,5.550224299999999,10.085587,1000.643,1,2
28.36,-1.2259251,5.926781,8.551642,1000.57733,1,2
28.4,-0.9677765,6.4320345,7.372778999999999,1000.5243,1,2
28.44,0.43274277,6.074542,9.276013,1000.5899,1,2
28.48,0.06951223,6.4034343,8.362276,1000.5747,1,2
28.52,-0.63308215,6.050708,6.146578,1000.53687,1,2
28.56,-1.6129051,5.817146,7.2449636,1000.52924,1,2
28.6,-1.1731311000000002,5.697981,7.4911556,1000.5874,1,2
28.64,-0.7763682,6.3223987,7.031921400000001,1000.6152,1,2
28.68,-0.3954309,6.0078416,7.7987633,1000.6,1,2
28.72,-0.036971300000000006,6.2604694000000025,7.732479,1000.57983,1,2
28.76,-0.35246116,5.731383,8.130167,1000.60004,1,2
28.8,-0.9499609,6.2795377,8.96342,1000.58484,1,2
28.84,-0.50545484,6.513099,8.082819,1000.5924,1,2
28.88,-0.80661243,6.1079426,9.294824,1000.5772,1,2
28.92,-0.4672678,5.4549246,8.220112,1000.5546,1,2
28.96,-0.8544533000000001,5.7695184,8.38108,1000.58746,1,2
29.0,-0.83057714,5.707553400000001,8.546782499999999,1000.58997,1,2
29.04,-0.3956321,5.4453926,8.556249000000001,1000.58746,1,2
29.08,-0.29050356,5.2308984,8.513638,1000.5497,1,2
29.12,-0.65378577,5.0450034000000015,7.467332000000002,1000.5344,1,2
29.16,-0.91670346,5.388196,8.215365,1000.547,1,2
29.2,-0.9884234,5.392963,7.656703999999999,1000.5595,1,2
29.24,-1.2943521999999998,5.068837599999998,8.158548,1000.5799,1,2
29.28,-0.7255785,5.6169925,8.338453999999999,1000.57214,1,2
29.32,-0.3957905000000001,5.9029865,7.827137,1000.547,1,2
29.36,-0.70171934,5.75999,8.442607,1000.59,1,2
29.4,-0.69218683,5.726624500000002,8.163274000000001,1000.54706,1,2
29.44,-0.16642982,6.4845076,8.229553999999998,1000.57465,1,2
29.48,-0.08997153,6.489275,8.101724,1000.5774,1,2
29.52,0.34496212,6.1603837,8.092253,1000.5698,1,2
29.56,0.7607835999999999,5.836258,8.963382000000003,1000.55963,1,2
29.6,0.316239,5.435868,7.666152,1000.5847,1,2
29.64,-0.43421298,5.555032,6.974927,1000.5218,1,2
29.68,0.17827617,5.793343,6.8518944,1000.5445,1,2
29.72,0.6706006999999999,5.845775,7.907667,1000.56714,1,2
29.76,0.5033114000000001,5.988772,8.958704,1000.5975,1,2
29.8,-0.39528537,5.993539,7.7798386,1000.5747,1,2
29.84,0.0014431179,6.522626,8.139654,1000.5772,1,2
29.88,-0.14672542,5.8648415,7.883996000000002,1000.55975,1,2
29.92,0.101827875,5.7313776,7.7987776,1000.55707,1,2
29.96,0.72798854,6.3557963,8.115983,1000.5899,1,2
30.0,0.58937925,5.9554050000000025,7.855592,1000.5799,1,2
30.04,0.5607052,5.888674,8.721988,1000.6001,1,2
30.08,0.7997005,6.6274896,7.443699,1000.552,1,2
30.12,0.52247655,6.527392,6.823492,1000.5774,1,2
30.16,-0.85410184,6.03167,9.313789,1000.5522,1,2
30.2,-0.5481906,6.279531,7.656749,1000.5698,1,2
30.24,-0.63422066,6.5369244,8.504208,1000.5824,1,2
30.28,-0.8636488000000001,6.055502400000001,8.376379,1000.5925,1,2
30.32,-0.51471543,5.6741769999999985,8.542083,1000.56476,1,2
30.36,-0.7154621999999999,5.9315715,7.320608,1000.5596,1,2
30.4,-1.1456398,5.764742,7.457905999999999,1000.552,1,2
30.44,-0.7202331,5.8505397000000015,8.4994755,1000.58496,1,2
30.48,-0.40476,5.9697037,8.25802,1000.54944,1,2
30.52,-0.2279022,5.5502467000000015,9.479498,1000.5723,1,2
30.56,0.08756994,5.459682,8.693586999999999,1000.5824,1,2
30.6,0.517757,5.6312776,6.837702,1000.54944,1,2
30.64,0.64203703,5.636044,7.396362299999999,1000.53436,1,2
30.68,0.68177104,6.0363984,6.5301027000000005,1000.5394,1,2
30.72,1.0833271999999998,6.5559516,7.832068400000002,1000.58997,1,2
30.76,1.0738363000000002,6.4701514000000016,8.66533,1000.5899,1,2
30.8,0.92570674,6.3414536,7.808407000000001,1000.5797,1,2
30.84,1.2125798,7.0659684999999985,7.453334,1000.55707,1,2
30.88,1.0692141000000002,7.2041974,7.595368400000001,1000.55707,1,2
30.92,0.4097023,7.661785000000001,6.478059,1000.57983,1,2
30.96,0.26633245,7.618885499999997,6.6532335000000025,1000.5722,1,2
31.0,-0.07772446,6.2508807,7.4344187,1000.5824,1,2
31.04,0.42901152,6.3938755999999985,7.013063400000001,1000.55963,1,2
31.08,0.86403835,6.4939723,7.3823539999999985,1000.5671,1,2
31.12,0.7732868,6.5750020000000005,7.1219664000000025,1000.55444,1,2
31.16,0.5487006999999999,6.775195599999999,6.3644686,1000.52924,1,2
31.2,0.9072467,6.889591,6.6390686,1000.55945,1,2
31.24,0.54882604,6.7847257,6.937342599999999,1000.5721,1,2
31.28,0.81655574,6.8133240000000015,6.9278793000000025,1000.58215,1,2
31.32,0.4007815,6.6655583,7.9126414999999986,1000.57465,1,2
31.36,0.3578199,6.989683,6.9468289999999975,1000.5772,1,2
31.4,0.19537131,7.4282045,6.5538789999999985,1000.557,1,2
31.44,0.4726646,6.9372478000000015,7.1740913,1000.54944,1,2
31.48,0.04733084,6.6369534,7.2829895,1000.5772,1,2
31.52,0.19076942,6.7227507,5.8247967,1000.5747,1,2
31.56,0.43460405,6.8943443,7.07942,1000.56726,1,2
31.6,0.32951307,7.0850053,6.5633755,1000.5824,1,2
31.64,0.10014321,7.003972,6.0283937000000005,1000.56714,1,2
31.68,-0.24100831,6.4749284000000005,7.2544413,1000.5596,0,0
31.72,0.19872348,7.1327133,6.7289210000000015,1000.54956,0,0
31.76,0.09355892,7.2852435,6.709983,1000.5571,0,0
31.8,-0.15022248,6.727556699999999,6.946702,1000.5646,0,0
31.84,0.38032746,6.8896194,7.4722195,1000.5748,0,0
31.88,0.30383664,7.151781,6.8236046,1000.56726,0,0
31.92,0.1795548,7.094582000000001,6.728916000000001,1000.552,0,0
31.96,0.16998564,7.1565475,6.255475,1000.54956,0,0
32.0,0.1651951,7.19468,7.08873,1000.56476,0,0
32.04,0.0026716292,6.894387700000001,6.634225999999999,1000.552,0,0
32.08,0.35636753,7.042151,7.6379185,1000.60004,0,0
32.12,0.24642257,7.366276700000001,7.2118205999999985,1000.5799,0,0
32.16,0.10779743,6.9086880000000015,6.899349000000001,1000.55444,0,0
32.2,-0.1168628,6.7561584,7.301773,1000.5722,0,0
32.24,-0.18857004,6.961120599999999,6.1749839999999985,1000.5774,0,0
32.28,0.17946534,7.275713,6.392765,1000.5596,0,0
32.32,0.2750513,7.199449499999999,6.82833,1000.55963,0,0
32.36,0.20812072,7.3853445,6.7431097000000015,1000.6026,0,0
32.4,0.23201405,7.337679,6.4495764000000015,1000.56714,0,0
32.44,0.25590104,7.2471147,7.188142,1000.5899,0,0
32.48,0.27979177,7.3138475,7.1692038,1000.55963,0,0
32.52,0.17462467,7.328147,6.340681,1000.5723,0,0
32.56,0.21763341,7.318614500000002,6.8567314,1000.557,0,0
32.6,0.07900892,7.3329144,6.790448,1000.56726,0,0
32.64,0.30364954,7.175617999999999,6.321741,1000.5646,0,0
32.68,0.12622045,6.9706706999999986,6.3264227,1000.5797,0,0
32.72,0.12618749,6.9134720000000005,5.8624477,1000.54193,0,0
32.76,0.31256473,7.456860499999999,6.6814966,1000.57465,0,0
32.8,0.25518036,7.413962,6.9087460000000025,1000.56976,0,0
32.84,0.0066016763,7.309098700000002,6.761977000000001,1000.56476,0,0
32.88,0.32203364,7.528361999999999,6.975021400000001,1000.56226,0,0
32.92,0.10212354,7.1899365999999985,6.548921599999999,1000.56213,0,0
32.96,0.054292545,7.3138679999999985,7.0555,1000.5799,0,0
33.0,0.020811215,7.2805023,6.2175083,1000.56726,0,0
33.04,-0.103496656,7.127973,6.8661184,1000.56213,0,0
33.08,0.15934928,7.3138704,6.4400187,1000.5648,0,0
33.12,-0.06532419,7.232839,6.747753,1000.5468,0,0
33.16,-0.074916765,7.0898438,6.766687400000001,1000.5621,0,0
33.2,-0.08451346,7.261439999999999,6.615183,1000.56964,0,0
33.24,-0.20881517,7.037413000000001,6.4684134,1000.5596,0,0
33.28,-0.17060974,7.3996716,7.017602,1000.557,0,0
33.32,-0.16587117,7.170878,6.591502,1000.5671,0,0
33.36,0.0109568685,7.28051,6.719328,1000.5294,0,0
33.4,0.2403524,7.204245599999999,7.1785619999999986,1000.5598,0,0
33.44,0.17817785,7.0278845,6.889760000000001,1000.55975,0,0
33.48,0.18293293,7.270979400000001,6.004424,1000.54175,0,0
33.52,0.24503122,7.337712,6.468392400000001,1000.5751,0,0
33.56,-0.40982667,6.99452,6.4257803,1000.56714,0,0
33.6,-0.38118702,7.0993853000000025,6.1795874,1000.5445,0,0
33.64,-0.33340752,7.1470512999999976,6.6577616,1000.55206,0,0
33.68,-0.56765497,7.0517216000000005,6.4257717,1000.5748,0,0
33.72,-0.20689623,7.3138266,7.202422,1000.55695,0,0
33.76,-0.02998288,7.447288,7.013052,1000.5746,0,0
33.8,-0.03471273,7.3090568,6.4828033,1000.6026,0,0
33.84,0.06573452,7.3614874000000015,6.738467,1000.56976,0,0
33.88,0.33344632,7.4901834,7.1124896999999985,1000.57733,0,0
33.92,0.18054967,7.189889,7.178775999999999,1000.56976,0,0
33.96,0.13280158,7.251852499999999,6.5869800000000005,1000.5646,0,0
34.0,0.06116517,7.456813,6.908925,1000.58746,0,0
34.04,-0.21122657,7.08502,6.719554,1000.5546,0,0
34.08,-0.17770378,7.223249000000001,6.373949,1000.57983,0,0
34.12,-0.12985224,7.1231503,5.749011,1000.55963,0,0
34.16,-0.22539122,6.7608905,6.710101,1000.55725,0,0
34.2,-0.23967354,7.170812,6.4449797,1000.5445,0,0
34.24,0.0041463820000000005,7.485405,6.563344,1000.567,0,0
34.28,0.08546008,7.5616674,6.861617,1000.56464,0,0
34.32,-0.12478705,7.166042299999999,6.482871,1000.5267,0,0
34.36,-0.249012,7.1231422,6.4071245,1000.55194,0,0
34.4,-0.28242427,7.347169,6.407128299999999,1000.53674,0,0
34.44,-0.47832137,7.0611734,7.112562,1000.56464,0,0
34.48,-0.39701116,7.2232356,6.5302352999999975,1000.56464,0,0
34.52,-0.07192738,7.1755679999999975,7.0841656,1000.56714,0,0
34.56,-0.05754873,7.266132000000002,6.961075,1000.5546,0,0
34.6,-0.086159825,7.161266,6.364546,1000.5367,0,0
34.64,0.05729495,7.2994947,6.6438820000000005,1000.5267,0,0
34.68,-0.010354593,7.428209299999999,6.4923134000000005,1000.5493,0,0
34.72,-0.2445412,7.280445599999997,6.8095206999999975,1000.53436,0,0
34.76,-0.04376723,7.4472747,6.605943700000001,1000.55963,0,0
34.8,-0.105874576,7.371009,6.9752300000000025,1000.56964,0,0
34.84,-0.10584924,7.31381,6.511261,1000.5747,0,0
34.88,-0.18708211,7.304277000000001,7.0557194,1000.5571,0,0
34.92,-0.12970230000000002,7.413906,6.553874,1000.56726,0,0
34.96,-0.29697,7.347174000000001,6.5207357,1000.55457,0,0
35.0,-0.09142104,7.228009700000001,6.6390970000000005,1000.5444,0,0
35.04,0.056787744,7.580734,6.160926,1000.54456,0,0
35.08,-0.12004122,7.2947397,6.2556160000000025,1000.54456,0,0
35.12,-0.08177744,7.208941499999999,6.312431299999999,1000.5497,0,0
35.16,-0.06263603,7.247072699999999,6.1041193,1000.5671,0,0
35.2,0.29109484,7.523533,6.6296406,1000.58246,0,0
35.24,-0.06258689,7.261371,6.2035465,1000.55457,0,0
35.28,0.037814364,7.204172,6.7195990000000005,1000.557,0,0
35.32,0.047402486,7.337634599999999,6.388193,1000.5749,0,0
35.36,0.06654389,7.351934,6.0283804000000005,1000.552,0,0
35.4,0.033112213,7.3567004,6.9515914999999975,1000.53436,0,0
35.44,-0.081576124,7.2280025,6.0662603,1000.56714,0,0
35.48,0.066623166,7.228002,6.9657993000000005,1000.5444,0,0
35.52,-0.18190287,7.1183705,7.0888968,1000.5266,0,0
35.56,0.0666707,7.342397999999997,6.544442,1000.52155,0,0
35.6,0.26266485,7.4520282999999985,6.4497566,1000.5493,0,0
35.64,-0.05755189,7.051637,6.7432919999999985,1000.5419,0,0
35.68,0.08096455,7.337632000000001,6.7432833,1000.57214,0,0
35.72,0.033180505,7.309033,6.8663789999999985,1000.5444,0,0
35.76,0.018863931,7.332865700000001,6.781162299999999,1000.53424,0,0
35.8,-0.07193203,7.218466999999999,6.6391315,1000.54944,0,0
35.84,0.033240125,7.3090315000000015,6.6770086,1000.56476,0,0
35.88,-0.038436636,7.256599,6.4166183,1000.5722,0,0
35.92,-0.07665219999999999,7.3709955,6.378744,1000.54944,0,0
35.96,0.038079575,7.342396000000001,6.4923715999999985,1000.5596,0,0
36.0,-0.052716404,7.356694999999997,6.785907000000001,1000.55194,0,0
36.04,-0.004899308,7.2851963,6.5633917,1000.5444,0,0
36.08,-0.004877746,7.380527499999999,6.3314075,1000.54443,0,0
36.12,0.18155368,7.456791,6.0946894,1000.5394,0,0
36.16,0.085976586,7.428191,6.217786,1000.5316,0,0
36.2,-0.1338728,7.3662257,6.809588400000001,1000.55206,0,0
36.24,0.03822173,7.4853897,6.1704454,1000.5542,0,0
36.28,0.019120261,7.399590499999999,6.790653999999999,1000.56714,0,0
36.32,0.04781942,7.3471584,6.369293,1000.53687,0,0
36.36,0.033502847,7.380523700000001,6.785923,1000.56213,0,0
36.4,0.13389392,7.513986999999997,6.5160637,1000.58234,0,0
36.44,-0.0046937317,7.3852887,6.383503,1000.5695,0,0
36.48,-0.15762714,7.2851906,6.3550987,1000.55457,0,0
36.52,-0.014213994,7.447253,6.5539455,1000.552,0,0
36.56,-0.0476574,7.4377203,6.2414760000000005,1000.5874,0,0
36.6,-0.0906566,7.2375235999999985,6.468729,1000.5671,0,0
36.64,-0.15755227,7.285189,6.648638,1000.5596,0,0
36.68,-0.17187393,7.3566866,6.4924050000000015,1000.5596,0,0
36.72,-0.24387679,7.394827,6.250922,1000.5596,0,0
36.76,-0.07179624,7.428192,6.7859106,1000.5824,0,0
36.8,-0.08612518,7.394827,6.463972,1000.55707,0,0
36.84,-0.21517323,7.37576,7.0273666,1000.572,0,0
36.88,-0.16736762,7.442491499999999,6.402426,1000.5644,0,0
36.92,-0.05264519,7.471090299999997,6.6438820000000005,1000.57983,0,0
36.96,-0.047856316,7.175564,6.473443,1000.5495,0,0
37.0,-0.17212406,7.0849996,6.250927,1000.5645,0,0
37.04,-0.10997998,7.5044559999999985,6.1657085,1000.54443,0,0
37.08,-0.31072414,7.370992,6.1136312,1000.55426,0,0
37.12,-0.36807606,7.323326,6.1657095,1000.5747,0,0
37.16,-0.20555371,7.1660304,6.757511,1000.55194,0,0
37.2,0.066902235,7.185096700000001,6.4403067000000025,1000.56476,0,0
37.24,0.25332218,7.366225,6.5776052,1000.5748,0,0
37.28,-0.03345841,7.299493300000001,6.2461977,1000.6073,0,0
37.32,-0.14816657,7.3519244000000015,6.052088,1000.57214,0,0
37.36,-0.32501218,7.213694999999999,5.8153677,1000.5419,0,0
37.4,-0.009536549,7.180329,6.6912336,1000.5696,0,0
37.44,0.17210074,7.223228,6.099434,1000.55444,0,0
37.48,0.16733237,7.2899594,6.4024363,1000.5568,0,0
37.52,0.16255875,7.223227,5.905325,1000.567,0,0
37.56,0.08130871,7.247059299999999,6.0426226,1000.5669,0,0
37.6,-0.11465513,7.1135964000000005,6.2414684000000005,1000.57465,0,0
37.64,-0.038171142000000005,7.146961,6.321954,1000.5897,0,0
37.68,0.086517796,7.0611539999999975,6.0473967,1000.57715,0,0
37.72,0.08654187599999999,7.0420865999999975,6.2604465,1000.5821,0,0
37.76,0.09612556,7.170783,5.9195720000000005,1000.5621,0,0
37.8,-0.18107595,6.961053999999999,5.8580275,1000.5745,0,0
37.84,-0.11891289,6.913388,6.1468277,1000.5897,0,0
37.88,0.01016137,6.980119,5.9432507,1000.567,0,0
37.92,0.14401697,7.104048700000001,6.1136913,1000.5671,0,0
37.96,-0.01846625,6.884786599999999,5.9195833,1000.58484,0,0
38.0,-0.20007773,6.8704863,5.8722410000000025,1000.5671,0,0
38.04,-0.23351076,6.841887,6.2367926,1000.5593,0,0
38.08,-0.08531124,6.994415299999999,6.0663567,1000.567,0,0
38.12,0.03420192,7.013481,6.2462654,1000.5898,0,0
38.16,0.09636645,7.05638,5.943266,1000.5694,0,0
38.2,-0.07090255599999999,6.932449,6.0995035,1000.58215,0,0
38.24,-0.13302046,6.894316000000001,6.023755,1000.5897,0,0
38.28,-0.2046949,6.8514156,6.3598995,1000.5745,0,0
38.32,-0.16643089,6.9705796000000015,6.1279163,1000.5822,0,0
38.36,-0.14250928,6.9991784,6.10898,1000.5949,0,0
38.4,-0.1520463,6.9324460000000006,5.8722629999999985,1000.5771,0,0
38.44,0.039171457,6.956278,5.905406,1000.5998,0,0
38.48,0.082212254,7.003943,6.0474405,1000.592,0,0
38.52,-0.17587304,6.880012,6.577696,1000.5924,0,0
38.56,-0.19974796,6.7989798,6.0427094000000015,1000.5948,0,0
38.6,-0.10890309,6.9038434,6.22262,1000.605,0,0
38.64,-0.022844061,6.951508500000001,5.9622297,1000.6072,0,0
38.68,-0.09495857,7.0373173,6.1989117,1000.60974,0,0
38.72,-0.14275146,6.999184599999999,6.1468334,1000.6048,0,0
38.76,-0.17620651,6.975351299999999,6.3409443,1000.6049,0,0
38.8,-0.14273795,6.956285,6.3362110000000005,1000.61725,0,0
38.84,-0.06625359,7.137414,6.4214306,1000.6327,0,0
38.88,-0.13794625,7.0849814,6.0095387,1000.615,0,0
38.92,-0.15705916,7.056382000000001,6.577667,1000.64276,0,0
38.96,-0.30044693,7.051614999999999,6.4356356,1000.6226,0,0
39.0,-0.16182546,7.227978,6.274667,1000.6277,1,3
39.04,-0.16181874,7.094514,6.558732000000001,1000.65045,1,3
39.08,-0.27174947,7.075448,6.2509956,1000.663,1,3
39.12,-0.137909,7.1564784,5.9574633000000015,1000.6377,1,3
39.16,-0.08054504,7.1946115000000015,6.2794027,1000.668,1,3
39.2,-0.09965789,7.2947087,6.203653299999999,1000.65283,1,3
39.24,-0.22870666,7.1946115000000015,6.2841387000000015,1000.67053,1,3
39.28,-0.21436049,7.189844,6.762314999999999,1000.68317,1,3
39.32,-0.09963925,7.3233074999999985,6.2509985,1000.68066,1,3
39.36,-0.15699056,7.332841,6.402501,1000.68054,1,3
39.4,-0.12352438,7.442471,6.2225943,1000.6855,1,3
39.44,-0.18087688,7.3566732,6.5019245,1000.6907,1,3
39.48,-0.18565074,7.3948064,6.2983456,1000.6982,1,3
39.52,-0.2716797,7.356673,6.4782543,1000.70605,1,3
39.56,-0.18085866,7.351906,6.5445356,1000.68335,1,3
39.6,-0.23343012,7.328073,6.369363,1000.7187,1,3
39.64,-0.22386417,7.409105,6.5445366,1000.7184,1,3
39.68,-0.14291579,7.428178,6.4072104,1000.7312,1,3
39.72,-0.16203979,7.385279,6.7717589999999985,1000.6933,1,3
39.76,-0.12858787,7.4663115000000015,6.355131,1000.711,1,3
39.8,-0.0903538,7.6569734,6.6486645000000015,1000.7311,1,3
39.84,-0.20029838,7.328081599999999,6.705475999999999,1000.7438,1,3
39.88,-0.18596531,7.3042493,6.6249905,1000.7464,1,3
39.92,-0.20508969,7.4234133,6.6344595,1000.769,1,3
39.96,-0.15729720000000005,7.351914,6.8001633,1000.7615,1,3
40.0,-0.1907638,7.361448299999997,6.3456593,1000.73346,1,3
40.04,-0.14775069,7.3805146,6.5918484,1000.76636,1,3
40.08,-0.30549175,7.2851834,6.4592839999999985,1000.75885,1,3
40.12,-0.28159870000000004,7.270884,6.5492363,1000.75885,1,3
40.16,-0.19078717,7.4138803,6.4214077000000005,1000.7613,1,3
40.2,-0.14777564,7.4091144,6.7859564,1000.8018,1,3
40.24,-0.23381767,7.370981,6.624985700000001,1000.7768,1,3
40.28,-0.21948579,7.42818,6.3267174000000015,1000.7992,1,3
40.32,-0.25772979999999995,7.2756505,6.6581259999999975,1000.77155,1,3
40.36,-0.1334624,7.3662157000000015,6.558702499999999,1000.75635,1,3
40.4,-0.009193435,7.3995814,6.246231,1000.77155,1,3
40.44,-0.03309761,7.380516,6.5255604000000025,1000.80444,1,3
40.48,-0.09046158,7.4472475,6.700732,1000.79175,1,3
40.52,-0.18128383,7.3900495,6.421402,1000.8271,1,3
40.56,-0.10481451,7.4234157,6.823826,1000.8018,1,3
40.6,-0.109599434,7.3662167,6.39773,1000.80927,1,3
40.64,-0.114385605,7.432948599999999,6.232024,1000.80426,1,3
40.68,-0.094365194,7.409094,6.5587807,1000.82715,1,3
40.72,0.034721836,7.5425572,6.459361,1000.8269,1,3
40.76,-0.05128039400000002,7.3471274000000015,6.497239,1000.8347,1,3
40.8,0.06346537,7.585453999999999,6.033271,1000.8118,1,3
40.84,-0.036885828,7.3614254,6.6250734,1000.84717,1,3
40.88,-0.11333029,7.146929300000001,6.743436999999999,1000.85986,1,3
40.92,-0.1371989,7.2088943,6.5067195999999985,1000.8272,1,3
40.96,0.1830784,7.561617999999997,6.355221,1000.83966,1,3
41.0,0.17831762,7.566384299999997,6.648756,1000.8652,1,3
41.04,0.17831762,7.566384299999997,6.648756,1000.83484,1,3
41.08,0.17831762,7.566384299999997,6.648756,1000.84216,1,3
41.12,0.17831762,7.566384299999997,6.648756,1000.87494,1,3
41.16,0.17831762,7.566384299999997,6.648756,1000.8473,1,3
41.2,-0.022276208,7.390017999999999,6.639301299999999,1000.898,1,3
41.24,0.04945506,7.471048,6.260552400000001,1000.90027,1,3
41.28,-0.017429844,7.428148700000001,6.4594,1000.8927,1,3
41.32,0.054288134,7.4948797,6.383651,1000.8598,1,3
41.36,0.016080126,7.4615135,6.573030499999999,1000.89276,1,3
41.4,0.14517097,7.499645,6.525689,1000.8876,1,3
41.44,0.030486137000000007,7.51871,6.080659,1000.89026,1,3
41.48,-0.20369379,7.261315299999999,6.6582584,1000.93066,1,3
41.52,-0.088948056,7.428144,6.284243599999999,1000.9254,1,3
41.56,-0.02678968,7.432910400000001,6.369465,1000.93054,1,3
41.6,0.040165618,7.447209,6.629861,1000.94824,1,3
41.64,-0.026721194,7.4376755,6.3647366,1000.93054,1,3
41.68,-0.1842368,7.404304,6.0712233,1000.9204,1,3
41.72,-0.050371364,7.418603,6.6677610000000005,1000.98114,1,3
41.76,-0.0025352687,7.3757033,6.5920143,1000.9658,1,3
41.8,0.16480307,7.499632400000001,6.762457,1000.9407,1,3
41.84,0.093144074,7.447199,6.014424299999999,1000.95575,1,3
41.88,0.05493413,7.571129300000001,6.4215860000000005,1000.9533,1,3
41.92,-0.2318065,7.318500500000002,6.2984962,1000.9608,1,3
41.96,-0.12661512,7.437664,6.5872974000000015,1000.971,1,3
42.0,-0.16482505,7.270833500000001,6.6488476,1000.961,1,3
42.04,-0.14567013,7.437661999999999,6.6346482999999985,1000.9862,1,3
42.08,-0.08826491,7.3709289999999985,6.0854607000000005,1001.00385,1,3
42.12,-0.12168548,7.447192699999999,6.40267,1001.0065,1,3
42.16,-0.22681265,7.2755956999999984,6.6157207,1001.0317,1,3
42.2,-0.23154485,7.332793700000002,6.5494432,1001.01135,1,3
42.24,0.031380028,7.4567227,6.6062593,1001.00385,1,3
42.28,0.05531709,7.5282206999999985,6.5068407,1001.009,1,3
42.32,0.026676312,7.404289200000001,6.2511864,1001.0342,1,3
42.36,-0.10234272,7.451954,6.1044226,1001.03687,1,3
42.4,-0.29827422,7.337555,6.6583520000000025,1001.05676,1,3
42.44,-0.37472486,7.242224,6.483181,1001.03656,1,3
42.48,-0.04965067,7.413819,6.980298,1001.0542,1,3
42.52,0.05554305,7.461483500000001,6.809863000000001,1001.03406,1,3
42.56,0.14160804,7.490082000000001,6.2180653,1001.0694,1,3
42.6,0.15120338,7.5663456999999985,6.40271,1001.0769,1,3
42.64,-0.1881175,7.299417999999997,6.1375875,1001.06433,1,3
42.68,-0.32789445,7.2851467,6.601453,1001.09216,1,3
42.72,-0.38526034,7.347111999999999,6.5304356,1001.102,1,3
42.76,-0.2036392,7.423377499999999,6.7860928,1001.09467,1,3
42.8,-0.045914575,7.4710426,6.60145,1001.102,1,3
42.84,0.08791168,7.542542,6.2937136,1001.0869,1,3
42.88,-0.08417393,7.313747,6.407337,1001.1122,1,3
42.92,-0.19889936,7.375713,5.9907093,1001.1049,1,3
42.96,-0.24192777,7.347114,6.752947,1001.1201,1,3
43.0,-0.14634183,7.394779700000001,6.610914,1001.1073,1,3
43.04,-0.06031488,7.323281,6.724539,1001.1326,1,3
43.08,0.08784889,7.5663757,6.497287,1001.1276,1,3
43.12,-0.026876524,7.494878,6.118533,1001.163,1,3
43.16,-0.23719488,7.3423479999999985,6.288971,1001.1503,1,3
43.2,-0.20852685,7.304216,6.6487856,1001.168,1,3
43.24,0.18340565,7.5330105,6.6156435,1001.145,1,3
43.28,0.19773431,7.490112299999999,6.1137953000000005,1001.17035,1,3
43.32,-0.012586623,7.399547599999999,6.6298447,1001.1756,1,3
43.36,-0.17988989,7.3804820000000015,6.293701,1001.14264,1,3
43.4,-0.19423948,7.356649000000001,6.3410444,1001.16534,1,3
43.44,-0.10821248,7.3614163,6.573028599999999,1001.1729,1,3
43.48,-0.19903955,7.466280499999999,6.2700260000000005,1001.1957,1,3
43.52,-0.18471032,7.3423505,6.6629809999999985,1001.1957,1,3
43.56,-0.05566509,7.4424477,6.558822599999999,1001.2158,1,3
43.6,-0.08913136,7.3614172999999985,6.374181,1001.1932,1,3
43.64,-0.036563665,7.418616,6.440461,1001.1981,1,3
43.68,-0.08380479,7.4329023,6.497325,1001.23615,1,3
43.72,-0.06945507,7.423369,6.4215754999999985,1001.2208,1,3
43.76,-0.06944083,7.4281343999999985,6.6109532999999985,1001.2006,1,3
43.8,0.03094536,7.5234656000000015,6.1753893,1001.2284,1,3
43.84,-0.01684001,7.4424334,6.4168444,1001.23615,1,3
43.88,-0.031164318,7.399534,6.3079550000000015,1001.226,1,3
43.92,-0.16020954,7.361402,6.3553,1001.2563,1,3
43.96,-0.10761660000000002,7.4424324,6.5446777,1001.28156,1,3
44.0,-0.121944934,7.447199,6.1611910000000005,1001.22845,1,3
44.04,-0.04545541,7.466265700000001,6.629898,1001.2336,1,3
44.08,-0.09323917,7.4614983,6.180132,1001.27155,1,3
44.12,-0.021532595,7.442431,6.653573,1001.27155,1,3
44.16,-0.040636763,7.3947663,6.3079624,1001.24615,1,3
44.2,-0.09798173,7.3613997000000015,6.592028599999999,1001.2663,1,3
44.24,0.07410394,7.556828,6.199074,1001.24866,1,3
44.28,-0.031039909,7.466264,6.5636234,1001.2663,1,3
44.32,0.04545040400000002,7.509162,5.9670897000000025,1001.294,1,3
44.36,-0.059693366,7.447196000000001,6.6204395000000025,1001.27386,1,3
44.4,-0.07402246,7.380464999999999,6.085452,1001.2814,1,3
44.44,-0.026210174,7.4614954,6.6393785,1001.2965,1,3
44.48,-0.09311474,7.490094,6.36005,1001.2763,1,3
44.52,0.02161245,7.4710274,6.5588960000000025,1001.2919,1,3
44.56,-0.0022723079,7.404296,6.156473,1001.28394,1,3
44.6,-0.14565451,7.385228999999999,6.123334,1001.2788,1,3
44.64,-0.15520224,7.4996266,6.2701015,1001.29395,1,3
44.68,-0.16497053,7.4043006999999985,6.563615,1001.3142,1,3
44.72,0.10748236,7.580662299999997,6.8902893,1001.3066,1,3
44.76,0.15050416,7.656927599999999,7.022853,1001.3268,1,3
44.8,0.054910883,7.6616945,6.7340546,1001.3398,1,3
44.84,0.11227234,7.795158,6.7056483999999985,1001.3347,1,3
44.88,0.06447862,7.656927599999999,6.596758,1001.3142,1,3
44.92,-0.13627006,7.480564999999999,6.530476599999999,1001.3294,1,3
44.96,-0.16016455,7.614028,6.5683527,1001.3446,1,3
45.0,-0.1362615,7.675993400000001,7.2074966,1001.3673,1,3
45.04,0.026255384,7.599728599999999,6.9518394,1001.38745,1,3
45.08,0.17921267,7.718892599999997,6.989714599999999,1001.3849,1,3
45.12,-0.02153501,7.575896000000001,6.440524,1001.38995,1,3
45.16,-0.064549446,7.714125,6.4926033,1001.36475,1,3
45.2,-0.102784075,7.690293,6.8618869999999985,1001.3901,1,3
45.24,-0.064542785,7.6235604000000015,6.68198,1001.3723,1,3
45.28,0.16967191,7.766557700000001,7.060733,1001.3774,1,3
45.32,0.12665652,7.823755999999999,6.9044979999999985,1001.40015,1,3
45.36,-0.00717324,7.757024,6.7956065999999975,1001.4027,1,3
45.4,-0.06930786,7.842822,6.5683555999999985,1001.3876,1,3
45.44,-0.174459,7.7951565,6.8145447,1001.3873,1,3
45.48,-0.007161841,7.923853,7.0086565,1001.38983,1,3
45.52,-0.069295734,7.809456,6.8855619999999975,1001.4177,1,3
45.56,0.040643573,7.9572186,7.1885643,1001.4052,1,3
45.6,-0.035829738,7.909553,6.8240146999999975,1001.4127,1,3
45.64,0.05021052,7.9238524,7.089142999999999,1001.3925,1,3
45.68,0.14188538,7.895232000000001,6.7625475,1001.42535,1,3
45.72,0.027205765,7.9047649999999985,7.1839122999999985,1001.4455,1,3
45.76,0.0033447742,7.8761649999999985,6.6252556,1001.4151,1,3
45.8,-0.025310278,7.8237314,7.004010000000001,1001.4202,1,3
45.84,-0.1447578,7.771298,6.762561,1001.43787,1,3
45.88,-0.096916996,7.7474647,6.847783,1001.42523,1,3
45.92,-0.09210148,7.790362400000001,6.9661465,1001.4505,1,3
45.96,-0.04904522,7.756995,6.923539999999999,1001.43036,1,3
46.0,-0.08246815,7.766528,7.117653999999999,1001.4152,1,3
46.04,-0.1302258,7.847558,6.795717999999999,1001.4456,1,3
46.08,-0.11108278,7.785592999999999,7.0892544000000015,1001.4329,1,3
46.12,-0.05845502,7.852322999999997,6.9851017,1001.47577,1,3
46.16,-0.13012356,7.838023,7.032448,1001.448,1,3
46.2,-0.14441538,7.7760563,7.108203,1001.4151,1,3
46.24,-0.13960943,7.685491000000002,7.150815,1001.44543,1,3
46.28,-0.053525418,7.776055,6.975647,1001.3922,1,3
46.32,-0.03915271,7.733155,6.743664,1001.46326,1,3
46.36,-0.07256855,7.671189,6.904637299999999,1001.4506,1,3
46.4,-0.120330885,7.470992,6.7531395000000005,1001.4403,1,3
46.44,-0.07249482,7.547256,6.7862835000000015,1001.4507,1,3
46.48,-0.08681761,7.490057000000001,6.8904429999999985,1001.4608,1,3
46.52,-0.20147343,7.4852896,6.544837,1001.45294,1,3
46.56,-0.26835266,7.399489999999999,6.786294,1001.45544,1,3
46.6,-0.27309912,7.351823299999999,6.890454300000001,1001.4733,1,3
46.64,-0.12967889,7.432854700000001,6.639533,1001.44775,0,0
46.68,-0.015861705,7.5663399999999985,6.402731,1001.4606,0,0
46.72,-0.12101739,7.4042773,6.8004208,1001.50867,0,0
46.76,-0.16403563,7.4090443,6.5447636,1001.4606,0,0
46.8,-0.1401366,7.3041800000000014,6.985062599999999,1001.4529,0,0
46.84,-0.12101739,7.461475999999997,6.3601217000000005,1001.4505,0,0
46.88,0.07017477,7.461475999999997,6.923515299999999,1001.4454,0,0
46.92,0.09407379,7.385211,6.379059,1001.4858,0,0
46.96,-0.011081889,7.3280125,6.625248,1001.4631,0,0
47.0,-0.073219344,7.3232455,6.5116224,1001.4632,0,0
47.04,0.012817115,7.4138103000000015,6.5116224,1001.44525,0,0
47.08,-0.015861705,7.3566117,6.672592,1001.47076,0,0
47.12,-0.08277894599999999,7.3327794000000015,6.5826387,1001.4327,0,0
47.16,-0.11145777,7.3232455,6.8004208,1001.4758,0,0
47.2,0.022376731,7.4328766,6.5447636,1001.4379,0,0
47.24,-0.1257972,7.2469807,6.620514,1001.4403,0,0
47.28,-0.19749424,7.256514,6.5258255,1001.4733,0,0
47.32,-0.16403563,7.2469807,6.7246704,1001.4481,0,0
47.36,-0.05887994,7.2422147,6.790951700000001,1001.4784,0,0
47.4,0.05583535,7.456709,6.492684400000001,1001.4655,0,0
47.44,0.0988536,7.547273599999999,6.7720145999999986,1001.4604,0,0
47.48,0.051055536,7.461475999999997,6.7104673,1001.4327,0,0
47.52,-0.16403563,7.3232455,6.7341394,1001.4554,0,0
47.56,-0.13535678,7.2851133,6.611045,1001.4529,0,0
47.6,-0.1449164,7.3184795,6.601576,1001.4579,0,0
47.64,-0.11623758,7.26128,6.7530766,1001.46576,0,0
47.68,0.013102576,7.3661375,6.1944427000000015,1001.46045,0,0
47.72,-0.06336783,7.294639,6.4122267,1001.473,0,0
47.76,-0.082477786,7.2088413,6.7057600000000015,1001.48566,0,0
47.8,-0.015545547,7.380437400000001,6.487979,1001.4756,0,0
47.84,0.027486235,7.409036,6.478512,1001.4504,0,0
47.88,0.16611199,7.4614677,6.535325,1001.4706,0,0
47.92,0.09442563,7.351836,6.3506839999999976,1001.4981,0,0
47.96,0.07531856,7.4042687,6.4217014,1001.50085,0,0
48.0,-0.03938605,7.270805,6.738908,1001.4956,0,0
48.04,0.032318845,7.3756685,6.8525342999999985,1001.506,0,0
48.08,0.05623214,7.399501,6.5116587,1001.4657,0,0
48.12,0.07536279,7.4376335,6.402768,1001.4402,0,0
48.16,-0.03456059,7.318469500000001,6.379098,1001.4882,0,0
48.2,-0.1110303,7.3041697,6.3364887,1001.4552,0,0
48.24,0.06583743,7.361368,6.5163975,1001.4454,0,0
48.28,0.05150874,7.3852,6.648961,1001.47797,0,0
48.32,0.18535246,7.4519315000000015,6.5684776,1001.4682,0,0
48.36,0.051530853,7.361366999999999,6.218133,1001.4657,0,0
48.4,0.108898476,7.389966,6.095038400000001,1001.4756,0,0
48.44,-0.04404455400000002,7.304167999999999,6.232338,1001.468,0,0
48.48,-0.13007179,7.351832400000001,6.284417,1001.4554,0,0
48.52,0.06591664,7.671192,6.440654,1001.4907,0,0
48.56,-0.067906484,7.571094,7.2218323,1001.48816,0,0
48.6,0.037257046,7.43763,6.582687400000001,1001.48083,0,0
48.64,0.11852442,7.389964599999999,6.5826883,1001.4705,0,0
48.68,0.013380855,7.361364999999997,6.3696413,1001.46783,0,0
48.72,0.01817137,7.337531599999997,6.5826910000000005,1001.48816,0,0
48.76,0.05642478,7.3899636,6.099783,1001.46295,0,0
48.8,-0.015265137,7.3613644,6.3980513,1001.42224,0,0
48.84,0.037323415,7.2898654999999986,6.738929700000001,1001.473,0,0
48.88,0.070796296,7.4519277000000015,6.4880066,1001.4579,0,0
48.92,0.013450071,7.399495,6.4880075,1001.4502,0,0
48.96,0.15685202,7.4614600000000015,6.4927435,1001.4907,0,0
49.0,0.09950583,7.3708954,6.383853,1001.4677,0,0
49.04,0.17121427,7.4566927,6.2512903,1001.46014,0,0
49.08,-0.010406151,7.2326646,6.639513000000001,1001.46533,0,0
49.12,0.003941104,7.3375287,6.402794,1001.4677,0,0
49.16,0.06131302,7.3232284,6.3696537000000015,1001.4728,0,0
49.2,0.11390157,7.4566917,6.478546,1001.47296,0,0
49.24,0.15215214,7.4566913,6.682127,1001.4728,0,0
49.28,-0.0055699795,7.4614577,6.431204,1001.46027,0,0
49.32,-0.10593586,7.3375273,6.757879300000001,1001.46783,0,0
49.36,-0.06290622,7.3232274,6.488019,1001.4804,0,0
49.4,0.051819786,7.389959299999999,6.686866,1001.47284,0,0
49.44,0.03749107,7.394725999999999,6.1282063,1001.4805,0,0
49.48,0.018384695,7.409025,6.5874443,1001.4831,0,0
49.52,0.03751102,7.327992999999997,6.5779770000000015,1001.46545,0,0
49.56,-0.10561025,7.3708854000000015,6.0619516,1001.47797,0,0
49.6,-0.21074897,7.28032,6.5590660000000005,1001.49567,0,0
49.64,-0.27764922,7.323219,6.6679583,1001.4552,0,0
49.68,-0.16769779,7.2946186,6.663225,1001.4451,0,0
49.72,0.0235167,7.4233164999999985,6.454914,1001.4854,0,0
49.76,-0.0003695786,7.332751299999999,6.5069933,1001.47296,0,0
49.8,-0.0146920085,7.356583,6.4975260000000015,1001.51825,0,0
49.84,-0.019450545,7.204053,6.7910614,1001.4652,0,0
49.88,-0.01943779,7.1706862000000005,6.8668127000000005,1001.50323,0,0
49.92,0.26737058,7.432846499999999,6.5780163,1001.48303,0,0
49.96,0.22436409,7.404247,6.2087336,1001.4653,0,0
50.0,0.18136178,7.366114,6.4643927,1001.455,0,0
50.04,0.08578588,7.304148700000002,6.7153177,1001.49304,0,0
50.08,-0.10539032,7.332748,6.563818,1001.4552,0,0
50.12,-0.086254105,7.347047,6.350772,1001.45264,0,0
50.16,-0.14837456,7.337513,6.838417,1001.46277,0,0
50.2,-0.17225976,7.246948,6.454932,1001.4805,0,0
50.24,-0.19136092,7.289847,6.7437315,1001.47546,0,0
50.28,-0.06229028,7.428076700000001,6.65378,1001.4652,0,0
50.32,-0.12440858,7.3613443,6.9520493000000005,1001.4652,0,0
50.36,-0.07660097,7.2374134,6.8478928,1001.4727,0,0
50.4,-0.16261621,7.1897473,6.4265327,1001.48553,0,0
50.44,-0.2104015,7.142081299999999,6.355517400000001,1001.4399,0,0
50.48,-0.12912786,7.3184443,6.3602542999999985,1001.4702,0,0
50.52,-0.16734393,7.1659136,6.753212,1001.4526,0,0
50.56,-0.10029772,7.332740299999997,6.7768955,1001.4678,0,0
50.6,-0.047699645,7.1373105,7.184056299999999,1001.4804,0,0
50.64,0.014460728,7.280306299999999,6.5354443,1001.44507,0,0
50.68,0.13875182,7.475734700000001,6.5496492,1001.49036,0,0
50.72,0.13399895,7.2755384,6.734294,1001.47546,0,0
50.76,0.25351965,7.2469387,6.8242493,1001.46277,0,0
50.8,0.21052028,7.227873,6.4549675,1001.4753,0,0
50.84,0.09104271,7.1373076,6.383953,1001.4804,0,0
50.88,0.07194777,7.180206299999999,6.5165186,1001.5107,0,0
50.92,0.1293229,7.208805,6.6822243000000014,1001.4777,0,0
50.96,0.1436839,7.3184357,6.6490860000000005,1001.4804,0,0
51.0,0.1341499,7.385165700000001,6.649088000000001,1001.48303,0,0
51.04,0.09115051,7.332733599999999,6.6206837,1001.4929,0,0
51.08,0.091172084,7.337499,6.516529,1001.4753,0,0
51.12,0.10075189,7.170669,6.923689,1001.4979,0,0
51.16,-0.06173718,7.180202499999999,6.6064862999999985,1001.4728,0,0
51.2,0.11035468,7.361331,6.331892,1001.5032,0,0
51.24,0.23464973,7.380397,6.729584700000001,1001.4398,0,0
51.28,0.048258975,7.2278666,6.7295865999999975,1001.4804,0,0
51.32,-0.009082511,7.237399000000001,6.7106504000000005,1001.48285,0,0
51.36,-0.11421122,7.1897326,6.6585740000000015,1001.4778,0,0
51.4,-0.17154863,7.218331,6.7579985,1001.46515,0,0
51.44,-0.06637274,7.1944985,6.810078599999999,1001.47034,0,0
51.48,0.110502884,7.327961,6.6491117,1001.4778,0,0
51.52,0.105744675,7.3374934,6.682254,1001.4804,0,0
51.56,0.07610373,7.318451400000002,6.426508,1001.5082,0,0
51.6,0.04262179,7.242186999999999,6.5306635,1001.4979,0,0
51.64,0.052168086,7.2517204,6.6868973,1001.49536,0,0
51.68,0.13340585,7.394717999999999,6.791053,1001.5031,0,0
51.72,0.07124953,7.2374215,6.596939999999999,1001.4828,0,0
51.76,0.09991060000000004,7.3804193,6.5069847,1001.4703,0,0
51.8,0.032976657,7.232655,6.6821556,1001.5031,0,0
51.84,0.0042823553,7.2517223,6.710561,1001.4778,0,0
51.88,-0.048317716,7.280322,6.7342309999999985,1001.46014,0,0
51.92,0.0472662,7.313688799999999,6.511712,1001.48535,0,0
51.96,0.07114409,7.3232217,6.596930499999999,1001.4675,0,0
52.0,0.028111428,7.289857,6.710555,1001.46265,0,0
52.04,-0.014922351,7.342289,6.5306463,1001.4524,0,0
52.08,-0.005382716700000001,7.3422894,6.6205979999999975,1001.48535,0,0
52.12,0.12842958,7.461453999999999,6.7484245,1001.44745,0,0
52.16,0.08061825,7.2707925000000015,6.809971000000001,1001.4852,0,0
52.2,-0.11059055,7.2231274,6.587452000000001,1001.4954,0,0
52.24,0.032785773,7.232660000000001,6.4738245,1001.47284,0,0
52.28,0.094903275,7.4042573,6.4359474,1001.47015,0,0
52.32,-0.07718855,7.3184595,6.374398,1001.49036,0,0
52.36,-0.07242426,7.256495,6.6584616,1001.4777,0,0
52.4,0.037497908,7.266027999999999,6.710539,1001.49036,0,0
52.44,-0.082016066,7.351825999999999,6.5969114,1001.49036,0,0
52.48,-0.14417349999999998,7.2612619999999986,6.6063785999999975,1001.4727,0,0
52.52,-0.043815374,7.3851933,6.601642599999999,1001.4853,0,0
52.56,-0.1098893,7.256475999999997,6.5733128,1001.47003,0,0
52.6,0.0048435032,7.404238,6.5496426,1001.45496,0,0
52.64,0.06221555,7.361339599999999,6.668003999999999,1001.4625,0,0
52.68,-0.009461924,7.3422722999999985,6.459692,1001.4727,0,0
52.72,-0.105045654,7.289840700000001,6.601725599999999,1001.46265,0,0
52.76,-0.03333628,7.332739,6.4360228,1001.4878,0,0
52.8,-0.14325011,7.285073,6.530712,1001.465,0,0
52.84,-0.12411648,7.361337700000001,6.4123535,1001.5131,0,0
52.88,-0.114541434,7.232639999999999,6.582794,1001.49286,0,0
52.92,-0.06672692,7.35657,6.668014500000001,1001.4726,0,0
52.96,0.02410683,7.3804026,6.639609299999999,1001.46765,0,0
53.0,0.014564723,7.428066999999999,6.6585493,1001.4878,0,0
53.04,-0.06667751,7.2898374000000015,6.592267999999999,1001.48535,0,0
53.08,-0.11923888,7.356567999999997,6.597005,1001.4803,0,0
53.12,-0.24827816,7.2231045,6.426567,1001.48785,0,0
53.16,-0.20046364,7.218336999999999,6.682225999999999,1001.4778,0,0
53.2,-0.08573083599999999,7.2993684,6.488117,1001.48285,0,0
53.24,-0.023578987000000003,7.304135,6.63962,1001.4624,0,0
53.28,0.0098961145,7.432831,6.5259953,1001.46515,0,0
53.32,0.04336916,7.4089985,6.6443577000000005,1001.4927,0,0
53.36,-0.056986123,7.4757289999999985,6.521264,1001.4775,0,0
53.4,-0.09520913,7.442363,6.270343,1001.4674,0,0
53.44,-0.2959434,7.1373034,7.042051299999999,1001.48254,0,0
53.48,-0.30070984,7.137303,6.516535,1001.49536,0,0
53.52,-0.32937214,7.189734,6.6301613,1001.48254,0,0
53.56,-0.22018118,7.194519500000001,6.298685,1001.503,0,0
53.6,-0.13894108,7.256485,6.5212,1001.46765,0,0
53.64,-0.21543194,7.3613496,6.289213,1001.475,0,0
53.68,-0.043371215,7.337517,6.3744316,1001.46765,0,0
53.72,0.10000895,7.4233155,6.885746000000001,1001.5054,0,0
53.76,0.05219783,7.451915299999999,6.596946000000001,1001.48004,0,0
53.8,-0.00039577484,7.347050999999999,6.7673836,1001.47754,0,0
53.84,-0.091225125,7.337517999999997,6.497520400000001,1001.4752,0,0
53.88,0.02825424,7.351818,6.587472999999999,1001.47253,0,0
53.92,-0.053012878,7.3470520000000015,6.5069876,1001.4802,0,0
53.96,-0.11994760000000004,7.442383299999999,6.4691105,1001.47015,0,0
54.0,-0.18687531,7.232655,6.809987,1001.4901,0,0
54.04,-0.053057417,7.2660213,6.620609299999999,1001.5003,0,0
54.08,-0.057849452,7.232655499999999,6.6253424,1001.48004,0,0
54.12,0.08553244,7.432852,6.298667,1001.4524,0,0
54.16,-0.115234986,7.2612553,6.6584806,1001.47754,0,0
54.2,0.004248753,7.399486,6.49751,1001.45996,0,0
54.24,-0.029226467,7.3327556,6.7768383000000005,1001.47754,0,0
54.28,0.042459235,7.3375216,6.634804700000001,1001.48773,0,0
54.32,-0.043586805,7.323222,6.3980837,1001.4673,0,0
54.36,0.047215477,7.404254400000001,6.6158648,1001.4802,0,0
54.4,-0.010159612,7.308923700000001,6.4690970000000005,1001.4902,0,0
54.44,0.12366088,7.3661227,6.7105503,1001.48773,0,0
54.48,0.00893338,7.2993913,6.4690943,1001.4927,0,0
54.52,0.12841363,7.409022999999999,6.402811,1001.4802,0,0
54.56,0.11884092,7.466222,6.4927645,1001.4903,0,0
54.6,-0.019789055,7.189761,6.5353727,1001.4724,0,0
54.64,-0.032926767999999995,7.323195,6.5449514,1001.4572,0,0
54.68,-0.018556297,7.3136616,6.3129683,1001.4649,0,0
54.72,0.010159358,7.2850614,6.507082,1001.44714,0,0
54.76,0.15358256,7.3470263,6.7485399999999975,1001.4878,0,0
54.8,0.16317321,7.447122999999999,6.4218683,1001.4673,0,0
54.84,0.15364270000000002,7.351790400000001,6.59231,1001.4749,0,0
54.88,0.02939494,7.347024,6.4218730000000015,1001.4723,0,0
54.92,-0.09962293,7.2659917,6.4976273,1001.4649,0,0
54.96,-0.07569678,7.2183247,6.573380499999999,1001.45984,0,0
55.0,0.08684565,7.451886,6.8479785999999985,1001.4926,0,0
55.04,0.15379004,7.3756204,6.876386599999999,1001.4749,0,0
55.08,0.18728165,7.490017,6.2183084000000015,1001.485,0,0
55.12,0.16341172,7.475716,6.5923289999999986,1001.48,0,0
55.16,-0.18069732,7.1992555,6.4834404,1001.45233,0,0
55.2,-0.15677309,7.237386999999999,6.582865700000001,1001.4876,0,0
55.24,-0.19019292,7.275517999999999,6.6112757,1001.4674,0,0
55.28,-0.27620609999999995,7.261217999999999,6.582871400000001,1001.475,0,0
55.32,-0.123225234,7.3136497,6.29881,1001.4775,0,0
55.36,-0.10884704,7.4042134000000015,6.8574724,1001.4649,0,0
55.4,-0.11838144,7.470944,6.587614,1001.45984,0,0
55.44,-0.15181293,7.5090766,6.4881935,1001.442,0,0
55.48,-0.21391547,7.461410000000001,6.5592136,1001.46216,0,0
55.52,-0.40507078,7.199249000000001,6.6065607,1001.45984,0,0
55.56,-0.4624129,7.2707467,6.5497494000000005,1001.46497,0,0
55.6,-0.27216262,7.347035000000001,6.4360370000000025,1001.4597,0,0
55.64,-0.1861328,7.4614315000000015,6.4691772000000025,1001.4698,0,0
55.68,-0.057086438,7.6759276,6.0762215,1001.4698,0,0
55.72,-0.3008653,7.661628,6.421832,1001.4596,0,0
55.76,-0.61634344,7.409000999999999,6.2940025,1001.4749,0,0
55.8,-0.9748365,7.13254,6.383955,1001.4851,0,0
55.84,-1.0369829,7.423300999999999,5.8537006,1001.4622,0,0
55.88,-0.91749394,7.4852667,6.2229834,1001.4823,0,0
55.92,-0.98441947,7.566297500000001,6.09042,1001.4672,0,0
55.96,-0.9509708,7.7378945,6.2608576,1001.46716,0,0
56.0,-0.9987794,7.332737,6.246653599999999,1001.48486,1,4
56.04,-1.132621,7.022911,6.071479,1001.4571,1,4
56.08,-0.88886106,7.6854619999999985,5.261895,1001.4494,1,4
56.12,-0.51604474,7.818926299999997,6.4312925000000005,1001.48987,1,4
56.16,-0.6881265000000001,7.1134762999999985,6.303463,1001.49,1,4
56.2,-0.15279628,7.3232045,5.635911,1001.4647,1,4
56.24,0.3060549,7.199275,6.5969944000000025,1001.4774,1,4
56.28,0.5880566999999999,7.609197999999999,6.511774,1001.48486,1,4
56.32,1.1903025,7.9523907,5.616971,1001.4774,1,4
56.36,1.2333125,7.1754419999999985,6.5685863,1001.4672,1,4
56.4,0.6214864,6.808418,6.701148,1001.48224,1,4
56.44,0.9751853,7.0944114,5.834751,1001.46216,1,4
56.48,0.96561515,7.361339,6.246644,1001.4673,1,4
56.52,0.90346885,7.480503,5.8915625,1001.45465,1,4
56.56,0.7600651999999999,7.799863,6.270314,1001.4293,1,4
56.6,0.62266344,8.162091,5.9532194,1001.4825,1,4
56.64,0.7708754,8.324152999999999,7.288325299999999,1001.4673,1,4
56.68,0.43632215,8.11919,8.064771,1001.4696,1,4
56.72,0.15435426,7.918994,8.121587,1001.49994,1,4
56.76,0.40772706,8.209752,8.793877,1001.49756,1,4
56.8,0.07318391,7.742628999999999,9.508775,1001.5051,1,4
56.84,0.65158325,6.1124654000000005,9.219981,1001.49,1,4
56.88,0.65162134,5.3593483,8.779684,1001.4798,1,4
56.92,-0.72970134,4.6634307,6.5071745000000005,1001.4521,1,4
56.96,-0.7105491999999999,5.340281,7.4682617,1001.4646,1,4
57.0,-0.7822057,6.026664,6.4219620000000015,1001.4496,1,4
57.04,-0.3806641,6.136294,6.455106,1001.47217,1,4
57.08,-0.42841387,6.0552607000000025,7.0942554000000015,1001.4774,1,4
57.12,-0.25152060000000004,6.260222,6.8433350000000015,1001.4848,1,4
57.16,-0.3422963,6.3936844000000015,6.464587,1001.47217,1,4
57.2,0.116597846,6.522381,6.9901085000000025,1001.4798,1,4
57.24,0.46556664,6.4937806,7.638725999999999,1001.4772,1,4
57.28,0.07845078400000001,6.4794793,7.4777613,1001.4798,1,4
57.32,0.07369886,6.808371000000001,7.435153999999999,1001.4949,1,4
57.36,0.42266262,7.0848303,7.946472999999999,1001.48236,1,4
57.4,-0.08394839999999999,6.927533,8.424652,1001.4749,1,4
57.44,0.021247894,7.2802570000000015,7.4162273,1001.452,1,4
57.48,0.9963684000000002,6.5652732999999985,7.2221202999999985,1001.46716,1,4
57.52,1.5126176000000002,5.878888,8.595101,1001.4672,1,4
57.56,1.068134,5.468963,7.491988,1001.47217,1,4
57.6,1.474463,6.13628,7.1605835,1001.47473,1,4
57.64,1.3772553,5.9075246,7.1462326,1001.45966,1,4
57.68,0.84666836,5.8407936,5.924754,1001.4749,1,4
57.72,0.55507624,6.3174505,5.8537360000000005,1001.44684,1,4
57.76,0.09141873,6.51288,5.7921877,1001.4393,1,4
57.8,0.26346755,6.651110000000001,6.0667800000000005,1001.45715,1,4
57.84,-0.07592264,6.8465395,8.244603999999999,1001.49506,1,4
57.88,-0.49656945,7.0896344,8.235133,1001.4823,1,4
57.92,-0.2671675,7.442360000000001,10.412957,1001.5074,1,4
57.96,-0.20026831,7.156367,9.068384,1001.462,1,4
58.0,0.19165148,7.0229044000000025,8.490784,1001.47723,1,4
58.04,0.28722197,6.193524,8.812722,1001.49225,1,4
58.08,-0.5922906,6.150626,6.1614532,1001.4622,1,4
58.12,-0.5923130999999999,6.1220274,7.382927,1001.4569,1,4
58.16,0.26802748,6.0791283,6.535466,1001.4695,1,4
58.2,0.4496374,6.3698893,7.108327,1001.4695,1,4
58.24,0.081568435,5.807436,6.928417,1001.4469,1,4
58.28,-0.22436315,5.6406074,6.9378843,1001.4393,1,4
58.32,0.4065469,5.9695,6.009939,1001.44934,1,4
58.36,0.80802476,5.7454724000000015,7.714322,1001.4594,1,4
58.4,0.89404464,6.293627,6.9284095999999975,1001.4619,1,4
58.44,1.4054551000000002,7.0515103,7.7427244,1001.4619,1,4
58.48,0.5355097,6.3746595,9.546531,1001.4822,1,4
58.52,0.25347567,6.660653599999999,8.670663000000001,1001.4721,1,4
58.56,1.7256311000000002,7.1182437000000025,7.340292999999999,1001.47455,1,4
58.6,2.480819,6.6511210000000025,7.9178896,1001.4646,1,4
58.64,1.2344699,6.298367,7.193633,1001.47705,1,4
58.68,2.0470593,6.5366945,6.6681156,1001.4545,1,4
58.72,1.6646949,5.6739473,8.713381,1001.47974,1,4
58.76,1.1293812,5.888442,6.9711227,1001.48224,1,4
58.8,1.0959454,6.66539,6.199416,1001.4317,1,4
58.84,0.4554745,6.4794936,6.199418,1001.44934,1,4
58.88,0.4268114000000001,6.431828,5.5224,1001.457,1,4
58.92,0.12092678,6.965682000000001,6.7296752999999985,1001.4646,1,4
58.96,-0.0654556,7.251674,7.094227,1001.4341,1,4
59.0,0.24047326,7.1277432,9.830715,1001.4745,1,4
59.04,0.42690557,7.075311,9.186838,1001.45935,1,4
59.08,0.17837577,7.361304,8.10266,1001.47723,1,4
59.12,-0.8970530000000001,5.9551687000000015,7.5298004,1001.462,1,4
59.16,-0.8779109,6.6129527,7.1841908,1001.4519,1,4
59.2,-0.6006651999999999,7.0228767,7.046895,1001.4545,1,4
59.24,-0.3377489,6.3650910000000005,7.515604,1001.4621,1,4
59.28,0.19760917,6.3174253,7.321495,1001.4822,1,4
59.32,0.44617885,6.1124625,7.6623735,1001.4646,1,4
59.36,0.0016842782,5.650106,6.909606,1001.462,1,4
59.4,-0.079549566,5.8789,5.4892864,1001.4594,1,4
59.44,0.48926985,6.312656,5.872775,1001.4368,1,4
59.48,0.7951945,6.5414505,7.231551,1001.4545,1,4
59.52,0.20730571,6.5748158,7.45407,1001.4721,1,4
59.56,0.33638048,7.184935,6.999569,1001.43677,1,4
59.6,0.4889838,6.913249,9.551381,1001.48724,1,4
59.64,-0.26143825,6.5986566999999985,9.480366,1001.47705,1,4
59.68,-0.34746766,7.337472,7.401963,1001.4519,1,4
59.72,2.1189187,7.118211,8.277828,1001.4468,1,4
59.76,2.6972810000000003,6.4032269999999984,9.362008,1001.4924,1,4
59.8,0.8857447,5.464215,5.5318755999999984,1001.4469,1,4
59.84,1.1677611,5.9790034000000025,5.157858,1001.4217,1,4
59.88,1.6409683000000002,5.9408703,6.1804904999999986,1001.4721,1,4
59.92,1.6170751,5.764508,5.9958487,1001.44934,1,4
59.96,1.4736886,6.226863400000001,6.6634007,1001.4366,1,4
60.0,1.2442676,6.8846479999999985,6.066867,1001.44183,1,4
60.04,1.3685496,7.466168400000001,5.711787,1001.4721,1,4
60.08,1.1200054,7.265972,7.1510468,1001.4392,1,4
60.12,-0.26612866,6.4890237,9.03534,1001.4596,1,4
60.16,-0.13706776,7.2040067,8.050585,1001.4545,1,4
60.2,-0.20397551,7.585331,9.40936,1001.47217,1,4
60.24,-0.98785627,7.513833,7.9937735,1001.4444,1,4
60.28,-1.0069678,7.6043973,8.206822,1001.46967,1,4
60.32,-0.25175315,6.941845,9.702894,1001.47723,1,4
60.36,-1.2220438,5.7073073,7.5913515,1001.46967,1,4
60.4,-0.9830483,5.931335,7.3593655,1001.43427,1,4
60.44,-0.5289575,5.8169374000000005,7.1983967,1001.4368,1,4
60.48,0.25493795,5.912268599999999,6.0952806,1001.4468,1,4
60.52,0.56563234,5.988533,6.8953960000000025,1001.457,1,4
60.56,0.14979555,5.569076,7.0847729999999975,1001.4596,1,4
60.6,0.18326087,5.564309,7.269416,1001.4443,1,4
60.64,0.71763647,6.1315527,6.989997,1001.4469,1,4
60.68,-0.02804336,6.217352,6.341381,1001.457,1,4
60.72,0.08185597,7.0086017000000025,5.640686,1001.42664,1,4
60.76,0.22999947,7.4137588,7.278786699999999,1001.4646,1,4
60.8,-0.037690505,7.1468325,6.6064997000000005,1001.42664,1,4
60.84,-0.018611237,7.4852595,7.932129,1001.462,1,4
60.88,0.10085337,8.171644,8.547599,1001.4646,1,4
60.92,0.38283515,8.104913,8.623348,1001.4545,1,4
60.96,1.2622867,7.0658045,8.850595,1001.4393,1,4
61.0,0.7699365,5.8360333,8.566528,1001.4519,1,4
61.04,0.4448794,5.6072392,7.1556729999999975,1001.4594,1,4
61.08,0.7459804,6.0934285999999975,7.7285337,1001.4368,1,4
61.12,0.7268288,6.2030606,6.7295713,1001.4368,1,4
61.16,0.94189894,5.869402,7.5817622999999985,1001.45184,1,4
61.2,0.44476712,5.5738764000000005,6.9662867,1001.47974,1,4
61.24,0.7028403,6.122031,6.6680155,1001.4596,1,4
61.28,0.31564575,6.2030635,7.169860000000001,1001.44183,1,4
61.32,0.06707512,6.3460603,7.434985,1001.4443,1,4
61.36,0.09572156,6.498591,7.193527,1001.4469,1,4
61.4,0.31555635,6.303163,7.6432924,1001.4494,1,4
61.44,0.27250957,6.3746624,7.515461,1001.44934,1,4
61.48,0.35851562,6.913284,7.917883,1001.43427,1,4
61.52,0.14339398,6.722623,7.5343933,1001.4545,0,0
61.56,-0.023927644,6.4985947999999985,7.236122999999999,1001.4317,0,0
61.6,0.19707288,6.8083935,7.056319,1001.4191,0,0
61.64,0.19230951,6.7750273000000005,6.8196,1001.4468,0,0
61.68,-0.013211727,6.717828,6.8811483,1001.42676,0,0
61.72,0.13497971,6.8465247000000025,6.810134,1001.42664,0,0
61.76,0.13499929,6.746426,6.848011,1001.4367,0,0
61.8,0.18281172,6.827458,6.6065580000000015,1001.4619,0,0
61.84,0.034657404,6.913255,6.9853125,1001.4393,0,0
61.88,-0.008344322,6.999053,6.682311,1001.4367,0,0
61.92,-0.14694217,7.122983500000001,7.2551755999999985,1001.47455,0,0
61.96,0.06338467,6.9466199999999985,7.240974400000002,1001.43677,0,0
62.0,0.24981348,6.9466195000000015,6.904833,1001.42163,0,0
62.04,0.54139805,7.027651,6.8148804000000025,1001.45184,0,0
62.08,0.38367993,6.9847517,6.923773,1001.4569,0,0
62.12,0.24508213,6.8274546,7.0468699999999975,1001.4671,0,0
62.16,0.36459267,6.918019,6.786478,1001.4569,0,0
62.2,0.15907861,6.8036210000000015,7.0232,1001.4646,0,0
62.24,0.2977094,6.8989515,6.848029,1001.45435,0,0
62.28,0.32640368,7.0371820000000005,7.065813,1001.45435,0,0
62.32,0.28818178,7.1039133,6.9663925,1001.4418,0,0
62.36,0.3646751,7.1897100000000025,6.407734,1001.42914,0,0
62.4,0.53676456,7.2898083,7.274132000000002,1001.462,0,0
62.44,0.3073504,6.994281,7.1983824000000025,1001.462,0,0
62.48,0.12572819999999998,7.0753119999999985,6.327252400000001,1001.4646,0,0
62.52,0.13052966,6.889415299999999,6.885915,1001.45184,0,0
62.56,0.26915938,6.875115400000001,6.914322,1001.44434,0,0
62.6,0.46430296,7.1563625,7.061013000000001,1001.462,0,0
62.64,0.38302636,7.118231,6.2372246,1001.4141,0,0
62.68,0.27307862,7.084865,6.6727886,1001.4596,0,0
62.72,0.124882504,6.8751373,6.4313325999999975,1001.44934,0,0
62.76,0.16310538,7.0658,6.9805220000000014,1001.4721,0,0
62.8,0.11050983,7.0229015,6.615970599999999,1001.46716,0,0
62.84,0.27778405,7.0276685,7.2645826,1001.48724,0,0
62.88,0.13437109,6.83224,7.4776297,1001.47455,0,0
62.92,0.18693782,6.8656063,7.1935644,1001.4721,0,0
62.96,0.19647966,6.970471400000001,7.240906699999999,1001.44183,0,0
63.0,0.08652083599999999,6.846541,6.9757776,1001.44934,0,0
63.04,0.09128289,6.9228067,6.999447999999999,1001.457,0,0
63.08,0.09604497,7.0133715,7.174618700000001,1001.4671,0,0
63.12,0.18206479,6.9609394,6.9000225,1001.4393,0,0
63.16,0.07211156,6.870375599999999,7.501290299999999,1001.44934,0,0
63.2,-0.028281018,6.7655115000000015,7.018379,1001.462,0,0
63.24,-0.06653717,6.72738,7.155676,1001.4468,0,0
63.28,0.014702812,6.827478,6.672764999999999,1001.45435,0,0
63.32,0.029030025,6.9990745,6.7011699999999985,1001.4749,0,0
63.36,-0.07613897,6.8560777,7.0136395,1001.44434,0,0
63.4,0.28709728,6.9752426,7.4870777,1001.4545,0,0
63.44,0.23929255,6.941876400000001,7.330841,1001.45435,0,0
63.48,0.04807155,6.841779700000001,6.8858039999999985,1001.4721,0,0
63.52,-0.042755842,6.636817999999999,6.890538,1001.44183,0,0
63.56,0.04325734,7.0324426,6.9710207,1001.4469,0,0
63.6,-0.22345605,6.7940917,6.9521704,1001.44434,0,0
63.64,-0.22345605,6.7940917,6.9521704,1001.4594,0,0
63.68,-0.22345605,6.7940917,6.9521704,1001.4695,0,0
63.72,-0.22345605,6.7940917,6.9521704,1001.4671,0,0
63.76,-0.22345605,6.7940917,6.9521704,1001.4872,0,0
63.8,-0.22345605,6.7940917,6.9521704,1001.462,0,0
63.84,0.08735381,6.8846526,6.824353,1001.44183,0,0
63.88,0.07782118,6.8226869999999975,7.1462946,1001.44434,0,0
63.92,0.08262254,6.913251,6.9143105,1001.4594,0,0
63.96,-0.027291358,6.922784,7.25519,1001.462,0,0
64.0,-0.012931763999999998,6.8512850000000025,6.90958,1001.4645,0,0
64.04,0.092246845,6.8083854000000015,7.411429400000001,1001.462,0,0
64.08,0.044459626,6.7464194000000015,7.368821,1001.43677,0,0
64.12,0.19266452,6.9132479999999985,6.947462,1001.46967,0,0
64.16,0.27394277,6.9704466,6.9664009999999985,1001.45184,0,0
64.2,0.25484508,6.8703485,7.312014599999999,1001.4695,0,0
64.24,0.14971097,6.8655815,6.966405,1001.4494,0,0
64.28,0.11149274,6.8941803,7.1605177,1001.4747,0,0
64.32,0.07804899,6.8274484,6.9001265,1001.4596,0,0
64.36,0.09718971,6.8941793,6.8906603,1001.44434,0,0
64.4,0.015961378999999998,6.6796837,7.108445,1001.472,0,0
64.44,-0.05093701,6.679683,6.994820599999999,1001.4545,0,0
64.48,0.10203825,6.7940803,6.9474792,1001.4596,0,0
64.52,0.116400585,6.798846000000001,7.2457485,1001.4317,0,0
64.56,0.30761433,6.908476400000001,7.2410164,1001.4695,0,0
64.6,0.23593207,6.8322105,7.378315,1001.4545,0,0
64.64,0.26017612,6.8894009999999986,7.1416264000000025,1001.4747,0,0
64.68,0.27932316,6.870334,7.4304276,1001.4468,0,0
64.72,0.27937233,6.765469,6.9143820000000025,1001.45435,0,0
64.76,0.22682448,6.684437,7.0706205,1001.4443,0,0
64.8,0.1264721,6.7130356,7.0280130000000005,1001.462,0,0
64.84,0.41330528,6.8941636,6.8907194,1001.47723,0,0
64.88,0.14567049,6.765465700000001,6.9428005000000015,1001.4596,0,0
64.92,0.40859395,6.9799595000000005,6.9286002999999985,1001.4544,0,0
64.96,0.20787643,6.7797637,7.217402499999999,1001.4495,0,0
65.0,0.14577316,6.851261,6.961747999999999,1001.4646,0,0
65.04,0.22705124,6.8893933,6.691889,1001.4545,0,0
65.08,0.1984195,6.779761,7.3878508,1001.4594,0,0
65.12,0.22233777,6.8464923,6.914411500000001,1001.4646,0,0
65.16,0.4279036,6.908457,7.07065,1001.4416,0,0
65.2,0.38013977,6.913223,6.9854345,1001.4596,0,0
65.24,0.23678844,6.8893886,7.1037979999999985,1001.43176,0,0
65.28,0.24637158,6.9751863,6.5830154000000025,1001.4569,0,0
65.32,0.2750846,6.7797565,7.1653509999999985,1001.4467,0,0
65.36,0.12694277,6.875087,7.004384,1001.4568,0,0
65.4,0.05529283,6.8512526,6.9097004,1001.43933,0,0
65.44,0.15569009,6.822653,7.0280619999999985,1001.4519,0,0
65.48,0.19396706,6.8321853,7.312130000000002,1001.46185,0,0
65.52,0.35173267,6.956115,6.748739200000001,1001.4519,0,0
65.56,0.31830823,6.9513474,6.895509,1001.4495,0,0
65.6,0.32790208,7.0085454,6.71087,1001.46686,0,0
65.64,0.19687833,6.927561999999999,7.0989113,1001.4568,0,0
65.68,0.062985495,6.889431,7.1367807,1001.4545,0,0
65.72,0.15377401,6.918031,6.928464,1001.4391,0,0
65.76,0.27800173,6.841767999999999,6.7722244000000025,1001.46716,0,0
65.8,-0.004064977,6.689239,7.543927,1001.4568,0,0
65.84,-0.008878127,6.79887,6.7059345,1001.4747,0,0
65.88,0.05800028,6.846537,6.9805259999999985,1001.4593,0,0
65.92,-0.02329804,6.660642599999999,7.1036177,1001.4568,0,0
65.96,0.057914212,6.7607417000000005,7.1604259999999975,1001.4745,0,0
66.0,0.0005232692,6.7416754,7.084672,1001.4493,0,0
66.04,0.0100162625,6.717844500000001,7.226698,1001.4417,0,0
66.08,0.10079922,6.703546,7.2408990000000015,1001.4315,0,0
66.12,0.091186866,6.6701812999999985,7.2550974,1001.4416,0,0
66.16,0.072034344,6.7750463000000005,6.933153999999999,1001.4467,0,0
66.2,0.071984395,6.727382,7.283496,1001.4568,0,0
66.24,0.09106751,6.7416825,7.3734465,1001.4593,0,0
66.28,0.19139342,6.7845826,7.5012712,1001.4568,0,0
66.32,0.15788762,6.755985000000001,7.2408743000000015,1001.45435,0,0
66.36,0.10048835,6.6511210000000025,7.2456045,1001.45416,0,0
66.4,0.36811286,6.9514155,7.264538000000001,1001.4342,0,0
66.44,0.0048062205,6.641589999999999,7.307144,1001.45685,0,0
66.48,0.12904225,6.655891,7.1177645000000025,1001.4568,0,0
66.52,0.22458284,6.7750564,7.0751494999999975,1001.4418,0,0
66.56,0.12895341,6.6749597000000005,7.2455854,1001.4543,0,0
66.6,0.20538588,6.7369255999999975,6.724797200000001,1001.424,0,0
66.64,0.1925226,6.670158,7.1320906000000015,1001.4367,0,0
66.68,0.30247235,6.8417535,7.1036854000000025,1001.4493,0,0
66.72,0.33594614,6.784553999999999,6.994796000000001,1001.4618,0,0
66.76,0.26904416,6.9037185,6.824358,1001.4543,0,0
66.8,0.19258727,6.7893205000000005,7.245722,1001.4645,0,0
66.84,0.2977534,6.8512850000000025,7.0090027,1001.4341,0,0
66.88,0.11613704,6.7035213,7.2220526,1001.4265,0,0
66.92,0.17350803,6.73212,7.113163,1001.4418,0,0
66.96,0.25477797,6.851284,7.132101,1001.44934,0,0
67.0,0.2213384,6.951381,6.7533503,1001.4367,0,0
67.04,0.22135074,7.032412,7.1084320000000005,1001.45184,0,0
67.08,0.14966796,6.913247599999999,7.2741375,1001.4418,0,0
67.12,0.15924276,6.8226830000000005,7.2978106,1001.44434,0,0
67.16,0.12580512,6.82745,7.212592999999999,1001.44934,0,0
67.2,0.17839433,6.7845497,7.1273756,1001.45685,0,0
67.24,0.24054514,6.751183500000002,6.942734700000001,1001.4187,0,0
67.28,0.25011992,6.851281,6.829110000000001,1001.4317,0,0
67.32,0.28359377,6.889413,6.810174000000001,1001.4341,0,0
67.36,0.2931705,6.9609112999999985,6.582925,1001.4367,0,0
67.4,0.27884632,6.8989452999999985,7.0563660000000015,1001.4392,0,0
67.44,0.19282223,6.8179135,7.1889305,1001.44403,0,0
67.48,0.27887199999999995,6.8894114,7.207869500000001,1001.45166,0,0
67.52,0.3792631,6.975209,7.3072940000000015,1001.4442,0,0
67.56,0.44619662,7.0657735,6.7675724000000015,1001.43896,0,0
67.6,0.37451565,6.9370759999999985,7.136858,1001.4392,0,0
67.64,0.44639367,6.999037,7.023248700000001,1001.4643,0,0
67.68,0.4272893,6.9895034,6.933296,1001.4617,0,0
67.72,0.36039364,6.9132380000000015,6.9711742,1001.4466,0,0
67.76,0.38909262,6.9561367,6.8007364,1001.45166,0,0
67.8,0.26962316,6.8274393,7.009053,1001.4415,0,0
67.84,0.3461188,7.022867,6.6681776,1001.4466,0,0
67.88,0.43217015,6.946602,7.037462,1001.4415,0,0
67.92,0.44175804,7.065765,6.6161020000000015,1001.4313,0,0
67.96,0.41787785,7.0800649999999985,7.042201,1001.4794,0,0
68.0,0.37010545,6.975199000000001,6.7581387,1001.4593,0,0
68.04,0.30799085,6.898934,7.2457848,1001.43896,0,0
68.08,0.31279224,7.0180974,6.8244247000000025,1001.45654,0,0
68.12,0.4370833,7.060996,6.9901304,1001.4139,0,0
68.16,0.3701862,7.0133300000000025,7.0043354,1001.44135,0,0
68.2,0.4466793,7.060995,6.8954460000000015,1001.4239,0,0
68.24,0.42280716,6.989496000000001,6.6208525,1001.47687,0,0
68.28,0.42761123,6.95613,6.720278,1001.46674,0,0
68.32,0.4610914,6.956129,6.762889,1001.44916,0,0
68.36,0.42765296,6.984728,6.9522667,1001.45416,0,0
68.4,0.45157087,7.1134243,6.42675,1001.4391,0,0
68.44,0.46115744,6.941828,7.103772,1001.46185,0,0
68.48,0.4372679,7.046692,6.904928,1001.4365,0,0
68.52,0.5328909000000001,7.161088499999999,6.7392263,1001.45166,0,0
68.56,0.47555476,7.0705233,6.422023,1001.44916,0,0
68.6,0.40772545,7.0228800000000025,7.117897,1001.4518,0,0
68.64,0.19261985,6.918016400000001,7.0090046,1001.44135,0,0
68.68,0.14480634,7.022881,6.942721400000001,1001.4441,0,0
68.72,0.23082633,7.061014,6.7628125999999975,1001.45416,0,0
68.76,0.42678386,7.223077,7.1178913,1001.449,0,0
68.8,0.19733371,6.9037185,6.79595,1001.4643,0,0
68.84,0.3311568,6.9990497000000005,6.777011999999999,1001.4744,0,0
68.88,0.17340375,6.851286999999999,6.8716984,1001.43146,0,0
68.92,0.32155806,6.9942837,7.2693863,1001.46185,0,0
68.96,0.22594552,6.879887599999999,7.1036806,1001.4644,0,0
69.0,0.3549837,6.975218300000001,6.956913,1001.472,0,0
69.04,0.20201866,6.984752,6.904833999999999,1001.45435,0,0
69.08,0.254579,6.9942850000000005,6.6397047,1001.45685,0,0
69.12,0.35971916,7.008586,7.2267694,1001.4163,0,0
69.16,0.35492182,6.960921000000001,7.0515947,1001.44916,0,0
69.2,0.32144564,6.9990535000000005,6.9332333,1001.46436,0,0
69.24,0.23061295,6.9132557,6.66337,1001.4617,0,0
69.28,0.31185412,7.0324197,7.0089808000000025,1001.45416,0,0
69.32,0.22102343,6.927556,7.013714,1001.45416,0,0
69.36,0.31660306,6.999055,6.9521646,1001.4566,0,0
69.4,0.27356416,6.9561566999999975,6.843272,1001.454,0,0
69.44,0.31657517,6.9942884,6.9095526,1001.4363,0,0
69.48,0.21618174,6.889425,6.980567,1001.4491,0,0
69.52,0.41213512,7.037189,6.545001,1001.45917,0,0
69.56,0.30218112,6.937091400000001,7.146267999999999,1001.4491,0,0
69.6,0.3499627,7.046722999999999,6.597075500000001,1001.4921,0,0
69.64,0.4416374,7.0657679999999985,7.089533,1001.4441,0,0
69.68,0.4416374,7.0657679999999985,7.089533,1001.4666,0,0
69.72,0.4416374,7.0657679999999985,7.089533,1001.4491,0,0
69.76,0.4416374,7.0657679999999985,7.089533,1001.4465,0,0
69.8,0.4416374,7.0657679999999985,7.089533,1001.4441,0,0
69.84,0.29833204,6.960901700000001,6.7249919999999985,1001.4465,0,0
69.88,0.34136808,7.008567,7.056401299999999,1001.4616,0,0
69.92,0.25056624,6.9466009999999985,7.1794970000000005,1001.4794,0,0
69.96,0.30794162,6.965667,6.6445110000000005,1001.44904,0,0
70.0,0.169344,6.894168400000001,7.0753429999999975,1001.4616,0,0
70.04,0.07376234,6.8751016000000025,7.0942820000000015,1001.4488,0,0
70.08,0.33667374,7.0133314,6.8149548,1001.45154,0,0
70.12,0.3319106,7.013331,7.075349,1001.4465,0,0
70.16,0.22677265,7.0752960000000025,6.8717710000000025,1001.4314,0,0
70.2,0.24591185,6.9751973,7.0706177,1001.44147,0,0
70.24,0.3128435,7.018096000000001,7.160572,1001.46643,0,0
70.28,0.16468851,6.8989315000000015,7.0422134000000005,1001.43866,0,0
70.32,0.18860637,6.94183,6.999606,1001.4465,0,0
70.36,0.31767666,7.0514607000000025,6.6776676,1001.4541,0,0
70.4,0.34158897,7.0752935,7.013812,1001.4263,0,0
70.44,0.11695592,6.8083652999999975,7.013814,1001.4513,0,0
70.48,0.27948928,7.089592,6.843377,1001.4412,0,0
70.52,0.16001189999999998,6.970428,7.1227083,1001.4237,0,0
70.56,0.19826813,6.9656606,6.805505,1001.45154,0,0
70.6,0.11225052,6.970427000000001,6.8765220000000005,1001.41846,0,0
70.64,0.2696135,6.999035000000001,6.7912693,1001.4364,0,0
70.68,0.27917486,7.0467005,7.0043172999999985,1001.44885,0,0
70.72,0.22659941,6.965669,6.9427710000000005,1001.454,0,0
70.76,0.26006138,6.994268400000001,7.0990067,1001.44403,0,0
70.8,0.15968756,6.9609027,7.136882000000001,1001.44904,0,0
70.84,0.22660719,6.994267999999999,6.914364999999999,1001.4388,0,0
70.88,0.107115254,6.9513690000000015,6.739192,1001.4338,0,0
70.92,0.2505111,6.932303,7.0469294000000025,1001.4465,0,0
70.96,0.049761847000000005,6.8560380000000025,6.7723330000000015,1001.45874,0,0
71.0,0.21705692,7.0181007,6.9380380000000015,1001.44904,0,0
71.04,0.27441776,7.037167,6.8338814,1001.4364,0,0
71.08,0.27442086,7.1372649999999975,7.0516644,1001.4515,0,0
71.12,0.20750572,6.946602,7.0658674,1001.4388,0,0
71.16,0.2505265,7.0800657000000005,6.8764914999999975,1001.43896,0,0
71.2,0.22184987,6.970435,7.174759,1001.4438,0,0
71.24,0.14059545,6.903703,6.8528204,1001.444,0,0
71.28,0.33657002,7.094365,6.8812265,1001.44885,0,0
71.32,0.26965553,7.0085672999999975,6.9191027,1001.45636,0,0
71.36,0.4847489,7.0895987000000025,6.6776475999999985,1001.43097,0,0
71.4,0.4082744,7.0323997,6.758133,1001.44385,0,0
71.44,0.3795988,7.103897999999999,6.653976400000001,1001.42365,0,0
71.48,0.2601061,7.0133333,7.013791,1001.4412,0,0
71.52,0.23620959,7.037166,6.9333066999999975,1001.44104,0,0
71.56,0.24577175,7.0038,6.748666,1001.4716,0,0
71.6,0.293572,6.9132357,6.9049006,1001.4589,0,0
71.64,0.27972144,6.951356,6.86707,1001.4289,0,0
71.68,0.35621846,6.9799547,6.800791,1001.44867,0,0
71.72,0.43749398,7.1467839999999985,6.6682289999999975,1001.4438,0,0
71.76,0.33235990000000004,7.0133199999999984,6.9238880000000025,1001.4438,0,0
71.8,0.20811065,6.870322,7.174814,1001.44366,0,0
71.84,0.2750454,6.9894857,6.919158,1001.4209,0,0
71.88,0.322865,6.8703213000000005,7.2032240000000005,1001.45123,0,0
71.92,0.4806201,7.0562167,6.971241,1001.4314,0,0
71.96,0.33246773,6.932286,6.734522,1001.4264,0,0
72.0,0.47110093,7.084814999999999,6.791337,1001.45874,0,0
72.04,0.22735386,6.8893857,7.032792999999999,1001.44617,0,0
72.08,0.39467126,7.0514483,6.9333735,1001.42865,0,0
72.12,0.25607443,6.9132175,7.1464233,1001.4438,0,0
72.16,0.20351951,6.884618,6.8907669999999985,1001.42377,0,0
72.2,0.17486094,6.932282400000001,6.843425,1001.4511,0,0
72.24,0.17488788,6.9942470000000005,6.8244896,1001.43616,0,0
72.28,0.2227061,7.0609784,6.9665240000000015,1001.4438,0,0
72.32,0.27530146,6.946581,7.591467,1001.4363,0,0
72.36,0.3087749,6.894148,7.2505913,1001.45886,0,0
72.4,0.4330808,7.0228449999999984,6.957061,1001.4462,0,0
72.44,0.44265252,7.0085444,6.9002485,1001.4563,0,0
72.48,0.5669529999999999,7.070509,6.9333925,1001.4387,0,0
72.52,0.30885977,6.922745,7.089629,1001.45886,0,0
72.56,0.24196948,6.989476,6.654066,1001.4387,0,0
72.6,0.26589143,7.0037759999999984,6.8245068,1001.4589,0,0
72.64,0.3176155,7.0228634,6.8670387,1001.43365,0,0
72.68,0.27936518,6.9275316999999985,6.895444,1001.4438,0,0
72.72,0.3845082,7.056228999999999,7.0516777,1001.47406,0,0
72.76,0.40839446,7.070529,6.7865505000000015,1001.4413,0,0
72.8,0.4800781,7.127728,6.843362,1001.42084,0,0
72.84,0.34145266,7.0800633,6.8054857,1001.4488,0,0
72.88,0.30798215,6.9370666,6.885969,1001.4413,0,0
72.92,0.20759122,7.041931,6.9001713,1001.4337,0,0
72.96,0.20279874,6.9370675,6.772341,1001.4589,0,0
73.0,0.22668506,6.9370675,7.259983999999997,1001.4538,0,0
73.04,0.32226843,7.0371656000000025,6.8859644,1001.45886,0,0
73.08,0.35093856,7.0562320000000005,6.867026299999999,1001.4438,0,0
73.12,0.44651878,7.0323990000000025,6.706054700000001,1001.4565,0,0
73.16,0.43694967,7.094365,6.791273,1001.43866,0,0
73.2,0.2839833,6.8989363,6.8528194,1001.43866,0,0
73.24,0.27441020000000005,7.008568,7.094272599999999,1001.4488,0,0
73.28,0.22659944,7.2039967,6.540346,1001.42084,0,0
73.32,0.17400973,6.994269,7.0705985999999985,1001.4335,0,0
73.36,0.021041721,6.760708,6.956972,1001.44635,0,0
73.4,0.36039746,7.0419350000000005,6.5924215,1001.46387,0,0
73.44,0.40818202,7.0991339999999985,6.653967999999999,1001.45386,0,0
73.48,0.25521642,6.908472,6.9569683000000015,1001.45624,0,0
73.52,0.41771472,7.1753993000000005,6.8386070000000005,1001.43854,0,0
73.56,0.21217044,6.994271,7.0800600000000005,1001.4234,0,0
73.6,0.21340768,7.0657380000000005,6.9239380000000015,1001.4311,0,0
73.64,0.20866112,6.9275074000000005,6.8765974000000005,1001.45123,0,0
73.68,0.18479784,6.9513397,6.9854918,1001.4335,0,0
73.72,0.08925171,6.803575,7.061247,1001.45624,0,0
73.76,0.12751628,6.917972,7.080187,1001.43616,0,0
73.8,0.29007483,7.0180683,6.781923299999999,1001.4311,0,0
73.84,0.34747046,7.0895660000000005,6.7819270000000005,1001.44116,0,0
73.88,0.18498333,6.970401299999999,7.05179,1001.4487,0,0
73.92,0.07508825,6.884602,7.0233880000000015,1001.4487,0,0
73.96,0.19940121,7.037131,6.8576869999999985,1001.42346,0,0
74.0,0.17554738,6.9799314,7.1370210000000025,1001.4487,0,0
74.04,0.1994773,7.013296,6.938178999999999,1001.47144,0,0
74.08,0.20907019,6.9513307,6.758274,1001.45886,0,0
74.12,0.18521161,7.018061,6.867169400000001,1001.4335,0,0
74.16,0.15179102,6.8702974,7.028142999999999,1001.42596,0,0
74.2,0.16617326,6.941794,7.1796474,1001.44366,0,0
74.24,0.2092248,6.970393,6.971337299999999,1001.45605,0,0
74.28,0.13278358,6.9846916,6.919262,1001.4282,0,0
74.32,0.17106722,6.922725,6.9192657,1001.44855,0,0
74.36,0.085061654,6.851226,7.2932872999999985,1001.45636,0,0
74.4,0.24283083,6.984688799999999,6.9476786,1001.42584,0,0
74.44,0.3002265,7.0371203,6.8245869999999975,1001.451,0,0
74.48,0.22856514,6.9370213000000005,6.919279,1001.4208,0,0
74.52,0.09476869,6.898888,7.0660485999999985,1001.4409,0,0
74.56,0.13304518,6.8655214,6.933489,1001.4334,0,0
74.6,0.20956008,6.8416877000000005,7.1418056,1001.44604,0,0
74.64,0.27541602,7.022842999999999,6.9144573000000005,1001.46106,0,0
74.68,0.30408853,7.022843400000001,6.9049883,1001.4536,0,0
74.72,0.2371671,7.0133100000000015,6.829236999999999,1001.4563,0,0
74.76,0.0937676,6.960878,7.0138789999999975,1001.4663,0,0
74.8,0.050744012000000005,6.9942436,6.9475965,1001.41833,0,0
74.84,0.084197834,7.113408,7.1890507,1001.44366,0,0
74.88,0.14633052,7.022844,6.8008289999999985,1001.4359,0,0
74.92,0.29927886,6.9751782,7.3736916,1001.4788,0,0
74.96,0.38530993,7.051442999999999,6.7250776,1001.4208,0,0
75.0,0.43788302,7.1277075,6.2847776,1001.43085,0,0
75.04,0.25146657,7.003778,6.748749,1001.4435,0,0
75.08,0.27058107,6.9465795,6.8244979999999975,1001.4385,0,0
75.12,0.4856661,6.999011500000001,7.0943594,1001.42584,0,0
75.16,0.46654153,6.984711999999999,6.706137700000001,1001.4588,0,0
75.2,0.42351854,7.0705100000000005,6.369994,1001.4687,0,0
75.24,0.4139542000000001,7.1753740000000015,6.360525,1001.47394,0,0
75.28,0.34225214,6.975179700000001,7.1085606,1001.44855,0,0
75.32,0.4187249,7.0180783,7.1227636,1001.44855,0,0
75.36,0.3757015,7.032378,7.108559599999999,1001.4586,0,0
75.4,0.51908994,7.2039740000000005,6.549899,1001.45874,0,0
75.44,0.36613113,7.0180783,6.876573599999999,1001.44104,0,0
75.48,0.30876964,7.0371447,6.9002447,1001.451,0,0
75.52,0.28486466,7.027612,6.715603,1001.4611,0,0
75.56,0.2514019,7.0657444000000025,6.999666,1001.45874,0,0
75.6,0.2370571,7.0562115000000025,6.9475880000000005,1001.4839,0,0
75.64,0.33794904,6.9894669999999985,7.0944014000000015,1001.436,0,0
75.68,0.2997259,7.046664999999999,6.6730404000000005,1001.45374,0,0
75.72,0.40011603,7.0895642999999975,6.843481,1001.4435,0,0
75.76,0.2519573,6.927500200000001,6.6162300000000025,1001.44855,0,0
75.8,0.23763315,7.0609645999999975,6.682513,1001.4355,0,0
75.84,0.16595034,7.0085320000000015,6.852953,1001.4688,0,0
75.88,0.19942419,7.0037645999999985,6.976049400000001,1001.4459,0,0
75.92,0.23289807,7.0323634,6.9571133000000005,1001.48395,0,0
75.96,0.23769398,7.0990949999999975,6.668316,1001.44867,0,0
76.0,0.19946985,7.0990944,6.900303,1001.4561,0,0
76.04,0.08954863,6.8845990000000015,7.0754776,1001.45105,0,0
76.08,0.022645637000000003,6.860766,7.170167,1001.456,0,0
76.12,0.18995498,7.0371289999999975,6.980792,1001.4535,0,0
76.16,0.19952883,7.046661,6.786682000000001,1001.4738,0,0
76.2,0.03224808,7.018061,6.800887,1001.4485,0,0
76.24,-0.12546739,6.898896700000001,6.8908424,1001.436,0,0
76.28,-0.015516669,6.932262400000001,7.274331,1001.4536,0,0
76.32,-0.05374086,6.841697999999999,6.85297,1001.4331,0,0
76.36,0.080106065,7.0371265,6.5878440000000005,1001.42334,0,0
76.4,0.10880293,6.784497999999999,7.255397,1001.4738,0,0
76.44,0.30956608,6.7463655,7.1749134,1001.46606,0,0
76.48,0.481659,7.2039547000000015,6.7109429999999985,1001.44086,0,0
76.52,0.29525995,7.0180583,6.70621,1001.4433,0,0
76.56,0.65376145,7.1324553,7.108636,1001.4663,0,0
76.6,0.8067255999999999,7.3088174,6.9997454,1001.4485,0,0
76.64,0.7438573,7.127706,6.630395,1001.4511,0,0
76.68,0.43793595,7.184906,6.3463297,1001.44604,0,0
76.72,0.12723477,7.065742,6.644596000000001,1001.46606,0,0
76.76,0.5382839,6.5747867,6.734547599999999,1001.46606,0,0
76.8,0.093749955,6.5080550000000015,7.9086789999999985,1001.43854,0,0
76.84,0.9063009,7.2564054,6.8718433,1001.42334,0,0
76.88,0.20843826,6.908447,6.9428587,1001.4636,0,0
76.92,0.42829347,7.018078,6.8481684000000005,1001.4611,0,0
76.96,0.20362966,7.0752773,7.0612164,1001.42566,0,0
77.0,0.060220733,6.8560157,6.8197603,1001.4511,0,0
77.04,0.11278547,7.037145,6.9523220000000014,1001.4434,0,0
77.08,0.26572877,6.9942465,6.7818823,1001.42566,0,0
77.12,0.25615257,7.0228467000000006,7.099086,1001.4613,0,0
77.16,0.2848183,6.8417172000000015,6.246892,1001.4965,0,0
77.2,0.11273141,6.808352,7.1701,1001.51404,0,0
77.24,0.21787228,6.951349,7.1653642999999985,1001.43585,0,0
