Timestamp,Ax,Ay,Az,P,Value,Type
0.0,0.61506414,6.327622,6.7840289999999985,1000.4535,0,0
0.04,1.6284025,6.913908,6.7130156,1000.5549,0,0
0.08,1.1743543,6.5802483999999986,7.678837,1000.54724,0,0
0.12,0.9114902,6.437251,7.219601600000002,1000.5119,0,0
0.16,0.9879919,6.575481,7.101244,1000.48645,0,0
0.2,1.0071394,6.813808,7.8776884,1000.46643,0,0
0.24,0.4383695,6.5087476,6.7367,1000.4611,0,0
0.28,0.44795084,6.766141,6.27273,1000.4714,0,0
0.32,0.35716444,6.704175,7.1201916,1000.494,0,0
0.36,0.3237325,6.6612754,7.4752740000000015,1000.512,0,0
0.4,0.15646599,6.5802429999999985,6.9071484,1000.4741,0,0
0.44,0.19951092,6.575475999999999,7.1817455,1000.45374,0,0
0.48,0.13261859,6.618375,7.011309599999999,1000.47144,0,0
0.52,0.0848472,6.527809,7.4468774999999985,1000.46906,0,0
0.56,0.123112276,6.675572,7.4516144,1000.49695,0,0
0.6,0.11357935,6.608839,6.8503475000000025,1000.48175,0,0
0.64,0.14228149,6.418176,7.0207880000000005,1000.49176,0,0
0.68,0.21400015,6.322845,7.191228,1000.47675,0,0
0.72,0.08019896,6.1846137,7.451624000000002,1000.4817,0,0
0.76,-0.18267031,6.365742,7.2622490000000015,1000.47925,0,0
0.8,-0.1922049,6.523038400000001,7.030264999999999,1000.46924,0,0
0.84,-0.22085707,6.589769,7.53685,1000.5224,0,0
0.88,-0.42157555,6.513504,7.607867999999999,1000.5098,0,0
0.92,-0.33560872,6.5659375,7.631534599999997,1000.47675,0,0
0.96,-0.039240897,6.642201400000001,7.754631,1000.49725,0,0
1.0,-0.09179447,6.5754695000000005,7.0444727,1000.49695,0,0
1.04,0.008599937,6.4706044,7.233850500000001,1000.4795,0,0
1.08,0.04686694,6.422939,7.2811966,1000.4843,0,0
1.12,-0.19688025,6.289474,6.8030243000000015,1000.4745,0,0
1.16,-0.14428097,6.408638,7.006605,1000.50714,0,0
1.2,-0.27331144,6.546867400000001,7.262264999999997,1000.52264,0,0
1.24,-0.18247378,6.461069,7.461113,1000.52264,0,0
1.28,-0.16811293,6.332371,7.7877884,1000.50494,0,0
1.32,-0.1489709,6.2608724,7.958228999999997,1000.51245,0,0
1.36,-0.096373074,6.465834,7.6741657,1000.5023,0,0
1.4,-0.09156901,6.484899,7.210196499999999,1000.4998,0,0
1.44,-0.11066393,6.4419994,7.399575,1000.49994,0,0
1.48,-0.20146453,6.5325637,7.385374,1000.50244,0,0
1.52,-0.043706745,6.4896645999999985,7.4421883,1000.5278,0,0
1.56,-0.20141459,6.3990993,7.423253,1000.5073,0,0
1.6,0.12363489,6.570695,7.001892999999999,1000.4769,0,0
1.64,0.35308838,6.6946244,7.129724499999999,1000.49,0,0
1.68,0.32442665,6.594526299999999,7.3475084000000015,1000.5052,0,0
1.72,0.33401190000000003,6.6326585000000025,7.233886,1000.5001,0,0
1.76,0.32447659999999995,6.632658,6.821994,1000.48486,0,0
1.8,0.29104078,6.661257000000001,6.864606,1000.49,0,0
1.84,0.5204942,6.8900504,7.0208435,1000.5102,0,0
1.88,0.54919446,7.056879,7.096596000000001,1000.5051,0,0
1.92,0.4010117,6.8519177,7.2386274,1000.5126,0,0
1.96,0.33411604,6.7232203,7.409067999999999,1000.50757,0,0
2.0,0.41538888,6.8471503,7.276505499999999,1000.4925,0,0
2.04,0.24812274,6.747052,7.603183,1000.48486,0,0
2.08,0.27204198,6.599288499999999,4.6725874,1000.4875,0,0
2.12,0.20036109,6.403859,7.6031857,1000.51013,0,0
2.16,0.15736978,6.3180604,7.328592299999999,1000.51276,0,0
2.2,0.6592694,6.8328479999999985,7.432751700000002,1000.4699,0,0
2.24,-0.12459688,6.656485000000001,7.224439599999997,1000.4597,0,0
2.28,0.3295061,6.9138784,7.31913,1000.452,0,0
2.32,0.27217007,6.8757452999999975,7.574789,1000.46466,0,0
2.36,0.21005411,6.932944,6.760474,1000.4597,0,0
2.4,0.45862544,6.7851796,7.0918837,1000.5076,0,0
2.44,0.32480985,6.761347,6.8078213000000005,1000.51776,0,0
2.48,0.30571353,6.7804117,7.0871534,1000.4953,0,0
2.52,0.49214613,7.0235065999999975,7.020874000000001,1000.4698,0,0
2.56,0.31053513,6.8328440000000015,6.779421000000001,1000.4902,0,0
2.6,0.43961132,6.8662085999999976,7.07769,1000.5255,0,0
2.64,0.3679359,6.928172999999999,7.0019417,1000.5003,0,0
2.68,0.37273586,6.9806046,6.741551400000001,1000.4929,0,0
2.72,0.26282334,7.037803,6.8409758,1000.4599,0,0
2.76,0.28674257,6.8471403,6.9498690000000005,1000.4727,0,0
2.8,0.3728006,7.0807014000000015,7.0729666,1000.4929,0,0
2.84,0.31068337,6.8471394,7.0256233,1000.5107,0,0
2.88,0.32504565,6.818539,6.8646563999999985,1000.4802,0,0
2.92,0.37299025,6.880501299999999,7.1629369999999986,1000.5132,0,0
2.96,0.24874036,6.785169000000002,6.8409996,1000.48285,0,0
3.0,0.3013398,6.870967,7.0161743,1000.48785,0,0
3.04,0.3587308,6.8137674,6.8930836,1000.5006,0,0
3.08,0.41610843,6.813767,7.172414999999999,1000.4929,0,0
3.12,0.32532543,6.8518979999999985,7.030385000000001,1000.4931,0,0
3.16,0.3874879000000001,6.7804,7.2008266,1000.49304,0,0
3.2,0.28713697,6.8185315000000015,7.371267299999999,1000.49304,0,0
3.24,0.2823838,6.6803,7.148753,1000.4956,0,0
3.28,0.21549316,6.7708645,7.148755,1000.4677,0,0
3.32,0.21073999,6.6231008000000005,7.139289,1000.4702,0,0
3.36,0.5453513000000001,6.899560000000001,6.6327095,1000.47284,0,0
3.4,0.1725549,6.627866,7.447030000000002,1000.5006,0,0
3.44,0.12955995,6.6421647,6.7463408,1000.4981,0,0
3.48,0.15348227,6.7470284,6.594842,1000.4981,0,0
3.52,0.1965305,6.551599,7.305005,1000.5082,0,0
3.56,0.30171279999999995,6.7660933000000005,7.570133999999999,1000.5059,0,0
3.6,0.21092148,6.584964,7.2245244999999985,1000.49066,0,0
3.64,0.26830745,6.5897293,7.664826400000001,1000.4931,0,0
3.68,0.230094,6.632628,7.0446224000000015,1000.4932,0,0
3.72,0.26835907,6.5944949999999976,7.2908144,1000.5133,0,0
3.76,0.12499155,6.4991627,7.413911,1000.4856,0,0
3.8,-0.05661434,6.4419637000000005,6.0788116,1000.4856,0,0
3.84,0.3927139,6.532528,7.6127604999999985,1000.5286,0,0
3.88,-0.18561575,6.175035,7.115651,1000.48816,0,0
3.92,0.09129007,6.627866,7.0446053,1000.47797,0,0
3.96,0.8656309999999999,7.071155,7.432828,1000.48816,0,0
4.0,0.32552588,6.665997999999999,7.3523436,1000.47797,0,0
4.04,0.29685968,6.575433,7.447033,1000.50073,0,0
4.08,0.21561415,6.5801992,7.598534599999999,1000.516,0,0
4.12,0.62669,6.6898300000000015,7.3760185,1000.48584,0,0
4.16,0.44507092,6.6755295,7.366551400000001,1000.48303,0,0
4.2,0.09615712,6.5087,7.2197857,1000.463,0,0
4.24,0.2825821,6.742261,7.1440363,1000.46533,0,0
4.28,0.18221892,6.642163,6.850505,1000.50336,0,0
4.32,0.33040553,6.3895354000000015,6.9878035,1000.4806,0,0
4.36,0.2730598,6.2274723,7.1109,1000.48816,0,0
4.4,0.21571244,6.4562664000000005,7.555934,1000.48303,0,0
4.44,0.2730844,6.580197,7.309746700000002,1000.49316,0,0
4.48,0.04366727,6.5039315,6.741619,1000.4527,0,0
4.52,-0.047139496,6.4657984000000015,7.158247,1000.47046,0,0
4.56,0.19186573,6.522997,7.342890700000001,1000.47546,0,0
4.6,0.27791095,6.584961999999999,7.3618298,1000.47546,0,0
4.64,0.12497388,6.4991636,7.44705,1000.5188,0,0
4.68,0.06284909,6.475331,7.5559425,1000.5311,0,0
4.72,0.07720039999999999,6.413365,7.5606775,1000.50073,0,0
4.76,0.16324638,6.494396,7.7358522,1000.48816,0,0
4.8,0.13936244,6.4467300000000005,7.4470550000000015,1000.49066,0,0
4.84,0.19673274,6.4419629999999986,7.593822500000001,1000.48816,0,0
4.88,0.20152603,6.489629,7.314493,1000.49316,0,0
4.92,0.29694384,6.4658003,7.371289999999999,1000.48303,0,0
4.96,0.20135318,6.437201,7.4044313,1000.5108,0,0
5.0,0.12966089,6.4515,7.390228299999999,1000.5134,0,0
5.04,-0.056746393,6.2846704,7.513324000000001,1000.4981,0,0
5.08,-0.10454094,6.2560715999999985,7.641153299999999,1000.4881,0,0
5.12,-0.12365381,6.203639,7.6316853,1000.4931,0,0
5.16,-0.032834366000000004,6.337102400000001,7.5133247,1000.4931,0,0
5.2,-0.028047904,6.2465377,7.579607000000001,1000.48553,0,0
5.24,0.04365267,6.2942033,7.792655,1000.50073,0,0
5.28,0.034100026,6.327569,7.4896544999999985,1000.498,0,0
5.32,0.21095686,6.4324327000000014,7.560671000000001,1000.47546,0,0
5.36,0.07234861,6.2656035,7.636422,1000.50323,0,0
5.4,0.18228848,6.294203,7.7169075,1000.4753,0,0
5.44,0.14883529,6.2465367,7.584345,1000.5083,0,0
5.48,0.18707879,6.279903,7.570142,1000.4956,0,0
5.52,0.20142297,6.3752337,7.7216434,1000.4981,0,0
5.56,0.03413488,6.332335,7.574877000000001,1000.4981,0,0
5.6,0.25879073,6.441965,7.5275335,1000.5032,0,0
5.64,0.27313334,6.3657002,7.4659863,1000.5235,0,0
5.68,0.19188271,6.175038,7.428111,1000.5007,0,0
5.72,0.26358390000000004,6.2036370000000005,7.437581,1000.48035,0,0
5.76,0.2014531,6.265602,7.5464725,1000.4879,0,0
5.8,0.15365984,6.2894344,7.5606756,1000.5057,0,0
5.84,0.3018391,6.356167,7.475457,1000.4803,0,0
5.88,0.27794325,6.303734,7.357097599999999,1000.48804,0,0
5.92,0.14379881,6.3228083,7.579586999999999,1000.5057,0,0
5.96,0.24416701,6.2656097,7.768961999999997,1000.51575,0,0
6.0,0.1820225,6.2560763,7.560647,1000.4777,0,0
6.04,0.61506414,6.327622,6.7840289999999985,1000.4535,0,0
6.08,1.6284025,6.913908,6.7130156,1000.5549,0,0
6.12,1.1743543,6.5802483999999986,7.678837,1000.54724,0,0
6.16,0.9114902,6.437251,7.219601600000002,1000.5119,0,0
6.2,0.9879919,6.575481,7.101244,1000.48645,0,0
6.24,1.0071394,6.813808,7.8776884,1000.46643,0,0
6.28,0.4383695,6.5087476,6.7367,1000.4611,0,0
6.32,0.44795084,6.766141,6.27273,1000.4714,0,0
6.36,0.35716444,6.704175,7.1201916,1000.494,0,0
6.4,0.3237325,6.6612754,7.4752740000000015,1000.512,0,0
6.44,0.15646599,6.5802429999999985,6.9071484,1000.4741,0,0
6.48,0.19951092,6.575475999999999,7.1817455,1000.45374,0,0
6.52,0.13261859,6.618375,7.011309599999999,1000.47144,0,0
6.56,0.0848472,6.527809,7.4468774999999985,1000.46906,0,0
6.6,0.123112276,6.675572,7.4516144,1000.49695,0,0
6.64,0.11357935,6.608839,6.8503475000000025,1000.48175,0,0
6.68,0.14228149,6.418176,7.0207880000000005,1000.49176,0,0
6.72,0.21400015,6.322845,7.191228,1000.47675,0,0
6.76,0.08019896,6.1846137,7.451624000000002,1000.4817,0,0
6.8,-0.18267031,6.365742,7.2622490000000015,1000.47925,0,0
6.84,-0.1922049,6.523038400000001,7.030264999999999,1000.46924,0,0
6.88,-0.22085707,6.589769,7.53685,1000.5224,0,0
6.92,-0.42157555,6.513504,7.607867999999999,1000.5098,0,0
6.96,-0.33560872,6.5659375,7.631534599999997,1000.47675,0,0
7.0,-0.039240897,6.642201400000001,7.754631,1000.49725,0,0
7.04,-0.09179447,6.5754695000000005,7.0444727,1000.49695,0,0
7.08,0.008599937,6.4706044,7.233850500000001,1000.4795,0,0
7.12,0.04686694,6.422939,7.2811966,1000.4843,0,0
7.16,-0.19688025,6.289474,6.8030243000000015,1000.4745,0,0
7.2,-0.14428097,6.408638,7.006605,1000.50714,0,0
7.24,-0.27331144,6.546867400000001,7.262264999999997,1000.52264,0,0
7.28,-0.18247378,6.461069,7.461113,1000.52264,0,0
7.32,-0.16811293,6.332371,7.7877884,1000.50494,0,0
7.36,-0.1489709,6.2608724,7.958228999999997,1000.51245,0,0
7.4,-0.096373074,6.465834,7.6741657,1000.5023,0,0
7.44,-0.09156901,6.484899,7.210196499999999,1000.4998,0,0
7.48,-0.11066393,6.4419994,7.399575,1000.49994,0,0
7.52,-0.20146453,6.5325637,7.385374,1000.50244,0,0
7.56,-0.043706745,6.4896645999999985,7.4421883,1000.5278,0,0
7.6,-0.20141459,6.3990993,7.423253,1000.5073,0,0
7.64,0.12363489,6.570695,7.001892999999999,1000.4769,0,0
7.68,0.35308838,6.6946244,7.129724499999999,1000.49,0,0
7.72,0.32442665,6.594526299999999,7.3475084000000015,1000.5052,0,0
7.76,0.33401190000000003,6.6326585000000025,7.233886,1000.5001,0,0
7.8,0.32447659999999995,6.632658,6.821994,1000.48486,0,0
7.84,0.29104078,6.661257000000001,6.864606,1000.49,0,0
7.88,0.5204942,6.8900504,7.0208435,1000.5102,0,0
7.92,0.54919446,7.056879,7.096596000000001,1000.5051,0,0
7.96,0.4010117,6.8519177,7.2386274,1000.5126,0,0
8.0,0.33411604,6.7232203,7.409067999999999,1000.50757,0,0
8.04,0.41538888,6.8471503,7.276505499999999,1000.4925,0,0
8.08,0.24812274,6.747052,7.603183,1000.48486,0,0
8.12,0.27204198,6.599288499999999,4.6725874,1000.4875,0,0
8.16,0.20036109,6.403859,7.6031857,1000.51013,0,0
8.2,0.15736978,6.3180604,7.328592299999999,1000.51276,0,0
8.24,0.6592694,6.8328479999999985,7.432751700000002,1000.4699,0,0
8.28,-0.12459688,6.656485000000001,7.224439599999997,1000.4597,0,0
8.32,0.3295061,6.9138784,7.31913,1000.452,0,0
8.36,0.27217007,6.8757452999999975,7.574789,1000.46466,0,0
8.4,0.21005411,6.932944,6.760474,1000.4597,0,0
8.44,0.45862544,6.7851796,7.0918837,1000.5076,0,0
8.48,0.32480985,6.761347,6.8078213000000005,1000.51776,0,0
8.52,0.30571353,6.7804117,7.0871534,1000.4953,0,0
8.56,0.49214613,7.0235065999999975,7.020874000000001,1000.4698,0,0
8.6,0.31053513,6.8328440000000015,6.779421000000001,1000.4902,0,0
8.64,0.43961132,6.8662085999999976,7.07769,1000.5255,0,0
8.68,0.3679359,6.928172999999999,7.0019417,1000.5003,0,0
8.72,0.37273586,6.9806046,6.741551400000001,1000.4929,0,0
8.76,0.26282334,7.037803,6.8409758,1000.4599,0,0
8.8,0.28674257,6.8471403,6.9498690000000005,1000.4727,0,0
8.84,0.3728006,7.0807014000000015,7.0729666,1000.4929,0,0
8.88,0.31068337,6.8471394,7.0256233,1000.5107,0,0
8.92,0.32504565,6.818539,6.8646563999999985,1000.4802,0,0
8.96,0.37299025,6.880501299999999,7.1629369999999986,1000.5132,0,0
9.0,0.24874036,6.785169000000002,6.8409996,1000.48285,0,0
9.04,0.3013398,6.870967,7.0161743,1000.48785,0,0
9.08,0.3587308,6.8137674,6.8930836,1000.5006,0,0
9.12,0.41610843,6.813767,7.172414999999999,1000.4929,0,0
9.16,0.32532543,6.8518979999999985,7.030385000000001,1000.4931,0,0
9.2,0.3874879000000001,6.7804,7.2008266,1000.49304,0,0
9.24,0.28713697,6.8185315000000015,7.371267299999999,1000.49304,0,0
9.28,0.2823838,6.6803,7.148753,1000.4956,0,0
9.32,0.21549316,6.7708645,7.148755,1000.4677,0,0
9.36,0.21073999,6.6231008000000005,7.139289,1000.4702,0,0
9.4,0.5453513000000001,6.899560000000001,6.6327095,1000.47284,0,0
9.44,0.1725549,6.627866,7.447030000000002,1000.5006,0,0
9.48,0.12955995,6.6421647,6.7463408,1000.4981,0,0
9.52,0.15348227,6.7470284,6.594842,1000.4981,0,0
9.56,0.1965305,6.551599,7.305005,1000.5082,0,0
9.6,0.30171279999999995,6.7660933000000005,7.570133999999999,1000.5059,0,0
9.64,0.21092148,6.584964,7.2245244999999985,1000.49066,0,0
9.68,0.26830745,6.5897293,7.664826400000001,1000.4931,0,0
9.72,0.230094,6.632628,7.0446224000000015,1000.4932,0,0
9.76,0.26835907,6.5944949999999976,7.2908144,1000.5133,0,0
9.8,0.12499155,6.4991627,7.413911,1000.4856,0,0
9.84,-0.05661434,6.4419637000000005,6.0788116,1000.4856,0,0
9.88,0.3927139,6.532528,7.6127604999999985,1000.5286,0,0
9.92,-0.18561575,6.175035,7.115651,1000.48816,0,0
9.96,0.09129007,6.627866,7.0446053,1000.47797,0,0
10.0,0.8656309999999999,7.071155,7.432828,1000.48816,0,0
10.04,0.32552588,6.665997999999999,7.3523436,1000.47797,0,0
10.08,0.29685968,6.575433,7.447033,1000.50073,0,0
10.12,0.21561415,6.5801992,7.598534599999999,1000.516,0,0
10.16,0.62669,6.6898300000000015,7.3760185,1000.48584,0,0
10.2,0.44507092,6.6755295,7.366551400000001,1000.48303,0,0
10.24,0.09615712,6.5087,7.2197857,1000.463,0,0
10.28,0.2825821,6.742261,7.1440363,1000.46533,0,0
10.32,0.18221892,6.642163,6.850505,1000.50336,0,0
10.36,0.33040553,6.3895354000000015,6.9878035,1000.4806,0,0
10.4,0.2730598,6.2274723,7.1109,1000.48816,0,0
10.44,0.21571244,6.4562664000000005,7.555934,1000.48303,0,0
10.48,0.2730844,6.580197,7.309746700000002,1000.49316,0,0
10.52,0.04366727,6.5039315,6.741619,1000.4527,0,0
10.56,-0.047139496,6.4657984000000015,7.158247,1000.47046,0,0
10.6,0.19186573,6.522997,7.342890700000001,1000.47546,0,0
10.64,0.27791095,6.584961999999999,7.3618298,1000.47546,0,0
10.68,0.12497388,6.4991636,7.44705,1000.5188,0,0
10.72,0.06284909,6.475331,7.5559425,1000.5311,0,0
10.76,0.07720039999999999,6.413365,7.5606775,1000.50073,0,0
10.8,0.16324638,6.494396,7.7358522,1000.48816,0,0
10.84,0.13936244,6.4467300000000005,7.4470550000000015,1000.49066,0,0
10.88,0.19673274,6.4419629999999986,7.593822500000001,1000.48816,0,0
10.92,0.20152603,6.489629,7.314493,1000.49316,0,0
10.96,0.29694384,6.4658003,7.371289999999999,1000.48303,0,0
11.0,0.20135318,6.437201,7.4044313,1000.5108,0,0
11.04,0.12966089,6.4515,7.390228299999999,1000.5134,0,0
11.08,-0.056746393,6.2846704,7.513324000000001,1000.4981,0,0
11.12,-0.10454094,6.2560715999999985,7.641153299999999,1000.4881,0,0
11.16,-0.12365381,6.203639,7.6316853,1000.4931,0,0
11.2,-0.032834366000000004,6.337102400000001,7.5133247,1000.4931,0,0
11.24,-0.028047904,6.2465377,7.579607000000001,1000.48553,0,0
11.28,0.04365267,6.2942033,7.792655,1000.50073,0,0
11.32,0.034100026,6.327569,7.4896544999999985,1000.498,0,0
11.36,0.21095686,6.4324327000000014,7.560671000000001,1000.47546,0,0
11.4,0.07234861,6.2656035,7.636422,1000.50323,0,0
11.44,0.18228848,6.294203,7.7169075,1000.4753,0,0
11.48,0.14883529,6.2465367,7.584345,1000.5083,0,0
11.52,0.18707879,6.279903,7.570142,1000.4956,0,0
11.56,0.20142297,6.3752337,7.7216434,1000.4981,0,0
11.6,0.03413488,6.332335,7.574877000000001,1000.4981,0,0
11.64,0.25879073,6.441965,7.5275335,1000.5032,0,0
11.68,0.27313334,6.3657002,7.4659863,1000.5235,0,0
11.72,0.19188271,6.175038,7.428111,1000.5007,0,0
11.76,0.26358390000000004,6.2036370000000005,7.437581,1000.48035,0,0
11.8,0.2014531,6.265602,7.5464725,1000.4879,0,0
11.84,0.15365984,6.2894344,7.5606756,1000.5057,0,0
11.88,0.3018391,6.356167,7.475457,1000.4803,0,0
11.92,0.27794325,6.303734,7.357097599999999,1000.48804,0,0
11.96,0.14379881,6.3228083,7.579586999999999,1000.5057,0,0
12.0,0.24416701,6.2656097,7.768961999999997,1000.51575,0,0
12.04,0.1820225,6.2560763,7.560647,1000.4777,0,0
12.08,0.2345932000000001,6.3085093,7.57485,1000.4753,0,0
12.12,0.07685156,6.108314,7.773694,1000.4929,0,0
12.16,0.25369810000000004,6.3323426,7.290785,1000.5057,0,0
12.2,0.11507623,6.3657084,7.5417070000000015,1000.5005,0,0
12.24,0.16286759,6.260843799999999,7.617457400000001,1000.498,0,0
12.28,0.2536744,6.2846769999999985,7.70741,1000.5006,0,0
12.32,0.25844944,6.2894435,7.451751700000001,1000.5006,0,0
12.36,0.2775601,6.308510299999999,7.4375477,1000.49304,0,0
12.4,0.11981939,6.303744,7.6079855,1000.5004,0,0
12.44,0.22018863,6.375242,7.617453599999997,1000.5031,0,0
12.48,0.09112345,6.21318,7.5559053,1000.5031,0,0
12.52,0.043319717,6.170281,7.7500152999999985,1000.49554,0,0
12.56,0.038532287,6.108316,7.660061,1000.4727,0,0
12.6,0.014624238,6.19888,7.707405,1000.4826,0,0
12.64,0.10543527,6.175048,7.655326,1000.4827,0,0
12.68,0.20102473,6.360944,7.3901978,1000.5056,0,0
12.72,0.20579599,6.298979,7.906248,1000.49536,0,0
12.76,0.20100851,6.232247,7.873106,1000.4828,0,0
12.8,0.31571668,6.389544,7.4328059999999985,1000.49536,0,0
12.84,0.13885589,6.2751465,7.5748367,1000.5157,0,0
12.88,0.114950225,6.2513137,7.3570538,1000.4852,0,0
12.92,0.17229979,6.2370142999999985,7.375991,1000.4854,0,0
12.96,0.26863974,6.3609266,7.4091997,1000.4878,0,0
13.0,0.32124037,6.4419575,7.4281397,1000.4928,0,0
13.04,0.25434738,6.31326,7.4518137000000015,1000.4776,0,0
13.08,0.18745013,6.303726,7.6127853,1000.52325,0,0
13.12,0.16357394,6.2655935,7.4044732999999985,1000.48535,0,0
13.16,0.15403716,6.2465267,7.811635000000001,1000.4878,0,0
13.2,0.2400936,6.308491,7.4849625,1000.4979,0,0
13.24,0.30703372,6.484853,7.442353999999999,1000.47253,0,0
13.28,0.15887691,6.2560587,7.5370445,1000.48785,0,0
13.32,0.27839774,6.3752213,7.627000000000002,1000.4753,0,0
13.36,0.20194797,6.3323220000000005,7.295595,1000.4803,0,0
13.4,0.23543085,6.465785,7.399753599999999,1000.4878,0,0
13.44,0.16375520000000002,6.3275537,7.560725,1000.51324,0,0
13.48,0.19724093,6.351386,7.641213400000002,1000.5082,0,0
13.52,0.053863958,6.2608213,7.537058,1000.5004,0,0
13.56,0.14948146,6.356152,7.811655,1000.4956,0,0
13.6,0.21642293,6.332319,7.5323277000000015,1000.4904,0,0
13.64,0.2929198,6.370451,7.3334845999999985,1000.4804,0,0
13.68,0.33595943,6.3037176,7.380831,1000.4903,0,0
13.72,0.37900048,6.394282,7.3050814,1000.4904,0,0
13.76,0.52241606,6.3799815,6.8979254,1000.4728,0,0
13.8,0.5845863,6.3466153,7.71698,1000.4878,0,0
13.84,0.5320256,6.3942804,7.466058,1000.4854,1,1
13.88,0.6228633000000001,6.4705443,7.058901,1000.4929,1,1
13.92,0.9144541,6.64214,6.992621400000001,1000.4928,1,1
13.96,0.93837166,6.4896097,7.2814217,1000.5107,1,1
14.0,1.0191,6.8661813999999985,6.841074000000001,1000.49817,1,1
14.04,0.8996061,6.8471145999999985,7.073060000000001,1000.5133,1,1
14.08,0.26389337,6.551588,6.860011,1000.48035,1,1
14.12,-0.09459073,6.394292,7.0635910000000015,1000.5007,1,1
14.16,-0.5343311,6.804216,7.110936,1000.4879,1,1
14.2,-0.73508203,7.0854425,7.0067787,1000.4703,1,1
14.24,-1.4855094,7.1617070000000025,6.192461,1000.46,1,1
14.28,-1.8009756999999995,6.8232813,6.1261797,1000.4931,1,1
14.32,-1.0505452,7.056842999999999,7.532298,1000.4929,1,1
14.36,-1.4568274,6.5277553,8.067285,1000.5185,1,1
14.4,-1.4329271,6.665985000000001,6.826872,1000.4881,1,1
14.44,-0.84978974,7.0997415,6.3297586,1000.4854,1,1
14.48,-0.97884315,6.9615116,6.9736385,1000.4981,1,1
14.52,-1.1461351,6.8328147,7.409204499999999,1000.50574,1,1
14.56,-0.9692813,7.2951703,6.9783725999999975,1000.4981,1,1
14.6,-0.51041865,7.490599,8.038879,1000.4982,1,1
14.64,-0.70160913,6.6516850000000005,8.564399,1000.5058,1,1
14.68,0.26391202,6.665985000000001,8.540727,1000.52356,1,1
14.72,-0.32878226,6.194096,9.743265,1000.5261,1,1
14.76,-0.45305586,5.8032384000000015,9.58703,1000.521,1,1
14.8,1.0478036,5.7222066,9.937376,1000.52106,1,1
14.84,0.8327136,5.4838786,9.411858,1000.48816,1,1
14.88,0.17788212,5.059655,7.068328,1000.4476,1,1
14.92,0.16832353,5.13592,6.1309156,1000.4476,1,1
14.96,0.8566166,5.3075160000000015,7.2577047000000015,1000.49817,1,1
15.0,0.81359947,5.3933144,7.4186745,1000.4934,1,1
15.04,0.65108764,5.684074,6.0741034,1000.4833,1,1
15.08,0.23524563,6.0892315,5.790039,1000.4605,1,1
15.12,0.8279426,6.799448,5.6385384000000025,1000.4755,1,1
15.16,0.74668735,7.252271,6.860015,1000.4831,1,1
15.2,0.2400292,7.2046056,7.8921156,1000.53107,1,1
15.24,0.04883857,7.638362,7.9536630000000015,1000.5136,1,1
15.28,-0.13757275,7.671728,8.715900999999999,1000.5337,1,1
15.32,-1.8152825,7.0854415999999985,9.236686,1000.5058,1,1
15.36,-1.7578398000000002,6.866178,8.199860000000001,1000.4957,1,1
15.4,-1.0074064,6.3799887,9.449743,1000.51636,1,1
15.44,-1.2941914,6.008198,7.409215,1000.4731,1,1
15.48,-1.131674,6.418121299999999,5.704829,1000.42255,1,1
15.52,-0.9691584,6.379988,5.889471,1000.47833,1,1
15.56,-0.82576066,5.6411724,6.751134,1000.4909,1,1
15.6,-0.8878937,5.912866,7.413950999999999,1000.48834,1,1
15.64,-0.9022284,6.0463295,6.3534440000000005,1000.46295,1,1
15.68,-0.7205927,6.680281,6.8126820000000015,1000.4909,1,1
15.72,0.03462003,6.9233759999999975,6.557024,1000.4808,1,1
15.76,-0.21870652,6.951975,8.128846000000001,1000.5188,1,1
15.8,-0.44813335,6.928142,8.408177,1000.50604,1,1
15.84,-0.78749555,6.6040160000000006,7.1156855,1000.4731,1,1
15.88,-0.3620888,6.2989564000000025,7.219842,1000.4758,1,1
15.92,0.24016948,5.9557642999999985,6.95945,1000.47314,1,1
15.96,-0.21868752,6.108294,6.7795429999999985,1000.4632,1,1
16.0,1.3634311,6.823277,8.3561,1000.5063,1,1
16.04,0.11590643,6.456252,8.592821,1000.51636,1,1
16.08,-0.39552963,6.117826999999999,6.983124,1000.4811,1,1
16.12,-0.44810396,5.9605303,8.398711,1000.5037,1,1
16.16,-0.4576596,6.017729,7.3524084,1000.4759,1,1
16.2,-1.0025535,5.9843626,6.6138410000000025,1000.4403,1,1
16.24,-0.42419362,6.2751226,6.6895924,1000.4886,1,1
16.28,0.044229254,6.637381,6.2019480000000025,1000.44824,1,1
16.32,-1.2939521,6.8423395000000005,6.7227479999999975,1000.49347,1,1
16.36,-0.61521167,7.338060400000002,7.5086594,1000.4886,1,1
16.4,-0.30929402,6.8232718,9.255656,1000.55194,1,1
16.44,-0.93543816,6.3227835,9.378752,1000.5243,1,1
16.48,0.15436657,7.323759599999999,7.181988700000002,1000.45844,1,1
16.52,0.10179637,7.323759599999999,6.765362,1000.45825,1,1
16.56,-0.7776755,7.318994,5.094118,1000.42786,1,1
16.6,-0.3474855,7.476289299999999,5.955781,1000.49115,1,1
16.64,-0.2757739,5.846126,9.411898,1000.5444,1,1
16.68,-0.027215853,5.6935970000000005,7.915827,1000.5092,1,1
16.72,-0.18015942,5.6649976,8.091000000000001,1000.4762,1,1
16.76,-0.39045936,6.146419,7.134652,1000.46857,1,1
16.8,-0.103660986,5.993889,6.850588,1000.4534,1,1
16.84,0.020622805,6.027254599999999,7.191465400000001,1000.4837,1,1
16.88,0.16880493,6.3895125,7.570219,1000.50146,1,1
16.92,-0.08929369,6.461011,7.4092503,1000.48627,1,1
16.96,-0.48122555,6.961498700000001,6.5807304,1000.50146,1,1
17.0,-0.103612795,7.47152,6.4292307,1000.4736,1,1
17.04,0.25010532,6.422878,8.412948,1000.53174,1,1
17.08,0.45086348,6.17025,9.643892,1000.54974,1,1
17.12,0.36483973,5.950988,8.526575,1000.5166,1,1
17.16,0.068501964,6.0701519999999975,7.006832000000001,1000.4585,1,1
17.2,-0.06054446,5.817524,6.6375484,1000.489,1,1
17.24,-0.31386453,5.736492,6.528658,1000.45605,1,1
17.28,-0.5385052,6.25128,6.438705400000001,1000.4763,1,1
17.32,-0.58629245,6.8709320000000025,6.4055653,1000.4763,1,1
17.36,-0.5482381,7.147397,6.609128,1000.4991,1,1
17.4,-0.6677307,7.2093625,7.23407,1000.5041,1,1
17.44,-0.83502066,7.786116000000002,7.049428,1000.51434,1,1
17.48,-0.04157114,7.910045599999999,6.415018,1000.4992,1,1
17.52,0.4746502,7.8242474,8.280372999999999,1000.5447,1,1
17.56,-0.36181277,6.9615009999999975,9.899541,1000.54987,1,1
17.6,-0.3904893,7.2379612999999985,7.915825999999999,1000.5018,1,1
17.64,0.5224559,7.0997305,6.878991,1000.48663,1,1
17.68,-0.98795974,5.803227400000001,8.31825,1000.49164,1,1
17.72,-0.7489670999999999,6.656441,5.558092,1000.44354,1,1
17.76,-0.8350011999999999,7.013933,6.7985067,1000.4992,1,1
17.8,-0.6438064,6.055855,7.972639,1000.5118,1,1
17.84,0.14486389,6.11782,7.4518547,1000.50934,1,1
17.88,-0.12758255,5.869959400000001,7.4045105,1000.4941,1,1
17.92,-0.25185522,5.750795,7.2340727,1000.50433,1,1
17.96,0.4459988,6.175019,6.575990700000001,1000.48425,1,1
18.0,0.40776306,6.1416526,7.570216,1000.50183,1,1
18.04,0.20701371,6.0367885,7.281417999999999,1000.51715,1,1
18.08,0.49380445,6.384747,7.537076,1000.49426,1,1
18.12,0.6802196999999999,6.6802735,7.579685,1000.4691,1,1
18.16,0.04928781,6.737472,7.759593,1000.545,1,1
18.2,-0.69635934,7.371423700000001,7.1772614,1000.4716,1,1
18.24,0.3313012,7.471521000000001,7.811672,1000.5045,1,1
18.28,0.15923025,6.756538000000001,9.146773,1000.54755,1,1
18.32,-0.022399455,5.993889,8.057861,1000.4867,1,1
18.36,0.24530335,6.0320206,7.390313000000001,1000.4639,1,1
18.4,0.61813235,5.7174277,7.148860000000001,1000.4642,1,1
18.44,0.6229159000000001,5.5029325,6.6233406000000015,1000.5222,1,1
18.48,0.25487489,5.8556576,6.8316545,1000.48444,1,1
18.52,0.15450232,6.4324102,6.1877755999999975,1000.49945,1,1
18.56,0.44607437,7.199826700000001,6.2067146,1000.5049,1,1
18.6,0.006336242,7.0329967,7.253018400000001,1000.49963,1,1
18.64,-0.16095307,7.333289999999999,6.7843122000000005,1000.4717,1,1
18.68,0.28835207,7.461986500000001,7.3808479999999985,1000.5274,1,1
18.72,0.54168546,7.59545,7.2861595,1000.48956,1,1
18.76,0.34571725,7.786113,6.921611,1000.49945,1,1
18.8,-0.7345136999999999,7.257025,7.6128339999999985,1000.50464,1,1
18.84,-1.1312342,6.389511,8.005791,1000.5224,1,1
18.88,-0.7440661999999999,7.175992999999999,8.3892765,1000.5046,1,1
18.92,-0.8348793,7.156926,7.4566,1000.46936,1,1
18.96,-0.9161333,6.8947663,7.428194,1000.4893,1,1
19.0,-1.0738624,6.175016,7.3193035,1000.4822,1,1
19.04,-0.54329914,7.037762599999999,6.306141,1000.4566,1,1
19.08,-0.18959077,7.299923,6.1688433,1000.4594,1,1
19.12,-0.2087062,6.599239,7.39032,1000.5099,1,1
19.16,-0.44769254,6.041551,8.389279,1000.51996,1,1
19.2,-0.40945035,5.9223876,7.9395123,1000.5151,1,1
19.24,-0.5337217,6.0796839999999985,6.5618,1000.4466,1,1
19.28,-0.6818911,6.456242,6.344018,1000.4441,0,0
19.32,-0.32261935,6.9328785,6.3298864,1000.4618,0,0
19.36,-0.6523925,6.4085565,7.447209399999997,1000.4719,0,0
19.4,-0.4802885,6.36089,7.7407455,1000.4744,0,0
19.44,-0.2173615,6.7136145,6.860149400000001,1000.5023,0,0
19.48,-0.26512185,6.999606599999999,6.121586,1000.4643,0,0
19.52,-0.30332473,6.804177,7.219970699999997,1000.47473,0,0
19.56,-0.2507158,6.732678,7.5466479999999985,1000.4769,0,0
19.6,-0.30803794,6.766042999999999,7.6697454,1000.4797,0,0
19.64,-0.08813143,6.913805,7.238918300000001,1000.4744,0,0
19.68,-0.0785363,7.133066,7.182109,1000.48975,0,0
19.72,-0.14541805,6.7755733,6.8080940000000005,1000.4946,0,0
19.76,-0.05934605,6.8899693,7.4283037,1000.4822,0,0
19.8,-0.15490654,7.223627599999999,6.3488626,1000.4596,0,0
19.84,-0.0066971183,7.075864299999999,6.703946000000001,1000.4645,0,0
19.88,-0.18351659,6.6945380000000005,6.912263,1000.4646,0,0
19.92,-0.26473996,6.909033,6.6234674,1000.47955,0,0
19.96,-0.44633916,7.152126299999999,6.779706,1000.4416,0,0
20.0,-0.74265146,7.209324,6.4293633,1000.477,0,0
20.04,-0.55142164,7.5811142999999985,7.3809824000000015,1000.48975,0,0
20.08,-0.40321434,7.4190507,7.319438000000001,1000.472,0,0
20.12,-0.82858133,6.794631,7.338379,1000.4873,0,0
20.16,-0.527416,7.233153,6.689769,1000.50256,0,0
20.2,-0.38876837,7.4142814,6.727647,1000.4925,0,0
20.24,-0.5990441999999999,7.247451299999999,6.315757,1000.4747,0,0
20.28,-0.5990087,7.0377220000000005,6.623497,1000.4669,0,0
20.32,-0.7184727,7.142585,6.3062944000000005,1000.47455,0,0
20.36,-0.37874633,7.338005,5.8328867,1000.4696,0,0
20.4,-0.28789398,7.614464999999999,5.9843910000000005,1000.51764,0,0
20.44,-0.67977774,7.252205,6.883934,1000.4975,0,0
20.48,-0.5650174,7.323702000000001,6.472044,1000.48254,0,0
20.52,-0.75138164,7.628761,6.363158,1000.5104,0,0
20.56,-0.42630684,7.0520062,6.112239,1000.4848,0,0
20.6,-0.21595037,7.4237967,7.6556587,1000.523,0,0
20.64,-0.67476946,6.942373299999999,7.276910000000001,1000.5002,0,0
20.68,-0.67476946,6.942373299999999,7.276910000000001,1000.48,0,0
20.72,-0.67476946,6.942373299999999,7.276910000000001,1000.4951,0,0
20.76,-0.67476946,6.942373299999999,7.276910000000001,1000.4748,0,0
20.8,-0.7990173,6.665912,6.6661740000000025,1000.5053,0,0
20.84,-0.76056236,7.266493,6.3584585,1000.4647,0,0
20.88,-0.60278076,7.304625,6.8224344,1000.49,0,0
20.92,-0.87996125,6.885166000000001,6.7040786999999975,1000.4569,0,0
20.96,-0.78909695,6.8470320000000005,6.6851454,1000.4774,0,0
21.0,-1.2909312,6.9995613,6.391616,1000.48505,0,0
21.04,-1.2000757,7.333219500000001,6.661481,1000.5053,0,0
21.08,-1.362535,7.133023,6.609407400000001,1000.4873,0,0
21.12,-1.0183381,7.028157000000001,7.1112595,1000.5027,0,0
21.16,-1.2047054,7.4905114,6.595213,1000.48505,0,0
21.2,-0.7410131999999999,7.2283506,6.893485000000001,1000.4924,0,0
21.24,-0.8317934000000001,7.0329204,6.931364,1000.4951,0,0
21.28,-0.5927460999999999,6.7469254,6.495804,1000.5028,0,0
21.32,-0.55447155,7.3761100000000015,6.126524,1000.44934,0,0
21.36,-0.7085677,7.1759424,7.172722,1000.48224,0,0
21.4,-0.8519609,6.904249,7.3242235,1000.49506,0,0
21.44,-0.33574045,7.790828,6.7087517000000005,1000.45715,0,0
21.48,-0.8758572,7.271274000000001,7.3052864,1000.4949,0,0
21.52,-1.2391211000000002,6.8089175000000015,6.95494,1000.4977,0,0
21.56,-1.2582394,6.9280815,6.3299980000000025,1000.457,0,0
21.6,-0.8806332,7.447636599999999,6.6708765,1000.51514,0,0
21.64,-0.8471736999999999,7.461936,6.6756105,1000.5104,0,0
21.68,-0.63686067,7.228375,6.6898136,1000.4748,0,0
21.72,-0.61296076,6.9995804,6.7702990000000005,1000.51294,0,0
21.76,-0.46478552,7.01388,6.694548599999999,1000.5053,0,0
21.8,-0.49346286,7.085378,6.4578285000000015,1000.5177,0,0
21.84,-0.3452876,7.3332396,6.5430480000000015,1000.4951,0,0
21.88,-0.32138740000000005,7.032945,6.8129089999999985,1000.4774,0,0
21.92,-0.5747156999999999,7.3380046,6.585657,1000.4977,0,0
21.96,-0.6607513,7.2522073,6.5004387,1000.48987,0,0
22.0,-0.62729114,7.0234127000000015,6.983348,1000.5154,0,0
22.04,-0.5508128999999999,7.171175,6.6661425,1000.4646,0,0
22.08,-0.2879225,7.585866499999999,6.4530945,1000.4926,0,0
22.12,-0.4169762,7.2665067,6.9360046,1000.5053,0,0
22.16,-0.48867178,7.1282763,6.547783,1000.51794,0,0
22.2,-0.19710241,7.190242,6.1879683,1000.4495,0,0
22.24,-0.1684227,7.2331405,6.841316,1000.51294,0,0
22.28,0.032330632000000005,7.0996770000000025,6.9549426999999975,1000.50494,0,0
22.32,0.013087347,7.214078,6.7608204,1000.48755,0,0
22.36,-0.025154918,7.137813,6.8223667,1000.48737,0,0
22.4,-0.15899323,7.190245,6.3631296,1000.4723,0,0
22.44,-0.053840414,7.2998759999999985,6.0980024,1000.4596,0,0
22.48,-0.14466025,7.152113000000001,6.5240984000000015,1000.5127,0,0
22.52,0.075206205,7.781298599999999,6.240034,1000.46967,0,0
22.56,0.12300019,7.9338284,5.7760620000000005,1000.47723,0,0
22.6,0.30940968,7.638301400000001,6.912319,1000.50757,0,0
22.64,0.5770742,7.504838,6.831834,1000.51294,0,0
22.68,0.46235508,7.7098007,5.6766386,1000.48755,0,0
22.72,0.14688523,7.438107,6.0648594000000005,1000.5154,0,0
22.76,-0.56053054,6.756489,7.059084,1000.5154,0,0
22.8,-0.4123602,6.8994856,6.647191,1000.52045,0,0
22.84,-0.18293339,7.3570757,6.7182064,1000.51276,0,0
22.88,-0.08256134,7.4238076,6.434141,1000.4976,0,0
22.92,-0.2928758,7.390442,6.00331,1000.457,0,0
22.96,-0.47451264,7.2379117,5.92756,1000.48224,0,0
23.0,-0.48407602,7.271278,6.150077,1000.4724,0,0
23.04,-0.5366576999999999,7.347542999999999,6.221092,1000.4926,0,0
23.08,-0.5653394,7.242678999999999,6.6377190000000015,1000.495,0,0
23.12,-0.082583696,7.547738000000002,6.841297999999999,1000.5152,0,0
23.16,-0.0013308227,7.514373,6.6566563,1000.4748,0,0
23.2,-0.20686620000000008,7.342777000000001,6.817626,1000.4952,0,0
23.24,-0.3550437,7.314177499999999,6.5098886,1000.4926,0,0
23.28,-0.3932859,7.266512,6.4578104000000005,1000.4975,0,0
23.32,-0.40284884,7.266512,6.5288258,1000.4924,0,0
23.36,-0.3261818,7.390438,6.4862337,1000.48254,0,0
23.4,-0.45045167,7.1997757,6.727689,1000.48474,0,0
23.44,-0.30705377,7.352305,6.3962812000000016,1000.51276,0,0
23.48,-0.17799623,7.4953020000000015,6.547782,1000.4949,0,0
23.52,-0.22101207,7.414270399999999,6.52411,1000.4948,0,0
23.56,-0.44087738,7.366604,6.325266,1000.49506,0,0
23.6,-0.64640534,7.228374499999997,6.959676700000001,1000.5026,0,0
23.64,-0.48388797,7.566799599999999,6.4720325,1000.48755,0,0
23.68,-0.10150107,7.600165400000002,6.713487599999999,1000.4976,0,0
23.72,-0.33092666,7.338004,6.6614094,1000.4775,0,0
23.76,-0.4217391,7.23314,6.344206,1000.4619,0,0
23.8,-0.5412316,7.247439999999999,6.0743446,1000.45966,0,0
23.84,-0.5268874,7.266506,6.5335817,1000.50745,0,0
23.88,-0.5268841,7.376137299999999,6.301596599999999,1000.4977,0,0
23.92,-0.49342144,7.380903699999997,6.4530983,1000.4926,0,0
23.96,-0.4981979,7.5239,6.363144,1000.49005,0,0
24.0,-0.30700287,7.3332380000000015,6.760834700000001,1000.4948,0,0
24.04,-0.40259397,7.2665057,6.7371634999999985,1000.51794,0,0
24.08,-0.2448576,7.323703999999997,6.623537,1000.4924,0,0
24.12,-0.08712048,7.504833,6.2447852999999975,1000.4648,0,0
24.16,-0.27352790000000005,7.271272,6.623538000000001,1000.4927,0,0
24.2,-0.43603742,7.276038000000002,6.7845087,1000.4977,0,0
24.24,-0.35477692,7.190240400000001,6.831853,1000.51263,0,0
24.28,-0.49816817,7.161641,6.5430546,1000.48505,0,0
24.32,-0.3786695,7.1473413,6.5761957,1000.5053,0,0
24.36,-0.32589109999999993,7.304633,6.3394938,1000.5053,0,0
24.4,-0.3449989,7.285566,6.7182474,1000.50494,0,0
24.44,-0.5027252999999999,7.0853705,6.4199800000000025,1000.52527,0,0
24.48,-0.17290387,7.357064,6.5383415000000005,1000.4775,0,0
24.52,-0.1394338,7.347531,6.3821077000000015,1000.48004,0,0
24.56,-0.19678287,7.337997,6.9739084,1000.4978,0,0
24.6,-0.5887154,7.1235023,7.130145,1000.5155,0,0
24.64,-0.51222855,7.0996685,6.969176299999999,1000.5053,0,0
24.68,-0.42140156,7.1282679999999985,7.0401936,1000.51544,0,0
24.72,-0.39748684,7.233131399999999,6.8555536,1000.4876,0,0
24.76,-0.43093693,7.1759330000000014,6.5904274,1000.48,0,0
24.8,-0.5217439,7.1664,6.505209,1000.4951,0,0
24.84,-0.46915388,7.1806990000000015,6.514679,1000.47,0,0
24.88,-0.40222526,7.242664299999999,6.576225999999999,1000.5205,0,0
24.92,-0.59818655,7.0138690000000015,6.751401,1000.4648,0,0
24.96,-0.5025782999999999,7.0949,7.025997,1000.4977,0,0
25.0,-0.46432918,7.1187325,6.8271539999999975,1000.4801,0,0
25.04,-0.55035424,7.1473317,6.8555613,1000.5129,0,0
25.08,-0.5742411000000001,7.109199,6.9123755000000005,1000.4977,0,0
25.12,-0.2587605,7.285561,6.959720599999999,1000.4802,0,0
25.16,-0.36390838,7.1234984,6.831892,1000.4852,0,0
25.2,-0.40213606,6.9709682,6.827159,1000.51044,0,0
25.24,-0.54073757,6.9328356,6.675659,1000.4801,0,0
25.28,-0.55984753,7.047232000000001,6.4862833,1000.4827,0,0
25.32,-0.38794744,7.3236966,6.722988000000001,1000.4726,0,0
25.36,-0.30668813,7.4094954,6.5998936000000015,1000.4852,0,0
25.4,-0.23976806,7.3522954,6.9644429999999975,1000.5055,0,0
25.44,-0.33536035,7.3093967000000015,6.8602867,1000.4826,0,0
25.48,-0.44529104,7.1997665999999985,6.6803789999999985,1000.4726,0,0
25.52,-0.5169855,7.109201400000001,6.727724,1000.46497,0,0
25.56,-0.37836576,7.2092990000000015,6.533614,1000.48004,0,0
25.6,-0.33534443,7.1568666,6.670912,1000.49786,0,0
25.64,-0.39747825,7.218832000000001,6.3963165,1000.4776,0,0
25.68,-0.23974073,7.404727499999999,6.386848400000001,1000.51294,0,0
25.72,-0.4500485,7.0996675000000025,6.760867,1000.5055,0,0
25.76,-0.31620947,7.2521977,6.6377726,1000.4801,0,0
25.8,-0.58387566,7.1235003,6.722992,1000.4878,0,0
25.84,-0.46915746,7.1473327000000015,6.4294596,1000.47003,0,0
25.88,-0.42135423,7.2378974,6.680382700000001,1000.4599,0,0
25.92,-0.45480925,7.1806990000000015,6.7987432,1000.50287,0,0
25.96,-0.6173193,7.0234027,6.8271503,1000.4903,0,0
26.0,-0.5838578000000001,7.1663995,6.562024000000001,1000.4727,0,0
26.04,-0.42133874,7.185466,6.779807000000001,1000.4827,0,0
26.08,-0.28750044,7.23313,6.76087,1000.47253,0,0
26.12,-0.26837766,7.23313,6.945512,1000.4801,0,0
26.16,-0.28749424,7.1759315,6.808214,1000.4979,0,0
26.2,-0.38786656,7.118733,6.699323700000001,1000.4802,0,0
26.24,-0.35918206,7.3141612999999985,6.599900999999999,1000.4828,0,0
26.28,-0.30660132,7.290328999999999,7.025998,1000.4803,0,0
26.32,-0.48345125,7.185465,6.7987470000000005,1000.4727,0,0
26.36,-0.36918473,7.214075,6.793971000000001,1000.46,0,0
26.4,-0.46479475,7.1282770000000015,6.9312676999999985,1000.4956,0,0
26.44,-0.42657027,7.071078999999999,6.8223753,1000.4751,0,0
26.48,-0.2688507,7.233142,6.5525129999999985,1000.46014,0,0
26.52,-0.31188112,7.2140765,6.7844973,1000.4904,0,0
26.56,-0.32623538,7.1950107,6.557245299999999,1000.46265,0,0
26.6,-0.3644869,7.1139793,6.656666,1000.4702,0,0
26.64,-0.3979603,7.1044464000000005,6.7466183000000015,1000.4777,0,0
26.68,-0.54136664,6.9519167,7.1253699999999975,1000.4852,0,0
26.72,-0.6178566,6.999583199999999,6.689803,1000.48285,0,0
26.76,-0.44101784,7.26651,6.614052,1000.4904,0,0
26.8,-0.1303445,7.523905,6.3536577,1000.4802,0,0
26.84,-0.33111283,7.209312400000001,6.670862,1000.48035,0,0
26.88,-0.32634175,7.3237095,6.751345599999999,1000.5006,0,0
26.92,-0.31679696,7.218846000000001,6.8839073000000015,1000.4854,0,0
26.96,-0.41240874,7.314177499999999,6.5051537,1000.4827,0,0
27.0,-0.38852188,7.266512,6.6992636,1000.5056,0,0
27.04,-0.3168388,7.428575,6.4956827000000015,1000.455,0,0
27.08,-0.26905474,7.4667087,6.632979400000001,1000.48035,0,0
27.12,-0.43636012,7.2998796000000015,6.528821,1000.4677,0,0
27.16,-0.704043,6.85659,7.130089,1000.4906,0,0
27.2,-0.3407936,7.252214,6.2636910000000015,1000.4906,0,0
27.24,-0.12093663,7.361846000000001,6.6471777,1000.47784,0,0
27.28,-0.5463522,6.990054,6.282627,1000.4829,0,0
27.32,-0.38863355,7.3427796,6.3299694,1000.47296,0,0
27.36,-0.32024512,7.395176400000001,6.595231,1000.46277,0,0
27.4,-0.23894127,7.242645299999999,6.9834565999999985,1000.47784,0,0
27.44,-0.17197965,7.261710000000001,6.5005510000000015,1000.4552,0,0
27.48,-0.27231112,7.7192984,6.4106016,1000.49567,0,0
27.52,-0.69289494,7.3761053,6.263839,1000.4956,0,0
27.56,-0.62593615,7.5000353,5.932434,1000.47034,0,0
27.6,-0.54463506,7.581065,6.510035500000001,1000.4957,0,0
27.64,-0.7166636,7.1711397,6.221241,1000.48816,0,0
27.68,-0.42982262,7.500032000000001,6.8177805,1000.48303,0,0
27.72,-0.6305411,7.3808669999999985,6.2354517,1000.4831,0,0
27.76,-0.5635795,7.3760996,6.595271,1000.5058,0,0
27.8,-0.48704708,7.3141327,6.5289946,1000.49066,0,0
27.84,-0.20500536,7.3665633,6.7231083,1000.5109,0,0
27.88,-0.2766608,7.333197,6.2070620000000005,1000.4804,0,0
27.92,-0.09498389,7.6954546000000015,6.083971,1000.48553,0,0
27.96,-0.20964924,7.576289,6.6994485999999975,1000.5083,0,0
28.0,-0.0040788054,7.776483,6.420122,1000.4705,0,0
28.04,-0.02793619,7.6048865,6.6805179999999975,1000.47284,0,0
28.08,-0.27644435,7.180662,6.5526934,1000.47296,0,0
28.12,-0.3719933,7.328424000000001,6.126601,1000.4705,0,0
28.16,-0.45319998,7.1377606,6.363326,1000.4831,0,0
28.2,-0.40057775,7.152059,6.6710663,1000.5109,0,0
28.24,-0.26191905,7.261688,6.453287,1000.47314,0,0
28.28,-0.2714315,7.409451,6.5432453,1000.4982,0,0
28.32,-0.20447537,7.3760843,6.519577,1000.47034,0,0
28.36,-0.20527576,7.485735000000001,6.571582,1000.4909,0,0
28.4,-0.17180356,7.3999357,6.595256,1000.50104,0,0
28.44,-0.2960678,7.419002000000001,6.6899443,1000.5007,0,0
28.48,-0.1765634,7.433301400000001,6.3443336,1000.47046,0,0
28.52,-0.19566979,7.3904023,6.590523700000001,1000.47284,0,0
28.56,-0.21955593,7.314137,6.7562294000000005,1000.5035,0,0
28.6,-0.11917293,7.2235723,6.5573845,1000.49316,0,0
28.64,-0.004445508,7.304603599999999,6.675746000000001,1000.46295,0,0
28.68,-0.10958977,7.26647,6.240182,1000.468,0,0
28.72,-0.07134062,7.471431699999999,6.1312914,1000.4552,0,0
28.76,-0.18604164,7.4142327,6.476905,1000.47064,0,0
28.8,-0.396343,7.247403,6.4579678,1000.4783,0,0
28.84,-0.25293678,7.4142323,6.5337190000000005,1000.4628,0,0
28.88,-0.09519259,7.4475985,6.713628,1000.50854,0,0
28.92,-0.17165801,7.3761,6.8035820000000005,1000.4909,0,0
28.96,-0.042592585,7.600127,6.249657599999999,1000.4755,0,0
29.0,0.09603314,7.590594999999999,6.2543935999999976,1000.4755,0,0
29.04,0.25855643,7.45713,6.779914,1000.4579,0,0
29.08,0.23945011,7.3713317,5.9513940000000005,1000.4681,0,0
29.12,-0.02342987,7.276,6.0366144,1000.4909,0,0
29.16,-0.3819037,7.0424395,6.2354603,1000.47833,0,0
29.2,-0.30541328,7.4046974,6.1218357,1000.47577,0,0
29.24,-0.2576067,7.471427999999999,6.154977,1000.47076,0,0
29.28,0.014852792,7.7097570000000015,6.0839615,1000.4656,0,0
29.32,0.13436078,7.643024,6.912484,1000.4833,0,0
29.36,-0.062085077,7.533405,6.841425,1000.50616,0,0
29.4,-0.07165229,7.438074,6.5147495000000015,1000.4657,0,0
29.44,-0.23417276,7.1663804,6.6804533,1000.49585,0,0
29.48,-0.24373952,7.19498,6.1502,1000.4403,0,0
29.52,0.21511312,7.3665756999999985,6.296965599999999,1000.4631,0,0
29.56,-0.119479805,7.228347,6.7183266,1000.4759,0,0
29.6,-0.06691103,7.51434,6.2590885,1000.4706,0,0
29.64,-0.13383397,7.36181,6.581028,1000.47565,0,0
29.68,-0.1864194,7.175915,6.4389944,1000.47815,0,0
29.72,0.18639626,7.290312299999999,6.912434599999999,1000.48096,0,0
29.76,0.10513197,7.1616154000000005,6.964511999999999,1000.49615,0,0
29.8,0.10512675,7.3713440000000015,6.557353,1000.4582,0,0
29.84,0.076439366,7.3999434000000015,6.510008,1000.47076,0,0
29.88,-0.18167767,7.075817999999999,6.9976509999999985,1000.4884,0,0
29.92,-0.11476993,7.1425494999999986,6.8745556,1000.4708,0,0
29.96,-0.06697665,7.099651,6.751461,1000.46326,0,0
30.0,-0.071763545,7.1806827,6.713585000000001,1000.453,0,0
30.04,-0.32510126,7.237881,6.723053,1000.4455,0,0
30.08,-0.32988864,7.03292,6.973976,1000.4759,0,0
30.12,0.14808269,7.404711200000001,6.675707000000001,1000.46826,0,0
30.16,0.2436731000000001,7.542942,6.5336742,1000.4555,0,0
30.2,-0.18173711,7.113952,7.2248964,1000.4759,0,0
30.24,-0.31557918,6.9709554,6.6709710000000015,1000.4708,0,0
30.28,-0.11005476,6.9280562,6.5573444000000025,1000.4886,0,0
30.32,-0.19528852,7.0043015,6.4106510000000005,1000.4632,0,0
30.36,0.015041843,7.252161999999997,6.386981,1000.4505,0,0
30.4,-0.14266312,7.309359599999999,6.5432196,1000.44543,0,0
30.44,-0.31949365,7.1663632,6.9645834,1000.49365,0,0
30.48,-0.33380294,7.228327799999999,6.931445,1000.4658,0,0
30.52,-0.28597954,7.233092999999997,7.0450735,1000.4786,0,0
30.56,-0.43413284,6.9661655,7.0687466,1000.4887,0,0
30.6,-0.38630617,7.0185966,6.8604355,1000.4809,0,0
30.64,-0.34804714,6.9995303,6.4864197,1000.45825,0,0
30.68,-0.33368242,7.066261999999999,6.5716410000000005,1000.4734,0,0
30.72,-0.2571754,6.9280304999999975,7.253399000000001,1000.5138,0,0
30.76,-0.19501254,7.0328940000000015,7.135041,1000.45575,0,0
30.8,-0.28580818,6.9184966,7.324419,1000.4887,0,0
30.84,-0.47697657,6.8755965,7.158717,1000.48615,0,0
30.88,-0.3383321,7.013826400000001,6.8036394,1000.4532,0,0
30.92,-0.3908909,7.0042925,6.974079,1000.4608,0,0
30.96,-0.40520176,6.9613934,7.0498323,1000.47845,0,0
31.0,-0.49599743,6.8326955,7.1019134999999975,1000.4709,0,0
31.04,-0.47206664,6.8231616,7.22501,1000.4683,0,0
31.08,-0.3429882,6.994756,6.9551516000000015,1000.48364,0,0
31.12,-0.26648438,6.880359,7.0829830000000005,1000.45825,0,0
31.16,-0.32859644,6.827926,7.0072345999999985,1000.5115,0,0
31.2,-0.328579,6.908957000000001,6.8604699999999985,1000.47614,0,0
31.24,-0.30465615,6.980455,6.7468460000000015,1000.4811,0,0
31.28,-0.4193445,6.885122999999999,7.0214443,1000.4634,0,0
31.32,-0.52462655,6.732596400000001,6.903073299999999,1000.4658,0,0
31.36,-0.40033263,6.999523,6.997762700000001,1000.47614,0,0
31.4,-0.4098732,6.9470906,6.609543,1000.44324,0,0
31.44,-0.28557926,6.9518565999999975,7.206079499999999,1000.4633,0,0
31.48,-0.28556025,7.0519539999999985,6.8415318,1000.44574,0,0
31.52,-0.21862870000000004,7.0757866,6.9788313,1000.47614,0,0
31.56,-0.3333226,7.013820599999999,6.959895,1000.44824,0,0
31.6,-0.31896296,6.9709210000000015,7.0782576,1000.47614,0,0
31.64,-0.38108253,7.0042863,6.8746796,1000.44574,0,0
31.68,-0.30458787,7.1282163,6.827337299999999,1000.47107,0,0
31.72,-0.39538395,6.9089546,6.8557453,1000.4736,0,0
31.76,-0.28064959999999994,7.0662503,6.779997,1000.466,0,0
31.8,-0.3093106,6.999517999999999,6.9457026,1000.4558,0,0
31.84,-0.2901724,6.89942,6.9835796000000006,1000.4735,0,0
31.88,-0.24235767,6.9280186000000015,6.9741125,1000.46606,0,0
31.92,-0.118066154,7.066249000000001,6.8036756999999985,1000.47614,0,0
31.96,-0.12282571,7.0853142999999985,6.922037,1000.4483,0,0
32.0,-0.19450372,7.0519479999999986,6.723194,1000.471,0,0
32.04,-0.06542764599999999,7.1806445000000005,6.8889008,1000.4635,0,0
32.08,-0.17534411,7.037647200000001,6.860495599999999,1000.4862,0,0
32.12,-0.23746729,7.0138144,6.8983717,1000.45325,0,0
32.16,-0.25178528,7.047179700000001,6.8936395999999975,1000.48364,0,0
32.2,-0.2565449,6.9566149999999976,6.8747034,1000.4838,0,0
32.24,-0.13225689999999998,7.132977,6.6474533,1000.4862,0,0
32.28,-0.23739237,6.951847,6.8983784,1000.4761,0,0
32.32,-0.19897336,7.2092366,6.566986999999999,1000.46106,0,0
32.36,-0.20851398,7.1949368,6.7137556,1000.494,0,0
32.4,-0.3136395,7.333166,6.836853,1000.4686,0,0
32.44,-0.16544658,7.633458999999997,6.3586800000000006,1000.47363,0,0
32.48,-0.34705377,7.247367,6.836857000000001,1000.47363,0,0
32.52,-0.557335,6.8136096,6.675889999999999,1000.4813,1,2
32.56,-0.28008097,7.0233380000000025,6.240327,1000.4509,1,2
32.6,-0.5333868,6.861274000000001,6.8463326,1000.4763,1,2
32.64,-0.5811611,6.8469734,6.2450657,1000.49396,1,2
32.68,-0.51422,7.004269,6.600148,1000.4688,1,2
32.72,-0.5715491,6.9184704,6.84634,1000.4814,1,2
32.76,-0.57630354,7.028100500000001,6.7327156000000015,1000.4965,1,2
32.8,-0.57627976,7.318860499999999,6.775328599999999,1000.4839,1,2
32.84,-0.55714,7.295027,7.234567599999999,1000.4788,1,2
32.88,-0.7196295,6.8565035000000005,7.2156324,1000.47614,1,2
32.92,-0.45671016,6.6801395,6.642771700000001,1000.4813,1,2
32.96,0.07864688,7.1424947,6.6333046,1000.48895,1,2
33.0,-0.122077934,6.4322777,6.727995,1000.4789,1,2
33.04,-0.055138454,6.375078,5.9657583,1000.47363,1,2
33.08,0.6236254,7.5810165,7.0167990000000025,1000.4862,1,2
33.12,0.51849025,7.295022500000001,6.330312,1000.48627,1,2
33.16,0.68581355,6.846965299999999,7.1304293,1000.456,1,2
33.2,1.0204204,7.042393700000001,7.3860893,1000.49146,1,2
33.24,1.5175502,7.666811999999997,6.3113823,1000.4737,1,2
33.28,1.4984547,8.033836,5.837943,1000.43835,1,2
33.32,0.9485836,7.5905520000000015,6.997855,1000.4762,1,2
33.36,0.7956463,7.35699,6.860558500000002,1000.4787,1,2
33.4,0.5088704000000001,7.490453,7.007325999999999,1000.4966,1,2
33.44,0.4324131,7.5905504,8.162522000000001,1000.5218,1,2
33.48,0.24123855,7.4570856,9.833769,1000.5018,1,2
33.52,0.2938308,7.867008999999999,9.956865,1000.5041,1,2
33.56,-0.8198469999999999,7.175858,7.1114893,1000.4206,1,2
33.6,-0.43744516,5.388399,7.637009599999999,1000.4535,1,2
33.64,-0.5951632,5.269235,9.800634,1000.5244,1,2
33.68,-0.8723754000000001,5.707758,6.799023599999999,1000.45105,1,2
33.72,-1.0778905,6.3321760000000005,6.7848215,1000.4535,1,2
33.76,-0.92014146,5.683924,6.5670404000000016,1000.4586,1,2
33.8,-1.1304363000000002,5.264467,7.3056097000000015,1000.4813,1,2
33.84,-0.66677785,5.7220554,7.357689,1000.489,1,2
33.88,-0.5807259,6.0461817,7.1067667000000005,1000.4586,1,2
33.92,-0.41341627,6.017582,5.658041000000001,1000.4409,1,2
33.96,-0.34648767,6.232076,5.9941845,1000.48395,1,2
34.0,-0.0071009696,6.3750725,8.35192,1000.5119,1,2
34.04,-0.3990325,6.2702084000000005,8.418202,1000.527,1,2
34.08,-0.40379173,6.3131059999999986,7.925826,1000.48914,1,2
34.12,0.059864685,6.870793300000001,8.337721,1000.4814,1,2
34.16,0.078999385,6.7516289999999985,7.367169400000001,1000.47144,1,2
34.2,-0.3607292,6.5943320000000005,6.4865713,1000.451,1,2
34.24,1.0206548,6.494234,8.631258,1000.5041,1,2
34.28,0.7052010999999999,6.4179683,9.4077015,1000.5296,1,2
34.32,-0.28014007,6.8755755,7.0451710000000025,1000.4511,1,2
34.36,0.07833491,6.4418187000000025,6.9268093,1000.4663,1,2
34.4,0.4846024,5.6267385,8.782695,1000.5194,1,2
34.44,0.22170363,5.8459997,6.9126034,1000.48395,1,2
34.48,-0.20371395,6.084328,7.1445884999999985,1000.4511,1,2
34.52,-0.35190058,6.1224612999999986,6.349207,1000.4588,1,2
34.56,-0.24197695,6.6658487000000015,6.543317,1000.4588,1,2
34.6,-0.8490254999999999,6.9041770000000025,6.81791,1000.50934,1,2
34.64,-1.3939351,6.6086507,7.5375395,1000.4992,1,2
34.68,-1.456082,6.3321905,8.522294,1000.5143,1,2
34.72,-1.5469141000000002,6.7850137,7.9399614,1000.5245,1,2
34.76,-1.499128,7.4142,9.374484,1000.51184,1,2
34.8,-1.9340997,7.037642,8.52229,1000.46136,1,2
34.84,-2.0105915000000003,5.8936687,7.4712515,1000.4688,1,2
34.88,-2.2161326,5.5838428,7.854737299999999,1000.4941,1,2
34.92,-1.7859662,5.9985332,7.764782,1000.51184,1,2
34.96,-1.8959118,5.374115,8.370785,1000.47156,1,2
35.0,-1.8815876,4.616233,8.683254,1000.4842,1,2
35.04,-1.9198388,4.835495,8.664315,1000.4918,1,2
35.08,-1.4609901,5.545712,7.750574,1000.4588,1,2
35.12,-1.1694293,5.6553435,7.925747,1000.4816,1,2
35.16,-0.9495758,4.830729,8.702188,1000.4815,1,2
35.2,-1.0643038,5.1071897,8.219278,1000.4892,1,2
35.24,-0.9209222,5.7459087,7.873664999999999,1000.4513,1,2
35.28,-1.3033146,5.6410446,8.058306,1000.47156,1,2
35.32,-0.95918214,6.0366693,7.4807070000000015,1000.46387,1,2
35.36,-1.0967696000000002,6.3274040000000005,8.413478999999999,1000.49677,1,2
35.4,-1.2974936,6.351236,7.736461599999997,1000.4791,1,2
35.44,-0.16465034,6.5037650000000005,8.953206,1000.47406,1,2
35.48,-0.4083942,5.884112,10.311982,1000.5095,1,2
35.52,-0.27931157,5.8316792999999985,8.309333,1000.4513,1,2
35.56,-0.14067633,5.5790515,7.902176,1000.42596,1,2
35.6,-0.08806536,4.768736,8.564994,1000.4462,1,2
35.64,-0.42262545,4.825933999999998,8.475043,1000.4613,1,2
35.68,-0.3604601,5.6362476,7.5139627,1000.42346,1,2
35.72,-0.2457169,5.2167900000000005,8.664425,1000.46655,1,2
35.76,-0.37475243,5.07856,9.459806,1000.497,1,2
35.8,-0.049696118,5.3979177000000025,7.9069242,1000.4286,1,2
35.84,0.5573720999999999,5.5742803,9.019512,1000.4589,1,2
35.88,0.68644774,5.1786547,8.484527,1000.46387,1,2
35.92,1.307857,5.464648,8.077371000000001,1000.47675,1,2
35.96,1.5134096,5.907937,7.689152,1000.4588,1,2
36.0,0.4188677,5.650542,6.434538,1000.4387,1,2
36.04,-0.0017358512,5.736339599999999,6.836964599999999,1000.49194,1,2
36.08,-0.13553894,6.5132875,8.40879,1000.48944,1,2
36.12,-0.90983397,6.6991830000000006,9.9427395,1000.5119,1,2
36.16,-1.6650169,6.0223308,8.830156,1000.51215,1,2
36.2,-1.11053,6.2034593000000005,7.1163044000000015,1000.4309,1,2
36.24,-1.3256001,6.1224275000000015,7.992171300000001,1000.4666,1,2
36.28,-1.5693457,5.8030677000000015,7.74125,1000.46405,1,2
36.32,-0.95750123,5.955596400000001,7.7033777,1000.45105,1,2
36.36,-1.0157384,6.179646,7.9447517,1000.4815,1,2
36.4,-0.81499225,6.065249,8.370847999999999,1000.4792,1,2
36.44,-0.8006619,5.660092,8.536551,1000.45654,1,2
36.48,-0.23187143,5.89842,7.414496400000001,1000.4261,1,2
36.52,-0.0693676,6.155814,6.600178,1000.44385,1,2
36.56,-0.21276647,6.1272150000000005,6.8132256999999985,1000.45135,1,2
36.6,-0.03113918,6.2988114,7.315072,1000.48425,1,2
36.64,0.3751345999999999,6.2082467,7.940014,1000.48914,1,2
36.68,0.46594423,6.303578,7.542322,1000.4437,1,2
36.72,0.5949904,6.808833,6.8368949999999975,1000.42615,1,2
36.76,0.3751099,7.123426400000001,7.120959299999999,1000.454,1,2
36.8,0.62843424,7.047161599999999,7.319803,1000.47687,1,2
36.84,0.08352904,6.6801367,7.5423193,1000.46906,1,2
36.88,0.03094405,6.6801367,7.428694,1000.4666,1,2
36.92,0.45155782,6.737336,7.679616,1000.48676,1,2
36.96,0.2699176,6.4322762,7.3055973,1000.4563,1,2
37.0,0.29858977,6.4036775000000015,6.9457817,1000.4692,1,2
37.04,0.21254523,6.2988133,7.225111,1000.497,1,2
37.08,0.06436418,6.603872999999999,6.6569815000000006,1000.4842,1,2
37.12,0.33202553,6.6181725999999985,7.054671300000001,1000.44904,1,2
37.16,0.5136505,6.613406,8.01102,1000.4767,1,2
37.2,0.51842123,6.751637,7.073607400000001,1000.4794,1,2
37.24,0.3128835,6.6563063,7.367139999999999,1000.5097,1,2
37.28,-0.0073695183,6.5514417,7.3245296,1000.4667,1,2
37.32,0.32242882,7.3236240000000015,6.9599800000000025,1000.44385,1,2
37.36,0.31409127,7.0662,7.504548,1000.492,1,2
37.4,-0.19730715,6.2558846,7.338847,1000.4666,1,2
37.44,-0.09211092,6.6944065,7.0500526,1000.4589,0,0
37.48,-0.22113004,6.6991725,6.789664299999999,1000.4463,0,0
37.52,-0.20675515,6.8040357,7.054793400000001,1000.4692,0,0
37.56,0.13265656,7.175826,6.765999000000001,1000.47424,0,0
37.6,-0.13018955,6.6944027,7.1542244,1000.4742,0,0
37.64,-0.38825834,6.7611337,7.168431299999999,1000.4641,0,0
37.68,-0.06319366400000001,6.985161,7.1731690000000015,1000.45905,0,0
37.72,-0.13485014,6.765898,7.0784845,1000.47424,0,0
37.76,-0.07267465,6.856462,7.2773323,1000.46924,0,0
37.8,-0.04395272,6.904126,6.8370380000000015,1000.47925,0,0
37.84,-0.26856545,6.618132000000001,6.827572,1000.4692,0,0
37.88,0.008703768,6.9470234,7.0311546,1000.4541,0,0
37.92,-0.005595088000000001,6.856457700000001,7.0264244000000025,1000.4843,0,0
37.96,0.051803157,7.00422,6.945944,1000.48694,0,0
38.0,0.07096039,7.056651,6.8938684000000015,1000.4692,0,0
38.04,-0.03415723,7.061417,6.784981,1000.4388,0,0
38.08,-0.03411664,7.008984,7.2963,1000.4996,0,0
38.12,0.118877634,6.932718,6.893878999999999,1000.4667,0,0
38.16,-0.05315472,6.885051299999999,7.215822,1000.47424,0,0
38.2,-0.191731,6.7801860000000005,7.0879974,1000.4717,0,0
38.24,-0.15822923,6.880283,6.813406,1000.46686,0,0
38.28,-0.34938335,6.770650999999999,6.8276119999999985,1000.4694,0,0
38.32,-0.20116886,6.8564479999999985,7.362603,1000.4667,0,0
38.36,-0.13124552,7.075753,6.817984599999999,1000.50226,0,0
38.4,-0.05479908,7.1377196,7.234609599999999,1000.47943,0,0
38.44,-0.29381973,6.8564935,6.8179789999999985,1000.46924,0,0
38.48,-0.16001378,6.947058,7.045228,1000.50726,0,0
38.52,-0.2508605,6.8088289999999985,7.026287,1000.52496,0,0
38.56,-0.11705648,6.904161,6.770627,1000.49976,0,0
38.6,-0.16966477,6.7992973,7.2630024,1000.49976,0,0
38.64,-0.08843664,6.651534599999999,6.945795,1000.49725,0,0
38.68,-0.07890555,6.784999000000001,7.390825299999999,1000.4669,0,0
38.72,-0.07415812,6.8374320000000015,6.9552574000000025,1000.47955,0,0
38.76,-0.19846727,6.846966,6.9457865000000005,1000.47437,0,0
38.8,-0.3084237,6.7325687000000025,7.1067532999999985,1000.46686,0,0
38.84,-0.11248219,6.913699,7.405019,1000.49713,0,0
38.88,-0.1842097000000001,6.756403,7.196702,1000.45935,0,0
38.92,-0.2415959,6.813603,7.0025883,1000.4946,0,0
38.96,-0.08867834,7.0328649999999975,6.486535,1000.4769,0,0
39.0,0.0021131933,6.823137299999999,7.4570856,1000.4946,0,0
39.04,0.011638552,7.004267,6.7942657,1000.48456,0,0
39.08,0.12154929,7.013800999999999,7.092531,1000.48724,0,0
39.12,-0.017087847,6.775473599999999,6.784793,1000.4795,0,0
39.16,-0.18920648,6.8040743,6.993102,1000.4822,0,0
39.2,-0.2752696,6.9566050000000015,6.264002,1000.49225,0,0
39.24,-0.37567595,7.0662365000000005,6.8700027000000015,1000.4998,0,0
39.28,-0.48563808,6.8040759999999985,6.941016,1000.52277,0,0
39.32,-0.14630437,7.214001700000002,7.182468400000001,1000.52783,0,0
39.36,-0.22110133,7.1615275999999986,7.0689955,1000.495,0,0
39.4,-0.22583282,6.9517979999999975,7.376736599999999,1000.48224,0,0
39.44,-0.1827893,7.0375957,6.8938303,1000.50507,0,0
39.48,-0.0393492,6.9422630000000005,7.007459599999999,1000.4747,0,0
39.52,-0.13969517,7.0042276,6.865431,1000.50244,0,0
39.56,-0.36909133,6.7801985999999985,6.8654337,1000.48474,0,0
39.6,-0.21609618,6.889828,6.8559685,1000.48987,0,0
39.64,-0.28776103,6.8898277000000006,7.02641,1000.52014,0,0
39.68,-0.11086692,7.0947886,7.078492,1000.5074,0,0
39.72,-0.13951585,6.923192,6.9269934000000015,1000.4873,0,0
39.76,-0.23029761,6.923191,7.0264196,1000.49994,0,0
39.8,-0.19202238,6.9327229999999975,7.059564599999999,1000.5051,0,0
39.84,-0.27324226,6.923189,7.0832386,1000.5152,0,0
39.88,-0.26364590000000004,7.018519,6.8086470000000014,1000.51263,0,0
39.92,-0.38309497,6.9565535,6.794447999999999,1000.4924,0,0
39.96,-0.6124934,7.018517,6.9838276,1000.5202,0,0
40.0,-0.4738446,6.789722,7.1779413,1000.52026,0,0
40.04,-0.28261334,6.8230867,6.889147,1000.49756,0,0
40.08,-0.2539,6.9374833,7.3341827,1000.51776,0,0
40.12,-0.24430822,7.094778999999999,6.9033555999999985,1000.51013,0,0
40.16,-0.31118870000000004,7.0232797000000025,7.1826887,1000.52045,0,0
40.2,-0.2872552,6.7801842999999975,7.234771,1000.53033,0,0
40.24,-0.12469818,6.942246000000001,6.837085000000001,1000.52045,0,0
40.28,-0.36843142,6.89458,6.7566023,1000.51025,0,0
40.32,-0.5134135999999999,6.908918400000001,6.680707000000001,1000.5001,0,0
40.36,-0.49432367,6.9184527000000005,7.1636133,1000.5202,0,0
40.4,-0.5182518,6.7468567,6.874812,1000.51276,0,0
40.44,-0.32708701,7.0042515,6.803794,1000.51526,0,0
40.48,-0.43226826,6.680126,7.679656,1000.528,0,0
40.52,-0.3367086,7.2425814,6.8321943,1000.48987,0,0
40.56,-0.17899516,7.1949162,7.338773700000001,1000.5077,0,0
40.6,-0.3606642000000001,6.9756550000000015,7.149394,1000.5079,0,0
40.64,-0.27943483,7.0948195000000025,7.045234700000001,1000.52045,0,0
40.68,-0.45152965,6.7897606,6.832184,1000.4825,0,0
40.72,-0.4133222,6.8278940000000015,7.040495,1000.5002,0,0
40.76,-0.5376245,6.742097,6.614396000000001,1000.5027,0,0
40.8,-0.59023696,6.827895599999999,6.8984575,1000.4876,0,0
40.84,-0.42297122,6.985192999999999,7.0878315,1000.48486,0,0
40.88,-0.46601313,6.97566,7.0310163,1000.51044,0,0
40.92,-0.35610682,6.918462,6.931591,1000.5002,0,0
40.96,-0.39915603,7.0614595,7.054682700000001,1000.5053,0,0
41.0,-0.30358368,7.009028,6.7043342999999975,1000.5105,0,0
41.04,-0.5378286999999999,6.8517323,7.154099499999999,1000.5205,0,0
41.08,-0.3896876,6.7564020000000005,7.059409,1000.5002,0,0
41.12,-0.34191874,7.109128,6.6285753,1000.49786,0,0
41.16,-0.24157023,7.1663275,7.158826,1000.5002,0,0
41.2,-0.42800444,6.8517350000000015,7.229840299999997,1000.4775,0,0
41.24,-0.4136997,6.9852,7.0262575,1000.50287,0,0
41.28,-0.27033478,7.0805316,6.7847996,1000.51044,0,0
41.32,-0.5023863000000001,6.85645,7.031186999999999,1000.518,0,0
41.36,-0.3398283,7.0566444000000015,7.0264570000000015,1000.49255,0,0
41.4,-0.46880847,6.9279455999999975,6.695056,1000.4826,0,0
41.44,-0.51177824,6.722983,7.177969,1000.5306,0,0
41.48,-0.3587724,7.0757065,6.827628,1000.4952,0,0
41.52,-0.50688666,7.0566387000000015,6.5483036,1000.48254,0,0
41.56,-0.33953023,7.228234,6.922327,1000.4952,0,0
41.6,-0.32512003,7.037569500000001,6.874989500000001,1000.5282,0,0
41.64,-0.095629826,7.166264999999999,6.9507455999999985,1000.5079,0,0
41.68,-0.41581708,6.89457,6.7661095,1000.4801,0,0
41.72,-0.3392955,7.0327983,6.4299707,1000.4698,0,0
41.76,-0.34878433,7.0566297,6.8608074000000006,1000.4826,0,0
41.8,-0.2149051,7.004196,6.7566547,1000.50543,0,0
41.84,-0.4108063,6.889797,7.0407256999999985,1000.49286,0,0
41.88,-0.20521511,7.1996226,6.628837599999999,1000.4776,0,0
41.92,-0.18127131,7.185322,6.761406,1000.4953,0,0
41.96,-0.25768486,7.0899887,7.045476,1000.52576,0,0
42.0,-0.23849489,7.185319,6.69987,1000.47504,0,0
42.04,-0.487,7.051853,6.73775,1000.4801,0,0
42.08,-0.35787820000000004,7.0566179999999985,6.8277100000000015,1000.4902,0,0
42.12,-0.27655444,7.0804490000000015,6.846653,1000.49786,0,0
42.16,-0.13310441,7.1328807,6.9934254000000005,1000.5105,0,0
42.2,-0.30511773,7.1042795,6.5626,1000.4852,0,0
42.24,-0.41022128,6.994647500000001,6.775653,1000.47003,0,0
42.28,-0.39582223,7.013712,6.8087990000000005,1000.48773,0,0
42.32,-0.32503459999999995,7.080466,6.794512700000001,1000.4775,0,0
42.36,-0.22464219,7.0614,7.078578,1000.5104,0,0
42.4,-0.06210476,7.2758937,6.785047500000001,1000.49286,0,0
42.44,-0.2006988,7.137663400000001,6.718767999999999,1000.4954,0,0
42.48,-0.28194022,7.1138306,6.8276606,1000.49036,0,0
42.52,-0.27713504,7.118596000000001,6.553067,1000.52057,0,0
42.56,-0.3774957000000001,7.113828999999999,6.803992299999999,1000.4878,0,0
42.6,-0.36791837,7.142428,6.898681599999999,1000.5027,0,0
42.64,-0.31531516,7.104295,6.8939495,1000.49536,0,0
42.68,-0.30095413,7.0566287,6.8939514000000015,1000.4903,0,0
42.72,-0.2435775,7.3235554999999986,6.4867945,1000.50543,0,0
42.76,-0.34393814,7.0709276,7.002846000000001,1000.4903,0,0
42.8,-0.3295797,7.0661607,6.7661276,1000.4928,0,0
42.84,-0.28176013,7.147191499999999,6.4868,1000.4902,0,0
42.88,-0.3295328,7.0899925,6.491536,1000.4751,0,0
42.92,-0.29127532,7.1567235,7.0407286,1000.50037,0,0
42.96,-0.33905688,7.266354,6.7329940000000015,1000.49536,0,0
43.0,-0.30080193,7.290186999999999,6.496276,1000.47754,0,0
43.04,-0.34379357,7.080457000000001,7.0312652999999985,1000.46515,0,0
43.08,-0.1143427,7.285419,6.7187967,1000.4777,0,0
43.12,-0.20513867,7.132889,6.794549000000001,1000.4852,0,0
43.16,-0.06172426,7.371216,6.676190400000001,1000.5004,0,0
43.2,-0.13340610000000006,7.2091527,6.7282705,1000.503,0,0
43.24,-0.3484732,7.166253,6.557834599999999,1000.49786,0,0
43.28,-0.5014116,6.923158,6.865572,1000.49554,0,0
43.32,-0.3678341,7.0375619999999985,7.0075808,1000.4979,0,0
43.36,-0.5207811,6.9231644,6.7329855,1000.49286,0,0
43.4,-0.49209398,7.1090592999999975,6.363703,1000.4753,0,0
43.44,-0.6020184000000001,6.8230660000000025,6.7945347000000025,1000.49304,0,0
43.48,-0.45383555,7.0375614,7.1685534,1000.5105,0,0
43.52,-0.3391114,7.047094,6.893959,1000.503,0,0
43.56,-0.5063967,6.985129,6.9839134000000005,1000.5031,0,0
43.6,-0.4203542,7.1138252999999985,6.723522,1000.4903,0,0
43.64,-0.35342696,7.1567240000000005,6.8134766,1000.5057,0,0
43.68,-0.61630565,6.775399,6.714055,1000.5055,0,0
43.72,-0.3534103,7.094758500000001,6.5578203,1000.49036,0,0
43.76,-0.23868337,6.913628599999999,7.1874970000000005,1000.4954,0,0
43.8,-0.0044662952,7.042325999999999,7.2727165,1000.5333,0,0
43.84,0.0051043928,7.013725999999999,6.5862293,1000.5032,0,0
43.88,-0.10482278,6.999426400000001,6.714059,1000.4853,0,0
43.92,-0.22908989,6.6991334,7.163828,1000.5133,0,0
43.96,0.0003490299,7.175788400000001,6.8797646,1000.48804,0,0
44.0,0.05293517,7.175788400000001,7.16383,1000.4804,0,0
44.04,-0.1573684,6.8707285,6.8750315,1000.48303,0,0
44.08,-0.11434133,7.0423244999999985,6.756672,1000.49567,0,0
44.12,-0.23382474,6.837362,6.8845024000000015,1000.5082,0,0
44.16,-0.22903606,6.9612927,7.1117544000000015,1000.5234,0,0
44.2,-0.13821426,7.17102,6.9365815999999985,1000.48816,0,0
44.24,-0.15732235,6.9565259999999975,7.0928183,1000.49567,0,0
44.28,-0.25290954,7.07569,7.1401634000000005,1000.4956,0,0
44.32,-0.5150673,6.9517407,6.8609,1000.51324,0,0
44.36,-0.5723891999999999,6.808742999999999,7.1307649999999985,1000.4727,0,0
44.4,-0.38594118,6.942206,6.969798,1000.48285,0,0
44.44,-0.34767425,6.994636999999999,6.714142999999999,1000.5006,0,0
44.48,-0.25203058,6.994636,7.040821,1000.4752,0,0
44.52,-0.31412998,7.0423007,6.657338,1000.48535,0,0
44.56,0.034833744,7.0994983,7.192329400000001,1000.498,0,0
44.6,0.16870631,7.0375323000000005,7.343833999999997,1000.531,0,0
44.64,-0.13239276,6.980333,6.562659299999999,1000.5055,0,0
44.68,0.0014893114999999998,7.1995935,6.6762896,1000.4904,0,0
44.72,-0.38085932,6.8754663,6.8798723,1000.4829,0,0
44.76,-0.753646,6.4369426,7.3485823,1000.4778,0,0
44.8,-0.5863148,6.7991996,6.3780317,1000.4703,0,0
44.84,-0.55282056,7.2710880000000015,6.6242247,1000.5107,0,0
44.88,-0.5671242,6.918362599999999,7.291778599999999,1000.4981,0,0
44.92,-0.7152576999999999,6.994625599999999,6.6384344,1000.48035,0,0
44.96,-0.37108332,7.480814,6.553219,1000.4806,0,0
45.0,-0.96851355,6.7515300000000025,7.3722744,1000.5032,0,0
45.04,-0.7533963,6.7372293,7.0077276,1000.49054,0,0
45.08,-0.6864314,6.966023,6.657386,1000.47046,0,0
45.12,-0.4617402,7.1137857,6.567436,1000.4703,0,0
45.16,-0.4043445,7.0708850000000005,7.3344125999999985,1000.5286,0,0
45.2,-0.81061363,6.808724400000001,6.61005,1000.52094,0,0
45.24,-0.16528061,7.5999713,7.1355743,1000.4806,0,0
45.28,-0.15091261,7.3187440000000015,7.040889,1000.49066,0,0
45.32,-0.18433559,6.741989599999999,7.263409599999999,1000.5057,0,0
45.36,-0.6350584,6.722958,6.8939962,1000.5006,0,0
45.4,-0.9027453,6.8230559999999985,6.8655880000000025,1000.5006,0,0
45.44,-0.6111963,6.8850217,7.400573700000002,1000.5261,0,0
45.48,-0.3196461,7.0327854000000025,7.036022999999999,1000.5208,0,0
45.52,-0.10456799,7.1853166,6.8703175000000005,1000.516,0,0
45.56,-0.25276685,7.008953999999999,6.6856737000000015,1000.4831,0,0
45.6,-0.26711822,6.942222,6.6146563999999985,1000.506,0,0
45.64,-0.14286232,7.061387,6.7235460000000025,1000.511,0,0
45.68,-0.34841287,7.0804534,6.3968706,1000.5234,0,0
45.72,-0.5348455,6.823060000000001,6.8087616,1000.50073,0,0
45.76,-0.46794367,6.8897914999999985,6.865573,1000.53864,0,0
45.8,-0.46318406,6.9279246,7.0265407999999985,1000.49066,0,0
45.84,-0.39628586,6.8897924,6.7093344,1000.5186,0,0
45.88,-0.36762488,7.089989,6.756676700000001,1000.4881,0,0
45.92,-0.38198447,6.980358,6.7424717,1000.5235,0,0
45.96,-0.40590253,6.9851259999999975,6.699859599999999,1000.50336,0,0
46.0,-0.36768198,7.1281223,7.036001,1000.5286,0,0
46.04,-0.45373625,6.946994,7.3626738,1000.50323,0,0
46.08,-0.44419685,6.8373637,7.3958119999999985,1000.521,0,0
46.12,-0.36773312,6.799231,7.2206383,1000.49304,0,0
46.16,-0.30561942,6.846897599999999,7.140151,1000.5135,0,0
46.2,-0.3821153,6.8182990000000006,7.1827583,1000.5183,0,0
46.24,-0.48250902,6.8802648,6.917631,1000.4906,0,0
46.28,-0.31523374,6.9994286999999975,6.870285000000001,1000.49835,0,0
46.32,-0.3678342,6.808767,7.073861999999999,1000.53107,0,0
46.36,-0.17469525,6.8659186000000005,7.0314302,1000.5084,0,0
46.4,-0.25110644,6.789651400000001,6.9651556,1000.4957,0,0
46.44,-0.27973790000000004,6.875448,6.884675,1000.5034,0,0
46.48,-0.3322574,6.584687,6.856273700000001,1000.5009,0,0
46.52,-0.04539986,7.0565743,6.9983119999999985,1000.5035,0,0
46.56,-0.22698134,6.9946074000000005,7.0125199999999985,1000.52106,0,0
46.6,-0.42767477,6.7944107,7.381809,1000.5109,0,0
46.64,-0.21251065,6.932639599999999,7.0930176,1000.49835,0,0
46.68,-0.2602722,6.9421716,7.258724000000001,1000.4931,0,0
46.72,-0.23631488,6.966003,6.9367905,1000.5211,0,0
46.76,-0.24583068,6.8373050000000015,6.8042307,1000.5463,0,0
46.8,-0.33179423,6.7991705,7.1119747,1000.5085,0,0
46.84,-0.4464512,6.660939,7.0930414000000015,1000.49567,0,0
46.88,-0.31734177,6.7181362999999985,7.509674,1000.5234,0,0
46.92,-0.11654261,6.8372993000000015,7.2019424,1000.5235,0,0
46.96,-0.121245824,6.9087954,7.43867,1000.4806,0,0
47.0,0.0126543045,6.9135604000000015,7.5238943,1000.54114,0,0
47.04,-0.12114006,6.7419634,7.1404114000000005,1000.5085,0,0
47.08,-0.39831036,6.6752305,6.998385400000001,1000.5159,0,0
47.12,-0.17360488,6.880191,7.443424,1000.5389,0,0
47.16,-0.26436278,6.703827,7.1120205,1000.5032,0,0
47.2,-0.06833245,6.8515882,7.08362,1000.5413,0,0
47.24,-0.14475097,6.7848554000000005,7.0883600000000015,1000.52625,0,0
47.28,-0.1685953,6.694289,6.738019,1000.5035,0,0
47.32,-0.049030915,6.8658842999999985,6.9084635,1000.52374,0,0
47.36,-0.27085313,6.7753676999999985,6.988769500000001,1000.5337,0,0
47.4,-0.117920995,6.7610683000000025,6.8846110000000005,1000.5337,0,0
47.44,-0.12750092,6.8421,6.9698286,1000.4882,0,0
47.48,-0.10840072,6.9231320000000025,7.069249,1000.5261,0,0
47.52,-0.008041336999999999,6.8611674,7.1402636,1000.5185,0,0
47.56,0.03495662,7.0327635,7.002964,1000.49567,0,0
47.6,-0.027207464,6.908834,6.988758,1000.48303,0,0
47.64,0.030132413,7.0089320000000015,6.950882000000001,1000.5109,0,0
47.68,0.039681867,7.047064999999999,7.0361004000000005,1000.51855,0,0
47.72,-0.08462348,6.975567,6.9698160000000025,1000.4985,0,0
47.76,-0.10375792,6.970801400000001,6.7662354,1000.48315,0,0
47.8,-0.21849348,6.9660350000000015,6.9887495,1000.5363,0,0
47.84,-0.36668646,6.865937700000001,6.8987940000000005,1000.52106,0,0
47.88,-0.1802931,6.975569,6.960339500000001,1000.5338,0,0
47.92,-0.19465792,6.9565034,7.017150999999999,1000.51605,0,0
47.96,-0.137318,7.0280023,6.827773,1000.5059,0,0
48.0,-0.032185137,7.070901400000001,6.8798494,1000.48816,0,0
48.04,-0.2903111,6.780142,6.931926,1000.53143,0,0
48.08,-0.23297244,6.9946375,7.0786905,1000.5161,0,0
48.12,-0.2760135,6.813509,6.941391,1000.50604,0,0
48.16,-0.1183028,7.10427,6.756747200000001,1000.5186,0,0
48.2,-0.18523781,7.132869199999999,6.3827276,1000.4831,0,0
48.24,-0.2712946,6.9326744000000025,6.9697914,1000.5188,0,0
48.28,-0.34779298,6.837343700000001,7.130759200000001,1000.53644,0,0
48.32,-0.33824990000000005,6.8468776,7.050273,1000.51855,0,0
48.36,-0.2660228,6.994627499999999,7.168682,1000.5238,0,0
48.4,-0.2277831,7.0375266000000005,7.012446400000001,1000.5059,0,0
48.44,-0.11306662,7.023227,7.0029774000000025,1000.5009,0,0
48.48,-0.11784512,6.970795,6.965103,1000.52356,0,0
48.52,-0.13218315,7.013694,6.6478977,1000.55927,0,0
48.56,-0.24689731,6.994627499999999,7.1497449999999985,1000.52356,0,0
48.6,-0.2899143,6.9326625,6.7662581999999984,1000.53143,0,0
48.64,-0.3185915,6.913595699999999,7.201824,1000.51855,0,0
48.68,-0.36160868,6.8659306,6.733117,1000.5211,0,0
48.72,-0.25167197,6.9803276,7.0834637,1000.5286,0,0
48.76,-0.371166,6.942195,6.752055,1000.49835,0,0
48.8,-0.39984363,6.946961999999999,7.0976677,1000.5515,0,0
48.84,-0.380723,6.8468637,6.9319630000000005,1000.5134,0,0
48.88,-0.26600665,6.932662,6.913025,1000.51855,0,0
48.92,-0.28990436,6.9755607,6.685774,1000.511,0,0
48.96,-0.28034323,6.908828999999999,7.3012466,1000.5388,0,0
49.0,-0.29468137,6.927895,7.026651400000001,1000.5439,0,0
49.04,-0.23254283,7.027993,7.0408545,1000.51624,0,0
49.08,-0.35203707,6.808731,7.2302313,1000.55164,0,0
49.12,-0.1799625,6.775366,6.8514795,1000.5213,0,0
49.16,-0.20386006,6.7944317,6.5816183000000015,1000.5136,0,0
49.2,-0.32813400000000004,6.88023,6.4348516,1000.5136,0,0
49.24,-0.40938973,6.904062700000001,6.316491,1000.53143,0,0
49.28,-0.47630537,6.7896646999999986,7.135544,1000.52124,0,0
49.32,-0.12175545,6.8849754,7.164028,1000.54645,0,0
49.36,-0.23165542,6.7658105,7.282391499999999,1000.52637,0,0
49.4,-0.21728936,6.861141,6.9273130000000025,1000.5314,0,0
49.44,-0.14077479,7.1471339999999985,6.548564,1000.49097,0,0
49.48,-0.49444473,6.9040384,6.685865400000001,1000.50854,0,0
49.52,-0.41315696,6.7038417,7.069354,1000.53143,0,0
49.56,-0.3605436,6.5894437,7.1829834,1000.5693,0,0
49.6,-0.14063711,6.7848716,6.2881839999999976,1000.52124,0,0
49.64,-0.2600967,6.937401,6.619596499999999,1000.5338,0,0
49.68,-0.5229526,6.7372046,6.316597,1000.52625,0,0
49.72,-0.44166481,6.6895380000000015,6.7284926999999985,1000.5465,0,0
49.76,-0.58502567,6.4559760000000015,6.7237625,1000.5363,0,0
49.8,-0.3173056,6.5465393,6.700094,1000.5464,0,0
49.84,-0.18343778,6.6990685,6.5722685,1000.55927,0,0
49.88,-0.23598677,6.761033500000001,6.193518599999999,1000.5286,0,0
49.92,-0.3697791,6.7229,6.562806,1000.55164,0,0
49.96,-0.39842457,6.5084040000000005,6.2266665,1000.53394,0,0
50.0,-0.30279744,6.460737,7.1356754,1000.55164,0,0
50.04,-0.34100258,6.4845690000000005,6.846879,1000.549,0,0
50.08,-0.10675889,6.7848615999999975,6.245613,1000.5289,0,0
50.12,-0.21665664,6.646631,6.4207897,1000.5314,0,0
50.16,-0.35523766,6.4750337999999985,6.510746,1000.539,0,0
50.2,-0.4985962,6.322503,6.6101723,1000.54175,0,0
50.24,-0.3216991,6.5703625999999975,6.2835025999999985,1000.54913,0,0
50.28,-0.541539,6.308202,6.6149130000000005,1000.5642,0,0
50.32,-0.40767118,6.3129673,6.477619,1000.5465,0,0
50.36,-0.5134071,6.3892465,6.5959252999999975,1000.55414,0,0
50.4,-0.25050867,6.7467375,6.1650953,1000.544,0,0
50.44,-0.16924202,6.761037299999999,6.458629599999999,1000.54663,0,0
50.48,-0.2122481,6.670472599999999,6.54385,1000.5668,0,0
50.52,-0.22179917,6.7848697,6.4018183,1000.55176,1,3
50.56,-0.32693845,6.4750432999999985,6.482304599999999,1000.5542,1,3
50.6,-0.25045016,6.470276,6.600666,1000.55164,1,3
50.64,-0.12616526,6.6800039999999985,6.4491663,1000.57935,1,3
50.68,-0.11181445,6.7562690000000005,6.221916,1000.53656,1,3
50.72,-0.16438015,6.675237700000001,6.387621,1000.5795,1,3
50.76,-0.17871313,6.6228046,6.5391226,1000.58466,1,3
50.8,-0.23605724,6.6275705999999985,6.392357,1000.5819,1,3
50.84,-0.13566779,6.6657033,6.406562,1000.5745,1,3
50.88,-0.33640885,6.6228037,6.1414366,1000.5771,1,3
50.92,-0.3698611,6.6609364,6.1745777,1000.56433,1,3
50.96,-0.17865247,6.7467337,6.7616453,1000.59955,1,3
51.0,-0.25989848,6.656169,6.9226160000000005,1000.6073,1,3
51.04,-0.054354772,6.8992634000000015,6.581740400000001,1000.59467,1,3
51.08,-0.11170098,6.9707613,6.3260830000000015,1000.5896,1,3
51.12,-0.14992872,6.9707613,6.676429700000001,1000.6173,1,3
51.16,-0.17859752,6.894496000000001,6.4586487,1000.62994,1,3
51.2,-0.21682599,6.870663,6.761651,1000.63257,1,3
51.24,-0.14511538,6.884962,6.444446599999999,1000.5921,1,3
51.28,-0.15944266,6.9230943,6.4965267,1000.60474,1,3
51.32,-0.14537404,7.0041327,6.1792974,1000.6199,1,3
51.36,-0.116695225,7.10423,6.543846,1000.6227,1,3
51.4,-0.23619035,6.908801,6.5722523,1000.6351,1,3
51.44,-0.30788738,6.970766499999999,6.761628999999999,1000.63763,1,3
51.48,-0.37002486,6.9850660000000016,6.695347,1000.65295,1,3
51.52,-0.21707112,7.018432000000002,6.7995043000000015,1000.63257,1,3
51.56,-0.26486918,7.0708637,6.7332220000000005,1000.65027,1,3
51.6,-0.14059427,7.042264500000001,6.932067,1000.64777,1,3
51.64,-0.1692731,7.0470314,6.6290655,1000.65546,1,3
51.68,-0.09757602,7.261525999999999,6.392345400000001,1000.64264,1,3
51.72,-0.293548,6.8563695,7.0551615000000005,1000.668,1,3
51.76,-0.26486918,7.0851636,6.8610506,1000.66046,1,3
51.8,-0.24097013,7.0803976,7.0220213000000005,1000.6555,1,3
51.84,-0.1883923,7.113764,7.0078179999999985,1000.66815,1,3
51.88,-0.1740529,7.1232963000000025,6.8657856,1000.6756,1,3
51.92,-0.17883268,7.0946975000000005,6.8799887,1000.653,1,3
51.96,-0.22663073,7.061331299999999,6.619596499999999,1000.6706,1,3
52.0,-0.2839884,7.0946975000000005,6.932067,1000.7086,1,3
52.04,-0.26964894,7.018432000000002,6.8752546,1000.7034,1,3
52.08,-0.29832777,6.994599000000001,6.922599000000001,1000.69086,1,3
52.12,-0.12147503,7.1661953999999985,6.6006584,1000.70593,1,3
52.16,-0.1740529,7.1661953999999985,6.5959244,1000.7085,1,3
52.2,-0.24097013,6.9850660000000016,6.917864,1000.7237,1,3
52.24,-0.16449328,7.137596,6.775832,1000.706,1,3
52.28,-0.37958443,6.918335000000001,7.1072397,1000.7211,1,3
52.32,-0.26911783,7.0327187,6.955787700000001,1000.749,1,3
52.36,-0.3694709000000001,7.1757149999999985,6.8942432,1000.7338,1,3
52.4,-0.20216429,7.1709476,6.955791499999999,1000.73645,1,3
52.44,-0.3455315,6.9469194000000005,7.074153999999999,1000.754,1,3
52.48,-0.25947353,7.0851482999999975,6.700138000000001,1000.7388,1,3
52.52,-0.37895244,6.9755176999999975,6.7995625,1000.73895,1,3
52.56,-0.35025215,6.9183187,6.3639984000000025,1000.74146,1,3
52.6,-0.2450709,7.0708475,7.0126143,1000.75397,1,3
52.64,-0.21637055,7.061314,6.9747410000000025,1000.76666,1,3
52.68,-0.17811465,7.032714,7.1451816999999975,1000.77435,1,3
52.72,-0.16853487,6.9945807,7.064698,1000.7644,1,3
52.76,-0.058572485999999986,7.085145,6.63387,1000.77167,1,3
52.8,-0.06811193,7.132810000000001,6.7901077,1000.8022,1,3
52.84,-0.0585362,7.161409,6.875328,1000.82513,1,3
52.88,-0.19234918,7.047011,7.102581,1000.78436,1,3
52.92,-0.048929498,7.0613103000000015,7.031567599999999,1000.7998,1,3
52.96,-0.05847299,6.927846400000001,7.164132,1000.8023,1,3
53.0,0.0036927015,7.080375,6.482381,1000.80206,1,3
53.04,-0.14924623,7.018409299999999,6.53446,1000.8249,1,3
53.08,-0.3260721,6.8992453,6.870605499999999,1000.8375,1,3
53.12,-0.27825516,7.0136423,6.988967,1000.83496,1,3
53.16,-0.09660114,7.104206,6.9605637000000025,1000.84,1,3
53.2,-0.03922063,7.1280384,6.8280020000000015,1000.83,1,3
53.24,-0.25429162,7.1089716,7.0173798,1000.8399,1,3
53.28,-0.20169497,7.0088740000000005,6.9274282000000005,1000.84503,1,3
53.32,-0.024824753,6.999339999999999,7.1073369999999985,1000.878,1,3
53.36,0.022612616,6.94215,7.0078809999999985,1000.8427,1,3
53.4,0.06563528,7.085146400000001,6.78063,1000.8375,1,3
53.44,0.022622943,7.137579,6.577050999999999,1000.8576,1,3
53.48,-0.18768007,6.9945817,6.95107,1000.86273,1,3
53.52,-0.27849036,6.8754177,6.827976,1000.87787,1,3
53.56,-0.268924,6.918317,6.960539999999999,1000.86285,1,3
53.6,-0.5509261,6.8611174,6.9084625,1000.8982,1,3
53.64,-0.31192994,7.0327134,6.9037285000000015,1000.9134,1,3
53.68,-0.09205417,7.0946789999999975,7.3771687,1000.9234,1,3
53.72,0.11826511,7.108978,7.1167774,1000.9161,1,3
53.76,0.013115779,7.2138424,6.6859474,1000.9133,1,3
53.8,-0.35970294,6.8468175,6.823245,1000.94116,1,3
53.84,-0.40271482,6.970748,6.9179344,1000.90576,1,3
53.88,-0.25453454,6.9802804000000025,7.083639,1000.94116,1,3
53.92,0.008361012,7.061311999999999,7.296688,1000.95654,1,3
53.96,-0.025092065,7.094678,6.9321394,1000.9462,1,3
54.0,-0.048984706,7.2519740000000015,6.382949,1000.9237,1,3
54.04,-0.41702288,7.032711999999999,6.605467,1000.9487,1,3
54.08,-0.47437418,7.004112700000001,6.5344515,1000.92365,1,3
54.12,-0.30229524,7.0899104999999984,6.719093300000001,1000.9389,1,3
54.16,-0.44568336,6.9326143,6.9652824,1000.95886,1,3
54.2,-0.35008058,6.9469137000000005,6.823250999999999,1000.9412,1,3
54.24,-0.44089085,6.9421463,7.088379,1001.0018,1,3
54.28,-0.41698754,6.9516797000000015,6.91794,1000.97424,1,3
54.32,-0.264027,7.123276,6.865863,1000.98676,1,3
54.36,-0.42175338,7.1995406000000015,6.946348,1000.99176,1,3
54.4,-0.38350856,7.0994425,6.889536,1000.98944,1,3
54.44,-0.35960445,7.051777,7.0741777,1000.9791,1,3
54.48,-0.35960445,7.051777,7.0741777,1000.9868,1,3
54.52,-0.35960445,7.051777,7.0741777,1000.98944,1,3
54.56,-0.35960445,7.051777,7.0741777,1000.9995,1,3
54.6,-0.35960445,7.051777,7.0741777,1001.04755,1,3
54.64,-0.43605036,6.889713,7.0836496,1001.01465,1,3
54.68,-0.27830932,7.1089745,6.96529,1001.0247,1,3
54.72,-0.17314848,7.0231767000000005,7.0741825,1001.04,1,3
54.76,-0.32609429999999995,7.2186046,6.4161005,1001.02716,1,3
54.8,-0.38344598,7.0231759999999985,6.790119,1001.03723,1,3
54.84,-0.51727414,6.9183119999999985,6.7853850000000016,1001.0526,1,3
54.88,-0.43123138,6.894479,7.211482000000001,1001.04224,1,3
54.92,-0.2926131,7.042242,6.851668400000001,1001.0577,1,3
54.96,-0.14443122,7.2805696,7.017372,1001.0653,1,3
55.0,-0.067947626,7.313935300000002,6.562871,1001.0498,1,3
55.04,-0.19221616,7.1471057,6.6528254,1001.0475,1,3
55.08,-0.35950336,6.8420463000000025,6.988967999999999,1001.0779,1,3
55.12,-0.5220103,6.9802756,6.5628720000000005,1001.0576,1,3
55.16,-0.4359679,6.9802756,6.766452,1001.0829,1,3
55.2,-0.1635124,7.0708404000000025,7.1688776,1001.1054,1,3
55.24,-0.06313056,7.2186027,6.6528273,1001.11316,1,3
55.28,-0.110924244,7.20907,6.775923,1001.1056,1,3
55.32,-0.33006030000000003,6.9039927,6.847006,1001.07776,1,3
55.36,-0.3013504,6.951657300000001,6.9985094,1001.1031,1,3
55.4,-0.349113,6.856325599999999,7.0032473,1001.11066,1,3
55.44,-0.14355029,7.0803523,7.00325,1001.1108,1,3
55.48,0.04289086,7.209048700000001,7.007988,1001.0855,1,3
55.52,-0.095679,7.0279183000000005,6.794942999999999,1001.126,1,3
55.56,-0.14345485,6.9945520000000005,6.7333975000000015,1001.1334,1,3
55.6,-0.32982725,6.770523,7.0222006,1001.1005,1,3
55.64,-0.24852839,6.923052,6.73814,1001.1335,1,3
55.68,-0.35366190000000003,6.8467865,6.7050009999999975,1001.1284,1,3
55.72,-0.25325048,7.0708137,6.946459,1001.136,1,3
55.76,-0.30101300000000003,6.8372509999999975,7.1026974,1001.14606,1,3
55.8,-0.40613315,6.8849163,6.861246,1001.12335,1,3
55.84,-0.22924714,7.004079300000001,6.809170699999999,1001.1284,1,3
55.88,-0.24831973,6.956413,6.96541,1001.1486,1,3
55.92,-0.090561785,6.970712,7.0837727,1001.141,1,3
55.96,-0.009267375,7.156606,6.8328524,1001.1588,1,3
56.0,-0.1812981,7.004075500000001,7.277889999999997,1001.1637,1,3
56.04,-0.3151082000000001,6.927809700000001,7.069578999999999,1001.1739,1,3
56.08,-0.30551305,6.856311,6.979628599999999,1001.1764,1,3
56.12,-0.23856254,6.7991114,7.1642740000000025,1001.1916,1,3
56.16,-0.24808662,6.8753753,6.9559630000000015,1001.1663,1,3
56.2,-0.28629842,6.8992076,6.747652,1001.1865,1,3
56.24,-0.28145868,6.923039,6.9322996,1001.1967,1,3
56.28,-0.2670993,6.7895746,6.9417696,1001.21686,1,3
56.32,0.03406611,7.056501,7.031727,1001.1941,1,3
56.36,0.0048075914,7.104181,7.0979557,1001.1841,1,3
56.4,-0.32020766,6.965950500000001,6.7902203,1001.21936,1,3
56.44,-0.3823344,6.8420196,7.183176,1001.21686,1,3
56.48,-0.2723839,7.0374484,6.9938020000000005,1001.222,1,3
56.52,-0.4396692,7.080347,7.2589293,1001.2144,1,3
56.56,-0.57349086,6.903984,7.1453047000000005,1001.2372,1,3
56.6,-0.4874466,6.7895865,7.3630877,1001.2347,1,3
56.64,-0.31536075,6.832484700000001,6.9085865,1001.21185,1,3
56.68,-0.25799313,6.89445,7.0222130000000025,1001.2523,1,3
56.72,-0.20062411,6.994548,6.5108986,1001.26245,1,3
56.76,-0.22451167,6.961181599999999,6.851777,1001.2674,1,3
56.8,-0.30575907,6.9468812999999985,6.8139020000000015,1001.25995,1,3
56.84,-0.310526,7.0755786999999986,6.828107000000001,1001.27,1,3
56.88,-0.6928968000000001,6.8753824,7.311017,1001.2851,1,3
56.92,-0.5447135999999999,7.0088463,7.2494707,1001.2876,1,3
56.96,-0.3726285,7.11371,7.277878,1001.2623,1,3
57.0,-0.229223,7.242407000000001,7.315753999999999,1001.27496,1,3
57.04,-0.26266807,7.2471724,6.932269,1001.2802,1,3
57.08,-0.22442178,7.2710056,7.140583,1001.28265,1,3
57.12,-0.37736762,7.085108999999999,7.263678599999999,1001.2927,1,3
57.16,-0.43949366,7.080342999999999,7.187929,1001.31793,1,3
57.2,-0.3773412,7.161373599999999,7.206867999999999,1001.2978,1,3
57.24,-0.37733126,7.209039,7.372574,1001.31537,1,3
57.28,-0.492038,7.151840700000001,7.358371000000001,1001.31287,1,3
57.32,-0.41554543,7.194739,7.415185000000001,1001.33057,1,3
57.36,-0.38724473,7.2853127,7.244712,1001.3155,1,3
57.4,-0.29643083,7.399709700000002,7.4293537,1001.34326,1,3
57.44,-0.11480213,7.4044766000000015,7.372540499999999,1001.3332,1,3
57.48,-0.28209907,7.285313,7.282586,1001.3332,1,3
57.52,-0.40637875,7.3091455,7.273117,1001.3559,1,3
57.56,-0.34902394,7.3377447,7.08374,1001.3534,1,3
57.6,-0.37770632,7.4283094,7.467227,1001.3787,1,3
57.64,-0.51632446,7.30438,7.377272599999999,1001.3207,1,3
57.68,-0.42551222,7.332978999999999,7.67554,1001.351,1,3
57.72,-0.28212166,7.418777,7.315725299999999,1001.346,1,3
57.76,-0.29168484,7.4140105,7.282584,1001.33826,1,3
57.8,-0.30602804,7.3711114,7.282583,1001.3434,1,3
57.84,-0.2247752,7.347278999999999,7.424616,1001.37866,1,3
57.88,-0.29647675,7.3091464,7.5808506,1001.3838,1,3
57.92,-0.2869191,7.3472795,7.571380599999999,1001.36615,1,3
57.96,-0.19610806,7.48551,7.1547527,1001.3813,1,3
58.0,-0.30604684,7.371111999999999,7.618725,1001.36615,1,3
58.04,-0.18655601,7.533175,7.0837364,1001.3432,1,3
58.08,-0.25347614,7.533175,7.637661,1001.38354,1,3
58.12,-0.24870016,7.452144,7.656599000000001,1001.39136,1,3
58.16,-0.08619064,7.161384,7.2447050000000015,1001.3913,1,3
58.2,-0.16267152,7.285314599999999,7.557175599999999,1001.41425,1,3
58.24,-0.28694952,7.247182,7.2589073000000015,1001.39124,1,3
58.28,-0.282174,7.342513,7.1831570000000005,1001.35846,1,3
58.32,-0.047967896,7.490277000000002,7.415141999999999,1001.3938,1,3
58.36,-0.18238333,7.4044933,7.3346043,1001.35834,1,3
58.4,-0.14416656,7.4044940000000015,7.287258,1001.37866,1,3
58.44,-0.34972644,7.1423335,7.3393335,1001.4166,1,3
58.48,-0.13944006,7.2090664,7.5713177,1001.38104,1,3
58.52,-0.30675814,7.1566343,6.908499000000001,1001.40656,1,3
58.56,-0.13949832,7.309164999999999,7.2351694,1001.40643,1,3
58.6,-0.24467896,7.113737,6.89429,1001.4064,1,3
58.64,-0.22558805,7.1375704,7.301446,1001.40906,1,3
58.68,-0.21127364,7.085139,7.1925526,1001.40405,1,3
58.72,-0.14438465,7.185238000000001,7.1215334000000015,1001.394,1,3
58.76,-0.29258358,6.9612103,6.9463587,1001.37866,1,3
58.8,-0.27827245,6.9659767000000015,7.244624000000001,1001.40405,1,3
58.84,-0.115787394,7.2424383,6.951088,1001.3964,1,3
58.88,-0.18750614,7.113742,7.0173674,1001.40405,1,3
58.92,-0.29746825,7.094676,7.2966948,1001.39905,1,3
58.96,-0.4791308,6.994578999999999,6.851659,1001.4089,1,3
59.0,-0.34053978,7.0517783,7.291956,1001.414,1,3
59.04,-0.44094396,6.8849490000000015,6.9416075,1001.3812,1,3
59.08,-0.32147217,6.946915,7.1357164000000015,1001.394,1,3
59.12,-0.14464608,7.2186093,6.714351700000001,1001.40393,1,3
59.16,-0.18291114,6.95645,7.296680499999999,1001.414,0,0
59.2,-0.16859670000000002,6.956451,7.178317999999999,1001.39636,0,0
59.24,-0.1495091,7.037482700000001,6.941595,1001.40405,0,0
59.28,-0.23078576,7.008883999999999,6.818498599999999,1001.38873,0,0
59.32,-0.47936553,6.9230866,7.10256,1001.4141,0,0
59.36,-0.48233205,6.827711,7.0743199999999975,1001.4192,0,0
59.4,-0.5205362,6.703778999999999,7.0553856,1001.3812,0,0
59.44,-0.13808626,6.980238000000001,6.965437,1001.4242,0,0
59.48,-0.12370977,6.9754705,7.140614500000001,1001.4242,0,0
59.52,-0.33875809999999995,6.8896713000000025,6.875491,1001.39124,0,0
59.56,-0.042364627,7.228096000000002,6.941777,1001.39386,0,0
59.6,-0.08056027,6.8467702999999975,7.2637205,1001.42664,0,0
59.64,0.091566876,7.051731,6.9985990000000005,1001.41156,0,0
59.68,0.06293373,6.961165400000001,7.0128059999999985,1001.3989,0,0
59.72,-0.08998288,6.789568400000001,7.036482,1001.40894,0,0
59.76,0.22552411,7.2090244,6.5772476,1001.38116,0,0
59.8,-0.051653147,6.9468627000000005,6.927598,1001.4167,0,0
59.84,-0.123296,6.832464,6.7950399999999975,1001.4217,0,0
59.88,0.024912164,7.151822599999999,6.6624804000000015,1001.38116,0,0
59.92,-0.30962843,6.7561965,7.1406592999999985,1001.4014,0,0
59.96,-0.00844945,6.9516240000000025,7.1643360000000005,1001.4064,0,0
60.0,-0.118347846,7.056488000000001,6.8329315,1001.3812,0,0
60.04,-0.13262737,6.8991895,7.1596100000000025,1001.4014,0,0
60.08,-0.032220066,7.0278864,7.003378,1001.4141,0,0
60.12,-0.14688972,7.161349,6.9513035000000025,1001.41144,0,0
60.16,-0.084698044,7.0803160000000025,7.0128565,1001.3964,0,0
60.2,0.025271699,7.0898485,7.088609700000001,1001.40906,0,0
60.24,-0.1754458,7.046948,6.832954400000001,1001.39124,0,0
60.28,-0.36180112,6.870584,6.6388493,1001.4192,0,0
60.32,-0.22425905,6.9087434000000005,7.107457000000001,1001.39636,0,0
60.36,-0.26727727,6.8181787,6.9133463000000015,1001.3988,0,0
60.4,-0.013947681000000002,7.0326733999999975,6.989097599999999,1001.4014,0,0
60.44,-0.0378467,7.056506,7.0033007,1001.41394,0,0
60.48,0.22026272,7.2281027,7.0033007,1001.4243,0,0
60.52,0.05296956,7.0326733999999975,6.9180813,1001.38104,0,0
60.56,-0.08564474400000001,6.9611754,7.079051,1001.3963,0,0
60.6,-0.15256199,6.8849106,6.809189999999999,1001.3989,0,0
60.64,-0.13344279,6.8372445000000015,7.08852,1001.41144,0,0
60.68,-0.10954377,7.0898724,6.5487975999999986,1001.371,0,0
60.72,-0.06652552,7.0183740000000014,6.8849399999999985,1001.3913,0,0
60.76,-0.123883165,6.965942,7.1169259999999985,1001.42413,0,0
60.8,-0.14778218,6.9897747,6.7760496,1001.3911,0,0
60.84,-0.21947925,6.903977,7.0837850000000016,1001.4064,0,0
60.88,-0.099984154,6.9707089999999985,7.306303,1001.41644,0,0
60.92,-0.0043880790000000005,6.965942,7.126395,1001.4166,0,0
60.96,-0.06652552,7.0851054000000016,6.9133463000000015,1001.40393,0,0
61.0,-0.20036004,6.8658442,6.908612299999999,1001.42676,0,0
61.04,-0.13822259,6.9897747,6.8518,1001.3911,0,0
61.08,-0.18602061,6.937342599999999,6.894409,1001.4166,0,0
61.12,-0.14778218,6.9850081999999984,6.7997217,1001.37366,0,0
61.16,-0.29117632,6.8896766000000005,7.045911,1001.38116,0,0
61.2,-0.21947925,6.994541000000001,6.7429085,1001.38885,0,0
61.24,-0.34375414,6.8324785000000015,7.2210827,1001.40405,0,0
61.28,-0.29117632,6.9135100000000005,6.922815299999999,1001.37616,0,0
61.32,-0.13819134,6.9897738,6.9654284,1001.4014,0,0
61.36,-0.023475006,7.0946380000000016,6.8565369999999985,1001.4014,0,0
61.4,-0.08561093,7.0136065,6.8139277,1001.3838,0,0
61.44,-0.1190683,7.042206,6.9796314,1001.42676,0,0
61.48,-0.07604879,7.0660386,6.8565369999999985,1001.37616,0,0
61.52,-0.15730442,6.9468746,7.0222416,1001.37354,0,0
61.56,-0.21944077,6.9373417,7.159539,1001.40393,0,0
61.6,-0.2911365,6.8944426,6.875475,1001.414,0,0
61.64,-0.28635570000000005,6.9802402999999975,6.7476463,1001.38873,0,0
61.68,-0.14773966,6.9611740000000015,6.884944,1001.3863,0,0
61.72,-0.13817912,7.032672,6.880210000000001,1001.3988,0,0
61.76,-0.0951593,6.99454,6.851804,1001.42163,0,0
61.8,-0.12861681,6.970707400000001,7.0459146,1001.4091,0,0
61.84,-0.2576701,6.999306699999999,6.9843674,1001.4292,0,0
61.88,-0.21465068,6.9897733,6.908617,1001.4217,0,0
61.92,-0.104713924,6.999306699999999,6.908617,1001.43176,0,0
61.96,-0.052135035,7.128003,6.8470697,1001.3888,0,0
62.0,-0.052133605,7.104171000000001,6.657694,1001.38617,0,0
62.04,-0.18118744,7.0422053,6.8376017,1001.41394,0,0
62.08,-0.14294732,6.927808,6.993837400000001,1001.39124,0,0
62.12,-0.07124908,7.0660380000000025,6.8091946,1001.40393,0,0
62.16,-0.09514681,7.099403999999999,6.8044604999999985,1001.38617,0,0
62.2,-0.109484985,7.032672,6.6482259999999975,1001.39886,0,0
62.24,-0.2480981,6.9611740000000015,6.761851299999999,1001.3812,0,0
62.28,-0.2241978,6.96594,6.8139305,1001.39636,0,0
62.32,-0.29111415,6.937340700000001,6.870742999999999,1001.40137,0,0
62.36,-0.1711375,6.980228,7.173789,1001.4089,0,0
62.4,0.024859652000000003,7.0850916,6.6956167,1001.37854,0,0
62.44,0.11091502,7.0612583,6.813978,1001.36115,0,0
62.48,0.16351305,7.132756,6.520447,1001.4039,0,0
62.52,0.18743224,6.9611597000000005,7.0885773,1001.40155,0,0
62.56,0.11097555,7.07079,6.8660619999999986,1001.3684,0,0
62.6,0.22570722,7.137522,6.776109700000001,1001.40906,0,0
62.64,-0.03716056,6.851527000000001,7.098051,1001.3684,0,0
62.68,0.15404673,7.0183563,6.9512863,1001.39636,0,0
62.72,0.1397325,7.0612555,6.880273,1001.3964,0,0
62.76,0.06804936,7.0612555,6.960759,1001.40393,0,0
62.8,-0.25217104,6.818159599999999,7.0507145000000016,1001.40137,0,0
62.84,-0.03705971,7.004055,7.0791235,1001.4242,0,0
62.88,-0.022700101,6.9897547000000015,7.064921400000001,1001.39124,0,0
62.92,0.08247571,7.0088205000000015,7.192753,1001.3988,0,0
62.96,-0.041785344,7.0660186000000005,6.989174,1001.38367,0,0
63.0,-0.21383302,7.0755515,6.8708160000000005,1001.4013,0,0
63.04,-0.38588703,6.7895575,7.1690855,1001.37616,0,0
63.08,-0.21379395,6.927787,6.9891806,1001.39386,0,0
63.12,-0.13251586,6.894421,7.1832924,1001.40656,0,0
63.16,-0.05124028,7.0421834,6.7429953,1001.4041,0,0
63.2,-0.30932826,6.865821,7.1974993000000005,1001.40137,0,0
63.24,-0.47182393,6.799088,6.742997999999999,1001.4014,0,0
63.28,-0.2614924,6.9516177,6.7477350000000005,1001.37616,0,0
63.32,-0.3188324,6.727589,7.079144500000001,1001.38617,0,0
63.36,-0.19491939,7.0803227,6.80925,1001.39886,0,0
63.4,-0.013282998999999998,7.2566857,6.899204300000001,1001.4014,0,0
63.44,-0.19490916,6.9420924,6.9796896,1001.4292,0,0
63.48,-0.20446396,6.9802246,7.041238000000001,1001.39886,0,0
63.52,-0.2283592,7.0088243000000015,6.780845599999999,1001.4039,0,0
63.56,-0.22357428,7.037423,7.0175667,1001.394,0,0
63.6,-0.18054996,6.999291,6.875535,1001.394,0,0
63.64,-0.1948843,7.051723,6.9276133,1001.38617,0,0
63.68,-0.25701660000000004,6.984991,6.837661,1001.3661,0,0
63.72,-0.26657078,6.9992905,6.7808475,1001.3534,0,0
63.76,-0.37650147,6.923025,6.9702253,1001.3634,0,0
63.8,-0.34303844,6.9325585000000025,6.951287299999999,1001.40125,0,0
63.84,-0.3860525,6.889659,6.903944,1001.38605,0,0
63.88,-0.47686368,6.875359,7.083852,1001.37866,0,0
63.92,-0.40038168,6.9516240000000025,7.0412426,1001.3611,0,0
63.96,-0.48641342,6.9754570000000005,6.653022,1001.38855,0,0
64.0,-0.4959669,7.0278893,7.112260000000001,1001.38605,0,0
64.04,-0.5342003000000001,6.9230240000000025,7.2116823,1001.39636,0,0
64.08,-0.32388377,6.9325576,7.159603999999999,1001.38855,0,0
64.12,-0.31431907,7.027889,7.2495584000000015,1001.40125,0,0
64.16,-0.16136023,7.0898533,7.0270424,1001.4064,0,0
64.2,-0.28563005,6.822926,6.960761,1001.39624,0,0
64.24,-0.30474508,6.8372259999999985,6.5820092999999975,1001.3911,0,0
64.28,-0.4576931,6.732361,6.8424025,1001.4066,0,0
64.32,-0.4913975,6.7847990000000005,6.804504400000001,1001.40405,0,0
64.36,-0.24285175,7.0469604000000015,6.7334869999999984,1001.4013,0,0
64.4,-0.2715366,6.8848977,7.348960000000001,1001.4189,0,0
64.44,-0.070790246,6.961162599999999,7.173786,1001.3812,0,0
64.48,-0.24286665,6.846765,6.970206299999999,1001.37616,0,0
64.52,-0.18073553,6.961162599999999,7.0601597000000025,1001.3661,0,0
64.56,-0.18551974,6.861065400000001,6.7524232999999985,1001.3863,0,0
64.6,-0.2859001,6.8276997,7.1737843,1001.3989,0,0
64.64,-0.28590512,6.8991976,6.7524223,1001.3661,0,0
64.68,-0.23333207,6.9706964000000005,7.0175475999999986,1001.4014,0,0
64.72,-0.2859162,6.918264999999999,7.126439,1001.4066,0,0
64.76,-0.17598546,6.9277973,7.1217039999999985,1001.3787,0,0
64.8,-0.22378856,6.942097,6.87078,1001.3837,0,0
64.84,-0.046940565,6.9992967,6.880248,1001.39636,0,0
64.88,-0.21423876,6.8324669999999985,6.894450999999999,1001.3812,0,0
64.92,-0.027831465,6.9516306,7.315811999999997,1001.39136,0,0
64.96,-0.25248638,6.8086348,6.932326299999999,1001.38855,0,0
65.0,-0.13299605,6.846767,7.2258587,1001.4062,0,0
65.04,-0.27639648,6.8753660000000005,6.9796686,1001.39136,0,0
65.08,-0.28596082,7.0135964999999985,6.9796676999999985,1001.3636,0,0
65.12,-0.2811864,6.813401,7.296873,1001.39136,0,0
65.16,-0.33376867,6.8086350000000015,7.258997999999999,1001.3837,0,0
65.2,-0.19037995,7.046962700000001,6.7571497,1001.39124,0,0
65.24,-0.21906349,6.9468656000000015,6.638789,1001.37103,0,0
65.28,-0.24296759,6.8706007,7.093292,1001.40393,0,0
65.32,-0.28517777,6.8515143,7.21646,1001.39355,0,0
65.36,-0.37118626,6.8658137,6.4778957,1001.39136,0,0
65.4,-0.7200823000000001,6.751415700000001,7.429514,1001.40393,0,0
65.44,-0.6818175999999999,6.7466483,6.937137599999999,1001.37604,0,0
65.48,-0.1703524,7.2137704,7.1785955,1001.3734,0,0
65.52,-0.53358954,6.598883,7.050769,1001.4217,0,0
65.56,-0.27067232,6.975441,6.918208,1001.39355,0,0
65.6,-0.47617424,6.679913000000001,6.7241,1001.3862,0,0
65.64,-0.47614974,6.865809,6.6578206999999985,1001.419,0,0
65.68,-0.17022133,7.1375020000000005,6.3832264,1001.38617,0,0
65.72,0.15482982,7.342463499999999,7.027108,1001.4064,0,0
65.76,0.0544924,7.2614307,6.984503,1001.39136,0,0
65.8,-0.15579098,7.0517015,7.476883,1001.4013,0,0
65.84,-0.55727005,6.737108,7.1312732999999975,1001.39874,0,0
65.88,-0.6241576,6.7085085000000015,7.1028699999999985,1001.3634,0,0
65.92,-0.7197256999999999,6.6513085000000025,6.946637,1001.40125,0,0
65.96,-0.50460833,6.861037,6.889827,1001.36084,0,0
66.0,-0.39464486,6.908701400000001,7.060268400000001,1001.38873,0,0
66.04,-0.270342,7.175628,6.9466449999999975,1001.38605,0,0
66.08,-0.26554474,7.0612307,6.9419117,1001.3863,0,0
66.12,-0.4853843,6.856267999999999,6.8851023,1001.3407,0,0
66.16,-0.5092483,6.827667699999999,7.183372500000001,1001.3888,0,0
66.2,-0.34192723,6.8229,7.1975784,1001.3813,0,0
66.24,-0.35146937,6.870565400000001,6.932453,1001.3686,0,0
66.28,-0.25107074,6.9277634999999975,6.960862,1001.39374,0,0
66.32,-0.32273287,7.0278606,6.8661766,1001.36096,0,0
66.36,-0.32332084,6.9754429999999985,6.9986869999999985,1001.37354,0,0
66.4,-0.42847204,6.870578299999999,6.9655457,1001.3863,0,0
66.44,-0.37589127,6.899177000000001,7.1833285999999985,1001.37604,0,0
66.48,-0.4332444,6.8181458,6.9892187,1001.3812,0,0
66.52,-0.35198396,7.042174,7.046032,1001.39886,0,0
66.56,-0.5575129,6.8467449999999985,7.0081570000000015,1001.3812,0,0
66.6,-0.3902169,6.903944,6.9040003,1001.3963,0,0
66.64,-0.34241292,6.9563755999999985,6.9608135,1001.38605,0,0
66.68,-0.42366582,6.961142,6.866126,1001.3913,0,0
66.72,-0.49057972,6.856278,7.0886429999999985,1001.3886,0,0
66.76,-0.41410047,6.937309299999999,6.9655485,1001.38116,0,0
66.8,-0.47145337,6.9802084,7.0839089999999985,1001.39105,0,0
66.84,-0.5096873,6.908710000000001,6.9276743000000005,1001.38367,0,0
66.88,-0.4810061,6.918243,6.8992679999999975,1001.3888,0,0
66.92,-0.25635034,7.03264,6.993956599999999,1001.3759,0,0
66.96,-0.52401555,6.8944100000000015,7.079176,1001.36597,0,0
67.0,-0.28502178,7.099371400000001,6.9182070000000015,1001.3963,0,0
67.04,-0.28979847,6.903942999999999,7.0602399999999985,1001.37354,0,0
67.08,-0.40451068,6.9611410000000005,6.9513482999999985,1001.371,0,0
67.12,-0.34236798,6.856277,6.8140516,1001.39124,0,0
67.16,-0.34236416,7.0564723,6.714629,1001.37604,0,0
67.2,-0.30890295,7.1804028,6.7572384,1001.39124,0,0
67.24,-0.36625725,6.9992740000000015,7.046037700000001,1001.3684,0,0
67.28,-0.51920694,6.918242,7.0223665,1001.38104,0,0
67.32,-0.27065334,7.008806699999999,6.5299892,1001.37616,0,0
67.36,-0.28996226,6.8848805,6.8045664000000015,1001.3886,0,0
67.4,-0.22782838,6.8753470000000005,6.8329725,1001.38617,0,0
67.44,-0.089218095,7.0421767000000015,6.804565400000001,1001.3735,0,0
67.48,-0.20393695,7.323403999999999,6.5536423,1001.3936,0,0
67.52,-0.3664544,7.127975,6.8471746,1001.3735,0,0
67.56,-0.55287033,6.765717,7.135973,1001.4089,0,0
67.6,-0.52419525,7.094609299999999,6.785626400000001,1001.3785,0,0
67.64,-0.41904408,6.9373130000000005,7.235394500000001,1001.38354,0,0
67.68,-0.56244004,6.713285000000001,7.2259254,1001.3988,0,0
67.72,-0.23741841,7.1279755000000025,6.738282000000001,1001.37854,0,0
67.76,-0.065349296,7.1327424,6.629389999999999,1001.36334,0,0
67.8,-0.12270931,7.104143,7.0318146,1001.37103,0,0
67.84,-0.16095325,7.108909599999999,6.638858,1001.3735,0,0
67.88,-0.21353415,7.056478,6.6767330000000005,1001.39124,0,0
67.92,-0.30435422,7.2137747,6.7950925999999985,1001.4089,0,0
67.96,-0.57680714,7.3329387000000015,6.421075,1001.39874,0,0
68.0,-0.7919019,7.3377047000000015,6.724076299999999,1001.3938,0,0
68.04,-1.1217124,7.1804085,6.1417437,1001.376,0,0
68.08,-0.8731662,7.7380958,5.6967096,1001.39624,1,4
68.12,-1.4993243,7.0803113,7.012873599999999,1001.41144,1,4
68.16,-1.671401,7.027879,5.9476330000000015,1001.3785,1,4
68.2,-1.5088905,7.4997687000000015,5.8624125,1001.37866,1,4
68.24,-1.3224828000000002,7.533133999999999,5.994976,1001.37854,1,4
68.28,-1.097835,7.4854693,6.013913,1001.371,1,4
68.32,-1.0304524,7.185164500000001,6.0849714000000015,1001.4064,1,4
68.36,-0.91095066,7.147032,6.009222,1001.37866,1,4
68.4,-0.7723183000000001,6.8848705,6.3548345999999984,1001.40125,1,4
68.44,0.13107802,6.923003,7.282779700000002,1001.3988,1,4
68.48,0.8480667,7.113664999999999,6.350103400000001,1001.38104,1,4
68.52,1.2017863000000002,7.380592,6.3595742999999985,1001.37854,1,4
68.56,1.2591629999999998,6.8610362999999985,7.1076117,1001.3963,1,4
68.6,1.1109958,6.6656070000000005,7.2023,1001.37354,1,4
68.64,0.7812074000000001,6.3843803,6.9182377000000015,1001.38104,1,4
68.68,1.3022212,7.3186255,6.094453,1001.371,1,4
68.72,1.1301645,7.251892599999999,6.2554245,1001.38873,1,4
68.76,0.83861077,7.366289,6.387988,1001.37854,1,4
68.8,1.2114506,7.8620104999999985,6.127598,1001.39874,1,4
68.84,0.7860651999999999,7.833411,7.1644335,1001.41644,1,4
68.88,0.17426555,7.9764075,6.866167999999999,1001.38605,1,4
68.92,0.45628637,8.171837,8.570555,1001.4316,1,4
68.96,-0.27978536,7.7285457,9.010856,1001.4292,1,4
69.0,-1.0158627,7.9907059999999985,8.187071000000001,1001.41394,1,4
69.04,0.1504284,6.565506,9.545846,1001.41394,1,4
69.08,0.7048979999999999,5.5216293,10.975638,1001.46967,1,4
69.12,-0.39444166,4.506352,7.628414999999999,1001.42914,1,4
69.16,-0.96800196,4.801878,8.627376,1001.39374,1,4
69.2,-1.4842075,4.935342,7.5053234,1001.38104,1,4
69.24,-1.1400453000000002,5.249934,6.141816,1001.35333,1,4
69.28,-0.5760143,5.4405956,6.515836,1001.37354,1,4
69.32,-0.5377607,5.5931253,7.424842999999999,1001.3911,1,4
69.36,-0.5712069000000001,5.612191,7.1833887,1001.3936,1,4
69.4,0.011946276,5.8505187,6.695746400000001,1001.3938,1,4
69.44,0.46126312,5.850518,8.220227000000001,1001.40375,1,4
69.48,0.68114924,6.3033404000000015,7.8367414,1001.40375,1,4
69.52,0.6285876,6.3462396,8.788358,1001.4062,1,4
69.56,1.2547561,6.184176,10.038242,1001.42896,1,4
69.6,1.364704,6.656064999999999,8.878313,1001.39124,1,4
69.64,1.2643461,7.3901143,6.1370955,1001.33295,1,4
69.68,2.6839564,6.6369979999999975,6.5489893,1001.39374,1,4
69.72,1.81883,4.6922426,9.261806,1001.4139,1,4
69.76,1.5750772,4.6207433,7.0366364,1001.39636,1,4
69.8,1.3600012,4.8781370000000015,6.3738213,1001.35315,1,4
69.84,1.2644183999999998,5.1307645,6.923012700000001,1001.3684,1,4
69.88,0.6908563,5.3738585,7.027171000000001,1001.3583,1,4
69.92,0.40408617,6.041176,6.3075438,1001.38855,1,4
69.96,0.31806397,6.7656927,6.62475,1001.36835,1,4
70.0,0.43279248,6.8419570000000025,7.7894144,1001.3961,1,4
70.04,-0.3080618,6.603628,8.878328,1001.3961,1,4
70.08,0.021758929,6.6322274000000006,9.915165,1001.4518,1,4
70.12,-0.55658305,6.5225964,11.515395,1001.41644,1,4
70.16,0.026569188,7.6618032,8.054546,1001.3558,1,4
70.2,1.1402776,7.20898,7.775218,1001.38855,1,4
70.24,0.0074794292,5.230859,8.930414,1001.4139,1,4
70.28,-0.79551244,5.1831927,7.0839977,1001.3558,1,4
70.32,-0.6138637,5.6646147,8.239194,1001.4215,1,4
70.36,-0.49493515,5.178439,6.8377589999999975,1001.38354,1,4
70.4,0.092976436,5.207038400000001,6.9040394,1001.3886,1,4
70.44,0.092976436,5.207038400000001,6.9040394,1001.4062,1,4
70.48,0.092976436,5.207038400000001,6.9040394,1001.35315,1,4
70.52,0.092976436,5.207038400000001,6.9040394,1001.3684,1,4
70.56,0.37020224,5.3500357,7.3585424,1001.41644,1,4
70.6,0.98197997,5.5835977,8.707844,1001.41644,1,4
70.64,0.64260584,5.4978004,8.622625,1001.3712,1,4
70.68,0.7525337,6.07932,8.149183,1001.3961,1,4
70.72,0.5039763,6.8086033,7.831977,1001.34827,1,4
70.76,1.5364053,6.3843803,7.9976807,1001.3813,1,4
70.8,2.2820482,5.8886585,8.6747,1001.4316,1,4
70.84,2.009592,5.583599,7.453222999999999,1001.38605,1,4
70.88,1.9426672,5.531167,7.150221000000001,1001.3712,1,4
70.92,1.9283192,5.7647285,6.525278,1001.3838,1,4
70.96,1.8566146,5.99829,6.894561,1001.3659,1,4
71.0,0.9962443,5.98399,7.7088785,1001.3837,1,4
71.04,0.45133847,6.5130787,5.9145374,1001.3584,1,4
71.08,0.88629305,7.0516996,7.974003999999999,1001.3938,1,4
71.12,0.21233265,6.770473,7.902986500000001,1001.3938,1,4
71.16,0.12151019,7.3281603,7.292248,1001.36615,1,4
71.2,-0.43773636,6.503546,9.720996,1001.42664,1,4
71.24,-0.6671746000000001,6.8801045,8.258064,1001.39136,1,4
71.28,-0.37083384,7.008802,8.740973,1001.3709,1,4
71.32,-0.21229628,5.9458400000000005,8.532733,1001.40137,1,4
71.36,-0.5181784,5.7170444000000025,7.3491344,1001.37604,1,4
71.4,-0.75714475,5.636012,6.795211,1001.35815,1,4
71.44,-0.70932615,5.6598444,7.084011,1001.36084,1,4
71.48,-0.513324,5.5645127,7.334938,1001.3911,1,4
71.52,0.20845012,6.0983667,7.690020599999999,1001.3911,1,4
71.56,-0.13567038,5.826672,7.368083,1001.38855,1,4
71.6,0.08900581,6.141264,6.335985,1001.36066,1,4
71.64,0.892035,6.308093,6.099267,1001.3431,1,4
71.68,-0.06389877,5.6455410000000015,6.9041185,1001.38104,1,4
71.72,0.39499253,6.508287,6.672135400000001,1001.4016,1,4
71.76,0.6435645000000001,6.7323146,8.28657,1001.42413,1,4
71.8,0.2612024,6.0411634,9.422829,1001.42145,1,4
71.84,0.36638504,6.374822,8.802624,1001.41144,1,4
71.88,0.5145732,7.213736,8.7600155,1001.4087,1,4
71.92,1.7716869,6.908675,7.652167299999999,1001.4165,1,4
71.96,2.1636643,5.702735400000001,9.143507,1001.429,1,4
72.0,1.5231959,5.9410625,6.75737,1001.3632,1,4
72.04,1.284228,5.8600307,7.1597967,1001.38605,1,4
72.08,0.96878624,5.350008,8.438088,1001.41644,1,4
72.12,0.84453666,5.340475,7.3207710000000015,1001.34827,1,4
72.16,0.5912357,6.0411577,6.7573795,1001.394,1,4
72.2,0.6772942,6.775207000000001,5.3039190000000005,1001.3355,1,4
72.24,1.0596961,7.471122999999999,5.7205477,1001.39124,1,4
72.28,-0.2786189000000001,6.8419380000000025,7.6805944,1001.419,1,4
72.32,-0.4267643,7.2232614,6.6863728,1001.3657,1,4
72.36,0.25573403,7.137489,8.812027,1001.4063,1,4
72.4,-0.8292938,6.5226026,9.275998,1001.4114,1,4
72.44,-0.7767312,7.461614599999999,8.362256,1001.38617,1,4
72.48,-0.57121295,7.695177,7.547937400000001,1001.38116,1,4
72.52,-1.4554948,5.5168605,8.026111,1001.3986,1,4
72.56,-1.3885916,5.5502267,8.348049000000001,1001.4011,1,4
72.6,-0.84370744,6.2461443,7.083961500000001,1001.38635,1,4
72.64,-0.57127666,6.1126814000000005,6.6578636,1001.3785,1,4
72.68,-0.37053627,5.4501305,7.803588,1001.3632,1,4
72.72,-0.21281803,5.421531,8.030839,1001.40125,1,4
72.76,-0.04553914,5.726591,6.828298599999999,1001.3659,1,4
72.8,-0.394481,5.6455603,7.173908,1001.38116,1,4
72.84,-0.4279577,5.3786335,6.894577000000001,1001.39874,1,4
72.88,-0.78645533,5.697993,6.880373,1001.3709,1,4
72.92,-0.3945257,6.393910400000001,6.5821036999999984,1001.38104,1,4
72.96,-0.5474946999999999,6.613172500000001,7.6189375,1001.4016,1,4
73.0,-0.2702803,7.037397,7.079213,1001.35815,1,4
73.04,0.15032245,6.9706655,8.295952999999999,1001.3809,1,4
73.08,0.06905632,7.0373974000000015,8.750455,1001.4443,1,4
73.12,0.34626585,7.409189,9.687865,1001.4165,1,4
73.16,0.8672521000000001,6.961133,8.087636,1001.3737,1,4
73.2,1.5077288,6.0602546,9.171813,1001.41925,1,4
73.24,0.37012213,5.3834040000000005,7.4626923,1001.39874,1,4
73.28,0.72859305,5.8266935,7.5005665,1001.38104,1,4
73.32,1.1061803999999995,5.6169660000000015,8.111302,1001.39124,1,4
73.36,1.0923766,5.5025554,9.233405,1001.38855,1,4
73.4,0.9967867,5.631252,7.888836,1001.3835,1,4
73.44,0.4805743,5.6693845000000005,7.396457700000001,1001.346,1,4
73.48,0.44712162,5.9029455,7.027175,1001.371,1,4
73.52,0.21769898,6.3414683,7.055581,1001.3659,1,4
73.56,0.13644783,6.2985690000000005,6.984565700000001,1001.39374,1,4
73.6,0.17469184,6.11744,8.82625,1001.39124,1,4
73.64,-0.11686985,5.907711,7.3396473,1001.38104,1,4
73.68,0.45193273,6.880089,6.634222,1001.3432,1,4
73.72,0.6479111,7.151783,7.0129747,1001.3558,1,4
73.76,-0.049932808,6.289035299999999,7.4627447,1001.39136,1,4
73.8,-0.04514666,6.484464,6.747849499999999,1001.371,1,4
73.84,0.16995083,6.7656913,6.241268,1001.36615,0,0
73.88,-0.030794978,6.751391,7.462745699999997,1001.39374,0,0
73.92,0.045686677,6.6655927,6.6815690000000005,1001.3659,0,0
73.96,-0.04034269,6.470164,7.8414993000000015,1001.3785,0,0
74.0,-0.25064810000000004,6.3748326,7.169214200000001,1001.3586,0,0
74.04,0.16998254,6.8181224,7.4106693,1001.36365,0,0
74.08,-0.107240535,6.4463305,7.254434599999999,1001.3586,0,0
74.12,-0.15981203,6.4129643,7.2070913,1001.38354,0,0
74.16,-0.2601828,6.4701629999999986,7.102935,1001.34827,0,0
74.2,0.09830885,6.75139,7.202358199999999,1001.35834,0,0
74.24,0.19391207,6.789522,7.155014,1001.38855,0,0
74.28,0.31819218,6.827654400000001,7.3633289999999985,1001.3609,0,0
74.32,0.26540297,6.7418613,7.20234,1001.3659,0,0
74.36,0.04552926,6.622698,7.3017616,1001.38104,0,0
74.4,0.06464626,6.6512970000000005,7.2544174,1001.3737,0,0
74.44,-0.030951843,6.698962700000001,7.263886500000001,1001.36365,0,0
74.48,0.059861913,6.751395,7.386981,1001.36847,0,0
74.52,-0.093094856,6.6226983,7.6757793,1001.39374,0,0
74.56,0.18413122,7.013556,7.1834,1001.3737,0,0
74.6,0.083753124,6.7990603000000025,7.2875576,1001.38367,0,0
74.64,0.045511827000000005,6.822893,7.0555716,1001.389,0,0
74.68,0.13154595,6.946824,7.372775999999999,1001.3632,0,0
74.72,0.107644364,6.8038273,7.202337299999999,1001.371,0,0
74.76,-0.07877052,6.5655003,6.979820299999999,1001.3788,0,0
74.8,-0.26996517,6.551199400000002,7.117118,1001.3835,0,0
74.84,-0.26040798,6.532133999999999,7.2686186,1001.38605,0,0
74.88,-0.11701608,6.6655974,7.0461016,1001.35333,0,0
74.92,-0.0023030192,6.5988655,7.566886,1001.3838,0,0
74.96,0.121969506,6.5416675,7.126586,1001.3763,0,0
75.0,0.05982937,6.6703644,7.2828206999999985,1001.34827,0,0
75.04,0.10284461,6.8181276,6.4116898,1001.3608,0,0
75.08,0.23667718,6.932525,7.093444,1001.3737,0,0
75.12,-0.007095351999999998,6.6608315000000005,7.339633,1001.38605,0,0
75.16,0.13629542,6.9515914999999975,7.2260065,1001.38605,0,0
75.2,-0.07401764400000001,6.636998700000001,7.2402105,1001.389,0,0
75.24,0.16496952,6.803828200000001,7.292289,1001.4013,0,0
75.28,0.16496713,6.989723700000001,6.7336273,1001.38605,0,0
75.32,0.19842385,6.9754243,7.27335,1001.3838,0,0
75.36,0.017046899,6.684658,7.173951,1001.39874,0,0
75.4,0.083973214,6.7704559999999985,7.202358199999999,1001.3659,0,0
75.44,0.15089615,6.7942886,7.008248299999999,1001.37103,0,0
75.48,0.17958404,6.560727,7.429611,1001.3763,0,0
75.52,0.13179265,6.6465254,6.8756866,1001.3813,0,0
75.56,0.055323377,6.880086,6.2081356,1001.348,0,0
75.6,0.13658859,6.727556,7.547973599999999,1001.39124,0,0
75.64,0.24175142,6.670357000000001,7.453286,1001.38617,0,0
75.68,0.37559307,6.8705525,7.581115700000002,1001.38367,0,0
75.72,0.27044553,6.7275553,7.259176299999999,1001.36865,0,0
75.76,0.17007528,6.751388,6.9040966,1001.3788,0,0
75.8,0.33737606,7.0278482,6.8141440000000015,1001.4011,0,0
75.84,-0.1358155,6.7227883,6.9372387,1001.394,0,0
75.88,-0.13102952,6.6703563,6.814145,1001.3961,0,0
75.92,0.007594317,6.994481,7.0224600000000015,1001.4066,0,0
75.96,-0.07843596,6.803819,7.1692266,1001.39624,0,0
76.0,-0.13578506,6.6036234,7.036664,1001.3634,0,0
76.04,-0.1070991,6.779986,7.197634700000001,1001.39136,0,0
76.08,-0.17879042,6.6226897,7.1218843,1001.38873,0,0
76.12,-0.10708387,6.970648,7.334934,1001.40405,0,0
76.16,-0.16921467,6.779985400000001,6.9277754,1001.3886,0,0
76.2,0.06022449,6.87055,7.486437,1001.376,0,0
76.24,0.055449918,6.7704520000000015,7.3964834,1001.4066,0,0
76.28,0.13193585,6.9039160000000015,7.325467999999999,1001.4011,0,0
76.32,-0.054405734,6.760917,7.2781296000000015,1001.4013,0,0
76.36,0.055539265,6.8514814,6.719471,1001.3484,0,0
76.4,-0.36029354,6.4606237,7.595337,1001.3886,0,0
76.44,-0.23600909,6.5035224000000005,6.738411,1001.37354,0,0
76.48,-0.25511754,6.5607204,7.358618700000001,1001.3684,0,0
76.52,-0.53233725,6.4606233,6.96093,1001.3938,0,0
76.56,-0.14516237,6.8610130000000025,7.0982285,1001.3737,0,0
76.6,-0.51797694,6.5225873,7.486451,1001.38116,0,0
76.64,-0.23595896,6.7561483,6.984605,1001.3838,0,0
76.68,-0.29330584,6.651284,7.027214999999999,1001.3634,0,0
76.72,-0.21681947,6.6512837,7.5385323,1001.38617,0,0
76.76,-0.24548876,6.6512837,7.287609,1001.38605,0,0
76.8,-0.17856136,6.6894155,7.344423299999999,1001.39905,0,0
76.84,-0.36974335,6.7370815,7.1787195000000015,1001.3938,0,0
76.88,-0.36973318,6.732314,7.0840320000000006,1001.39905,0,0
76.92,-0.4270833,6.756147,7.1881905,1001.39874,0,0
76.96,-0.565688,6.594084,7.562208999999997,1001.3964,0,0
77.0,-0.64215225,6.5797834,7.4391155,1001.3988,0,0
77.04,-0.48441178,6.7370800000000015,7.3207559999999985,1001.3835,0,0
77.08,-0.39358592,6.6226826,7.5053988,1001.3837,0,0
77.12,-0.38401237,6.746612,7.173991,1001.3709,0,0
77.16,-0.3123058,6.627448599999999,7.079304700000002,1001.38873,0,0
77.2,-0.3409745,6.684647,7.192931,1001.3584,0,0
77.24,-0.43178442,6.6083817,7.2734165,1001.38617,0,0
77.28,-0.34573400000000004,6.6417470000000005,7.226073299999999,1001.39606,0,0
77.32,-0.37918627,6.627447599999999,7.481732400000001,1001.4062,0,0
77.36,-0.5899079,6.5321264,7.2686462,1001.4089,0,0
77.4,-0.5277768,6.6036243,7.249708,1001.38617,0,0
77.44,-0.5086635,6.5607257,7.159754,1001.386,0,0
77.48,-0.35571653,6.6417575,7.1786910000000015,1001.391,0,0
77.52,-0.36528128,6.6322246,7.183425,1001.38605,0,0
77.56,-0.4274259,6.799053999999999,7.01772,1001.38354,0,0
77.6,-0.3700745,6.7418556,7.1834240000000005,1001.39355,0,0
77.64,-0.5421535,6.6179256,7.358597,1001.3709,0,0
77.68,-0.6759947,6.5130620000000015,7.2923136,1001.38617,0,0
77.72,-0.42745087,6.703724,7.3254538,1001.39624,0,0
77.76,-0.00683406,6.703724,7.7941600000000015,1001.4038,0,0
77.8,-0.19325274,6.498762,7.401203,1001.38605,0,0
77.84,-0.23149793,6.555961,6.719449000000001,1001.34827,0,0
77.88,-0.4370334,6.6369925,6.771526299999999,1001.3809,0,0
77.92,-0.27930784,6.880087,6.8472757,1001.38104,0,0
77.96,-0.11680084,6.8943872000000015,7.382264,1001.40375,0,0
78.0,-0.06900914,6.6608257,7.439076400000001,1001.3885,0,0
78.04,-0.29366624,6.5797944,7.0603237000000005,1001.3935,0,0
78.08,-0.33190864,6.7752237000000015,6.913556,1001.3556,0,0
78.12,-0.31757796,6.770457,7.050853,1001.3634,0,0
78.16,-0.40840018,6.555961999999999,7.315979,1001.3886,0,0
78.2,-0.32714987,6.727558,7.2402286999999985,1001.3809,0,0
78.24,-0.38929367,6.6846595,6.9940386,1001.36316,0,0
78.28,-0.41319665,6.7990565,6.8236,1001.376,0,0
78.32,-0.41307962,6.527360400000001,7.5100985,1001.38617,0,0
78.36,-0.41786072,6.5893254,7.01772,1001.37604,0,0
78.4,-0.040257394,7.004016,6.8425474,1001.3784,0,0
78.44,-0.20755176,6.598859,7.330190700000001,1001.37854,0,0
78.48,0.021877527,6.9468174,7.0745335,1001.37854,0,0
78.52,-0.08805898599999999,7.037382000000001,6.771531,1001.38104,0,0
78.56,-0.15497768,6.7609224,7.405941,1001.37854,0,0
78.6,-0.16931844,6.7418556,7.420144,1001.38354,0,0
78.64,-0.111961715,6.9039187,7.008251,1001.34076,0,0
78.68,-0.217119,6.622692,7.2639084,1001.36847,0,0
78.72,-0.11196448,6.641758,6.975110000000001,1001.3785,0,0
78.76,-0.32227716,6.656058,6.8709526,1001.3709,0,0
78.8,-0.31749853,6.7084904000000005,7.1218767000000005,1001.3506,0,0
78.84,-0.22190370000000004,6.7084904000000005,7.183423,1001.36584,0,0
78.88,0.0218651,6.8991523,7.1029387,1001.38617,0,0
78.92,-0.09285116,6.7084904000000005,7.2402362999999985,1001.39374,0,0
78.96,-0.28404470000000004,6.5607266000000015,7.3254557,1001.38855,0,0
79.0,-0.30794448,6.72279,6.908828,1001.3583,0,0
79.04,-0.3414051,6.6131587,7.7278795,1001.37604,0,0
79.08,-0.32228714,6.327165,8.163444,1001.3886,0,0
79.12,-0.13109617,6.617926,7.230767299999999,1001.34814,0,0
79.16,-0.17889538,6.779989,6.866217599999999,1001.34076,0,0
79.2,-0.29361203,6.7227902,6.468527,1001.34076,0,0
79.24,-0.22191583,6.6846570000000005,6.8898897,1001.3785,0,0
79.28,-0.26493543,6.455863,7.387002000000002,1001.3684,0,0
79.32,-0.38443172,6.4272637,7.832036,1001.3759,0,0
79.36,-0.6811392,6.246143,7.775190400000001,1001.3961,0,0
79.4,-0.33222872,6.6131682000000005,7.211794,1001.3759,0,0
79.44,-0.17450945,6.751399,7.0697603,1001.3506,0,0
79.48,-0.2844583,6.4892387000000005,7.7988577,1001.36597,0,0
79.52,-0.107623644,6.7228007,7.278071400000001,1001.3961,0,0
79.56,-0.0693966,6.5845704,7.817792999999999,1001.39105,0,0
79.6,0.03096594,6.6322365,7.320678699999997,1001.3686,0,0
79.64,-0.122003004,6.4082089999999985,7.510053599999999,1001.36835,0,0
79.68,-0.1984951,6.5607386,6.7809544000000015,1001.3556,0,0
79.72,-0.07423350000000001,6.632237400000001,7.1455020000000005,1001.3936,0,0
79.76,-0.22720341,6.5178404,7.0271406,1001.3963,0,0
79.8,-0.10771974,6.746635,6.8235598,1001.37085,0,0
79.84,-0.21767426,6.6751380000000005,7.325405,1001.37354,0,0
79.88,-0.2320289,6.4940085,7.917203999999999,1001.3734,0,0
79.92,-0.24638352,6.5512074999999985,7.0744789999999975,1001.38354,0,0
79.96,-0.21771991,6.5226088,7.486371000000001,1001.3682,0,0
80.0,-0.49496186,6.3462462,7.4532289999999985,1001.39105,0,0
80.04,-0.33245993,6.49401,7.429556,1001.38367,0,0
80.08,-0.4902135,6.3128815000000005,7.7609625,1001.381,0,0
80.12,-0.20821929,6.555976400000001,7.457959,1001.37335,0,0
80.16,-0.24169222,6.470178,7.439019999999997,1001.38354,0,0
80.2,-0.23214783,6.3414817,7.637863,1001.38354,0,0
80.24,-0.12223139,6.651308,7.0365925,1001.3632,0,0
80.28,-0.050545722,6.4797129999999985,7.178623,1001.37573,0,0
80.32,-0.24175500000000005,6.370083,7.0839339999999975,1001.3682,0,0
80.36,-0.29796427,6.536884,7.102977,1001.35846,0,0
80.4,-0.25969353,6.446318,7.140855,1001.3784,0,0
80.44,-0.14495158,6.651279400000001,7.40125,1001.3834,0,0
80.48,-0.10190104,6.555948,7.5811595999999986,1001.3985,0,0
80.52,-0.030171588,6.6083789999999984,7.6379757,1001.37866,0,0
80.56,-0.14008236,6.575012700000001,7.5858994000000015,1001.3759,0,0
80.6,-0.35514504,6.4510812999999985,7.4249325,1001.386,0,0
80.64,-0.14958107,6.5511775000000005,7.4533415,1001.3859,0,0
80.68,-0.3025063,6.441546400000001,7.4533443,1001.3661,0,0
80.72,-0.31203735,6.470145,7.2829084,1001.3888,0,0
80.76,-0.35024345,6.4272456,7.481756,1001.3707,0,0
80.8,-0.38367355,6.403412,7.372867599999997,1001.3682,0,0
80.84,-0.23546344,6.5035089999999975,7.391808500000002,1001.3508,0,0
80.88,-0.21153207,6.55594,7.1598253,1001.37115,0,0
80.92,-0.10157567,6.6989365,7.150359,1001.3682,0,0
80.96,-0.25927308,6.479674,7.046205499999999,1001.39636,0,0
81.0,-0.4217617,6.5082726,6.814221400000001,1001.3812,0,0
81.04,-0.16362181,6.4796724,7.8037148,1001.37366,0,0
81.08,-0.17315099,6.5702367,7.401293799999999,1001.38367,0,0
81.12,0.003736034,6.6751,7.467578,1001.3885,0,0
81.16,-0.13484597,6.536868599999999,7.1503763,1001.36597,0,0
81.2,-0.15872215,6.784729,7.0462217,1001.3863,0,0
81.24,-0.31164733,6.71323,6.8521137,1001.36334,0,0
81.28,-0.23514001,6.5082674,7.5244017,1001.38367,0,0
81.32,-0.16415522,6.508285,7.183459299999999,1001.40106,0,0
81.36,-0.006421685,6.6846479999999975,7.2308035,1001.37585,0,0
81.4,-0.37446654,6.4844522000000016,7.4012413,1001.3682,0,0
81.44,-0.16893503,6.6751146,7.4438515,1001.38354,0,0
81.48,-0.1498158,6.603615799999999,7.6095552,1001.37585,0,0
81.52,-0.015981287,6.7656794000000025,7.121911999999999,1001.381,0,0
81.56,0.0031379312,6.646515400000001,7.292350999999999,1001.3963,0,0
81.6,0.16087146,6.689414,7.140849,1001.3709,0,0
81.64,0.055715755,6.627449,7.287616000000001,1001.386,0,0
81.68,0.21344928,6.6989474,7.188193300000001,1001.3581,0,0
81.72,0.07961477,6.59885,7.188193300000001,1001.35815,0,0
81.76,-0.12591678,6.5464177,7.1929282999999975,1001.4011,0,0
81.8,-0.26453108,6.646515400000001,7.557477,1001.3986,0,0
81.84,-0.15937541,6.651282000000001,7.117177000000001,1001.38354,0,0
81.88,-0.015981287,6.7370800000000015,6.942003999999999,1001.36334,0,0
81.92,-0.111577354,6.7180133,6.875723,1001.3556,0,0
81.96,-0.1498158,6.603615799999999,7.1077080000000015,1001.3606,0,0
82.0,-0.24541187,6.5225844,7.0745679999999975,1001.3884,0,0
82.04,-0.34578776,6.58455,7.2118654000000015,1001.376,0,0
82.08,-0.20717344,6.5416512,7.169256,1001.3808,0,0
82.12,-0.1354764,6.7132473,7.2686787,1001.36816,0,0
82.16,0.17521085,6.7799788,7.2497406,1001.38074,0,0
82.2,-0.011201486,6.7704453,7.387038,1001.3709,0,0
82.24,0.09395419,6.8276443,7.0082865000000005,1001.3555,0,0
82.28,0.15609165,6.7275467,7.3349600000000015,1001.3884,0,0
82.32,-0.011388794,6.7084850000000005,7.505381599999999,1001.3681,0,0
82.36,-0.15478812,6.6751194000000025,7.2686615,1001.37085,0,0
82.4,-0.20737357,6.5130568,7.552725,1001.3709,0,0
82.44,-0.24562107,6.451092,7.316003999999999,1001.3808,0,0
