Timestamp,Ax,Ay,Az,P,Value,Type
0.0,0.61954755,5.4135227,8.033818,1000.90607,0,0
0.04,0.18455754,5.2609935,7.2431706999999985,1000.9365,0,0
0.08,0.94924253,5.599421,8.65875,1000.9364,0,0
0.12,0.73890316,5.456425,8.592466,1000.9009,0,0
0.16,0.7627464,5.4897923,8.3462715,1000.9059,0,0
0.2,0.41050082,5.1799307,8.355874,1000.90857,0,0
0.24,0.31012684,5.036934,8.313264,1000.8782,0,0
0.28,0.5156622000000001,5.1894636,8.838784,1000.9086,0,0
0.32,0.42484975,5.4611573,7.991325999999999,1000.9035,0,0
0.36,0.44397277,5.1989965,8.180702,1000.9213,0,0
0.4,0.118949845,5.237129,9.075505,1000.9086,0,0
0.44,0.15241422,5.44209,7.7309345999999985,1000.8958,0,0
0.48,0.06159982,5.4230247,7.854029700000001,1000.8858,0,0
0.52,-0.13914809,5.4373239999999985,7.6977944,1000.9237,0,0
0.56,-0.05310975,5.518355400000001,7.569965400000001,1000.9161,0,0
0.6,0.123748735,5.5469545999999985,8.531051,1000.8832,0,0
0.64,-0.1343588,5.241895,8.261189,1000.8729,0,0
0.68,-0.1295733,5.380125,8.024469,1000.9035,0,0
0.72,-0.10089065,5.5517206,8.341675,1000.9135,0,0
0.76,-0.28251940000000003,5.2847934,8.857726,1000.87054,0,0
0.8,-0.6266596,5.0464660000000015,8.289598,1000.9059,0,0
0.84,-0.5884173,5.5564870000000015,7.5889063,1000.8882,0,0
0.88,-0.47847992,5.6994834,7.418467999999999,1000.9134,0,0
0.92,-0.61231065,5.4897550000000015,8.199644000000001,1000.8781,0,0
0.96,-0.51193094,5.375357599999999,8.104957,1000.906,0,0
1.0,-0.12954092,5.5469537,8.843525,1000.91364,0,0
1.04,-0.60751945,5.036932,8.119161,1000.89575,0,0
1.08,-0.5597175999999999,5.2847924000000015,7.6125803,1000.873,0,0
1.12,-0.4019783,5.075064,8.909806,1000.9211,0,0
1.16,-0.52291787,5.017901,8.886003500000003,1000.9058,0,0
1.2,-0.102349676,5.632788,8.07168,1000.90857,0,0
1.24,0.31821853,5.6995215,8.256317999999998,1000.91846,0,0
1.28,0.33731043,5.4659605,8.403081,1000.90326,0,0
1.32,0.17952241,5.4135300000000015,8.516703,1000.911,0,0
1.36,-0.21725588,5.2848344,7.811271,1000.8807,0,0
1.4,-0.1408608,5.451666,8.384127000000001,1000.9134,0,0
1.44,-0.3846581,5.356335,8.204217,1000.8628,0,0
1.48,-0.23653868,5.542232,8.014835,1000.90326,0,0
1.52,-0.12665775,5.470735,8.313097,1000.89325,0,0
1.56,-0.2031891,5.2705410000000015,8.227874,1000.8527,0,0
1.6,-0.035977766,5.5517699999999985,7.6313309999999985,1000.89325,0,0
1.64,-0.0025464445000000003,5.5565376,7.958002,1000.9008,0,0
1.68,-0.06473842,5.365876,8.322547,1000.8782,0,0
1.72,-0.08871923400000001,5.5422406,7.39933,1000.91846,0,0
1.76,0.27927113,5.594674,7.560295599999999,1000.9059,0,0
1.8,0.35094094,5.7758045,8.152092999999999,1000.95917,0,0
1.84,0.2505105,4.9273586,10.467213,1000.8857,0,0
1.88,0.11662145,5.537479,8.317788,1000.9111,0,0
1.92,-0.23235875,5.2848525,8.928519999999997,1000.9058,0,0
1.96,-0.08899191,5.3897176,8.724939,1000.9109,0,0
2.0,0.21205394,5.1990576,8.6775875,1000.8807,0,0
2.04,0.18332057,5.1132607000000005,8.41719,1000.9033,0,0
2.08,0.45571488,5.4183216,7.782774400000001,1000.8857,0,0
2.12,0.25490856,5.284859,8.085772,1000.9084,0,0
2.16,0.12642531,5.2419467000000015,7.692867999999999,1000.9135,0,0
2.2,0.26502502,5.3944769999999975,7.929587400000001,1000.8856,0,0
2.24,0.2601869,5.833001,8.076348,1000.89325,0,0
2.28,0.3796674,6.0665627,8.289394999999999,1000.9009,0,0
2.32,0.2457891,5.594675,8.407751,1000.8781,0,0
2.36,0.10236584,5.299149,8.762829,1000.93115,0,0
2.4,0.21706651,5.2848496,8.7865,1000.8933,0,0
2.44,0.20268334,5.1799865,8.535572,1000.89594,0,0
2.48,-0.021996602,5.1370883,7.8017364,1000.8807,0,0
2.52,0.016227216000000003,5.2800856,7.735453999999999,1000.9288,0,0
2.56,-0.03159999,5.265786599999998,7.957967999999997,1000.9061,0,0
2.6,0.03528808,5.3372855,7.636025999999997,1000.8909,0,0
2.64,0.20733185,5.394485,8.545029,1000.94403,0,0
2.68,0.097381786,5.2324224,8.985327,1000.87054,0,0
2.72,0.34590244,5.523183,8.2467575,1000.8933,0,0
2.76,0.45102888,5.6947803,8.062113,1000.91364,0,0
2.8,0.25024796,5.3944874,8.649177,1000.901,0,0
2.84,0.2980168,5.3754215,8.530813,1000.9085,0,0
2.88,0.09723589,5.284857700000001,8.09998,1000.8807,0,0
2.92,0.13544516,5.246726,8.109447,1000.8782,0,0
2.96,0.35050708,5.351591,7.645472,1000.89594,0,0
3.0,0.2501021,5.237195,8.526069,1000.92114,0,0
3.04,0.33131504,5.3611264,8.630221,1000.8984,0,0
3.08,0.15443306,5.3372936,8.18045,1000.8757,0,0
3.12,0.29301822,5.370661,8.540262,1000.91614,0,0
3.16,0.24520557,5.3611283,8.729637,1000.90356,0,0
3.2,0.13098066,5.1561537,8.530837,1000.8985,0,0
3.24,0.1548753,5.2276525000000005,8.365133,1000.89355,0,0
3.28,-0.007651359,5.1656876,8.29885,1000.9009,0,0
3.32,-0.06979326,5.108489,8.237302,1000.90857,0,0
3.36,0.08315161,5.21812,8.559239999999999,1000.89856,0,0
3.4,0.049684122,5.1942873,8.606585,1000.89105,0,0
3.44,0.11659248,5.241953400000001,8.478753999999999,1000.88367,0,0
3.48,0.2026201,5.3229847,8.208893,1000.90375,0,0
3.52,0.054437324,5.2228875,8.374596,1000.89355,0,0
3.56,0.10222204,5.30392,8.298844,1000.891,0,0
3.6,0.0783097,5.2038217000000015,8.492953,1000.886,0,0
3.64,0.18345653,5.3277519999999985,8.549766,1000.89624,0,0
3.68,0.1069708,5.175223,8.492952,1000.9039,0,0
3.72,0.22168167,5.294387,8.35092,1000.8834,0,0
3.76,0.25990677,5.437384,7.882211999999999,1000.9039,0,0
3.8,0.37939745,5.537482,7.8206644,1000.91144,0,0
3.84,0.09738015,5.137091000000002,8.909576,1000.8963,0,0
3.88,-0.012559772,5.0703597,8.791216,1000.88104,0,0
3.92,0.17384367,5.3277535,7.9863667,1000.8709,0,0
3.96,0.19773386,5.2467227,8.592369999999999,1000.876,0,0
4.0,0.13559197,5.1942906,8.137866,1000.88104,0,0
4.04,0.14035405,5.2800894,8.45507,1000.8964,0,0
4.08,0.28373933,5.370653599999999,8.530819000000001,1000.87103,0,0
4.12,0.20725797,5.3515873,8.275161,1000.871,0,0
4.16,0.317972,5.3849344000000015,8.45514,1000.8938,0,0
4.2,0.16982092,5.2705364,8.294172,1000.8862,0,0
4.24,0.1985112,5.322968,8.128469,1000.88605,0,0
4.28,0.18420605,5.3563337,8.142675,1000.8586,0,0
4.32,0.2033367,5.3801656,8.152144,1000.91644,0,0
4.36,0.14600189,5.3182,8.445681,1000.8687,0,0
4.4,0.18426321,5.3372660000000005,8.279978999999999,1000.8763,0,0
4.44,0.28466195,5.451663,8.398341,1000.88605,0,0
4.48,0.17952909,5.4278297,8.2610445,1000.8611,0,0
4.52,0.06961648,5.3992295,8.03853,1000.87885,0,0
4.56,-0.08809422,5.2038,8.180564,1000.8991,0,0
4.6,0.021864146,5.256232,8.403083,1000.922,0,0
4.64,0.15572149999999998,5.303897,8.398352000000001,1000.9018,0,0
4.68,0.22266163,5.294363,8.805511,1000.8737,0,0
4.72,0.28482193,5.3563275,8.095353999999999,1000.85846,0,0
4.76,0.3135122,5.4278260000000005,7.901244,1000.89417,0,0
4.8,0.251409,5.3229604,8.114295,1000.88635,0,0
4.84,0.35179633,5.423058,8.005403999999999,1000.8662,0,0
4.88,0.26101434,5.2466946,8.635083999999999,1000.85864,0,0
4.92,0.13676229999999998,5.1751957000000015,8.592477,1000.884,0,0
4.96,0.17501213,5.222861,8.407836,1000.8842,0,0
5.0,0.23719533,5.2133265,8.393637,1000.8865,0,0
5.04,0.3232432,5.2657585,8.393638000000001,1000.8512,0,0
5.08,0.23244981,5.227626,8.459922,1000.889,0,0
5.12,0.22291304,5.2895910000000015,8.161655,1000.88403,0,0
5.16,0.1655569,5.1084614,8.275282,1000.8788,0,0
5.2,0.1655569,5.1084614,8.275282,1000.8587,0,0
5.24,0.37111002,5.2991223,8.459926,1000.87146,0,0
5.28,0.24208765,5.199024700000002,8.322631,1000.8844,0,0
5.32,0.3329147,5.394453,8.298959,1000.892,0,0
5.36,0.22779135,5.332486599999998,8.478869,1000.8844,0,0
5.4,0.09875822,5.1894894,8.635107000000001,1000.8793,0,0
5.44,0.18480547,5.2991199999999985,8.374717,1000.8818,0,0
5.48,0.19438665,5.361085,8.284764,1000.88684,0,0
5.52,0.04624507,5.189488,8.185345,1000.8463,0,0
5.56,0.15619133,5.2848190000000015,8.029110000000001,1000.8665,0,0
5.6,0.017609388,5.241919,8.085925999999999,1000.8691,0,0
5.64,0.065418184,5.32295,8.014911999999999,1000.8614,0,0
5.68,0.16102506,5.365849,8.27057,1000.87683,0,0
5.72,0.18973623,5.2562175,8.535699000000001,1000.8845,0,0
5.76,0.18019818,5.256217,8.199558,1000.8766,0,0
5.8,0.17542915,5.284816,8.270576,1000.8845,0,0
5.84,0.1898009,5.3896794,7.9912496,1000.86926,0,0
5.88,0.1850427,5.375379,8.819772,1000.8667,0,0
5.92,0.21373229,5.47071,8.758225999999999,1000.85913,0,0
5.96,0.32370013,5.42781,8.270585,1000.8795,0,0
6.0,0.036933467000000005,5.284813,8.275321,1000.8718,0,0
6.04,0.61954755,5.4135227,8.033818,1000.90607,0,0
6.08,0.18455754,5.2609935,7.2431706999999985,1000.9365,0,0
6.12,0.94924253,5.599421,8.65875,1000.9364,0,0
6.16,0.73890316,5.456425,8.592466,1000.9009,0,0
6.2,0.7627464,5.4897923,8.3462715,1000.9059,0,0
6.24,0.41050082,5.1799307,8.355874,1000.90857,0,0
6.28,0.31012684,5.036934,8.313264,1000.8782,0,0
6.32,0.5156622000000001,5.1894636,8.838784,1000.9086,0,0
6.36,0.42484975,5.4611573,7.991325999999999,1000.9035,0,0
6.4,0.44397277,5.1989965,8.180702,1000.9213,0,0
6.44,0.118949845,5.237129,9.075505,1000.9086,0,0
6.48,0.15241422,5.44209,7.7309345999999985,1000.8958,0,0
6.52,0.06159982,5.4230247,7.854029700000001,1000.8858,0,0
6.56,-0.13914809,5.4373239999999985,7.6977944,1000.9237,0,0
6.6,-0.05310975,5.518355400000001,7.569965400000001,1000.9161,0,0
6.64,0.123748735,5.5469545999999985,8.531051,1000.8832,0,0
6.68,-0.1343588,5.241895,8.261189,1000.8729,0,0
6.72,-0.1295733,5.380125,8.024469,1000.9035,0,0
6.76,-0.10089065,5.5517206,8.341675,1000.9135,0,0
6.8,-0.28251940000000003,5.2847934,8.857726,1000.87054,0,0
6.84,-0.6266596,5.0464660000000015,8.289598,1000.9059,0,0
6.88,-0.5884173,5.5564870000000015,7.5889063,1000.8882,0,0
6.92,-0.47847992,5.6994834,7.418467999999999,1000.9134,0,0
6.96,-0.61231065,5.4897550000000015,8.199644000000001,1000.8781,0,0
7.0,-0.51193094,5.375357599999999,8.104957,1000.906,0,0
7.04,-0.12954092,5.5469537,8.843525,1000.91364,0,0
7.08,-0.60751945,5.036932,8.119161,1000.89575,0,0
7.12,-0.5597175999999999,5.2847924000000015,7.6125803,1000.873,0,0
7.16,-0.4019783,5.075064,8.909806,1000.9211,0,0
7.2,-0.52291787,5.017901,8.886003500000003,1000.9058,0,0
7.24,-0.102349676,5.632788,8.07168,1000.90857,0,0
7.28,0.31821853,5.6995215,8.256317999999998,1000.91846,0,0
7.32,0.33731043,5.4659605,8.403081,1000.90326,0,0
7.36,0.17952241,5.4135300000000015,8.516703,1000.911,0,0
7.4,-0.21725588,5.2848344,7.811271,1000.8807,0,0
7.44,-0.1408608,5.451666,8.384127000000001,1000.9134,0,0
7.48,-0.3846581,5.356335,8.204217,1000.8628,0,0
7.52,-0.23653868,5.542232,8.014835,1000.90326,0,0
7.56,-0.12665775,5.470735,8.313097,1000.89325,0,0
7.6,-0.2031891,5.2705410000000015,8.227874,1000.8527,0,0
7.64,-0.035977766,5.5517699999999985,7.6313309999999985,1000.89325,0,0
7.68,-0.0025464445000000003,5.5565376,7.958002,1000.9008,0,0
7.72,-0.06473842,5.365876,8.322547,1000.8782,0,0
7.76,-0.08871923400000001,5.5422406,7.39933,1000.91846,0,0
7.8,0.27927113,5.594674,7.560295599999999,1000.9059,0,0
7.84,0.35094094,5.7758045,8.152092999999999,1000.95917,0,0
7.88,0.2505105,4.9273586,10.467213,1000.8857,0,0
7.92,0.11662145,5.537479,8.317788,1000.9111,0,0
7.96,-0.23235875,5.2848525,8.928519999999997,1000.9058,0,0
8.0,-0.08899191,5.3897176,8.724939,1000.9109,0,0
8.04,0.21205394,5.1990576,8.6775875,1000.8807,0,0
8.08,0.18332057,5.1132607000000005,8.41719,1000.9033,0,0
8.12,0.45571488,5.4183216,7.782774400000001,1000.8857,0,0
8.16,0.25490856,5.284859,8.085772,1000.9084,0,0
8.2,0.12642531,5.2419467000000015,7.692867999999999,1000.9135,0,0
8.24,0.26502502,5.3944769999999975,7.929587400000001,1000.8856,0,0
8.28,0.2601869,5.833001,8.076348,1000.89325,0,0
8.32,0.3796674,6.0665627,8.289394999999999,1000.9009,0,0
8.36,0.2457891,5.594675,8.407751,1000.8781,0,0
8.4,0.10236584,5.299149,8.762829,1000.93115,0,0
8.44,0.21706651,5.2848496,8.7865,1000.8933,0,0
8.48,0.20268334,5.1799865,8.535572,1000.89594,0,0
8.52,-0.021996602,5.1370883,7.8017364,1000.8807,0,0
8.56,0.016227216000000003,5.2800856,7.735453999999999,1000.9288,0,0
8.6,-0.03159999,5.265786599999998,7.957967999999997,1000.9061,0,0
8.64,0.03528808,5.3372855,7.636025999999997,1000.8909,0,0
8.68,0.20733185,5.394485,8.545029,1000.94403,0,0
8.72,0.097381786,5.2324224,8.985327,1000.87054,0,0
8.76,0.34590244,5.523183,8.2467575,1000.8933,0,0
8.8,0.45102888,5.6947803,8.062113,1000.91364,0,0
8.84,0.25024796,5.3944874,8.649177,1000.901,0,0
8.88,0.2980168,5.3754215,8.530813,1000.9085,0,0
8.92,0.09723589,5.284857700000001,8.09998,1000.8807,0,0
8.96,0.13544516,5.246726,8.109447,1000.8782,0,0
9.0,0.35050708,5.351591,7.645472,1000.89594,0,0
9.04,0.2501021,5.237195,8.526069,1000.92114,0,0
9.08,0.33131504,5.3611264,8.630221,1000.8984,0,0
9.12,0.15443306,5.3372936,8.18045,1000.8757,0,0
9.16,0.29301822,5.370661,8.540262,1000.91614,0,0
9.2,0.24520557,5.3611283,8.729637,1000.90356,0,0
9.24,0.13098066,5.1561537,8.530837,1000.8985,0,0
9.28,0.1548753,5.2276525000000005,8.365133,1000.89355,0,0
9.32,-0.007651359,5.1656876,8.29885,1000.9009,0,0
9.36,-0.06979326,5.108489,8.237302,1000.90857,0,0
9.4,0.08315161,5.21812,8.559239999999999,1000.89856,0,0
9.44,0.049684122,5.1942873,8.606585,1000.89105,0,0
9.48,0.11659248,5.241953400000001,8.478753999999999,1000.88367,0,0
9.52,0.2026201,5.3229847,8.208893,1000.90375,0,0
9.56,0.054437324,5.2228875,8.374596,1000.89355,0,0
9.6,0.10222204,5.30392,8.298844,1000.891,0,0
9.64,0.0783097,5.2038217000000015,8.492953,1000.886,0,0
9.68,0.18345653,5.3277519999999985,8.549766,1000.89624,0,0
9.72,0.1069708,5.175223,8.492952,1000.9039,0,0
9.76,0.22168167,5.294387,8.35092,1000.8834,0,0
9.8,0.25990677,5.437384,7.882211999999999,1000.9039,0,0
9.84,0.37939745,5.537482,7.8206644,1000.91144,0,0
9.88,0.09738015,5.137091000000002,8.909576,1000.8963,0,0
9.92,-0.012559772,5.0703597,8.791216,1000.88104,0,0
9.96,0.17384367,5.3277535,7.9863667,1000.8709,0,0
10.0,0.19773386,5.2467227,8.592369999999999,1000.876,0,0
10.04,0.13559197,5.1942906,8.137866,1000.88104,0,0
10.08,0.14035405,5.2800894,8.45507,1000.8964,0,0
10.12,0.28373933,5.370653599999999,8.530819000000001,1000.87103,0,0
10.16,0.20725797,5.3515873,8.275161,1000.871,0,0
10.2,0.317972,5.3849344000000015,8.45514,1000.8938,0,0
10.24,0.16982092,5.2705364,8.294172,1000.8862,0,0
10.28,0.1985112,5.322968,8.128469,1000.88605,0,0
10.32,0.18420605,5.3563337,8.142675,1000.8586,0,0
10.36,0.2033367,5.3801656,8.152144,1000.91644,0,0
10.4,0.14600189,5.3182,8.445681,1000.8687,0,0
10.44,0.18426321,5.3372660000000005,8.279978999999999,1000.8763,0,0
10.48,0.28466195,5.451663,8.398341,1000.88605,0,0
10.52,0.17952909,5.4278297,8.2610445,1000.8611,0,0
10.56,0.06961648,5.3992295,8.03853,1000.87885,0,0
10.6,-0.08809422,5.2038,8.180564,1000.8991,0,0
10.64,0.021864146,5.256232,8.403083,1000.922,0,0
10.68,0.15572149999999998,5.303897,8.398352000000001,1000.9018,0,0
10.72,0.22266163,5.294363,8.805511,1000.8737,0,0
10.76,0.28482193,5.3563275,8.095353999999999,1000.85846,0,0
10.8,0.3135122,5.4278260000000005,7.901244,1000.89417,0,0
10.84,0.251409,5.3229604,8.114295,1000.88635,0,0
10.88,0.35179633,5.423058,8.005403999999999,1000.8662,0,0
10.92,0.26101434,5.2466946,8.635083999999999,1000.85864,0,0
10.96,0.13676229999999998,5.1751957000000015,8.592477,1000.884,0,0
11.0,0.17501213,5.222861,8.407836,1000.8842,0,0
11.04,0.23719533,5.2133265,8.393637,1000.8865,0,0
11.08,0.3232432,5.2657585,8.393638000000001,1000.8512,0,0
11.12,0.23244981,5.227626,8.459922,1000.889,0,0
11.16,0.22291304,5.2895910000000015,8.161655,1000.88403,0,0
11.2,0.1655569,5.1084614,8.275282,1000.8788,0,0
11.24,0.1655569,5.1084614,8.275282,1000.8587,0,0
11.28,0.37111002,5.2991223,8.459926,1000.87146,0,0
11.32,0.24208765,5.199024700000002,8.322631,1000.8844,0,0
11.36,0.3329147,5.394453,8.298959,1000.892,0,0
11.4,0.22779135,5.332486599999998,8.478869,1000.8844,0,0
11.44,0.09875822,5.1894894,8.635107000000001,1000.8793,0,0
11.48,0.18480547,5.2991199999999985,8.374717,1000.8818,0,0
11.52,0.19438665,5.361085,8.284764,1000.88684,0,0
11.56,0.04624507,5.189488,8.185345,1000.8463,0,0
11.6,0.15619133,5.2848190000000015,8.029110000000001,1000.8665,0,0
11.64,0.017609388,5.241919,8.085925999999999,1000.8691,0,0
11.68,0.065418184,5.32295,8.014911999999999,1000.8614,0,0
11.72,0.16102506,5.365849,8.27057,1000.87683,0,0
11.76,0.18973623,5.2562175,8.535699000000001,1000.8845,0,0
11.8,0.18019818,5.256217,8.199558,1000.8766,0,0
11.84,0.17542915,5.284816,8.270576,1000.8845,0,0
11.88,0.1898009,5.3896794,7.9912496,1000.86926,0,0
11.92,0.1850427,5.375379,8.819772,1000.8667,0,0
11.96,0.21373229,5.47071,8.758225999999999,1000.85913,0,0
12.0,0.32370013,5.42781,8.270585,1000.8795,0,0
12.04,0.036933467000000005,5.284813,8.275321,1000.8718,0,0
12.08,0.05129446,5.685203,8.49784,1000.86694,0,0
12.12,0.013066769,5.532673,8.573592,1000.84906,0,0
12.16,0.008308545,5.289578400000001,8.725095,1000.8997,0,0
12.2,0.008330137,5.1942463,9.160662,1000.8771,0,0
12.24,0.29991978,5.4278073,7.7687490000000015,1000.85425,0,0
12.28,0.084860906,5.2085447,8.412631,1000.88464,0,0
12.32,0.032304645,5.222843599999999,7.929723299999999,1000.8745,0,0
12.36,0.43860954,5.4659375999999975,8.000741,1000.87476,0,0
12.4,0.45295972,5.418272,8.426839999999999,1000.85956,0,0
12.44,0.4338513,5.3324738,8.46945,1000.84924,0,0
12.48,0.38132733,5.3467720000000005,8.114372999999999,1000.8922,0,0
12.52,0.38132733,5.3467720000000005,8.114372999999999,1000.8872,0,0
12.56,0.6442382,5.4182696,8.223267,1000.86975,0,0
12.6,0.4243887,5.2800392999999985,8.61149,1000.8773,0,0
12.64,0.553465,5.370603599999999,8.024426,1000.91504,0,0
12.68,0.44834173,5.3420033,8.01496,1000.87225,0,0
12.72,0.34319675,5.4468675000000015,7.385286,1000.9201,0,0
12.76,0.1376975,5.375368,8.720391000000001,1000.88995,0,0
12.8,0.09946987,5.2991023,8.805611,1000.8901,0,0
12.84,0.29068357,5.5278974000000005,8.1380625,1000.8774,0,0
12.88,0.27159673,5.651827,8.228019,1000.8848,0,0
12.92,-0.282839,5.2705015999999985,8.251692,1000.84973,0,0
12.96,-0.33062622,5.3705992999999985,7.9108167,1000.8648,0,0
13.0,-0.0055779964,5.570794,8.388993,1000.90533,0,0
13.04,-0.42617917,5.0178733,9.203313,1000.8419,0,0
13.08,-0.4498974,4.9845023,8.635201,1000.89777,0,0
13.12,0.028133541,5.375359,8.720425,1000.88245,0,0
13.16,-0.110468104,5.1751633,8.824583,1000.88007,0,0
13.2,-0.03397861,5.2037625,8.587864,1000.86487,0,0
13.24,0.25284755,5.41349,8.161771,1000.87494,0,0
13.28,0.033001825,5.389656,8.109694500000002,1000.86505,0,0
13.32,0.11427115,5.413489,8.232791,1000.8752,0,0
13.36,0.21945207,5.3229237000000005,7.9724,1000.8954,0,0
13.4,0.32464570000000004,5.3229227,8.550001,1000.8904,0,0
13.44,0.3772362,5.3705883000000005,8.526330999999999,1000.87,0,0
13.48,0.31034422,5.5231175000000015,8.171252,1000.8829,0,0
13.52,0.2912503,5.6279807,7.69308,1000.89026,0,0
13.56,0.18611984,5.523116,8.384305,1000.8827,0,0
13.6,0.30087304,5.5088153,8.152322999999999,1000.8676,0,0
13.64,0.13838501,5.465916,8.242278,1000.86237,0,0
13.68,0.14317743,5.523114,8.204406,1000.8752,0,0
13.72,0.08107789,5.4849806,8.038704,1000.85736,0,0
13.76,0.14322798,5.575545,8.005564999999999,1000.88293,0,0
13.8,0.095455244,5.423014599999999,8.289631,1000.8754,0,0
13.84,0.0046769083,5.3705816,8.265964,1000.8729,0,0
13.88,0.03814818,5.532644,7.844602,1000.8827,0,0
13.92,0.1719953,5.618442,7.787789999999997,1000.8729,0,0
13.96,0.08124222,5.504043,8.057657,1000.8855,0,0
14.0,0.08124222,5.504043,8.057657,1000.8779,0,0
14.04,0.05735585,5.461144,8.422207,1000.8856,0,0
14.08,0.1861387,5.5898476,8.2044,1000.8779,0,0
14.12,0.28174108,5.656579,8.251744,1000.86786,0,0
14.16,0.26262826,5.6184464000000025,8.261213,1000.8831,0,0
14.2,-0.00023563206000000005,5.399184,8.583155999999999,1000.8779,0,0
14.24,-0.05758694,5.341985,8.374842,1000.8629,0,0
14.28,0.23877998,5.4516153,8.37011,1000.8425,0,0
14.32,0.16230942,5.4087167,8.100247999999999,1000.8755,0,0
14.36,0.2961566,5.647044,7.669419299999999,1000.8603,0,0
14.4,0.32006836,5.709009,8.38905,1000.8729,0,0
14.44,-0.1005417,5.3467503,8.422193,1000.88824,0,0
14.48,0.057210848,5.4134817,7.839861999999999,1000.8452,0,0
14.52,0.057210848,5.4134817,7.839861999999999,1000.86786,0,0
14.56,0.12893324,5.408715,8.39379,1000.8604,0,0
14.6,0.11938001,5.4039480000000015,8.109726,1000.87054,0,0
14.64,0.08593406,5.527878,8.407995,1000.8629,0,0
14.68,0.10027979,5.604143,8.209149,1000.85284,0,0
14.72,0.10985844,5.542177,8.393794,1000.8579,0,0
14.76,0.37754017,5.666107,8.223355,1000.89105,0,0
14.8,0.28673655,5.4992769999999975,8.308578,1000.85535,0,0
14.84,0.41102415,5.6232076,8.038717,1000.82245,0,0
14.88,0.34411323,5.599375,7.9250917,1000.8908,0,0
14.92,0.03821847,5.465911,8.071859,1000.88074,0,0
14.96,0.08125572,5.4992766,7.9440327,1000.8834,0,0
15.0,0.19120388,5.3753449999999985,9.070823,1000.8859,0,0
15.04,0.4349866,5.508808,8.408007000000001,1000.8581,0,0
15.08,0.46332282,5.661347,8.119176,1000.83777,0,0
15.12,0.34860630000000004,5.647047,7.754627,1000.8682,0,0
15.16,0.10483502,5.399186,8.194925999999999,1000.87335,0,0
15.2,0.12873276,5.4277854,8.142847999999999,1000.87335,0,0
15.24,0.13829114,5.451618,8.204395,1000.8682,0,0
15.28,0.16696869,5.4373190000000005,8.308552,1000.8657,0,0
15.32,0.16218762,5.4992839999999985,8.256474,1000.87335,0,0
15.36,0.095269084,5.5231166,8.157051,1000.89105,0,0
15.4,0.21476291,5.68518,7.96294,1000.8785,0,0
15.44,0.19564305,5.5183506,8.469521499999999,1000.8632,0,0
15.48,0.24821834,5.5421834,7.8966584000000015,1000.85065,0,0
15.52,0.22909789,5.6089150000000005,8.015018,1000.8961,0,0
15.56,0.36771095,5.4897513,8.550005,1000.87604,0,0
15.6,0.3868289,5.561249299999999,7.9960804,1000.86084,0,0
15.64,0.3868289,5.561249299999999,7.9960804,1000.8886,0,0
15.68,0.2768908,5.3467546,8.564209,1000.8938,0,0
15.72,0.2768908,5.3467546,8.564209,1000.8837,0,0
15.76,0.2912284,5.627981,7.7025466,1000.88116,0,0
15.8,0.18607076,5.3705873,8.426910000000001,1000.871,0,0
15.84,0.15261088,5.5946155,7.8919225000000015,1000.8608,0,0
15.88,0.15261088,5.5946155,7.8919225000000015,1000.8888,0,0
15.92,-0.024243787000000003,5.54695,8.4363785,1000.91394,0,0
15.96,-0.04336363,5.3705873,8.942960000000003,1000.87854,0,0
16.0,0.057010353,5.6327485999999976,7.8303747,1000.87354,0,0
16.04,-0.033807196,5.470685,8.431644,1000.89404,0,0
16.08,-0.031501999999999995,5.4896949999999975,8.346636,1000.86084,0,0
16.12,0.07374501,5.565958,8.356113,1000.9042,0,0
16.16,-0.07433759,5.4467916,8.4555435,1000.8938,0,0
16.2,-0.012108803,5.513521,8.304051,1000.87866,0,0
16.24,0.040606022,5.3848205,8.26619,1000.86615,0,0
16.28,-0.05494439,5.446785,7.944253,1000.884,0,0
16.32,-0.12177034,5.4610825,7.8921833,1000.88385,0,0
16.36,-0.42280662,5.1750865,8.46032,1000.9041,0,0
16.4,0.04092568,5.6040745,8.218874000000001,1000.894,0,0
16.44,-0.1310559,5.4134097,8.436665,1000.88385,0,0
16.48,-0.22656068,5.4801392999999985,8.417735,1000.8714,0,0
16.52,-0.020892113,5.456303,8.256779,1000.85114,0,0
16.56,0.007832378000000001,5.375271,8.299392,1000.8664,0,0
16.6,0.11312504,5.3514347,8.540859,1000.88403,0,0
16.64,0.07971209,5.270402,8.100563000000001,1000.8537,0,0
16.68,0.17061968,5.6517243,7.6981473,1000.8891,0,0
16.72,0.07033512,5.480126,8.351503999999998,1000.88403,0,0
16.76,0.017802998,5.461059,8.26629,1000.90424,0,0
16.8,-0.005959049,5.513488,8.204754,1000.8992,0,0
16.84,-0.16360123,5.3609550000000015,8.247373,1000.88666,0,0
16.88,-0.039235033,5.546849,7.968050999999999,1000.8916,0,0
16.92,0.1950667,5.561146,8.289999,1000.90186,0,0
16.96,0.37683624,5.6469407,8.29001,1000.85895,0,0
17.0,0.40078098,5.6707725999999985,7.892325,1000.8841,0,0
17.04,-0.0608688,5.446813,8.498074,1000.88916,0,0
17.08,-0.15171172,5.3038173,8.398649,1000.89685,0,0
17.12,-0.07046835,5.4372807,8.393913000000001,1000.88153,0,0
17.16,-0.0800546,5.4468145,8.251878,1000.8664,0,0
17.2,0.029840961000000006,5.489714,8.114577,1000.8843,0,0
17.24,-0.037102975,5.4658823,8.417577,1000.87146,0,0
17.28,-0.017997071,5.4611163000000005,8.374966,1000.88666,0,0
17.32,0.02500783,5.4611163000000005,8.322886,1000.8742,0,0
17.36,-0.008464113,5.3896184,8.389167,1000.8868,0,0
17.4,-0.09454055,5.3753195,8.341819000000001,1000.85645,0,0
17.44,-0.04200264,5.5230837,8.048282,1000.86664,0,0
17.48,-0.14240515,5.380088,8.677956,1000.8691,0,0
17.52,0.0057421178,5.4325204000000005,8.294467,1000.8464,0,0
17.56,-0.008610606,5.408688,8.488576,1000.8944,0,0
17.6,0.12518393,5.6136513,7.9062405,1000.8792,0,0
17.64,0.015235141,5.4325220000000005,8.14296,1000.9071,0,0
17.68,-0.12818564,5.2752266,8.422286999999999,1000.86664,0,0
17.72,-0.113872856,5.380091,8.303924,1000.8717,0,0
17.76,-0.11869262,5.384859,8.266047,1000.88184,0,0
17.8,-0.14260496,5.337194,8.289716,1000.8894,0,0
17.84,-0.1282922,5.3753265999999975,8.322855,1000.8592,0,0
17.88,-0.07574095,5.470659,8.228164,1000.88684,0,0
17.92,-0.19526269,5.2942967,8.516961,1000.88434,0,0
17.96,-0.2765327,5.241865,8.374927,1000.8743,0,0
18.0,-0.19053619,5.370563,8.270766,1000.8743,0,0
18.04,-0.3435032,5.2323330000000015,8.559564,1000.87683,0,0
18.08,-0.15058325,5.3991203,8.280393,1000.8845,0,0
18.12,-0.21267629,5.289489,8.427163,1000.86926,0,0
18.16,-0.0931368,5.3895845,8.237789999999999,1000.8643,0,0
18.2,-0.20776328,5.294251999999998,8.517128999999999,1000.8819,0,0
18.24,-0.20776328,5.294251999999998,8.517128999999999,1000.86694,0,0
18.28,-0.121638,5.4324794,8.2898855,1000.8845,0,0
18.32,-0.26976755,5.2799487,8.555016,1000.8517,0,0
18.36,-0.2028059,5.322847,8.441394,1000.9124,0,0
18.4,-0.14064625,5.4372435,8.379849,1000.8795,0,0
18.44,-0.16930285,5.42771,8.27096,1000.88715,0,0
18.48,-0.17401606,5.3371434,8.384592,1000.85675,0,0
18.52,-0.2695678,5.4324737,8.048452000000001,1000.85675,0,0
18.56,-0.1978263,5.389573,8.422475,1000.8517,0,0
18.6,-0.26469916,5.2751746,8.422479,1000.85175,0,0
18.64,-0.13562223,5.346673,8.181026,1000.8593,0,0
18.68,-0.0065231174,5.4563026,8.233108999999999,1000.8618,0,0
18.72,0.0031030476,5.523032,7.963253999999999,1000.867,0,0
18.76,0.0031030476,5.523032,7.963253999999999,1000.89215,0,0
18.8,-0.21670133,5.308536,8.616608,1000.8643,0,0
18.84,-0.0971396,5.513496400000001,8.190517,1000.88214,0,0
18.88,-0.24051154,5.365732,8.389364,1000.8316,0,0
18.92,-0.25478432,5.375264,8.294683000000001,1000.84924,0,0
18.96,-0.22130351,5.4038625,8.095839999999999,1000.8872,0,0
19.0,-0.12566304,5.3943286,8.223672,1000.85693,0,0
19.04,-0.2212147,5.422927,8.024832,1000.8469,0,0
19.08,-0.06416909400000001,5.5707073,8.242552,1000.89246,0,0
19.12,-0.27924508,5.28948,8.517149,1000.88214,0,0
19.16,-0.21231256,5.337145,8.261492,1000.862,0,0
19.2,-0.11670129,5.3895764,8.138398,1000.85944,0,0
19.24,-0.10712642,5.303778,8.488746,1000.8848,0,0
19.28,0.06974912,5.470607,8.289904,1000.8519,0,0
19.32,0.06974912,5.470607,8.289904,1000.9153,0,0
19.36,0.15102099,5.470607,8.190482000000001,1000.87476,0,0
19.4,0.069787145,5.3848080000000005,8.356188000000001,1000.87476,0,0
19.44,-0.0066744536,5.3323755,8.289908,1000.8648,0,0
19.48,0.0076725334,5.351442,8.143142999999998,1000.87494,0,0
19.52,-0.13570632,5.241811,8.176285,1000.87494,0,0
19.56,-0.059206672,5.40864,8.138411,1000.8673,0,0
19.6,-0.07352323,5.3419075,8.569243,1000.8927,0,0
19.64,-0.11175406,5.3514404,8.545573,1000.8494,0,0
19.68,-0.0113705695,5.4515376,8.323057,1000.8699,0,0
19.72,-0.04479874,5.3991050000000005,8.218903,1000.87213,0,0
19.76,-0.07346234,5.3276057,8.479296000000001,1000.86707,0,0
19.8,-0.18339023,5.2370415,8.256780000000001,1000.85974,0,0
19.84,-0.12122995,5.327605,8.318328999999999,1000.88257,0,0
19.88,-0.073416695,5.4134026,7.967983999999999,1000.8673,0,0
19.92,0.003075406,5.484901,8.33727,1000.8801,0,0
19.96,0.050881058,5.4849005,8.242582,1000.87994,0,0
20.0,0.11781351,5.489667,8.654477,1000.8724,0,0
20.04,-0.030345157,5.3943357,8.157366,1000.8673,0,0
20.08,-0.11681912,5.332381,8.323030000000001,1000.8673,0,0
20.12,0.040911824,5.422946,8.091044,1000.91046,0,0
20.16,0.017011553000000002,5.3609805,8.422452,1000.8826,0,0
20.2,0.002668336,5.370514,8.133653,1000.8623,0,0
20.24,0.12694196,5.4658446,8.072105,1000.86224,0,0
20.28,-0.040353708,5.3419147,8.256746000000001,1000.8371,0,0
20.32,-0.11683437,5.299015,8.398779,1000.8675,0,0
20.36,-0.16463368,5.260883,8.375107,1000.8725,0,0
20.4,-0.13595867,5.365747,8.261481,1000.865,0,0
20.44,-0.22677618,5.299015,8.441386999999999,1000.8751,0,0
20.48,-0.10250381,5.380047,8.370372,1000.8701,0,0
20.52,-0.02602952,5.4324794,8.488731,1000.85986,0,0
20.56,0.026547074,5.4420123,8.398778,1000.8674,0,0
20.6,-0.059493205999999986,5.2751827,8.394042,1000.8473,0,0
20.64,0.012202561,5.3466816,8.233073,1000.8777,0,0
20.68,0.02653943,5.3705144,8.384574,1000.8549,0,0
20.72,-0.07862005400000001,5.308549,8.119447000000001,1000.8625,0,0
20.76,-0.0021457225,5.427713,8.204664999999999,1000.9003,0,0
20.8,-0.15988052,5.3180830000000014,8.327760000000001,1000.87,0,0
20.84,-0.030829623,5.5039783,8.323025999999999,1000.8449,0,0
20.88,-0.12642953,5.4372463,8.611824,1000.88525,0,0
20.92,-0.045174085,5.5039783,8.540807000000001,1000.87006,0,0
20.96,0.01696083,5.499212,8.12418,1000.86237,0,0
21.0,0.016959563,5.4563127,8.266212,1000.8727,0,0
21.04,-0.15511593,5.2847165999999985,8.233071,1000.8626,0,0
21.08,-0.1346731,5.3561830000000015,7.9396586,1000.8626,0,0
21.12,-0.015101925,5.427679,8.076963000000001,1000.8422,0,0
21.16,-0.015101925,5.427679,8.076963000000001,1000.8347,0,0
21.2,0.34823924,5.7041373,8.768193,1000.85754,0,0
21.24,0.07586655,5.5134735,8.484136999999999,1000.8523,0,0
21.28,-0.12002933,5.4705725,8.114859,1000.8778,0,0
21.32,0.02816996,5.6231017,8.200080999999999,1000.86,0,0
21.36,0.16680966,5.7184324,8.162208,1000.8601,0,0
21.4,-0.11036827,5.546835,7.693507,1000.8777,0,0
21.44,-0.358842,5.3943033,8.072267,1000.8703,0,0
21.48,-0.27278012,5.4276686,7.972846,1000.84247,0,0
21.52,-0.019399792,5.570664,8.166962,1000.8753,0,0
21.56,-0.06712173,5.5134635,8.299531,1000.87036,0,0
21.6,0.0428645,5.5801945,8.370553,1000.89307,0,0
21.64,0.052449435,5.6278586,8.252193,1000.8855,0,0
21.68,0.15287606,5.675523,8.100698,1000.87286,0,0
21.72,0.08125511,5.5468245000000005,8.398973,1000.8957,0,0
21.76,0.028728023,5.494391,8.356367,1000.88293,0,0
21.8,0.023998931,5.4800897000000015,8.389513,1000.84503,0,0
21.84,0.03358391,5.518222,8.190671,1000.8779,0,0
21.88,-0.06198682,5.6135526,7.8971399999999985,1000.89307,0,0
21.92,-0.14319272,5.5420527,7.987098,1000.9033,0,0
21.96,-0.03318114,5.5515842000000015,8.498421,1000.8855,0,0
22.0,-0.047469825,5.5134506,8.375331,1000.8855,0,0
22.04,0.057736605,5.637379599999999,8.185960000000001,1000.8678,0,0
22.08,0.075655624,5.6278760000000005,8.181113999999999,1000.8982,0,0
22.12,0.023078397,5.5325446,8.209521,1000.8577,0,0
22.16,-0.02471836,5.4133809999999984,8.152708,1000.87286,0,0
22.2,-0.12031316,5.4419804,7.8923163,1000.86804,0,0
22.24,-0.1394305,5.370482,8.280539,1000.84534,0,0
22.28,-0.17288847,5.360949,8.252131,1000.86035,0,0
22.32,0.10434143,5.60881,7.8497076,1000.8681,0,0
22.36,0.2764156,5.785172,8.020145,1000.87823,0,0
22.4,-0.024710745,5.5182449999999985,8.640352,1000.9084,0,0
22.44,-0.053387694000000006,5.675541,7.717144500000002,1000.8832,0,0
22.48,-0.010368809,5.6088095,8.181115,1000.8403,0,0
22.52,-0.1107434,5.6088095,7.863911,1000.8933,0,0
22.56,0.28598154,5.751806,8.630885000000001,1000.9262,0,0
22.6,-0.27325422,5.6088095,7.674535,1001.0095,0,0
22.64,-0.08683933,5.656475,8.342086,1000.8603,0,0
22.68,0.07567528,5.785172,7.949130999999999,1000.8577,0,0
22.72,0.3194459,5.8662033,8.46518,1000.9033,0,0
22.76,-0.14897299,5.4229136,7.9870066999999985,1000.90826,0,0
22.8,-0.14897299,5.4229136,7.9870066999999985,1000.8958,0,0
22.84,0.23341326,5.651708,8.384697000000001,1000.8729,0,0
22.88,0.051781967000000005,5.499179,7.972803599999999,1000.8729,0,0
22.92,0.07568161,5.523011,8.086428999999999,1000.8808,0,0
22.96,-0.053371817,5.551610500000002,8.318416000000001,1000.89075,0,0
23.0,0.25731736,5.7470393,8.218993,1000.90607,1,1
23.04,0.24297856,5.713673,8.214258000000001,1000.90106,1,1
23.08,0.26209968,5.6374083,8.195321,1000.90607,1,1
23.12,0.16172506,5.6040425,8.105367999999999,1000.9008,1,1
23.16,0.20474397,5.551610500000002,8.133774,1000.87823,1,1
23.2,0.17606638,5.5039444,7.854444,1000.8834,1,1
23.24,0.36725986,5.608809,8.076961500000001,1000.86053,1,1
23.28,0.4055001,5.5182443,8.346822999999999,1000.8833,1,1
23.32,0.5393353,5.551610500000002,8.384699000000001,1000.8782,1,1
23.36,0.8739229,5.661241,8.261603,1000.8781,1,1
23.4,0.9981989,5.6040425,8.450979,1000.8732,1,1
23.44,1.0985755,5.508711,8.427308,1000.8833,1,1
23.48,1.5287591,5.446746,8.114838,1000.87573,1,1
23.52,1.8107694,5.651707599999999,7.982274,1000.896,1,1
23.56,1.519202,5.475345,7.736085000000001,1000.8857,1,1
23.6,1.4570658,5.4181457,7.826039,1000.9162,1,1
23.64,1.5496196000000002,5.5086684,8.44167,1000.896,1,1
23.68,1.2628776000000002,5.456235,8.536363,1000.9313,1,1
23.72,0.90921813,5.360903,9.028745,1000.9061,1,1
23.76,0.78020966,5.708861,8.252307,1000.88824,1,1
23.8,0.11588617,5.0367739999999985,8.692614,1000.906,1,1
23.84,-0.11352138,4.850878,8.9056635,1000.88574,1,1
23.88,-0.39070383,5.1940684,8.621603,1000.886,1,1
23.92,-0.2806991,5.689789,8.058216,1000.896,1,1
23.96,-0.15637806,5.785119,8.115032000000001,1000.9035,1,1
24.0,-0.45267975,5.489591000000001,8.399101,1000.9138,1,1
24.04,-0.20408386,5.699319,7.901992999999999,1000.9009,1,1
24.08,-0.07978588,5.742217,7.8783226,1000.9035,1,1
24.12,-0.37128472,5.5277205,7.627406,1000.87335,1,1
24.16,-0.5911326,5.351357,7.4427660000000015,1000.9137,1,1
24.2,-0.74881995,5.256025,7.8309913,1000.8983,1,1
24.24,-0.5575817,5.5944495000000005,7.494853,1000.906,1,1
24.28,-0.2707473,5.522949,8.555363999999999,1000.9088,1,1
24.32,-0.6100441999999999,5.1177907,7.4285817,1000.9364,1,1
24.36,0.26470608,5.818474,10.984123,1000.9669,1,1
24.4,-0.67686903,5.017691,9.506994,1000.8757,1,1
24.44,0.53724724,6.0520325,6.7231684000000005,1000.83795,1,1
24.48,0.28396374,5.132086,8.110353,1000.8983,1,1
24.52,-0.08883789,4.8937573,8.219247,1000.9136,1,1
24.56,-0.27996079999999995,4.817490599999998,8.88207,1000.9364,1,1
24.6,0.41136378,5.170259,9.203849,1000.9188,1,1
24.64,0.42567664,4.9557642999999985,9.014469,1000.91864,1,1
24.68,0.06717799599999999,4.736503,9.113892,1000.896,1,1
24.72,0.13405533,5.680282,6.812968,1000.84296,1,1
24.76,0.30133516,6.056841,6.623589999999999,1000.8757,1,1
24.8,-0.090635374,5.146429,8.512614,1000.93646,1,1
24.84,-0.3105197,4.9986663,8.744599000000001,1000.89606,1,1
24.88,-0.5638759,5.3227925,7.6225429999999985,1000.87067,1,1
24.92,0.08135772,6.385736,8.53628,1000.9313,1,1
24.96,0.13870205,6.161708,9.227501,1000.9263,1,1
25.0,-0.10987437,5.6659865,10.543664,1000.8781,1,1
25.04,-0.45882666,6.185542,8.503133,1000.939,1,1
25.08,-0.611807,5.5372910000000015,9.724607,1000.92114,1,1
25.12,-0.4971317,5.2655983,8.683035,1000.84283,1,1
25.16,-1.1711106000000002,5.4276614,6.2116723,1000.8581,1,1
25.2,-1.2189219999999998,5.3084984,6.964442,1000.9009,1,1
25.24,-1.0994534,5.089237000000002,7.920789,1000.8352,1,1
25.28,-1.352823,5.032039599999999,7.6556587,1000.88855,1,1
25.32,-1.515363,5.2989674,7.381061,1000.8757,1,1
25.36,-1.42456,5.3371005,7.262699599999999,1000.9262,1,1
25.4,-1.1999358999999998,4.9033440000000015,8.730362,1000.90356,1,1
25.44,-0.6455052,5.2322373,8.299528,1000.88824,1,1
25.48,-0.043276533,6.385745,7.2579575,1000.9338,1,1
25.52,0.17656781,6.1998496,9.393171,1000.91614,1,1
25.56,-0.0720086,5.5801983,8.588321,1000.87335,1,1
25.6,0.05223967,6.5716424,6.9738855,1000.87317,1,1
25.64,-0.7449269000000001,5.3275447,8.370633,1000.9389,1,1
25.68,-0.69712067,4.993886,9.426406,1000.9061,1,1
25.72,0.46917623,6.7765770000000005,7.276988,1000.91864,1,1
25.76,-0.5441256999999999,5.48484,8.488997,1000.86554,1,1
25.8,-0.80700666,5.542038400000001,7.864056,1000.8781,1,1
25.84,-1.0029539,6.8719077,6.7988176,1000.87836,1,1
25.88,-1.5048168,5.327542299999998,8.839348,1000.94147,1,1
25.92,-1.7629098,5.2465105,8.062906,1000.8731,1,1
25.96,-1.7629098,5.2465105,8.062906,1000.87585,1,1
26.0,-1.5286745000000002,5.351374,6.9787300000000005,1000.8983,1,1
26.04,-1.4665205,5.7231655,6.6094484,1000.87823,1,1
26.08,-1.3709162,6.037758,6.6425899999999976,1000.9262,1,1
26.12,-0.86424047,6.457215,7.949287400000001,1000.939,1,1
26.16,-1.079307,6.2808514,9.227578,1000.9416,1,1
26.2,-1.8058289,5.3990383,9.795708,1000.9189,1,1
26.24,-2.4845445,4.9176154,8.829891,1000.9313,1,1
26.28,-0.65386313,5.4610023000000005,7.949292999999999,1000.93646,1,1
26.32,0.39293045,5.913825,9.454836,1000.87317,1,1
26.36,-0.74942625,5.1654754,8.664191,1000.8631,1,1
26.4,-1.1652527,5.4276357000000015,7.6889052,1000.8808,1,1
26.44,0.0775211,5.1368747,9.772046,1000.87573,1,1
26.48,-0.11365458,5.1082754,8.233366,1000.8554,1,1
26.52,-0.08017942,5.7898927,7.4379873,1000.8883,1,1
26.56,-0.08017942,5.7898927,7.4379873,1000.90125,1,1
26.6,-0.08014642400000001,5.437166,7.8877587,1000.9138,1,1
26.64,-0.08014642400000001,5.437166,7.8877587,1000.929,1,1
26.68,0.6030281,6.581148,7.4048185,1000.8554,1,1
26.72,-0.042244144,6.3952519999999975,7.3243337,1000.87836,1,1
26.76,-0.5393412,6.2808547,7.2675214000000015,1000.94147,1,1
26.8,0.31146765,6.1473913,9.132876,1000.88074,1,1
26.84,0.72253335,6.419085,8.138652,1000.90356,1,1
26.88,0.6125991,6.4619837,7.7598996,1000.8631,1,1
26.92,0.48354822,6.3189874,7.1207557,1000.91864,1,1
26.96,0.47876966,6.1902905,7.130224,1000.89355,1,1
27.0,-0.7496361999999999,5.0272503,7.6888843,1000.8858,1,1
27.04,-0.3481288,6.185523,7.65101,1000.934,1,1
27.08,-0.59189624,5.508672,8.602625999999999,1000.91113,1,1
27.12,-0.59189624,5.508672,8.602625999999999,1000.8606,1,1
27.16,-1.4187973,5.651669,6.216486,1000.8859,1,1
27.2,-1.4522545,5.5706370000000005,7.187039,1000.9113,1,1
27.24,-0.3098777,6.662178999999999,7.1586328,1000.8859,1,1
27.28,-0.3098777,6.662178999999999,7.1586328,1000.9213,1,1
27.32,0.42143488,6.9195724,8.370642,1000.8885,1,1
27.36,-0.09478142,6.1187916,8.578955,1000.87573,1,1
27.4,-0.23339319,6.075892,7.565792599999999,1000.9064,1,1
27.44,-0.64445376,5.789899,8.872489,1000.934,1,1
27.48,-1.6290909,5.246511,9.947199,1000.886,1,1
27.52,-2.0210323,5.179779,9.147083,1000.84546,1,1
27.56,-1.4809119,6.0854254,7.1396966,1000.88617,1,1
27.6,-1.3279543,4.6649910000000006,9.4406185,1000.9468,1,1
27.64,-2.1689467,3.8546705,10.07505,1000.86316,1,1
27.68,-1.9490632,4.6554513,7.684178,1000.886,1,1
27.72,-0.562901,5.27987,8.493762,1000.92395,1,1
27.76,0.2114399,5.441932,8.834641,1000.8884,1,1
27.8,0.28314959999999995,5.179772,8.588453,1000.91895,1,1
27.84,-0.7636147,4.5219865,7.854622,1000.8608,1,1
27.88,-0.8209597,5.480064,6.3017379999999985,1000.89105,1,1
27.92,-0.7540361,5.909054,6.8083205,1000.91895,1,1
27.96,-0.6632070999999999,6.013918,8.304393,1000.939,1,1
28.0,-0.3716265,5.8375554,9.6537,1000.8938,1,1
28.04,-0.0035689175,5.8613873,9.426449,1000.8735,1,1
28.08,-0.15650362,5.8470874,8.971948,1000.90894,1,1
28.12,-0.15650362,5.8470874,8.971948,1000.914,1,1
28.16,-0.15649095,5.7994213,9.663173,1000.8884,1,1
28.2,-0.14691867,6.309443,8.815716,1000.919,1,1
28.24,1.0767236999999998,7.186489,7.9398518,1000.9064,1,1
28.28,0.73738307,5.4705276,7.627383,1000.8558,1,1
28.32,0.9190219,5.3990293,7.092396000000001,1000.86084,1,1
28.36,0.21640982,4.9271398,6.079235,1000.83295,1,1
28.4,0.46019244,5.761287,4.5926332,1000.843,1,1
28.44,0.46019244,5.761287,4.5926332,1000.9165,1,1
28.48,0.374175,5.0844355000000006,6.6189604000000015,1000.91895,1,1
28.52,0.101738855,5.1321,7.0876675,1000.88873,1,1
28.56,0.27859795,5.6945543,6.377507,1000.8835,1,1
28.6,0.732692,6.6001997,6.008225,1000.9088,1,1
28.64,0.856541,7.086398599999999,6.33486,1000.9316,1,1
28.68,0.19692044,7.048266,7.769384,1000.8988,1,1
28.72,0.19692044,7.048266,7.769384,1000.9468,1,1
28.76,0.8326268,7.768016999999999,9.923536,1000.9088,1,1
28.8,0.66532856,7.472490299999999,10.146054,1000.90137,1,1
28.84,-0.6730216,6.3952484000000025,8.4179945,1000.8709,1,1
28.88,-0.606112,6.857605,6.7514844,1000.8355,1,1
28.92,-0.6443529,6.414315,5.8188066,1000.8862,1,1
28.96,-1.0076231,4.9509826,8.2049465,1000.90894,1,1
29.0,-1.9253505,4.6030235,8.28543,1000.87866,1,1
29.04,-1.127131,6.2141199999999985,6.8367020000000025,1000.9165,1,1
29.08,-0.10903774,6.4762807,7.4332366,1000.9191,1,1
29.12,-0.023006335,6.156921400000001,8.853558,1000.9165,1,1
29.16,0.03912604,5.828029,9.014526,1000.9064,1,1
29.2,0.086918995,6.233187,8.673649000000001,1000.89124,1,1
29.24,0.086918995,6.233187,8.673649000000001,1000.8684,1,1
29.28,0.17772512,6.5430136,6.5621037,1000.87103,1,1
29.32,-0.07560956,6.2760862999999985,7.4284987,1000.8734,1,1
29.36,-0.07560956,6.2760862999999985,7.4284987,1000.91394,1,1
29.4,-0.19511226,6.8528395,7.1397,1000.91394,1,1
29.44,-0.046940878,7.1578994000000025,7.6415462,1000.9317,1,1
29.48,-0.32417712,6.6192784,9.232306,1000.87854,1,1
29.52,0.21115585,7.291363700000002,6.2212239999999985,1000.9013,1,1
29.56,0.75605094,7.396228,5.795127,1000.9242,1,1
29.6,0.64133054,5.804198,8.3375025,1000.9066,1,1
29.64,0.9191789,4.5267453,9.75788,1000.86096,1,1
29.68,0.26915604,5.9233456,5.795186,1000.86835,1,1
29.72,-0.20880407,6.4619665,5.089762,1000.87866,1,1
29.76,-0.20400393,6.4000010000000005,4.010319,1000.90656,1,1
29.8,-0.24700187,5.7231489999999985,7.267591499999999,1000.9317,1,1
29.84,-0.39993525,6.1521387,8.010895,1000.9116,1,1
29.88,0.12587361,7.148348,6.0224476,1000.89624,1,1
29.92,-0.012730539,7.114982,6.41067,1000.9192,1,1
29.96,-0.28036907,6.838521000000001,7.187115,1000.9166,1,1
30.0,-0.35205597,6.7479559999999985,6.9835367,1000.9394,1,1
30.04,-0.07002723,6.4285964999999985,7.594276400000001,1000.8862,1,1
30.08,-0.03654831,6.1521360000000005,8.053516,1000.93195,1,1
30.12,0.23113085,6.404763,7.7552495,1000.88617,1,1
30.16,-0.4475708,6.643089999999999,7.262874000000001,1000.87854,1,1
30.2,-0.9351006,6.528692,6.993014,1000.9293,1,1
30.24,-2.1587,6.848051,9.095093,1000.93427,1,1
30.28,-1.6042225,7.200775599999999,8.067729,1000.92413,1,1
30.32,-0.036426432,6.9958134,8.460687,1000.9496,1,1
30.36,-0.52395624,5.694543,10.420731,1000.90424,1,1
30.4,-1.2743652,4.4123383,9.776853,1000.9141,1,1
30.44,-1.2169771,5.0319905,8.366004,1000.90155,1,1
30.48,-0.91582906,6.152131,6.955153,1000.8837,1,1
30.52,-1.0400836,6.0139,7.1918745,1000.937,1,1
30.56,-1.0400836,6.0139,7.1918745,1000.9421,1,1
30.6,-0.6911274000000001,4.879459,10.207693,1000.9141,1,1
30.64,-0.24257311,4.9652753,8.919867,1000.86865,1,1
30.68,-0.12786286,5.203603299999998,8.176563999999999,1000.95465,1,1
30.72,-0.27127224,5.7183914000000025,7.2202134,1000.93207,1,1
30.76,-0.39555216,6.0663505,8.081875,1000.80786,1,1
30.8,-0.34775925,6.3142114000000005,7.954046000000001,1000.85846,1,1
30.84,-0.85920835,5.7565246,6.9929605,1000.8788,1,1
30.88,-0.022757947,6.3523445,8.512703,1000.8712,1,1
30.92,-0.6202436,5.866156,6.7562380000000015,1000.8586,1,1
30.96,-0.43383634,5.7231593,7.139724,1000.9141,1,1
31.0,0.068032935,5.861389599999999,8.304386000000001,1000.89667,1,1
31.04,0.23053615,6.171216,7.7646637,1000.89667,1,1
31.08,0.2161815,5.985321,7.8924913,1000.92194,1,1
31.12,0.18271272,6.075886,8.266509,1000.89905,1,1
31.16,-0.08974624,6.099718599999999,7.750457300000001,1000.8865,1,1
31.2,-0.218806,6.04252,7.3575015,1000.8788,1,1
31.24,-0.31919715,6.1616839999999975,7.5563449999999985,1000.90674,1,1
31.28,-0.30008298,6.1998167,7.513735,1000.89404,0,0
31.32,-0.44827205,6.0377545,7.598953,1000.87115,0,0
31.36,-0.28576893,6.090187,7.6131554,1000.9194,0,0
31.4,-0.18062848,5.951957,8.938786,1000.9016,0,0
31.44,-0.3718257,5.899525,8.9956,1000.879,0,0
31.48,-0.3192529000000001,5.828027,8.597908,1000.8687,0,0
31.52,0.058336347,5.937658,7.6889014000000016,1000.9067,0,0
31.56,-0.25713575,5.8375607,7.324352,1000.87646,0,0
31.6,-0.41487944,5.7326964999999985,6.6425967,1000.9016,0,0
31.64,-0.30383092,5.670704,7.968332000000001,1000.8713,0,0
31.68,-0.24167635,5.7898674,8.058288000000001,1000.9016,0,0
31.72,-0.031330742,5.9423966,7.9162583,1000.8991,0,0
31.76,0.3893262,6.280821,7.831042,1000.90936,0,0
31.8,0.28898454,6.0091267,7.939936,1000.8891,0,0
31.84,0.16952373,6.0472584000000005,7.7837043,1000.8737,0,0
31.88,0.083521485,6.0281905999999985,8.063037,1000.87646,0,0
31.92,-0.13631529,5.8899602999999985,8.077243,1000.90686,0,0
31.96,-0.16495988,6.0520225,8.001496000000001,1000.90674,0,0
32.0,0.3178516,6.428579,7.9115477,1000.92444,0,0
32.04,0.33698797,6.433345,8.025174,1000.89667,0,0
32.08,0.38482022,6.17595,7.622752999999999,1000.8941,0,0
32.12,0.1936623,5.8565903,8.233495,1000.879,0,0
32.16,0.04550548,5.7183595,8.143542,1000.8993,0,0
32.2,0.20329036,5.7231245,8.323455000000001,1000.8817,0,0
32.24,-0.07870098,5.5467615,8.356596000000001,1000.884,0,0
32.28,-0.21728106,6.0091166,7.627502000000002,1000.8941,0,0
32.32,0.16991727,6.5239043,6.931547599999999,1000.9142,0,0
32.36,-0.011663928999999998,5.7469544,8.512843,1000.88153,0,0
32.4,0.19868167,5.6897544999999985,8.252454,1000.8588,0,0
32.44,0.62411845,6.228374,7.27717,1000.9119,0,0
32.48,0.5715577,6.1187434000000005,7.906847,1000.92706,0,0
32.52,0.23222582,5.8708816,8.082024,1000.88916,0,0
32.56,0.32785612,6.276038,7.381335000000001,1000.9142,0,0
32.6,0.45216525,6.2665042999999985,8.394501,1000.922,0,0
32.64,0.73759305,6.190273,8.380173,1000.88403,0,0
32.68,0.61330736,6.190273,7.7552304,1000.869,0,0
32.72,0.35993463,6.20934,6.628438,1000.9042,0,0
32.76,0.3886026,6.1235423,6.87936,1000.87897,0,0
32.8,0.3886026,6.1235423,6.87936,1000.8868,0,0
32.84,0.03485401,5.7755847000000005,7.1018734,1000.9119,0,0
32.88,0.14476798,5.975781,7.5847807,1000.9018,0,0
32.92,0.2833715,6.2188754,7.4806232,1000.88403,0,0
32.96,0.53667957,6.3809385,7.935123399999997,1000.8791,0,0
33.0,0.3120072,6.2284093,8.294937,1000.8891,0,0
33.04,0.24983738,6.414306,7.703133599999999,1000.8817,0,0
33.08,0.015616223,6.2617764000000005,7.95879,1000.9019,0,0
33.12,-0.06088218,6.347575,7.807287,1000.884,0,0
33.16,0.01078254,5.9900837,8.706821000000001,1000.86145,0,0
33.2,0.2832098,6.1712136,7.793079,1000.8766,0,0
33.24,0.3596651,6.037751,7.5800285,1000.8816,0,0
33.28,0.10632472,5.813723,7.8120136,1000.87146,0,0
33.32,0.04416567,5.8137235999999985,7.3811812,1000.894,0,0
33.36,-0.09924996,5.7708244,7.6368365,1000.87897,0,0
33.4,-0.08493212,5.804191,7.759929,1000.88654,0,0
33.44,0.0010720193,5.8899903,7.8782864,1000.8738,0,0
33.48,-0.04673679,6.0663532999999985,7.6036899999999985,1000.8916,0,0
33.52,0.24958946,6.3618803,8.062925,1000.8893,0,0
33.56,0.5506956000000001,6.4524455000000005,9.412229,1000.88153,0,0
33.6,0.20652811,6.1855183,8.578972,1000.8536,0,0
33.64,-0.08404777,5.808936,8.020402,1000.851,0,0
33.68,-0.17005563,5.5563080000000005,7.1161337,1000.8816,0,0
33.72,0.33183324,6.071096,7.5659027,1000.86395,0,0
33.76,0.680778,6.6430820000000015,7.4380755,1000.8891,0,0
33.8,-0.3707503,5.7088366,8.50332,1000.90186,0,0
33.84,-0.26079577,6.0520277,7.9920053,1000.85614,0,0
33.88,0.10725866,6.600182000000001,7.064063000000001,1000.9169,0,0
33.92,0.3367083,6.290355,8.290275999999999,1000.8564,0,0
33.96,0.456232,6.733644,7.106677499999999,1000.8868,0,0
34.0,0.4801405,6.5668144,7.2439756,1000.8816,0,0
34.04,-0.1603342,6.080625,7.674808,1000.8688,0,0
34.08,-0.2798007,6.204555,7.4144187000000015,1000.8539,0,0
34.12,-0.2798007,6.204555,7.4144187000000015,1000.8741,0,0
34.16,-0.63348716,5.7660313,7.6274686,1000.8688,0,0
34.2,-0.33710122,6.0281905999999985,7.291329400000001,1000.884,0,0
34.24,-0.5282839,6.1711874,7.296065,1000.88916,0,0
34.28,-0.44700813,6.3904486,7.1019554000000005,1000.8916,0,0
34.32,-0.3322643,6.3761487,8.351841,1000.91187,0,0
34.36,-0.45174032,5.9137917,8.41339,1000.8639,0,0
34.4,-0.5759962,6.1616526,7.4286356,1000.8561,0,0
34.44,-0.39435416,6.223617,7.48545,1000.8435,0,0
34.48,-0.652435,5.7183614,7.996767500000002,1000.9069,0,0
34.52,-0.6715446999999999,5.646863,8.66432,1000.9296,0,0
34.56,-0.62371814,5.980521,6.775295,1000.85614,0,0
34.6,-0.44685578,6.304647,6.6900764000000015,1000.87897,0,0
34.64,-0.21339124,6.037738,8.403862,1000.8916,0,0
34.68,-0.31856406,6.399997,8.228688,1000.8637,0,0
34.72,-0.2420929,6.643091,7.807326,1000.8737,0,0
34.76,-0.5049935000000001,5.751745,8.342312,1000.869,0,0
34.8,-0.6818519000000001,5.7326794,7.8736057,1000.8766,0,0
34.84,-0.07961378,6.13307,8.0298395,1000.88135,0,0
34.88,-0.103524186,6.4238305,7.684227000000001,1000.86395,0,0
34.92,0.07810265,6.624026299999999,7.153973,1000.8487,0,0
34.96,-0.18480371,6.171203599999999,7.220253,1000.8688,0,0
35.0,-0.007956669,6.595428,6.950392,1000.8791,0,0
35.04,0.058949202,6.838522,7.2628617,1000.86896,0,0
35.08,-0.55765694,6.21887,7.8073172999999985,1000.8741,0,0
35.12,-0.26132047,6.6192613,7.902003999999999,1000.86646,0,0
35.16,-0.5337864,6.504864,7.4569683000000015,1000.8614,0,0
35.2,-0.2661288,6.5429974,7.2865286,1000.89166,0,0
35.24,-0.42386806,6.4143,7.769438,1000.86664,0,0
35.28,-0.45255822,6.461966,7.272323599999999,1000.8816,0,0
35.32,-0.46212924,6.104474,7.414355,1000.86664,0,0
35.36,-0.15145345,6.2236385,7.712621,1000.88916,0,0
35.4,0.16878204,6.1664400000000015,7.5989947,1000.88635,0,0
35.44,0.077960044,6.1616735,7.556384599999999,1000.88385,0,0
35.48,0.20221783,6.476267,7.262850299999997,1000.89655,0,0
35.52,-0.022438645,6.2665386,7.182364,1000.86395,0,0
35.56,-0.37138143,5.9614797,7.5327085999999985,1000.907,0,0
35.6,-0.3188093,5.9805455,7.6179276,1000.8992,0,0
35.64,-0.22323033,6.1426089999999975,7.106611,1000.8918,0,0
35.68,-0.25669467,6.1712084,7.2628455,1000.8995,0,0
35.72,-0.07029941,6.461969,8.010879,1000.8817,0,0
35.76,-0.008167684,6.423836,7.764689999999999,1000.879,0,0
35.8,0.020488352,6.2331753,8.148174000000001,1000.879,0,0
35.84,0.0826201,6.2331753,8.167111,1000.8816,0,0
35.88,0.17341925,6.3714056,7.0734625,1000.8361,0,0
35.92,0.039573327,6.2570086,7.589511999999999,1000.864,0,0
35.96,0.039573327,6.2570086,7.589511999999999,1000.8919,0,0
36.0,-0.06559946,6.328507,7.4522122999999985,1000.8918,0,0
36.04,0.001312077,6.3571067,7.3859305,1000.8691,0,0
36.08,-0.032157943,6.2570095000000014,7.703133999999999,1000.8564,0,0
36.12,0.01562871,6.3666405999999975,7.376459,1000.8717,0,0
36.16,-0.051305674,6.290376,7.4048643,1000.874,0,0
36.2,-0.013072953,6.295143,7.3527856,1000.8638,0,0
36.24,-0.008298859,6.314209,7.509020299999999,1000.8792,0,0
36.28,-0.25686574,6.2379446,7.277033,1000.8841,0,0
36.32,-0.35247326,6.199812400000001,7.461673299999997,1000.874,0,0
36.36,-0.24254915,6.3714085,7.561095,1000.8741,0,0
36.4,-0.2855788,6.2903776,7.7694077,1000.869,0,0
36.44,-0.35728730000000003,6.1473812999999975,7.9067044000000015,1000.8488,0,0
36.48,-0.303827,6.4142866,7.3528600000000015,1000.86896,0,0
36.52,-0.29425913,6.3380212999999985,7.4664865,1000.8816,0,0
36.56,-0.3038146,6.2236238,7.627456,1000.8589,0,0
36.6,-0.236885,6.1425924000000025,7.783692999999999,1000.854,0,0
36.64,-0.18429893,6.2998886,7.684271000000002,1000.8816,0,0
36.68,-0.35636362,6.0758605,7.6558657,1000.8514,0,0
36.72,-0.29422206,6.1568913,7.5090995,1000.89435,0,0
36.76,-0.23685202,6.3141875,7.4854283,1000.8539,0,0
36.8,-0.27030656,6.333254,7.5801167,1000.874,0,0
36.84,-0.3802297,6.280821,7.641665,1000.8841,0,0
36.88,-0.3945567,6.1616573,7.674807,1000.89185,0,0
36.92,-0.35631007,6.180723,7.6700735,1000.859,0,0
36.96,-0.43278283,6.0520260000000015,7.778964999999999,1000.8716,0,0
37.0,-0.3419624,6.104458,7.6037927,1000.86145,0,0
37.04,-0.25113377,6.113991,7.655872,1000.8766,0,0
37.08,-0.08861222,6.3332524,7.4759655,1000.87177,0,0
37.12,-0.18419594,6.1854887000000005,7.835781599999999,1000.8489,0,0
37.16,0.016564086000000002,6.314185,7.509108500000001,1000.8791,0,0
37.2,-0.021670222000000003,6.2283870000000014,7.641672,1000.874,0,0
37.24,-0.040785328,6.2236204000000015,7.537514999999999,1000.8691,0,0
37.28,0.011804879,6.2569865999999985,7.6037984,1000.8715,0,0
37.32,0.05961115700000001,6.247453,7.4570327,1000.8768,0,0
37.36,0.021376863,6.22362,7.4096885,1000.8716,0,0
37.4,-0.21282122,6.0758567,7.5895977,1000.85645,0,0
37.44,-0.23671609,6.1330550000000015,7.717427000000002,1000.85645,0,0
37.48,-0.11684273,6.2093105,7.760071000000001,1000.8539,0,0
37.52,-0.016443983,6.366606,7.6559157,1000.8667,0,0
37.56,-0.016443983,6.366606,7.6559157,1000.8464,0,0
37.6,-0.17892304,6.3094068,7.5612309999999985,1000.8717,0,0
37.64,-0.22191839,6.399971,7.2913723,1000.8514,0,0
37.68,-0.4895646,6.0853777,7.7979555,1000.83887,0,0
37.72,-0.4656427,6.133043,7.632252999999999,1000.8817,0,0
37.76,-0.4082622,6.0949097000000005,7.769553699999999,1000.8615,0,0
37.8,-0.2457146,6.180707,7.627525,1000.86664,0,0
37.84,-0.17400616,6.1997724000000005,7.594384700000001,1000.8742,0,0
37.88,-0.12618524,6.2522044,7.442886,1000.88434,0,0
37.92,-0.05924514700000001,6.2712703,7.726952000000002,1000.859,0,0
37.96,-0.049662694,6.2903357,7.8405795,1000.8819,0,0
38.0,-0.19303396,6.1950045,7.9068637000000015,1000.8692,0,0
38.04,-0.40332246,6.1568713,7.5186443,1000.88184,0,0
38.08,-0.36507264,6.2283687999999975,7.3576755999999985,1000.8743,0,0
38.12,-0.46541423,5.9662074999999986,7.930542,1000.90216,0,0
38.16,-0.34112790000000004,6.1139703,7.79798,1000.8894,0,0
38.2,-0.19293115,6.2569666,7.5091834,1000.8717,0,0
38.24,-0.33151114,6.1616344000000005,7.9447517,1000.86426,0,0
38.28,-0.23589224,6.147334,7.618079700000001,1000.85913,0,0
38.32,-0.28845865,6.1902337,7.6890965,1000.8817,0,0
38.36,-0.1498101,6.2855635,7.4997234,1000.8819,0,0
38.4,-0.24061494,6.1616325,7.831133,1000.9072,0,0
38.44,-0.37920642,6.0806007000000015,7.641758999999999,1000.8819,0,0
38.48,-0.5222644000000001,5.9471292,7.7838216,1000.87683,0,0
38.52,-0.50790787,6.0424595000000005,7.57551,1000.86926,0,0
38.56,-0.28798556,6.309386,7.708077999999999,1000.8589,0,0
38.6,-0.28798556,6.309386,7.708077999999999,1000.8717,0,0
38.64,-0.15409966,6.0805893,7.883255,1000.88684,0,0
38.68,-0.15409966,6.0805893,7.883255,1000.8463,0,0
38.72,-0.09669063,6.247418,7.4903045,1000.8971,0,0
38.76,-0.30218798,6.0567546,7.547120599999999,1000.87933,0,0
38.8,-0.46464992,6.133018,7.7791104,1000.86664,0,0
38.84,-0.3929357,6.166384,7.736503,1000.8692,0,0
38.88,-0.42636013,6.1520834,8.119993,1000.8566,0,0
38.92,-0.35461167,6.242646700000001,7.6418222999999985,1000.88434,0,0
38.96,-0.63658583,6.185446700000001,7.6702323,1000.87463,0,0
39.0,-0.63658583,6.185446700000001,7.6702323,1000.8592,0,0
39.04,-0.5409384,6.042449,7.873816499999997,1000.8768,0,0
39.08,-0.40705252,6.2426434,7.509272,1000.8819,0,0
39.12,-0.35444045,6.071046,8.048997,1000.8642,0,0
39.16,-0.09151693,6.147310299999999,8.105814,1000.8769,0,0
39.2,0.20006822,6.5334015,7.9211725999999985,1000.8389,0,0
39.24,-0.25396174,6.075810400000001,7.443003,1000.86926,0,0
39.28,-0.5885309,6.032911,7.4619417000000015,1000.86426,0,0
39.32,-0.50246024,6.2331057,7.6986647,1000.8745,0,0
39.36,-1.3245351,5.9614105,7.528231,1000.87683,0,0
39.4,-1.3245351,5.9614105,7.528231,1000.8895,0,0
39.44,-0.7987053000000001,6.2283363,8.148442999999999,1000.86926,0,0
39.48,-0.709116,6.447628,7.15884,1000.8642,0,0
39.52,-0.6039686,6.4762278,7.4618410000000015,1000.8695,0,0
39.56,-0.63744366,6.233134,8.134126,1000.85913,0,0
39.6,-0.40325803,6.342765,7.992091,1000.85175,0,0
39.64,-0.6183656999999999,5.9662074999999986,7.2724595,1000.86676,0,0
39.68,-0.49409902,6.080605,7.296131,1000.84924,0,0
39.72,-0.52279425,6.5238953,6.6096406000000005,1000.88464,0,0
39.76,-1.0485975,5.804146,8.394509,1000.86676,0,0
39.8,-1.0533855,5.904244,7.958943400000001,1000.86694,0,0
39.84,-1.230263,5.7183485,7.490235,1000.8769,0,0
39.88,-1.3688937,5.985276,7.371873399999999,1000.8541,0,0
39.92,-0.83357215,6.4523993,7.46656,1000.87195,0,0
39.96,-1.1012493,6.13304,7.400277,1000.86426,0,0
40.0,-0.87184346,6.361836,7.6748705,1000.8618,0,0
40.04,-1.1443089,6.2855706,7.4949617,1000.8693,0,0
40.08,-1.177784,6.271271700000002,7.755352499999999,1000.87427,0,0
40.12,-1.3642128999999998,6.013878,8.138838,1000.8745,0,0
40.16,-1.3642128999999998,6.013878,8.138838,1000.83636,0,0
40.2,-0.7763298000000001,6.1235094000000005,7.258235000000001,1000.8491,0,0
40.24,-0.6616310000000001,6.2331410000000025,7.618048700000001,1000.8567,0,0
40.28,-0.7381161,6.142576,7.5186256999999985,1000.85425,0,0
40.32,-1.0727271,6.052013,7.6369834,1000.86945,0,0
40.36,-1.0201576,6.1425769999999975,7.324511500000002,1000.8718,0,0
40.4,-1.0584205,5.847051,8.053608,1000.8745,0,0
40.44,-0.5469980999999999,6.3237076,7.8879023,1000.8846,0,0
40.48,-0.58512557,6.304638400000001,7.5565042,1000.85675,0,0
40.52,-0.63770914,6.4524019999999975,7.480753,1000.8567,0,0
40.56,-0.62338686,6.0901437000000005,7.49022,1000.8693,0,0
40.6,-0.9818778,5.8327503,7.613314599999999,1000.877,0,0
40.64,-0.9006325999999999,5.889949,7.783752000000002,1000.8796,0,0
40.68,-0.80983347,5.9614477,7.82636,1000.85175,0,0
40.72,-0.71902287,6.161643,7.651186999999997,1000.872,0,0
40.76,-0.76205254,6.2522078,7.7316704,1000.85425,0,0
40.8,-0.7572785,6.404738,7.6369815,1000.9074,0,0
40.84,-0.8337667999999999,6.242676,7.698528,1000.89484,0,0
40.88,-0.8624569999999999,6.0472470000000005,7.864231,1000.88965,0,0
40.92,-0.5661206,6.314174,7.1446004,1000.88965,0,0
40.96,-0.79556835,6.147345,7.5328197,1000.86444,0,0
41.0,-0.74778175,6.233144,7.660647999999999,1000.867,0,0
41.04,-0.81949013,6.2045445,7.7600694,1000.89233,0,0
41.08,-0.89597857,6.199778,7.779006,1000.86945,0,0
41.12,-0.90554947,6.347542,7.281892299999999,1000.87195,0,0
41.16,-1.03461,6.2331448,7.4712679999999985,1000.8567,0,0
41.2,-0.9007869,6.2045455,7.698518300000001,1000.88715,0,0
41.24,-0.8482204,6.1425805,7.741127499999997,1000.867,0,0
41.28,-0.7478617,6.285578,7.523343,1000.87714,0,0
41.32,-0.6618366999999999,6.4381080000000015,7.3387,1000.8846,0,0
41.36,-0.83391535,6.3094106,7.5470133000000015,1000.8947,0,0
41.4,-0.9343083,6.36661,7.4049797,1000.88464,0,0
41.44,-0.9343083,6.36661,7.4049797,1000.87213,0,0
41.48,-0.8992101999999998,6.2045074,7.845429400000001,1000.8949,0,0
41.52,-0.5980269,6.30937,7.594511,1000.85187,0,0
41.56,-0.6601085,6.1711383,7.0689974,1000.87964,0,0
41.6,-0.59791535,6.2140355000000005,7.424082799999999,1000.90753,0,0
41.64,-0.50226355,6.266466,7.400416000000001,1000.867,0,0
41.68,-0.58343655,6.256932,7.438298700000002,1000.85693,0,0
41.72,-0.68853647,6.256930400000001,7.8549314,1000.87476,0,0
41.76,-0.7554258,6.1854305,7.741308,1000.9126,0,0
41.8,-0.6454346,6.1997294,7.7602509999999985,1000.87463,0,0
41.84,-0.5545626,6.3760910000000015,7.490394999999999,1000.93036,0,0
41.88,-0.8269556,5.8470016,8.423078,1000.90247,0,0
41.92,-0.81734025,5.8612995,7.7460628,1000.86707,0,0
41.96,-0.22458887,6.3522534,8.044336,1000.88983,0,0
42.0,-0.27708304,6.2664537000000005,7.211088,1000.85944,0,0
42.04,-0.38221085,6.190188,7.542498599999999,1000.8771,0,0
42.08,-0.8648875,6.028123,7.225301299999999,1000.8949,0,0
42.12,-1.0130334,6.1091533,7.5993223,1000.8645,0,0
42.16,-0.7692076999999999,6.314114599999999,7.357872,1000.9176,0,0
42.2,-0.75962025,6.3951449999999985,7.561455,1000.89734,0,0
42.24,-0.99374694,6.643004,7.4715085,1000.87976,0,0
42.28,-1.022398,6.2616787,7.551996000000001,1000.9226,0,0
42.32,-1.5146620000000002,5.8898864,8.101191499999999,1000.857,0,0
42.36,-1.4858997,5.9327830000000015,7.495196000000001,1000.87714,0,0
42.4,-1.189496,6.0471797,7.249011500000001,1000.86224,0,0
42.44,-1.5527332,5.8088503,7.8360806,1000.89496,0,0
42.48,-1.3489585,6.075821,7.3151354999999985,1000.92523,0,0
42.52,-1.2629399,6.042455,8.546078999999999,1000.8949,0,0
42.56,-1.2486184,6.3618155,6.8132854000000025,1000.8824,0,0
42.6,-0.837564,6.523878,7.3245997,1000.9177,0,0
42.64,-1.6023505,6.600143400000001,6.780142,1000.86975,0,0
42.68,-1.3490386,6.1473207,8.247806,1000.87225,0,0
42.72,-1.0001396,5.9328265,9.275168,1000.90765,0,0
42.76,-1.3729911,6.4380827000000025,5.7717075,1000.9153,0,0
42.8,-1.0384135,6.2092876,6.694915299999999,1000.85944,0,0
42.84,-1.0766608999999998,6.3236856,6.9695095999999985,1000.9101,0,0
42.88,-0.9571836,6.147323,7.6465282,1000.95557,0,0
42.92,-0.30236822,6.542948,8.995832,1000.9025,0,0
42.96,-1.1962094,5.7993655,7.6512594,1000.87976,0,0
43.0,-0.45057768,6.228356,7.7932897,1000.95825,0,0
43.04,-0.23551318,5.9471300000000005,8.517652,1000.9176,0,0
43.08,-0.13036637,5.9423637000000005,8.077351,1000.9353,0,0
43.12,-0.1017053,5.9947963,7.8358946,1000.89746,0,0
43.16,-0.3550527,5.8422665999999985,7.70333,1000.8975,0,0
43.2,-0.39809763,6.00433,7.4050593,1000.88983,0,0
43.24,-0.5749592,5.8851666,7.6843886,1000.92804,0,0
43.28,-0.56541747,5.928066,7.845357000000001,1000.88995,0,0
43.32,-0.5511047,6.128262,7.433461,1000.8824,0,0
43.36,-0.5797924,6.0996633000000005,7.6654463,1000.89996,0,0
43.4,-0.5702505,6.2807927,7.2204103,1000.89246,0,0
43.44,-0.5798279000000001,6.285558999999999,7.561286,1000.9227,0,0
43.48,-0.5559378,6.3713574,7.4950037,1000.87726,0,0
43.52,-0.25004813,6.819414599999999,7.192,1000.89996,0,0
43.56,-0.45559746,6.261728,7.745924,1000.8721,0,0
43.6,-0.33612904,6.5000563,6.510242,1000.9228,0,0
43.64,0.10360403,6.886147500000001,6.7280229999999985,1000.9506,0,0
43.68,-0.24055967,6.3522935,8.33772,1000.9102,0,0
43.72,-0.23101783,6.218831,7.9116216,1000.895,0,0
43.76,0.40466946,6.8718495,7.4902570000000015,1000.96326,0,0
43.8,0.63408226,6.352295400000001,9.341408,1000.93787,0,0
43.84,0.45243186,5.7421765,9.407687,1000.8899,0,0
43.88,0.42851514,5.0986915,8.129396,1000.9353,0,0
43.92,0.35351527,4.8269615,9.625604,1000.89746,0,0
43.96,0.33918774,4.6839643,8.95332,1000.8494,0,0
44.0,-0.39208657,5.203519,7.523533,1000.8799,0,0
44.04,-0.43508106,5.622975,7.996975,1000.90515,0,0
44.08,-0.5832430999999999,5.4609118,7.9164914999999985,1000.9127,0,0
44.12,-0.2295138,5.303615,7.916493400000001,1000.9481,0,0
44.16,0.028619438,5.3655795999999985,8.986469999999997,1000.8847,0,0
44.2,-0.028702527,5.4466105,8.664535,1000.90765,0,0
44.24,-0.08126848,5.479975700000002,8.612457000000001,1000.88995,0,0
44.28,0.19599582,5.561006,8.2526455,1000.89233,0,0
44.32,0.12909047,5.427542,8.413617,1000.852,0,0
44.36,-0.10030441,5.8469987,7.5424895,1000.8899,0,0
44.4,-0.21021615,6.0614934,7.220552,1000.9203,0,0
44.44,-0.5256594,5.622969,7.987528,1000.8874,0,0
44.48,-0.30576462,5.9709272,7.305776,1000.9101,0,0
44.52,-0.21015666,5.951860400000001,7.5661693,1000.96576,0,0
44.56,-0.39176536,5.703999,8.868132000000003,1000.9329,0,0
44.6,-0.13363218,6.0614905,7.9543943,1000.93036,0,0
44.64,-0.11448919,6.028124,8.176914,1000.9557,0,0
44.68,-0.58288616,5.7659626,7.8739142000000015,1000.86456,0,0
44.72,-0.41078943,6.1139207,7.3815384,1000.9,0,0
44.76,0.330104,6.452346,9.005442,1000.8849,0,0
44.8,-0.8504838,5.985223,6.9223056,1000.9126,0,0
44.84,-0.4776234,6.4142118,6.931777499999999,1000.8899,0,0
44.88,-0.28162766,6.0567193,8.243210000000001,1000.9126,0,0
44.92,-0.3009179,6.156821,8.816057,1000.9178,0,0
44.96,-0.7263039000000001,5.9375587,8.096428999999999,1000.89246,0,0
45.0,-0.40604055,6.0853224,7.9543979999999985,1000.9077,0,0
45.04,-0.39169288,6.132987,7.864445699999999,1000.8749,0,0
45.08,-0.26740152,6.1663527,7.959135000000002,1000.9431,0,0
45.12,-0.22435854,6.247383599999999,7.542509599999999,1000.87225,0,0
45.16,-0.44421303,6.161585,7.400478999999999,1000.90015,0,0
45.2,-0.463324,6.299815,7.2158380000000015,1000.8899,1,2
45.24,-0.5158853,6.247382599999999,7.3531375,1000.90515,1,2
45.28,-0.6162365,6.337947,7.8881273,1000.9052,1,2
45.32,-0.6544667,6.185416,7.4999065,1000.8974,1,2
45.36,-0.31986392,6.4428105,7.656144,1000.92035,1,2
45.4,-0.5875081999999999,6.0900846,7.263190700000001,1000.8922,1,2
45.44,-0.6018394,6.0710180000000005,7.059612,1000.88983,1,2
45.48,-0.45842874,6.1329827,7.0927539999999984,1000.89484,1,2
45.52,-0.28155953,6.2855124,6.3163133,1000.92035,1,2
45.56,-0.02343361,6.304578,6.8797092000000015,1000.9355,1,2
45.6,0.1295283,6.242613,7.0075383,1000.9381,1,2
45.64,-0.12855633,5.7802563,7.3768244,1000.9203,1,2
45.68,-0.06162259,6.4904733,6.013317,1000.90515,1,2
45.72,0.5597766,7.195922,7.338952499999999,1000.9532,1,2
45.76,0.63148195,7.1911559999999985,7.6088147,1000.91504,1,2
45.8,0.521563,6.9718933000000005,7.6324883,1000.9025,1,2
45.84,0.880073,7.1482553,7.3436923,1000.8949,1,2
45.88,0.9422187,7.133956,7.12591,1000.9052,1,2
45.92,-0.02899269,6.638256500000002,7.305733999999997,1000.9102,1,2
45.96,-0.02900283,6.819386,7.5945315,1000.95807,1,2
46.0,-0.91329694,7.3341746,10.5298605,1000.96576,1,2
46.04,-1.5729201000000002,6.7049894,10.198451,1000.95044,1,2
46.08,-1.635078,6.8336869999999985,9.242099,1000.9151,1,2
46.12,-1.1762472,6.4046974,8.640825999999999,1000.92035,1,2
46.16,-1.1762472,6.4046974,8.640825999999999,1000.9202,1,2
46.2,-1.5108639,4.5219083,8.370964,1000.8721,1,2
46.24,-1.0424633,5.532418700000001,7.012187,1000.88995,1,2
46.28,-0.53103447,5.6658826,7.414610400000001,1000.85455,1,2
46.32,-0.2538261,5.775514,6.6144943,1000.9278,1,2
46.36,-0.8704511999999999,4.755472,8.673957000000001,1000.91003,1,2
46.4,-1.2385063,4.3646145,8.086889999999999,1000.8746,1,2
46.44,-0.15829092,5.885146,6.3683,1000.905,1,2
46.48,0.013761684,6.4809666,6.9269576,1000.9202,1,2
46.52,0.104547545,5.179697,7.722335,1000.9481,1,2
46.56,-0.30652574,4.984268,8.58873,1000.9329,1,2
46.6,-0.0866852,5.1367993,8.574524,1000.9354,1,2
46.64,-0.4977585,4.836507,9.819671,1000.8872,1,2
46.68,-0.808466,4.5362134,7.1541996,1000.9049,1,2
46.72,-0.5695062,5.4895260000000015,7.518746000000001,1000.9152,1,2
46.76,-0.7081307,5.8422513,7.83595,1000.9657,1,2
46.8,-1.4299116000000005,4.7507105,9.00061,1000.98846,1,2
46.84,-0.6747126999999999,5.155868,9.682364,1000.948,1,2
46.88,-1.1288245,5.942351,8.749683000000001,1000.86707,1,2
46.92,-1.1906255,5.775513,8.219461,1000.9404,1,2
46.96,-0.87516487,4.8889337,10.473038,1000.9278,1,2
47.0,-0.5501444999999999,5.427554,9.332046,1000.8138,1,2
47.04,-0.96599054,5.78028,7.106875,1000.86444,1,2
47.08,-1.6686313000000002,5.2464255999999985,7.409876,1000.9227,1,2
47.12,-0.82261235,5.3131575999999985,8.617148,1000.89215,1,2
47.16,-1.1572082,5.8231792,7.424077499999999,1000.90247,1,2
47.2,-0.4545833,7.1625824000000025,7.2062945,1000.9377,1,2
47.24,-0.421131,7.0958505,9.34151,1000.9911,1,2
47.28,-0.9325763,6.009076,9.478807000000002,1000.92255,1,2
47.32,-0.88000166,5.642051,8.749709,1000.9124,1,2
47.36,-1.3627715,3.9070249,10.615064,1000.88715,1,2
47.4,-2.3808758,4.7411723,7.125807000000001,1000.85925,1,2
47.44,-2.1275527000000003,4.4599449999999985,8.484580000000001,1000.8972,1,2
47.48,-1.8885689,3.902258400000001,9.436194,1000.9303,1,2
47.52,-1.5444262,3.84506,9.734462,1000.9202,1,2
47.56,-1.3914788,3.3064394,9.639772,1000.86707,1,2
47.6,-1.2002897,3.2730732,8.7970495,1000.82385,1,2
47.64,-0.5645854,3.9832907,8.148435000000001,1000.882,1,2
47.68,-0.54546934,3.759262600000001,8.451437,1000.9352,1,2
47.72,-0.4355402,3.778329,8.811250999999997,1000.8693,1,2
47.76,-0.1535381,4.717341,8.039541999999999,1000.9277,1,2
47.8,-0.33040035,5.370359,8.645544000000001,1000.9201,1,2
47.84,-0.62675136,5.6992517,8.186307000000001,1000.91,1,2
47.88,-1.5158011999999998,5.8041162,9.39358,1000.9429,1,2
47.92,-1.0620086000000002,4.7983794,10.790202,1000.91504,1,2
47.96,-0.5410366,4.1453624,9.010065,1000.8821,1,2
48.0,-0.59840316,4.593418,8.451404,1000.8771,1,2
48.04,-0.7418239000000001,3.2969162000000005,9.61133,1000.9149,1,2
48.08,-0.48372334,3.2301843,8.905904,1000.88464,1,2
48.12,-0.13481544,4.2406945,9.16156,1000.86694,1,2
48.16,-0.1443928,4.5362215,8.129457,1000.86694,1,2
48.2,0.16627671,4.7030515999999984,7.495046,1000.8366,1,2
48.24,0.061112136,4.445657700000001,7.4808416,1000.9124,1,2
48.28,-0.0345017,4.1787305,7.9874215,1000.9352,1,2
48.32,0.41000235,4.240696400000001,9.753353,1000.86444,1,2
48.36,0.25224215,4.936614499999999,8.441921,1000.8947,1,2
48.4,0.8019018,5.446637,8.796999000000003,1000.86426,1,2
48.44,1.11736,5.4704695,8.4750595,1000.91,1,2
48.48,1.4710388,5.3227067,9.393531,1000.8795,1,2
48.52,0.66801405,5.6182337,9.753345,1000.8997,1,2
48.56,-0.79463255,5.4895377,9.199416,1000.8795,1,2
48.6,-1.0049616,5.5705695,8.167314,1000.85925,1,2
48.64,-1.3156579,5.508604,8.479784,1000.89215,1,2
48.68,-0.8759425,4.8412867,9.582898,1000.8821,1,2
48.72,-0.6704287,4.526695,9.469271,1000.86945,1,2
48.76,-0.95722586,4.3360324,9.62077,1000.86444,1,2
48.8,-0.6608957,4.264535,10.44929,1000.8391,1,2
48.84,-0.9716096,3.549552,9.284624,1000.877,1,2
48.88,-0.9716096,3.549552,9.284624,1000.85425,1,2
48.92,0.018916905,4.3646064,8.735535,1000.872,1,2
48.96,-0.22003141,4.1358104,8.584038,1000.8618,1,2
49.0,0.014192908999999997,4.593399,7.978035,1000.8542,1,2
49.04,0.13372986,4.67443,7.461988400000001,1000.86444,1,2
49.08,0.8077101,5.3036146,7.518803599999999,1000.8997,1,2
49.12,0.95591193,5.6611056,7.9307,1000.872,1,2
49.16,1.0706551000000002,5.913732,7.8644204,1000.8795,1,2
49.2,1.4626268999999998,6.876576400000001,7.878626299999999,1000.8895,1,2
49.24,1.9788595,7.653525,8.304724,1000.83905,1,2
49.28,1.1758945,6.7669444000000025,7.3862534,1000.882,1,2
49.32,0.5210894,6.1758904,7.5140850000000015,1000.8745,1,2
49.36,0.5928003000000001,6.16159,7.3909917,1000.8718,1,2
49.4,1.0277903,5.961394,8.536719,1000.85925,1,2
49.44,1.0278043,5.9661602999999985,8.101156,1000.8896,1,2
49.48,1.1473413,6.6906757,6.832339299999999,1000.8668,1,2
49.52,1.0899974,6.395149,7.566173599999999,1000.882,1,2
49.56,1.0326679,6.2187862,8.186382,1000.8466,1,2
49.6,0.94665927,6.3903813,7.244239,1000.8718,1,2
49.64,0.636,6.380847,7.130615700000001,1000.86163,1,2
49.68,0.72684413,6.3570137,7.741357000000002,1000.89984,1,2
49.72,0.5691385,6.4904776,7.807641499999999,1000.94525,1,2
49.76,0.0003837198,6.4142113,6.5293555,1000.8441,1,2
49.8,0.10077353,6.6573052,6.633514,1000.80615,1,2
49.84,0.05779715,6.3808436,6.3967977,1000.86163,1,2
49.88,0.3398335,6.209247,8.508345,1000.8668,1,2
49.92,0.40198487,6.271212,8.716660000000001,1000.8566,1,2
49.96,0.3482043,6.4333043,7.419322500000002,1000.86694,1,2
50.0,0.23345856,6.657333,7.409850599999999,1000.85425,1,2
50.04,-0.2780109000000001,6.061515,8.247838,1000.8897,1,2
50.08,-0.27802107,6.0186152,8.280978,1000.8921,1,2
50.12,-0.17767565,6.390408,7.0879045,1000.84894,1,2
50.16,0.05651447,6.5286384,7.154184299999999,1000.854,1,2
50.2,-0.06299075,6.414242,7.111573700000001,1000.87683,1,2
50.24,-0.31156090000000003,6.290311,7.532934,1000.86426,1,2
50.28,-0.21119514,6.471441,7.409839,1000.887,0,0
50.32,-0.22078517,6.204514,7.8169947,1000.86426,0,0
50.36,-0.12997907,6.40471,7.433507400000001,1000.84906,0,0
50.4,-0.02484367,6.519108,7.4713807,1000.8844,0,0
50.44,-0.058332756,6.46191,7.4335027,1000.892,0,0
50.48,-0.17783803,6.4333105,7.4098296,1000.86926,0,0
50.52,-0.21610685,6.3046145,7.395623700000002,1000.8567,0,0
50.56,-0.16354932,6.342747,7.5897320000000015,1000.8565,0,0
50.6,-0.0058361143,6.404713,7.575527,1000.8944,0,0
50.64,0.05628106,6.361815,7.9116683,1000.90717,0,0
50.68,0.037151694,6.2903166,7.9400735,1000.87177,0,0
50.72,0.09447889,6.361816,7.485567999999999,1000.8844,0,0
50.76,0.070559576,6.485746400000001,7.376674,1000.8793,0,0
50.8,-0.13021247,6.533413,7.6702056,1000.88684,0,0
50.84,-0.23538846,6.700243,7.310389,1000.8743,0,0
50.88,-0.23538846,6.700243,7.310389,1000.8971,0,0
50.92,-0.31610635,6.3046050000000005,8.432492,1000.87427,0,0
50.96,-0.3925806,6.2664723,7.3814554,1000.86414,0,0
51.0,-0.28742242,6.347504,7.173141499999999,1000.8844,0,0
51.04,-0.19182508,6.4952674,7.409861599999997,1000.86414,0,0
51.08,-0.11534567,6.452368700000001,7.135267,1000.8793,0,0
51.12,-0.14402069,6.557233,7.097392,1000.8971,0,0
51.16,0.07107301,6.5953655,7.6607857,1000.9097,0,0
51.2,0.20013024,6.5143332,8.0679455,1000.86664,0,0
51.24,0.21447094,6.6620965,7.670255,1000.8969,0,0
51.28,0.15711583,6.4333014,7.225221,1000.8667,0,0
51.32,0.004164651,6.5953649999999975,7.0595174,1000.87933,0,0
51.36,-0.08664782,6.4809675,7.239425,1000.86926,0,0
51.4,-0.25871822,6.390403,7.106862,1000.8716,0,0
51.44,-0.005386099,6.6096644,7.0453153,1000.86664,0,0
51.48,-0.08186041,6.6716294000000005,7.357786,1000.8894,0,0
51.52,0.05675772,6.7431273,7.2630987,1000.9071,0,0
51.56,-0.024497695,6.724061,7.0311127,1000.85645,0,0
51.6,-0.09619347,6.6668625,6.8890805,1000.87177,0,0
51.64,-0.048392914,6.557232000000001,6.931690700000001,1000.87933,0,0
51.68,-0.081849016,6.6906953,6.889081,1000.8589,0,0
51.72,-0.00058978796,6.857525,7.300975,1000.89435,0,0
51.76,-0.081843935,6.6668625,7.783884,1000.8692,0,0
51.8,-0.062720865,6.60013,7.130536,1000.8918,0,0
51.84,-0.06749942,6.5905976,7.22049,1000.85895,0,0
51.88,-0.16309294,6.6048965,7.0311146,1000.8818,0,0
51.92,-0.09711799,6.623986200000001,7.2961550000000015,1000.869,0,0
51.96,-0.0015752017,6.7336183000000025,7.334025,1000.8791,0,0
52.0,0.03186567,6.6811867,7.504461999999997,1000.9095,0,0
52.04,-0.020765454,6.628756,7.2109246,1000.8563,0,0
52.08,0.065235525,6.7479205,7.253530499999999,1000.8716,0,0
52.12,-0.054295115,6.5953918000000025,7.4618410000000015,1000.874,0,0
52.16,-0.054330617000000005,6.4714622,7.4807754,1000.8791,0,0
52.2,-0.011330143,6.542961,7.343476,1000.87427,0,0
52.24,0.13680826,6.657359,7.049939,1000.8665,0,0
52.28,-0.1500155,6.533429,7.0404677,1000.8841,0,0
52.32,-0.22652785,6.5477300000000005,7.0878086,1000.874,0,0
52.36,-0.22176583,6.542964,6.9552429999999985,1000.8589,0,0
52.4,-0.10708605,6.490533,7.779025999999999,1000.88916,0,0
52.44,-0.27441472,6.5953979999999985,7.021518,1000.8868,0,0
52.48,-0.26490837,6.5715666,7.3197813,1000.90186,0,0
52.52,-0.3461828,6.5477343,7.210888400000001,1000.8818,0,0
52.56,-0.43227255,6.290341400000001,7.5233539999999985,1000.8539,0,0
52.6,-0.25545532,6.571569,7.2298174,1000.8665,0,0
52.64,-0.28416967,6.55727,7.210877,1000.86646,0,0
52.68,-0.33198540000000004,6.4810057,7.310297500000001,1000.8741,0,0
52.72,0.021666765,6.50484,8.266643,1000.91693,0,0
52.76,0.069447026,6.5334396,7.840544,1000.8767,0,0
52.8,-0.37512803,6.3475456,7.457053,1000.8513,0,0
52.84,-0.51376003,6.204549,7.438113,1000.87897,0,0
52.88,-0.15946692,6.2807994,7.8832016,1000.8891,0,0
52.92,-0.102113746,6.304632,7.726966,1000.88916,0,0
52.96,0.012597084,6.504828,7.3576818,1000.874,0,0
53.0,0.08428529,6.6811905,7.338742999999999,1000.8688,0,0
53.04,-0.22641084,6.4142637,7.494978,1000.88403,0,0
53.08,-0.21208033,6.3236995,7.944744999999997,1000.8993,0,0
53.12,-0.22165322,6.3427653,7.319802799999999,1000.8589,0,0
53.16,-0.22643746,6.3856654000000015,7.2393174,1000.90186,0,0
53.2,-0.20732716,6.376132,7.3482084,1000.88916,0,0
53.24,-0.23601484,6.3522997000000005,7.551786999999999,1000.889,0,0
53.28,-0.18344589,6.3856660000000005,7.414488,1000.92194,0,0
53.32,-0.12131733,6.5000634,7.513910000000001,1000.86145,0,0
53.36,-0.20736265,6.47623,7.665410499999999,1000.8765,0,0
53.4,-0.22649078,6.4762306,7.5517835999999985,1000.8916,0,0
53.44,-0.22171536,6.461931,7.329266,1000.88135,0,0
53.48,-0.23129277,6.3856673,7.3908114,1000.90924,0,0
53.52,-0.23129277,6.3856673,7.3908114,1000.91455,0,0
53.56,-0.15004943,6.376134,7.693812400000001,1000.90424,0,0
53.6,-0.23131052,6.3523010000000015,7.6606708,1000.9069,0,0
53.64,-0.17874600000000002,6.3237023,7.518637700000001,1000.89404,0,0
53.68,-0.059259772,6.419034,7.4665585,1000.8687,0,0
53.72,0.04589146400000002,6.528664599999999,7.362400999999997,1000.89435,0,0
53.76,-0.25046968,6.3427690000000005,7.528103999999999,1000.8916,0,0
53.8,-0.21701992,6.4333339999999986,7.3813369999999985,1000.8918,0,0
53.84,-0.14532733,6.4524,7.466555599999999,1000.89667,0,0
53.88,-0.2074781,6.4333344000000015,7.6653996,1000.87646,0,0
53.92,-0.16896297,6.4571605000000005,7.4713144,1000.88916,0,0
53.96,-0.18329987,6.4571605000000005,7.3292823,1000.89685,0,0
54.0,-0.13071948,6.4237943,7.693832,1000.8943,0,0
54.04,-0.21675342,6.3570623,7.300876,1000.8891,0,0
54.08,-0.035118334,6.47146,7.3245482000000015,1000.8714,0,0
54.12,0.02224058,6.419028,7.395564599999997,1000.8639,0,0
54.16,-0.13070807,6.328463,7.0594225,1000.87897,0,0
54.2,-0.23108143,6.4142613,6.964735000000001,1000.86896,0,0
54.24,-0.23108143,6.4142613,6.964735000000001,1000.9069,0,0
54.28,-0.14504115,6.519125,7.6464887,1000.89667,0,0
54.32,-0.049442522,6.5524907,7.802725,1000.869,0,0
54.36,-0.058999605,6.3856616,7.788522,1000.8741,0,0
54.4,0.10829611,6.623989,7.3529572,1000.8943,0,0
54.44,0.17521589,6.6287556,7.296144,1000.8943,0,0
54.48,0.13220145,6.4476266,7.52813,1000.874,0,0
54.52,0.117864564,6.428560299999999,7.258269999999999,1000.87897,0,0
54.56,0.084407225,6.3475285,7.319817,1000.9016,0,0
54.6,0.07485013,6.5334244,7.045222,1000.9142,0,0
54.64,0.12265073,6.4714589999999985,7.622819,1000.8739,0,0
54.68,-0.025519408,6.3236957,7.5896792,1000.88654,0,0
54.72,0.03183952,6.438093,7.46185,1000.90936,0,0
54.76,0.046181455,6.547724,7.158848299999999,1000.87897,0,0
54.8,-0.049410798,6.3427615,7.4713197,1000.89435,0,0
54.84,-0.058969162,6.3665943,7.6654300000000015,1000.907,0,0
54.88,0.036628217000000005,6.4523926,7.7979937,1000.8741,0,0
54.92,0.05033666,6.590637700000001,7.229807400000001,1000.922,0,0
54.96,-0.10265131,6.376144,7.2724133,1000.9044,0,0
55.0,0.021612167,6.476241,7.3292255000000015,1000.89667,0,0
55.04,0.08850658,6.4142776,7.698507000000001,1000.879,0,0
55.08,0.02635771,6.3809114000000005,7.419175999999997,1000.89935,0,0
55.12,0.12669934,6.500076,7.258203,1000.87146,0,0
55.16,0.07888989,6.504843,7.4475784,1000.9116,0,0
55.2,-0.007169425500000002,6.3856800000000025,7.348153599999999,1000.8816,0,0
55.24,0.17920868,6.4667125,7.343416,1000.9044,0,0
55.28,0.15529825,6.404747,7.8547306,1000.8714,0,0
55.32,-0.09328577,6.395214599999999,7.442835,1000.87646,0,0
55.36,-0.21279234,6.2665176,7.7647724,1000.90186,0,0
55.4,-0.20325552,6.190254,7.7363644,1000.8868,0,0
55.44,0.03092061,6.4238153,7.471235000000001,1000.89435,0,0
55.48,0.12649386,6.395217,7.404951,1000.879,0,0
55.52,0.040446,6.4190497,7.3292,1000.86896,0,0
55.56,-0.11253059,6.3332524,7.8689194,1000.88654,0,0
55.6,-0.16989963,6.252221,7.9351997,1000.884,0,0
55.64,-0.17948207,6.2760544000000005,7.5848520000000015,1000.88654,0,0
55.68,0.19809957,6.500083,7.551709,1000.8966,0,0
55.72,0.10246928,6.266523,7.6416593,1000.8688,0,0
55.76,-0.06006693,6.214092,7.528032,1000.8766,0,0
55.8,-0.012291685,6.233158,7.499624000000002,1000.90436,0,0
55.84,0.08328156,6.3141904,7.6416535,1000.884,0,0
55.88,0.14538477,6.366623400000001,7.5516963000000015,1000.884,0,0
55.92,0.040217683,6.3570905,7.428601,1000.8764,0,0
55.96,0.0074219406,6.2903423,7.6085687,1000.874,0,0
56.0,-0.07861095,6.338008,7.433397,1000.8891,0,0
56.04,0.05044554,6.37614,7.68432,1000.88666,0,0
56.08,-0.035587400000000005,6.342774,7.4191937,1000.8816,0,0
56.12,0.12214972,6.4333386,7.873697,1000.86646,0,0
56.16,-0.0547013,6.3141747000000015,7.547023299999997,1000.9172,0,0
56.2,0.07913858,6.3141747000000015,7.892635,1000.9018,0,0
56.24,0.026562512000000003,6.2808084000000015,7.599102499999999,1000.8614,0,0
56.28,0.103042945,6.4381056,7.253491,1000.87146,0,0
56.32,0.12694548,6.3904394999999985,7.215616000000002,1000.87897,0,0
56.36,0.0074557215,6.4095054000000005,7.362383,1000.874,0,0
56.4,0.01223734,6.3713727,7.547025,1000.8966,0,0
56.44,-0.088135004,6.233143,7.646447999999999,1000.8767,0,0
56.48,0.17475955,6.438104599999999,7.518619500000002,1000.86365,0,0
56.52,0.18910252,6.3332405,7.31504,1000.8764,0,0
56.56,0.27992058,6.4905367,7.296103,1000.87897,0,0
56.6,-0.016421914,6.218843,7.717465400000001,1000.92694,0,0
56.64,-0.10245663,6.185477,7.835825999999999,1000.8991,0,0
56.68,-0.15024933,6.271275,7.7079973,1000.8614,0,0
56.72,-0.13590814,6.2045426,7.9352484,1000.91437,0,0
56.76,-0.06898732,6.223609,7.973124,1000.8715,0,0
56.8,0.1174268,6.233142,8.124625,1000.86395,0,0
56.84,0.22258960000000005,6.4142714000000005,7.182479400000001,1000.8816,0,0
56.88,0.12699528,6.299874,7.499685,1000.8842,0,0
56.92,0.03140101,6.1330442000000005,8.148297999999999,1000.912,0,0
56.96,0.12222262,6.233142,7.755344,1000.86145,0,0
57.0,0.14650394,6.3093977,7.670159299999999,1000.8664,0,0
57.04,0.036587447,6.128268,7.5470667,1000.8715,0,0
57.08,0.036616027,6.2998629999999975,7.4807869999999985,1000.8868,0,0
57.12,-0.26449263,6.0710672999999975,7.6275559999999984,1000.8943,0,0
57.16,-0.20232661,6.209297,7.921091,1000.8767,0,0
57.2,0.12748934,6.5143559999999985,7.9731703,1000.88385,0,0
57.24,0.37604868,6.6668863,7.7175136,1000.89154,0,0
57.28,-0.46515876,6.194996400000001,7.8879557,1000.8843,0,0
57.32,-0.21659943,6.4523897,7.594423299999999,1000.8815,0,0
57.36,-0.5654965999999999,6.309393,7.3435025,1000.869,0,0
57.4,-0.49856985,6.285558999999999,7.504473,1000.86395,0,0
57.44,-0.46988147,6.290325599999999,7.324567,1000.8462,0,0
57.48,-0.5511096,6.295092,7.4192576,1000.8716,0,0
57.52,-0.4985128,6.304624,7.3435087,1000.8488,0,0
57.56,-0.41246676,6.314157,7.4666039999999985,1000.8638,0,0
57.6,-0.23080568,6.419021,7.551825999999997,1000.8664,0,0
57.64,-0.23080568,6.419021,7.551825999999997,1000.89185,0,0
57.68,-0.32159340000000003,6.2092915,7.6323137,1000.86646,0,0
57.72,0.032131106,6.6192145,7.310375,1000.8716,0,0
57.76,-0.3693534,6.333221400000001,7.376659,1000.87897,0,0
57.8,-0.3071874,6.380886,7.6133823,1000.86127,0,0
57.84,-0.5604979999999999,6.233122,7.4760857,1000.8489,0,0
57.88,-0.30714938,6.476216,7.5281663,1000.8539,0,0
57.92,-0.37883693,6.385651599999999,7.5991836,1000.8612,0,0
57.96,-0.460065,6.3713503,7.537638,1000.87146,0,0
58.0,-0.5038404000000001,6.2998714000000025,7.64646,1000.879,0,0
58.04,-0.5038404000000001,6.2998714000000025,7.64646,1000.8818,0,0
58.08,-0.34134415,6.3666034000000025,7.5707083,1000.8715,0,0
58.12,-0.5134285,6.276039,7.490222500000002,1000.8665,0,0
58.16,-0.29834875,6.323705,7.660660000000001,1000.869,0,0
58.2,-0.2218776,6.342771,7.736409700000001,1000.8893,0,0
58.24,-0.47522432,6.27604,8.100957000000001,1000.912,0,0
58.28,-0.6186299,6.762229,5.885255,1000.9197,0,0
58.32,-0.3748713,6.571567,8.015737,1000.826,0,0
58.36,-0.3366385,6.7240973,7.3434505,1000.8513,0,0
58.4,-0.58041996,6.071079,8.058344,1000.912,0,0
58.44,-1.1396742,6.3523064000000025,5.5301704,1000.91205,0,0
58.48,-0.30321420000000004,6.5477349999999985,7.083055,1000.84125,0,0
58.52,-1.0010769,6.438105,6.709036,1000.8715,0,0
58.56,-0.059472717,6.5334363,8.938939,1000.88184,0,0
58.6,-0.11205629,6.399973,8.773234,1000.8513,0,0
58.64,-0.33672416,6.338008,7.5280843,1000.86145,0,0
58.68,-0.3654144,6.156879,7.7648034,1000.8818,0,0
58.72,-0.035619363,6.318942,8.171961,1000.86163,0,0
58.76,-0.12166726,6.2998767,7.2582197,1000.8564,0,0
58.8,-0.3272102,6.266510500000001,7.433391999999999,1000.86145,0,0
58.84,-0.35590047,6.1854796,7.5754232,1000.8692,0,0
58.88,-0.16472544,6.261745,7.6369686,1000.86676,0,0
58.92,-0.24121374,6.3713756,7.400247,1000.86414,0,0
58.96,-0.24121374,6.3713756,7.400247,1000.89966,0,0
59.0,-0.39896435,6.285578299999999,7.599091,1000.9069,0,0
59.04,-0.37985086,6.2236129999999985,7.7316537,1000.87427,0,0
59.08,-0.38464773,6.3284783,7.636964,1000.84644,0,0
59.12,-0.46113038,6.333245,7.475992999999999,1000.8692,0,0
59.16,-0.5758627,6.175948,7.6843057,1000.8895,0,0
59.2,-0.5089569,6.218848,7.5138664,1000.87427,0,0
59.24,-0.41336656,6.199781400000001,7.433381,1000.8842,0,0
59.28,-0.4229433,6.29988,7.504395,1000.90466,0,0
59.32,-0.42772883,6.2760477,7.3955035,1000.8817,0,0
59.36,-0.2700067,6.357079,7.551738,1000.8741,0,0
59.4,-0.18876146,6.423811,7.722175599999999,1000.8691,0,0
59.44,-0.20789208,6.3570795,7.565939,1000.8792,0,0
59.48,-0.17848605,6.295097,7.61335,1000.8642,0,0
59.52,-0.38878876,6.2712636,7.286676400000001,1000.8766,0,0
59.56,-0.24538606,6.385661,7.3245520000000015,1000.88666,0,0
59.6,-0.4461292000000001,6.290329,7.556539,1000.8793,0,0
59.64,-0.21191025,6.323695,7.542337,1000.85895,0,0
59.68,-0.039828695,6.50959,7.187257000000002,1000.88666,0,0
59.72,-0.2692507,6.2950954,7.655964,1000.8842,0,0
59.76,-0.26924208,6.2521963,7.797997,1000.89435,0,0
59.8,-0.32659537,6.223597,7.651231299999999,1000.8515,0,0
59.84,-0.18318844,6.347527,7.4287148,1000.88666,0,0
59.88,-0.16406058,6.366592400000001,7.480794,1000.86646,0,0
59.92,-0.006318465,6.404725,7.812203,1000.8895,0,0
59.96,0.04148388,6.3904257000000015,7.8926883,1000.88934,0,0
60.0,-0.054103576,6.390425,7.826407400000001,1000.8514,0,0
60.04,-0.106664225,6.3618255,7.4950009999999985,1000.8642,0,0
60.08,-0.20703149,6.247428,7.627565400000001,1000.8791,0,0
60.12,-0.11620662,6.309393,7.518674400000001,1000.8692,0,0
60.16,-0.11619803,6.280793,7.59916,1000.8791,0,0
60.2,0.008085489,6.5381866,7.3624406,1000.8692,0,0
60.24,-0.030148618,6.442856,7.712787,1000.8841,0,0
60.28,-0.14963086,6.3093925,7.736460000000001,1000.8716,0,0
60.32,-0.14484671,6.4237885000000015,7.5896940000000015,1000.85895,0,0
60.36,-0.16396162,6.295092,7.5328813,1000.8741,0,0
60.4,-0.03489834,6.3713565,7.637039,1000.8589,0,0
60.44,-0.19740307,6.3332243,7.4429297,1000.8765,0,0
60.48,-0.23162225,6.266511,7.575423700000001,1000.8566,0,0
60.52,-0.14082752,6.3713756,7.329232000000001,1000.8841,0,0
60.56,-0.06914125,6.423807599999999,7.404981599999997,1000.8715,0,0
60.6,-0.22689638,6.2474465,7.518605,1000.86145,0,0
60.64,-0.26515636,6.304645,7.2250705,1000.86646,0,0
60.68,-0.14090304,6.3713775,7.2866154,1000.8665,0,0
60.72,0.002469495,6.5525074,7.414442,1000.8918,0,0
60.76,-0.117057964,6.4238105,7.6700974,1000.8766,0,0
60.8,-0.07883032400000001,6.4667106,7.674831,1000.8437,0,0
60.84,-0.05017309,6.4238114,7.31028,1000.8843,0,0
60.88,-0.21270798,6.3141813,7.845266,1000.8893,0,0
60.92,-0.38480246,6.218851,7.395494999999999,1000.8513,0,0
60.96,-0.3609143,6.27605,7.485448,1000.8717,0,0
61.0,-0.20799297,6.399981,7.4428353,1000.8792,0,0
61.04,-0.2032347,6.376149,7.812116599999999,1000.9071,0,0
61.08,-0.21280512,6.33325,7.7553034,1000.86646,0,0
61.12,-0.10767101,6.4238153,7.499643300000002,1000.8791,0,0
61.16,-0.16505021,6.3380175,7.4144216,1000.9019,0,0
61.2,-0.12206437,6.4381166,7.546982300000002,1000.87396,0,0
61.24,-0.17466379999999998,6.3523190000000005,7.7600284,1000.9045,0,0
61.28,-0.1125371,6.361852,7.854715299999999,1000.8664,0,0
61.32,-0.20816556,6.3475533,7.324459,1000.8716,0,0
61.36,-0.088692054,6.409519,7.225034700000001,1000.8689,0,0
61.4,0.02123268,6.4953175000000005,7.3954725,1000.88666,0,0
61.44,-0.050496757,6.399987,7.4806886,1000.89185,0,0
61.48,-0.054941446,6.409512,7.6700954,1000.87646,0,0
61.52,-0.16966818,6.4714775,6.950465,1000.85645,0,0
61.56,-0.09319508,6.5000763,7.338685499999999,1000.87646,0,0
61.6,-0.12666513,6.4333453,7.3670917,1000.8463,0,0
61.64,-0.10754973,6.404746,7.655889500000002,1000.87396,0,0
61.68,-0.15057178,6.390446,7.636951400000001,1000.8438,0,0
61.72,-0.20316106,6.490545,7.594341,1000.89185,0,0
61.76,-0.4182598,6.295116,7.651153599999999,1000.859,0,0
61.8,-0.17927724,6.4667125,7.452307000000001,1000.87897,0,0
61.84,-0.31789923,6.3952136,7.291336999999999,1000.8714,0,0
61.88,-0.31312323,6.419046400000001,7.182445,1000.8716,0,0
61.92,-0.32269037,6.3523154,7.490181,1000.8918,0,0
61.96,-0.35137683,6.347549,7.286600599999999,1000.8841,0,0
62.0,-0.32748920000000004,6.385682,7.532788799999999,1000.8918,0,0
62.04,-0.2892546,6.3666152999999985,7.575398,1000.9019,0,0
62.08,-0.21278535,6.4619465,7.689023,1000.88666,0,0
62.12,-0.24147178,6.4571805,7.594334,1000.8943,0,0
62.16,-0.27494183,6.4905467,7.286597,1000.879,0,0
62.2,-0.27494183,6.4905467,7.286597,1000.89166,0,0
62.24,-0.3562137,6.3189507,7.6984887,1000.86395,0,0
62.28,-0.3562137,6.3189507,7.6984887,1000.87396,0,0
62.32,-0.27974826,6.4428816,7.632206,1000.85895,0,0
62.36,-0.22717422,6.466715,7.6700807,1000.8842,0,0
62.4,-0.09335112,6.509614,7.580126299999999,1000.8841,0,0
62.44,-0.27879423,6.3284607,7.376635,1000.8817,0,0
62.48,-0.23098034,6.337994,7.5565443,1000.884,0,0
62.52,-0.34088412,6.2092957,7.3908429999999985,1000.8689,0,0
62.56,-0.17355928,6.380891,7.272485700000002,1000.89154,0,0
62.6,-0.19742659,6.376124,7.390848599999999,1000.8539,0,0
62.64,-0.21175016,6.2998585999999985,7.466601,1000.889,0,0
62.68,-0.07788392,6.5238857,7.267759,1000.8966,0,0
62.72,-0.09697143,6.5191183,7.608639,1000.87396,0,0
62.76,-0.18775597,6.452386,7.599172999999999,1000.8538,0,0
62.8,-0.30721940000000003,6.337988,7.835896000000001,1000.86395,0,0
62.84,-0.11599552,6.48575,7.2630363,1000.8714,1,3
62.88,-0.04426676,6.4952826,7.424009,1000.88666,1,3
62.92,-0.28800502,6.2712536,7.428745699999999,1000.87897,1,3
62.96,-0.11588453,6.3904166,7.1967645000000005,1000.88666,1,3
63.0,-0.11588453,6.3904166,7.1967645000000005,1000.8637,1,3
63.04,-0.21619697,6.2617173,7.3814125,1000.8891,1,3
63.08,-0.15882348,6.2903166,7.3103976,1000.87885,1,3
63.12,-0.120553344,6.2807827000000005,6.922178999999999,1000.86115,1,3
63.16,-0.27347538,6.2521830000000005,7.192043300000001,1000.8738,1,3
63.2,-0.27820757,6.204516,7.0026712,1000.8688,1,3
63.24,-0.24473307,6.209282,6.9316564,1000.87897,1,3
63.28,-0.15866491,6.204515,6.903253,1000.8992,1,3
63.32,-0.27812827,6.166382,7.1636479999999985,1000.8891,1,3
63.36,-0.1203472,6.3141437000000025,7.1163087,1000.8916,1,3
63.4,-0.27328509999999995,6.1568465,7.1967955,1000.91187,1,3
63.44,-0.21110009,6.280776,7.045298599999999,1000.8891,1,3
63.48,-0.3401389,6.1616116,7.348301400000001,1000.87897,1,3
63.52,-0.41659993,6.099646,7.229943,1000.8816,1,3
63.56,-0.10588097,6.3475065000000015,6.9222093,1000.907,1,3
63.6,-0.43565577,5.9947805,7.2820272,1000.86896,1,3
63.64,-0.18705836,6.1330094000000015,7.21575,1000.9172,1,3
63.68,-0.25872374,6.180674,6.803859700000001,1000.89935,1,3
63.72,-0.34472847,6.0567427,7.3199124000000015,1000.86395,1,3
63.76,-0.316018,6.028143,6.9458976,1000.879,1,3
63.8,-0.18898894,6.166423,7.0214630000000025,1000.88654,1,3
63.84,-0.16990021,6.214089,6.936240700000001,1000.884,1,3
63.88,-0.22728834,6.1854906,7.154020299999999,1000.89685,1,3
63.92,-0.27033705,6.1807246,6.89836,1000.8993,1,3
63.96,-0.27036750000000004,6.13306,7.0167174,1000.91187,1,3
64.0,-0.21305552,6.171193,6.765789,1000.9018,1,3
64.04,-0.23218998,6.137828,6.9220232999999975,1000.92706,1,3
64.08,-0.22745585,6.2140937,6.8415339999999984,1000.927,1,3
64.12,-0.27050456,6.061565,6.936219,1000.9145,1,3
64.16,-0.29443400000000003,6.195029,6.945686,1000.9321,1,3
64.2,-0.29443400000000003,6.195029,6.945686,1000.9321,1,3
64.24,-0.25146148,6.2045636,6.9504160000000015,1000.927,1,3
64.28,-0.35186782,6.037735,6.9220066,1000.9094,1,3
64.32,-0.33277905,6.052035,6.9788169999999985,1000.91693,1,3
64.36,-0.34714895,6.0806346,6.922001,1000.9094,1,3
64.4,-0.19902074,6.204567,6.9409347000000015,1000.92725,1,3
64.44,-0.2611734,6.1378355,6.9930115000000015,1000.9398,1,3
64.48,-0.2946625,6.147369,6.817836,1000.93225,1,3
64.52,-0.28991318,6.1426034000000005,7.0072093,1000.9499,1,3
64.56,-0.32340223,6.133071,7.2439265,1000.94495,1,3
64.6,-0.2708549000000001,6.2570024,7.0734850000000025,1000.9096,1,3
64.64,-0.41905928,6.2045712,7.258124400000002,1000.94476,1,3
64.68,-0.23745719,6.395233599999999,7.068745599999999,1000.9624,1,3
64.72,-0.32830387,6.2141056,7.537449,1000.93713,1,3
64.76,-0.3283496,6.2570057,7.338599,1000.9703,1,3
64.8,-0.2743106,6.333235,6.9221059999999985,1000.9498,1,3
64.84,-0.2743106,6.333235,6.9221059999999985,1000.98535,1,3
64.88,-0.37941045,6.361833,7.258253599999999,1000.97253,1,3
64.92,-0.37941045,6.361833,7.258253599999999,1000.98785,1,3
64.96,-0.39372194,6.3093996,7.4997106,1000.98285,1,3
65.0,-0.20726775,6.4333290000000005,7.2345877,1000.9474,1,3
65.04,-0.35542768,6.318931,7.362417999999999,1000.99054,1,3
65.08,-0.30758783,6.4571605000000005,7.1067643,1000.9927,1,3
65.12,-0.30757385,6.404728,7.149375,1000.9853,1,3
65.16,-0.41748142,6.237898,7.32455,1000.9803,1,3
65.2,-0.5512741,6.1806984000000025,7.4334455,1000.9952,1,3
65.24,-0.49388856,6.3189273,7.390838599999999,1000.9956,1,3
65.28,-0.45085633,6.433325,7.2061977,1001.0133,1,3
65.32,-0.2644161,6.438091,7.68911,1001.00793,1,3
65.36,-0.25482857,6.5143547,7.206202999999999,1001.0133,1,3
65.4,-0.24522711,6.5524864,7.461864500000001,1001.04614,1,3
65.44,-0.32169002,6.461921,7.442928999999999,1001.0487,1,3
65.48,-0.38378558,6.557252,7.6938559999999985,1001.0411,1,3
65.52,-0.38378558,6.557252,7.6938559999999985,1001.03326,1,3
65.56,-0.4124365,6.385655,7.608639,1001.0309,1,3
65.6,-0.45061916,6.2950892,7.5139559999999985,1001.0359,1,3
65.64,-0.3454495,6.4237857000000025,7.244096300000002,1001.0562,1,3
65.68,-0.23072025,6.5620155,7.187285,1001.0662,1,3
65.72,-0.24981155,6.4857492,7.357725599999997,1001.08136,1,3
65.76,-0.2545495,6.380884,7.424011,1001.09424,1,3
65.8,-0.22585672,6.4428496,7.3198557,1001.07404,1,3
65.84,-0.46135348,6.409515,7.305535000000001,1001.09674,1,3
65.88,-0.39444765,6.471480400000001,7.310267999999999,1001.0914,1,3
65.92,-0.48050696,6.357084,7.2818594,1001.0765,1,3
65.96,-0.54266727,6.3713837,7.291326,1001.09674,1,3
66.0,-0.4614334,6.333252,7.438091,1001.09924,1,3
66.04,-0.34672955,6.385685,7.551715400000001,1001.1319,1,3
66.08,-0.26073873,6.5143824,6.969378999999999,1001.09424,1,3
66.12,-0.49496055,6.5525155,6.690048,1001.1245,1,3
66.16,-0.41849512,6.685979400000001,7.18716,1001.13214,1,3
66.2,-0.29904568,6.7527122,7.4475479999999985,1001.12976,1,3
66.24,-0.29904568,6.7527122,7.4475479999999985,1001.12976,1,3
66.28,-0.4042356,6.3952208,7.537499,1001.1575,1,3
66.32,-0.27520376,6.6478496,7.3291826,1001.14734,1,3
66.36,-0.27520376,6.6478496,7.3291826,1001.1243,1,3
66.4,-0.4855494000000001,6.3856897,7.300772999999999,1001.1879,1,3
66.44,-0.35652888,6.39999,7.504349,1001.1878,1,3
66.48,-0.31831333,6.3284926,7.4664717,1001.1575,1,3
66.52,-0.31831333,6.3284926,7.4664717,1001.15,1,3
66.56,-0.366157,6.2474620000000005,7.504342999999999,1001.18536,1,3
66.6,-0.5191335,6.2998949999999985,7.314964999999999,1001.1726,1,3
66.64,-0.39487004,6.4047594000000005,7.296025999999999,1001.1751,1,3
66.68,-0.29929683,6.2712965,7.8262773,1001.2082,1,3
66.72,-0.050769858,6.724119,7.3670382,1001.193,1,3
66.76,-0.046012856,6.657388,7.797867,1001.2005,1,3
66.8,-0.5800813,6.209301,7.50445,1001.19794,1,3
66.84,-0.54659355,6.2093,7.5375934,1001.2308,1,3
66.88,-0.4796617,6.342763,7.755378,1001.24115,1,3
66.92,-0.111587614,6.419028,7.925818400000002,1001.1928,1,3
66.96,-0.31229565,6.1949987,7.466585,1001.20306,1,3
67.0,-0.21190517,6.466692,6.7611604000000005,1001.2841,1,3
67.04,-0.19753657,6.366593,7.357697999999999,1001.27655,1,3
67.08,-0.55599266,6.104432,7.7980003,1001.2308,1,3
67.12,-0.14490037,6.3904247000000005,7.409782000000001,1001.24615,1,3
67.16,-0.05883474,6.5477204,7.2062050000000015,1001.26636,1,3
67.2,-0.20696491,6.2140603,7.466601400000001,1001.2688,1,3
67.24,-0.16393207,6.2807917999999985,7.409789999999999,1001.2638,1,3
67.28,-0.46023613,6.228358,7.315106,1001.2612,1,3
67.32,-0.35028607,6.2807903,7.2914352,1001.2941,1,3
67.36,0.14207749,6.5381827,7.7459419999999986,1001.29425,1,3
67.4,-0.10642856,6.4905167,7.461881599999999,1001.3018,1,3
67.44,-0.14463779999999998,6.509582,7.869043,1001.29425,1,3
67.48,0.017904714,6.724076299999999,7.660732,1001.3118,1,3
67.52,-0.37401006,6.366584,7.873783,1001.3221,1,3
67.56,-0.46481168,6.3141513,7.3624682,1001.2817,1,3
67.6,-0.40742487,6.3141503,7.25358,1001.3372,1,3
67.64,-0.39782152,6.2855506,7.239381,1001.31213,1,3
67.68,-0.39782152,6.2855506,7.239381,1001.35736,1,3
67.72,-0.27831185,6.3189154,7.4476957,1001.3245,1,3
67.76,-0.1635382,6.5191097000000005,7.551858,1001.3221,1,3
67.8,-0.3463177,6.4095073,7.5612216,1001.33466,1,3
67.84,-0.49928033,6.2998767,7.513877000000001,1001.35,1,3
67.88,-0.48019665,6.3094106,7.599093400000001,1001.3321,1,3
67.92,-0.40850842,6.3141775,7.7553277,1001.3093,1,3
67.96,-0.20777446,6.452408,7.4191837,1001.3751,1,3
68.0,-0.35119516,6.404743,7.281883,1001.3474,1,3
68.04,-0.20780995,6.476241,7.386039299999997,1001.35504,1,3
68.08,-0.48506522,6.366611,7.386037,1001.3448,1,3
68.12,-0.34168000000000004,6.5858729999999985,7.409708,1001.35736,1,3
68.16,-0.5281100000000001,6.3237133000000005,7.793193,1001.3829,1,3
68.2,-0.13140412,6.49531,7.9920363,1001.38275,1,3
68.24,-0.14097261,6.4381113,7.9115509999999984,1001.37256,1,3
68.28,-0.22224703,6.34278,7.3907647,1001.3625,1,3
68.32,-0.054971658,6.5382094,7.357622,1001.3929,1,3
68.36,-0.24140179,6.3189483,7.2487297,1001.39294,1,3
68.4,-0.2509791,6.3427815,7.4523066999999985,1001.3727,1,3
68.44,-0.3561526,6.323716,7.258194400000002,1001.408,1,3
68.48,-0.33705997,6.314183,7.433365299999997,1001.41565,1,3
68.52,-0.41832554,6.2808175,7.490177,1001.41833,1,3
68.56,-0.3179674000000001,6.509613,7.433363000000001,1001.3954,1,3
68.6,-0.3610034,6.585878,7.1350937000000005,1001.43835,1,3
68.64,-0.18417732,6.5572796,7.6511416,1001.44104,1,3
68.68,-0.11726892,6.54298,7.7174225,1001.42065,1,3
68.72,-0.1889926,6.43335,7.783701400000001,1001.42596,1,3
68.76,-0.015415341,6.6430416,7.3246017,1001.46387,1,3
68.8,-0.07753061,6.5810757,7.3435416,1001.4816,1,3
68.84,-0.20654093,6.4142456,7.1825757,1001.42847,1,3
68.88,-0.216034,6.3427453,7.712835000000001,1001.44855,1,3
68.92,-0.216034,6.3427453,7.712835000000001,1001.4536,1,3
68.96,-0.33068275,6.3665767,7.3198857,1001.42834,1,3
69.0,-0.42625666,6.2712445,7.4429820000000015,1001.4511,1,3
69.04,-0.27803838,6.328442,7.300954300000001,1001.4613,1,3
69.08,-0.21105460000000004,6.5763016000000025,7.1826,1001.4915,1,3
69.12,-0.18713337,6.5763006,7.334103,1001.4814,1,3
69.16,-0.359162,6.280773,7.7507350000000015,1001.4842,1,3
69.2,-0.2300629,6.4380690000000005,7.5376906,1001.4991,1,3
69.24,-0.12964267,6.438068,7.637117,1001.4941,1,3
69.28,-0.043561846,6.647795,7.286775,1001.5144,1,3
69.32,-0.32074606,6.4523654000000015,7.542437,1001.4967,1,3
69.36,-0.28724313,6.4809637,7.4382844,1001.50684,1,3
69.4,-0.31587762,6.4475965,7.7839003,1001.51434,1,3
69.44,-0.13895829999999998,6.461894,7.5093107,1001.50684,1,3
69.48,-0.04331789,6.4952593,7.381486,1001.49677,1,3
69.52,-0.21056667,6.3379617,7.177911,1001.53467,1,3
69.56,-0.21056667,6.3379617,7.177911,1001.5246,1,3
69.6,-0.22483954,6.4046917,7.570872299999999,1001.5271,1,3
69.64,-0.26301146,6.3570247,7.485659,1001.53467,1,3
69.68,-0.3060075,6.3141254999999985,7.509333,1001.5448,1,3
69.72,-0.22470644,6.4523544,7.1968665,1001.5322,1,3
69.76,-0.2055429,6.461886,7.3767776,1001.5626,1,3
69.8,-0.3553543,6.3856616,7.3482213,1001.57526,1,3
69.84,-0.2932397,6.5334252999999975,7.3482194,1001.5348,1,3
69.88,-0.22155407,6.5524917,7.334014999999999,1001.58026,1,3
69.92,-0.23114797,6.619224000000001,8.039438,1001.57263,1,3
69.96,-0.26939785,6.538193,7.902139,1001.5575,1,3
70.0,-0.22163409,6.4952955,7.5186496,1001.57526,1,3
70.04,-0.24554451,6.457163,7.575462,1001.57526,1,3
70.08,-0.24078757,6.4380975,7.409755,1001.61066,1,3
70.12,-0.116546944,6.471464,7.324533,1001.5804,1,3
70.16,-0.14045738,6.438099,7.210906,1001.5827,1,3
70.2,-0.21218872,6.4142666,7.187231,1001.59045,1,3
70.24,-0.28868842,6.361835,7.447621000000002,1001.61066,1,3
70.28,-0.30781907,6.333236,7.589652,1001.6005,1,3
70.32,-0.2648351,6.4095016,7.509164299999999,1001.6182,1,3
70.36,-0.2457273,6.3332376,7.537569500000001,1001.6157,1,3
70.4,-0.18361272,6.4619346,7.244034299999999,1001.64105,1,3
70.44,-0.16452777,6.5715660000000025,7.428673,1001.64105,1,3
70.48,-0.15019982,6.5525002,7.471282,1001.6613,1,3
70.52,-0.27449757,6.466703,7.6843276,1001.6588,1,3
70.56,-0.06898884,6.5858674,7.4996839999999985,1001.6563,1,3
70.6,-0.08814232,6.4619374,7.518617999999999,1001.6385,1,3
70.64,0.040889516,6.576336,7.4333973,1001.6358,1,3
70.68,0.007419482,6.5954022,7.3150363,1001.6586,1,3
70.72,-0.15033692,6.485771700000001,7.315034,1001.6839,1,3
70.76,-0.23161644,6.3713746,7.3292350000000015,1001.6789,1,3
70.8,-0.12158534,6.4762363,7.248759,1001.6689,1,3
70.84,-0.06423653,6.5143695,7.362383,1001.68695,1,3
70.88,-0.16940995,6.447638,7.5138826,1001.67645,1,3
70.92,-0.15507941,6.4714712999999975,7.291364999999999,1001.67377,1,3
70.96,-0.33674747,6.4047403,7.2440175999999985,1001.71936,1,3
71.0,-0.3032977000000001,6.4381065,7.2534857000000015,1001.71185,1,3
71.04,-0.24596669,6.4857726,7.4665318,1001.73456,1,3
71.08,-0.24596669,6.4857726,7.4665318,1001.7046,1,3
71.12,-0.21254356,6.50484,7.570685000000001,1001.71686,1,3
71.16,-0.21254356,6.50484,7.570685000000001,1001.6967,1,3
71.2,-0.23168048,6.5858717,7.599089999999999,1001.73456,1,3
71.24,-0.3034042,6.523907,7.5564775,1001.7476,1,3
71.28,-0.32254112,6.5334406,7.433382000000001,1001.722,1,3
71.32,-0.27953178,6.5858729999999985,7.338692699999997,1001.7498,1,3
71.36,-0.3655949,6.46671,7.6890364,1001.76746,1,3
71.4,-0.42775005,6.4142785,7.646425,1001.7549,1,3
71.44,-0.37996095,6.3952117,7.5896115,1001.7831,1,3
71.48,-0.0692914,6.662139999999999,7.1351070000000005,1001.7725,1,3
71.52,-0.040630326,6.6097083,7.4807167,1001.77765,1,3
71.56,-0.28918898,6.37138,7.537528999999997,1001.7958,1,3
71.6,-0.2844358,6.3237157,7.229789999999999,1001.7499,1,3
71.64,-0.16497621,6.5191455000000005,7.016739,1001.77264,1,3
71.68,-0.16497621,6.5191455000000005,7.016739,1001.7903,1,3
71.72,-0.15066345,6.595411,7.6369433,1001.7803,1,3
71.76,-0.1506723,6.600178,7.679552,1001.7903,1,3
71.8,-0.053561486,6.6621055999999985,7.4808455,1001.8182,1,3
71.84,0.03729792,6.657337700000001,7.5613350000000015,1001.8029,1,3
71.88,0.051658884,6.733602,7.305679,1001.8308,1,3
71.92,-0.14904979,6.5381727,7.471386999999999,1001.8056,1,3
71.96,-0.08684763,6.7050004,7.083172,1001.8258,1,3
72.0,-0.33057448,6.3570404,7.7696643,1001.8131,1,3
72.04,-0.15845841,6.4809704,7.1399918000000016,1001.8157,1,3
72.08,-0.124956705,6.4619026,7.272559599999999,1001.8637,1,3
72.12,-0.1010361,6.5477004,7.2962337,1001.8461,1,3
72.16,-0.15835063,6.5048002999999985,7.106861,1001.84607,1,3
72.2,-0.19176614,6.495266,7.5234933,1001.8536,1,3
72.24,-0.019650087,6.6096625,7.154213,1001.8562,1,3
72.28,-0.024365202,6.581061,7.5803156,1001.8739,1,3
72.32,0.00433515,6.652559299999999,7.3530664,1001.84607,1,3
72.36,-0.086459555,6.6430254,7.234708,1001.86615,1,3
72.4,-0.253688,6.504794,7.2205105,1001.88904,1,3
72.44,-0.15804881,6.6620893,7.4525003,1001.874,1,3
72.48,-0.14844608,6.6096562999999975,7.641880499999999,1001.8943,1,3
72.52,-0.17710337,6.56199,7.627680000000002,1001.8865,1,3
72.56,-0.14360164,6.6048875,7.2110558,1001.88666,1,3
72.6,-0.11487967,6.6239532999999975,7.2962785,1001.8841,1,3
72.64,-0.21999222,6.5095544,7.461987,1001.8766,1,3
72.68,-0.16259147,6.50002,7.3388963,1001.90674,1,3
72.72,-0.267704,6.514319,7.3294315,1001.8991,1,3
72.76,-0.21506149,6.466652,7.343641000000001,1001.91943,1,3
72.8,-0.24050638,6.4714565,7.371906,1001.9321,1,3
72.84,-0.19750844,6.523889,7.485530000000002,1001.9449,1,3
72.88,-0.27879554,6.4476247,7.3387600000000015,1001.9421,1,3
72.92,0.06533004,6.8003507,7.073632000000001,1001.9018,1,3
72.96,-0.039835773,6.6335216,7.154115700000001,1001.95483,1,3
73.0,-0.18802997,6.571556599999999,7.220395,1001.93463,1,3
73.04,-0.36013335,6.5000587,7.381362400000001,1001.9474,1,3
73.08,-0.36013335,6.5000587,7.381362400000001,1001.93976,1,3
73.12,-0.30281633,6.50006,7.5802035,1001.9547,1,3
73.16,-0.30281633,6.50006,7.5802035,1001.95996,1,3
73.2,-0.2693983,6.5286602999999985,7.4239645,1001.9776,1,3
73.24,-0.13558409,6.566793,7.476041,1001.95734,1,3
73.28,-0.13559423,6.566793,7.2913985,1001.97,1,3
73.32,-0.08304684,6.562027499999999,7.2866607,1001.96747,1,3
73.36,-0.14519443,6.4952964999999985,7.2203789999999985,1001.9599,1,3
73.4,-0.11653592,6.6239940000000015,6.9789224,1001.9979,1,3
73.44,-0.36511618,6.471464599999999,7.428688,1001.9776,1,3
73.48,-0.22174227,6.562029400000001,7.1777625,1001.9902,1,3
73.52,-0.18351404,6.5763289999999985,7.2345743,1001.9675,1,3
73.56,-0.15963528,6.5810966,7.2961197,1001.9828,1,3
73.6,-0.28872043,6.5667973,7.457087,1002.0105,1,3
73.64,-0.35086802,6.5143657,7.395539,1001.9979,1,3
73.68,-0.31263977,6.6096973,7.386069,1001.9929,1,3
73.72,-0.21227403,6.7193284,7.570709700000001,1002.0359,1,3
73.76,-0.030682057,6.752695599999999,7.5754404000000015,1001.9852,1,3
73.8,-0.02085182,6.714556,7.2582603,1002.01807,1,3
73.84,-0.059099153,6.638292,7.4002914,1002.0283,1,3
73.88,-0.24552034,6.5572605,7.1730394,1002.02576,1,3
73.92,-0.29332727,6.519128,7.139898,1002.05115,1,3
73.96,-0.26465738,6.4809957,7.423961,1002.0436,1,3
74.0,-0.27422586,6.4237967000000005,7.300865700000001,1002.0737,1,3
74.04,-0.13084061,6.623993,7.17777,1002.08405,1,3
74.08,-0.15475294,6.6287594,7.258253999999999,1002.0815,1,3
74.12,-0.17865644,6.6144605,7.225113,1002.0738,1,3
74.16,-0.46545357,6.414265,7.1256895,1002.09406,1,3
74.2,-0.2981693,6.4905305,7.357674,1002.07635,1,3
74.24,-0.24082057,6.547729,7.513909299999999,1002.06116,1,3
74.28,-0.15001316,6.7097917,7.3434696,1002.0839,1,3
74.32,-0.24083832,6.595395,7.575454700000001,1002.09656,1,3
74.36,-0.16915457,6.8098902999999975,7.3718743,1002.0991,1,3
74.4,-0.16915457,6.8098902999999975,7.3718743,1002.10925,1,3
74.44,-0.40815365,6.5286636,7.5375776,1002.12445,1,3
74.48,-0.43684584,6.4476323,7.3245277,1002.0813,1,3
74.52,-0.27912563,6.6001625,7.130416,1002.1042,1,3
74.56,-0.27435026,6.5429645,7.0688686,1002.122,1,3
74.6,-0.29826263,6.5810966,7.281915,1002.1168,1,3
74.64,-0.29826263,6.5810966,7.281915,1002.11676,1,3
74.68,-0.44166565,6.514365,7.0830699999999975,1002.1344,1,3
74.72,-0.5181557999999999,6.5143657,7.348195,1002.1522,1,3
74.76,-0.42256862,6.533432,7.34346,1002.1573,1,3
74.8,-0.35438990000000004,6.471436,7.5566235,1002.165,1,3
74.84,-0.20617414,6.6811630000000015,7.2015467000000015,1002.1497,1,3
74.88,-0.26826975,6.681162,7.386193,1002.1574,1,3
74.92,-0.33034435,6.614429,7.3057137,1002.17,1,3
74.96,-0.29684392,6.719292,7.4430156,1002.1599,1,3
75.0,-0.31594223,6.695459,7.282047299999999,1002.17255,1,3
75.04,-0.31594223,6.695459,7.282047299999999,1002.2004,1,3
75.08,-0.4449131,6.490495,7.490368400000001,1002.1878,1,3
75.12,-0.4448713,6.50956,7.4667,1002.20544,1,3
75.16,-0.33013505,6.5429254,7.4430304,1002.1954,1,3
75.2,-0.2058183,6.628722,7.428831,1002.208,1,3
75.24,-0.057602517,6.6906867,7.239459,1002.2054,1,3
75.28,-0.09101929,6.614421000000001,7.357823,1002.1877,1,3
75.32,-0.024060175,6.786016,7.035887,1002.21045,1,3
75.36,-0.4493999,6.433289,7.651365299999997,1002.2256,1,3
75.4,-0.31552356,6.681149,7.390976400000001,1002.2181,1,3
75.44,-0.2724844,6.7192807,7.3389,1002.213,1,3
75.48,-0.30112132,6.762179,7.585093,1002.2231,1,3
75.52,-0.30585927,6.728812,7.395721000000001,1002.20544,1,3
75.56,-0.2675999,6.8003097000000015,7.414660499999999,1002.2231,1,3
75.6,-0.3057965,6.728811,7.637181299999999,1002.26105,1,3
75.64,-0.20535779,6.97667,7.622983500000001,1002.26605,1,3
75.68,-0.2626945,6.881338,7.6561265,1002.23584,1,3
75.72,-0.36778742,6.838437599999999,7.7176795,1002.2484,1,3
75.76,-0.4060049000000001,6.771705,7.5803833,1002.26105,1,3
75.8,-0.34446925,6.819386,7.6986884999999985,1002.26624,1,3
75.84,-0.29666364,6.838452,7.660814299999997,1002.2863,1,3
75.88,-0.32054743,6.809852,7.817050999999997,1002.26105,1,3
75.92,-0.263167,6.8336844,7.547192,1002.28894,1,3
75.96,-0.2535998,6.8718166,7.783913,1002.2789,1,3
76.0,-0.31571442,6.819384,7.774446000000001,1002.2686,1,3
76.04,-0.37782907,6.857516,7.6466193,1002.28894,1,3
76.08,-0.22008792,6.9719130000000025,7.679761,1002.299,1,3
76.12,-0.33478800000000003,6.8575152999999975,7.9874988,1002.294,1,3
76.16,-0.24394892,6.986211999999999,7.7460460000000015,1002.3017,1,3
76.2,-0.41600668,6.7764826000000005,7.840735400000002,1002.3015,1,3
76.24,-0.3873126,6.900413,7.8975496,1002.31934,1,3
76.28,-0.39208484,6.905179,7.9401603,1002.3067,1,3
76.32,-0.36817068,6.838447,8.091662,1002.32184,1,3
76.36,-0.26299214,6.8908787,7.925960499999999,1002.2941,1,3
76.4,-0.25820473,6.900411599999999,7.8407415999999985,1002.29913,1,3
76.44,-0.27252895,6.9242444,7.802867999999999,1002.327,1,3
76.48,-0.43502706,6.7955465,7.9306984,1002.30927,1,3
76.52,-0.47325784,6.8575115,7.840745,1002.3294,1,3
76.56,-0.44933605,6.852744,8.228969000000001,1002.3194,1,3
76.6,-0.36807182,6.8432117,8.243172999999999,1002.31934,1,3
76.64,-0.11949919,6.833678,7.6703115,1002.30676,1,3
76.68,-0.09081276,6.824144,7.419389,1002.304,1,3
76.72,-0.24374364,6.6763806,7.5188130000000015,1002.332,0,0
76.76,-0.21983705,6.790778,7.381516499999999,1002.32684,0,0
76.8,-0.67447317,6.571529400000001,8.323613,1002.3244,0,0
76.84,-0.62190294,6.6859274000000015,8.01114,1002.3194,0,0
76.88,-0.5071914000000001,6.7621922,7.6655293,1002.32184,0,0
76.92,-0.33990592,6.962387599999999,7.395666999999999,1002.3369,0,0
76.96,-0.35903278,6.8384576,7.878576,1002.34467,0,0
77.0,-0.3685962,6.8098583,8.001669999999999,1002.3726,0,0
77.04,-0.22999328,6.9814544000000005,7.9401217000000015,1002.342,0,0
77.08,-0.31603742,6.847991,7.646588,1002.342,0,0
77.12,-0.35427964,6.8289247,7.774416400000002,1002.35474,0,0
77.16,-0.4976852,6.652562599999999,7.7176027,1002.3295,0,0
77.2,-0.48812938,6.6334968,7.764946000000001,1002.3369,0,0
77.24,-0.47379762,6.709761,7.49035,1002.3472,0,0
77.28,-0.46902537,6.685929,7.731803999999999,1002.3473,0,0
77.32,-0.42123878,6.647797,7.6465836,1002.342,0,0
77.36,-0.31608695,6.6573296000000015,7.585036,1002.35474,0,0
77.4,-0.32565793,6.7335954,7.570832000000001,1002.3623,0,0
77.44,-0.24440509,6.929024000000001,7.4430027,1002.3446,0,0
77.48,-0.46906346,6.619198,7.480876400000001,1002.36,0,0
77.52,-0.46907872,6.5524664,7.438266,1002.342,0,0
77.56,-0.34481144,6.5715330000000005,7.7128606,1002.3066,0,0
77.6,-0.38783348,6.5477004,7.5660934000000015,1002.31683,0,0
77.64,-0.44042277,6.5048018,7.5424204,1002.35223,0,0
77.68,-0.44042277,6.5048018,7.5424204,1002.32184,0,0
77.72,-0.40697557,6.604899400000001,7.1305265,1002.35223,0,0
77.76,-0.4739352,6.538169,7.414586999999999,1002.3421,0,0
77.8,-0.4739352,6.538169,7.414586999999999,1002.3295,0,0
77.84,-0.5647604,6.4523715999999975,7.5518837,1002.347,0,0
77.88,-0.4261549,6.5620020000000014,7.25835,1002.3395,0,0
77.92,-0.26365045,6.6954660000000015,7.3340993,1002.3726,0,0
77.96,-0.5074293,6.3761067,7.6513042,1002.3497,0,0
78.0,-0.30669087,6.5858360000000005,7.078439,1002.3547,0,0
78.04,-0.2636771,6.5763025,7.324628,1002.3497,0,0
78.08,-0.25412634,6.5763025,7.334096400000001,1002.342,0,0
78.12,-0.3401761,6.4762053,7.5471435,1002.3598,0,0
78.16,-0.29716676,6.6239690000000016,7.1115770000000005,1002.34717,0,0
78.2,-0.2445978,6.6811675999999975,7.225202,1002.3573,0,0
78.24,-0.41189533,6.4571394999999985,7.7649240000000015,1002.3776,0,0
78.28,-0.4453628,6.447607,7.589750299999999,1002.34216,0,0
78.32,-0.24939978,6.6239696,7.329357000000001,1002.3395,0,0
78.36,-0.2972111,6.5572386,7.272542999999999,1002.347,0,0
78.4,-0.2972111,6.5572386,7.272542999999999,1002.34955,0,0
78.44,-0.4406141,6.433308,7.409839999999999,1002.3471,0,0
78.48,-0.34024704,6.480974,7.2299314,1002.3573,0,0
78.52,-0.22076085,6.643037,7.5944796,1002.37494,0,0
78.56,-0.27334762,6.571539,7.192054700000001,1002.33966,0,0
78.6,-0.22077861,6.6954694,7.3956337,1002.3547,0,0
78.64,-0.42153925,6.4714417,7.45718,1002.32935,0,0
78.68,-0.4167772,6.4857416,7.329349499999997,1002.36237,0,0
78.72,-0.35942840000000004,6.509575,7.3340826,1002.32935,0,0
78.76,-0.35942840000000004,6.509575,7.3340826,1002.332,0,0
78.8,-0.29183364,6.5572240000000015,7.1968474,1002.3523,0,0
78.84,-0.1770898,6.7240524000000015,7.2252564,1002.36237,0,0
78.88,-0.39694172,6.566756,7.3341494,1002.37744,0,0
78.92,-0.43516117,6.5429225,7.310478999999999,1002.3547,0,0
78.96,-0.41603243,6.5000230000000006,7.2063227,1002.33716,0,0
79.0,-0.2248117000000001,6.6382527,7.405171000000001,1002.3244,0,0
79.04,-0.28215986,6.533388,7.3530929999999985,1002.34216,0,0
79.08,-0.25823227,6.5715203,7.362564,1002.3395,0,0
79.12,-0.363369,6.5858192,7.6703024000000015,1002.35974,0,0
79.16,-0.42548734,6.7049828,7.206332700000001,1002.40027,0,0
79.2,-0.6023210999999999,6.328424,7.1637244,1002.3929,0,0
79.24,-0.5162751,6.461887,7.433586599999999,1002.32684,0,0
79.28,-0.3011554,6.633483,6.90807,1002.32184,0,0
79.32,-0.32026505,6.671614599999999,6.9412119999999975,1002.3498,0,0
79.36,-0.29634705,6.633482000000001,7.5188107,1002.3598,0,0
79.4,-0.39192408,6.542917299999999,7.1305914,1002.327,0,0
79.44,-0.37756568,6.571516,7.2442193,1002.3674,0,0
79.48,-0.3584179,6.5715156000000015,7.353113,1002.3395,0,0
79.52,-0.2867018,6.6001143,7.3862553,1002.3369,0,0
79.56,-0.3105818,6.5905805,7.4430704,1002.3623,0,0
79.6,-0.30100316,6.700211,7.1116633,1002.32935,0,0
79.64,-0.31054378,6.6573114,7.372057400000001,1002.36,0,0
79.68,-0.4013505,6.528614,7.400465,1002.3547,0,0
79.72,-0.26270765,6.590578599999999,7.225295,1002.3395,0,0
79.76,-0.23401931,6.619178,7.163748,1002.342,0,0
79.8,-0.14878869,6.7240615,7.272565400000001,1002.37006,0,0
79.84,-0.29219678,6.6525636,7.196814,1002.3447,0,0
79.88,-0.28743792,6.633498,7.2915,1002.3572,0,0
79.92,-0.28743792,6.633498,7.2915,1002.33716,0,0
79.96,-0.27789226,6.6287317,7.2630925,1002.3648,0,0
80.0,-0.22533536,6.6573315000000015,7.3388405,1002.3523,0,0
80.04,-0.22056253,6.652564999999999,7.2441520000000015,1002.29913,0,0
80.08,-0.28749374,6.590600500000001,7.201541400000001,1002.3877,0,0
80.12,-0.2492693,6.724064,7.1541960000000016,1002.35736,0,0
80.16,-0.28274187,6.7240644,7.2488832,1002.3523,0,0
80.2,-0.3114347,6.6192007,7.4145856,1002.3447,0,0
80.24,-0.26843740000000005,6.614434700000001,7.334099,1002.3369,0,0
80.28,-0.23020594,6.6954664999999975,7.282019999999997,1002.35724,0,0
80.32,-0.20632789,6.6525674,7.234674000000001,1002.3523,0,0
80.36,-0.31149054,6.581069500000001,7.3056893,1002.3369,0,0
80.4,-0.23503463,6.6811675999999975,6.997951,1002.35736,0,0
80.44,-0.2637344,6.671635,7.438248599999999,1002.35474,0,0
80.48,-0.25896853,6.709768,7.329356,1002.337,0,0
80.52,-0.25419572,6.7240677,7.457185000000001,1002.3346,0,0
80.56,-0.22075105,6.7860336,7.0831649999999975,1002.3218,0,0
80.6,-0.18251961,6.8861313,6.936398,1002.3168,0,0
80.64,-0.440643,6.6573367,7.371962,1002.37506,0,0
80.68,-0.44065702,6.647804700000001,7.253601,1002.3572,0,0
80.72,-0.26859796,6.728836,7.3388186,1002.34467,0,0
80.76,-0.053520776,6.8765993000000005,7.376692299999997,1002.3724,0,0
80.8,-0.15776198,6.643016,7.3436356,1002.3598,0,0
80.84,-0.24378702,6.5905833,7.054838,1002.31934,0,0
80.88,-0.18640655,6.71928,6.822854,1002.3396,0,0
80.92,-0.15292509,6.8193774000000005,7.1495304000000015,1002.332,0,0
80.96,-0.09554461,6.8575089999999985,7.220548,1002.3623,0,0
81.0,-0.29627353,6.7049785,7.111659,1002.3167,0,0
81.04,-0.34404874,6.714511,6.9554257,1002.3369,0,0
81.08,-0.28666827,6.852740299999999,6.8891463,1002.3598,0,0
81.12,-0.44914734,6.6287117,7.3673244,1002.3497,0,0
81.16,-0.44914734,6.6287117,7.3673244,1002.34216,0,0
81.2,-0.18622386,6.7526410000000014,7.130607,1002.35974,0,0
81.24,-0.13841446,6.7764735,7.0643262999999985,1002.3547,0,0
81.28,-0.023676291,6.8384385,7.016985000000001,1002.38495,0,0
81.32,-0.12402933,6.847971,7.116409,1002.33936,0,0
81.36,-0.28174007,6.738339999999999,7.0264573000000015,1002.337,0,0
81.4,-0.17655014,6.8765693,7.3484,1002.3522,0,0
81.44,-0.1908781,6.8336697,7.272650200000001,1002.3345,0,0
81.48,-0.27689174,6.5905747,7.3957477,1002.36237,0,0
81.52,-0.20039207,6.6620727,7.0169973,1002.33185,0,0
81.56,-0.061743483,6.824135000000001,7.040672,1002.3344,0,0
81.6,-0.22423398,6.5953399999999975,7.2205815000000015,1002.35455,0,0
81.64,-0.20988318,6.557206599999999,7.277395200000001,1002.35223,0,0
81.68,0.00045104325,6.7192690000000015,6.9933333,1002.33435,0,0
81.72,-0.08555119,6.762167,7.206384700000001,1002.3725,0,0
81.76,-0.2098147,6.595338000000001,7.2868705,1002.34973,0,0
81.8,-0.05859212,6.8384743000000014,7.348259,1002.35223,0,0
81.84,-0.30721223,6.695479400000001,7.2251587,1002.3217,0,0
81.88,-0.39805192,6.6525807,7.1115303,1002.3446,0,0
81.92,-0.28336012,6.7574460000000025,7.0973253,1002.32935,0,0
81.96,-0.22607279,6.714548599999999,7.1636004,1002.3523,0,0
82.0,-0.24521542,6.724082000000001,7.296161,1002.3421,0,0
82.04,-0.097111866,6.828948,7.300889999999999,1002.3547,0,0
82.08,-0.111474715,6.8194156,7.485529400000001,1002.35205,0,0
82.12,-0.24057634,6.7193190000000005,7.253539,1002.34216,0,0
82.16,-0.116348326,6.766986,7.1399092999999985,1002.36725,0,0
82.2,-0.14985383,6.7812867,6.9079190000000015,1002.3622,0,0
82.24,-0.097322874,6.8003535,7.083088,1002.3572,0,0
82.28,-0.30768114,6.7717557,7.1162243,1002.32434,0,0
82.32,-0.23603098,6.852788,7.1919703,1002.3445,0,0
82.36,-0.25041726,6.9767202999999975,7.1493564,1002.3471,0,0
82.4,-0.11184989,6.8670896999999975,7.476025999999999,1002.3495,0,0
82.44,-0.10711694,6.7574606,6.7611265,1002.3142,0,0
82.48,-0.11672344,6.609699000000001,6.694841,1002.3394,0,0
82.52,-0.07372869,6.6287656,6.661698,1002.34973,0,0
82.56,-0.17893124,6.6001673,6.8889445999999985,1002.36475,0,0
82.6,-0.37972993,6.5763354000000005,7.423928299999999,1002.3573,0,0
82.64,-0.12644719,6.790832000000001,7.400252,1002.33716,0,0
82.68,0.09337689,6.9147634999999985,7.3576380000000015,1002.3444,0,0
82.72,0.11722903,6.9242973,7.0972414000000015,1002.3219,0,0
82.76,-0.035771593,6.72887,7.362364,1002.33185,0,0
82.8,-0.21594118,6.724067,7.073699,1002.3572,0,0
82.84,-0.16335635,6.7860327000000025,7.177857,1002.37994,0,0
82.88,-0.3640942,6.6239690000000016,7.603954300000002,1002.3445,0,0
82.92,-0.5409259,6.55247,6.9174675999999975,1002.3495,0,0
82.96,-0.47877455,6.4809723,7.2630805999999986,1002.33185,0,0
83.0,-0.37839168,6.562003,7.334097,1002.3648,0,0
83.04,-0.33057266,6.6716332,7.5187407,1002.3623,0,0
83.08,-0.2971071,6.7002324999999985,7.608695,1002.35205,0,0
83.12,-0.27319413,6.6859326,7.7744,1002.3192,0,0
83.16,-0.27795994,6.7288313,7.461931,1002.34955,0,0
83.2,-0.28271878,6.6430326,7.3767133,1002.3474,0,0
83.24,-0.28271878,6.6430326,7.3767133,1002.34717,0,0
83.28,-0.33528268,6.538168,7.1115885,1002.35724,0,0
83.32,-0.31614256,6.6334987000000005,7.1210594,1002.3575,0,0
83.36,-0.29222953,6.5620002999999985,7.523485000000001,1002.3421,0,0
83.4,-0.28744274,6.614432000000001,7.2204833,1002.3347,0,0
83.44,-0.23484395,6.628731,7.0689845,1002.3448,0,0
83.48,-0.11533491,6.771727,7.031111,1002.34955,0,0
83.52,-0.33519190000000004,6.666863,7.121066000000001,1002.3626,0,0
83.56,-0.3017193,6.6668625,7.3530526,1002.3748,0,0
83.6,-0.25868014,6.7049947,7.2962413,1002.36224,0,0
83.64,-0.2013155,6.7478933,7.163678999999999,1002.352,0,0
83.68,-0.3542483,6.590596700000001,7.140009,1002.32715,0,0
83.72,-0.3542483,6.590596700000001,7.140009,1002.347,0,0
83.76,-0.3781264,6.595362700000001,7.201558,1002.3622,0,0
83.8,-0.4361639,6.581078999999999,7.357731299999997,1002.35223,0,0
83.84,-0.27366447,6.824174,7.1920256999999985,1002.35223,0,0
83.88,-0.39317352,6.7193103,7.457151,1002.37744,0,0
83.92,-0.14463764,6.876607000000001,7.2298985,1002.34955,0,0
83.96,-0.32151127,6.681178599999999,7.116271,1002.32666,0,0
84.0,-0.16857155,6.90044,6.993175,1002.33936,0,0
84.04,-0.39322925,6.6382804,7.343520599999999,1002.3318,0,0
84.08,-0.36935118,6.581082,6.978969,1002.3445,0,0
84.12,-0.36936516,6.609682,7.258298,1002.3497,0,0
84.16,-0.13038886,6.790811,7.120999,1002.3547,0,0
84.2,-0.1829737,6.7097797,7.267765,1002.3673,0,0
84.24,-0.15909556,6.7145470000000005,7.3766539999999985,1002.3444,0,0
84.28,-0.034834653,6.800345,7.087854400000001,1002.3344,0,0
84.32,-0.010942578,6.7288475000000005,7.092588,1002.3471,0,0
84.36,0.02249515,6.690715299999999,7.343509700000001,1002.35974,0,0
84.4,-0.030089691,6.6382832999999986,7.4902754,1002.3522,0,0
84.44,0.012914598,6.681182400000001,7.3056326,1002.36975,0,0
84.48,-0.010991365,6.7622137,7.1967406,1002.35724,0,0
84.52,-0.12094778,6.7002497000000005,7.1967387,1002.36224,0,0
84.56,-0.25957605,6.5524864,7.4855356,1002.3294,0,0
84.6,-0.19266573,6.590619,7.2724867,1002.35474,0,0
84.64,-0.14488865,6.7002506,7.1541247000000014,1002.3623,0,0
84.68,-0.2930765,6.585853599999999,7.334030999999999,1002.3497,0,0
84.72,-0.19271454,6.7145509999999975,7.1351852,1002.34467,0,0
84.76,-0.06846057,6.7240844,7.348231,1002.3547,0,0
84.8,-0.020733103,6.7812853,7.220395599999999,1002.3522,0,0
