Timestamp,Ax,Ay,Az,P,Value,Type
0.0,4.1075497,3.5570178,8.208158500000001,1003.68744,0,0
0.04,3.7968519,3.204293,8.852036,1003.69244,0,0
0.08,3.4765952000000007,2.8611012,8.93252,1003.7125,0,0
0.12,3.5865195,3.156628,8.482750999999999,1003.69257,0,0
0.16,3.5434911,3.132795,8.312311,1003.73486,0,0
0.2,3.4431052,3.0898964,7.682635,1003.715,0,0
0.24,4.0071106,4.462665,4.7615066,1003.72003,0,0
0.28,3.5100014,2.5369766,6.1912956,1003.7075,0,0
0.32,2.6687453,1.8505926,4.572128299999998,1003.6976,0,0
0.36,3.4382834000000004,1.8172269,4.3685480000000005,1003.7102,0,0
0.4,4.298637,1.0259788,6.5274353,1003.70776,0,0
0.44,5.4505589999999975,0.4158597,6.409074,1003.7152,0,0
0.48,6.444749,0.27762985,6.210228400000001,1003.70544,0,0
0.52,6.9179378,-0.5994163,5.523738400000001,1003.71075,0,0
0.56,9.040162,-0.33725548,6.4564157,1003.68787,0,0
0.6,8.868078,-0.9759739,4.8940606,1003.7379,0,0
0.64,9.637616,-2.3392088,4.742559,1003.7482,0,0
0.68,11.081106,-2.6156688,7.933547,1003.80304,0,0
0.72,10.765629,-2.5108044,4.567384,1003.75574,0,0
0.76,11.673781,-2.2248104,6.4280043,1003.80347,0,0
0.8,8.045898,-5.0084795999999985,3.876159200000002,1003.7659,0,0
0.84,11.286595,-1.2000004,1.0355153,1003.7034,0,0
0.88,9.366207,-3.0732841,2.2665606,1003.7233,0,0
0.92,9.700822,-3.8931324,3.4122891,1003.7961,0,0
0.96,9.37583,-3.9598653,2.4133332000000003,1003.8113,0,0
1.0,9.093855,-4.2029605000000005,2.0251148000000003,1003.79114,0,0
1.04,8.209622,-4.998976,1.433317,1003.8012,0,0
1.08,8.615939,-5.2325387,1.2344749,1003.7888,0,0
1.12,9.32816,-5.137208,0.98828876,1003.8087,0,0
1.16,9.146561,-5.561433,1.3481065,1003.7736,0,0
1.2,9.834883,-5.4279699999999975,1.3528436,1003.764,0,0
1.24,9.256561,-5.2992735,0.56693584,1003.7688,0,0
1.28,8.726037,-5.2659087,0.22606167,1003.7736,0,0
1.32,8.496639,-5.308808,0.15978304,1003.7993,0,0
1.36,8.5062275,-5.261143700000001,0.5858821,1003.78925,0,0
1.4,8.425006,-5.499472,0.31602424,1003.7768,0,0
1.44,8.171708,-5.8474317000000005,0.49120006,1003.8118,0,0
1.48,8.229097,-5.4708742999999975,0.37757733,1003.77435,0,0
1.52,8.143092,-5.6996699999999985,0.112453505,1003.7668,0,0
1.56,7.368798299999999,-6.190625700000001,0.33497375,1003.78174,0,0
1.6,7.5265627,-5.766403,-0.010634981000000002,1003.7646,0,0
1.64,7.9663377,-5.8140697,0.40599564,1003.7596,0,0
1.68,8.119326,-5.6615400000000005,0.07932476,1003.7693,0,0
1.72,7.823008,-5.590043,0.017780308,1003.75995,0,0
1.76,8.171969,-5.7807064000000015,0.26397258,1003.77466,0,0
1.8,8.062064,-5.7616405,0.1645529,1003.78467,0,0
1.84,7.9760604000000015,-5.7711744000000005,0.5196363,1003.7975,0,0
1.88,8.055528,-5.79973,0.5857541,1003.76215,0,0
1.92,8.036371,-5.9045935,0.4768594,1003.77496,0,0
1.96,7.673064,-5.8855260000000005,0.42477712,1003.75494,0,0
2.0,7.6491256,-5.9379573,0.6520249,1003.7475,0,0
2.04,7.763803999999999,-5.6233635,0.3537541,1003.79034,0,0
2.08,7.548675999999999,-5.8569239999999985,0.64728385,1003.75775,0,0
2.12,7.5295053,-5.9617867,0.902937,1003.77527,0,0
2.16,7.629852,-5.923653599999999,0.67568284,1003.78033,0,0
2.2,7.6011380000000015,-6.018984,0.77983654,1003.7729,0,0
2.24,7.6966925,-6.0046835,0.7372231,1003.7758,0,0
2.28,7.758791,-6.0809474,0.7277507,1003.7756,0,0
2.32,7.8830295,-6.319274,0.72774726,1003.7658,0,0
2.36,8.040716,-6.0571127,0.12173922,1003.7733,0,0
2.4,8.045454,-6.052345,0.36792448,1003.7633,0,0
2.44,7.9163594,-6.0285115,0.6235786999999999,1003.76825,0,0
2.48,8.011923,-5.9522457000000015,0.18801032,1003.7558,0,0
2.52,7.906724499999997,-6.3764677,0.51468045,1003.7658,0,0
2.56,7.85412,-6.195338,0.4152555000000001,1003.7686,0,0
2.6,7.610311999999999,-5.8426123,0.5904251,1003.75146,0,0
2.64,7.796675,-5.6519485000000005,0.22587138,1003.7663,0,0
2.68,7.5337567,-5.8998084,0.5998866999999999,1003.74896,0,0
2.72,7.629303500000002,-6.0714035000000015,1.0591193,1003.7814,0,0
2.76,7.691411500000001,-6.1381345000000005,0.8365997,1003.77686,0,0
2.8,7.782181299999999,-6.057102,1.0922532,1003.79144,0,0
2.84,7.705665,-5.9951360000000005,0.7419036999999999,1003.7743,0,0
2.88,7.553990400000001,-6.014233,0.7798961,1003.74146,0,0
2.92,7.6782804,-5.8331050000000015,0.36326984,1003.77936,0,0
2.96,7.907723,-5.8569374000000005,0.26384845,1003.74713,0,0
3.0,8.184965,-5.971335400000001,0.58105475,1003.7719,0,0
3.04,8.275793,-5.9951687000000025,0.41061732,1003.7446,0,0
3.08,8.180209,-5.8760047,0.46269682,1003.7847,0,0
3.12,7.826515700000002,-5.880771599999999,0.46269798,1003.76733,0,0
3.16,7.5493007,-6.0905004,0.34907353,1003.74713,0,0
3.2,7.568433,-5.976104,0.59052926,1003.78265,0,0
3.24,7.6927185,-5.990403700000001,0.7325624,1003.7548,0,0
3.28,7.850466,-5.775909,0.6000004,1003.7551,0,0
3.32,7.9604135,-5.7473097,0.77990884,1003.76483,0,0
3.36,7.9891047,-5.876007,0.9172078,1003.7702,0,0
3.4,8.132512,-5.895073,0.7941144,1003.76263,0,0
3.44,8.170763,-5.7139444,0.46270713,1003.7373,0,0
3.48,8.036938000000001,-5.7330112,0.50058335,1003.7427,0,0
3.52,7.6306686,-5.890308,0.1881139,1003.75543,0,0
3.56,7.2674136,-6.0952699999999975,0.5431951999999999,1003.7526,0,0
3.6,7.4873004,-5.995173,0.68049437,1003.763,0,0
3.64,7.955733,-5.84741,0.40589997,1003.75085,0,0
3.68,7.931845,-5.828344,0.5479333000000001,1003.7834,0,0
3.72,7.711989,-5.8474107,0.7941235,1003.763,0,0
3.76,7.702442,-5.847411,0.7136398,1003.7457,0,0
3.8,7.6881146,-5.9999410000000015,0.44851422,1003.7683,0,0
3.84,7.530392999999999,-6.381266,0.865143,1003.73816,0,0
3.88,7.667797,-6.123842,1.0165331,1003.74304,0,0
3.92,7.9975705,-5.8664474,0.75140345,1003.7635,0,0
3.96,8.260423,-5.9331775,0.60936785,1003.75085,0,0
4.0,8.246047,-5.775881,0.6803807,1003.75635,0,0
4.04,7.906645299999999,-5.771113400000001,0.8224096,1003.7786,0,0
4.08,7.52423,-5.8759766,0.74192184,1003.7892,0,0
4.12,7.557651,-5.952241000000001,0.6282926,1003.7636,0,0
4.16,7.7774887,-5.937940599999999,0.936026,1003.77637,0,0
4.2,7.9973235,-5.77111,1.0543828000000002,1003.75366,0,0
4.24,7.873013,-5.814008,1.0212386999999998,1003.77637,0,0
4.28,7.868200999999999,-5.9665370000000015,1.0543764,1003.7713,0,0
4.32,7.648294,-6.228697,0.7324337,1003.7591,0,0
4.36,7.590897999999997,-5.933169,0.58566374,1003.7767,0,0
4.4,7.6052046,-5.9665339999999984,0.3157996,1003.7691,0,0
4.44,7.676868400000001,-6.028499,0.7466274,1003.78436,0,0
4.48,8.1643715,-6.1238294,1.0022818000000002,1003.75684,0,0
4.52,8.250377,-5.918866,0.97860694,1003.7466,0,0
4.56,7.7436814,-5.842601,0.9312597,1003.75433,0,0
4.6,7.6910677,-5.8568992999999985,0.63298887,1003.762,0,0
4.64,7.442483,-5.8711980000000015,0.88390905,1003.7746,0,0
4.68,7.418547999999999,-5.9093294,1.0638131000000002,1003.7719,0,0
4.72,7.8295759999999985,-5.9903603,0.89337134,1003.7695,0,0
4.76,7.7578454,-6.3049526,1.1348228,1003.76733,0,0
4.8,7.619196,-6.1190557,0.91703707,1003.7724,0,0
4.84,7.796015299999999,-5.8473615999999975,0.12638846,1003.75494,0,0
4.88,7.6339474,-6.1285987,0.08381954,1003.76984,0,0
4.92,7.3614826,-6.080933,0.5572585999999999,1003.77765,0,0
4.96,7.6625943,-5.909336,0.81764936,1003.76495,0,0
5.0,7.653017500000002,-6.1619635000000015,0.81291354,1003.7523,0,0
5.04,7.777278,-6.2191615,1.0259603000000002,1003.7448,0,0
5.08,7.982793300000001,-6.1714964000000005,1.2295382,1003.7475,0,0
5.12,7.9779963,-6.166729,1.1537861,1003.76245,0,0
5.16,7.7389917,-6.1524286,0.9833463,1003.76514,0,0
5.2,7.8536896999999986,-6.1953273,0.76082766,1003.76483,0,0
5.24,7.8584533,-6.1142955,0.6472005,1003.77783,0,0
5.28,7.9301343,-5.866434,0.65193343,1003.75775,0,0
5.32,7.8440813999999985,-5.9665318,0.64246315,1003.7502,0,0
5.36,7.566837299999999,-6.157193,0.7229465,1003.7806,0,0
5.4,7.619397599999999,-6.133360400000001,0.7182105999999999,1003.78284,0,0
5.44,7.734097,-5.9283980000000005,0.69927156,1003.7657,0,0
5.48,7.8679156,-5.8807316,0.6898012,1003.7503,0,0
5.52,8.07343,-5.956997,0.6803309000000001,1003.7278,0,0
5.56,7.700589999999999,-6.252523,0.6992670999999999,1003.75775,0,0
5.6,7.4329042,-6.2477555,0.7182031999999999,1003.7807,0,0
5.64,7.5523834,-6.0046610000000005,0.35365254,1003.7682,0,0
5.68,7.4663315,-6.0952253,0.5335585,1003.7632,0,0
5.72,7.777001400000001,-5.985594,0.651917,1003.7604,0,0
5.76,7.781764999999999,-5.918862,0.69925964,1003.7581,0,0
5.8,7.6383557,-6.071391,0.72766465,1003.7554,0,0
5.84,7.571422,-6.1047564,0.6992567,1003.7657,0,0
5.88,7.514048,-6.1667213,0.65664554,1003.7503,0,0
5.92,7.3658576,-6.128588,0.43412703,1003.7582,0,0
5.96,7.294144,-6.104755,0.3015622,1003.7604,0,0
6.0,7.4327435,-6.1810203,0.49567145,1003.7606,0,0
6.04,4.1075497,3.5570178,8.208158500000001,1003.68744,0,0
6.08,3.7968519,3.204293,8.852036,1003.69244,0,0
6.12,3.4765952000000007,2.8611012,8.93252,1003.7125,0,0
6.16,3.5865195,3.156628,8.482750999999999,1003.69257,0,0
6.2,3.5434911,3.132795,8.312311,1003.73486,0,0
6.24,3.4431052,3.0898964,7.682635,1003.715,0,0
6.28,4.0071106,4.462665,4.7615066,1003.72003,0,0
6.32,3.5100014,2.5369766,6.1912956,1003.7075,0,0
6.36,2.6687453,1.8505926,4.572128299999998,1003.6976,0,0
6.4,3.4382834000000004,1.8172269,4.3685480000000005,1003.7102,0,0
6.44,4.298637,1.0259788,6.5274353,1003.70776,0,0
6.48,5.4505589999999975,0.4158597,6.409074,1003.7152,0,0
6.52,6.444749,0.27762985,6.210228400000001,1003.70544,0,0
6.56,6.9179378,-0.5994163,5.523738400000001,1003.71075,0,0
6.6,9.040162,-0.33725548,6.4564157,1003.68787,0,0
6.64,8.868078,-0.9759739,4.8940606,1003.7379,0,0
6.68,9.637616,-2.3392088,4.742559,1003.7482,0,0
6.72,11.081106,-2.6156688,7.933547,1003.80304,0,0
6.76,10.765629,-2.5108044,4.567384,1003.75574,0,0
6.8,11.673781,-2.2248104,6.4280043,1003.80347,0,0
6.84,8.045898,-5.0084795999999985,3.876159200000002,1003.7659,0,0
6.88,11.286595,-1.2000004,1.0355153,1003.7034,0,0
6.92,9.366207,-3.0732841,2.2665606,1003.7233,0,0
6.96,9.700822,-3.8931324,3.4122891,1003.7961,0,0
7.0,9.37583,-3.9598653,2.4133332000000003,1003.8113,0,0
7.04,9.093855,-4.2029605000000005,2.0251148000000003,1003.79114,0,0
7.08,8.209622,-4.998976,1.433317,1003.8012,0,0
7.12,8.615939,-5.2325387,1.2344749,1003.7888,0,0
7.16,9.32816,-5.137208,0.98828876,1003.8087,0,0
7.2,9.146561,-5.561433,1.3481065,1003.7736,0,0
7.24,9.834883,-5.4279699999999975,1.3528436,1003.764,0,0
7.28,9.256561,-5.2992735,0.56693584,1003.7688,0,0
7.32,8.726037,-5.2659087,0.22606167,1003.7736,0,0
7.36,8.496639,-5.308808,0.15978304,1003.7993,0,0
7.4,8.5062275,-5.261143700000001,0.5858821,1003.78925,0,0
7.44,8.425006,-5.499472,0.31602424,1003.7768,0,0
7.48,8.171708,-5.8474317000000005,0.49120006,1003.8118,0,0
7.52,8.229097,-5.4708742999999975,0.37757733,1003.77435,0,0
7.56,8.143092,-5.6996699999999985,0.112453505,1003.7668,0,0
7.6,7.368798299999999,-6.190625700000001,0.33497375,1003.78174,0,0
7.64,7.5265627,-5.766403,-0.010634981000000002,1003.7646,0,0
7.68,7.9663377,-5.8140697,0.40599564,1003.7596,0,0
7.72,8.119326,-5.6615400000000005,0.07932476,1003.7693,0,0
7.76,7.823008,-5.590043,0.017780308,1003.75995,0,0
7.8,8.171969,-5.7807064000000015,0.26397258,1003.77466,0,0
7.84,8.062064,-5.7616405,0.1645529,1003.78467,0,0
7.88,7.9760604000000015,-5.7711744000000005,0.5196363,1003.7975,0,0
7.92,8.055528,-5.79973,0.5857541,1003.76215,0,0
7.96,8.036371,-5.9045935,0.4768594,1003.77496,0,0
8.0,7.673064,-5.8855260000000005,0.42477712,1003.75494,0,0
8.04,7.6491256,-5.9379573,0.6520249,1003.7475,0,0
8.08,7.763803999999999,-5.6233635,0.3537541,1003.79034,0,0
8.12,7.548675999999999,-5.8569239999999985,0.64728385,1003.75775,0,0
8.16,7.5295053,-5.9617867,0.902937,1003.77527,0,0
8.2,7.629852,-5.923653599999999,0.67568284,1003.78033,0,0
8.24,7.6011380000000015,-6.018984,0.77983654,1003.7729,0,0
8.28,7.6966925,-6.0046835,0.7372231,1003.7758,0,0
8.32,7.758791,-6.0809474,0.7277507,1003.7756,0,0
8.36,7.8830295,-6.319274,0.72774726,1003.7658,0,0
8.4,8.040716,-6.0571127,0.12173922,1003.7733,0,0
8.44,8.045454,-6.052345,0.36792448,1003.7633,0,0
8.48,7.9163594,-6.0285115,0.6235786999999999,1003.76825,0,0
8.52,8.011923,-5.9522457000000015,0.18801032,1003.7558,0,0
8.56,7.906724499999997,-6.3764677,0.51468045,1003.7658,0,0
8.6,7.85412,-6.195338,0.4152555000000001,1003.7686,0,0
8.64,7.610311999999999,-5.8426123,0.5904251,1003.75146,0,0
8.68,7.796675,-5.6519485000000005,0.22587138,1003.7663,0,0
8.72,7.5337567,-5.8998084,0.5998866999999999,1003.74896,0,0
8.76,7.629303500000002,-6.0714035000000015,1.0591193,1003.7814,0,0
8.8,7.691411500000001,-6.1381345000000005,0.8365997,1003.77686,0,0
8.84,7.782181299999999,-6.057102,1.0922532,1003.79144,0,0
8.88,7.705665,-5.9951360000000005,0.7419036999999999,1003.7743,0,0
8.92,7.553990400000001,-6.014233,0.7798961,1003.74146,0,0
8.96,7.6782804,-5.8331050000000015,0.36326984,1003.77936,0,0
9.0,7.907723,-5.8569374000000005,0.26384845,1003.74713,0,0
9.04,8.184965,-5.971335400000001,0.58105475,1003.7719,0,0
9.08,8.275793,-5.9951687000000025,0.41061732,1003.7446,0,0
9.12,8.180209,-5.8760047,0.46269682,1003.7847,0,0
9.16,7.826515700000002,-5.880771599999999,0.46269798,1003.76733,0,0
9.2,7.5493007,-6.0905004,0.34907353,1003.74713,0,0
9.24,7.568433,-5.976104,0.59052926,1003.78265,0,0
9.28,7.6927185,-5.990403700000001,0.7325624,1003.7548,0,0
9.32,7.850466,-5.775909,0.6000004,1003.7551,0,0
9.36,7.9604135,-5.7473097,0.77990884,1003.76483,0,0
9.4,7.9891047,-5.876007,0.9172078,1003.7702,0,0
9.44,8.132512,-5.895073,0.7941144,1003.76263,0,0
9.48,8.170763,-5.7139444,0.46270713,1003.7373,0,0
9.52,8.036938000000001,-5.7330112,0.50058335,1003.7427,0,0
9.56,7.6306686,-5.890308,0.1881139,1003.75543,0,0
9.6,7.2674136,-6.0952699999999975,0.5431951999999999,1003.7526,0,0
9.64,7.4873004,-5.995173,0.68049437,1003.763,0,0
9.68,7.955733,-5.84741,0.40589997,1003.75085,0,0
9.72,7.931845,-5.828344,0.5479333000000001,1003.7834,0,0
9.76,7.711989,-5.8474107,0.7941235,1003.763,0,0
9.8,7.702442,-5.847411,0.7136398,1003.7457,0,0
9.84,7.6881146,-5.9999410000000015,0.44851422,1003.7683,0,0
9.88,7.530392999999999,-6.381266,0.865143,1003.73816,0,0
9.92,7.667797,-6.123842,1.0165331,1003.74304,0,0
9.96,7.9975705,-5.8664474,0.75140345,1003.7635,0,0
10.0,8.260423,-5.9331775,0.60936785,1003.75085,0,0
10.04,8.246047,-5.775881,0.6803807,1003.75635,0,0
10.08,7.906645299999999,-5.771113400000001,0.8224096,1003.7786,0,0
10.12,7.52423,-5.8759766,0.74192184,1003.7892,0,0
10.16,7.557651,-5.952241000000001,0.6282926,1003.7636,0,0
10.2,7.7774887,-5.937940599999999,0.936026,1003.77637,0,0
10.24,7.9973235,-5.77111,1.0543828000000002,1003.75366,0,0
10.28,7.873013,-5.814008,1.0212386999999998,1003.77637,0,0
10.32,7.868200999999999,-5.9665370000000015,1.0543764,1003.7713,0,0
10.36,7.648294,-6.228697,0.7324337,1003.7591,0,0
10.4,7.590897999999997,-5.933169,0.58566374,1003.7767,0,0
10.44,7.6052046,-5.9665339999999984,0.3157996,1003.7691,0,0
10.48,7.676868400000001,-6.028499,0.7466274,1003.78436,0,0
10.52,8.1643715,-6.1238294,1.0022818000000002,1003.75684,0,0
10.56,8.250377,-5.918866,0.97860694,1003.7466,0,0
10.6,7.7436814,-5.842601,0.9312597,1003.75433,0,0
10.64,7.6910677,-5.8568992999999985,0.63298887,1003.762,0,0
10.68,7.442483,-5.8711980000000015,0.88390905,1003.7746,0,0
10.72,7.418547999999999,-5.9093294,1.0638131000000002,1003.7719,0,0
10.76,7.8295759999999985,-5.9903603,0.89337134,1003.7695,0,0
10.8,7.7578454,-6.3049526,1.1348228,1003.76733,0,0
10.84,7.619196,-6.1190557,0.91703707,1003.7724,0,0
10.88,7.796015299999999,-5.8473615999999975,0.12638846,1003.75494,0,0
10.92,7.6339474,-6.1285987,0.08381954,1003.76984,0,0
10.96,7.3614826,-6.080933,0.5572585999999999,1003.77765,0,0
11.0,7.6625943,-5.909336,0.81764936,1003.76495,0,0
11.04,7.653017500000002,-6.1619635000000015,0.81291354,1003.7523,0,0
11.08,7.777278,-6.2191615,1.0259603000000002,1003.7448,0,0
11.12,7.982793300000001,-6.1714964000000005,1.2295382,1003.7475,0,0
11.16,7.9779963,-6.166729,1.1537861,1003.76245,0,0
11.2,7.7389917,-6.1524286,0.9833463,1003.76514,0,0
11.24,7.8536896999999986,-6.1953273,0.76082766,1003.76483,0,0
11.28,7.8584533,-6.1142955,0.6472005,1003.77783,0,0
11.32,7.9301343,-5.866434,0.65193343,1003.75775,0,0
11.36,7.8440813999999985,-5.9665318,0.64246315,1003.7502,0,0
11.4,7.566837299999999,-6.157193,0.7229465,1003.7806,0,0
11.44,7.619397599999999,-6.133360400000001,0.7182105999999999,1003.78284,0,0
11.48,7.734097,-5.9283980000000005,0.69927156,1003.7657,0,0
11.52,7.8679156,-5.8807316,0.6898012,1003.7503,0,0
11.56,8.07343,-5.956997,0.6803309000000001,1003.7278,0,0
11.6,7.700589999999999,-6.252523,0.6992670999999999,1003.75775,0,0
11.64,7.4329042,-6.2477555,0.7182031999999999,1003.7807,0,0
11.68,7.5523834,-6.0046610000000005,0.35365254,1003.7682,0,0
11.72,7.4663315,-6.0952253,0.5335585,1003.7632,0,0
11.76,7.777001400000001,-5.985594,0.651917,1003.7604,0,0
11.8,7.781764999999999,-5.918862,0.69925964,1003.7581,0,0
11.84,7.6383557,-6.071391,0.72766465,1003.7554,0,0
11.88,7.571422,-6.1047564,0.6992567,1003.7657,0,0
11.92,7.514048,-6.1667213,0.65664554,1003.7503,0,0
11.96,7.3658576,-6.128588,0.43412703,1003.7582,0,0
12.0,7.294144,-6.104755,0.3015622,1003.7604,0,0
12.04,7.4327435,-6.1810203,0.49567145,1003.7606,0,0
12.08,7.466185,-6.114288,0.3110281,1003.75775,0,0
12.12,7.537864,-6.052322,0.27315125,1003.7602,0,0
12.16,7.6477857,-6.1571856,0.5098701,1003.7682,0,0
12.2,7.8102813,-6.018955,0.6045566,1003.7757,0,0
12.24,8.049256,-5.8616585999999975,0.32522532,1003.74536,0,0
12.28,7.7481117,-6.023721,0.4577872,1003.7581,0,0
12.32,8.02153,-6.0666437,0.37265658,1003.7532,0,0
12.36,8.203176,-5.9999123,0.26376635,1003.75323,0,0
12.4,8.255763,-5.8950486,0.1501416,1003.7654,0,0
12.44,8.227097,-6.0094457000000014,0.21168996,1003.74786,0,0
12.48,7.983336,-6.047579,0.12647167,1003.7632,0,0
12.52,7.7778163,-5.8378510000000015,0.30638006,1003.7808,0,0
12.56,7.314186999999999,-6.3478723,0.514695,1003.77057,0,0
12.6,7.424134299999999,-6.1047783,0.25430375,1003.7582,0,0
12.64,7.400246000000001,-6.080946,0.3821337,1003.7807,0,0
12.68,7.753962,-5.804486,0.40580675,1003.7606,0,0
12.72,7.706175999999999,-5.966549,0.47208947,1003.7604,0,0
12.76,8.007316000000001,-5.8998175,0.31585518,1003.7933,0,0
12.8,7.710978999999999,-6.023748,0.6046549,1003.7753,0,0
12.84,7.7348895,-5.9570165,0.31585726,1003.7682,0,0
12.88,8.026469,-5.5137269999999985,0.09334128,1003.7456,0,0
12.92,8.212893,-5.4231625,0.18803038,1003.7608,0,0
12.96,8.265482,-5.575693,0.0128584765,1003.78564,0,0
13.0,8.059961,-5.632892,0.15015720000000002,1003.76276,0,0
13.04,8.055193,-5.6185923,0.20223661,1003.7682,0,0
13.08,8.126902000000001,-5.7425237000000005,0.10281527,1003.7758,0,0
13.12,8.117353,-5.694858,0.09334744,1003.78564,0,0
13.16,8.141263,-5.63766,0.24484944,1003.7426,0,0
13.2,7.978762,-5.7758904000000015,0.26852259999999994,1003.76276,0,0
13.24,8.026572,-5.804489599999999,0.47683746,1003.7781,0,0
13.28,7.950106,-5.861689,0.5715266,1003.76514,0,0
13.32,7.7780437,-5.7758910000000006,0.46263626,1003.7753,0,0
13.36,7.6993694,-5.7377043,0.40562227,1003.7632,0,0
13.4,7.833133,-5.833034,0.23991162,1003.76245,0,0
13.44,7.6801,-5.966496,0.08366899,1003.7602,0,0
13.48,7.598768700000001,-6.0761247,0.15941261,1003.78033,0,0
13.52,7.675175,-5.976025,0.045780465,1003.7579,0,0
13.56,7.703784,-5.8091940000000015,-0.17674296,1003.7654,0,0
13.6,7.7945204,-5.804425,-0.0015772656,1003.7828,0,0
13.64,7.808785,-5.847323,0.14991683,1003.78815,0,0
13.68,8.076389,-5.976018,0.36769348,1003.7602,0,0
13.72,7.961599,-6.0427480000000005,0.40082747,1003.7803,0,0
13.76,7.899386,-5.9045157,0.40082058,1003.7503,0,0
13.8,7.703339,-5.961713,0.23510954,1003.76996,0,0
13.84,7.583774000000001,-5.966478,0.21616551,1003.73724,0,0
13.88,7.9039464000000015,-5.9331098,0.3534564,1003.7548,0,0
13.92,8.095063,-5.86161,0.46234086,1003.7576,0,0
13.96,8.07587,-5.9283395,0.42445877,1003.7602,0,0
14.0,7.846369,-6.1047005999999975,0.23507614,1003.7573,0,0
14.04,7.741133,-6.138065,0.23980327,1003.79034,0,0
14.08,7.8939977,-6.0331980000000005,0.3439521,1003.7827,0,0
14.12,7.8078910000000015,-6.0141296,0.30133596,1003.7624,0,0
14.16,7.6835559999999985,-6.057028,0.28712717,1003.7448,0,0
14.2,7.5257473,-6.2190886,0.17349462,1003.76733,0,0
14.24,7.229310499999999,-6.3477836,0.24450254,1003.7526,0,0
14.28,7.6116247,-6.2095513,0.301309,1003.7727,0,0
14.32,7.8865466,-6.01895,0.0932216,1003.7523,0,0
14.36,7.8005285,-6.057083,0.17844246,1003.7624,0,0
14.4,7.943958800000001,-5.899788,0.036413692,1003.762,0,0
14.44,7.7145543,-5.909321,0.09322893,1003.782,0,0
14.48,7.599868300000002,-6.1333504,0.30154544,1003.7699,0,0
14.52,7.867563,-5.9951205000000005,0.1263747,1003.76483,0,0
14.56,7.714638000000001,-6.099985,0.23526871,1003.7849,0,0
14.6,7.513914,-6.1524186,0.31102178,1003.767,0,0
14.64,7.681233,-6.0618544000000005,0.20213282,1003.757,0,0
14.68,7.4518309999999985,-6.0999875,0.041165654,1003.7724,0,0
14.72,7.3658223,-6.200086,0.21160677,1003.76184,0,0
14.76,7.6382970000000014,-5.9903584,0.17846832,1003.767,0,0
14.8,7.743479,-6.1333556,-0.0014366657,1003.77234,0,0
14.84,7.7912979999999985,-6.028492,0.026971674,1003.7468,0,0
14.88,7.628821,-6.090458,0.0932567,1003.76184,0,0
14.92,7.858278,-5.8997965,0.14533754,1003.76935,0,0
14.96,7.8535266,-6.0284944000000005,0.29684106,1003.76935,0,0
15.0,8.016066,-5.7663335999999985,0.19742097,1003.7442,0,0
15.04,7.6623883,-6.142893,0.3915341,1003.7542,0,0
15.08,7.5477004,-5.9379315,0.012784291,1003.7769,0,0
15.12,7.7245812,-5.9665313,0.42941448,1003.7466,0,0
15.16,7.7007084,-5.9951315,0.33946317,1003.7518,0,0
15.2,7.810672,-5.8712015,0.17376153,1003.76184,0,0
15.24,7.877616400000001,-5.8616695,0.012794333,1003.72363,0,0
15.28,7.4952602,-6.1714964000000005,0.21637629,1003.7388,0,0
15.32,7.8585515,-6.1810293,0.33947322,1003.77167,0,0
15.36,7.662607,-6.0523334,0.25425643,1003.76685,0,0
15.4,7.4666595,-6.2334633,0.07908571,1003.77167,0,0
15.44,7.3806562000000016,-6.290663,-0.044005800000000005,1003.77167,0,0
15.48,7.528855,-6.371695,0.12643503,1003.7463,0,0
15.52,7.5575614,-6.400295,0.06962472,1003.7786,0,0
15.56,7.605386999999999,-6.3907623,0.07909608,1003.7541,0,0
15.6,7.6914496,-6.3287983,-0.010855213,1003.75635,0,0
15.64,7.280415,-6.4717956,0.0033505484,1003.74866,0,0
15.68,7.2517643,-6.586193,0.35843346,1003.7713,0,0
15.72,7.471661,-6.3907647,0.11698119,1003.7638,0,0
15.76,7.7775984,-6.238236,0.26375046,1003.7485,0,0
15.8,7.600771400000001,-6.409833,0.3016281,1003.76373,0,0
15.84,7.423947,-6.3526344,0.21167696,1003.7761,0,0
15.88,7.748999,-5.9188785999999975,0.40105554,1003.75635,0,0
15.92,7.710791,-6.01421,0.21168208,1003.7661,0,0
15.96,8.13144,-6.142908,1.7030218999999998,1003.7636,0,0
16.0,7.620027,-6.138142,0.1738116,1003.74866,0,0
16.04,7.7825675,-6.0904775,0.60464495,1003.72577,0,0
16.08,7.835172,-6.0332794000000005,1.5420595,1003.7535,0,0
16.12,7.796963000000001,-5.6138234,1.0496842,1003.75336,0,0
16.16,7.548439,-5.542325,0.98340493,1003.7909,0,0
16.2,5.540948,-8.807417999999998,0.4910292000000001,1003.766,0,0
16.24,9.140169,-4.95604,0.15962338,1003.7283,0,0
16.28,8.150777,-6.047582,1.1633197,1003.7661,0,0
16.32,8.146023,-5.6138268,2.6167846000000003,1003.8009,0,0
16.36,8.48064,-5.3802657,1.3100913,1003.8134,0,0
16.4,7.864071400000001,-5.847389,1.9965826,1003.8234,0,0
16.44,7.782843,-5.952254,2.0486636000000003,1003.8361,0,0
16.48,7.204511599999999,-6.2048817000000005,1.8214145,1003.79816,0,0
16.52,7.046808,-6.6386395,2.5363123,1003.7958,0,0
16.56,6.8126216,-6.4622774000000005,1.5752304,1003.79584,0,0
16.6,6.7505136,-7.2296944,1.8924382,1003.79095,0,0
16.64,7.214183,-6.9294014000000015,2.1717706000000003,1003.7553,0,0
16.68,7.0947130000000005,-6.3526487000000005,1.4095339,1003.7529,0,0
16.72,7.921645599999999,-6.3717155,0.8650796999999999,1003.76044,0,0
16.76,6.960934599999999,-6.300218,2.0155427,1003.77277,0,0
16.8,7.763972,-5.942727,2.0155454,1003.7505,0,0
16.84,7.152181,-6.9103384000000005,3.1423361,1003.7551,0,0
16.88,7.018374400000001,-6.5194817,2.2333329,1003.76263,0,0
16.92,6.4687220000000005,-7.2868977,2.7967293,1003.7454,0,0
16.96,6.30146,-7.568125200000001,3.2559695,1003.76025,0,0
17.0,6.6121735999999975,-6.076194,2.3895757,1003.77026,0,0
17.04,6.6727815,-6.405049,2.2332006,1003.7427,0,0
17.08,7.3945227,-5.8711944,3.861835,1003.76526,0,0
17.12,7.122066499999999,-6.085689,2.3894343,1003.7478,0,0
17.16,6.8974056,-6.633843,3.5730348,1003.7529,0,0
17.2,6.691867,-7.0866656,1.5135678,1003.7303,0,0
17.24,6.973866,-7.1533976,-0.13874026,1003.6976,0,0
17.28,7.1985083,-6.900769,4.188505,1003.7276,0,0
17.32,6.8447933,-7.0104003,0.79393584,1003.7473,0,0
17.36,6.5054197,-7.601453,0.73712224,1003.73474,0,0
17.4,7.719480499999999,-5.995123,0.41518188,1003.7902,0,0
17.44,6.9594830000000005,-6.252517,-0.28077638,1003.7873,0,0
17.48,7.1650057,-8.092407000000001,2.68296,1003.8224,0,0
17.52,5.4347080000000005,-7.5633197,0.4435859,1003.74695,0,0
17.56,6.3285227,-7.787347299999999,1.2152929,1003.77484,0,0
17.6,6.1134224,-7.7253823000000015,0.9264936,1003.77234,0,0
17.64,6.041717,-7.939876600000002,1.5088246,1003.7849,0,0
17.68,8.183062,-6.5861744999999985,-0.4606886,1003.7795,0,0
17.72,6.7204323000000015,-7.425088400000001,1.2721027,1003.8199,0,0
17.76,7.308339,-6.5289755,1.9727938000000005,1003.80695,0,0
17.8,6.7395334,-7.668182000000002,2.521984,1003.8749,0,0
17.84,7.7241645,-5.5375314000000015,1.736072,1003.8424,0,0
17.88,7.064543,-6.7387036999999985,4.0559297,1003.8396,0,0
17.92,6.467059,-6.533741,2.3184023,1003.82684,0,0
17.96,6.615224400000002,-5.856889700000001,1.8923049,1003.8195,0,0
18.0,6.5004997000000015,-6.357378,3.1043117,1003.7543,0,0
18.04,7.1895320000000025,-5.89504,3.0380979,1003.7194,0,0
18.08,6.831067,-6.6958227,3.8808236,1003.6867,0,0
18.12,6.0950003,-7.1248136,4.32586,1003.6837,0,0
18.16,6.3292303,-6.2620664,3.86189,1003.7043,0,0
18.2,6.2479973,-6.3335657,3.0523088,1003.68396,0,0
18.24,6.721217599999999,-5.8902764,2.5315263,1003.6987,0,0
18.28,6.898092,-6.2334685,2.8960774,1003.71893,0,0
18.32,7.3999934,-6.1238384,2.6498904,1003.704,0,0
18.36,7.079764999999999,-6.5528293,2.4321096,1003.759,0,0
18.4,6.879035000000001,-6.753025,2.796661,1003.76654,0,0
18.44,7.0320100000000005,-6.643395,2.2664094,1003.7488,0,0
18.48,7.696424,-6.233471400000001,2.1669888,1003.7388,0,0
18.52,7.7394643,-6.4574995,2.0344274,1003.7713,0,0
18.56,6.721386,-6.7816259999999975,1.5988639999999998,1003.7713,0,0
18.6,7.366681,-6.3907695,1.7929765,1003.7738,0,0
18.64,7.218528999999997,-6.757795,2.1054494,1003.7312,0,0
18.68,7.328485499999997,-6.5004015,1.4094937,1003.75867,0,0
18.72,7.4002047000000015,-5.871216,0.51942766,1003.7864,0,0
18.76,7.03218,-6.776862599999999,2.3563786,1003.7738,0,0
18.8,7.4002447,-5.9045830000000015,0.42000884,1003.7708,0,0
18.84,6.965305,-6.791163,1.030749,1003.7733,0,0
18.88,6.9557660000000014,-6.4956374000000014,0.5289041,1003.7812,0,0
18.92,7.538923700000002,-6.24301,0.3158579,1003.7711,0,0
18.96,7.4911475,-6.428906,0.87451965,1003.72327,0,0
19.0,7.519848,-6.5957365,0.8035055,1003.7588,0,0
19.04,7.056226299999999,-6.6529355,0.55258375,1003.75867,0,0
19.08,7.170574,-6.867422,0.67091036,1003.7786,0,0
19.12,6.97939,-6.6672262999999985,0.4152532,1003.7582,0,0
19.16,6.821662,-6.6958265,0.27322152,1003.7683,0,0
19.2,6.950722,-6.6719937000000025,0.060173795,1003.7708,0,0
19.24,7.3139935,-6.557596,0.11698727,1003.7758,0,0
19.28,7.5625490000000015,-6.6958265,0.6519755,1003.7607,0,0
19.32,7.0654580000000005,-6.8912559999999985,0.24481747,1003.7556,0,0
19.36,6.9842070000000005,-6.9389210000000014,-0.25702885,1003.78784,0,0
19.4,7.180184,-6.8054576,-0.5552959,1003.75775,0,0
19.44,7.232767599999999,-6.7339600000000015,-0.39906,1003.76276,0,0
19.48,7.199317,-6.7577925,-0.16707349,1003.7629,0,0
19.52,7.1276259999999985,-6.6672277,-0.43219957,1003.7453,0,0
19.56,7.1754289999999985,-6.671995,-0.4984808,1003.75775,0,0
19.6,7.256692,-6.5814304,-0.42272976,1003.78784,0,0
19.64,7.3044977,-6.8388247,-0.2806969,1003.77026,0,0
19.68,7.285384700000002,-6.805459,-0.1812738,1003.7629,0,0
19.72,6.974703999999999,-6.934156,-0.3564462,1003.7428,0,0
19.76,6.793077,-6.876957400000001,-0.55529064,1003.77026,0,0
19.8,6.6831483999999985,-6.9532228000000025,-0.49374282,1003.7473,0,0
19.84,6.740512,-6.943689999999999,-0.68311846,1003.7553,0,0
19.88,6.821775,-6.938923,-0.70678985,1003.7449,0,0
19.92,6.8217816,-7.0199547,-0.6026324000000001,1003.7598,0,0
19.96,6.9460615999999975,-6.8626585,-0.65471035,1003.75995,0,0
20.0,6.9699674,-6.9198575,-0.68785053,1003.7598,0,0
20.04,6.76463,-7.058092,-0.62628555,1003.76733,0,0
20.08,6.8506813,-7.0008940000000015,-0.54106486,1003.77496,0,0
20.12,6.903273,-7.005661,-0.51739156,1003.77527,0,0
20.16,6.9080667,-7.0628604999999975,-0.5315935,1003.77997,0,0
20.2,6.984556,-7.034261,-0.54579556,1003.75745,0,0
20.24,6.7503604999999975,-7.139125999999999,-0.5647319000000001,1003.78253,0,0
20.28,6.511384,-7.344088,-0.6594187,1003.7773,1,1
20.32,6.454039,-7.229691000000001,-0.7209649,1003.77484,1,1
20.36,6.6882625,-7.0533285,-0.84405816,1003.795,1,1
20.4,6.5448822999999985,-7.0962276,-0.9103385,1003.79254,1,1
20.44,6.7504272,-7.2725906,-0.8677277,1003.79004,1,1
20.48,6.9368544000000005,-7.6586820000000015,-0.7919758000000001,1003.76483,1,1
20.52,7.4435277,-7.205859700000001,-0.09601709,1003.75433,1,1
20.56,9.0830145,-6.281148,-0.33747047,1003.77997,1,1
20.6,11.903111,-5.532799,-0.39901653,1003.75214,1,1
20.64,14.398179999999998,-4.660519,0.51472455,1003.7972,1,1
20.68,15.397176000000002,-4.2934947,2.5363169,1003.7671,1,1
20.72,12.18994,-5.5137334000000005,2.4463644,1003.7796,1,1
20.76,9.145221,-5.9808564,1.4284687,1003.7944,1,1
20.8,7.6921735,-6.9580009999999985,0.50999546,1003.7596,1,1
20.84,6.66453,-8.092442,-0.15755428,1003.7593,1,1
20.88,5.8041778,-9.979999,-0.058130596,1003.7546,1,1
20.92,4.365471,-10.904712,0.8982203999999999,1003.7618,1,1
20.96,-0.920979,-12.773201,-1.7483106,1003.73645,1,1
21.0,-2.7707484,-15.032551000000002,-4.1391835,1003.78436,1,1
21.04,0.60418326,-14.613103,-0.57887554,1003.77435,1,1
21.08,3.9213946,-12.272725,-0.8439998,1003.7593,1,1
21.12,7.94124,-12.158327,-5.3984942,1003.7518,1,1
21.16,10.460226,-12.33469,-5.502649,1003.74677,1,1
21.2,11.401874,-12.458622,-1.2937603000000002,1003.75653,1,1
21.24,10.1448145,-11.986733,2.4132812,1003.80145,1,1
21.28,8.309399,-10.904726,2.8109740000000003,1003.8068,1,1
21.32,9.279729,-9.260264,2.077144,1003.7763,1,1
21.36,9.8772335,-6.772123,2.0629435000000003,1003.7693,1,1
21.4,9.824681,-4.5509076,2.4085572,1003.76904,1,1
21.44,10.364832,-2.9255123,2.8867352000000004,1003.7739,1,1
21.48,10.799823,-3.2925377,0.8414749,1003.7738,1,1
21.52,13.141953,-2.7253182,1.3906683000000002,1003.75146,1,1
21.56,14.365613,-5.480389,2.242864,1003.7284,1,1
21.6,13.361881,-9.269802,1.6558002,1003.7714,1,1
21.64,13.060783,-10.842767,1.1066118,1003.7718,1,1
21.68,12.6832075,-12.687426,0.40592265,1003.78656,1,1
21.72,12.955686,-15.432962,-0.40365782,1003.8087,1,1
21.76,14.021609,-17.220423,1.0214005,1003.7836,1,1
21.8,12.315248,-17.244255,3.2939177,1003.82886,1,1
21.84,7.401636999999999,-16.219444,2.020365,1003.81903,1,1
21.88,6.3214307000000005,-12.701728,1.3575511,1003.8212,1,1
21.92,5.700087,-10.942869,0.5195643,1003.83124,1,1
21.96,3.496625,-9.93236,0.18815844,1003.80096,1,1
22.0,-0.20769581,-9.803663,-0.7918608,1003.7711,1,1
22.04,-1.8391463,-9.765493,-1.2749108,1003.74866,1,1
22.08,-0.9405752,-9.898956,-1.1186785,1003.756,1,1
22.12,0.22088288,-11.314623,-2.013484,1003.7234,1,1
22.16,3.308602,-12.944784,-1.9187992,1003.7735,1,1
22.2,7.5960517,-13.745564000000002,-1.0382029000000002,1003.7755,1,1
22.24,10.416101,-14.126888,-0.67365694,1003.77875,1,1
22.28,11.883468,-14.779906,-1.6347443000000002,1003.7434,1,1
22.32,13.565927,-14.946734,-1.6584193,1003.7811,1,1
22.36,13.016214,-13.821827,-0.56950927,1003.79095,1,1
22.4,12.982722,-12.301294,0.7135113000000001,1003.7734,1,1
22.44,13.766578,-10.566267,0.9975727,1003.7905,1,1
22.48,12.43776,-8.163921,1.527823,1003.80066,1,1
22.52,12.2465315,-4.145713,2.2995276,1003.79834,1,1
22.56,12.179582,-2.158058,1.5372856,1003.786,1,1
22.6,13.871598,-0.5898598,1.0117635,1003.80096,1,1
22.64,15.138212,-1.7671984,1.5088729,1003.7631,1,1
22.68,14.397310999999998,-5.852137,2.200093,1003.76074,1,1
22.72,14.655384,-8.874133,2.4131382,1003.79333,1,1
22.76,13.995743,-10.337465,1.3763007,1003.77325,1,1
22.8,12.815095,-13.235531,-0.025086362,1003.7759,1,1
22.84,13.254805,-15.8857355,-0.07243337,1003.77325,1,1
22.88,12.963201,-16.982042,0.9975388,1003.76807,1,1
22.92,11.256778,-16.481552,1.6461493000000005,1003.79553,1,1
22.96,9.244447,-15.099251999999998,1.0922208,1003.788,1,1
23.0,7.6240587,-12.668306,0.44833866,1003.8182,1,1
23.04,6.1630607,-11.562506,0.7088793999999999,1003.813,1,1
23.08,3.4577248,-9.898978,0.96454024,1003.80804,1,1
23.12,1.4167794,-8.850335000000003,0.04606855,1003.7855,1,1
23.16,-1.9099331,-8.836037,-0.35161859999999995,1003.7431,1,1
23.2,-4.180307,-9.879914,-1.5257481000000002,1003.72327,1,1
23.24,-1.5848385,-11.38138,-2.6193922,1003.7479,1,1
23.28,2.057405,-13.864757,-1.1517239,1003.7705,1,1
23.32,6.3114614,-15.566419,-0.12435514,1003.77026,1,1
23.36,11.56928,-16.429167,-1.7813936,1003.76013,1,1
23.4,14.862595,-18.435886,-3.4194949,1003.7401,1,1
23.44,15.990663,-17.697073,-2.5862367,1003.77527,1,1
23.48,14.762285,-14.841905,-0.4131419,1003.8332,1,1
23.52,14.36559,-12.458628,1.1539487,1003.8229,1,1
23.56,13.118098000000002,-9.827489,1.4380163,1003.81036,1,1
23.6,11.311363,-7.6539397,0.5526854999999999,1003.78784,1,1
23.64,10.283738,-4.8941045,0.45800042,1003.77515,1,1
23.68,10.56578,-3.3211410000000003,0.20707996,1003.78015,1,1
23.72,11.755981,-2.68719,0.16920756,1003.7852,1,1
23.76,14.227170999999998,-2.5012949,0.87937105,1003.7902,1,1
23.8,14.313242,-6.190611,1.8878025,1003.80566,1,1
23.84,13.276055,-9.198309,1.8167893,1003.8051,1,1
23.88,12.458745,-11.476724,1.2344607,1003.81287,1,1
23.92,11.426337,-14.827614,0.06506556,1003.7901,1,1
23.96,12.635661,-17.496885,-1.3031743999999998,1003.7925,1,1
24.0,13.228388,-18.50263,0.41541737,1003.83264,1,1
24.04,12.017571,-16.438673,2.2143514,1003.82764,1,1
24.08,9.479465,-16.052582,1.2059203,1003.82764,1,1
24.12,6.9413595,-14.431953,0.11700471,1003.8227,1,1
24.16,5.861095,-11.891377,-0.07237412,1003.8252,1,1
24.2,4.632653,-9.679693,0.37265697,1003.81714,1,1
24.24,3.7005613,-8.559552,0.2684973,1003.7951,1,1
24.28,2.5390403,-7.720638,0.20221299,1003.7876,1,1
24.32,0.9903553,-7.344079,0.618838,1003.77997,1,1
24.36,-1.0793302,-7.3631449999999985,0.51941276,1003.73706,1,1
24.4,-1.9110466,-8.082894,-0.09606269,1003.73956,1,1
24.44,0.5218431,-9.760721,-2.3449075,1003.73474,1,1
24.48,3.4709516,-12.372794,-3.9262016,1003.7173,1,1
24.52,7.7870836,-16.367167000000002,-2.9130418,1003.7721,1,1
24.56,13.455901999999998,-18.636047,-2.7804813,1003.77716,1,1
24.6,16.978588000000002,-19.44636,-3.0314074,1003.7972,1,1
24.64,17.260567,-16.653156,-0.92459977,1003.8223,1,1
24.68,17.791094,-10.204006,4.136476,1003.8272,1,1
24.72,13.235912,-7.334539,2.493635,1003.8223,1,1
24.76,7.882500999999999,-7.5633326,-0.8015137,1003.7998,1,1
24.8,5.4925685,-7.644363,-2.7473567,1003.787,1,1
24.84,7.662569,-6.395525,-2.0750742,1003.8198,1,1
24.88,10.492185,-5.2038845999999985,0.2589847,1003.81195,1,1
24.92,13.556008,-4.8797584,2.1716816000000003,1003.8195,1,1
24.96,13.957481,-3.816815,1.7219101000000003,1003.8219,1,1
25.0,11.548434,-5.7091374,-0.27127662,1003.7794,1,1
25.04,9.966289,-8.445141,-1.0240499,1003.7795,1,1
25.08,9.572029,-10.204061,-1.2889508,1003.7744,1,1
25.12,9.581654,-12.001054,-1.0758967,1003.79694,1,1
25.16,8.47759,-13.68365,-0.3278543,1003.8173,1,1
25.2,8.362934,-14.084043,-0.010643788,1003.83435,1,1
25.24,4.548737,-13.454859,1.3386697,1003.83685,1,1
25.28,1.9294678,-11.676935,-1.0427302,1003.7845,1,1
25.32,1.7048676,-9.641617,-1.9185905,1003.7769,1,1
25.36,3.626412,-7.6015315,-0.7775930999999999,1003.79425,0,0
25.4,4.190512,-7.081979,-0.41303623,1003.78174,0,0
25.44,3.7364817,-7.491904300000002,-0.39409405,1003.7819,0,0
25.48,5.4429555,-7.2202125,-0.31833586,1003.78424,0,0
25.52,6.4467816,-6.776924,-1.4403837,1003.79175,0,0
25.56,7.823432,-6.0619426,-1.4403776,1003.80676,0,0
25.6,8.53089,-5.9856787,-1.3882948999999998,1003.7916,0,0
25.64,8.36846,-6.295507,-1.269927,1003.807,0,0
25.68,8.387626,-6.7006655,-0.512418,1003.8045,0,0
25.72,8.468963,-6.695900999999999,-0.41772258,1003.7887,0,0
25.76,8.497692,-6.653003,-0.2567482,1003.8088,0,0
25.8,8.688972,-6.247847599999999,-0.94796324,1003.8141,0,0
25.84,8.062885000000001,-6.4766445,-1.2225525,1003.8038,0,0
25.88,7.6805634,-6.776939,-0.9100761,1003.82666,0,0
25.92,7.6089168,-6.900871,-0.49344385,1003.8113,0,0
25.96,7.245735000000002,-7.0963016,-0.5928587,1003.79877,0,0
26.0,6.806061,-7.301264999999999,-0.3703355,1003.82184,0,0
26.04,6.6323223,-7.282158,-0.5835361,1003.8141,0,0
26.08,6.737475999999999,-7.101029,-0.9196791,1003.80414,0,0
26.12,6.804390400000001,-6.958032000000001,-0.74450636,1003.8191,0,0
26.16,6.852186,-6.948498700000001,-0.6592872,1003.8268,0,0
26.2,6.9764585000000015,-7.148694,-0.7113659999999999,1003.8341,0,0
26.24,6.6370897,-7.6301165,-0.7255694,1003.8338,0,0
26.28,6.4984730000000015,-7.5919833,-0.44623977,1003.8191,0,0
26.32,6.6753235,-7.3488894,-1.1327288,1003.8038,0,0
26.36,6.560606,-7.3584223,-1.4925437,1003.79877,0,0
26.4,6.637079700000001,-7.186825999999999,-1.2794957,1003.7891,0,0
26.44,6.694435,-7.263091,-1.3031678999999998,1003.8088,0,0
26.48,6.5558186,-7.267858,-1.2700274,1003.8063,0,0
26.52,6.46978,-7.1296277,-1.2321521999999998,1003.8213,0,0
26.56,6.3741803,-7.0390630000000005,-1.0664483,1003.8216,0,0
26.6,6.283362,-7.520485400000001,-0.9386197,1003.8037,0,0
26.64,6.259461,-8.073405000000001,-0.834463,1003.8313,0,0
26.68,6.393293,-8.202103,-0.5409301,1003.8084,0,0
26.72,6.5080056,-7.549084,-0.4888519,1003.8335,0,0
26.76,6.479324,-6.9437320000000025,-1.0049022,1003.80347,0,0
26.8,6.3359275,-6.948498,-1.3173733,1003.8088,0,0
26.84,6.1686316,-7.1868258,-1.1800758,1003.8062,0,0
26.88,6.460197,-7.072428,-0.9196837,1003.78564,0,0
26.92,6.680066,-7.039062,-0.6498228,1003.80347,0,0
26.96,6.899934299999999,-7.0438285,-0.39416522,1003.7909,0,0
27.0,6.7995563,-6.991396400000001,-0.74451137,1003.8009,0,0
27.04,6.622232,-7.0819497,-0.8297738000000001,1003.80566,0,0
27.08,6.7178063,-7.172513499999999,-0.7966349,1003.816,0,0
27.12,6.4835730000000025,-7.220178999999999,-1.2558744,1003.7931,0,0
27.16,6.249341,-7.491872,-1.3979083,1003.7984,0,0
27.2,6.2349815,-7.601502,-1.3789728,1003.8007,0,0
27.24,6.4643903,-7.5347695,-1.431053,1003.79346,0,0
27.28,6.6699004,-7.820761999999997,-1.1422564,1003.826,0,0
27.32,6.732017999999999,-7.94946,-0.78244346,1003.8207,0,0
27.36,6.6937593999999985,-7.525235,-0.8203205,1003.8231,0,0
27.4,6.550342,-6.8626833,-1.1233246,1003.8157,0,0
27.44,6.373469,-6.872215700000001,-1.2748271999999998,1003.7979,0,0
27.48,6.435585,-6.9055815,-1.1280627,1003.79535,0,0
27.52,6.6649957,-7.0724100000000005,-0.8676724,1003.8154,0,0
27.56,6.5024605000000015,-7.7349606,-0.5930788,1003.78796,0,0
27.6,6.22999,-7.7730926999999985,-0.65462804,1003.8029,0,0
27.64,6.206071400000001,-7.520465,-0.9102878,1003.8231,0,0
27.68,6.3255444,-7.0771747000000005,-0.796664,1003.8107,0,0
27.72,6.1869073,-7.1391396999999985,-1.0049798,1003.8107,0,0
27.76,6.4402165,-7.1010065,-0.5646821,1003.79535,0,0
27.8,6.56447,-7.391766,-0.2569478,1003.82074,0,0
27.84,6.7986603,-7.1248384000000025,-0.15279275,1003.8231,0,0
27.88,6.784299400000001,-7.1820364,-0.31376448,1003.8006,0,0
27.92,6.7030210000000015,-7.291666499999999,-0.31850088,1003.80035,0,0
27.96,7.051925,-7.162969,-0.25222117,1003.8053,0,0
28.0,7.3052350000000015,-7.000905499999999,-0.30903587,1003.8104,0,0
28.04,7.152634599999999,-7.1296115,-0.51731724,1003.8129,0,0
28.08,7.0187940000000015,-7.2106423,-0.5504587,1003.82324,0,0
28.12,6.9853296,-7.286907000000001,-0.24272294,1003.81586,0,0
28.16,7.1334968,-7.1772766,-0.44156855,1003.82544,0,0
28.2,6.9518580000000005,-7.196343,-0.2521929,1003.82043,0,0
28.24,6.803678,-7.2726073000000016,-0.18591182,1003.80237,0,0
28.28,6.655498,-7.315506,-0.27586606,1003.8129,0,0
28.32,6.641152000000001,-7.315505499999999,-0.13856891,1003.82794,0,0
28.36,6.3782562999999985,-7.42037,0.11708835,1003.8104,0,0
28.4,6.110581,-7.4108367,0.1123534,1003.80756,0,0
28.44,6.067557,-7.410836,-0.1006954,1003.8202,0,0
28.48,6.378238,-7.2583065000000015,-0.41316667,1003.8104,0,0
28.52,6.4021306,-7.4299026,-0.7445755999999999,1003.82043,0,0
28.56,6.2300515,-7.4632679999999985,-0.74457616,1003.8127,0,0
28.6,6.1679080000000015,-7.825525999999999,-0.46998125,1003.79736,0,0
28.64,6.6936800000000005,-7.3345714000000015,-0.8724062,1003.80255,0,0
28.68,6.9756827,-7.229707,-0.7729843000000001,1003.8149,0,0
28.72,6.7462453999999985,-7.4966335000000015,-0.85346967,1003.80505,0,0
28.76,6.4642305,-7.6491631999999985,-0.5125932,1003.80707,0,0
28.8,6.4212065,-7.854125,-0.5646722,1003.8022,0,0
28.84,6.4212,-7.630096400000001,-0.42737502,1003.81256,0,0
28.88,6.5024505,-7.3727026,-0.69250226,1003.80237,0,0
28.92,6.4737654,-7.339336999999999,-0.65462756,1003.79004,0,0
28.96,6.229989,-7.644396,-0.47945517,1003.80005,0,0
29.0,6.086589,-7.577663999999999,-0.41790846,1003.79736,0,0
29.04,6.2204175,-7.4585,-0.46051866,1003.81506,0,0
29.08,6.484211,-7.3965564,-0.7445002,1003.80707,0,0
29.12,6.7088885,-7.267861,-0.81077933,1003.8149,0,0
29.16,6.522508,-7.387026,-0.66401,1003.78754,0,0
29.2,6.273985400000001,-7.491890400000001,-0.70661706,1003.80206,0,0
29.24,6.1449594,-7.5109572,-0.71134895,1003.8171,0,0
29.28,5.968136,-7.596756,-0.73975253,1003.81757,0,0
29.32,5.958604,-7.6158223,-0.79656297,1003.80457,0,0
29.36,6.154605,-7.601524,-0.92912364,1003.79205,0,0
29.4,6.2789072999999975,-7.6396565,-1.1279662,1003.8171,0,0
29.44,6.1498833,-7.7063894,-1.1847763,1003.80426,0,0
29.48,6.1546907,-7.55386,-1.2652586,1003.7945,0,0
29.52,6.302893599999999,-7.3441324,-1.2368495000000002,1003.78955,0,0
29.56,6.393739,-7.4918966,-1.1800339,1003.80457,0,0
29.6,6.508482,-7.520497,-0.88649833,1003.79205,0,0
29.64,6.5993270000000015,-7.3107686,-0.84862036,1003.81213,0,0
29.68,6.6232553,-7.3250694,-0.86282086,1003.81213,0,0
29.72,6.4512095,-7.4775996,-0.98117846,1003.8142,0,0
29.76,6.2409253,-7.515733,-0.83440953,1003.8296,0,0
29.8,6.212278,-7.3060045,-0.9385636,1003.8168,0,0
29.84,6.5755725000000025,-7.053378,-1.1232027,1003.78424,0,0
29.88,6.5755997000000015,-7.320306299999999,-1.1137313999999998,1003.82214,0,0
29.92,6.4704733,-7.306007000000001,-0.9243524,1003.80176,0,0
29.96,6.2936473,-7.3060074,-0.8154587,1003.8321,0,0
30.0,6.212422,-7.143945,-1.1042546,1003.7791,0,0
30.04,6.0403767,-7.425173299999999,-0.6402803,1003.81177,0,0
30.08,6.2554946,-7.4776063,-0.7302314999999999,1003.8137,0,0
30.12,6.594891499999999,-7.272644500000001,-0.80124474,1003.8042,0,0
30.16,6.614041,-7.1201158,-1.3172923,1003.8146,0,0
30.2,6.6953244000000005,-7.3441443,-1.1421169,1003.8017,0,0
30.24,6.642774,-7.4061103,-1.0710982,1003.8143,0,0
30.28,6.7145,-7.3489127,-1.0663612,1003.8088,0,0
30.32,6.714529,-7.2345157,-1.1042337,1003.8042,0,0
30.36,6.6572022,-7.296482000000001,-0.8817138000000001,1003.7937,0,0
30.4,6.542513,-7.367980499999999,-0.9195867,1003.8037,0,0
30.44,6.375247,-7.429947,-0.8722401,1003.8237,0,0
30.48,6.3800583,-7.3870482000000015,-0.8817060999999999,1003.8263,0,0
30.52,6.4374447,-7.291717999999999,-1.0284702,1003.8193,0,0
30.56,6.393682,-7.310765700000001,-1.0948198,1003.82404,0,0
30.6,6.317213,-7.482362299999999,-0.9669902,1003.8088,0,0
30.64,6.350680400000001,-7.468063000000001,-0.92437965,1003.7915,0,0
30.68,6.4510665000000005,-7.5395613,-0.88176906,1003.8014,0,0
30.72,6.451073,-7.463296400000001,-0.8438933000000001,1003.7814,0,0
30.76,6.431963400000001,-7.3393664,-0.96698695,1003.799,0,0
30.8,6.460649,-7.2440357,-1.0237993,1003.7961,0,0
30.84,6.5084558,-7.377499,-0.77760935,1003.81104,0,0
30.88,6.3602924000000005,-7.353667,-0.62137306,1003.8011,0,0
30.92,6.3842,-7.406099,-0.8344205,1003.81354,0,0
30.96,6.5084834,-7.420398700000002,-0.89123255,1003.8034,0,0
31.0,6.6757827,-7.3298345,-0.9717167,1003.82635,0,0
31.04,6.6327744000000015,-7.4442315,-1.1563578,1003.79834,0,0
31.08,6.5897630000000005,-7.344134299999999,-1.2936549,1003.8034,0,0
31.12,6.3603425000000025,-7.506197999999999,-0.89596397,1003.8414,0,0
31.16,6.3699083,-7.673027499999999,-0.82968163,1003.79315,0,0
31.2,5.977975,-7.744526,-0.7728679,1003.80304,0,0
31.24,6.05446,-7.792192,-0.82021105,1003.8134,0,0
31.28,6.47509,-7.468066,-0.943305,1003.8159,0,0
31.32,6.7236495,-7.301236999999999,-1.0569298,1003.8082,0,0
31.36,6.3508334,-7.4775996,-0.92910016,1003.80566,0,0
31.4,5.9732375,-7.663496,-0.81073916,1003.81604,0,0
31.44,5.9923625,-7.7063947,-0.791801,1003.8003,0,0
31.48,6.035392,-7.5633984,-0.54561096,1003.79565,0,0
31.52,6.1883535000000025,-7.4919004,-0.56928235,1003.78314,0,0
31.56,6.531544,-7.248782,-0.93865335,1003.81067,0,0
31.6,6.5554229999999984,-7.2964478,-0.8487014,1003.80304,0,0
31.64,6.665323,-7.325046,-0.93865854,1003.81036,0,0
31.68,6.73699,-7.358411,-0.96706754,1003.7903,0,0
31.72,6.5553303,-7.3822427,-0.95760125,1003.7951,0,0
31.76,6.2924123,-7.596737400000001,-0.7918997,1003.8152,0,0
31.8,6.2159076,-7.639636,-0.60252607,1003.78284,0,0
31.84,6.201537,-7.782632,-0.5693881,1003.7702,1,2
31.88,6.091576,-7.892261500000001,-0.59779686,1003.79535,1,2
31.92,6.832414599999999,-7.3202744000000015,0.012938522,1003.7976,1,2
31.96,7.9891057,-6.4575267,-0.048610743,1003.7902,1,2
32.0,8.815975,-5.5518804,-1.5352173,1003.8003,1,2
32.04,9.418203,-4.9179273,-0.54099464,1003.7973,1,2
32.08,9.422954,-4.998958,0.07920967,1003.7898,1,2
32.12,9.494622,-5.4613137,-0.5267968000000001,1003.8073,1,2
32.16,9.293845,-6.185829599999999,-0.7019721,1003.7847,1,2
32.2,8.8827505,-7.463266,-0.20012806,1003.8098,1,2
32.24,8.031919,-8.454709,0.3632636,1003.8073,1,2
32.28,5.159229,-9.713079,0.71834147,1003.81714,1,2
32.32,1.3305764,-11.37184,-1.3127208,1003.7872,1,2
32.36,-1.7715453999999995,-12.997236,-2.7898579,1003.78217,1,2
32.4,-2.225654,-14.012512,-3.0407836,1003.77466,1,2
32.44,3.600896,-14.422435,-0.28062859999999995,1003.7944,1,2
32.48,6.8033366,-14.141207,-1.1754338,1003.81494,1,2
32.52,9.742886,-13.097331,-2.8987598,1003.7973,1,2
32.56,11.647226,-11.205057,-2.7896872000000004,1003.7768,1,2
32.6,11.279224,-9.846589,-1.4829878,1003.77466,1,2
32.64,9.525085,-8.764581,-0.06739618,1003.7872,1,2
32.68,8.855963000000003,-7.668274,-0.20942384,1003.7791,1,2
32.72,9.941028,-6.238308999999999,0.19300511,1003.8297,1,2
32.76,10.160944,-4.7988095,0.6238402,1003.81464,1,2
32.8,10.371309,-4.817876999999998,1.1825047,1003.79425,1,2
32.84,10.266199,-4.693948000000002,1.0546801,1003.80457,1,2
32.88,10.787248,-5.4375315,1.0310125,1003.80414,1,2
32.92,12.010926,-7.1630262999999985,0.42974773,1003.7813,1,2
32.96,12.65625,-7.4633207,-1.0000381,1003.7768,1,2
33.0,13.492762,-8.326069,-1.4119270000000002,1003.7938,1,2
33.04,12.952691,-11.9200535,-2.212037,1003.79675,1,2
33.08,13.421160999999998,-16.781942,-2.7990985,1003.79645,1,2
33.12,13.019707,-19.150923,-1.7906661,1003.8372,1,2
33.16,11.843925,-17.620857,-0.9905471,1003.8088,1,2
33.2,9.430172,-16.143227,-1.241466,1003.8217,1,2
33.24,6.0795794,-13.983979,-1.6817613,1003.8087,1,2
33.28,3.2356458,-10.947683,-1.6628189999999998,1003.79895,1,2
33.32,2.0694199,-8.502441000000001,-1.3882194,1003.78107,1,2
33.36,0.42521358,-7.4395,-0.9526498,1003.7788,1,2
33.4,-1.0421368,-7.3203372999999985,-0.46026716,1003.76373,1,2
33.44,-1.6204466999999998,-8.025789,-0.57388866,1003.77356,1,2
33.48,-0.3919845,-9.794183,-0.49339896,1003.7813,1,2
33.52,2.4281461,-12.263261,-0.7064429,1003.7688,1,2
33.56,6.3172135,-16.910610000000002,-0.081656456,1003.77625,1,2
33.6,10.13626,-18.993595000000006,1.5659146000000002,1003.8036,1,2
33.64,13.333931,-18.802935,2.313949,1003.8011,1,2
33.68,15.484823,-17.039307,3.1945465,1003.79364,1,2
33.72,16.50768,-13.17363,2.9057462000000003,1003.81116,1,2
33.76,15.341392,-9.77984,2.6453524,1003.7836,1,2
33.8,12.392236,-8.836061500000003,1.9209867,1003.7838,1,2
33.84,9.137168,-8.797928,1.4238722,1003.77856,1,2
33.88,6.971898,-8.354639,1.475949,1003.76843,1,2
33.92,6.9862185,-6.9628034,1.1398045,1003.7831,1,2
33.96,8.367562,-5.132445,0.6190184,1003.79333,1,2
34.0,10.360724,-4.2077327,0.05562257,1003.7862,1,2
34.04,14.117631,-2.2963426,-1.3931069,1003.7761,1,2
34.08,12.067078,-5.0371127,-1.9849092,1003.7786,1,2
34.12,12.478122,-6.786438499999999,-1.5114704,1003.7858,1,2
34.16,13.00388,-9.274581,-2.5104315,1003.79364,1,2
34.2,12.425508,-11.200269,-2.7850287,1003.77783,1,2
34.24,11.961847,-11.977218,-0.36574957,1003.8006,1,2
34.28,13.400548,-14.355729,2.7068772,1003.81793,1,2
34.32,12.521046,-16.78667,5.7795043,1003.84045,1,2
34.36,10.207602,-16.767605,6.2055989999999985,1003.83044,1,2
34.4,7.607369999999999,-13.254653,5.381811,1003.78796,1,2
34.44,5.408641,-11.357562,4.3355055,1003.8156,1,2
34.48,4.165874,-9.698801,3.6111403,1003.8154,1,2
34.52,3.4871237,-8.502395,3.1897764,1003.7809,1,2
34.56,3.273819,-7.372764599999999,3.4787385000000004,1003.7704,1,2
34.6,2.6333706,-6.939008,2.8916767000000005,1003.75507,1,2
34.64,1.9738096,-6.9866753,2.1247077,1003.7629,1,2
34.68,1.28079,-7.258371,1.4050828000000002,1003.74536,1,2
34.72,1.299958,-10.552063,0.97899103,1003.7729,1,2
34.76,4.344748,-13.330966,-1.0047196,1003.7679,1,2
34.8,10.171379,-11.452944,-4.4182205,1003.7348,1,2
34.84,11.739206,-9.307996,-6.600776700000001,1003.76044,1,2
34.88,12.317615,-9.369962,-5.3130136,1003.7679,1,2
34.92,12.566213,-9.122101,-3.8027344,1003.78253,1,2
34.96,10.544408,-9.636891,-2.9079268,1003.7849,1,2
35.0,7.800852000000001,-9.751289,-2.8747814,1003.81244,1,2
35.04,7.303803999999999,-9.088739,-3.1683097,1003.8151,1,2
35.08,7.6623387,-8.998178,-3.3056028,1003.8025,1,2
35.12,9.101112,-8.764616,-3.8547893,1003.7821,1,2
35.16,10.855351,-7.482414200000001,-4.650164599999999,1003.7746,1,2
35.2,12.762543,-5.8522525000000005,-4.2524695,1003.79,1,2
35.24,14.124838,-4.183959,-3.5991173,1003.79486,1,2
35.28,13.015973,-6.233579,-0.4980778,1003.82495,1,2
35.32,11.74938,-9.1983795,3.464624,1003.83746,1,2
35.36,10.191212,-10.923874,6.418897,1003.85004,1,2
35.4,8.331918,-11.319499,7.0343738,1003.86,1,2
35.44,7.6723595,-11.738958,4.667177,1003.82007,1,2
35.48,8.116931,-10.447223,3.0811558,1003.80505,1,2
35.52,9.001242999999997,-10.685551,2.7355485,1003.8121,1,2
35.56,8.459508,-10.494849,4.6054907,1003.8046,1,2
35.6,7.6373687000000015,-10.13259,4.828006299999998,1003.82007,1,2
35.64,7.4748406,-9.9895935,5.3961334,1003.82007,1,2
35.68,6.786537599999999,-11.734153,4.6907063,1003.8096,1,2
35.72,5.170948,-12.1250105,5.031582,1003.81256,1,2
35.76,4.936725,-11.1145,3.2656476000000003,1003.7849,1,2
35.8,6.102982,-10.151655,1.5707295,1003.79,1,2
35.84,7.4604335000000015,-9.827529,0.38712716,1003.775,1,2
35.88,8.201289,-9.331806,-0.44139498,1003.7772,1,2
35.92,8.58844,-9.489102,-0.3372393,1003.7819,1,2
35.96,8.296859,-9.632099,-0.067379475,1003.7821,1,2
36.0,7.9287990000000015,-10.103988,0.060448185,1003.8022,1,2
36.04,6.7242756,-10.380448,-0.1999453,1003.80975,1,2
36.08,5.089569,-9.956224,-1.175234,1003.76685,1,2
36.12,3.9615219,-9.636864,-2.529275,1003.76166,1,2
36.16,3.1202586,-8.168764999999999,-3.5092983,1003.7567,1,2
36.2,3.2923183,-7.4919133,-4.441977,1003.76166,1,2
36.24,3.4070232000000003,-7.658742399999999,-4.536666,1003.76666,1,2
36.28,4.0953007,-8.373725,-3.712881,1003.77435,1,2
36.32,5.7347565000000005,-9.960988,-2.3919837000000004,1003.7917,1,2
36.36,7.283402400000001,-10.003887,-1.79545,1003.8017,0,0
36.4,8.894179,-8.592986,-1.3078078000000002,1003.7942,0,0
36.44,9.835788,-7.796971000000001,-0.3798656,1003.8092,0,0
36.48,10.710478,-6.9437566,-0.59764946,1003.7816,0,0
36.52,10.686568,-6.5099998,-0.45088384,1003.8217,0,0
36.56,10.257111,-5.9189644,-0.29931659,1003.7767,0,0
36.6,8.679794000000001,-6.4718857000000005,-1.5491978000000002,1003.8117,0,0
36.64,8.18271,-6.1668262,-1.9468863,1003.7888,0,0
36.68,7.795559,-6.1382275,-2.2072773,1003.7842,0,0
36.72,7.460984700000001,-6.204959400000001,-1.9232119,1003.80347,0,0
36.76,7.5470405,-6.6530156000000025,-2.377713,1003.7839,0,0
36.8,7.3941016,-7.320335000000001,-2.462931,1003.8039,0,0
36.84,7.207704,-6.7578809999999985,-2.363507,1003.7989,0,0
36.88,7.0691,-6.5481524,-2.5197413,1003.7942,0,0
36.92,6.3903875,-7.3632345,-2.1883314,1003.7814,0,0
36.96,6.0175769999999975,-7.553897,-2.2688148,1003.7964,0,0
37.0,5.644764,-7.8827906,-1.6722789,1003.7814,0,0
37.04,5.606541,-7.496699,-0.6685837,1003.7939,0,0
37.08,5.82165,-6.6530185,-1.1467569,1003.7789,0,0
37.12,6.2327285,-6.8913474,-1.468695,1003.8167,0,0
37.16,6.4430547,-7.768394,-1.6438667000000002,1003.7887,0,0
37.2,6.4813075,-7.7207284,-1.463958,1003.7937,0,0
37.24,6.811128599999999,-7.229774000000001,-1.2603773,1003.7887,0,0
37.28,6.835043400000001,-6.6434880000000005,-1.7574883999999995,1003.80646,0,0
37.32,6.768141,-6.977147,-2.1835833,1003.7936,0,0
37.36,6.3953323,-7.291739999999999,-1.9657995,1003.7962,0,0
37.4,6.2567325,-6.819851,-1.1988243,1003.7735,0,0
37.44,6.519636599999999,-6.610123,-1.056791,1003.786,0,0
37.48,6.8542380000000005,-6.805552499999999,-1.1751497,1003.79895,0,0
37.52,6.9689674,-6.8198524,-0.7585206,1003.786,0,0
37.56,6.6920767,-7.034356,-0.58331674,1003.79095,0,0
37.6,6.2045645999999985,-7.387081599999999,-1.0046761999999998,1003.7811,0,0
37.64,6.1328955,-7.439514599999999,-1.3550196,1003.7583,0,0
37.68,6.5439844,-7.334650999999999,-1.3786893,1003.766,0,0
37.72,6.926397,-7.3394184,-1.1656383999999995,1003.776,0,0
37.76,6.79259,-7.4156837,-1.0662135,1003.7862,0,0
37.8,6.778279,-7.1344576,-1.0283357,1003.7884,0,0
37.84,6.448497,-7.277455000000002,-1.2177097,1003.8089,0,0
37.88,6.2238760000000015,-7.3346550000000015,-1.2792542,1003.79114,0,0
37.92,6.4103146,-7.654014,-1.1277509,1003.79095,0,0
37.96,6.706689999999999,-7.735046,-1.0756698,1003.79333,0,0
38.0,7.2085953,-7.7064476,-1.0330578,1003.7885,0,0
38.04,7.1895056,-7.3251240000000015,-1.0330551,1003.786,0,0
38.08,7.2182107,-6.5005107,-0.99517745,1003.7735,0,0
38.12,7.5337057,-6.014322,-0.83420515,1003.7915,0,0
38.16,7.452476499999999,-6.600609,-1.061454,1003.79834,0,0
38.2,6.7068534,-7.644486,-0.4649166,1003.7858,0,0
38.24,6.0998483,-8.025811000000001,0.008526597,1003.8259,0,0
38.28,5.942141,-7.754118400000001,-0.14770637,1003.7883,0,0
38.32,6.276757,-7.28223,-0.8389268,1003.79114,0,0
38.36,6.467972799999999,-6.967638000000001,-1.042504,1003.7735,0,0
38.4,6.2768073,-7.2631645,-0.71109325,1003.80096,0,0
38.44,6.023505,-7.549158599999997,-0.38441673,1003.78577,0,0
38.48,6.2338443,-7.434761999999999,-0.5832590999999999,1003.7758,0,0
38.52,6.415503,-7.3489647,-0.66847605,1003.78357,0,0
38.56,6.466885,-7.3394020000000015,-0.8390241,1003.7785,0,0
38.6,6.4907637000000005,-7.420433,-0.87216675,1003.77057,0,0
38.64,6.643697,-7.4108990000000015,-0.92898154,1003.82635,0,0
38.68,6.729717,-7.1773380000000015,-0.91004544,1003.786,0,0
38.72,6.7010164,-7.2297697,-0.83429694,1003.821,0,0
38.76,6.5289230000000025,-7.4299645,-0.7348763,1003.7858,0,0
38.8,6.6531777000000005,-7.2917337,-0.7727534,1003.79895,0,0
38.84,6.7965527,-7.124903999999999,-0.82956797,1003.81604,0,0
38.88,6.614898700000001,-7.3679976,-0.7538195,1003.8109,0,0
38.92,6.543181400000001,-7.3775306,-0.67333645,1003.7808,0,0
38.96,6.457127,-7.482394,-0.6212595999999999,1003.7883,0,0
39.0,6.5383625,-7.286964999999999,-0.45555747,1003.8087,0,0
39.04,6.571801700000001,-7.296497299999999,-0.536044,1003.78577,0,0
39.08,6.4140477,-7.439493700000001,-0.4602954000000001,1003.7936,0,0
39.12,6.3662300000000025,-7.611089,-0.49343818,1003.79846,0,0
39.16,6.35665,-7.5967894,-0.7064882,1003.7984,0,0
39.2,6.428326,-7.4108925,-0.8911318000000001,1003.79095,0,0
39.24,6.657737299999999,-7.277428599999999,-0.9621498,1003.78577,0,0
39.28,6.590801700000001,-7.487157000000002,-1.0663083999999998,1003.7755,0,0
39.32,6.4187074,-7.644452,-1.0426383,1003.80304,0,0
39.36,6.4330277,-7.4013577,-1.0000304,1003.80096,0,0
39.4,6.648097,-7.234528,-1.0852517,1003.7984,0,0
39.44,6.5716009999999985,-7.110596000000001,-0.97636205,1003.78577,0,0
39.48,6.4377475,-7.267893300000001,-0.63075227,1003.80334,0,0
39.52,6.34213,-7.3775233999999985,-0.38929963,1003.80585,0,0
39.56,6.433315,-7.2488350000000015,-0.6401893,1003.79584,0,0
39.6,6.538465,-7.239300999999997,-0.654393,1003.79333,0,0
39.64,6.6101575,-7.215468400000002,-0.59758055,1003.8183,0,0
39.68,6.729647,-7.191636,-0.8343014000000001,1003.7855,0,0
39.72,6.5671296,-7.2964997,-1.0284123,1003.8004,0,0
39.76,6.6244817,-7.1916356,-0.98580307,1003.80316,0,0
39.8,6.638816,-7.325099000000002,-1.0568197,1003.79834,0,0
39.84,6.629252,-7.4633284,-1.0331482,1003.7679,0,0
39.88,6.6579256,-7.2964993,-0.9479293,1003.79584,0,0
39.92,6.638800999999999,-7.1916350000000016,-0.88164806,1003.7808,0,0
39.96,6.4667234,-7.3155656,-0.89585185,1003.7931,0,0
40.0,6.514517,-7.267899499999999,-0.7822266,1003.79333,0,0
40.04,6.54319,-7.3918300000000015,-0.7064765000000001,1003.78815,0,0
40.08,6.5288463,-7.220234,-0.8863843000000001,1003.79834,0,0
40.12,6.5431805,-7.286966,-1.2130588,1003.78564,0,0
40.16,6.571853999999999,-7.5348267999999985,-0.84377563,1003.79803,0,0
40.2,6.500152,-7.5729585,-1.0142146,1003.80066,0,0
40.24,6.6053023,-7.2964983,-1.1136377,1003.7831,0,0
40.28,6.614857700000001,-7.344164,-1.0331532,1003.79803,0,0
40.32,6.724788,-7.105836,-0.9952784,1003.81067,0,0
40.36,6.533591,-7.358463,-0.9479348,1003.75793,0,0
40.4,6.4666685999999975,-7.3965955,-0.69227743,1003.81085,0,0
40.44,6.5479198,-7.458561,-0.58338654,1003.7704,0,0
40.48,6.418861,-7.468093400000001,-0.72068477,1003.81067,0,0
40.52,6.3041405999999975,-7.406128,-0.82010764,1003.8004,0,0
40.56,6.3949523,-7.253597999999997,-1.0189532,1003.7903,0,0
40.6,6.724753,-7.1487339999999975,-0.753827,1003.7953,0,0
40.64,6.653051,-7.3107967,-0.6591393,1003.77246,0,0
40.68,6.5335507,-7.2535977,-0.5881236,1003.7853,0,0
40.72,6.5192065,-7.372762,-0.8106411,1003.80286,0,0
40.76,6.5813394,-7.244064999999999,-0.8721888000000001,1003.76495,0,0
40.8,6.724728,-7.325096,-0.8674549000000001,1003.79,0,0
40.84,6.676925,-7.2440643,-0.75856405,1003.77747,0,0
40.88,6.490507599999999,-7.348928999999999,-0.9432063,1003.7903,0,0
40.92,6.543081,-7.344162,-0.91953474,1003.81036,0,0
40.96,6.67691,-7.229764999999999,-0.7775031,1003.7953,0,0
41.0,6.753382000000001,-7.1391997000000025,-0.8295819,1003.8053,0,0
41.04,6.6099825,-7.182099000000001,-0.97634894,1003.8028,0,0
41.08,6.4331255,-7.4251933,-0.73489475,1003.79285,0,0
41.12,6.476138,-7.4823914,-0.55972224,1003.80255,0,0
41.16,6.5143723,-7.3393945999999985,-0.7964429,1003.7948,0,0
41.2,6.44267,-7.348928,-1.0284294,1003.7878,0,0
41.24,6.600397599999999,-7.3727603,-1.0284299,1003.8078,0,0
41.28,6.7246679999999985,-7.248829400000001,-1.2036033000000002,1003.79,0,0
41.32,6.538251,-7.306027999999999,-1.1799315,1003.7951,0,0
41.36,6.4044113,-7.449024700000002,-1.1278536,1003.8126,0,0
41.4,6.538241,-7.22023,-1.1089165,1003.7747,0,0
41.44,6.6194925000000016,-7.396592,-1.0568383999999995,1003.76733,0,0
41.48,6.5764694000000015,-7.267894999999997,-0.99529153,1003.77515,0,0
41.52,6.6768402999999985,-7.1916304,-1.0568393,1003.7948,0,0
41.56,6.6103034,-7.1821065000000015,-1.0568045,1003.80255,0,0
41.6,6.6533318,-7.139208,-0.87689614,1003.8151,0,0
41.64,6.6533413,-7.148741,-0.8674265,1003.79205,0,0
41.68,6.6676936,-7.1392083,-0.90056616,1003.8101,0,0
41.72,6.576885000000001,-7.05341,-1.0994104,1003.76733,0,0
41.76,6.5912337,-7.1296754,-0.9621119,1003.80963,0,0
41.8,6.615144,-7.124909,-0.85795397,1003.79224,0,0
41.84,6.600816,-7.1630416,-0.9337033,1003.7947,0,0
41.88,6.524347,-7.1106095,-0.9999843,1003.7794,0,0
41.92,6.5147977,-7.2536070000000015,-1.0520618999999998,1003.8076,0,0
41.96,6.5626054000000025,-7.377537299999997,-1.004717,1003.7894,0,0
42.0,6.801606,-7.024812700000001,-1.0852008,1003.7998,0,0
42.04,6.801614999999999,-7.053412400000001,-1.1088719,1003.77466,0,0
42.08,6.70603,-7.1392107000000005,-1.3645288999999998,1003.8071,0,0
42.12,6.4909487,-7.3727727,-1.2366991000000005,1003.8223,0,0
42.16,6.557875,-7.32034,-0.9052899,1003.8145,0,0
42.2,6.605683999999999,-7.2536087,-0.9289609,1003.7821,0,0
42.24,6.581794,-7.215476,-0.8295376,1003.8045,0,0
42.28,6.653500599999999,-7.2059440000000015,-0.8295366,1003.7993,0,0
42.32,6.586596000000001,-7.2250104,-0.6733001999999999,1003.79175,0,0
42.36,6.782578,-7.2822094,-0.7585185000000001,1003.79425,0,0
42.4,6.7491307,-7.277442999999999,-0.99523777,1003.79926,0,0
42.44,6.7252407000000005,-7.1296797000000005,-1.0662531000000002,1003.7769,0,0
42.48,6.596195699999999,-7.2107115,-1.2793003,1003.79425,0,0
42.52,6.419354,-7.425207,-1.0946577,1003.78894,0,0
42.56,6.6579976,-7.205937,-0.9621259,1003.75635,0,0
42.6,6.801388,-7.0772395,-1.0000015,1003.7789,0,0
42.64,6.375982,-7.258369,-0.9147825,1003.82214,0,0
42.68,6.256482,-7.4108977,-0.7396099,1003.78394,0,0
42.72,6.1608834,-7.6063266,-0.8342984,1003.80927,0,0
42.76,6.3377323,-7.3632326,-0.8863771,1003.80426,0,0
42.8,6.76313,-7.2536016,-0.79642385,1003.81647,0,0
42.84,6.6770906000000005,-7.196403,-1.0142068000000002,1003.7665,0,0
42.88,6.696206,-7.177337,-1.0804889,1003.8118,0,0
42.92,6.610166499999999,-7.387065400000001,-1.2130525,1003.7967,0,0
42.96,6.380731,-7.487162599999999,-0.85323805,1003.7867,0,0
43.0,6.404627,-7.553894,-0.9337232,1003.8014,0,0
43.04,6.6197146999999985,-7.225002000000001,-0.89584833,1003.8093,0,0
43.08,6.896939,-6.924709,-0.853239,1003.79645,0,0
43.12,6.724862,-7.282200299999999,-0.7254105,1003.79596,0,0
43.16,6.6340423,-7.4061303,-0.9005837999999999,1003.8143,0,0
43.2,6.595801,-7.410897,-1.2130549,1003.794,0,0
43.24,6.375925,-7.3060327,-1.3124778,1003.79645,0,0
43.28,6.309004,-7.3203325,-1.2556653,1003.79395,0,0
43.32,6.213404,-7.449028999999999,-1.1420399,1003.8243,0,0
43.36,6.442832,-7.606325,-0.9431951,1003.8114,0,0
43.4,6.686597999999999,-7.5252940000000015,-1.0520868,1003.7986,0,0
43.44,6.485842,-7.5586600000000015,-0.93372697,1003.79645,0,0
43.48,6.20861,-7.6873565,-1.0236812,1003.7986,0,0
43.52,6.0413127,-7.520527,-1.3976993999999998,1003.80865,0,0
43.56,6.5203586,-7.286991599999999,-1.0661936,1003.8114,0,0
43.6,6.5395136,-7.3060589999999985,-0.9857053,1003.7886,0,0
43.64,6.453515,-7.391858,-0.99990517,1003.80865,0,0
43.68,6.5778284,-7.19643,-1.0235738,1003.82355,0,0
43.72,6.4774904000000015,-7.3155947,-0.85786605,1003.8011,0,0
43.76,6.401049,-7.377561,-0.7821123000000001,1003.8011,0,0
43.8,6.444105,-7.248864999999999,-0.7631711999999999,1003.82904,0,0
43.84,6.348545,-7.2869983,-1.0424979,1003.7911,0,0
43.88,6.382042,-7.420463000000002,-1.1324481000000002,1003.7961,0,0
43.92,6.425098,-7.463362700000001,-1.0945693,1003.79065,0,0
43.96,6.5111704,-7.2965345,-1.222395,1003.78564,0,0
44.0,6.5064282,-7.4585979999999985,-1.2555324,1003.8036,0,0
44.04,6.36785,-7.534863499999997,-1.40703,1003.7886,0,0
44.08,6.3583307,-7.4490669999999986,-1.250791,1003.81104,0,0
44.12,6.3631480000000025,-7.3394365000000015,-1.1276928999999998,1003.80096,0,0
44.16,6.4874589999999985,-7.3013059999999985,-1.2318466,1003.80096,0,0
44.2,6.511396,-7.325139,-1.0708735,1003.8036,0,0
44.24,6.3967166,-7.4776697,-0.9099003,1003.8061,0,0
44.28,6.4588947,-7.353739999999997,-1.018788,1003.80835,0,0
44.32,6.549746,-7.25841,-1.1655513000000002,1003.8007,0,0
44.36,6.5258827,-7.2917767000000016,-1.0661254999999998,1003.79535,0,0
44.4,6.545042,-7.220279700000002,-1.1797473,1003.8034,0,0
44.44,6.607213000000002,-7.348977599999999,-1.1797444,1003.8082,0,0
44.48,6.492538,-7.287013000000001,-1.0755838,1003.8336,0,0
44.52,6.4113197,-7.363278999999999,-1.014033,1003.7757,0,0
44.56,6.381353400000001,-7.449045,-1.085167,1003.7753,0,0
44.6,6.4147973,-7.396612599999999,-1.1325125,1003.78534,0,0
44.64,6.390885,-7.387079700000001,-1.1514513000000002,1003.82324,0,0
44.68,6.3478527,-7.3394135999999985,-1.1088427,1003.79315,0,0
44.72,6.343061,-7.3251133,-1.1419848,1003.80786,0,0
44.76,6.3287067000000015,-7.491942999999999,-1.118314,1003.79535,0,0
44.8,6.319134,-7.530075,-1.0330961,1003.8029,0,0
44.84,6.29522,-7.525307700000001,-1.0709727,1003.80536,0,0
44.88,6.3764644,-7.4061437,-1.1041147,1003.7903,0,0
44.92,6.5007253,-7.353711,-1.1703974,1003.7903,0,0
44.96,6.5676289999999975,-7.3918433000000014,-1.1609299,1003.8075,0,0
45.0,6.515036,-7.3108119999999985,-1.0615089,1003.77515,0,0
45.04,6.505463,-7.372777,-1.0473068,1003.8152,0,0
45.08,6.3955150000000005,-7.468107000000002,-1.0520425,1003.7927,0,0
45.12,6.4289594,-7.334643400000001,-1.0993878,1003.80536,0,0
45.16,6.4863032999999986,-7.315577,-1.1277955,1003.81006,0,0
45.2,6.491069,-7.358475,-1.0378431,1003.7651,0,0
45.24,6.4575977,-7.4299735999999985,-1.0378442,1003.8052,0,0
45.28,6.514941,-7.415673299999999,-0.97629815,1003.7902,0,0
45.32,6.562725500000001,-7.277442999999999,-1.0851909,1003.81256,0,0
45.36,6.5674906,-7.296508999999999,-1.1135986999999998,1003.8,0,0
45.4,6.4527617,-7.391839999999997,-1.080459,1003.7925,0,0
45.44,6.4623084,-7.377539599999999,-0.93842804,1003.8227,0,0
45.48,6.467074,-7.34894,-1.0094454,1003.7925,0,0
45.52,6.4001427,-7.3489394,-0.9810402,1003.80786,0,0
45.56,6.400871,-7.420456,-1.0567241000000005,1003.81494,0,0
45.6,6.391326,-7.425223399999999,-0.98097223,1003.8025,0,0
45.64,6.5203953000000014,-7.3060594,-1.075659,1003.8,0,0
45.68,6.5968885,-7.263160000000001,-1.1940178,1003.84503,0,0
45.72,6.6255813,-7.253628,-1.1514068000000002,1003.79,0,0
45.76,6.568239,-7.3155932,-1.0756549,1003.795,0,0
45.8,6.573034,-7.353725999999999,-0.9904341,1003.84033,0,0
45.84,6.5539303,-7.353726400000001,-0.9951672,1003.8075,0,0
45.88,6.4965873,-7.320361,-1.0330411,1003.787,0,0
45.92,6.4631443,-7.415692999999999,-0.99989885,1003.8023,0,0
45.96,6.4249199999999975,-7.506258,-1.0425072,1003.7998,0,0
46.0,6.510971,-7.406160400000001,-1.0945843000000002,1003.8045,0,0
46.04,6.5970225000000005,-7.2869964,-1.2650216,1003.8195,0,0
46.08,6.448864,-7.363262,-1.369177,1003.807,0,0
46.12,6.43454,-7.344196000000001,-1.1087832,1003.807,0,0
46.16,6.659206,-7.163067,-1.1135164,1003.8095,0,0
46.2,6.7165766000000025,-7.2154994000000015,-1.0188271,1003.77435,0,0
46.24,6.592317,-7.2774652999999985,-0.8483870000000001,1003.8098,0,0
46.28,6.272086,-7.458595,-0.8673232,1003.8123,0,0
46.32,6.3246794,-7.382330400000002,-0.7584304000000001,1003.817,0,0
46.36,6.558903699999999,-7.286999000000002,-1.0851031999999998,1003.8195,0,0
46.4,6.6736345,-7.2107350000000014,-1.4780573,1003.8395,0,0
46.44,6.7835839999999985,-7.2202687,-1.4212432,1003.817,0,0
46.48,6.7549195000000015,-7.258401400000001,-1.1797872,1003.817,0,0
46.52,6.6784587,-7.1535378,-1.1655825,1003.8421,0,0
46.56,6.4345107000000015,-7.177366,-1.0283011999999998,1003.8141,0,0
46.6,6.3962793,-7.3918614,-1.1182541,1003.8249,0,0
46.64,6.4393053,-7.306063000000001,-0.76317304,1003.8293,0,0
46.68,6.625725,-7.239331699999997,-0.9099389,1003.8343,0,0
46.72,6.5062370000000005,-7.1868997000000014,-1.1419241000000002,1003.7741,0,0
46.76,6.5349236,-7.2774644,-1.359706,1003.807,0,0
46.8,6.4584550000000025,-7.3394303,-1.1940012,1003.79675,0,0
46.84,6.3724256,-7.3394303,-1.1750629,1003.837,0,0
46.88,6.525387,-7.2774649999999985,-1.1040461,1003.8166,0,0
46.92,6.60665,-7.272699,-1.0046229,1003.80176,0,0
46.96,6.5827589999999985,-7.1869006,-1.0756383,1003.80414,0,0
47.0,6.4967294,-7.2536325,-1.0235591999999998,1003.8421,0,0
47.04,6.5732145000000015,-7.286998700000002,-0.98094875,1003.80164,0,0
47.08,6.7405157,-7.039138,-0.97147924,1003.8243,0,0
47.12,6.6688266,-7.153536,-0.91466564,1003.8163,0,0
47.16,6.7022910000000016,-7.153536,-0.96200913,1003.8212,0,0
47.2,6.621042299999999,-7.215501299999999,-0.9478053,1003.77875,0,0
47.24,6.3772797999999975,-7.401397,-0.87205404,1003.8241,0,0
47.28,6.6640754,-7.124936999999999,-0.9099287,1003.8088,0,0
47.32,6.707101299999999,-7.234567599999999,-0.9572721,1003.81903,0,0
47.36,6.5398154,-7.406163999999999,-0.9572714,1003.7963,0,0
47.4,6.6306395999999985,-7.077272,-1.1324437,1003.8141,0,0
47.44,6.625867,-7.301300500000001,-1.0756301,1003.8088,0,0
47.48,6.597195599999999,-7.372799,-0.8294403,1003.8116,0,0
47.52,6.4729285,-7.306067,-0.881518,1003.79877,0,0
47.56,6.4059544000000015,-7.5157943,-0.94780505,1003.8192,0,0
47.6,6.5780325,-7.320366,-0.7726316,1003.7986,0,0
47.64,6.7548895,-7.201201400000001,-0.97147614,1003.8588,0,0
47.68,6.4776664,-7.353731599999999,-0.73948973,1003.8238,0,0
47.72,6.544589,-7.1773696,-1.0472256,1003.78827,0,0
47.76,6.616291,-7.205969,-0.73002,1003.78107,0,0
47.8,6.405985,-7.296533599999999,-0.583253,1003.8088,0,0
47.84,6.171779,-7.625426299999999,-0.72055036,1003.82117,0,0
47.88,6.133546,-7.9590845,-0.66373694,1003.81854,0,0
47.92,6.2004676,-7.8637543,-0.63533014,1003.8036,0,0
47.96,6.501600700000001,-7.46813,-1.1513799999999998,1003.8261,0,0
48.0,6.3916698,-7.4585967,-1.4733188999999998,1003.8336,0,0
48.04,6.4203534000000015,-7.5968275,-1.293411,1003.82623,0,0
48.08,6.463377,-7.7827234,-1.1277064,1003.8011,0,0
48.12,6.544638,-7.444298,-1.151378,1003.81116,0,0
48.16,6.5685425,-7.4681305999999985,-1.2365968,1003.7813,0,0
48.2,6.2435207,-7.768424,-0.93359447,1003.81366,0,0
48.24,5.9376183,-7.816089999999999,-0.7252801999999999,1003.8036,0,0
48.28,6.1001368,-7.415699000000001,-0.81523347,1003.8036,0,0
48.32,6.4203887,-7.420466,-0.73474807,1003.7961,0,0
48.36,6.300898,-7.6254277,-0.6589971,1003.8082,0,0
48.4,6.114491,-7.816089999999999,-0.5595741999999999,1003.7961,0,0
48.44,6.124057,-7.630194,-0.9762011,1003.8007,0,0
48.48,6.190978,-7.5729957,-1.2413275,1003.79065,0,0
48.52,6.186203,-7.5586967,-1.2176552,1003.79065,0,0
48.56,6.147809,-7.630191,-1.2129351000000002,1003.7986,0,0
48.6,6.1621475,-7.654023599999999,-1.1087782,1003.84106,0,0
48.64,6.090449,-7.615891,-0.87679243,1003.8181,0,0
48.68,6.013971,-7.654023599999999,-0.952543,1003.7881,0,0
48.72,6.1286845,-7.620657400000002,-1.1229818,1003.81323,0,0
48.76,6.0330877,-7.658789599999999,-0.90519917,1003.82043,0,0
48.8,6.18604,-7.5157933,-0.9383402,1003.78577,0,0
48.84,6.267295,-7.477661,-1.0993098999999995,1003.8107,0,0
48.88,6.3055330000000005,-7.4919604999999985,-1.0945758,1003.8381,0,0
48.92,6.377228,-7.6444902,-0.9525436,1003.8132,0,0
48.96,6.2625117,-7.5014935,-1.1135136,1003.84106,0,0
49.0,6.1430154,-7.482427,-1.047232,1003.83075,0,0
49.04,6.1047754,-7.472894,-1.1371858,1003.79803,0,0
49.08,6.2625084000000015,-7.3632636,-0.98568493,1003.79285,0,0
49.12,6.42502,-7.420462,-0.9004658000000001,1003.7855,0,0
49.16,6.511056,-7.387096400000001,-0.8909971,1003.79553,0,0
49.2,6.506274,-7.3346643,-0.9099348,1003.8106,0,0
49.24,6.420236599999999,-7.4585943,-0.8673253000000001,1003.78,0,0
49.28,6.4632535,-7.4776607,-0.7821062,1003.82074,0,0
49.32,6.5588484,-7.358496700000001,-0.93360716,1003.8252,0,0
49.36,6.558847,-7.372796000000001,-1.0898428,1003.8156,0,0
49.4,6.439350599999999,-7.5157933,-1.0472332,1003.8129,0,0
49.44,6.396331299999999,-7.549158599999997,-0.9998893,1003.82324,0,0
49.48,6.3580914,-7.544392,-0.9762173,1003.79285,0,0
49.52,6.3150724999999985,-7.539625,-1.0093584,1003.80023,0,0
49.56,6.19099,-7.6873937,-0.9951374,1003.8078,0,0
49.6,6.176655,-7.6158956999999985,-0.92412084,1003.7922,0,0
49.64,6.195782,-7.577763,-1.0330116,1003.8102,0,0
49.68,6.1671095000000005,-7.6158956999999985,-0.9288541,1003.80756,0,0
49.72,6.1527762,-7.5443974,-0.95725995,1003.8127,0,0
49.76,6.2579384000000005,-7.692161,-0.9288529,1003.76746,0,0
49.8,6.3869989999999985,-7.582530499999999,-0.8294298000000001,1003.80756,0,0
49.84,6.4921612999999985,-7.4490669999999986,-0.87203884,1003.8375,0,0
49.88,6.387011,-7.420468,-0.8862416999999999,1003.7975,0,0
49.92,6.2101655,-7.6254296,-1.0377419,1003.8078,0,0
49.96,6.3057675,-7.506266,-1.033007,1003.82465,0,0
50.0,6.5208650000000015,-7.5014997,-0.9146462,1003.8252,0,0
50.04,6.3392386,-7.5110326,-0.8767705,1003.8226,0,0
50.08,6.315346,-7.7302940000000016,-0.8625666,1003.81506,0,0
50.12,6.377489,-7.787492999999999,-0.80575323,1003.79724,0,0
50.16,6.501771,-7.668329700000001,-0.9288472,1003.79456,0,0
50.2,6.5543547,-7.4967337,-1.1655669,1003.81964,0,0
50.24,6.5161223,-7.6063646999999985,-1.1750352,1003.84,0,0
50.28,6.573486,-7.692163000000001,-1.1987066000000002,1003.81464,0,0
50.32,6.5304747,-7.7827277000000015,-0.9288449,1003.8046,0,0
50.36,6.53526,-7.701696000000001,-0.89096904,1003.83246,0,0
50.4,6.549606,-7.6587973,-0.94778144,1003.82996,0,0
50.44,6.3966584000000015,-7.782728,-0.81048304,1003.8276,0,0
50.48,6.3584260000000015,-7.854226,-0.9761867,1003.81976,0,0
50.52,6.5257260000000015,-7.6587977,-1.0756086,1003.82465,0,0
50.56,6.5545077,-7.7445984,-0.95250463,1003.81,0,0
50.6,6.5592976,-7.692166999999999,-1.0235199,1003.797,0,0
50.64,6.659684,-7.692166999999999,-1.0045812,1003.78467,0,0
50.68,6.769628999999999,-7.739833,-0.9998459,1003.8347,0,0
50.72,6.8508960000000005,-7.773198599999999,-0.9809074,1003.81964,0,0
50.76,6.8222265,-7.758899,-0.99984413,1003.8397,0,0
50.8,6.6310449999999985,-7.916196,-1.0282497,1003.82214,0,0
50.84,6.6262746,-7.8923625999999985,-1.0140456,1003.7995,0,0
50.88,6.6501839999999985,-7.992461,-1.1229359,1003.7847,0,0
50.92,6.707551,-7.892363499999999,-1.1182007,1003.8046,0,0
50.96,6.8222770000000015,-7.8399324,-1.1418718,1003.80194,0,0
51.0,6.717131,-7.9066649999999985,-1.1750116000000002,1003.7741,0,0
51.04,6.635884299999999,-7.9972286,-1.0803227,1003.80676,0,0
51.08,6.6502337,-7.9733963,-1.0140401,1003.8145,0,0
51.12,6.7315006,-7.8494663,-1.070852,1003.80945,0,0
51.16,6.6837125,-7.944797500000001,-1.0519135,1003.81744,0,0
51.2,6.6980615000000014,-7.916198,-0.9808964,1003.782,0,0
51.24,6.7793283,-7.868533,-1.0850525,1003.76965,0,0
51.28,6.6789618000000015,-7.8256345,-1.2176148999999998,1003.8245,0,0
51.32,6.655073599999999,-7.992464,-1.0377065,1003.7895,0,0
51.36,6.760239,-7.8923664,-0.9714239,1003.78894,1,3
51.4,6.855845,-7.7636695000000016,-1.1655337,1003.812,1,3
51.44,6.7076807,-7.992464999999997,-1.0282351,1003.7741,1,3
51.48,6.674233,-8.044898,-0.86726433,1003.7643,1,3
51.52,6.7411600000000025,-7.935266499999999,-1.0424365,1003.78424,1,3
51.56,6.703351,-7.935277,-1.0566003000000002,1003.77936,1,3
51.6,6.569543,-8.011543,-1.1181451,1003.7695,1,3
51.64,6.612584599999999,-7.9924774,-1.0565957,1003.74164,1,3
51.68,6.6508512,-7.959111,-1.1228749,1003.7643,1,3
51.72,6.612641,-7.9686460000000015,-1.1323411,1003.7516,1,3
51.76,6.641342999999999,-7.935281,-1.1465421999999998,1003.73676,1,3
51.8,6.5648932,-7.987713,-0.9903043,1003.7668,1,3
51.84,6.693974000000001,-7.873317,-1.0707868,1003.7389,1,3
51.88,6.842175,-7.7732196,-1.0613157,1003.739,1,3
51.92,6.875660000000001,-7.744621,-1.3548461,1003.7567,1,3
51.96,6.7657479999999985,-7.844719,-1.1370615,1003.7089,1,3
52.0,6.6749587,-7.7779880000000015,-1.089715,1003.7441,1,3
52.04,6.765803,-7.544427400000001,-1.1275876,1003.7091,1,3
52.08,6.6702337,-7.5825605,-0.81511444,1003.70874,1,3
52.12,6.4695067,-7.677892,-0.6162671,1003.73395,1,3
52.16,6.5029902,-7.630227,-0.7725003,1003.7163,1,3
52.2,6.4552207,-7.677892999999999,-0.92399853,1003.6968,1,3
52.24,6.464805,-7.677894,-0.85771453,1003.6612,1,3
52.28,6.5174093,-7.5539637000000015,-1.1417766000000005,1003.68646,1,3
52.32,6.4600787,-7.5444317,-1.3264159,1003.6664,1,3
52.36,6.4840026,-7.5777984,-1.1985847,1003.6662,1,3
52.4,6.617862,-7.5348997,-1.089691,1003.64374,1,3
52.44,6.7278259999999985,-7.5015345,-1.0802196000000002,1003.64374,1,3
52.48,6.6226949999999984,-7.449103,-0.95238835,1003.6461,1,3
52.52,6.4697666,-7.4681697,-0.81508833,1003.67346,1,3
52.56,6.3964542999999985,-7.5634613,-0.8010329,1003.6436,1,3
52.6,6.558932,-7.4156976,-0.8815211,1003.63354,1,3
52.64,6.6353706999999975,-7.353731,-0.9714783,1003.61865,1,3
52.68,6.5540759999999985,-7.406162299999999,-1.0424979,1003.5984,1,3
52.72,6.4249835,-7.4490604,-1.014095,1003.61115,1,3
52.76,6.377152,-7.401394,-1.0945828000000002,1003.61365,1,3
52.8,6.4631457,-7.468125,-0.99989873,1003.5935,1,3
52.84,6.420092,-7.425225,-1.0898557,1003.6037,1,3
52.88,6.238421400000001,-7.5110216,-1.0851247,1003.591,1,3
52.92,6.233603,-7.439522699999999,-0.9478305,1003.586,1,3
52.96,6.271808,-7.3203580000000015,-0.9146926,1003.5937,1,3
53.0,6.357807,-7.4204545,-0.9620401,1003.571,1,3
53.04,6.3482065,-7.582517,-0.75373006,1003.5585,1,3
53.08,6.3959694,-7.6492476,-0.8247494000000001,1003.54596,1,3
53.12,6.429392,-7.6349472999999985,-0.82001823,1003.561,1,3
53.16,6.5297275,-7.282221300000002,-1.0378045,1003.5428,1,3
53.2,6.544031,-7.2965198,-1.1135583999999998,1003.57074,1,3
53.24,6.477076,-7.4538155,-1.0804211,1003.5685,1,3
53.28,6.4196835,-7.5539117,-0.90525126,1003.5409,1,3
53.32,6.4387617,-7.5491443,-0.8910517,1003.5278,1,3
53.36,6.3383503,-7.458578599999999,-1.0567591,1003.5234,1,3
53.4,6.223597,-7.2965149999999985,-1.1325132,1003.53326,1,3
53.44,6.3430567,-7.391845,-1.0757036,1003.4952,1,3
53.48,6.3047776,-7.5396075,-0.9478783000000002,1003.5157,1,3
53.52,6.218703,-7.611105,-0.79164636,1003.5077,1,3
53.56,6.1960545,-7.5491705,-0.9382985,1003.4907,1,3
53.6,6.2773232000000005,-7.477672599999999,-1.1702832,1003.5003,1,3
53.64,6.2008595,-7.716000599999999,-1.0329843,1003.49005,1,3
53.68,6.325146,-7.673102,-1.0424521,1003.4827,1,3
53.72,6.4924550000000005,-7.4776735,-1.2554989,1003.48535,1,3
53.76,6.449447,-7.449074,-1.1702785,1003.4749,1,3
53.8,6.2582674,-7.5777717,-1.1750119,1003.4395,1,3
53.84,6.1818023,-7.654037,-1.1324012,1003.4677,1,3
53.88,6.2821913,-7.506273700000001,-0.9856333,1003.4625,1,3
53.92,6.3108825999999985,-7.463375,-0.8293968,1003.46783,1,3
53.96,6.229637,-7.3871107,-0.97142786,1003.44037,1,3
54.0,6.215311,-7.320379300000001,-0.95722353,1003.4395,1,3
54.04,6.2917995000000015,-7.2965465,-0.96195686,1003.44714,1,3
54.08,6.2535744000000015,-7.3203797,-0.9572213,1003.4321,1,3
54.12,6.1293120000000005,-7.33468,-0.9998298,1003.40753,1,3
54.16,6.005049,-7.382345,-1.0471728,1003.45264,1,3
54.2,6.0098410000000015,-7.339446499999997,-0.9146082,1003.40466,1,3
54.24,6.2249465,-7.315614,-1.0187639000000002,1003.40466,1,3
54.28,6.2392974,-7.339447,-1.0377004,1003.40717,1,3
54.32,6.2727685,-7.368046799999999,-1.0282305,1003.3945,1,3
54.36,6.205863,-7.2965493000000015,-1.1134487,1003.43036,1,3
54.4,6.205876,-7.196451700000001,-1.0945098,1003.4176,1,3
54.44,6.277586,-7.172619,-1.0803056999999998,1003.387,1,3
54.48,6.244139,-7.2584176,-1.07557,1003.40717,1,3
54.52,6.153338400000001,-7.2155185,-1.0140214,1003.3845,1,3
54.56,6.110588,-7.1392603,-1.0471376,1003.38715,1,3
54.6,6.034137,-7.163094,-1.0708073,1003.3545,1,3
54.64,5.9720163,-7.091596000000001,-0.99505526,1003.3645,1,3
54.68,5.9385867,-7.1916947,-1.0565999,1003.3416,1,3
54.72,5.933828,-7.196461,-0.89089376,1003.3466,1,3
54.76,5.8956122,-7.101131,-0.9571734,1003.3516,1,3
54.8,5.9243145,-7.0010333,-1.1086721000000002,1003.3817,1,3
54.84,6.0008135000000005,-7.0010343,-1.013982,1003.3471,1,3
54.88,5.9291367999999975,-7.1249657000000015,-1.0849963,1003.34406,1,3
54.92,5.948279,-7.134499000000001,-1.0045093,1003.3369,1,3
54.96,6.005654,-6.9676703999999985,-1.0045078,1003.3516,1,3
55.0,6.0869403,-7.029635400000001,-1.0423803,1003.35956,1,3
55.04,6.0630627,-7.034403299999999,-1.0281751,1003.3241,1,3
55.08,6.0965443,-7.0105710000000006,-1.028173,1003.3344,1,3
55.12,6.0392094000000025,-6.981972,-0.99503,1003.3444,1,3
55.16,5.9675335999999986,-7.0058050000000005,-0.9902937,1003.3316,1,3
55.2,5.905419,-6.9676733,-1.0139636,1003.3293,1,3
55.24,5.886323,-7.0439386,-1.0281646999999998,1003.3268,1,3
55.28,5.919797,-7.0391726,-0.97608477,1003.3116,1,3
55.32,6.0727806,-6.967675,-1.0376294,1003.3219,1,3
55.36,5.9963264,-6.9009437999999985,-1.1559874,1003.3039,0,0
55.4,5.9103117,-6.962909700000001,-1.056563,1003.3294,0,0
55.44,5.86731,-7.0344086,-0.95713896,1003.32416,0,0
55.48,5.953368,-7.053475,-0.92399603,1003.299,0,0
55.52,6.082453,-6.9438453,-0.966603,1003.2686,0,0
55.56,6.0010834000000015,-6.9581423,-0.98081654,1003.3087,0,0
55.6,6.034563,-6.986742,-1.0139555,1003.31146,0,0
55.64,6.025021,-7.0105752999999975,-1.0376258,1003.28656,0,0
55.68,6.087177,-7.0534744000000025,-1.0518274,1003.29895,0,0
55.72,6.1302123,-6.9438443,-0.97607523,1003.3218,0,0
55.76,6.068092,-7.124974000000001,-1.0802307,1003.2914,0,0
55.8,6.1015677,-7.1345066999999975,-0.84824324,1003.3037,0,0
55.84,6.1493783,-7.129741,-0.93346137,1003.3012,0,0
55.88,6.163741,-7.0439434000000025,-1.0849601999999998,1003.3366,0,0
55.92,6.1255193,-7.086842999999999,-1.0044738000000002,1003.2962,0,0
55.96,6.154216,-7.110676,-0.8577056000000001,1003.30896,0,0
56.0,6.268949,-7.1583424,-0.83403206,1003.31146,0,0
56.04,6.249846,-7.1297436,-0.9665938,1003.299,0,0
56.08,6.2546425,-7.201241499999999,-1.0991556999999998,1003.3014,0,0
56.12,6.240321,-7.1917095,-1.1891078000000002,1003.31366,0,0
56.16,6.254679,-7.2012424,-1.1843716,1003.3137,0,0
56.2,6.2833760000000005,-7.2155429999999985,-1.127557,1003.3037,0,0
56.24,6.297732,-7.120212,-1.004461,1003.32623,0,0
56.28,6.3073087,-7.196477400000001,-0.8766306,1003.3218,0,0
56.32,6.235628599999999,-7.3299413,-0.8766290000000001,1003.2782,0,0
56.36,6.3694824999999975,-7.277509700000001,-0.81508,1003.2909,0,0
56.4,6.4172955,-7.2346115000000015,-1.0802053,1003.29584,0,0
56.44,6.379076,-7.258445,-1.1985636,1003.3012,0,0
56.48,6.3695325999999985,-7.396675,-1.1701558,1003.2858,0,0
56.52,6.4699269999999975,-7.4348083,-1.0186532,1003.3205,0,0
56.56,6.48803,-7.315619,-1.051887,1003.283,0,0
56.6,6.449768,-7.3728175,-1.1323739,1003.2855,0,0
56.64,6.3159113,-7.4157160000000015,-0.9808751,1003.3159,0,0
56.68,6.3063297,-7.387116000000002,-1.004549,1003.30334,0,0
56.72,6.3541055,-7.4109479999999985,-1.0092856,1003.29803,0,0
56.76,6.3493023,-7.425247,-0.99034995,1003.3009,0,0
56.8,6.406638,-7.4252467000000015,-0.9950865,1003.2755,0,0
56.84,6.291899,-7.496744599999999,-0.9950885,1003.2778,0,0
56.88,6.401813,-7.4347787,-0.98088735,1003.29315,0,0
56.92,6.506948,-7.4014125,-1.0519054,1003.2877,0,0
56.96,6.4830246,-7.368045299999999,-1.0850483999999998,1003.29803,0,0
57.0,6.444764599999999,-7.3775783,-1.1087223,1003.30054,0,0
57.04,6.48776,-7.4014106,-1.0661149,1003.2902,0,0
57.08,6.4447199999999984,-7.4061766,-0.8862095,1003.30316,0,0
57.12,6.492495,-7.391876,-0.9477588,1003.29584,0,0
57.16,6.430335,-7.34421,-1.066121,1003.313,0,0
57.2,6.306038,-7.482439500000001,-1.0613887,1003.3259,0,0
57.24,6.387274,-7.4109406,-1.042453,1003.29803,0,0
57.28,6.4111485,-7.439539999999999,-1.0566583,1003.2827,0,0
57.32,6.3489885,-7.3680406,-0.9856443,1003.30035,0,0
57.36,6.2677093,-7.515803999999997,-1.141882,1003.29803,0,0
57.4,6.3107057,-7.487203599999999,-1.004586,1003.3205,0,0
57.44,6.3967214000000014,-7.4824367,-1.0566664,1003.29803,0,0
57.48,6.4158177000000025,-7.363272,-1.1276846,1003.28784,0,0
57.52,6.372775,-7.396636999999999,-1.0566708,1003.2927,0,0
57.56,6.3544407,-7.458622,-1.0045205,1003.31287,0,0
57.6,6.282753,-7.520587400000001,-0.9335034,1003.3052,0,0
57.64,6.344899,-7.4872217,-1.0660661,1003.2777,0,0
57.68,6.4166050000000014,-7.515821499999999,-1.179691,1003.27277,0,0
57.72,6.478751,-7.4490895,-1.1276118,1003.27765,0,0
57.76,6.5313377,-7.391891,-1.222299,1003.3277,0,0
57.8,6.531347,-7.410958,-1.1560165,1003.3152,0,0
57.84,6.493117,-7.2631945999999985,-1.0376555,1003.27515,0,0
57.88,6.469226,-7.306093,-1.0802646,1003.2853,0,0
57.92,6.2254653,-7.5348887000000015,-0.909825,1003.3102,0,0
57.96,6.134658,-7.5682550000000015,-0.8293393,1003.29803,0,0
58.0,6.1394463,-7.711251700000001,-0.8056666,1003.313,0,0
58.04,6.2541704000000005,-7.668352599999999,-0.9950419,1003.2952,0,0
58.08,6.407133,-7.5205899999999986,-1.2317615,1003.2977,0,0
58.12,6.3880215,-7.549189599999999,-1.2506983,1003.3,0,0
58.16,6.354572,-7.439559,-1.2743694,1003.3076,0,0
58.2,6.359361,-7.5253572,-1.0471172,1003.3177,0,0
58.24,6.354589,-7.520591,-1.0234444,1003.295,0,0
58.28,6.388057,-7.511058,-0.8577394,1003.2876,0,0
58.32,6.402405,-7.5062914,-0.87194175,1003.2928,0,0
58.36,6.4310923,-7.4633927,-0.9760979,1003.28723,0,0
58.4,6.3833036,-7.4395604,-1.0471133,1003.3152,0,0
58.44,6.3020544,-7.5920897,-1.1986133999999995,1003.3227,0,0
58.48,6.2781653,-7.558724400000001,-1.1512686,1003.3327,0,0
58.52,6.3450913,-7.4776936,-1.0187045,1003.3075,0,0
58.56,6.2351,-7.5682564,-0.9666311,1003.2976,0,0
58.6,6.206427,-7.5777899999999985,-0.9808337,1003.3127,0,0
58.64,6.1203965999999985,-7.7160199999999985,-1.0376459,1003.31287,0,0
58.68,6.2303386,-7.5825567,-0.9429573,1003.31287,0,0
58.72,6.2733626,-7.501525,-1.0707859,1003.2901,0,0
58.76,6.321168,-7.515825299999999,-1.1938796,1003.3075,0,0
58.8,6.2494764000000025,-7.625456,-1.1086599,1003.26996,0,0
58.84,6.3737574,-7.5348916,-1.0423776,1003.3048,0,0
58.88,6.431122,-7.5348916,-1.1796747,1003.2976,0,0
58.92,6.3785496,-7.4109615999999985,-1.2790967,1003.3075,0,0
58.96,6.3546567000000005,-7.5110592999999986,-1.1512673,1003.33777,0,0
59.0,6.302086,-7.5873240000000015,-0.94295263,1003.31995,0,0
59.04,6.3498893,-7.5062929999999985,-1.08025,1003.32513,0,0
59.08,6.306878,-7.3632965,-1.1844064,1003.3151,0,0
59.12,6.1969485,-7.501526400000001,-1.0139672,1003.30975,0,0
59.16,6.2065144,-7.568259200000001,-1.0092322,1003.3195,0,0
59.2,6.1635019999999985,-7.501527,-1.1133885,1003.3045,0,0
59.24,6.168288,-7.563492299999999,-1.0944504,1003.2925,0,0
59.28,6.201753,-7.5348929999999985,-1.1844035,1003.3025,0,0
59.32,6.220879,-7.582559,-1.1559964,1003.3023,0,0
59.36,6.230445,-7.644524,-1.1796678,1003.3045,0,0
59.4,6.2591295,-7.649291000000002,-1.0849792,1003.3095,0,0
59.44,6.283035,-7.639758,-1.0707755,1003.32996,0,0
59.48,6.6702056,-7.3728313,-1.2033383,1003.31995,0,0
59.52,6.5746160000000025,-7.3966637,-1.2601504,1003.3023,0,0
59.56,6.4600997000000016,-7.492000599999999,-1.1370378,1003.29193,0,0
59.6,6.550928,-7.3919024,-1.1370366000000005,1003.297,0,0
59.64,6.3740916,-7.339471,-1.2222544,1003.32764,0,0
59.68,6.3597627,-7.248906599999999,-1.2317221,1003.3148,0,0
59.72,6.101669,-7.515834299999999,-1.0281415,1003.30676,0,0
59.76,6.068225,-7.6016326,-0.79141974,1003.30927,0,0
59.8,6.0873566,-7.6826644,-0.84349716,1003.2769,0,0
59.84,6.288121,-7.677898,-0.8340271,1003.30426,0,0
59.88,6.407632,-7.816128999999999,-0.99026114,1003.31195,0,0
59.92,6.613177,-7.5539679999999985,-1.3406059,1003.29944,0,0
59.96,6.2547054000000015,-7.568269,-1.6341377,1003.3195,0,0
60.0,5.910573,-7.4348054,-1.4684323,1003.3099,0,0
60.04,5.7337337,-7.463404700000001,-1.1654291,1003.29675,0,0
60.08,5.9966364,-7.496771000000002,-0.90977,1003.3195,0,0
60.12,6.3838153,-7.468172,-0.72039247,1003.31195,0,0
60.16,6.479424,-7.5206046,-0.7251257,1003.3194,0,0
60.2,6.7040906000000025,-7.5015383,-0.7819371999999999,1003.30194,0,0
60.24,6.75668,-7.6350026,-1.0281252,1003.2691,0,0
60.28,6.4507866,-7.382375200000001,-1.1985624,1003.2839,0,0
60.32,6.498597599999999,-7.0820823000000015,-1.3974062,1003.2916,0,0
60.36,6.484273,-7.320411,-0.9807772,1003.2891,0,0
60.4,6.532085,-7.2679796,-0.88135344,1003.3116,0,0
60.44,6.761528,-7.430042299999997,-0.6493665,1003.30945,0,0
60.48,6.4890940000000015,-7.434809,-0.72985,1003.28894,0,0
60.52,6.3552723,-7.387144,-0.8292712999999999,1003.322,0,0
60.56,6.268832700000001,-7.606395699999997,-0.7393545,1003.30426,0,0
60.6,6.2544910000000025,-7.3823675999999985,-0.9950126,1003.30676,0,0
60.64,6.259268,-7.1631055,-0.6209949,1003.317,0,0
60.68,6.096752,-7.639761,-0.900325,1003.31396,0,0
60.72,5.743044,-7.687427,-1.411641,1003.2938,0,0
60.76,6.0537286,-7.5062976,-1.1938586000000002,1003.2941,0,0
60.8,6.2735972,-7.639761,-1.056561,1003.3266,0,0
60.84,6.5173644999999985,-7.3919,-0.85298187,1003.3241,0,0
60.88,6.6416369999999985,-7.1392727,-1.2885474,1003.3012,0,0
60.92,6.503021,-7.1869383,-1.0044832,1003.30145,0,0
60.96,6.307046,-7.4109664,-0.76776326,1003.3038,0,0
61.0,6.3596214999999985,-7.4967637,-0.75829464,1003.3143,0,0
61.04,6.6703053,-7.248903,-0.6541381,1003.29926,0,0
61.08,6.4982295,-7.701726,-0.7630296999999999,1003.29895,0,0
61.12,6.5460252999999975,-7.649294,-1.3453617,1003.29663,0,0
61.16,6.7419949999999975,-7.206003999999999,-1.1512513,1003.3193,0,0
61.2,6.593818700000001,-7.329934,-1.4921287,1003.3318,0,0
61.24,6.26401,-7.5539619999999985,-1.2790806,1003.3039,0,0
61.28,6.330925,-7.4872303,-0.9760788,1003.2916,0,0
61.32,6.7754436,-7.4347982,-1.0991738000000002,1003.2884,0,0
61.36,6.5794697,-7.3775997,-1.0802364,1003.30896,0,0
61.4,6.7133020000000005,-7.167871000000001,-0.7961722,1003.3088,0,0
61.44,6.5938044000000025,-7.253669,-0.9382046,1003.30896,0,0
61.48,6.4121685,-7.225069500000001,-0.834048,1003.31177,0,0
61.52,6.5029825999999975,-7.220302999999999,-0.99028355,1003.2984,0,0
61.56,6.431736,-7.291812400000001,-0.9144918,1003.3141,0,0
61.6,6.3743896,-7.4014440000000015,-0.8955531999999999,1003.2784,0,0
61.64,6.4604454,-7.620706,-1.0044427,1003.31396,0,0
61.68,6.5130386,-7.287047,-1.2364271999999998,1003.3013,0,0
61.72,6.5990863,-7.2012490000000025,-1.3405831,1003.2987,0,0
61.76,6.3505544999999985,-7.163117,-1.3689878,1003.2886,0,0
61.8,6.3792477,-7.210783,-1.0754534,1003.3009,0,0
61.84,6.379264,-7.682672500000002,-0.8624037,1003.2837,0,0
61.88,6.479653,-7.6874394,-0.8955433,1003.2984,0,0
61.92,6.632623,-7.339481399999999,-1.0896525,1003.3138,0,0
61.96,6.4557853,-7.177419,-1.170136,1003.30347,0,0
62.0,6.5705160000000005,-7.1440535,-1.2506194,1003.2934,0,0
62.04,6.508393,-7.4967785,-0.99022585,1003.3238,0,0
62.08,6.5275254,-7.067789,-0.9618181999999998,1003.3034,0,0
62.12,6.5992393,-7.453881,-1.0612391,1003.3087,0,0
62.16,6.5466757000000015,-7.2584524,-1.0659722,1003.3038,0,0
62.2,6.7139826000000005,-7.015358,-1.2269409,1003.3138,0,0
62.24,6.4033113,-7.310885000000002,-0.86712456,1003.3062,0,0
62.28,6.226474,-7.325185,-1.2458756000000002,1003.30597,0,0
62.32,5.9970574,-7.6731443,-0.99021643,1003.3034,0,0
62.36,6.680585400000001,-7.0916247000000014,-0.93813646,1003.2886,0,0
62.4,6.723619,-7.239388000000001,-1.1464489,1003.3212,0,0
62.44,6.532441,-7.2250885999999985,-1.047025,1003.3234,0,0
62.48,6.546796,-7.1917233,-1.2269311,1003.3237,0,0
62.52,6.465554,-7.420517999999999,-1.0659598,1003.2909,0,0
62.56,6.636834,-7.2918015,-1.0707669,1003.2961,0,0
62.6,6.5890193,-7.234603,-1.1749253,1003.28864,0,0
62.64,6.5029664,-7.3537664,-1.1843957,1003.3037,0,0
62.68,6.5459685,-7.2775006,-1.0613027,1003.2785,0,0
62.72,6.708466499999999,-7.244135000000001,-1.0707729,1003.3112,0,0
62.76,6.646312700000001,-7.2298345999999984,-1.0518367,1003.3011,0,0
62.8,6.617617,-7.1249699999999985,-1.132323,1003.2986,0,0
62.84,6.560245,-7.320399,-1.0613084,1003.3134,0,0
62.88,6.49331,-7.363297,-0.9145433,1003.31854,0,0
62.92,6.493293,-7.306097500000001,-1.0660459999999998,1003.33124,0,0
62.96,6.5076165,-7.272732,-1.0991882,1003.29803,0,0
63.0,6.5984163,-7.244132,-1.0613146,1003.288,0,0
63.04,6.6414204,-7.2679644,-1.1370662,1003.30853,0,0
63.08,6.670081599999999,-7.3156295,-1.0329111,1003.30084,0,0
63.12,6.5888085000000025,-7.1630993,-1.2222886,1003.3034,0,0
63.16,6.316346,-7.3728275,-1.2270243,1003.2855,0,0
63.2,6.330667,-7.4300256,-0.89088315,1003.29803,0,0
63.24,6.5361824,-7.2441297,-0.86247826,1003.3006,0,0
63.28,6.684341000000001,-7.2584285999999985,-0.8104011999999999,1003.2961,0,0
63.32,6.5648293,-7.287028,-0.81040275,1003.30835,0,0
63.36,6.583932000000001,-7.310860000000001,-0.8530138,1003.2961,0,0
63.4,6.598256,-7.0963645,-1.0471259,1003.3078,0,0
63.44,6.6412562999999984,-7.205995,-1.0329243,1003.3259,0,0
63.48,6.5982227,-7.3108587,-1.0281914,1003.3135,0,0
63.52,6.6221055999999985,-7.310858199999997,-0.99031764,1003.3109,0,0
63.56,6.5662827,-7.377628,-1.094334,1003.30304,0,0
63.6,6.585444,-7.253698299999999,-1.1890184,1003.30804,0,0
63.64,6.5759254,-7.2012672,-1.0848576,1003.3206,0,0
63.68,6.4708147,-7.4395967,-0.9664934,1003.318,0,0
63.72,6.5138745,-7.4109974,-0.9049424,1003.29553,0,0
63.76,6.5282607000000015,-7.2537026,-1.0232981,1003.30054,0,0
63.8,6.5044065,-7.2584705,-1.0706381,1003.326,0,0
63.84,6.4662123,-7.301369999999999,-0.94280505,1003.3231,0,0
63.88,6.523606,-7.2823057,-0.84811366,1003.3053,0,0
63.92,6.609692599999999,-7.2251077000000015,-0.8386403,1003.30505,0,0
63.96,6.5380373,-7.268007799999999,-0.9569967,1003.3155,0,0
64.0,6.452045,-7.301375,-1.0138054,1003.29285,0,0
64.04,6.614603,-7.3824070000000015,-0.9333164,1003.3155,0,0
64.08,6.5047092000000015,-7.453907000000001,-1.0469383,1003.2851,0,0
64.12,6.4856367,-7.320444,-1.2647166,1003.30505,0,0
64.16,6.4856787,-7.24418,-1.2647129,1003.3184,0,0
64.2,6.3327694,-7.4920425,-1.1132079,1003.30304,0,0
64.24,6.433187,-7.391946000000001,-0.9001556999999999,1003.31006,0,0
64.28,6.64354,-7.215584,-0.9143551,1003.30804,0,0
64.32,6.5623336,-7.296616999999999,-0.9285538,1003.31244,0,0
64.36,6.457219,-7.239419,-0.97589403,1003.3078,0,0
64.4,6.4142456,-7.401483,-1.023234,1003.3251,0,0
64.44,6.4525256,-7.391951,-1.0232303,1003.28784,0,0
64.48,6.581625,-7.2012899999999975,-1.0042886,1003.3,0,0
64.52,6.481293,-7.277556,-1.0610973999999995,1003.33026,0,0
64.56,6.4702606,-7.372851400000001,-1.0659666,1003.2951,0,0
64.6,6.5084834,-7.272753,-1.0328271,1003.30304,0,0
64.64,6.570606,-7.2632194,-1.0044221,1003.2927,0,0
64.68,6.398518,-7.325184299999999,-0.9097354,1003.33026,0,0
64.72,6.3315864,-7.434814999999999,-1.0328313,1003.3105,0,0
64.76,6.3267922,-7.5206122,-0.99495727,1003.30054,0,0
64.8,6.451053,-7.458647,-0.93814576,1003.2875,0,0
64.84,6.527514,-7.363314999999999,-1.1653987,1003.31506,0,0
64.88,6.441463,-7.363314599999999,-1.1511968,1003.328,0,0
64.92,6.312392,-7.5730433,-1.0423069,1003.3078,0,0
64.96,6.312378,-7.558742999999999,-0.852932,1003.3354,0,0
65.0,6.3171425,-7.36808,-1.0186377,1003.3052,0,0
65.04,6.3314667,-7.320415,-1.0612487,1003.3052,0,0
65.08,6.336231,-7.401446000000001,-0.97129637,1003.31976,0,0
65.12,6.364895,-7.5063095,-0.8624064,1003.3001,0,0
65.16,6.441357599999999,-7.4443436,-0.86714214,1003.3076,0,0
65.2,6.470021,-7.320413,-0.9428939,1003.30505,0,0
65.24,6.4413269999999985,-7.3347125,-0.9807705,1003.3251,0,0
65.28,6.388735,-7.553972999999999,-0.98077196,1003.26965,0,0
65.32,6.479536,-7.458642,-0.8955540000000001,1003.33,0,0
65.36,6.579897,-7.2870455,-1.1417445,1003.2972,0,0
65.4,6.5034056,-7.4109755,-1.0991361000000002,1003.29755,0,0
65.44,6.393454599999999,-7.396675599999999,-0.99971503,1003.29504,0,0
65.48,6.412559,-7.5539713000000015,-1.0044508,1003.31506,0,0
65.52,6.422103400000001,-7.453873599999999,-1.0802028,1003.2922,0,0
65.56,6.4413686,-7.4014454,-1.051783,1003.28217,0,0
65.6,6.3983417000000005,-7.391911500000001,-1.0375805,1003.2922,0,0
65.64,6.398332599999999,-7.401445,-0.94289315,1003.2846,0,0
65.68,6.345747,-7.4348100000000015,-0.90501875,1003.3222,0,0
65.72,6.355297,-7.3013463,-0.83400345,1003.2951,0,0
65.76,6.3170495,-7.3728447,-0.6256904999999999,1003.3177,0,0
65.8,6.254904,-7.410976400000001,-0.81506747,1003.31714,0,0
65.84,6.2214364999999985,-7.5539727,-0.8671466,1003.2846,0,0
65.88,6.3074645999999985,-7.3728440000000015,-0.81980336,1003.30725,0,0
65.92,6.6802800000000016,-7.434809,-0.980774,1003.27716,0,0
65.96,6.737628999999999,-7.6397705,-1.3121831,1003.2897,1,4
66.0,6.7185006,-7.2393800000000015,-1.312184,1003.3046,1,4
66.04,6.3934655,-7.2060137000000015,-1.700406,1003.3022,1,4
66.08,5.9967337,-7.2298465,-2.0176117,1003.31464,1,4
66.12,5.757735,-7.496773200000002,-2.0886285,1003.2796,1,4
66.16,5.5856524000000025,-7.811364999999999,-2.1833174,1003.31714,1,4
66.2,5.5856442,-7.601636999999997,-2.3632255,1003.28723,1,4
66.24,5.523496,-7.568271000000001,-2.5147276,1003.3206,1,4
66.28,5.7338010000000015,-7.577803599999997,-2.0696943,1003.3378,1,4
66.32,5.972782,-7.2203116,-1.75249,1003.31226,1,4
66.36,7.287219,-6.5100946,-1.1606902,1003.30975,1,4
66.4,10.494457,-4.4986076,-1.0044558,1003.3118,1,4
66.44,13.5391865,-3.2879013999999995,-0.7156576,1003.3375,1,4
66.48,15.728328,-4.3556104000000015,-0.69198644,1003.31464,1,4
66.52,16.784653,-5.1659245,0.6241773,1003.31464,1,4
66.56,15.035078,-6.2336290000000005,1.5947146,1003.31976,1,4
66.6,12.224537,-7.525366,0.77092695,1003.3152,1,4
66.64,9.337521,-8.125950999999999,-0.1522834,1003.3422,1,4
66.68,7.009742299999999,-8.245115,0.013419479,1003.302,1,4
66.72,5.006989,-8.211749000000001,0.26907593,1003.32513,1,4
66.76,3.3292594,-7.987719500000001,-0.17595987,1003.3277,1,4
66.8,2.4879985,-8.273713,-0.40794706,1003.2872,1,4
66.84,2.191639,-8.707469999999999,-0.75829405,1003.2897,1,4
66.88,2.5835662,-9.527316,-1.1323136,1003.2796,1,4
66.92,3.3148606,-10.709423,-1.4921298,1003.2796,1,4
66.96,3.9935777,-12.077425,-1.2743485,1003.2947,1,4
67.0,5.0594625,-11.643666,-0.92873806,1003.2901,1,4
67.04,7.8508496,-10.819053,-1.6483694,1003.30505,1,4
67.08,8.983647,-11.996391,-2.0649981,1003.28217,1,4
67.12,9.471172,-12.611278,-1.4684646,1003.2951,1,4
67.16,10.0303955,-11.410105,-0.13809821,1003.31213,1,4
67.2,10.312391,-9.937238,0.74723434,1003.30457,1,4
67.24,10.489226,-8.516803,1.6846447,1003.3101,1,4
67.28,10.321918,-6.662612400000001,1.8077378,1003.3071,1,4
67.32,10.231087,-5.189746,1.5189377,1003.29974,1,4
67.36,9.471082,-4.412797,1.140184,1003.2972,1,4
67.4,9.3133335,-4.646358,0.7851023,1003.29254,1,4
67.44,9.8725605,-4.69879,0.2832545,1003.2927,1,4
67.48,11.153534,-5.423306,-0.3038131,1003.3001,1,4
67.52,12.324567,-8.459602,-1.0376475,1003.30286,1,4
67.56,12.832536,-9.598842,-1.7997667000000002,1003.2947,1,4
67.6,12.90426,-10.542621,-1.6151223999999995,1003.2997,1,4
67.64,12.239912,-14.174738,-1.7098064,1003.3222,1,4
67.68,11.742849,-17.215801000000006,-1.5583023,1003.33264,1,4
67.72,10.356742,-16.586617,0.29285342,1003.3597,1,4
67.76,7.9095187,-14.570366,0.59112424,1003.37756,1,4
67.8,5.5961304000000025,-12.687576,-0.38889414,1003.33716,1,4
67.84,3.9614747,-10.423463,-1.1511301,1003.3403,1,4
67.88,3.0246677,-8.97443,-1.3215654,1003.3222,1,4
67.92,1.7245974999999998,-8.0354185,-0.30366498,1003.3022,1,4
67.96,0.7399923,-8.064019,-0.1521609,1003.2796,1,4
68.0,0.21425061,-8.397679,-0.64453554,1003.2721,1,4
68.04,0.37680072,-8.902935000000003,-0.2610455,1003.27747,1,4
68.08,2.001971,-9.980177,-0.9948748,1003.2772,1,4
68.12,3.2877703,-12.120363,-0.72974515,1003.278,1,4
68.16,5.6155715,-15.523685,1.4338809,1003.28503,1,4
68.2,9.802718,-17.225346,3.3891937999999993,1003.3046,1,4
68.24,13.612259,-17.363579,2.3050184,1003.2947,1,4
68.28,14.377061,-14.937402,0.60537016,1003.2747,1,4
68.32,14.57785,-10.2280445,-0.47880495,1003.3178,1,4
68.36,14.114246,-8.655081,1.7037588,1003.29974,1,4
68.4,11.284637,-9.136504,2.030436,1003.3046,1,4
68.44,9.4970255,-8.583585000000001,1.5427955,1003.3026,1,4
68.48,10.864088,-5.084933,0.7758255000000001,1003.3076,1,4
68.52,12.603971,-3.583468,-0.1899899,1003.29254,1,4
68.56,14.1756935,-2.835098,-0.8954924999999999,1003.29,1,4
68.6,15.733912,-4.1030025000000006,0.27390575,1003.313,1,4
68.64,14.558084,-7.2107972999999985,0.40646932,1003.328,1,4
68.68,13.143264000000002,-8.99349,0.10820207,1003.3178,1,4
68.72,12.196864,-11.381535,0.16974953,1003.32007,1,4
68.76,11.948318,-14.832521,-1.1511493,1003.3254,1,4
68.8,12.096494,-17.439826999999998,-0.9191631,1003.3329,1,4
68.84,10.8250675,-16.27202,0.5627058000000001,1003.35803,1,4
68.88,8.937049,-14.413065,0.78048867,1003.343,1,4
68.92,6.384635,-12.678039,-0.1947985,1003.3509,1,4
68.96,4.3962393,-10.76665,-0.7203172,1003.3078,1,4
69.0,3.0865757,-8.712263,-0.79133296,1003.3053,1,4
69.04,2.7567716,-7.963914,-0.19479781,1003.30035,1,4
69.08,1.8772901,-7.6826878,0.572176,1003.30054,1,4
69.12,0.11354537,-7.8352175000000015,0.7473491999999999,1003.29803,1,4
69.16,-0.33575386,-8.755162,0.33072183,1003.293,1,4
69.2,0.95001584,-10.518788,-0.4693923,1003.29803,1,4
69.24,4.219404,-13.459754,-0.42204803,1003.288,1,4
69.28,8.172303999999999,-14.532229,0.5721771999999999,1003.2702,1,4
69.32,12.584067,-14.265303,0.62425584,1003.28784,1,4
69.36,13.162424,-15.07085,-1.0943329,1003.2805,1,4
69.4,11.288745,-14.10324,-1.8849782,1003.29553,1,4
69.44,11.652012,-11.467334,-1.0564572,1003.3155,1,4
69.48,12.6462145,-9.813338,0.8041640999999999,1003.30804,1,4
69.52,11.82409,-9.06499,2.2481577,1003.3512,1,4
69.56,11.880676,-6.614960000000001,2.7357306,1003.3131,1,4
69.6,11.321411,-4.074385,1.9450827,1003.29553,1,4
69.64,10.661772,-4.269813,0.45374286,1003.30084,1,4
69.68,10.403635,-4.9371305,-1.0565349,1003.29095,1,4
69.72,12.554519,-5.1468587,-0.96658367,1003.3011,1,4
69.76,14.012331,-5.671179,-1.1417593,1003.2809,1,4
69.8,13.338351,-6.200266,-0.91924477,1003.268,1,4
69.84,12.344124,-8.678875,-1.8803316000000003,1003.3011,1,4
69.88,12.487492,-11.862934,-3.319593,1003.29834,1,4
69.92,11.937788,-15.209056,-2.4768713,1003.3233,1,4
69.96,10.221809,-14.513139,-0.49789262,1003.3434,1,4
70.0,9.60519,-12.935408,-0.29431543,1003.3279,1,4
70.04,7.344311999999999,-11.800966,-1.3216841,1003.30835,1,4
70.08,5.1168976,-10.123137,-1.828268,1003.2886,1,4
70.12,3.749846,-8.006785,-1.681504,1003.30347,1,4
70.16,3.5299487000000003,-7.0248740000000005,-1.3643012,1003.3388,1,4
70.2,2.6695545,-7.358532,-1.4447888,1003.3009,1,4
70.24,1.5653933999999998,-8.14978,-1.080242,1003.2683,1,4
70.28,1.2355591,-8.268944,-0.62100726,1003.2984,1,4
70.32,2.411363,-9.017292,-0.90033966,1003.2987,1,4
70.36,4.189424,-11.581699,-1.3406419,1003.2934,1,4
70.4,6.536279,-13.826747,0.3542726,1003.29083,1,4
70.44,10.364877,-13.159428,1.3484951,1003.30597,1,4
70.48,13.997498,-12.249015,-0.21386103,1003.2859,1,4
70.52,13.576848000000002,-12.249014,-0.9618996,1003.2884,1,4
70.56,11.192698,-9.4892025,-0.24218105,1003.33624,1,4
70.6,10.375361,-7.291819599999997,0.5721375,1003.3084,1,4
70.64,9.080046,-6.3003755,0.07029169,1003.3135,1,4
70.68,7.6174364,-6.8628297000000025,-0.3084597,1003.29095,1,4
70.72,7.239843400000002,-6.3766413,0.47271812,1003.31104,1,4
70.76,7.8038716,-5.2803335,0.85620594,1003.293,1,4
70.8,9.347761,-4.7798457,0.73311245,1003.2862,1,4
70.84,10.829511,-4.3794546,-0.17115784,1003.2984,1,4
70.88,12.239564,-4.7178807,-0.710879,1003.3034,1,4
70.92,11.216697,-7.6254807,-0.98547333,1003.3138,1,4
70.96,10.514075,-9.255644,-0.9807381,1003.2733,1,4
71.0,10.055227,-9.265177,-1.5157248,1003.273,1,4
71.04,11.331446,-10.266153,-2.0033674,1003.2909,1,4
71.08,6.4942956,-15.294871,-0.8718435,1003.3187,1,4
71.12,2.2402816000000003,-16.963165,-2.656713,1003.31335,1,4
71.16,1.7145138,-13.631344,-0.99493605,1003.3109,1,4
71.2,3.1819258,-9.484439,0.5532154,1003.3137,1,4
71.24,3.8654482,-8.21177,-0.87657386,1003.2934,1,4
71.28,3.5547726,-7.849511,-1.8518602,1003.2834,1,4
71.32,4.0566616,-7.6779156,-1.9039376,1003.3038,1,4
71.36,5.4810550000000005,-8.907687,-1.3263395,1003.3037,1,4
71.4,6.3748903,-10.12316,0.2738906,1003.3037,1,4
71.44,5.8825808,-9.355744,1.5332431999999998,1003.3135,1,4
71.48,5.600584,-6.2622495,1.0598038,1003.3109,1,4
71.52,5.6722918,-5.494834,-0.94758284,1003.3212,1,4
71.56,6.2263107,-6.2956047,-2.48157,1003.3037,1,4
71.6,6.890697,-7.530142999999999,-2.1785686,1003.27625,1,4
71.64,7.6220007,-8.130728999999999,-0.6872318000000001,1003.3087,0,0
71.68,8.362865,-7.1774178,-0.0007436946,1003.2734,0,0
71.72,9.036811,-6.586364,-1.0470476999999998,1003.3062,0,0
71.76,8.1190815,-7.3490133,-1.6151768999999998,1003.3162,0,0
71.8,6.9241247,-7.086852,-0.7345781,1003.2859,0,0
71.84,6.364881,-6.719827,-0.10490291,1003.3037,0,0
71.88,6.2214813,-6.9486217,-0.90975225,1003.32874,0,0
71.92,6.627758,-7.1345167,-1.7193362,1003.3237,0,0
71.96,6.938439,-7.720803299999999,-0.87187815,1003.3163,0,0
72.0,6.967111599999999,-7.587339999999997,-0.72511214,1003.2834,0,0
72.04,6.312272,-7.363312,-1.7856194,1003.319,0,0
72.08,6.192771,-7.353778,-2.0744188,1003.31396,0,0
72.12,6.006352,-7.463408999999999,-2.2211857000000004,1003.33374,0,0
72.16,6.0206857000000005,-7.71127,-1.6814643,1003.2788,0,0
72.2,6.1210556,-7.658837299999999,-1.2648373,1003.30597,0,0
72.24,6.0158935,-7.5492063,-1.2553691,1003.2962,0,0
72.28,6.1784,-7.2393804,-1.3263856,1003.3359,0,0
72.32,6.2978883,-7.191714299999999,-1.5299656,1003.3212,0,0
72.36,6.651586999999999,-7.053484,-1.2174956,1003.3263,0,0
72.4,6.804536,-7.034418,-1.0470574,1003.3212,0,0
72.44,6.785410400000001,-7.134515,-1.0991365,1003.3013,0,0
72.48,6.8953384999999985,-7.0868497,-1.3027166,1003.2962,0,0
72.52,6.957471000000001,-6.9819856,-1.5299684999999998,1003.3009,0,0
72.56,7.225422999999997,-6.648333,-1.7003811999999998,1003.3034,0,0
72.6,7.096374000000001,-6.6626330000000005,-1.7335213,1003.3364,0,0
72.64,6.9577656,-6.8294625,-1.5488791000000002,1003.3087,0,0
72.68,6.8287134000000025,-6.9343266,-1.3879092,1003.2959,0,0
72.72,6.6518664,-7.153589,-1.1322508,1003.3038,0,0
72.76,6.451121,-7.3919168000000015,-1.1701254,1003.3187,0,0
72.8,6.1786765999999975,-7.449115299999999,-1.4021108,1003.3012,0,0
72.84,5.98271,-7.472948,-1.667237,1003.3388,0,0
72.88,6.0018325,-7.4824815,-1.7335183999999997,1003.30853,0,0
72.92,6.2121505999999975,-7.487248399999999,-1.9134252,1003.30853,0,0
72.96,6.408126,-7.449115799999999,-1.8755496,1003.29095,0,0
73.0,6.4368114,-7.4920149999999985,-1.6814383000000002,1003.3138,0,0
73.04,6.4415945999999975,-7.349019,-1.7808604,1003.3159,0,0
73.08,6.5037384000000005,-7.287053599999999,-1.7761256999999997,1003.30347,0,0
73.12,6.5563210000000005,-7.158356,-1.5725458,1003.30853,0,0
73.16,6.6662602,-6.8675966,-1.591483,1003.3163,0,0
73.2,6.6853857,-6.9915270000000005,-1.4352471000000002,1003.2858,0,0
73.24,6.900482000000001,-6.920029,-1.544138,1003.3134,0,0
73.28,7.1155787,-6.743666,-1.4163085,1003.3159,0,0
73.32,7.502747,-6.57207,-1.5157306000000002,1003.3034,0,0
73.36,6.8383594,-6.910496000000001,-1.8471385,1003.31085,0,0
73.4,6.412962,-7.3919187000000015,-1.3026813999999998,1003.3011,0,0
73.44,6.0783806,-7.501549199999999,-1.5820108999999998,1003.3087,0,0
73.48,6.0927253,-7.3204207,-1.7240427,1003.3237,0,0
73.52,6.3603992,-7.2441554,-1.6388228,1003.316,0,0
73.56,6.2262135,-7.415743400000001,-1.8045591,1003.3084,0,0
73.6,6.293122,-7.306112,-1.5489022,1003.3109,0,0
73.64,6.2405357000000015,-7.2632127,-1.7856231,1003.33606,0,0
73.68,6.1258125,-7.206014,-1.8187646,1003.30804,0,0
73.72,6.2978764000000025,-7.177414999999999,-1.8945159,1003.30554,0,0
73.76,6.187932,-7.4538746,-1.7524846,1003.2834,0,0
73.8,6.6467839999999985,-7.410975,-1.724079,1003.3109,0,0
73.84,6.8762064,-7.148814,-1.7572206999999995,1003.30554,0,0
73.88,6.9335546,-7.001051,-1.7714247,1003.3208,0,0
73.92,6.5655009999999985,-6.981985000000001,-1.7998317,1003.3205,0,0
73.96,6.536814,-7.0010505000000025,-1.676738,1003.293,0,0
74.0,6.44121,-7.058249000000001,-1.6625357,1003.333,0,0
74.04,6.508118,-7.1821795,-1.4210818,1003.33093,0,0
74.08,6.4937695999999985,-7.27751,-1.1701591,1003.31854,0,0
74.12,6.402945,-7.039182,-1.4352866000000002,1003.318,0,0
74.16,6.2929999999999975,-7.0677813999999985,-1.3027241000000005,1003.3285,0,0
74.2,6.0301023,-7.5873356,-0.90503496,1003.30304,0,0
74.24,5.8675804000000005,-7.997259,-0.83875394,1003.30554,0,0
74.28,5.9966264,-7.9591265,-1.1701632,1003.3405,0,0
74.32,6.646672,-7.3823732999999985,-1.7098861,1003.313,0,0
74.36,6.775717,-7.1154455999999975,-1.780903,1003.3155,0,0
74.4,6.7183504,-7.201243400000001,-1.6246684999999998,1003.3481,0,0
74.44,6.560609,-7.396672200000001,-1.586794,1003.313,0,0
74.48,6.4458838,-7.5444355,-1.331137,1003.3231,0,0
74.52,6.2881413,-7.4920034,-1.4068882,1003.30304,0,0
74.56,6.3125486,-7.4634156,-1.0328238,1003.33307,0,0
74.6,6.31256,-7.530148,-0.83397776,1003.3001,0,0
74.64,6.2791123,-7.4014516000000015,-1.0470248,1003.32513,0,0
74.68,6.2791242999999985,-7.420517999999999,-0.98547655,1003.3053,0,0
74.72,6.3556113,-7.525382,-0.9665379,1003.3255,0,0
74.76,6.4177604000000015,-7.4205184000000015,-1.0517563,1003.31506,0,0
74.8,6.4655704000000025,-7.4062195000000015,-1.1843185,1003.3251,0,0
74.84,6.499039,-7.4681845,-1.3784282,1003.31006,0,0
74.88,6.484711,-7.4681845,-1.1985197,1003.3456,0,0
74.92,6.417805,-7.463417999999999,-1.1748468,1003.3226,0,0
74.96,6.2839828,-7.430053,-1.2174553,1003.3177,0,0
75.0,6.2409754,-7.501550999999999,-0.9617964,1003.3276,0,0
75.04,6.293564,-7.477719299999999,-0.92865455,1003.31287,0,0
75.08,6.441749,-7.4729524,-0.90498155,1003.33264,0,0
75.12,6.4130816,-7.492019,-0.8481675999999999,1003.3022,0,0
75.16,6.446551,-7.4920197,-1.0612149,1003.3229,0,0
75.2,6.5278196,-7.349023299999999,-1.0517450000000002,1003.32513,0,0
75.24,6.4226756,-7.329957,-1.2032448999999998,1003.31714,0,0
75.28,6.379668,-7.2489257,-1.075415,1003.3302,0,0
75.32,6.288863,-7.3919229999999985,-1.170102,1003.35754,0,0
75.36,6.1646,-7.6254845,-1.0517409,1003.3001,0,0
75.4,6.2076283,-7.65885,-1.0138645,1003.3101,0,0
75.44,6.2124195,-7.5825863,-1.297928,1003.2997,0,0
75.48,6.2411103,-7.6111856,-1.2553172,1003.33026,0,0
75.52,6.1646442000000015,-7.5015550000000015,-1.3168634,1003.33514,0,0
75.56,6.1589722999999985,-7.5063,-1.127569,1003.33264,0,0
75.6,6.154169,-7.439567599999997,-0.8861164,1003.30975,0,0
75.64,6.278422,-7.4062009999999985,-0.82457113,1003.3071,0,0
75.68,6.2067003,-7.4824652999999985,-0.65886915,1003.30945,0,0
75.72,6.2496943,-7.415733,-0.8624507,1003.31213,0,0
75.76,6.4169636,-7.577795,-1.0281572,1003.3195,0,0
75.8,6.641589999999999,-7.4586305999999984,-1.0707691,1003.30927,0,0
75.84,6.670247,-7.091605,-1.2980226,1003.3018,0,0
75.88,6.455131,-7.329932,-1.3074936,1003.32965,0,0
75.92,6.283034,-7.4109634999999985,-0.995025,1003.3168,0,0
75.96,6.263891,-7.568259200000001,-0.72043175,1003.3347,0,0
76.0,6.4550605,-7.644522999999999,-0.73937136,1003.32965,0,0
76.04,6.455038,-7.4443274000000015,-0.8719368000000001,1003.2816,0,0
76.08,6.464573400000001,-7.382362,-0.91454864,1003.29675,0,0
76.12,6.4884486,-7.4633923,-1.0329111,1003.2894,0,0
76.16,6.3593698,-7.482458,-1.0849917,1003.3219,0,0
76.2,6.411925,-7.425259,-0.9903056999999998,1003.31433,0,0
76.24,6.521835,-7.310861,-1.1134025,1003.29193,0,0
76.28,6.450115,-7.339460000000001,-0.8388091000000001,1003.30444,0,0
76.32,6.3019165999999975,-7.4872227,-0.7299199000000001,1003.29193,0,0
76.36,6.321014,-7.3871245,-0.7725316999999999,1003.28406,0,0
76.4,6.421364,-7.391889999999999,-0.7914715999999999,1003.29694,0,0
76.44,6.5312769999999984,-7.391889599999999,-0.924037,1003.31195,0,0
76.48,6.4834547,-7.4443207,-0.90510166,1003.33435,0,0
76.52,6.416513,-7.391888000000002,-0.89563507,1003.3291,0,0
76.56,6.3182416,-7.511104,-0.9617241,1003.3345,0,0
76.6,6.3804349999999985,-7.525405,-0.95698464,1003.3015,0,0
76.64,6.533448,-7.3967094,-0.9569791,1003.3216,0,0
76.68,6.5335044999999985,-7.4491429999999985,-1.0232557,1003.3569,0,0
76.72,6.4236283,-7.3728795,-1.0800632,1003.3091,0,0
76.76,6.4953847,-7.339515,-1.0421824,1003.3419,0,0
76.8,6.2516747000000015,-7.482513000000001,-0.91434795,1003.304,0,0
76.84,6.041419,-7.677942999999999,-0.5639969,1003.3366,0,0
76.88,6.3187113,-7.534948299999999,-0.7628361,1003.3495,0,0
76.92,6.419139,-7.3871865,-0.8906603000000001,1003.3118,0,0
76.96,6.4000797,-7.4682193,-0.6918098000000001,1003.3391,0,0
77.0,6.428818,-7.5158863,-0.8243676999999999,1003.33936,0,0
77.04,6.4527769999999975,-7.53972,-0.97586316,1003.3345,0,0
77.08,6.433717,-7.463456599999999,-1.1178899,1003.314,0,0
77.12,6.304718,-7.334761599999997,-1.1936353000000002,1003.332,0,0
77.16,6.285659,-7.4968257,-1.2267708000000002,1003.3369,0,0
77.2,6.3669715,-7.4968270000000015,-0.9379668,1003.314,0,0
77.24,6.3718147000000025,-7.492062599999999,-0.8480073,1003.3015,0,0
77.28,6.410113,-7.487297,-0.838533,1003.3191,0,0
77.32,6.424508,-7.4110336,-0.89060634,1003.31366,0,0
77.36,6.338527,-7.4872994,-0.9284765,1003.3191,0,0
77.4,6.3099084,-7.468235000000001,-1.1131128,1003.3316,0,0
77.44,6.3816648,-7.4873023,-0.9947472,1003.2915,0,0
77.48,6.4199624,-7.4491714999999985,-0.9663355,1003.32654,0,0
77.52,6.4726005,-7.291877,-1.0988931999999998,1003.309,0,0
77.56,6.5092883000000015,-7.3252044,-0.9759405,1003.32117,0,0
77.6,6.4567074999999985,-7.310905,-0.80550236,1003.3012,0,0
77.64,6.461483,-7.315671400000001,-0.5214384,1003.34656,0,0
77.68,6.3563230000000015,-7.4920339999999985,-0.60665816,1003.3187,0,0
77.72,6.3610992,-7.468201,-0.79603463,1003.32623,0,0
77.76,6.3180776,-7.64933,-1.0469584,1003.32855,0,0
77.8,6.3276330000000005,-7.615964,-1.0611621,1003.314,0,0
77.84,6.4280057,-7.492033500000002,-1.2031945,1003.359,0,0
77.88,6.451901,-7.3824024,-1.2458044,1003.32367,0,0
77.92,6.3802,-7.4157686,-1.0280223,1003.3284,0,0
77.96,6.2989397,-7.4634337,-0.7865678,1003.3284,0,0
78.0,6.394532,-7.4729667,-0.7486929,1003.33875,0,0
78.04,6.375408599999999,-7.439601,-0.7581621000000001,1003.31854,0,0
78.08,6.313267,-7.4443674,-0.74869365,1003.3284,0,0
78.12,6.346722,-7.458667,-0.87652296,1003.31854,0,0
78.16,6.4327555,-7.434833999999999,-1.0090867,1003.32117,0,0
78.2,6.375393,-7.382402000000001,-1.0706344,1003.32153,0,0
78.24,6.3897295,-7.4110007,-0.9996185,1003.3462,0,0
78.28,6.5187798,-7.3442693,-1.1700574,1003.3259,0,0
78.32,6.4805384,-7.463433,-1.0374943,1003.3462,0,0
78.36,6.418396,-7.5587645,-0.81971216,1003.3234,0,0
78.4,6.3944936,-7.3204365,-0.8055093000000001,1003.29315,0,0
78.44,6.308453599999999,-7.425300599999999,-0.90493226,1003.33875,0,0
78.48,6.2558727,-7.487265,-0.8670572,1003.32605,0,0
78.52,6.341904,-7.4539,-0.87179196,1003.3034,0,0
78.56,6.3844714000000025,-7.439589,-0.8907709,1003.3232,0,0
78.6,6.3701105,-7.477721000000002,-0.98072666,1003.3155,0,0
78.64,6.432222,-7.4300547,-1.0138699,1003.32574,0,0
78.68,6.4513254,-7.444353599999999,-1.0138714,1003.33624,0,0
78.72,6.5755715,-7.353788400000001,-0.94285774,1003.32874,0,0
78.76,6.5755515,-7.258457000000001,-0.9286564,1003.3307,0,0
78.8,6.522952,-7.3347216,-0.7960951,1003.3232,0,0
78.84,6.3795376,-7.306121000000001,-0.7250809,1003.3207,0,0
78.88,6.350839,-7.339486999999999,-0.73455155,1003.3204,0,0
78.92,6.465531,-7.344253,-0.74875677,1003.3209,0,0
78.96,6.5372066,-7.315653,-0.72982115,1003.3558,0,0
79.0,6.465488400000001,-7.3966837,-0.8245113000000002,1003.32825,0,0
79.04,6.441569,-7.449115299999999,-0.86712277,1003.3505,0,0
79.08,6.441549,-7.468180999999999,-0.98548466,1003.29535,0,0
79.12,6.6136,-7.34425,-1.0849091999999998,1003.3232,0,0
79.16,6.4701830000000005,-7.430047999999997,-0.952348,1003.3232,0,0
79.2,6.4080257000000005,-7.391914999999999,-0.8813337,1003.34564,0,0
79.24,6.4892660000000015,-7.349015700000002,-0.90027285,1003.28784,0,0
79.28,6.5179243,-7.3061156,-0.89554036,1003.30554,0,0
79.32,6.541798,-7.3633137,-0.64935356,1003.3354,0,0
79.36,6.4652977,-7.387146,-0.4978547,1003.33307,0,0
79.4,6.403139,-7.368078999999999,-0.6493576,1003.33044,0,0
79.44,6.3887796,-7.4967755999999985,-0.8529389,1003.31067,0,0
79.48,6.3791980000000015,-7.487242,-0.8245345,1003.30554,0,0
79.52,6.5512495,-7.329944999999999,-0.9523653,1003.3205,0,0
79.56,6.647439500000001,-7.310894,-1.1464217,1003.29553,0,0
79.6,6.5136080000000005,-7.3823919999999985,-0.9854515,1003.3202,0,0
79.64,6.4180136,-7.4824899999999985,-0.81027836,1003.3101,0,0
79.68,6.461035,-7.3537927,-0.7676685000000001,1003.3254,0,0
79.72,6.4323583,-7.310894,-0.7629338999999999,1003.3153,0,0
79.76,6.4944983,-7.329960000000002,-0.65877676,1003.31287,0,0
79.8,6.4562626,-7.329960000000002,-0.734527,1003.33514,0,0
79.84,6.3893476,-7.368092999999999,-0.7676675999999999,1003.3077,0,0
79.88,6.4514875,-7.458657700000002,-0.7724018,1003.3329,0,0
79.92,6.4132514,-7.415758599999997,-0.89549613,1003.31,0,0
79.96,6.4419330000000015,-7.4538913,-0.7724014,1003.33026,0,0
80.0,6.398917,-7.458657700000002,-0.8150108,1003.3277,0,0
80.04,6.437158,-7.3394938,-0.91916746,1003.33514,0,0
80.08,6.5136375,-7.272761999999997,-0.7960727,1003.3403,0,0
80.12,6.585336999999999,-7.3013616,-0.8055413,1003.3202,0,0
80.16,6.499303,-7.2536960000000015,-0.7392593000000001,1003.3252,0,0
80.2,6.441948,-7.3871600000000015,-0.6303679,1003.3277,0,0
80.24,6.484968,-7.496790400000001,-0.6208988,1003.3277,0,0
80.28,6.5566679999999975,-7.449125,-0.6777114000000001,1003.3201,0,0
80.32,6.614028500000001,-7.4872575,-0.9712443,1003.3702,0,0
80.36,6.5518928,-7.415758999999999,-0.96650964,1003.3498,0,0
80.4,6.480199,-7.239396000000001,-0.9807126,1003.34283,0,0
80.44,6.4515224,-7.134532000000001,-1.0896038,1003.33264,0,0
80.48,6.422846,-7.2536960000000015,-0.91443044,1003.34247,0,0
80.52,6.4945455,-7.287062599999999,-0.72031975,1003.3051,0,0
80.56,6.571412,-7.5492325,-0.54984546,1003.3377,0,0
80.6,6.6096697,-7.496801,-0.6303286,1003.3277,0,0
80.64,6.595347,-7.287072999999999,-0.8812504999999999,1003.3302,0,0
80.68,6.528446,-7.186975,-0.9569995,1003.3226,0,0
80.72,6.5619226,-7.196509,-1.0611548000000002,1003.3201,0,0
80.76,6.5189223,-7.2727747,-0.9569962,1003.3173,0,0
80.8,6.647994500000001,-7.306140400000001,-0.7108055999999999,1003.3398,0,0
80.84,6.7053699999999985,-7.1440782999999985,-0.63505346,1003.3502,0,0
80.88,6.7006070000000015,-7.225110000000001,-0.62558305,1003.3476,0,0
80.92,6.533332,-7.268009700000001,-0.5498310000000001,1003.3423,0,0
80.96,6.413853,-7.4634385,-0.4030629000000001,1003.31213,0,0
81.0,6.3134937,-7.444373,-0.4930151,1003.3651,0,0
81.04,6.38521,-7.3919415,-0.8386249,1003.33246,0,0
81.08,6.4234653,-7.3490424,-0.9759211,1003.345,0,0
81.12,6.4043636,-7.377642599999999,-0.8670281999999999,1003.34216,0,0
81.16,6.485639,-7.2870784,-0.8244168,1003.33234,0,0
81.2,6.5621314,-7.3871765,-0.66344565,1003.33734,0,0
81.24,6.5525904000000015,-7.368110700000001,-0.6681783,1003.33734,0,0
81.28,6.557387400000001,-7.5301743,-0.7107864,1003.34955,0,0
81.32,6.5382857,-7.5206413,-0.66817516,1003.3573,0,0
81.36,6.523963,-7.2966137,-0.72972083,1003.3448,0,0
81.4,6.485742,-7.2298827,-0.74865687,1003.34467,0,0
81.44,6.5622380000000025,-7.272782,-0.6587014,1003.3295,0,0
81.48,6.653071400000001,-7.310915,-0.47405815,1003.327,0,0
81.52,6.700887,-7.2966156,-0.45511892,1003.3573,0,0
81.56,6.5425572,-7.296601,-0.60667443,1003.35425,0,0
81.6,6.4373955999999986,-7.372865700000001,-0.64928466,1003.337,0,0
81.64,6.42783,-7.5206285,-0.72503567,1003.3469,0,0
81.68,6.451722599999999,-7.4634295,-0.69662976,1003.3572,0,0
81.72,6.4660554,-7.3633320000000015,-0.84813136,1003.3444,0,0
81.76,6.513848,-7.306133,-0.9002103000000001,1003.34143,0,0
81.8,6.3800063,-7.4920287,-0.7581788,1003.32434,0,0
81.84,6.3656607,-7.511095,-0.6208816999999999,1003.34424,0,0
81.88,6.3943334,-7.501561,-0.6161478,1003.3395,0,0
81.92,6.3895472999999985,-7.4872613,-0.5403979,1003.34674,0,0
81.96,6.3178449999999975,-7.3442645,-0.6966338000000001,1003.3268,0,0
82.0,6.389535,-7.306132000000002,-0.70610315,1003.35175,0,0
82.04,6.5568222999999985,-7.2537,-0.5782748000000001,1003.34686,0,0
82.08,6.652411999999999,-7.363331,-0.5877441999999999,1003.34674,0,0
82.12,6.714542999999999,-7.368097,-0.63508886,1003.3495,0,0
82.16,6.518565,-7.277532000000001,-0.7439806999999999,1003.37933,0,0
82.2,6.332146,-7.368097,-0.9759671,1003.3265,0,0
82.24,6.4277362999999985,-7.387162700000001,-0.8481386999999999,1003.36426,0,0
82.28,6.4850874,-7.430061999999999,-0.68716955,1003.3315,0,0
82.32,6.480301,-7.506326700000002,-0.6919046,1003.34644,0,0
82.36,6.3560195,-7.5635247,-0.7108428000000001,1003.35425,0,0
82.4,6.2938766,-7.601657,-0.6824369,1003.3488,0,0
82.44,6.32255,-7.601657,-0.67770296,1003.34894,0,0
82.48,6.3177633,-7.6207232,-0.6303595999999999,1003.35425,0,0
82.52,6.2699585,-7.544458,-0.933362,1003.35645,0,0
82.56,6.2411455999999985,-7.472956,-0.89076465,1003.36676,0,0
82.6,6.32239,-7.458657,-0.77714014,1003.342,0,0
82.64,6.480112,-7.5015550000000015,-0.7013906999999999,1003.3315,0,0
82.68,6.53268,-7.573053,-0.5877659000000001,1003.3339,0,0
82.72,6.527889,-7.415756699999997,-0.66351736,1003.3488,0,0
82.76,6.3462443,-7.511087400000001,-0.68245614,1003.34894,0,0
82.8,6.384472,-7.477721000000002,-0.63984746,1003.31573,0,0
