Timestamp,Ax,Ay,Az,P,Value,Type
0.0,-3.0625777000000003,4.357575,6.334171,1004.27466,0,0
0.04,-2.6802137000000004,4.7150674000000015,8.379432000000001,1004.2947,0,0
0.08,-2.0540798,3.8618543,8.796058,1004.36505,0,0
0.12,-1.3323508999999998,3.3375335,5.8323183,1004.2325,0,0
0.16,-2.7185142000000004,3.1707044,8.942821,1004.2077,0,0
0.2,-2.078042,2.4557219,9.241086,1004.21796,0,0
0.24,-1.7721577000000002,2.899012,10.003324,1004.2482,0,0
0.28,-1.1651413000000002,2.365158,10.538309,1004.2635,0,0
0.32,-1.4184939,2.350859,8.526185,1004.2659,0,0
0.36,-0.52469075,0.60153306,5.837041,1004.2885,0,0
0.4,0.16361095,0.23450789,5.0037866,1004.3114,0,0
0.44,3.036254,2.284128,8.957013,1004.3419,0,0
0.48,2.3575006000000003,-1.1668587,7.2242190000000015,1004.36224,0,0
0.52,3.112689,-1.0667604,5.955396,1004.32965,0,0
0.56,3.8392003,-0.72833455,4.251009,1004.31995,0,0
0.6,5.4547534,-1.8913736,4.5066648,1004.32745,0,0
0.64,6.281639,-3.5072362,5.6003110000000005,1004.3432,0,0
0.68,8.6619625,-3.721731,4.0000796,1004.3559,0,0
0.72,8.389495,-6.762794,5.2783675,1004.3637,0,0
0.76,11.1044035,-6.281371,0.9085102,1004.3741,0,0
0.8,12.973285,-7.511142299999999,5.5955687,1004.35913,0,0
0.84,12.41403,-8.507352000000001,2.4613914,1004.3467,0,0
0.88,12.423569,-7.592172,2.1063092,1004.3542,0,0
0.92,11.821294,-6.8628883,1.0647382,1004.3723,0,0
0.96,11.094746,-6.381466400000001,-0.16147436,1004.37787,0,0
1.0,10.712339,-5.7284474,-1.0657475,1004.3677,0,0
1.04,9.775478,-5.4615197,-0.6822626,1004.38544,0,0
1.08,9.416971,-5.208892,0.29775724,1004.36536,0,0
1.12,8.661742,-5.723679,0.32616177,1004.3729,0,0
1.16,8.054689,-6.3671637,0.2740817,1004.3706,0,0
1.2,7.638824499999999,-7.1298127,0.77119225,1004.3807,0,0
1.24,7.457172999999999,-7.6970325,0.87061304,1004.3739,0,0
1.28,6.725839,-7.749464,1.0931277,1004.3688,0,0
1.32,6.7019234,-7.1584105,0.58654505,1004.3717,0,0
1.36,6.721023,-6.843817,-0.09521103,1004.40216,0,0
1.4,6.690764,-6.9438767000000015,-0.45517048,1004.40497,0,0
1.44,6.719365,-7.1917353,-0.6350849000000001,1004.3872,0,0
1.48,6.4802876,-7.439594299999999,-0.6208897,1004.37,0,0
1.52,6.6379495,-7.592122,-0.67297477,1004.3604,0,0
1.56,6.465789,-7.196496000000002,-0.97598463,1004.4212,0,0
1.6,6.3796697,-7.1249957,-1.2269157,1004.3575,0,0
1.64,6.6711607000000015,-6.886666,-1.3168765,1004.40137,0,0
1.68,6.6615186,-6.9152627,-1.023351,1004.4116,0,0
1.72,6.7570320000000015,-6.9200277,-0.9097327,1004.39136,0,0
1.76,6.7330812999999985,-6.981992,-0.7819086,1004.3866,0,0
1.8,7.0532203,-6.7388949999999985,-0.554667,1004.3993,0,0
1.84,7.1009354999999985,-6.529164,-0.68250346,1004.3919,0,0
1.88,7.354183,-6.3432665,-0.64463574,1004.3816,0,0
1.92,7.908567999999999,-6.0858707,-1.1322861000000002,1004.40466,0,0
1.96,7.478302999999999,-6.881883,-0.49314898,1004.3771,0,0
2.0,7.411298299999999,-7.0916095,0.34009823,1004.395,0,0
2.04,7.5546103,-6.8151474,0.10337044,1004.39246,0,0
2.08,7.736160799999999,-6.03343,-0.422156,1004.3924,0,0
2.12,7.6691656,-6.000062000000002,-0.50264794,1004.3753,0,0
2.16,7.549593400000001,-6.2193217,0.08441111400000001,1004.36554,0,0
2.2,7.645107,-6.276519,-0.090769395,1004.3856,0,0
2.24,7.458612400000002,-6.6340084,-0.22807465,1004.4036,0,0
2.28,7.0857053,-6.7674699999999985,-0.460068,1004.4011,0,0
2.32,6.985247,-6.4719415,-0.7109991,1004.3886,0,0
2.36,7.0855503,-6.529138,-0.75361526,1004.37604,0,0
2.4,7.0341864,-6.7436630000000015,-0.87186426,1004.3841,0,0
2.44,6.833402,-6.986757000000001,-0.6209438,1004.3767,0,0
2.48,6.876392,-6.834225999999999,-0.69196254,1004.392,0,0
2.52,6.90982,-6.7674937,-0.6162148000000001,1004.387,0,0
2.56,6.8858905,-6.772259700000001,-0.5972799,1004.3495,0,0
2.6,6.9479995,-6.7531924,-0.36056232,1004.37964,0,0
2.64,6.9814296,-6.657860799999999,-0.2706113,1004.3799,0,0
2.68,7.1391325,-6.79609,-0.23747323,1004.37476,0,0
2.72,6.957472,-6.757957000000001,-0.21853818,1004.3827,0,0
2.76,6.900081599999999,-6.829454400000001,-0.038633812,1004.3829,0,0
2.8,7.119922,-6.8199205,-0.22327833,1004.3904,0,0
2.84,7.334985,-6.7531880000000015,-0.37478194,1004.36273,0,0
2.88,7.258478,-6.729355,-0.30850306,1004.373,0,0
2.92,7.2823462,-6.653089,-0.2895682,1004.37573,0,0
2.96,7.210619,-6.7007537,-0.21855493,1004.3707,0,0
3.0,7.181912,-6.724586,-0.10493183,1004.38855,0,0
3.04,7.172322,-6.8532825,-0.01971532,1004.3682,0,0
3.08,7.1388345,-6.8151493,-0.0007803328299999999,1004.35364,0,0
3.12,7.0718865000000015,-6.7770157000000015,-0.14281523,1004.37866,0,0
3.16,7.0097190000000005,-6.8532804999999986,-0.17122446,1004.37103,0,0
3.2,6.9332119999999975,-6.867578999999999,-0.12861760000000005,1004.38654,0,0
3.24,6.861484,-6.934310000000001,-0.20437089,1004.3768,0,0
3.28,6.856675599999999,-7.005807400000001,-0.18543588,1004.392,0,0
3.32,6.842308,-7.043939,-0.27539212,1004.3718,0,0
3.36,6.9617705,-6.9772067,-0.1475662,1004.37714,0,0
3.4,6.932845,-6.9915004000000005,-0.14758882,1004.3997,0,0
3.44,6.861106,-7.0343985999999985,-0.11445181,1004.3824,0,0
3.48,6.918424000000001,-6.915233,-0.09078339,1004.3723,0,0
3.52,7.061782000000001,-6.810368,-0.038708296,1004.36755,0,0
3.56,7.1429987000000015,-6.7960677,-0.024508689,1004.3671,0,0
3.6,7.076042,-6.910464299999999,0.05597259,1004.4153,0,0
3.64,7.095122,-6.943828999999999,0.07490662,1004.4229,0,0
3.68,7.071186,-6.8437304,0.16485691,1004.3652,0,0
3.72,7.0376906,-6.8770957,0.19325998,1004.3803,0,0
3.76,6.985073599999999,-7.0153246,0.16011555,1004.3781,0,0
3.8,6.994590799999999,-7.0343899999999975,0.003876388,1004.37823,0,0
3.84,6.9467564,-7.0391555,-0.15709677,1004.37823,0,0
3.88,6.93238,-7.034388000000001,-0.27546020000000004,1004.3608,0,0
3.92,6.9179993,-7.0629864,-0.28966725,1004.3732,0,0
3.96,6.827146000000001,-7.091584700000001,-0.29913947,1004.38617,0,0
4.0,6.8462253,-7.010552400000001,-0.27073666,1004.3885,0,0
4.04,6.7505927,-7.1201820000000025,-0.01034775,1004.37616,0,0
4.08,6.755333,-7.0629826,0.13168077,1004.3838,0,0
4.12,6.874789,-6.9771833,0.103270754,1004.37354,0,0
4.16,7.0420427,-6.9628830000000015,0.11747037,1004.3863,0,0
4.2,7.065905,-6.919983,-0.005627539,1004.38354,0,0
4.24,7.0228452999999975,-6.896149,0.027509500000000003,1004.35345,0,0
4.28,7.1184062999999975,-6.805584,-0.09558818,1004.37866,0,0
4.32,7.0657872999999976,-6.9152136,-0.11452961,1004.38434,0,0
4.36,6.9414725000000015,-6.910446,-0.07665799599999999,1004.36896,0,0
4.4,6.8891095999999985,-7.029615400000001,-0.04823189,1004.38403,0,0
4.44,6.798266,-6.9724164,0.0038440488,1004.35144,0,0
4.48,6.7408776,-7.039147,0.013310041000000002,1004.35895,0,0
4.52,6.759967999999999,-6.948581699999999,-0.0340367,1004.4122,0,0
4.56,6.893777,-6.910448599999999,-0.09558633,1004.36896,0,0
4.6,6.9033046,-6.905681,-0.095589146,1004.36646,0,0
4.64,6.994092,-6.9056807,-0.12873267,1004.3693,0,0
4.68,6.917588,-7.0010114,-0.062453497,1004.3595,0,0
4.72,6.9796977,-6.939045,-0.00090873614,1004.38214,0,0
4.76,7.0322447,-6.8580130000000015,-0.024583582000000003,1004.3647,0,0
4.8,7.0417767000000016,-6.8723116,-0.010382887,1004.35425,0,0
4.84,7.0369699999999975,-6.9724092,-0.048260603,1004.36444,0,0
4.88,6.950904,-7.015307000000001,-0.010388069,1004.37714,0,0
4.92,6.9699925999999985,-6.834177499999999,-0.05300052,1004.37463,0,0
4.96,6.931727,-6.905675,0.0795603,1004.39215,0,0
5.0,6.8982406,-6.9676399999999985,0.06535458599999999,1004.3847,0,0
5.04,6.946007700000001,-6.9533386,0.036945306,1004.3824,0,0
5.08,6.988997,-6.900906,0.060614668,1004.3647,0,0
5.12,7.0080886,-6.8961387,0.03220574,1004.3547,0,0
5.16,7.0797567,-6.929504400000001,0.03220306,1004.3572,0,0
5.2,7.0510487999999985,-6.872304400000001,-0.005674865,1004.3597,0,0
5.24,7.055799,-6.862771,0.008525712,1004.3997,0,0
5.28,7.012756,-6.8627699999999985,0.15055549,1004.3727,0,0
5.32,6.91713,-6.9676339999999986,0.06533356,1004.3674,0,0
5.36,6.9362183,-7.0343657,0.14108118,1004.3671,0,0
5.4,6.9128895,-6.996247,0.11746137,1004.3899,0,0
5.44,6.917665,-6.9295149999999985,0.07011687,1004.3696,0,0
5.48,6.922439,-6.8913827,-0.015102863,1004.3999,0,0
5.52,6.8077183,-7.0772777,0.07958469,1004.3572,0,0
5.56,6.855511,-6.9152145,-0.076651156,1004.3749,0,0
5.6,6.8841863,-7.0057782999999985,0.018036557,1004.39746,0,0
5.64,6.8698406,-7.0010122999999975,0.046442453,1004.3696,0,0
5.68,6.869836,-7.0105453,0.0038323887,1004.3597,0,0
5.72,6.931968,-6.991478999999999,0.098519996,1004.3799,0,0
5.76,6.9367423,-7.0105453,0.1032539,1004.37213,0,0
5.8,6.8984995,-7.0439105,0.117456675,1004.3547,0,0
5.84,6.917614,-6.9962453999999985,0.08431543400000001,1004.3777,0,0
5.88,6.9223880000000015,-6.9485793000000005,0.074846126,1004.37213,0,0
5.92,7.00842,-7.0105443,0.008563999000000001,1004.3902,0,0
5.96,7.0131945999999985,-6.939046,-0.100327745,1004.36237,0,0
6.0,7.0848869999999975,-6.886614,-0.15240663,1004.3572,0,0
6.04,-3.0625777000000003,4.357575,6.334171,1004.27466,0,0
6.08,-2.6802137000000004,4.7150674000000015,8.379432000000001,1004.2947,0,0
6.12,-2.0540798,3.8618543,8.796058,1004.36505,0,0
6.16,-1.3323508999999998,3.3375335,5.8323183,1004.2325,0,0
6.2,-2.7185142000000004,3.1707044,8.942821,1004.2077,0,0
6.24,-2.078042,2.4557219,9.241086,1004.21796,0,0
6.28,-1.7721577000000002,2.899012,10.003324,1004.2482,0,0
6.32,-1.1651413000000002,2.365158,10.538309,1004.2635,0,0
6.36,-1.4184939,2.350859,8.526185,1004.2659,0,0
6.4,-0.52469075,0.60153306,5.837041,1004.2885,0,0
6.44,0.16361095,0.23450789,5.0037866,1004.3114,0,0
6.48,3.036254,2.284128,8.957013,1004.3419,0,0
6.52,2.3575006000000003,-1.1668587,7.2242190000000015,1004.36224,0,0
6.56,3.112689,-1.0667604,5.955396,1004.32965,0,0
6.6,3.8392003,-0.72833455,4.251009,1004.31995,0,0
6.64,5.4547534,-1.8913736,4.5066648,1004.32745,0,0
6.68,6.281639,-3.5072362,5.6003110000000005,1004.3432,0,0
6.72,8.6619625,-3.721731,4.0000796,1004.3559,0,0
6.76,8.389495,-6.762794,5.2783675,1004.3637,0,0
6.8,11.1044035,-6.281371,0.9085102,1004.3741,0,0
6.84,12.973285,-7.511142299999999,5.5955687,1004.35913,0,0
6.88,12.41403,-8.507352000000001,2.4613914,1004.3467,0,0
6.92,12.423569,-7.592172,2.1063092,1004.3542,0,0
6.96,11.821294,-6.8628883,1.0647382,1004.3723,0,0
7.0,11.094746,-6.381466400000001,-0.16147436,1004.37787,0,0
7.04,10.712339,-5.7284474,-1.0657475,1004.3677,0,0
7.08,9.775478,-5.4615197,-0.6822626,1004.38544,0,0
7.12,9.416971,-5.208892,0.29775724,1004.36536,0,0
7.16,8.661742,-5.723679,0.32616177,1004.3729,0,0
7.2,8.054689,-6.3671637,0.2740817,1004.3706,0,0
7.24,7.638824499999999,-7.1298127,0.77119225,1004.3807,0,0
7.28,7.457172999999999,-7.6970325,0.87061304,1004.3739,0,0
7.32,6.725839,-7.749464,1.0931277,1004.3688,0,0
7.36,6.7019234,-7.1584105,0.58654505,1004.3717,0,0
7.4,6.721023,-6.843817,-0.09521103,1004.40216,0,0
7.44,6.690764,-6.9438767000000015,-0.45517048,1004.40497,0,0
7.48,6.719365,-7.1917353,-0.6350849000000001,1004.3872,0,0
7.52,6.4802876,-7.439594299999999,-0.6208897,1004.37,0,0
7.56,6.6379495,-7.592122,-0.67297477,1004.3604,0,0
7.6,6.465789,-7.196496000000002,-0.97598463,1004.4212,0,0
7.64,6.3796697,-7.1249957,-1.2269157,1004.3575,0,0
7.68,6.6711607000000015,-6.886666,-1.3168765,1004.40137,0,0
7.72,6.6615186,-6.9152627,-1.023351,1004.4116,0,0
7.76,6.7570320000000015,-6.9200277,-0.9097327,1004.39136,0,0
7.8,6.7330812999999985,-6.981992,-0.7819086,1004.3866,0,0
7.84,7.0532203,-6.7388949999999985,-0.554667,1004.3993,0,0
7.88,7.1009354999999985,-6.529164,-0.68250346,1004.3919,0,0
7.92,7.354183,-6.3432665,-0.64463574,1004.3816,0,0
7.96,7.908567999999999,-6.0858707,-1.1322861000000002,1004.40466,0,0
8.0,7.478302999999999,-6.881883,-0.49314898,1004.3771,0,0
8.04,7.411298299999999,-7.0916095,0.34009823,1004.395,0,0
8.08,7.5546103,-6.8151474,0.10337044,1004.39246,0,0
8.12,7.736160799999999,-6.03343,-0.422156,1004.3924,0,0
8.16,7.6691656,-6.000062000000002,-0.50264794,1004.3753,0,0
8.2,7.549593400000001,-6.2193217,0.08441111400000001,1004.36554,0,0
8.24,7.645107,-6.276519,-0.090769395,1004.3856,0,0
8.28,7.458612400000002,-6.6340084,-0.22807465,1004.4036,0,0
8.32,7.0857053,-6.7674699999999985,-0.460068,1004.4011,0,0
8.36,6.985247,-6.4719415,-0.7109991,1004.3886,0,0
8.4,7.0855503,-6.529138,-0.75361526,1004.37604,0,0
8.44,7.0341864,-6.7436630000000015,-0.87186426,1004.3841,0,0
8.48,6.833402,-6.986757000000001,-0.6209438,1004.3767,0,0
8.52,6.876392,-6.834225999999999,-0.69196254,1004.392,0,0
8.56,6.90982,-6.7674937,-0.6162148000000001,1004.387,0,0
8.6,6.8858905,-6.772259700000001,-0.5972799,1004.3495,0,0
8.64,6.9479995,-6.7531924,-0.36056232,1004.37964,0,0
8.68,6.9814296,-6.657860799999999,-0.2706113,1004.3799,0,0
8.72,7.1391325,-6.79609,-0.23747323,1004.37476,0,0
8.76,6.957472,-6.757957000000001,-0.21853818,1004.3827,0,0
8.8,6.900081599999999,-6.829454400000001,-0.038633812,1004.3829,0,0
8.84,7.119922,-6.8199205,-0.22327833,1004.3904,0,0
8.88,7.334985,-6.7531880000000015,-0.37478194,1004.36273,0,0
8.92,7.258478,-6.729355,-0.30850306,1004.373,0,0
8.96,7.2823462,-6.653089,-0.2895682,1004.37573,0,0
9.0,7.210619,-6.7007537,-0.21855493,1004.3707,0,0
9.04,7.181912,-6.724586,-0.10493183,1004.38855,0,0
9.08,7.172322,-6.8532825,-0.01971532,1004.3682,0,0
9.12,7.1388345,-6.8151493,-0.0007803328299999999,1004.35364,0,0
9.16,7.0718865000000015,-6.7770157000000015,-0.14281523,1004.37866,0,0
9.2,7.0097190000000005,-6.8532804999999986,-0.17122446,1004.37103,0,0
9.24,6.9332119999999975,-6.867578999999999,-0.12861760000000005,1004.38654,0,0
9.28,6.861484,-6.934310000000001,-0.20437089,1004.3768,0,0
9.32,6.856675599999999,-7.005807400000001,-0.18543588,1004.392,0,0
9.36,6.842308,-7.043939,-0.27539212,1004.3718,0,0
9.4,6.9617705,-6.9772067,-0.1475662,1004.37714,0,0
9.44,6.932845,-6.9915004000000005,-0.14758882,1004.3997,0,0
9.48,6.861106,-7.0343985999999985,-0.11445181,1004.3824,0,0
9.52,6.918424000000001,-6.915233,-0.09078339,1004.3723,0,0
9.56,7.061782000000001,-6.810368,-0.038708296,1004.36755,0,0
9.6,7.1429987000000015,-6.7960677,-0.024508689,1004.3671,0,0
9.64,7.076042,-6.910464299999999,0.05597259,1004.4153,0,0
9.68,7.095122,-6.943828999999999,0.07490662,1004.4229,0,0
9.72,7.071186,-6.8437304,0.16485691,1004.3652,0,0
9.76,7.0376906,-6.8770957,0.19325998,1004.3803,0,0
9.8,6.985073599999999,-7.0153246,0.16011555,1004.3781,0,0
9.84,6.994590799999999,-7.0343899999999975,0.003876388,1004.37823,0,0
9.88,6.9467564,-7.0391555,-0.15709677,1004.37823,0,0
9.92,6.93238,-7.034388000000001,-0.27546020000000004,1004.3608,0,0
9.96,6.9179993,-7.0629864,-0.28966725,1004.3732,0,0
10.0,6.827146000000001,-7.091584700000001,-0.29913947,1004.38617,0,0
10.04,6.8462253,-7.010552400000001,-0.27073666,1004.3885,0,0
10.08,6.7505927,-7.1201820000000025,-0.01034775,1004.37616,0,0
10.12,6.755333,-7.0629826,0.13168077,1004.3838,0,0
10.16,6.874789,-6.9771833,0.103270754,1004.37354,0,0
10.2,7.0420427,-6.9628830000000015,0.11747037,1004.3863,0,0
10.24,7.065905,-6.919983,-0.005627539,1004.38354,0,0
10.28,7.0228452999999975,-6.896149,0.027509500000000003,1004.35345,0,0
10.32,7.1184062999999975,-6.805584,-0.09558818,1004.37866,0,0
10.36,7.0657872999999976,-6.9152136,-0.11452961,1004.38434,0,0
10.4,6.9414725000000015,-6.910446,-0.07665799599999999,1004.36896,0,0
10.44,6.8891095999999985,-7.029615400000001,-0.04823189,1004.38403,0,0
10.48,6.798266,-6.9724164,0.0038440488,1004.35144,0,0
10.52,6.7408776,-7.039147,0.013310041000000002,1004.35895,0,0
10.56,6.759967999999999,-6.948581699999999,-0.0340367,1004.4122,0,0
10.6,6.893777,-6.910448599999999,-0.09558633,1004.36896,0,0
10.64,6.9033046,-6.905681,-0.095589146,1004.36646,0,0
10.68,6.994092,-6.9056807,-0.12873267,1004.3693,0,0
10.72,6.917588,-7.0010114,-0.062453497,1004.3595,0,0
10.76,6.9796977,-6.939045,-0.00090873614,1004.38214,0,0
10.8,7.0322447,-6.8580130000000015,-0.024583582000000003,1004.3647,0,0
10.84,7.0417767000000016,-6.8723116,-0.010382887,1004.35425,0,0
10.88,7.0369699999999975,-6.9724092,-0.048260603,1004.36444,0,0
10.92,6.950904,-7.015307000000001,-0.010388069,1004.37714,0,0
10.96,6.9699925999999985,-6.834177499999999,-0.05300052,1004.37463,0,0
11.0,6.931727,-6.905675,0.0795603,1004.39215,0,0
11.04,6.8982406,-6.9676399999999985,0.06535458599999999,1004.3847,0,0
11.08,6.946007700000001,-6.9533386,0.036945306,1004.3824,0,0
11.12,6.988997,-6.900906,0.060614668,1004.3647,0,0
11.16,7.0080886,-6.8961387,0.03220574,1004.3547,0,0
11.2,7.0797567,-6.929504400000001,0.03220306,1004.3572,0,0
11.24,7.0510487999999985,-6.872304400000001,-0.005674865,1004.3597,0,0
11.28,7.055799,-6.862771,0.008525712,1004.3997,0,0
11.32,7.012756,-6.8627699999999985,0.15055549,1004.3727,0,0
11.36,6.91713,-6.9676339999999986,0.06533356,1004.3674,0,0
11.4,6.9362183,-7.0343657,0.14108118,1004.3671,0,0
11.44,6.9128895,-6.996247,0.11746137,1004.3899,0,0
11.48,6.917665,-6.9295149999999985,0.07011687,1004.3696,0,0
11.52,6.922439,-6.8913827,-0.015102863,1004.3999,0,0
11.56,6.8077183,-7.0772777,0.07958469,1004.3572,0,0
11.6,6.855511,-6.9152145,-0.076651156,1004.3749,0,0
11.64,6.8841863,-7.0057782999999985,0.018036557,1004.39746,0,0
11.68,6.8698406,-7.0010122999999975,0.046442453,1004.3696,0,0
11.72,6.869836,-7.0105453,0.0038323887,1004.3597,0,0
11.76,6.931968,-6.991478999999999,0.098519996,1004.3799,0,0
11.8,6.9367423,-7.0105453,0.1032539,1004.37213,0,0
11.84,6.8984995,-7.0439105,0.117456675,1004.3547,0,0
11.88,6.917614,-6.9962453999999985,0.08431543400000001,1004.3777,0,0
11.92,6.9223880000000015,-6.9485793000000005,0.074846126,1004.37213,0,0
11.96,7.00842,-7.0105443,0.008563999000000001,1004.3902,0,0
12.0,7.0131945999999985,-6.939046,-0.100327745,1004.36237,0,0
12.04,7.0848869999999975,-6.886614,-0.15240663,1004.3572,0,0
12.08,6.965387,-7.024844,0.112719595,1004.3618,0,0
12.12,6.8936850000000005,-7.0153103,0.22161044,1004.39465,0,0
12.16,6.9175787,-6.9390454,0.16479707,1004.39215,0,0
12.2,6.8649960000000005,-6.972411599999999,0.09378054,1004.36694,0,0
12.24,6.7741747000000005,-7.0582094,0.19793703,1004.39716,0,0
12.28,6.8745455999999985,-7.0439095,0.14112370000000002,1004.3597,0,0
12.32,6.927119,-6.924745,-0.08612816,1004.3647,0,0
12.36,6.879315400000001,-6.981944,-0.034050193,1004.3647,0,0
12.4,6.922329,-6.9581113,0.041699886,1004.3847,0,0
12.44,6.936662700000001,-6.9628777999999985,0.09377783,1004.37476,0,0
12.48,6.8171635,-7.0677414,0.15532468,1004.3517,0,0
12.52,6.817158,-7.105874000000001,0.21213703,1004.3618,0,0
12.56,6.8267130000000025,-7.0200763,0.13638614,1004.39215,0,0
12.6,6.907964,-6.977175999999999,0.112713605,1004.39215,0,0
12.64,6.9031796000000005,-6.991476,0.13165079,1004.37964,0,0
12.68,6.903174400000001,-7.0153089999999985,0.12691593,1004.382,0,0
12.72,6.864931,-6.9533429999999985,-0.019851085,1004.3743,0,0
12.76,6.8505864,-7.110639599999999,0.06536778,1004.35693,0,0
12.8,6.9318385,-7.001009,0.098508164,1004.37714,0,0
12.84,6.9796320000000005,-6.9438105,-0.14294694,1004.37933,0,0
12.88,6.9648023,-7.0486619999999975,-0.038834874,1004.3593,0,0
12.92,6.921767,-6.9866967,-0.20454064,1004.37683,0,0
12.96,6.9074100000000005,-7.043895,0.0179748,1004.372,0,0
13.0,7.002987400000001,-6.8722982,-0.11932464,1004.38226,0,0
13.04,6.912153,-6.977162400000001,0.16473794,1004.35913,0,0
13.08,6.840438400000001,-7.0486603,0.38251898,1004.35895,0,0
13.12,7.045951,-6.762666,0.26415715,1004.3419,0,0
13.16,6.8547406,-7.0105267000000016,0.41092202,1004.38965,0,0
13.2,6.7591259999999975,-7.1058574000000005,0.25468495,1004.36896,0,0
13.24,6.8021264000000015,-6.9771600000000005,0.13632324,1004.36896,0,0
13.28,6.6778315999999975,-7.0724907,0.14579022,1004.3647,0,0
13.32,6.7399516,-7.1582880000000015,0.08897577,1004.4047,0,0
13.36,6.8976684000000015,-7.048657,0.046364527,1004.37897,0,0
13.4,6.9789059999999985,-7.0486565,0.008487605,1004.36694,0,0
13.44,6.89285,-7.0915550000000005,0.017954597,1004.3945,0,0
13.48,7.036225999999999,-6.972390700000001,0.01795289,1004.3916,0,0
13.52,7.279978999999999,-6.5195675,-0.09093991,1004.3638,0,0
13.56,6.9883914,-6.4862013,-0.25191146,1004.3838,0,0
13.6,6.629889,-7.7874703,0.24993384,1004.3869,0,0
13.64,7.0457125,-7.0534205000000005,0.37302667,1004.3762,0,0
13.68,7.3850617,-6.147774,0.08896078,1004.3638,0,0
13.72,7.681392,-6.2335715,0.8369950999999999,1004.37103,0,0
13.76,7.2894297,-6.643495599999999,0.60027325,1004.3895,0,0
13.8,6.883126700000001,-6.786492,0.63341224,1004.35864,0,0
13.84,6.9739255999999985,-6.53863,0.67602026,1004.37354,0,0
13.88,7.1989284,-6.805566000000002,0.8938351000000001,1004.3762,0,0
13.92,7.1176676999999975,-6.686402,0.6097705,1004.3584,0,0
13.96,7.318415600000002,-6.595837,0.92224085,1004.376,0,0
14.0,7.265834,-6.791266,0.8133491999999999,1004.406,0,0
14.04,7.2323723,-6.6673350000000005,1.0832098999999995,1004.3784,0,0
14.08,7.5669546,-6.424240599999999,1.0879438999999995,1004.37823,0,0
14.12,7.375758599999997,-6.429007,1.2394445,1004.3384,0,0
14.16,7.3900948,-6.5338717000000015,1.7696975,1004.3908,0,0
14.2,7.1654399999999985,-6.557704400000001,1.4335544,1004.38617,0,0
14.24,7.093739,-6.5195713,1.8075722,1004.3808,0,0
14.28,7.184551700000001,-6.5910697,1.3909442,1004.36096,0,0
14.32,7.098511,-6.653034700000001,1.5708512,1004.3735,0,0
14.36,6.9837922999999975,-6.653034700000001,1.7176174,1004.386,0,0
14.4,6.9742289999999985,-6.6578016,1.4951,1004.37823,0,0
14.44,7.0363630000000015,-6.5624704,1.4240836,1004.3756,0,0
14.48,7.0889373,-6.467139,1.5897874,1004.3608,0,0
14.52,7.0124559999999985,-6.5815363,1.5992558,1004.383,0,0
14.56,6.9455350000000005,-6.5624699999999985,1.4856298,1004.3754,0,0
14.6,6.9598710000000015,-6.5815363,1.6844745,1004.3729,0,0
14.64,7.0028853,-6.5386367,1.6276612,1004.3704,0,0
14.68,7.0459,-6.5529366,1.7412866000000002,1004.3955,0,0
14.72,7.069795,-6.5481696,1.6323951,1004.3652,0,0
14.76,7.251424,-6.24311,1.717614,1004.3603,0,0
14.8,7.332677,-6.319375,1.8833178,1004.3577,0,0
14.84,7.308774499999997,-6.3622737,1.6371285,1004.3652,0,0
14.88,7.309373399999999,-6.3050904,1.6513863999999998,1004.3852,0,0
14.92,7.1755576,-6.3956547,1.6277162,1004.3703,1,1
14.96,7.0321820000000015,-6.6101503,1.8028909,1004.35474,1,1
15.0,7.0847807000000005,-6.467154,1.6087822,1004.3449,1,1
15.04,7.0848020000000025,-6.510053599999999,1.6371905,1004.37506,1,1
15.08,7.108720299999999,-6.381357,1.632458,1004.3671,1,1
15.12,7.175656299999999,-6.500522,1.6040533,1004.3696,1,1
15.16,7.352531,-6.362292299999999,1.5803832,1004.3674,1,1
15.2,7.299972500000001,-6.381359,1.4620248,1004.3849,1,1
15.24,7.357349,-6.462391,1.3815416,1004.3849,1,1
15.28,7.3286915,-6.4385586,1.0974792,1004.3643,1,1
15.32,7.1088395,-6.567256,0.64297825,1004.37714,1,1
15.36,6.7886130000000025,-6.848483,0.22161813,1004.3593,1,1
15.4,6.7790775,-6.872316400000001,0.35418367,1004.3696,1,1
15.44,7.591664999999999,-6.805585400000001,0.27370065,1004.3671,1,1
15.48,8.337335000000001,-6.6578225999999985,-0.05770583,1004.38184,1,1
15.52,9.159476,-6.300331,0.3068447,1004.37225,1,1
15.56,11.917448,-3.9265864,0.43941027,1004.36426,1,1
15.6,13.05506,-3.7454576,1.3768243,1004.39215,1,1
15.64,14.364743,-3.9933183,0.62878984,1004.3695,1,1
15.68,14.627657,-5.4661856,1.6182826,1004.37897,1,1
15.72,12.103939,-6.7769895,2.7498071,1004.402,1,1
15.76,9.064003,-7.3632765,2.692996,1004.3795,1,1
15.8,6.4733696,-6.996252,1.4809902,1004.4097,1,1
15.84,4.5184493,-7.043918,0.3873446,1004.3815,1,1
15.88,3.3946419000000003,-7.96385,0.16477682,1004.36395,1,1
15.92,2.3383026,-9.55588,-0.15716295,1004.389,1,1
15.96,-1.2274336,-13.655118,-1.804736,1004.36896,1,1
16.0,0.9378149,-15.742870000000002,-3.357621,1004.36896,1,1
16.04,3.9204104,-15.866801,-0.9241371,1004.36896,1,1
16.08,6.8791065,-15.1947155,0.4062303,1004.36395,1,1
16.12,10.220186,-15.352013,-1.1750612,1004.36646,1,1
16.16,13.709441,-13.254727,-1.7384555,1004.35895,1,1
16.2,13.322273999999998,-12.720873,0.3541512,1004.3915,1,1
16.24,10.282316,-11.5483,2.5793211,1004.36896,1,1
16.28,10.411369,-10.628354,4.5725050000000005,1004.3915,1,1
16.32,11.30041,-8.001982,4.4399419999999985,1004.39874,1,1
16.36,12.705669,-2.5681067000000004,3.1900587,1004.35364,1,1
16.4,11.004058,-0.6710169,2.2573807,1004.3632,1,1
16.44,9.641811,-1.2001046,1.9638474,1004.3255,1,1
16.48,10.55475,-1.3288016000000002,1.8644246,1004.3686,1,1
16.52,14.488527,-4.5033283,2.6834764,1004.3913,1,1
16.56,17.103077,-7.572991,3.4551842000000006,1004.41077,1,1
16.6,16.472141,-11.610266,2.7781641,1004.3686,1,1
16.64,16.280945000000006,-14.799091,1.7081883999999998,1004.4208,1,1
16.68,16.959673000000002,-18.116615,0.6003375,1004.4003,1,1
16.72,16.945332999999998,-20.819252,1.3767797,1004.4558,1,1
16.76,14.952151999999998,-19.92314,2.36627,1004.4456,1,1
16.8,10.263163,-18.464573,1.9543766,1004.44543,1,1
16.84,7.395278,-14.403467,1.8123442,1004.42535,1,1
16.88,5.5555587,-11.572144,0.7282118000000001,1004.3879,1,1
16.92,3.3903272000000007,-9.360462,-0.015087992,1004.3829,1,1
16.96,0.9191852,-9.5606575,-0.12871219,1004.35535,1,1
17.0,-5.0173135,-12.1203,1.6703631,1004.36536,1,1
17.04,-6.12621,-13.359604999999998,1.3436909,1004.3354,1,1
17.08,-1.0787207,-14.932569,-0.2518019,1004.3098,1,1
17.12,4.5327873,-17.954567,0.534111,1004.3378,1,1
17.16,12.2043915,-19.761091,0.7992393,1004.3123,1,1
17.2,17.98319,-21.181526,-1.4164606000000002,1004.3249,1,1
17.24,19.264194,-19.699125,-3.2439392,1004.3177,1,1
17.28,18.322588,-16.5532,-0.19971555,1004.3702,1,1
17.32,15.9661665,-15.151834,3.3321521,1004.3745,1,1
17.36,15.077138,-13.326242,4.2979717000000015,1004.39484,1,1
17.4,14.240691,-10.099283,2.9486685,1004.4202,1,1
17.44,13.332547,-5.37086,1.7887411,1004.38464,1,1
17.48,14.532294,-3.1591778,1.4525998,1004.3645,1,1
17.52,16.683222,-0.18008013,1.2111466999999998,1004.3745,1,1
17.56,17.553164000000002,1.4834478000000002,3.0054877,1004.3645,1,1
17.6,15.798994,-5.246931,4.3027163,1004.38666,1,1
17.64,15.129839000000002,-9.851426,4.7666893,1004.3989,1,1
17.68,15.091618,-12.015444,4.013921,1004.4116,1,1
17.72,14.871765,-16.95836,4.1133447,1004.4166,1,1
17.76,14.881341,-20.004192,2.9155421,1004.42413,1,1
17.8,15.636566,-21.262562,2.631479,1004.45166,1,1
17.84,13.045933,-20.02326,3.090718,1004.47156,1,1
17.88,8.968777000000003,-17.949806,2.356887,1004.429,1,1
17.92,6.3590207,-14.656117000000002,1.8503073,1004.444,1,1
17.96,5.747223,-11.057367,1.1212105,1004.41644,1,1
18.0,5.646864,-8.488194,1.1306809,1004.41864,1,1
18.04,5.0876455,-7.9066734,1.5473102,1004.37354,1,1
18.08,2.8220356,-8.159302,1.6041246999999998,1004.384,1,1
18.12,0.57554543,-8.125937,1.9450034,1004.37067,1,1
18.16,0.03066434,-8.535861,1.1448905,1004.36865,1,1
18.2,0.22616659,-8.707446000000001,0.24531065,1004.3305,1,1
18.24,1.9899169,-10.442472,1.1306444,1004.328,1,1
18.28,4.962958,-14.73714,-0.19972289,1004.3355,1,1
18.32,9.876599,-17.330145,-3.5516813,1004.33344,1,1
18.36,13.996794,-17.406412,-5.308145,1004.3455,1,1
18.4,15.593251,-18.893578,-2.6237373,1004.36804,1,1
18.44,16.620910000000002,-20.299713,0.23584339,1004.36285,1,1
18.48,17.825423999999995,-19.117605,1.8266037,1004.3728,1,1
18.52,18.64755,-12.668455,0.36367288,1004.41284,1,1
18.56,20.616835,-4.770271,2.2384975,1004.39984,1,1
18.6,16.582682000000002,-1.6529423,0.089077905,1004.395,1,1
18.64,11.712067,-3.1401079,-1.9609191000000004,1004.3975,1,1
18.68,9.981781,-4.1839843,0.47256523,1004.4098,1,1
18.72,9.183557,-6.0763073,2.9960032,1004.4073,1,1
18.76,11.15284,-8.197426,4.586764,1004.4122,1,1
18.8,12.749296,-8.445286,3.98076,1004.41174,1,1
18.84,13.103004,-10.747534,2.4894228,1004.3993,1,1
18.88,14.5034895,-15.571289000000002,2.6835334,1004.43207,1,1
18.92,14.455695,-19.065174,4.586765,1004.44714,1,1
18.96,13.294204999999998,-17.697172,4.629375,1004.4695,1,1
19.0,12.916603,-18.617117,2.8160977000000003,1004.4116,1,1
19.04,10.952107,-18.512255,1.4194485,1004.43427,1,1
19.08,7.749641400000002,-16.267205999999998,0.51991194,1004.4089,1,1
19.12,4.4563594,-12.77332,0.4015521,1004.38654,1,1
19.16,3.2421887000000003,-10.418639,-0.74891746,1004.37885,1,1
19.2,2.377043,-8.726511,-1.0377163,1004.35864,1,1
19.24,1.368503,-8.02106,-0.66369843,1004.3739,1,1
19.28,-0.18015443,-6.929519,-0.9809037,1004.3078,1,1
19.32,-0.4573846,-5.995274,-1.6342517,1004.32806,1,1
19.36,1.2346647,-8.354719000000001,-1.8757064,1004.35315,1,1
19.4,3.2421815,-10.723699,-2.9977603,1004.33325,1,1
19.44,8.433047,-13.969725,-3.7410622,1004.32806,1,1
19.48,14.293085,-16.043175,-2.3822877,1004.36066,1,1
19.52,14.876220000000002,-15.261461,0.83237267,1004.33026,1,1
19.56,14.723266,-14.336748000000002,2.6835248,1004.403,1,1
19.6,14.1305685,-10.733231,1.6514243000000002,1004.3676,1,1
19.64,15.229922,-6.1144376,1.9733639,1004.38245,1,1
19.68,13.7434025,-5.108694,2.1769433,1004.3796,1,1
19.72,10.550491,-5.0038300000000016,1.9165508,1004.37994,1,1
19.76,8.963595,-5.227858,2.1674740000000003,1004.3724,1,1
19.8,7.500972999999999,-5.9428415,1.1448425,1004.36475,0,0
19.84,6.927396000000001,-6.2002354,0.21689916,1004.3844,0,0
19.88,7.2858800000000015,-6.8580203,0.16008617,1004.39496,0,0
19.92,7.50575,-7.525338599999999,0.14588284,1004.3919,0,0
19.96,7.9120326,-7.406174000000001,0.6619329,1004.3921,0,0
20.0,8.523846,-6.781755,-0.4033083,1004.3617,0,0
20.04,8.122341,-7.8160987,-1.9041147,1004.3414,0,0
20.08,7.0946817,-8.526314999999999,-2.713698,1004.36584,0,0
20.12,5.9188485,-8.292753,-2.325477,1004.35114,0,0
20.16,5.51385,-8.087823,-0.69198966,1004.35846,0,0
20.2,5.5808153,-7.654068,-0.313233,1004.35345,0,0
20.24,5.6669025,-7.349010000000002,-0.78193444,1004.36084,0,0
20.28,5.5044365,-7.477708,-0.5499441999999999,1004.3506,0,0
20.32,5.843854,-7.9400644,-0.03862386,1004.3606,0,0
20.36,6.092454,-7.730337599999999,0.21703863,1004.35315,0,0
20.4,6.388853,-7.487244599999999,0.35434103,1004.3531,0,0
20.44,6.417579,-7.4681797,0.098687515,1004.35046,0,0
20.48,6.508446,-7.315651,-0.11435604,1004.34784,0,0
20.52,6.675787,-7.153589200000001,-0.014929194,1004.3729,0,0
20.56,6.7570977,-7.339486,0.36856255,1004.373,0,0
20.6,7.1443095,-7.177425,0.65736556,1004.3879,0,0
20.64,7.402469,-7.1106940000000005,0.86094964,1004.38293,0,0
20.68,7.297364,-7.0010643,0.75679743,1004.38043,0,0
20.72,7.0345225000000005,-7.215560000000001,0.7141920999999999,1004.3852,0,0
20.76,6.699987400000001,-7.3680916,0.4916797000000001,1004.35736,0,0
20.8,6.7382735999999985,-7.244161999999997,0.47274646,1004.39276,0,0
20.84,6.8817214999999985,-7.215564,0.4822202,1004.3674,0,0
20.88,6.853089999999999,-7.239397999999999,0.49169335,1004.38965,0,0
20.92,6.7097435,-7.415762,0.5721826,1004.3748,0,0
20.96,6.7097979999999975,-7.4634285,0.30232644,1004.38214,0,0
21.0,6.7624235,-7.248934700000001,0.23604913,1004.377,0,0
21.04,6.5617223,-7.425299000000001,0.21711618,1004.3667,0,0
21.08,6.1602693,-7.5682974,0.29287127,1004.3718,0,0
21.12,5.9882436,-7.6969949999999985,0.36389172,1004.3442,0,0
21.16,6.0449642999999975,-7.6731467,0.34489578,1004.39435,0,0
21.2,6.441711,-7.520617,0.3591011,1004.3513,0,0
21.24,6.594686,-7.453886,0.31649340000000004,1004.36163,0,0
21.28,6.393957,-7.525385000000001,0.34490192,1004.36414,0,0
21.32,6.2697053,-7.496786,0.21234065,1004.3589,0,0
21.36,6.3940024000000015,-7.458654400000001,0.21234274,1004.3787,0,0
21.4,6.5660973,-7.325191,0.23601674,1004.3714,0,0
21.44,6.7716527,-7.287059299999999,0.50588,1004.38135,0,0
21.48,6.781234,-7.210795,0.42539713,1004.3709,0,0
21.52,6.7860365000000025,-7.17743,0.39699277,1004.3609,0,0
21.56,6.575748,-7.3013606,0.49641737,1004.3859,0,0
21.6,6.5279717,-7.353793,0.5153569,1004.35315,0,0
21.64,6.551893,-7.3013616,0.43487412,1004.37067,0,0
21.68,6.494557,-7.425292999999999,0.316516,1004.36804,0,0
21.72,6.4611215999999985,-7.511091,0.3354557,1004.36554,0,0
21.76,6.575859,-7.3347297,0.22656645,1004.36554,0,0
21.8,6.6093397,-7.258465299999999,-0.05276144,1004.355,0,0
21.84,6.3847117,-7.34903,-0.0054153167000000006,1004.37506,0,0
21.88,6.2126617,-7.539692999999999,0.13188452,1004.37256,0,0
21.92,6.2700405,-7.5301604000000015,0.11768325,1004.3547,0,0
21.96,6.480375,-7.3633320000000015,0.15082617,1004.3673,0,0
22.0,6.513856400000001,-7.287066999999999,0.037202556,1004.3625,0,0
22.04,6.5951357,-7.2823014000000015,-0.010139417,1004.36444,0,0
22.08,6.685973599999999,-7.1583710000000025,0.12716031,1004.3523,0,0
22.12,6.6286383,-7.248936,0.15556882,1004.33685,0,0
22.16,6.66212,-7.225103999999999,0.28339985,1004.36194,0,0
22.2,6.833436999999999,-7.1011553,0.24072102,1004.3622,0,0
22.24,6.852548,-7.0820884999999985,0.29279876,1004.3544,0,0
22.28,6.623111,-7.2632174,0.4537679,1004.35144,0,0
22.32,6.5992039999999985,-7.2965837,0.52004886,1004.3643,0,0
22.36,6.6422152999999975,-7.229851700000001,0.29279676,1004.34393,0,0
22.4,6.766482400000001,-7.2536836,0.112888634,1004.36646,0,0
22.44,6.7138968,-7.349015,0.16496639,1004.3385,0,0
22.48,6.642192,-7.3680806,0.14602809,1004.36096,0,0
22.52,6.646965,-7.334714999999999,-0.048083138,1004.36847,0,0
22.56,6.7999104999999975,-7.1488190000000005,-0.06228707400000001,1004.34564,0,0
22.6,6.780784599999999,-7.2107839999999985,0.20283893,1004.36597,0,0
22.64,6.427069,-7.301348,0.34013578,1004.36847,0,0
22.68,6.3505855,-7.3633137,0.35433838,1004.3431,0,0
22.72,6.3314580000000005,-7.4252787,0.46322894,1004.37585,0,0
22.76,6.3266706,-7.306114,0.23124239,1004.35034,0,0
22.8,6.364903,-7.4014454,0.14602256,1004.3832,0,0
22.84,6.565646000000001,-7.4538774,0.33066356,1004.35297,0,0
22.88,6.6325564,-7.31088,-0.024417449,1004.3731,0,0
22.92,6.752045599999999,-7.1964827000000025,-0.21852852,1004.3679,0,0
22.96,6.857192,-7.191716,0.056066036,1004.34753,0,0
23.0,6.9575605,-7.0630190000000015,0.19809747,1004.3602,0,0
23.04,6.838058,-7.110684,0.33066022,1004.37506,0,0
23.08,6.65164,-7.277513499999999,0.4584886,1004.38007,0,0
23.12,6.66597,-7.2441473,0.52476937,1004.39777,0,0
23.16,6.675524,-7.2155476,0.5626441999999999,1004.3824,0,0
23.2,6.5709740000000005,-7.339493300000001,0.51535547,1004.35724,0,0
23.24,6.6140084,-7.244162599999999,0.45854414,1004.36444,0,0
23.28,6.7383056,-7.239396000000001,0.23602907,1004.3541,0,0
23.32,6.5997059999999985,-7.372861,0.25023374,1004.3519,0,0
23.36,6.5041265,-7.3061289999999985,0.17448476,1004.37463,0,0
23.4,6.489804,-7.325196000000001,0.11767341,1004.362,0,0
23.44,6.418122,-7.415760499999997,0.23130052,1004.3642,0,0
23.48,6.5185103,-7.4443603,0.27864572,1004.3566,0,0
23.52,6.661925,-7.306130400000002,0.27864759999999994,1004.3838,0,0
23.56,6.7097380000000015,-7.3680964000000015,0.2786489,1004.3713,0,0
23.6,6.6428385,-7.239399400000001,0.3354635,1004.39124,0,0
23.64,6.6285149999999975,-7.263233,0.29758966,1004.3762,0,0
23.68,6.638091,-7.287066,0.354404,1004.3816,0,0
23.72,6.748042599999999,-7.1822023,0.39228076,1004.3964,0,0
23.76,6.681141,-7.2060356,0.34020373,1004.4088,0,0
23.8,6.475625,-7.358565299999999,0.5201125,1004.37604,0,0
23.84,6.413504,-7.410997999999997,0.49170762,1004.3886,0,0
23.88,6.5473550000000005,-7.3156675999999985,0.20291041,1004.3911,0,0
23.92,6.5999494000000025,-7.391933,0.18397431,1004.39343,0,0
23.96,6.666882000000001,-7.263236,0.2881326,1004.39105,0,0
24.0,6.757716,-7.263236,0.122430086,1004.40106,0,0
24.04,6.719492999999999,-7.2108045,0.037212215,1004.39594,0,0
24.08,6.729067999999999,-7.329969,0.2313242,1004.383,0,0
24.12,6.738644,-7.229872,0.34021705,1004.39764,0,0
24.16,6.805577799999999,-7.2251053,0.26446804,1004.4081,0,0
24.2,6.7434564,-7.239405599999999,0.24079752,1004.4181,0,0
24.24,6.561839599999999,-7.2775383,0.52959764,1004.38763,0,0
24.28,6.4232416,-7.1726747,0.7000377,1004.41315,0,0
24.32,6.3563410000000005,-7.272773,0.60535115,1004.39233,0,0
24.36,6.251200700000001,-7.377637400000001,0.6195558000000001,1004.4023,0,0
24.4,6.576244,-7.1822089999999985,0.6479636999999999,1004.39264,0,0
24.44,6.7100945,-7.105944,0.7237156,1004.4023,0,0
24.48,6.6288532999999985,-7.3776383,0.49646568,1004.37445,0,0
24.52,6.762705,-7.268008,0.31182542,1004.3994,0,0
24.56,6.6814646999999985,-7.344273599999997,0.33549896,1004.41956,0,0
24.6,6.6154164999999985,-7.344294500000001,0.1225303,1004.39935,0,0
24.64,6.567660000000001,-7.3156962,-0.06684218,1004.37683,0,0
24.68,6.6585135,-7.301398,-0.05736989,1004.39935,0,0
24.72,6.7493725000000016,-7.2632660000000016,0.26457357,1004.4092,0,0
24.76,6.6155789999999985,-7.3013997,0.6527985,1004.39655,0,0
24.8,6.453101,-7.4491634000000015,0.63386416,1004.36847,0,0
24.84,6.395787,-7.3443003,0.4586951,1004.39154,0,0
24.88,6.577457400000001,-7.215604300000001,0.50604266,1004.389,0,0
24.92,6.548819,-7.315703,0.61493766,1004.391,0,0
24.96,6.610997,-7.1488743,0.6007380999999999,1004.3958,0,0
25.0,6.6922894,-7.339537599999999,0.5202565,1004.393,0,0
25.04,6.5154824,-7.2823405,0.35929096,1004.40076,0,0
25.08,6.5776577000000005,-7.3061743,0.3592944,1004.3881,0,0
25.12,6.6637344,-7.2728095,0.45398623,1004.4031,0,0
25.16,6.692454,-7.2489777,0.32616100000000003,1004.3879,0,0
25.2,6.6016755000000025,-7.382442,0.39718056,1004.3901,0,0
25.24,6.487001,-7.368142999999999,0.36404347,1004.418,0,0
25.28,6.639995599999999,-7.239447,0.43506327,1004.41785,0,0
25.32,6.501419,-7.339545699999999,0.4161291,1004.395,0,0
25.36,6.4727807,-7.268049,0.31671032,1004.39984,0,0
25.4,6.51106,-7.320482000000001,0.5297622,1004.3902,0,0
25.44,6.534997,-7.439646700000001,0.6007818,1004.4052,0,0
25.48,6.5398172999999975,-7.3872156,0.61498874,1004.3921,0,0
25.52,6.73105,-7.248986,0.46822593,1004.39484,0,0
25.56,6.6115960000000005,-7.2728205,0.3782759,1004.3871,0,0
25.6,6.6678314,-7.282325699999999,0.32136038,1004.3918,0,0
25.64,6.8112216,-7.2251267000000015,0.44918892,1004.3821,0,0
25.68,6.7395190000000005,-7.310925,0.5202045,1004.3792,0,0
25.72,6.3858085,-7.482520599999999,0.54387605,1004.3893,0,0
25.76,6.232849,-7.563552,0.72851735,1004.3943,0,0
25.8,6.1468077,-7.3824224,0.7805953,1004.39136,0,0
25.84,6.1085644,-7.5349526,0.64803165,1004.3888,0,0
25.88,6.275853,-7.349056699999997,0.73325044,1004.3988,0,0
25.92,6.548297,-7.296624,0.8563446,1004.4086,0,0
25.96,6.844639999999999,-7.120261,0.7427183,1004.41113,0,0
26.0,6.7681575,-7.2489586,0.6906394,1004.41113,0,0
26.04,6.4718050000000025,-7.7017817,0.7711238,1004.4061,0,0
26.08,6.443121400000001,-7.59215,0.61962247,1004.4086,0,0
26.12,6.4765754,-7.563550500000002,0.26454166,1004.4034,0,0
26.16,6.4909089999999985,-7.415787700000001,0.14618102,1004.39557,0,0
26.2,6.519583,-7.5254183,0.4539169,1004.3881,0,0
26.24,6.4717803,-7.4110203,0.54860455,1004.3981,0,0
26.28,6.514792,-7.668414599999997,0.5107287,1004.3856,0,0
26.32,6.615164,-7.582617,0.330821,1004.39056,0,0
26.36,6.5769205,-7.6112160000000015,0.48705593,1004.4006,0,0
26.4,6.653393,-7.4348526,0.59121233,1004.3952,0,0
26.44,6.7394240000000005,-6.99633,0.15564667,1004.4153,0,0
26.48,6.5673460000000015,-7.258489999999999,0.23613106,1004.4153,0,0
26.52,6.3187914,-7.487284,0.23139621,1004.3876,0,0
26.56,6.0606766,-7.8257103,0.7569146,1004.39496,0,0
26.6,6.2432690000000015,-7.6017056,0.7427993,1004.41,0,0
26.64,6.8264460000000025,-7.01542,0.72386545,1004.40466,0,0
26.68,6.874267,-7.120284599999999,0.7001955,1004.40216,0,0
26.72,6.4441175,-7.487310400000001,0.5629006999999999,1004.39685,0,0
26.76,6.1621485,-7.849570299999999,0.33565295,1004.4247,0,0
26.8,5.99489,-7.8352704,-0.052565034,1004.3718,0,0
26.84,6.100077,-7.658908999999999,-0.18039115,1004.42676,0,0
26.88,6.1574693,-7.5111465,-0.3602953,1004.3993,0,0
26.92,6.4060440000000005,-7.5635796000000015,-0.4123715,1004.3891,0,0
26.96,6.683312,-7.3490853,-0.24666376,1004.3891,0,0
27.0,6.726363,-7.220389,0.008997126999999999,1004.3815,0,0
27.04,6.7646265,-7.0773935,0.05634343,1004.41394,0,0
27.08,6.6403884999999985,-7.377687,0.35461432,1004.4064,0,0
27.12,6.454008999999999,-7.41582,0.49191508,1004.4289,0,0
27.16,6.473163,-7.086929,0.29307327,1004.396,0,0
27.2,6.454075,-7.229926,0.31201375,1004.381,0,0
27.24,6.4636674,-7.144129,0.084765315,1004.3985,0,0
27.28,6.5545163,-7.2823600000000015,0.22206607,1004.40106,0,0
27.32,6.4302707,-7.4110575,0.21733432,1004.4033,0,0
27.36,6.349049,-7.5206895,0.15105586,1004.4056,0,0
27.4,6.3682013,-7.3967595,0.03743315,1004.4058,0,0
27.44,6.4494886,-7.25853,0.10371764,1004.4055,0,0
27.48,6.549896,-7.234698299999999,0.08004844,1004.4055,0,0
27.52,6.6264052,-7.253765,0.18420838,1004.38794,0,0
27.56,6.6312184000000025,-7.363397,0.35464996,1004.40283,0,0
27.6,6.6935186,-7.2490034,0.31205526,1004.40283,0,0
27.64,6.7126737000000025,-7.277603599999999,0.34046495,1004.40533,0,0
27.68,6.6983743,-7.234706,0.29312462,1004.395,0,0
27.72,6.755767999999999,-7.2013407,0.34520635,1004.3901,0,0
27.76,6.7510257,-7.301439299999997,0.2457873,1004.39233,0,0
27.8,6.7893,-7.2299422999999985,0.21738414,1004.3871,0,0
27.84,6.7510996,-7.2585425,0.2126532,1004.4073,0,0
27.88,6.5503860000000005,-7.306208,0.3120792,1004.41754,0,0
27.92,6.4978414,-7.306209,0.29787904,1004.39215,0,0
27.96,6.521781,-7.4206076,0.33102357,1004.40466,0,0
28.0,6.4692416,-7.5397725000000015,0.34523028,1004.39215,0,0
28.04,6.4119196,-7.482575,0.27895188,1004.39667,0,0
28.08,6.469315,-7.3729453,0.28842416,1004.4062,0,0
28.12,6.4741300000000015,-7.477810400000001,0.27422422,1004.41925,0,0
28.16,6.4741683,-7.239483,0.1890084,1004.36414,0,0
28.2,6.4025097,-7.3824806,0.25055918,1004.3787,0,0
28.24,6.574623,-7.325283,0.23162521,1004.39374,0,0
28.28,6.6750345,-7.430148599999999,0.47781754,1004.37085,0,0
28.32,6.746767,-7.501647500000002,0.28371024,1004.38074,0,0
28.36,6.512597,-7.396784299999997,0.25057310000000005,1004.3808,0,0
28.4,6.216283,-7.6112804,0.16535684,1004.37335,0,0
28.44,6.455311,-7.36342,0.11328189,1004.38074,0,0
28.48,6.603523,-7.463518,0.19850466,1004.4162,0,0
28.52,6.7469550000000025,-7.3681884,0.03753838,1004.39325,0,0
28.56,6.737431,-7.473053500000002,0.24585545,1004.3958,0,0
28.6,6.497478,-7.4634967,0.22682968,1004.3806,0,0
28.64,6.3636427000000015,-7.253767999999999,0.41147137,1004.3905,0,0
28.68,6.1628895,-7.344332700000002,0.32151756,1004.38776,0,0
28.72,5.899999,-7.706591,0.28837663,1004.39746,0,0
28.76,5.794842,-7.773322999999999,0.20789161,1004.3902,0,0
28.8,6.2919407,-7.5635943,0.18895389,1004.3827,0,0
28.84,6.8655157,-7.0917053,0.10373448,1004.4103,0,0
28.88,7.147523,-7.086939,0.07059356,1004.4,0,0
28.92,7.0567055,-7.082172,0.08953103400000001,1004.4053,0,0
28.96,6.722117999999999,-7.291900599999999,0.160547,1004.4024,0,0
29.0,6.435328500000002,-7.4253645000000015,0.24576618,1004.4072,0,0
29.04,6.382749,-7.5016289999999985,0.39253262,1004.39966,0,0
29.08,6.33973,-7.5254617,0.4777518,1004.40686,0,0
29.12,6.392307,-7.601727,0.41147003,1004.40686,0,0
29.16,6.3110485,-7.744723299999999,0.29784417,1004.3921,0,0
29.2,6.1294146,-7.701824,0.2647032,1004.3921,0,0
29.24,5.919102,-7.7304235,0.21262467,1004.39966,0,0
29.28,5.7948255999999985,-7.692291,0.17948371,1004.3918,1,2
29.32,5.6657699999999975,-7.7685559999999985,0.37359422,1004.4018,1,2
29.36,5.6370897000000015,-8.049783,0.7712840999999999,1004.3993,1,2
29.4,6.8033604999999975,-6.8581433,1.4767102,1004.40686,1,2
29.44,8.151264999999999,-5.6665044,0.8801751,1004.3991,1,2
29.48,9.097664,-5.1946154,0.8517686,1004.4091,1,2
29.52,9.618662,-5.4472427,0.85176855,1004.41425,1,2
29.56,9.747715,-6.548317,1.1926455,1004.3812,1,2
29.6,9.371014,-7.296688599999999,1.8176696,1004.39874,1,2
29.64,8.907401,-7.582683,1.9265635,1004.3966,1,2
29.68,7.913239999999999,-7.940175999999999,1.4862672,1004.3941,1,2
29.72,5.4803534,-8.955453,0.2837317,1004.41113,1,2
29.76,2.1106243,-10.447387,-2.1024053,1004.3837,1,2
29.8,0.19873707,-10.843012,-3.8778043,1004.386,1,2
29.84,1.4606395,-12.053717,-1.7094433999999998,1004.3785,1,2
29.88,2.5887055,-13.178625,-0.33172882,1004.3831,1,2
29.92,3.9318645,-12.587574,-0.69627476,1004.3754,1,2
29.96,5.4757752,-11.1099415,-1.4490421999999998,1004.38544,1,2
30.0,6.7854714000000005,-9.956436,-1.5579306999999998,1004.3831,1,2
30.04,7.6793312999999985,-9.208088,-0.8051569000000001,1004.3628,1,2
30.08,8.023512,-8.893496,1.320594,1004.41595,1,2
30.12,8.353353,-8.493106,2.7835283,1004.38293,1,2
30.16,8.477657,-8.536005000000001,3.4558163,1004.4081,1,2
30.2,7.9423556,-8.188047000000001,3.9055882,1004.38275,1,2
30.24,7.421389,-7.296702000000002,3.1954303,1004.4007,1,2
30.28,8.625933999999999,-6.3719907,1.2164522,1004.39514,1,2
30.32,9.758781,-5.9859004,0.6483269,1004.3753,1,2
30.36,12.674496,-5.2280183,0.17488952,1004.36755,1,2
30.4,14.887579,-2.3776182999999995,-0.6536281,1004.39764,1,2
30.44,13.46801,-3.0544703,-0.2512008,1004.4019,1,2
30.48,10.647961,-8.130855,-0.75777894,1004.4023,1,2
30.52,11.48446,-11.295849,-1.1838723,1004.3841,1,2
30.56,13.071387,-13.383602,-0.39795813,1004.387,1,2
30.6,13.424772,-13.221531,1.0933499,1004.417,1,2
30.64,11.522434,-13.359762,0.72880316,1004.4019,1,2
30.68,8.334325,-13.507525,-0.22754486,1004.39636,1,2
30.72,7.1728473,-12.506549,0.013911186,1004.39905,1,2
30.76,4.9407043,-9.541751,-0.5116055,1004.382,1,2
30.8,3.3299322,-8.2833805,-0.7246517,1004.4016,1,2
30.84,1.6187775,-8.435911,-1.2312317,1004.39905,1,2
30.88,-0.34569904,-8.550309,-1.5673723,1004.3589,1,2
30.92,-0.08279081,-8.20235,-1.6667931,1004.3687,1,2
30.96,2.9810865,-9.96121,-0.9424269,1004.3414,1,2
31.0,4.826103,-11.762969,-0.6252207,1004.35614,1,2
31.04,7.851746,-14.460842,0.6341335,1004.3637,1,2
31.08,9.782807,-14.1843815,2.3195834,1004.3461,1,2
31.12,11.044695,-12.840214,3.3374822,1004.38885,1,2
31.16,12.421298,-13.555197,3.4132345,1004.3832,1,2
31.2,13.558910999999998,-12.3397255,2.8167014,1004.36346,1,2
31.24,12.980576,-9.417827,3.1954556,1004.35315,1,2
31.28,12.158464,-7.0345488,3.1812537,1004.3806,1,2
31.32,9.998017,-5.251857,1.6709807,1004.36096,1,2
31.36,8.865223,-4.7704353,0.113363385,1004.37866,1,2
31.4,8.831785,-4.7942686,-0.48316973,1004.35815,1,2
31.44,9.300224,-4.675104599999999,-0.08547801,1004.3583,1,2
31.48,10.217968,-5.1755934,1.3064388999999998,1004.381,1,2
31.52,11.16917,-5.137462,0.4968576,1004.371,1,2
31.56,12.33068,-4.989699400000001,-0.35533363,1004.39075,1,2
31.6,12.196575,-5.618878,-0.16598226,1004.4128,1,2
31.64,11.345778,-10.280571,0.72882116,1004.3975,1,2
31.68,11.01598,-12.35879,2.1065338,1004.4052,1,2
31.72,10.146065,-11.634274,3.2380571,1004.4177,1,2
31.76,9.950102,-12.244392,3.0581505,1004.40753,1,2
31.8,9.749358,-13.49323,4.5447545,1004.4527,1,2
31.84,8.568756,-13.926988,6.2680783,1004.42255,1,2
31.88,6.905392599999999,-12.230094,7.925121300000002,1004.4174,1,2
31.92,5.3185067,-9.932613,7.3475246,1004.4045,1,2
31.96,4.4342504,-8.965003,6.0976424000000025,1004.38745,1,2
32.0,3.4448410000000003,-8.95547,4.360117,1004.3852,1,2
32.04,2.8951724,-9.131833,4.033444,1004.35,1,2
32.08,2.5127969,-8.383483,3.6026137,1004.3519,1,2
32.12,3.6026003,-8.578913,3.0818298,1004.3675,1,2
32.16,4.7258625,-9.003136,1.6567748,1004.34247,1,2
32.2,6.4609404,-9.89925,0.93714607,1004.3575,1,2
32.24,7.3308735,-10.747697,-1.43479,1004.3523,1,2
32.28,6.4609575,-9.422593,-1.4063827,1004.3445,1,2
32.32,9.31929,-7.6446686,-2.6231236,1004.3195,1,2
32.36,10.303939,-9.87065,-6.3822410000000005,1004.34503,1,2
32.4,9.96936,-10.819196,-6.9645715,1004.36456,1,2
32.44,10.43779,-9.91355,-4.2186155,1004.36444,1,2
32.48,11.589731,-8.045060000000001,-0.60626423,1004.3869,1,2
32.52,10.562082,-6.7914557,-0.05707250000000001,1004.3816,1,2
32.56,9.553553,-6.7771564,0.013944317,1004.3715,1,2
32.6,8.665034,-7.701881,0.8898573000000001,1004.374,1,2
32.64,7.713882000000001,-7.3062577000000015,2.2344310000000003,1004.3971,1,2
32.68,6.8009686,-7.506454,2.636858,1004.39386,1,2
32.72,6.2895565000000015,-7.8067484,2.2628424,1004.37366,1,2
32.76,7.6613894,-6.786705,1.9740465,1004.38635,1,2
32.8,8.665175,-6.100322,2.546912,1004.414,1,2
32.84,9.286582,-8.130875999999999,4.085596,1004.39594,1,2
32.88,8.426247,-9.494112,3.9909112,1004.3884,1,2
32.92,8.421493,-8.960258,4.3933377,1004.391,1,2
32.96,8.698751,-10.709585,4.5921855,1004.4035,1,2
33.0,8.153881,-11.848793,5.1839886,1004.41864,1,2
33.04,8.235166,-11.777295,5.6100874,1004.37335,1,2
33.08,8.4120455,-10.962214,7.0114740000000015,1004.4035,1,2
33.12,7.680768,-11.729631,6.869445,1004.3882,1,2
33.16,7.0116224,-11.105213,5.8184094,1004.3884,1,2
33.2,6.528893,-10.55706,4.014604,1004.406,1,2
33.24,6.242132700000001,-10.151903,3.0298505,1004.3781,1,2
33.28,5.921915,-9.498885,2.163457,1004.3834,1,2
33.32,5.305348,-9.174761,1.4438298,1004.38544,1,2
33.36,4.8273983,-8.502676,0.4448733,1004.3606,1,2
33.4,5.0903125,-8.37398,-0.25108188,1004.35535,1,2
33.44,5.09034,-8.221451,-1.0606626,1004.33295,1,2
33.48,4.8704987,-8.354915,-0.9375654,1004.37537,1,2
33.52,5.372407,-8.01649,-0.9186251,1004.3402,1,2
33.56,6.0511684,-7.678065299999999,-1.9696604,1004.3578,1,2
33.6,6.8153534,-8.597997,-3.158049,1004.3578,1,2
33.64,7.9625115000000015,-9.198583,-3.257471,1004.35284,1,2
33.68,8.402258999999999,-8.359669,-1.6903831000000002,1004.36273,1,2
33.72,8.593456,-7.477856,-1.3637085,1004.3651,1,2
33.76,8.846789999999997,-7.740017,-2.2679794,1004.39526,1,2
33.8,10.113444,-7.9449787,-1.6667095,1004.39526,1,2
33.84,10.868658,-6.7485732999999986,-0.40262294,1004.37494,1,2
33.88,10.701369,-4.779985400000001,0.691025,1004.3673,1,2
33.92,9.649817,-4.4224935,0.0045367554,1004.3623,1,2
33.96,7.838276,-5.4949694,-1.4441906999999998,1004.3699,1,2
34.0,6.710247,-6.3148165,-1.6193632,1004.4023,1,2
34.04,6.805848599999999,-6.634176700000001,-1.3116264,1004.4049,1,2
34.08,6.9635873,-6.610344,-0.5683244000000001,1004.3592,1,2
34.12,7.412894,-6.262385,-0.14696189999999998,1004.3769,1,2
34.16,7.475036599999997,-7.3920593,-0.08541417,1004.38745,0,0
34.2,6.9827213000000015,-8.259572,-0.41682205,1004.3871,0,0
34.24,6.6242414000000025,-7.601788000000001,-0.620401,1004.3842,0,0
34.28,6.7055025,-7.253829,-0.473634,1004.35693,0,0
34.32,6.542994,-7.587489,-0.8902611999999999,1004.40424,0,0
34.36,6.2705503,-8.016478999999999,-0.80504143,1004.3818,0,0
34.4,5.4723287,-8.37397,-0.36474133,1004.3713,0,0
34.44,4.774482,-8.202374,-0.6440707,1004.3918,0,0
34.48,5.190329599999999,-7.568423299999999,-0.84291536,1004.3739,0,0
34.52,6.2275524,-6.772408500000001,-0.85238355,1004.3764,0,0
34.56,6.834592,-6.581746000000001,-0.6724759,1004.3737,0,0
34.6,7.2693343,-6.724737599999999,-0.0002105236,1004.3539,0,0
34.64,7.1115960000000005,-7.282424400000001,0.596324,1004.3639,0,0
34.68,6.800906,-7.358689,0.7999031999999999,1004.4113,0,0
34.72,6.5236735,-7.306257,0.6910115,1004.3988,0,0
34.76,6.475872,-7.201392,0.29805565,1004.4113,0,0
34.8,6.8725915,-6.8963327,-0.13277557,1004.3888,0,0
34.84,7.1450367,-6.8439007,-0.07122864,1004.39136,0,0
34.88,7.269308,-7.129894,0.17969446,1004.3863,0,0
34.92,7.2932034,-7.434953,0.23650697,1004.37836,0,0
34.96,6.958612,-7.5064516,-0.0949018,1004.3586,0,0
35.0,6.7721963,-7.3253226,-0.51152974,1004.3788,0,0
35.04,6.7243943,-7.220458,-0.62989014,1004.3838,0,0
35.08,6.6287947,-7.263356699999999,-0.47838956,1004.4013,0,0
35.12,6.485397,-7.5350504,-0.20852889,1004.3882,0,0
35.16,6.4949527,-7.5588837,0.018722225,1004.3787,0,0
35.2,6.6192245,-7.2490573,-0.052294094000000006,1004.3752,0,0
35.24,6.514065,-7.2776565999999985,-0.118576184,1004.39575,0,0
35.28,6.4041266,-7.287189,-0.04282598,1004.39075,0,0
35.32,6.380223,-7.287189,0.42114526,1004.3809,0,0
35.36,6.4853745,-7.229990499999999,0.4874266,1004.383,0,0
35.4,6.576188,-7.187091400000001,0.354863,1004.38525,0,0
35.44,6.743477,-7.086994,0.31225297,1004.3756,0,0
35.48,6.891647,-7.1870910000000015,0.53950405,1004.39575,0,0
35.52,6.9203215,-7.2204570000000015,0.40694034,1004.40106,0,0
35.56,6.920317999999999,-7.2204570000000015,0.27911112,1004.4203,0,0
35.6,6.882205,-7.1155953,-0.09489538,1004.3905,0,0
35.64,6.8057300000000005,-7.234759299999999,-0.22272418,1004.4078,0,0
35.68,6.7244740000000025,-7.353924,-0.019144654,1004.3526,0,0
35.72,6.6671179999999985,-7.3396240000000015,-0.109098226,1004.3801,0,0
35.76,6.504606,-7.439722,-0.06648849,1004.36725,0,0
35.8,6.4042309999999985,-7.382523,0.05660613,1004.38763,0,0
35.84,6.3468747,-7.387289999999999,0.14182554,1004.3905,0,0
35.88,6.4185734000000005,-7.4111223,0.16076326,1004.3821,0,0
35.92,6.51417,-7.353924,0.08974732,1004.3773,0,0
35.96,6.5619698,-7.353924,0.032934584,1004.40515,0,0
36.0,6.638448,-7.330091,0.07554434,1004.3721,0,0
36.04,6.7005862999999986,-7.249059700000001,0.04240364,1004.36456,0,0
36.08,6.848762,-7.110829400000001,-0.08542518,1004.3718,0,0
36.12,6.7866254,-7.325325,0.023466235,1004.36707,0,0
36.16,6.6623516,-7.225227,0.004528746,1004.3821,0,0
36.2,6.786628200000001,-7.0679307,0.09921692,1004.3922,0,0
36.24,6.820088,-7.134662,0.12288907,1004.36194,0,0
36.28,6.710153599999999,-7.134662599999999,0.1370924,1004.37683,0,0
36.32,6.724494,-7.2013940000000005,0.25545263,1004.3872,0,0
36.36,6.7292757,-7.1537289999999985,0.30279678,1004.3818,0,0
36.4,6.7818546,-7.172795,0.15129596,1004.37683,0,0
36.44,6.729278,-7.2681265,0.14656164,1004.3721,0,0
36.48,6.7006,-7.2633595,0.08501449999999999,1004.38684,0,0
36.52,6.6862617,-7.272892999999999,0.047139373,1004.37683,0,0
36.56,6.671923599999999,-7.09653,-0.09962706,1004.36646,0,0
36.6,6.553531,-7.287219500000001,-0.14687023,1004.3943,0,0
36.64,6.4293010000000015,-7.3682523,-0.14213175,1004.3812,0,0
36.68,6.544057,-7.1680574,-0.10425271,1004.37646,0,0
36.72,6.5536613,-6.8772993,-0.1657959,1004.40393,0,0
36.76,6.7257757,-6.915432000000001,0.09933457,1004.39935,0,0
36.8,6.764056,-7.3777895,0.45915315,1004.389,0,0
36.84,6.988753999999999,-7.0488987000000005,0.17035878,1004.36865,0,0
36.88,6.7593675000000015,-7.2824607000000015,-0.18945193,1004.37646,0,0
36.92,6.768971400000001,-7.315827400000001,-0.1279006,1004.3636,0,0
36.96,7.0749235,-6.9345045,0.11829251,1004.3762,0,0
37.0,7.242255,-7.1776,0.35028190000000003,1004.38135,0,0
37.04,7.1371417,-7.120401400000001,-0.10895154,1004.3865,0,0
37.08,6.917317999999999,-7.5112605,0.09463216,1004.4014,0,0
37.12,6.6544729999999985,-7.55416,0.05676098,1004.37604,0,0
37.16,6.563698,-7.220502400000001,-0.06159534,1004.37354,0,0
37.2,6.5063815,-7.3110685,0.047299787,1004.3834,0,0
37.24,6.6163645,-7.172839,0.08991374,1004.37103,0,0
37.28,6.9127564,-7.0822759999999985,0.08518339999999999,1004.36334,0,0
37.32,6.8219794999999985,-7.334903999999999,0.07098375,1004.36566,0,0
37.36,6.965420699999999,-7.134710000000001,-0.08051288,1004.3863,0,0
37.4,7.0897374000000015,-6.8105850000000006,-0.23201002,1004.36084,0,0
37.44,7.013304700000001,-6.7867536999999984,-0.53974223,1004.38605,0,0
37.48,7.0898255999999975,-6.5531935999999975,-0.43084687,1004.37036,0,0
37.52,6.8843384000000025,-6.6818914000000005,-0.08523130400000001,1004.3709,0,0
37.56,6.8270254,-7.1633143,0.21777466,1004.3955,0,0
37.6,6.9168844,-6.9297304,0.018842,1004.3782,0,0
37.64,7.0124850000000025,-6.4721410000000015,-0.13265848,1004.3806,0,0
37.68,7.385314500000002,-6.381576,-0.3220342,1004.3806,0,0
37.72,7.5621724000000015,-6.386343,-0.40251863,1004.3679,0,0
37.76,7.2132516,-6.615137599999999,-0.41198698,1004.3855,0,0
37.8,7.1893578,-6.648503999999999,-0.3646425,1004.3652,0,0
37.84,7.313637700000001,-6.4578414,-0.49720538,1004.3651,0,0
37.88,7.045974,-6.1766148,-0.59189296,1004.3677,0,0
37.92,6.9790616,-6.1527824,-0.30309385,1004.3677,0,0
37.96,6.830892,-6.6246715,-0.13265483,1004.36273,0,0
38.0,6.8978148,-6.6389710000000015,-0.32203054,1004.3626,0,0
38.04,7.103350999999999,-6.615138000000001,-0.5114063,1004.3578,0,0
38.08,7.3566856,-6.4673753,-0.525609,1004.3752,0,0
38.12,7.332791999999999,-6.538874,-0.44985816,1004.3727,0,0
38.16,7.3758149999999985,-6.5245742999999985,-0.30309109999999995,1004.3647,0,0
38.2,7.280224,-6.648505,-0.3220283,1004.35736,0,0
38.24,7.4762015,-6.46261,-0.36463743,1004.3677,0,0
38.28,7.590921000000002,-6.457843,-0.0521663,1004.3877,0,0
38.32,7.7391,-6.224282,0.051991023,1004.3876,0,0
38.36,7.7152057,-6.1384835,0.326587,1004.33936,0,0
38.4,7.198992,-6.4197106,-0.31255720000000004,1004.3696,0,0
38.44,6.8644110000000005,-7.0584292,-0.037961278,1004.3545,0,0
38.48,7.026928999999999,-6.791502499999999,0.018852044,1004.38464,0,0
38.52,7.0460534,-6.8963666,-0.085304424,1004.3569,0,0
38.56,6.974361,-7.0679630000000015,-0.17052321,1004.3622,0,0
38.6,7.217942999999999,-6.915428,-0.364651,1004.367,0,0
38.64,6.988509,-6.6199020000000015,-0.46880823,1004.352,0,0
38.68,6.998067,-6.6056023,-0.32204184,1004.37714,0,0
38.72,7.041083,-6.8582296000000005,-0.16107233,1004.36145,0,0
38.76,7.079319,-6.886829,0.099319726,1004.37427,0,0
38.8,7.260948700000001,-6.7867317,0.17506993,1004.37427,0,0
38.84,7.409119599999999,-6.7581315,0.32657063,1004.3614,0,0
38.88,7.313521400000001,-6.7581315,0.35497683,1004.38385,0,0
38.92,7.342198,-6.905895,0.23661655,1004.3689,0,0
38.96,7.208361,-6.9154277,-0.11846404,1004.3464,0,0
39.0,7.069744,-6.805797,0.047239825,1004.3437,0,0
39.04,7.0649614000000005,-6.815330499999999,0.08511484,1004.3462,0,0
39.08,7.021941,-6.834396400000001,-0.014307875,1004.3614,0,0
39.12,6.854645,-6.9583273000000005,0.113520816,1004.394,0,0
39.16,6.639552,-7.110856,0.2792248,1004.3943,0,0
39.2,6.496155,-7.1156229999999985,0.34550622,1004.3509,0,0
39.24,6.486593,-7.1489887,0.1892706,1004.37585,0,0
39.28,6.615646000000001,-7.2824526,0.14666077,1004.3908,0,0
39.32,6.8641925000000015,-7.005992,0.05197241,1004.36115,0,0
39.36,6.983685,-6.939260000000001,-0.052184712,1004.35333,0,0
39.4,6.945444599999999,-7.134689,-0.066388085,1004.36865,0,0
39.44,6.9502215,-7.0298243000000005,-0.13740444,1004.38635,0,0
39.48,7.342162599999999,-6.543636,0.06617472,1004.3986,0,0
39.52,7.323041,-6.9058943,0.19873784,1004.36584,0,0
39.56,7.04103,-6.9678593,0.34076974,1004.37573,0,0
39.6,6.821577499999999,-7.101333,0.56332505,1004.38135,0,0
39.64,6.6065006,-7.1108660000000015,0.34554374,1004.3562,0,0
39.68,6.7499075,-6.9059051999999985,0.19877836,1004.3855,0,0
39.72,6.788161,-6.944038000000001,0.22245176,1004.36584,0,0
39.76,6.9506869999999985,-6.910671700000001,0.23192175,1004.3958,0,0
39.8,7.204030499999999,-6.805808,0.26032946,1004.3933,0,0
39.84,7.1849256,-6.8677740000000025,0.1040954,1004.3834,0,0
39.88,6.9172697,-7.0203037,0.061486937,1004.348,0,0
39.92,6.7404304,-6.986938499999999,-0.06634073,1004.3552,0,0
39.96,6.716545,-7.0679703,0.033082984,1004.36053,0,0
40.0,6.7452380000000005,-7.120403,0.07569389,1004.37036,0,0
40.04,6.9125443,-7.0203056,0.28874340000000004,1004.39594,0,0
40.08,6.9985943,-6.9202080000000015,0.34555748,1004.378,0,0
40.12,6.888674000000001,-7.0870380000000015,0.34082443,1004.3831,0,0
40.16,6.8743467,-7.0250726,0.39290398,1004.3755,0,0
40.2,6.9603977,-6.8868427,0.30768606,1004.39056,0,0
40.24,7.0846868,-6.9202094,0.26507768,1004.39777,0,0
40.28,7.127716,-6.90591,0.31715718,1004.3755,0,0
40.32,6.955659,-6.986942,0.2319393,1004.3344,0,0
40.36,6.979572,-6.9631089999999976,0.10884607,1004.3955,0,0
40.4,6.917447599999999,-6.948810000000001,0.16092572,1004.35706,0,0
40.44,6.965259599999999,-6.996476,0.22247425,1004.3849,0,0
40.48,6.8505582999999985,-7.010776,0.2840228,1004.39734,0,0
40.52,6.8123336,-7.072742,0.29822728,1004.37714,0,0
40.56,6.7693295,-7.02031,0.3076974,1004.3821,0,0
40.6,6.7838759999999985,-7.029847599999999,0.28404433,1004.36694,0,0
40.64,6.8364762999999975,-6.9869494,0.29351520000000003,1004.36945,0,0
40.68,6.831714999999999,-7.1633124000000015,0.2509073,1004.36945,0,0
40.72,6.8173960000000005,-7.1585464000000005,0.307722,1004.3417,0,0
40.76,6.8938960000000025,-6.944052,0.19409838,1004.3494,0,0
40.8,6.965615,-6.9297533,0.17989714,1004.3846,0,0
40.84,6.989534,-6.958353,0.22250862,1004.3769,0,0
40.88,6.8700604000000025,-7.0107856,0.23197939,1004.36444,0,0
40.92,6.788823599999999,-7.025085400000001,0.2887941,1004.3739,0,0
40.96,6.8414235,-7.0727515,0.40715623,1004.36127,0,0
41.0,6.980059599999999,-6.958355,0.38822055,1004.3693,0,0
41.04,6.8558059999999985,-7.144251,0.31247208,1004.3664,0,0
41.08,6.879726400000001,-7.0727534,0.24619237,1004.38635,0,0
41.12,6.937104,-7.020322,0.2225222000000001,1004.39667,0,0
41.16,6.879767,-7.025089,0.15150797,1004.3713,0,0
41.2,6.8750076,-7.044155,0.25566673,1004.3563,0,0
41.24,6.884591,-7.0822883,0.22252811,1004.3938,0,0
41.28,6.8415933,-7.1585535999999985,0.29354605,1004.3488,0,0
41.32,6.989787,-6.9154595999999975,0.31248555,1004.3538,0,0
41.36,7.0232673,-6.967892599999999,0.2982843,1004.3837,0,0
41.4,7.0328490000000015,-6.972659599999999,0.35983350000000003,1004.39105,0,0
41.44,6.980293799999999,-6.9869595,0.31249157,1004.36115,0,0
41.48,6.784340400000001,-7.0679917,0.36930615,1004.3712,0,0
41.52,6.7700243,-6.9917274,0.35983944,1004.3732,0,0
41.56,6.760486,-6.963128599999999,0.24621569,1004.3434,0,0
41.6,6.7412243,-7.0822887,0.40243804,1004.39606,0,0
41.64,6.7651386,-7.0584564,0.4545179,1004.3913,0,0
41.68,6.789053,-7.101356,0.32669035,1004.3886,0,0
41.72,6.789067299999999,-7.1061229999999975,0.16572188,1004.3709,0,0
41.76,6.9420366,-6.9964924,0.13731687,1004.3834,0,0
41.8,7.0567664999999975,-6.7915306,0.14205267,1004.4059,0,0
41.84,6.961187,-6.9774270000000005,0.009490807,1004.3659,0,0
41.88,6.894284,-7.0346265,0.28882197,1004.3732,0,0
41.92,7.013794,-7.0346265,0.38824588,1004.3784,0,0
41.96,6.9851300000000025,-6.9059296,0.35510635,1004.3729,0,0
42.0,6.82741,-7.1251917,0.29356040000000005,1004.39624,0,0
42.04,6.660132400000001,-7.1299585999999975,0.2888274,1004.3603,0,0
42.08,6.641029,-7.2395897,0.29829758,1004.3932,0,0
42.12,6.717519,-7.144259,0.17520426,1004.38574,0,0
42.16,6.6888570000000005,-7.244357000000001,0.27462837,1004.39105,0,0
42.2,6.626735000000001,-7.191925500000001,0.09472237,1004.36804,0,0
42.24,6.6697674,-7.115661,0.15627092,1004.39777,0,0
42.28,6.5024896,-7.277724,0.16100673,1004.3782,0,0
42.32,6.760614,-7.106128,0.29830587,1004.3803,0,0
42.36,6.9757204,-7.06323,0.26990083,1004.3678,0,0
42.4,7.004413,-7.101362700000001,0.3409182,1004.38293,0,0
42.44,6.6794014000000015,-7.191928,0.24149701,1004.3807,0,0
42.48,6.4595466,-7.2205270000000015,0.22256087,1004.3776,0,0
42.52,6.46434,-7.2395935,0.16101488,1004.3876,0,0
42.56,6.717685,-7.091831,0.3503925,1004.3873,0,0
42.6,6.937699,-7.1013675,0.26518628,1004.38275,0,0
42.64,7.095451400000001,-7.010803,0.16576552,1004.37726,0,0
42.68,7.210192,-6.863041,0.09948619,1004.4103,0,0
42.72,7.1528550000000015,-6.8678083,0.17050411,1004.352,0,0
42.76,7.0811720000000005,-6.986972,0.15156776,1004.4127,0,0
42.8,6.7705064,-7.2729664,0.29360187,1004.3425,0,0
42.84,6.5506597,-7.2967997,0.4024954,1004.382,0,0
42.88,6.593699000000001,-7.292033,0.2415276,1004.3925,0,0
42.92,6.5745993,-7.220535799999999,0.113700405,1004.3823,0,0
42.96,6.6702156000000015,-7.1109050000000025,0.047420595,1004.3645,0,0
43.0,6.6415505,-7.277735000000002,-0.07093823,1004.3901,0,0
43.04,6.483844,-7.344467,-0.042529386,1004.37177,0,0
43.08,6.5794573000000005,-7.287269,0.042691574,1004.3823,0,0
43.12,6.6177125,-7.282503599999999,0.03322426,1004.37683,0,0
43.16,6.7563515,-7.1204405,0.108977064,1004.3564,0,0
43.2,6.737251799999999,-7.1538070000000005,0.05216593,1004.35944,0,0
43.24,6.789849799999999,-7.0489435,0.22734076,1004.37933,0,0
43.28,6.9380425999999975,-6.920247,0.40724987,1004.36676,0,0
43.32,7.047999999999999,-6.9822125,0.4451271,1004.3495,0,0
43.36,6.8711658,-7.020345699999999,0.5208792999999999,1004.3745,0,0
43.4,6.809048700000001,-7.1252103,0.28889534,1004.3844,0,0
43.44,6.8234076,-7.0394125,0.27942827,1004.3869,0,0
43.48,6.7660713,-7.0346470000000005,0.15633574,1004.34155,0,0
43.52,6.751751,-7.1061454,0.052180566,1004.3994,0,0
43.56,6.7278724,-7.0584807000000005,0.16107373,1004.3745,0,0
43.6,6.6415960000000025,-7.1967050000000015,0.2273334,1004.3617,0,0
43.64,6.6129265,-7.072774400000001,0.2320687,1004.3842,0,0
43.68,6.727652,-7.1204399999999985,0.4687899,1004.3636,0,0
43.72,6.818478599999999,-7.1442738,0.49246284,1004.3689,0,0
43.76,6.7802485999999975,-7.1442738,0.39304116,1004.3565,0,0
43.8,6.627306,-7.292036500000001,0.3078228,1004.38153,0,0
43.84,6.78983,-7.215772,0.2699486,1004.369,0,0
43.88,6.789839,-7.191940299999999,0.33149672,1004.3665,0,0
43.92,6.6846929999999976,-7.196707000000001,0.26521587,1004.3865,0,0
43.96,6.8376575,-7.2253065,-0.0141130015,1004.364,0,0
44.0,6.7850899999999985,-7.068010000000001,0.33623388,1004.3615,0,0
44.04,6.7373004000000005,-7.096609599999999,0.4356572,1004.3765,0,0
44.08,6.4935412,-7.215773599999999,0.5114085999999999,1004.37396,0,0
44.12,6.6130460000000015,-7.2110076,0.5871601,1004.3561,0,0
44.16,6.8663855,-7.1156770000000025,0.4972072,1004.3709,0,0
44.2,6.938092,-7.3444715,0.37411362,1004.37103,0,0
44.24,6.8329463000000015,-7.4636354,0.34097368,1004.371,0,0
44.28,6.7851577,-7.2634406,0.17053592,1004.371,0,0
44.32,6.5987563,-7.401671,0.004832793,1004.36847,0,0
44.36,6.550968,-7.3301729999999985,0.137397,1004.3985,0,0
44.4,6.670472599999999,-7.287274000000001,0.23682034,1004.36597,0,0
44.44,6.837776700000001,-7.1347445999999985,0.22261815,1004.391,0,0
44.48,6.6513743000000005,-7.149044,0.28416634,1004.3709,0,0
44.52,6.4315133,-7.311108,0.43566817,1004.3785,0,0
44.56,6.3646054,-7.4302716,0.4025283,1004.3636,0,0
44.6,6.5356545,-7.301549400000002,0.41663772,1004.35803,0,0
44.64,6.779393700000001,-7.125187,0.5018542,1004.36316,0,0
44.68,6.573832,-7.325381,0.3882257,1004.3531,0,0
44.72,6.4017305,-7.382579,0.35508227,1004.36053,0,0
44.76,6.420821,-7.454077000000002,0.20357867,1004.3781,0,0
44.8,6.3968916,-7.4111767,0.056809365999999986,1004.36066,0,0
44.84,6.540253599999999,-7.277712299999999,0.037868783,1004.3601,0,0
44.88,6.6406009999999975,-7.1871467,0.16096067,1004.3806,0,0
44.92,6.5593133,-7.3539759999999985,0.08520743,1004.36804,0,0
44.96,6.4589095,-7.377808,0.16095528,1004.373,0,0
45.0,6.697869,-7.3730410000000015,0.38346952,1004.3656,0,0
45.04,6.7838755000000015,-7.082279700000001,0.26984105,1004.3855,0,0
45.08,6.7121496,-7.139478,0.20355673,1004.39056,0,0
45.12,6.611743,-7.191909299999999,0.3597893,1004.3855,0,0
45.16,6.6021550000000016,-7.3015394,0.32664588,1004.383,0,0
45.2,6.6786056,-7.2062078,0.43553478,1004.3751,0,0
45.24,6.7693853000000015,-7.1585407000000005,0.5112819000000001,1004.3502,0,0
45.28,6.7072195999999975,-7.125175,0.3976536,1004.3855,0,0
45.32,6.750209,-7.1061070000000015,0.2508844,1004.33734,0,0
45.36,6.697601,-7.1633053,0.17513113,1004.3727,0,0
45.4,6.635432700000001,-7.330134399999999,0.32662934,1004.3827,0,0
45.44,6.793137599999999,-7.2252693,0.26981384,1004.3349,0,0
45.48,6.8600225,-7.110871,0.16565396,1004.3677,0,0
45.52,6.6688023,-7.1633024,0.13724495,1004.3548,0,0
45.56,6.587515,-7.1823683,0.23666464,1004.3752,0,0
45.6,6.641062700000001,-7.2205243,0.30776950000000003,1004.3826,0,0
45.64,6.7127686,-7.301556,0.30777037,1004.35974,0,0
45.68,6.7127776,-7.2109914,0.37405285,1004.33466,0,0
45.72,6.7366842999999985,-7.201459,0.36458477,1004.35974,0,0
45.76,6.684116,-7.1585600000000005,0.26042867,1004.3826,0,0
45.8,6.7462616,-7.1347275,0.2651638,1004.3569,0,0
45.84,6.746271000000001,-7.272958,0.2793679,1004.34686,0,0
45.88,6.7032614,-7.2395916,0.2698999,1004.3796,0,0
45.92,6.669811,-7.210992999999997,0.22729096,1004.3394,0,0
45.96,6.526426,-7.334924000000001,0.2841047,1004.3394,0,0
46.0,6.464298,-7.373057000000001,0.28883997,1004.34436,0,0
46.04,6.669838,-7.1633277,0.19888704,1004.3618,0,0
46.08,6.7463229999999985,-7.201461,0.27937266,1004.36456,0,0
46.12,6.7080936,-7.263425999999999,0.26990467,1004.34436,0,0
46.16,6.6937630000000015,-7.196695,0.27463990000000005,1004.35443,0,0
46.2,6.6555333,-7.2157607000000015,0.26043743,1004.35913,0,0
46.24,6.7176800000000005,-7.2014619999999985,0.36932963,1004.34436,0,0
46.28,6.6985683000000025,-7.191928999999999,0.40247118,1004.33936,0,0
46.32,6.6890182000000005,-7.2777267,0.3788,1004.3746,0,0
46.36,6.6364484,-7.2729607,0.27464387,1004.3514,0,0
46.4,6.669915,-7.225295,0.24150372,1004.3668,0,0
46.44,6.665147,-7.3349266,0.28411445,1004.3593,0,0
46.48,6.6651535000000015,-7.292027,0.21783338,1004.3618,0,0
46.52,6.7081795,-7.172864,0.17522444,1004.3617,0,0
46.56,6.6508336,-7.258661999999997,0.31725770000000003,1004.3442,0,0
46.6,6.675671,-7.177654,0.38835967,1004.3617,0,0
46.64,6.6948360000000005,-7.1824210000000015,0.35048863,1004.35394,0,0
46.68,6.7952576,-7.1824226,0.32682076,1004.3563,0,0
46.72,6.8096422999999975,-7.1013923,0.35049698,1004.341,0,0
46.76,6.723652,-7.125226,0.30315706,1004.3618,0,0
46.8,6.680688000000001,-7.277757000000001,0.39311573,1004.3741,0,0
46.84,6.718958,-7.1919603,0.30789933,1004.376,0,0
46.88,6.766813000000001,-7.072798,0.31263897,1004.329,0,0
46.92,6.752519,-7.1252309999999985,0.15640779,1004.3483,0,0
46.96,6.7143145,-7.168130400000001,0.2700366,1004.34644,0,0
47.0,6.728708,-7.1109333,0.22269754,1004.35345,0,0
47.04,6.728753599999999,-7.196732000000001,0.307921,1004.3767,0,0
47.08,6.7240195000000025,-7.191967,0.37420684,1004.3609,0,0
47.12,6.6619134,-7.1300025,0.40735054,1004.37146,0,0
47.16,6.618952799999999,-7.2920666,0.36001173,1004.3709,0,0
47.2,6.671573,-7.239635499999999,0.45470375,1004.36084,0,0
47.24,6.810236,-7.134773,0.39789534,1004.34033,0,0
47.28,6.829401,-7.1967387,0.25113297,1004.3534,0,0
47.32,6.8055305,-7.1633735,0.24640116,1004.3384,0,0
47.36,6.7625723,-7.3874035,0.31742275,1004.3735,0,0
47.4,6.776957,-7.2253413,0.35056773,1004.3356,0,0
47.44,6.805679,-7.1633773000000005,0.2795556,1004.3381,0,0
47.48,6.7770314,-7.230110000000002,0.28429285,1004.35034,0,0
47.52,6.762749,-7.449373,0.46420544,1004.35535,0,0
47.56,6.906186,-7.3731092999999985,0.37425572,1004.3534,0,0
47.6,6.9374576,-7.353989,0.26989856,1004.3603,0,0
47.64,6.9708767000000025,-7.353988,0.22728534,1004.37085,1,3
47.68,6.908697599999999,-7.373054,0.2840944,1004.3405,1,3
47.72,6.9325523,-7.387352000000001,0.20833983,1004.3553,1,3
47.76,6.8799350000000015,-7.649512,0.30302435,1004.32275,1,3
47.8,6.889453,-7.5684795,0.34089577,1004.3553,1,3
47.84,7.0328050000000015,-7.454080999999999,0.26514143,1004.3631,1,3
47.88,6.932387400000001,-7.396881,0.1609807,1004.3452,1,3
47.92,6.9371304999999985,-7.4826784,0.2840719,1004.3403,1,3
47.96,6.9992259999999975,-7.597075,0.40716258,1004.3578,1,3
48.0,7.0326429999999975,-7.463609,0.42609638,1004.36554,1,3
48.04,7.0134816,-7.525573700000002,0.40242052,1004.3453,1,3
48.08,6.965642,-7.5732384,0.39768225,1004.3502,1,3
48.12,7.070759,-7.578003999999999,0.37874106,1004.35284,1,3
48.16,7.0946155,-7.639968400000001,0.39294043,1004.3577,1,3
48.2,7.0945735,-7.625667999999999,0.35506135,1004.34753,1,3
48.24,7.127992999999999,-7.5875344,0.33138573,1004.34,1,3
48.28,7.0562515,-7.606599,0.33138168,1004.3397,1,3
48.32,6.951056,-7.668563400000001,0.2650964000000001,1004.3477,1,3
48.36,7.0227146,-7.735295,0.430797,1004.33527,1,3
48.4,7.0991497,-7.654261999999999,0.33610508,1004.3398,1,3
48.44,7.0991077,-7.687627,0.31242922,1004.327,1,3
48.48,6.9939103000000005,-7.7019258000000015,0.32662859999999994,1004.3425,1,3
48.52,6.9890880000000015,-7.716224,0.32662475,1004.33765,1,3
48.56,7.0177255,-7.711457000000001,0.35502738,1004.33484,1,3
48.6,7.048371,-7.744871000000002,0.32206652,1004.32214,1,3
48.64,7.072306599999999,-7.701972500000001,0.3268043,1004.31433,1,3
48.68,6.9958663,-7.682907000000001,0.25579157,1004.33484,1,3
48.72,6.9672220000000005,-7.759173,0.3220764,1004.3226,1,3
48.76,7.0246162,-7.754408,0.27473575,1004.33734,1,3
48.8,7.034211,-7.6829100000000015,0.2794733,1004.30676,1,3
48.84,6.9864492,-7.6924443,0.236867,1004.2948,1,3
48.88,6.9530271999999975,-7.7019777,0.26054242,1004.30725,1,3
48.92,6.9052644,-7.778244,0.3741713,1004.3226,1,3
48.96,6.9244223,-7.697213,0.38364366,1004.31683,1,3
49.0,7.0439515,-7.5971164999999985,0.27002108,1004.29425,1,3
49.04,7.096564,-7.6114172999999985,0.27002427,1004.3045,1,3
49.08,6.9579869999999975,-7.601885,0.28896526,1004.3126,1,3
49.12,6.996264,-7.687684,0.34578168,1004.26184,1,3
49.16,7.0297546,-7.539921,0.36472225,1004.30255,1,3
49.2,6.915076299999999,-7.5446887,0.38839763,1004.28436,1,3
49.24,6.862537400000001,-7.5399227,0.40733883,1004.26935,1,3
49.28,6.8625717,-7.6066556,0.407342,1004.27435,1,3
49.32,6.872165700000001,-7.58759,0.3600011,1004.25183,1,3
49.36,6.8913226,-7.501792999999997,0.30319163,1004.2319,1,3
49.4,6.8674603,-7.468428599999997,0.21797569,1004.2649,1,3
49.44,6.7623386,-7.4207635,0.30319813,1004.25934,1,3
49.48,6.7002406,-7.506562,0.30793613,1004.2599,1,3
49.52,6.652477,-7.5256295,0.41683057,1004.2418,1,3
49.56,6.705091,-7.344500999999997,0.31741145,1004.2423,1,3
49.6,6.6422157,-7.358783,0.3126095,1004.23724,1,3
49.64,6.5896444,-7.377849,0.24159396,1004.2449,1,3
49.68,6.5848703,-7.4159822,0.32681385,1004.2424,1,3
49.72,6.647014,-7.492247,0.3504864,1004.21747,1,3
49.76,6.642241,-7.458881,0.3599558,1004.22943,1,3
49.8,6.7617416,-7.4064493,0.2179242,1004.23706,1,3
49.84,6.7760878,-7.315884599999999,0.19898714,1004.20233,1,3
49.88,6.752194,-7.315884599999999,0.24633172,1004.18994,1,3
49.92,6.7474213,-7.320652000000001,0.20372269,1004.21747,1,3
49.96,6.737867999999999,-7.2825193,0.44517794,1004.1727,1,3
50.0,6.6566167,-7.334952,0.34102157,1004.19763,1,3
50.04,6.5658073,-7.1967216,0.44991344,1004.1574,1,3
50.08,6.4893364999999985,-7.3444850000000015,0.41203877,1004.1374,1,3
50.12,6.479783,-7.2872863,0.41203937,1004.17786,1,3
50.16,6.5753850000000025,-7.220555,0.3362894,1004.15283,1,3
50.2,6.5849509999999984,-7.244388000000002,0.28421158,1004.1552,1,3
50.24,6.604077,-7.244388000000002,0.24633690000000005,1004.1175,1,3
50.28,6.5419455,-7.282521000000001,0.21319664,1004.14795,1,3
50.32,6.604089,-7.2920536999999985,0.24160361,1004.1383,1,3
50.36,6.541958,-7.3873854,0.4357148,1004.1455,1,3
50.4,6.513285,-7.3873854,0.33629283,1004.1255,1,3
50.44,6.5993276,-7.349253,0.38363746,1004.1255,1,3
50.48,6.6280136,-7.296821,0.33155966,1004.1282,1,3
50.52,6.685377000000001,-7.301587599999999,0.33156016,1004.11316,1,3
50.56,6.7427410000000005,-7.3730865,0.30315435,1004.10803,1,3
50.6,6.694306,-7.3015723,0.34097126,1004.1136,1,3
50.64,6.617811,-7.363537299999999,0.28889114,1004.1011,1,3
50.68,6.560433,-7.2348394,0.3930462,1004.1041,1,3
50.72,6.6225553,-7.191940299999999,0.38831037,1004.0811,1,3
50.76,6.622534,-7.1967063,0.41198045,1004.1165,1,3
50.8,6.49824,-7.2586713,0.3835723,1004.06616,1,3
50.84,6.474323,-7.263437,0.38830507,1004.08167,1,3
50.88,6.5221024000000005,-7.2682033,0.4451162,1004.0766,1,3
50.92,6.5603166,-7.311102,0.4593172,1004.0746,1,3
50.96,6.6176567,-7.277735000000002,0.33148667,1004.05865,1,3
51.0,6.612857300000001,-7.3254004,0.34568816,1004.0665,1,3
51.04,6.6510816,-7.3825984,0.38829646,1004.05865,1,3
51.08,6.7036357,-7.3158660000000015,0.38355985,1004.0522,1,3
51.12,6.698838,-7.3063326,0.37882388,1004.044,1,3
51.16,6.6414604000000015,-7.2348337,0.41669723,1004.05457,1,3
51.2,6.622323,-7.368297,0.35988274,1004.0294,1,3
51.24,6.6366434000000005,-7.3158645999999985,0.5208508,1004.0442,1,3
51.28,6.655744,-7.2014666,0.45456737,1004.0298,1,3
51.32,6.684405,-7.1204348,0.38354966,1004.02716,1,3
51.36,6.58879,-7.158566499999999,0.3835479000000001,1004.0372,1,3
51.4,6.5027339999999985,-7.2967963,0.35987416,1004.0195,1,3
51.44,6.569634,-7.272963000000002,0.38827893,1004.0095,1,3
51.48,6.526598,-7.210997,0.30779245,1004.0252,1,3
51.52,6.5409169999999985,-7.272962,0.36460343,1004.0171,1,3
51.56,6.5216227,-7.315857,0.39299384,1004.0046,1,3
51.6,6.5693984,-7.3253894,0.41192946,1003.9872,1,3
51.64,6.674527,-7.315856,0.40245816,1003.9974,1,3
51.68,6.655384,-7.3206215,0.3361743,1003.98486,1,3
51.72,6.674478,-7.373053599999999,0.3456408,1003.99005,1,3
51.76,6.6935716,-7.272955,0.2982944,1003.9828,1,3
51.8,6.574051400000001,-7.4064174,0.32196411,1003.97015,1,3
51.84,6.602708,-7.3492190000000015,0.41191578,1003.9801,1,3
51.88,6.7221759999999975,-7.234821000000001,0.41664773,1003.96545,1,3
51.92,6.7221509999999975,-7.201453999999999,0.3219573,1003.978,1,3
51.96,6.559612,-7.196687,0.36929902,1003.9904,1,3
52.0,6.5356894,-7.287250999999999,0.4213753,1003.9705,1,3
52.04,6.564342999999999,-7.210985000000001,0.44031057,1003.94775,1,3
52.08,6.5786567,-7.187151400000001,0.34562020000000004,1003.9527,1,3
52.12,6.6216507,-7.2491164,0.30774277,1003.9127,1,3
52.16,6.5499300000000025,-7.1966839999999985,0.29353738,1003.9533,1,3
52.2,6.549905,-7.206217,0.29826945,1003.915,1,3
52.24,6.6741543000000005,-7.334913,0.38822082,1003.92523,1,3
52.28,6.597652,-7.3825774000000015,0.4734378,1003.9105,1,3
52.32,6.669326,-7.301545599999999,0.4402948,1003.9379,1,3
52.36,6.7266580000000005,-7.268179400000001,0.26511946,1003.89526,1,3
52.4,6.611917,-7.339677,0.29825798,1003.90765,1,3
52.44,6.7122693,-7.244345,0.35506868,1003.918,1,3
52.48,6.798278999999999,-7.234812,0.40241027,1003.9031,1,3
52.52,6.678758599999999,-7.253876700000001,0.38820472,1003.8881,1,3
52.56,6.54968,-7.249109700000001,0.3313897,1003.8877,1,3
52.6,6.4889410000000005,-7.1585800000000015,0.3173145,1003.89056,1,3
52.64,6.493749,-7.239611599999999,0.36939558,1003.8855,1,3
52.68,6.4412017,-7.3349442,0.42147678,1003.8856,1,3
52.72,6.5033699999999985,-7.2729793,0.35993233,1003.8631,1,3
52.76,6.565538,-7.225314599999999,0.2794502,1003.8755,1,3
52.8,6.6085844,-7.2729807,0.23684317,1003.8602,1,3
52.84,6.689872,-7.249149000000001,0.3315341,1003.8727,1,3
52.88,6.771159,-7.2872815000000015,0.30786484,1003.86273,1,3
52.92,6.694710700000001,-7.3492479999999984,0.42149317,1003.8752,1,3
52.96,6.661282000000001,-7.315882000000001,0.34101108,1003.8453,1,3
53.0,6.608735,-7.373082000000001,0.32681063,1003.8631,1,3
53.04,6.6422243000000005,-7.2682185,0.38836068,1003.8356,1,3
53.08,6.7952080000000015,-7.1919546,0.35048822,1003.8356,1,3
53.12,6.7617759999999985,-7.2110210000000015,0.30314663,1003.8106,1,3
53.16,6.6136345999999975,-7.201488499999999,0.3126184,1003.8456,1,3
53.2,6.570645,-7.206256,0.36943385,1003.8378,1,3
53.24,6.6471524,-7.1776576,0.4120463,1003.8206,1,3
53.28,6.5420246,-7.206258,0.38364246,1003.828,1,3
53.32,6.489477,-7.258690400000001,0.35050440000000005,1003.7928,1,3
53.36,6.5229664000000005,-7.196726299999999,0.27949116,1003.8028,1,3
53.4,6.5516760000000005,-7.2253256,0.3173692,1003.818,1,3
53.44,6.6090636,-7.287292,0.30790314,1003.78784,1,3
53.48,6.6473327000000015,-7.277760000000002,0.32684356,1003.7778,1,3
53.52,6.628239999999999,-7.325425999999997,0.36472124,1003.7657,1,3
53.56,6.6091533,-7.334960499999997,0.24162965,1003.7704,1,3
53.6,6.599234,-7.396916,0.2747376,1003.7853,1,3
53.64,6.7044067,-7.244387,0.32208323,1003.76776,1,3
53.68,6.7617793000000015,-7.230087299999999,0.2842093,1003.7553,1,3
53.72,6.723555,-7.258686999999999,0.34575787,1003.7553,1,3
53.76,6.584956599999999,-7.3254194,0.3978378,1003.75037,1,3
53.8,6.6040899999999985,-7.2634544,0.35522947,1003.7651,1,3
53.84,6.561087,-7.230088999999999,0.35049647,1003.73785,1,3
53.88,6.5276437000000005,-7.20149,0.34576344,1003.73535,1,3
53.92,6.5419984000000015,-7.2300897,0.31735840000000004,1003.7303,1,3
53.96,6.5420127,-7.349253999999997,0.36470374,1003.73236,1,3
54.0,6.5659259999999975,-7.277756,0.32209540000000003,1003.72797,1,3
54.04,6.5802809999999985,-7.2157907,0.20847109,1003.74255,1,3
54.08,6.5420566,-7.306356,0.25581643,1003.7303,1,3
54.12,6.5325120000000005,-7.292056599999999,0.37891233,1003.7178,1,3
54.16,6.6902610000000005,-7.344489,0.37417933,1003.7454,1,3
54.2,6.6568184000000015,-7.4779534,0.42625928,1003.70746,1,3
54.24,6.666391,-7.2920574999999985,0.4641357,1003.70264,1,3
54.28,6.785902,-7.172894,0.32683936,1003.7099,1,3
54.32,6.6759825,-7.249160000000002,0.2510904,1003.7079,1,3
54.36,6.6903358,-7.3301916,0.36471742,1003.70746,1,3
54.4,6.6329937,-7.4112234,0.44046926,1003.6951,1,3
54.44,6.5804300000000016,-7.2825265,0.4594082,1003.6648,1,3
54.48,6.523088,-7.182429300000001,0.2795022,1003.6649,1,3
54.52,6.5087624,-7.18243,0.28423792,1003.6876,1,3
54.56,6.527898,-7.263461,0.36945868,1003.6726,1,3
54.6,6.5505266,-7.334928999999999,0.49243698,1003.67194,1,3
54.64,6.588727,-7.2062306,0.4072142,1003.6677,1,3
54.68,6.5982533,-7.1871634,0.28885102,1003.6469,1,3
54.72,6.5551977,-7.239594500000001,0.33145723,1003.64746,1,3
54.76,6.6650996,-7.2681937,0.340923,1003.66,1,3
54.8,6.6555047000000025,-7.487454,0.402467,1003.65497,1,3
54.84,6.755847,-7.230059599999999,0.3598543,1003.6472,1,3
54.88,6.7797084000000005,-7.1633263,0.27463156,1003.6627,1,3
54.92,6.755775999999999,-7.2300577000000015,0.3456446,1003.6225,1,3
54.96,6.703162700000001,-7.3301544,0.33143812,1003.62994,1,3
55.0,6.7031293000000005,-7.311087599999999,0.39298233,1003.61945,1,3
55.04,6.621828599999999,-7.2348213,0.35983744,1003.6248,1,3
55.08,6.6074533,-7.2205210000000015,0.31249017,1003.60913,0,0
55.12,6.530941,-7.2538857,0.33615890000000004,1003.5875,0,0
55.16,6.454433,-7.296784,0.3550937,1003.6202,0,0
55.2,6.444838,-7.344448599999999,0.34088722,1003.59247,0,0
55.24,6.449582,-7.3396816,0.33614957,1003.6175,0,0
55.28,6.4495559999999985,-7.344447,0.27933428,1003.60004,0,0
55.32,6.4686394,-7.2967806,0.2603934,1003.58484,0,0
55.36,6.4064574,-7.4588428,0.22251411,1003.6025,0,0
55.4,6.6119556,-7.458842,0.3929496,1003.6023,0,0
55.44,6.7075276,-7.306311,0.39294738,1003.59,0,0
55.48,6.7266020000000015,-7.158547,0.35033366,1003.5699,0,0
55.52,6.669209,-7.1347130000000005,0.44028413,1003.5424,0,0
55.56,6.6609554000000015,-7.196711,0.40726283,1003.58746,0,0
55.6,6.6705317,-7.253909599999999,0.5066868,1003.5549,0,0
55.64,6.627534,-7.211011,0.4120006,1003.5678,0,0
55.68,6.5654144,-7.1061473,0.1847508,1003.5595,0,0
55.72,6.407698,-7.120447,0.19422124,1003.5623,0,0
55.76,6.3551397000000005,-7.1681137,0.26050466,1003.537,0,0
55.8,6.3025823,-7.1395149999999985,0.28417856,1003.51715,0,0
55.84,6.2882605000000025,-7.2634454,0.28891456,1003.5225,0,0
55.88,6.25004,-7.101383,0.35519788,1003.5024,0,0
55.92,6.2978578,-7.0680175000000025,0.2463084,1003.5224,0,0
55.96,6.321775,-7.125217,0.41201422,1003.5021,0,0
56.0,6.446068,-7.029886200000001,0.41675025,1003.5274,0,0
56.04,6.546462,-7.0298867,0.37414235,1003.5124,0,0
56.08,6.527364,-7.010821000000001,0.24158084,1003.5275,0,0
56.12,6.340968,-6.982222,0.30312964,1003.49207,0,0
56.16,6.4031253,-6.9583898,0.26999068,1003.4949,0,0
56.2,6.436602,-6.948857,0.3646804,1003.48505,0,0
56.24,6.3314660000000025,-6.9822235,0.326807,1003.4826,0,0
56.28,6.302806,-6.910725599999999,0.307871,1003.4621,0,0
56.32,6.2311260000000015,-6.834461,0.31260708,1003.4622,0,0
56.36,6.2454844000000005,-6.8106284,0.3078744,1003.4649,0,0
56.4,6.264623,-6.8296956999999985,0.364689,1003.4974,0,0
56.44,6.1833854000000015,-6.8106294000000025,0.40730035,1003.4522,0,0
56.48,6.1595044,-6.8201632,0.25580105,1003.4497,0,0
56.52,6.0065694,-6.877362700000001,0.31261566,1003.46765,0,0
56.56,6.0974059999999985,-6.8582964,0.35996157,1003.4467,0,0
56.6,6.1976695,-6.810628,0.36942008,1003.42737,0,0
56.64,6.1690044,-6.872594,0.3173429,1003.46515,0,0
56.68,6.121221,-6.915493,0.29840663,1003.4296,0,0
56.72,6.255068,-6.824928999999999,0.28420454,1003.4396,0,0
56.76,6.216843,-6.8153963000000015,0.28420582,1003.43427,0,0
56.8,6.288554,-6.79633,0.2842071,1003.44995,0,0
56.84,6.24555,-6.772498,0.2226611,1003.4726,0,0
56.88,6.274242,-6.758198299999999,0.34102243,1003.4496,0,0
56.92,6.3268347,-6.8153973,0.37889904,1003.43726,0,0
56.96,6.3029480000000015,-6.8010983,0.33155608,1003.42175,0,0
57.0,6.1691275,-6.8773637,0.33155733,1003.4321,0,0
57.04,6.183482,-6.8582972999999985,0.23687059,1003.42224,0,0
57.08,6.2360725,-6.948861999999999,0.2984191,1003.4197,0,0
57.12,6.216967,-6.8249326,0.35996762,1003.4142,0,0
57.16,6.2647796,-6.7868004,0.21793675,1003.42175,0,0
57.2,6.264792400000001,-6.820166,0.21320355,1003.43176,0,0
57.24,6.2026687,-6.882132,0.35050258,1003.4197,0,0
57.28,6.178783,-6.925031,0.31262854,1003.41974,0,0
57.32,6.3269706,-6.834467,0.33630183,1003.41425,0,0
57.36,6.360444,-6.8821330000000005,0.3599752,1003.42676,0,0
57.4,6.341338,-6.820167999999999,0.3505076,1003.40674,0,0
57.44,6.35091,-6.9297996,0.32210234,1003.4117,0,0
57.48,6.413062,-6.8154020000000015,0.33630687,1003.40424,0,0
57.52,6.436975,-7.0108314,0.27002645,1003.40674,0,0
57.56,6.4656672,-7.0108320000000015,0.33157492,1003.40967,0,0
57.6,6.4888697,-6.9011836,0.2462919,1003.4267,0,0
57.64,6.3598022000000025,-7.1347445999999985,0.27943155,1003.4117,0,0
57.68,6.359789,-7.1299777,0.4640720999999999,1003.42926,0,0
57.72,6.550968,-7.0251136,0.36938286,1003.3893,0,0
57.76,6.5844134999999975,-6.901182,0.24628711,1003.4067,0,0
57.8,6.4935813,-7.072778,0.33623937,1003.4296,0,0
57.84,6.560485000000001,-7.1776423,0.25575322,1003.39667,0,0
57.88,6.613049,-7.163342,0.34570572,1003.4117,0,0
57.92,6.6178155,-7.129975999999999,0.36937645,1003.41675,0,0
57.96,6.6464805999999985,-7.0346446,0.22734304,1003.4192,0,0
58.0,6.6703663,-7.0918427,0.32202992,1003.4092,0,0
58.04,6.7181516000000014,-7.177640400000001,0.42618564,1003.4137,0,0
58.08,6.7802744000000015,-7.063242999999999,0.3456995,1003.4167,0,0
58.12,6.751582000000001,-7.0680084,0.32202620000000004,1003.4142,0,0
58.16,6.6942105,-7.0584755,0.31255609999999995,1003.4192,0,0
58.2,6.65118,-7.191939,0.2652109,1003.4117,0,0
58.24,6.617703999999999,-7.249136999999997,0.4356479,1003.3964,0,0
58.28,6.7228483999999975,-7.1252065,0.5019285,1003.41614,0,0
58.32,6.7658524999999985,-7.0346417,0.3788327,1003.42377,0,0
58.36,6.7658386,-7.010808,0.43564433,1003.4264,0,0
58.4,6.7036877000000015,-7.1728710000000016,0.5350656,1003.4314,0,0
58.44,6.703674,-7.1728706,0.45931387,1003.44916,0,0
58.48,6.7132196,-7.158570299999999,0.29834282,1003.4189,0,0
58.52,6.7227664,-7.1442710000000025,0.26993520000000004,1003.4317,0,0
58.56,6.708413,-7.2300687,0.2462619,1003.4113,0,0
58.6,6.7042947,-7.3063493,0.2699945,1003.4417,0,0
58.64,6.709088,-7.220552,0.14216675,1003.4242,0,0
58.68,6.737778,-7.201485000000001,0.24632472,1003.4236,0,0
58.72,6.75691,-7.0823220000000005,0.19898184,1003.43115,0,0
58.76,6.766482400000001,-7.1681203999999985,0.22265503,1003.3986,0,0
58.8,6.7999563,-7.1728869999999985,0.4972519,1003.4111,0,0
58.84,6.795189,-7.115689,0.3552209,1003.4186,0,0
58.88,6.876458,-6.9965259999999985,0.33628446,1003.4586,0,0
58.92,6.7569747000000016,-7.068023700000001,0.3031447,1003.4239,0,0
58.96,6.694851400000001,-7.187188000000001,0.29367712,1003.4136,0,0
59.0,6.7378782999999975,-7.1776557,0.31261554,1003.40857,0,0
59.04,6.733114,-7.1347565999999984,0.31261694,1003.41644,0,0
59.08,6.709227,-7.1824226,0.29841486,1003.4161,0,0
59.12,6.6470985,-7.2491546,0.118508264,1003.41315,0,0
59.16,6.6518936,-7.2396216,0.22740105,1003.40106,0,0
59.2,6.737941,-7.1347580000000015,0.17532353,1003.4364,0,0
59.24,6.699717999999999,-7.182423599999999,0.1895282,1003.436,0,0
59.28,6.7379694,-7.0394273,0.27001423,1003.4236,0,0
59.32,6.7427600000000005,-7.082327,0.18479598,1003.42053,0,0
59.36,6.7379932,-7.23009,0.27001640000000005,1003.4186,0,0
59.4,6.7236657000000015,-7.158592,0.39784643,1003.4007,0,0
59.44,6.7905955,-7.015596,0.28422192,1003.43353,0,0
59.48,6.8001679999999975,-6.99653,0.16586292,1003.40106,0,0
59.52,6.7906213000000015,-7.1252274999999985,0.35524026,1003.4106,0,0
59.56,6.7284929999999985,-7.2157917,0.33630353,1003.41034,0,0
59.6,6.779789,-7.101363,0.24149807,1003.40784,0,0
59.64,6.779753,-7.0918293000000014,0.2462292,1003.3807,0,0
59.68,6.679342,-7.1776266,0.13260022,1003.4032,0,0
59.72,6.7223196,-7.2252913,0.23675343,1003.4003,0,0
59.76,6.6505839999999985,-7.2205233999999985,0.16573389,1003.41815,0,0
59.8,6.698349,-7.2443557,0.15626203,1003.4331,0,0
59.84,6.760446000000001,-7.220522,0.26514962,1003.4331,0,0
59.88,6.7412887,-7.125189999999999,0.23673971,1003.4231,0,0
59.92,6.7699323000000025,-7.22052,0.24620526,1003.4256,0,0
59.96,6.7555520000000016,-7.1728535,0.22252956,1003.41534,0,0
60.0,6.831992999999999,-7.106120599999999,0.21779189,1003.42255,0,0
60.04,6.855853999999999,-7.048921000000001,0.2982733,1003.43787,0,0
60.08,6.827142200000001,-7.1299515,0.20831653,1003.4231,0,0
60.12,6.635909599999999,-7.230048700000001,0.20357841,1003.42065,0,0
60.16,6.6454334,-7.26818,0.3077321,1003.43304,0,0
60.2,6.7170925000000015,-7.1537820000000005,0.26985335,1003.40283,0,0
60.24,6.6883755,-7.191913,0.17516176,1003.4376,0,0
60.28,6.63098,-7.230045,0.18936151,1003.3954,0,0
60.32,6.6930842,-7.301542299999999,0.13254559,1003.41205,0,0
60.36,6.726502,-7.196676700000001,0.20829238,1003.4276,0,0
60.4,6.731244,-7.1537770000000025,0.21775769,1003.39496,0,0
60.44,6.62127,-7.168075599999999,0.203551,1003.44525,0,0
60.48,6.630797,-7.210974,0.29350165,1003.41205,0,0
60.52,6.692894,-7.1680740000000025,0.22721627,1003.4324,0,0
60.56,6.6546173,-7.206206,0.21300958,1003.42004,0,0
60.6,6.657235000000001,-7.2348690000000015,0.32687494,1003.42004,0,0
60.64,6.757673,-7.1395396999999985,0.18958287,1003.42456,0,0
60.68,6.700381299999999,-7.2491717000000016,0.16591688,1003.4374,0,0
60.72,6.614406599999999,-7.220574000000001,0.2558762,1003.4195,0,0
60.76,6.733968300000001,-7.1490774,0.13278773,1003.40466,0,0
60.8,6.72925,-7.2587100000000015,0.25115353,1003.42474,0,0
60.84,6.7054160000000005,-7.196746000000001,0.23222192,1003.4343,0,0
60.88,6.781967599999999,-7.12525,0.15174384,1003.42456,0,0
60.92,6.7963643,-7.1538505999999975,0.17542113,1003.41473,0,0
60.96,6.7438525999999985,-7.191984,0.26064646,1003.43176,0,0
61.0,6.6769977,-7.1776860000000005,0.23224568,1003.41437,0,0
61.04,6.8013387000000005,-7.2015204,0.23225172,1003.41187,0,0
61.08,6.6914687000000015,-7.2158217,0.22752336,1003.41223,0,0
61.12,6.6819754,-7.2158229999999985,0.21332619,1003.3842,0,0
61.16,6.6198955,-7.292089999999999,0.12811221,1003.41675,0,0
61.2,6.6629834,-7.3016243,0.20860349,1003.40186,0,0
61.24,6.7156277,-7.177696000000001,0.12339023,1003.4421,0,0
61.28,6.7252490000000025,-7.101433,0.090255074,1003.43964,0,0
61.32,6.586696000000001,-7.2777963,0.21335524,1003.4243,0,0
61.36,6.572427,-7.325464,0.29384655,1003.4343,0,0
61.4,6.6872087,-7.2301345,0.2133677,1003.41943,0,0
61.44,6.7302885,-7.1777039999999985,0.17549811,1003.4094,0,0
61.48,6.7638130000000025,-7.177706,0.13762893,1003.41437,0,0
61.52,6.7973294000000015,-7.130041,0.19918145,1003.4268,0,0
61.56,6.7400417,-7.110975999999999,0.10449979,1003.44965,0,0
61.6,6.776314299999999,-7.1538277,0.22267994,1003.4166,0,0
61.64,6.795419,-7.125228,0.18953781,1003.4042,0,0
61.68,6.7523875,-7.1871924,0.21794297,1003.4167,0,0
61.72,6.709356,-7.1442933,0.18480092,1003.4443,0,0
61.76,6.6902227,-7.225324,0.104314774,1003.4217,0,0
61.8,6.65197,-7.234857000000001,0.29842412,1003.42926,0,0
61.84,6.7379937000000005,-7.1442924,0.24634445,1003.42163,0,0
61.88,6.7809979999999985,-7.139525999999999,0.05223258,1003.4137,0,0
61.92,6.7140675000000005,-7.206257000000001,0.16585709,1003.42413,0,0
61.96,6.6566963,-7.239622,0.2416063,1003.4163,0,0
62.0,6.694921000000001,-7.1728897,0.17532332,1003.4042,0,0
62.04,6.6327690000000015,-7.268221400000002,0.23213491,1003.4217,0,0
62.08,6.699673700000001,-7.239621,0.28894657,1003.41583,0,0
62.12,6.694880499999999,-7.172888799999999,0.07589719,1003.4366,0,0
62.16,6.690085400000001,-7.249153999999999,0.25106883,1003.42413,0,0
62.2,6.704411500000001,-7.2014875,0.18478593,1003.4315,0,0
62.24,6.709177,-7.301585,0.09956528,1003.44403,0,0
62.28,6.6948247000000025,-7.258686,0.08062647,1003.4337,0,0
62.32,6.623114,-7.211019999999999,0.080625296,1003.44403,0,0
62.36,6.685237,-7.263451600000002,0.09009275,1003.4338,0,0
62.4,6.6947839999999985,-7.2348523,0.18477963,1003.4113,0,0
62.44,6.7234482999999985,-7.1156880000000005,0.20371597,1003.4162,0,0
62.48,6.766453,-7.110921,0.18004265,1003.4113,0,0
62.52,6.7043023,-7.201485000000001,0.23211992,1003.41614,0,0
62.56,6.699508,-7.253916999999999,0.24158745,1003.42334,0,0
62.6,6.742384,-7.129983,0.11847985,1003.42334,0,0
62.64,6.7567053,-7.1442823,0.20843191,1003.4036,0,0
62.68,6.7327843,-7.1776475999999985,0.14214820000000006,1003.43835,0,0
62.72,6.747108,-7.177647,0.14688118,1003.42084,0,0
62.76,6.704070599999999,-7.191947,0.12794180000000002,1003.42834,0,0
62.8,6.689711999999999,-7.2300787,0.19895613,1003.42584,0,0
62.84,6.680135000000001,-7.2062453999999985,0.15161046,1003.4156,0,0
62.88,6.680111,-7.201478,0.2699684,1003.4032,0,0
62.92,6.675317,-7.2491436,0.175279,1003.41583,0,0
62.96,6.65618,-7.249142999999999,0.14213654,1003.4156,0,0
63.0,6.708739,-7.1967106,0.18947884,1003.4156,0,0
63.04,6.8090906,-7.149044,0.14213262,1003.3932,0,0
63.08,6.7756143,-7.1824093,0.08531813,1003.41815,0,0
63.12,6.6991229999999975,-7.1919426999999985,0.13266085,1003.4337,0,0
63.16,6.670420599999999,-7.220541499999999,0.18947157,1003.42334,0,0
63.2,6.7421045,-7.149042,0.25101763,1003.4128,0,0
63.24,6.6895037,-7.225307000000001,0.19420269,1003.42834,0,0
63.28,6.694265,-7.211006599999997,0.18946654,1003.41064,0,0
63.32,6.7563830000000005,-7.1538076,0.13265194,1003.4281,0,0
63.36,6.756363,-7.16334,0.13265008,1003.4127,0,0
63.4,6.698993700000001,-7.1871724000000015,0.16105545,1003.4127,0,0
63.44,6.7276487000000005,-7.1252070000000005,0.11370921,1003.4153,0,0
63.48,6.7228483999999975,-7.211004300000001,0.118441775,1003.4078,0,0
63.52,6.5985556,-7.339701,0.22259703,1003.4231,0,0
63.56,6.713253,-7.144272,0.19418897,1003.4078,0,0
63.6,6.7183704,-7.153813,0.21315746,1003.43317,0,0
63.64,6.742264,-7.153813,0.13267207,1003.4327,0,0
63.68,6.7088009999999985,-7.206245,0.13740608,1003.4281,0,0
63.72,6.689676,-7.2110114,0.15634322,1003.4152,0,0
63.76,6.7040105,-7.2300773,0.18948358,1003.42523,0,0
63.8,6.7231255,-7.139513000000001,0.20368637,1003.4203,0,0
63.84,6.708781,-7.234843700000001,0.10899782,1003.4231,0,0
63.88,6.680097,-7.211010499999999,0.18948226,1003.42523,0,0
63.92,6.7278895000000025,-7.215777,0.1279345,1003.4202,0,0
63.96,6.6418490000000014,-7.215777,0.033245962000000004,1003.4377,0,0
64.0,6.703981,-7.2253103,0.13740245,1003.42255,0,0
64.04,6.7469945,-7.1538119999999985,0.20841804,1003.4227,0,0
64.08,6.708751,-7.244375999999999,0.028510228,1003.4275,0,0
64.12,6.6800675000000025,-7.2920413,0.22262035,1003.39465,0,0
64.16,6.799557000000001,-7.139512,0.19421342,1003.44244,0,0
64.2,6.809112,-7.2062434999999985,0.1658066,1003.4247,0,0
64.24,6.6991714999999985,-7.149044,0.14686851,1003.4428,0,0
64.28,6.651368,-7.225309399999999,0.09952399,1003.4197,0,0
64.32,6.6704820000000025,-7.163344,0.16107076,1003.43713,0,0
64.36,6.675257000000001,-7.19671,0.25575843,1003.41724,0,0
64.4,6.689592,-7.2300754,0.09478825,1003.41754,0,0
64.44,6.6704674,-7.239608299999999,0.023771696,1003.41504,0,0
64.48,6.7278204,-7.206242599999999,0.1563346,1003.4275,0,0
64.52,6.6991363,-7.1347437000000005,0.13266209,1003.4127,0,0
64.56,6.727811,-7.239608,0.09952085,1003.41724,0,0
64.6,6.6856256,-7.2205625,0.18008201,1003.4147,0,0
64.64,6.647415,-7.2300963,0.13274049999999998,1003.41504,0,0
64.68,6.623545599999999,-7.3349614,0.07593035,1003.402,0,0
64.72,6.6857095,-7.244397599999999,0.123276815,1003.4321,0,0
64.76,6.776553599999999,-7.168133,0.12327935,1003.4197,0,0
64.8,6.7335634,-7.1872,0.08067226400000001,1003.40924,0,0
64.84,6.6093144,-7.211033299999999,0.10434666,1003.43463,0,0
64.88,6.695379300000001,-7.2491664999999985,0.21324053,1003.412,0,0
64.92,6.7049645999999985,-7.211035000000001,0.15169570000000002,1003.42456,0,0
64.96,6.6667542,-7.2396345,0.14696382,1003.427,0,0
65.0,6.6763415,-7.172903,0.15170079999999994,1003.43176,0,0
65.04,6.638133,-7.2491693,0.10435945,1003.40424,0,0
65.08,6.6620545,-7.2634690000000015,0.09015833,1003.43445,0,0
65.12,6.638185000000001,-7.230104400000001,0.09489545,1003.43195,0,0
65.16,6.652552,-7.258703999999999,0.10436681,1003.4371,0,0
65.2,6.686037,-7.2348723,0.118572414,1003.4469,0,0
65.24,6.638269,-7.3111377000000015,0.113840714,1003.43677,0,0
65.28,6.6813135,-7.277772,0.13278072,1003.40186,0,0
65.32,6.7243595,-7.101411,0.16118970000000002,1003.40924,0,0
65.36,6.7960844,-7.1395434999999985,0.14225467,1003.43695,0,0
65.4,6.695735000000001,-7.1824436,0.15172586,1003.43176,0,0
65.44,6.643185000000001,-7.2968416,0.17066604,1003.4391,0,0
65.48,6.657551,-7.2491765,0.09965235,1003.4365,0,0
65.52,6.6241210000000015,-7.268244,0.13279589,1003.42175,0,0
65.56,6.638489,-7.3016105,0.090188816,1003.4141,0,0
65.6,6.643263,-7.311142999999999,0.047578596,1003.43195,0,0
65.64,6.643287700000001,-7.2968445000000015,0.10912815,1003.4321,0,0
65.68,6.6337543000000005,-7.239646,0.10913059,1003.42926,0,0
65.72,6.633781,-7.258713,0.05705457,1003.4166,0,0
65.76,6.5812297000000015,-7.244414,0.1280731,1003.40656,0,0
65.8,6.6003737000000005,-7.2873135,0.085465714,1003.4165,0,0
65.84,6.5765020000000005,-7.301614,0.15174982,1003.41864,0,0
65.88,6.667344,-7.2587156,0.13281465,1003.4116,0,0
65.92,6.7008295,-7.2491827,0.15175472,1003.4191,0,0
65.96,6.6339355,-7.234884,0.080740765,1003.4519,0,0
66.0,6.5766068,-7.3063827,0.123353004,1003.4166,0,0
66.04,6.60531,-7.334983,0.10915208,1003.43616,0,0
66.08,6.6053333,-7.292084,0.123357415,1003.4166,0,0
66.12,6.610142999999999,-7.268253,0.07601611,1003.42114,0,0
66.16,6.5480356,-7.3445177,0.066550046,1003.41614,0,0
66.2,6.5528374000000005,-7.2873199999999985,0.1280993,1003.42365,0,0
66.24,6.5385246,-7.287320599999997,0.047616825,1003.3983,0,0
66.28,6.6245875,-7.2491884,0.1801826,1003.4036,0,0
66.32,6.705870599999999,-7.2348895,0.18491946,1003.4137,0,0
66.36,6.5625033,-7.3063884,0.03815537,1003.44116,0,0
66.4,6.533848,-7.368354300000001,0.13757998,1003.41113,0,0
66.44,6.538661,-7.339755999999999,0.00028530508,1003.43115,0,0
66.48,6.5434623,-7.3111570000000015,0.047631312,1003.41864,0,0
66.52,6.48135,-7.2920914,0.07604002,1003.4437,0,0
66.56,6.476597,-7.416023,0.08551127,1003.43365,0,0
66.6,6.4427476,-7.458912,0.20857006,1003.4233,0,0
66.64,6.442757,-7.430313000000001,0.1612269,1003.4312,0,0
66.68,6.509685,-7.4160137000000015,-0.013945106,1003.43616,0,0
66.72,6.4045367,-7.4827455999999986,-0.023413245,1003.43085,0,0
66.76,6.500145400000001,-7.506578399999999,0.07601042,1003.4233,0,0
66.8,6.562289999999999,-7.46368,0.023932643,1003.43085,0,0
66.84,6.5814223,-7.439847500000001,0.08074669,1003.42114,0,0
66.88,6.5431933,-7.4827466,0.090216346,1003.4287,0,0
66.92,6.55754,-7.3159175,0.094951406,1003.4058,0,0
66.96,6.5288744,-7.454148,0.26539117,1003.43365,0,0
67.0,6.634040400000001,-7.401716,0.17543842,1003.40826,0,0
67.04,6.772664,-7.301617999999999,0.17543927,1003.4307,0,0
67.08,6.763114,-7.2587199999999985,0.042876847,1003.41583,0,0
67.12,6.4906760000000014,-7.3921833,-0.0660135,1003.4282,0,0
67.16,6.524145,-7.497047999999999,0.14230126,1003.4357,0,0
67.2,6.605411,-7.4827485,0.23699021,1003.40326,0,0
67.24,6.648438499999999,-7.2825536999999985,0.009739663,1003.4206,0,0
67.28,6.5050545,-7.382651299999999,-0.013931438,1003.41077,0,0
67.32,6.3473305999999985,-7.068059,-0.12282188,1003.44073,0,0
67.36,6.1896076,-7.296854,-0.08494569,1003.4006,0,0
67.4,6.094022,-7.6162133,0.25119802,1003.4208,0,0
67.44,6.3616996,-7.0156274000000005,0.12810431,1003.4357,0,0
67.48,6.5433435,-7.096659,0.5589360999999999,1003.44324,0,0
67.52,6.696307000000001,-6.9965615,0.26066956,1003.3881,0,0
67.56,6.543362,-7.258723,0.25593597,1003.4105,0,0
67.6,6.690932000000001,-7.5685344,0.32689673,1003.42303,0,0
67.64,6.862989999999999,-7.1300106,0.29848897,1003.4206,0,0
67.68,7.2310214,-6.782050999999999,0.038095437,1003.4158,0,0
67.72,6.987239,-6.9202814,-0.023452945,1003.40326,0,0
67.76,6.700437,-7.2825394,0.14698435,1003.42303,0,0
67.8,6.8772755000000005,-7.220573399999997,0.4831258,1003.4282,0,0
67.84,6.92028,-7.1824407999999975,0.51153094,1003.408,0,0
67.88,6.84857,-7.2491717000000016,0.49732652,1003.41534,0,0
67.92,6.681263,-7.377869,0.5494036999999999,1003.408,0,0
67.96,6.7433863,-7.2920704,0.41683912,1003.4332,0,0
68.0,6.7911716,-7.282537,0.36949387,1003.43054,0,0
68.04,6.6095247000000015,-7.2873034,0.21325724,1003.418,0,0
68.08,6.556933,-7.311136,0.15644309,1003.4279,0,0
68.12,6.5091214000000015,-7.3874005999999985,0.24166119,1003.413,0,0
68.16,6.3513730000000015,-7.382633699999999,0.17064378,1003.42535,0,0
68.2,6.418278,-7.354033999999999,0.32687792,1003.42535,0,0
68.24,6.5855565,-7.3063674,0.2890014,1003.41284,0,0
68.28,6.5951023,-7.187204,0.3789538,1003.4281,0,0
68.32,6.542512,-7.2158027,0.43576548,1003.4353,0,0
68.36,6.580736999999999,-7.3540325,0.40262347,1003.42535,0,0
68.4,6.6141815,-7.4207635,0.31740293,1003.4203,0,0
68.44,6.6906443,-7.3730984,0.009665301,1003.41534,1,4
68.48,6.867483,-7.1586027,-0.17971216,1003.4378,1,4
68.52,6.7718735,-7.282532700000001,-0.41643363,1003.4279,1,4
68.56,6.614125,-7.153836,-0.70049936,1003.4378,1,4
68.6,6.5477767,-7.2062817,-0.8472138000000001,1003.41534,1,4
68.64,6.5430045,-7.2062817,-0.9371668,1003.42303,1,4
68.68,6.428299,-6.977486999999999,-0.91822827,1003.40533,1,4
68.72,6.2275553,-7.0394526,-0.8945555000000001,1003.453,1,4
68.76,6.189326,-7.091885,-0.57734954,1003.43787,1,4
68.8,6.2849309999999985,-7.0537524000000005,-0.17965871,1003.4303,1,4
68.84,6.566949,-7.239649000000001,0.023921512,1003.4074,1,4
68.88,6.6482134,-7.273014999999999,0.29378337,1003.43054,1,4
68.92,7.886191,-6.0813760000000014,0.63939565,1003.4303,1,4
68.96,9.090711,-6.558031599999999,0.70094377,1003.45544,1,4
69.0,11.189054,-7.0823526,2.7225354,1003.4455,1,4
69.04,13.153563,-5.4760237,4.057638,1003.4448,1,4
69.08,12.823764,-5.256762,4.436392,1003.4448,1,4
69.12,11.786554,-6.0289449999999984,2.727272,1003.425,1,4
69.16,10.300045,-6.615231,1.8561424,1003.44037,1,4
69.2,8.823095,-7.7163067,1.5578758,1003.4529,1,4
69.24,7.422619999999997,-8.702983999999999,1.4726572,1003.41724,1,4
69.28,6.4523287000000025,-9.465632,1.1601874,1003.42786,1,4
69.32,5.682789,-9.76116,0.6299348000000001,1003.39746,1,4
69.36,5.094881,-9.91369,0.16122949,1003.40247,1,4
69.4,4.4448370000000015,-9.713494,-0.3311478,1003.415,1,4
69.44,4.2201953,-9.379836,-1.1644021999999998,1003.4275,1,4
69.48,2.8149414,-9.503767,-1.6567794999999998,1003.40247,1,4
69.52,1.4957243999999998,-10.743071,-1.9455773,1003.4228,1,4
69.56,1.1898258999999998,-12.153972,-2.8924572,1003.42236,1,4
69.6,4.0289730000000015,-11.801247,-0.932419,1003.4103,1,4
69.64,8.0296755,-11.50572,0.22751069,1003.42236,1,4
69.68,10.233171,-12.478097,0.40268424,1003.3947,1,4
69.72,10.199719,-12.768857,1.1933303,1003.4398,1,4
69.76,9.970295,-11.100564,1.6573026000000002,1003.4099,1,4
69.8,10.711171,-9.213006,2.1070719,1003.42725,1,4
69.84,11.380349,-7.897436999999999,3.0634222,1003.4374,1,4
69.88,12.207262,-4.8659067,3.4611125,1003.41986,1,4
69.92,12.489277,-2.7876883,4.9713883,1003.44775,1,4
69.96,10.60126,-3.3167758000000003,2.9403293,1003.4173,1,4
70.0,11.590686,-2.7114232000000005,0.81458205,1003.3873,1,4
70.04,13.837198999999998,-3.5741704,0.691488,1003.38983,1,4
70.08,15.285487,-7.344517,1.4679309,1003.4048,1,4
70.12,15.949885,-10.485679,2.6041887000000004,1003.42725,1,4
70.16,14.401235,-12.540065,2.9213943,1003.42725,1,4
70.2,13.301887,-15.361866,2.0171237,1003.4524,1,4
70.24,13.239755,-17.258955,1.396917,1003.4572,1,4
70.28,10.892879,-17.020626,2.2869859,1003.4599,1,4
70.32,7.9819837,-15.380934,2.1260169,1003.4698,1,4
70.36,6.5958467,-13.092986,2.1354861,1003.4396,1,4
70.4,5.95536,-10.447547,2.012392,1003.4878,1,4
70.44,4.248976,-9.213008,2.1260183,1003.43475,1,4
70.48,2.6477485,-9.255907,1.7377979,1003.46027,1,4
70.52,0.83142924,-10.523812,1.1554666999999998,1003.41986,1,4
70.56,-0.83671755,-10.590545,-0.037602898,1003.39996,1,4
70.6,0.061893433,-11.0815,-0.8187789000000001,1003.37976,1,4
70.64,1.9451424,-11.929947,-0.7572310999999999,1003.38257,1,4
70.68,4.540582,-12.773627,0.0665559,1003.4047,1,4
70.72,8.823293,-13.555344,-0.5678538000000001,1003.36005,1,4
70.76,11.95407,-15.242705,-3.5789344,1003.39734,1,4
70.8,13.779963,-16.372377,-4.1281247,1003.3922,1,4
70.84,14.210149,-16.400976,-2.565771,1003.4023,1,4
70.88,15.945224,-14.685018,0.8619388000000001,1003.42975,1,4
70.92,15.720579,-12.578199,0.70096946,1003.43,1,4
70.96,17.030251999999994,-6.763000999999999,2.9498124,1003.425,1,4
71.0,15.696693,-3.4311774,3.3190963,1003.43,1,4
71.04,11.858517,-5.1423717,-0.22223781,1003.4275,1,4
71.08,14.539995,-1.843914,1.0229113,1003.4021,1,4
71.12,17.02072,-2.7972257000000003,5.6863003,1003.43726,1,4
71.16,16.246395,-8.231100999999999,5.57741,1003.4293,1,4
71.2,14.716866,-10.438017,4.052932299999998,1003.44434,1,4
71.24,13.6939945,-13.917604,3.0539732,1003.4374,1,4
71.28,13.330735,-17.282791,1.841966,1003.4495,1,4
71.32,13.932996,-19.156048,1.8609043,1003.45435,1,4
71.36,12.7619505,-18.612661,3.4895403,1003.4547,1,4
71.4,9.827157,-17.034933,2.7983177,1003.46185,1,4
71.44,7.7192698,-14.67072,2.2775335,1003.4745,1,4
71.48,6.7202973,-12.034815,1.19809,1003.42957,1,4
71.52,3.6325502,-10.971872,-0.52523273,1003.4393,1,4
71.56,2.461504,-9.694435,-0.40213764,1003.4218,1,4
71.6,1.7108221999999995,-8.888881,0.06654527,1003.4046,1,4
71.64,0.59234464,-8.683919,0.052341722,1003.4096,1,4
71.68,-0.26802385,-8.77925,-0.17964445,1003.3844,1,4
71.72,0.047439396,-9.818359,-0.22698884,1003.3795,1,4
71.76,1.4240191999999998,-10.895601,-0.27433318,1003.38654,1,4
71.8,5.4629498,-11.41039,-1.3963875,1003.3795,1,4
71.84,9.874705,-12.9404545,-2.9587414,1003.4047,1,4
71.88,13.07717,-19.346704000000006,-3.209665,1003.38464,1,4
71.92,16.575982999999994,-21.115097,-2.7504282000000004,1003.3791,1,4
71.96,18.339725,-15.628791,-1.8603606,1003.4293,1,4
72.0,17.914317999999994,-12.668759,0.29852775,1003.42426,1,4
72.04,17.350298000000002,-8.1500635,0.58259165,1003.41156,1,4
72.08,15.945035,-4.6180453,0.36007428,1003.41895,1,4
72.12,12.111629,-5.0279690000000015,-0.28380504,1003.4218,1,4
72.16,10.649004,-4.7705746,0.37427682,1003.4194,1,4
72.2,11.576282,-3.636134,0.9139986,1003.4218,1,4
72.24,13.569457,-3.51697,1.8750824,1003.4215,1,4
72.28,14.205167,-5.5761223,2.902448,1003.4194,1,4
72.32,13.383037,-8.331192,2.7414777000000004,1003.44934,1,4
72.36,13.215739,-10.5142765,2.5331638,1003.4497,1,4
72.4,12.001666,-13.197845999999998,2.154411,1003.45154,1,4
72.44,11.815249,-15.971984,1.3448273000000002,1003.4593,1,4
72.48,12.465299,-17.111189000000003,1.870346,1003.4543,1,4
72.52,11.738766,-15.47626,2.4668808,1003.4643,1,4
72.56,9.664326,-13.7603,2.604178,1003.4543,1,4
72.6,8.474152,-12.768856,1.6478277,1003.44147,1,4
72.64,7.465608599999999,-11.796478,0.44528878,1003.44147,1,4
72.68,5.8165727,-11.286457,0.7104151,1003.444,1,4
72.72,4.4877834000000005,-10.523808,0.89032215,1003.41895,1,4
72.76,2.9725823,-9.3703,0.74355525,1003.41156,1,4
72.8,1.0510973,-8.197727,0.5210378999999999,1003.40643,1,4
72.84,-0.124738224,-7.611440700000001,-0.11337271,1003.38904,1,4
72.88,0.028211936,-7.7401385,-0.73831445,1003.374,1,4
72.92,1.4386985,-8.712525999999999,-1.8650622,1003.39435,1,4
72.96,3.7521327000000007,-10.070995,-2.78827,1003.37195,1,4
73.0,7.1792617,-12.845131,-2.2012029,1003.36127,1,4
73.04,11.442857,-16.277051999999998,-1.5194479,1003.38904,1,4
73.08,14.717032,-18.803328,-1.7656361,1003.40393,1,4
73.12,15.472251000000002,-16.620245,-0.3453138,1003.40894,1,4
73.16,15.257169,-12.702136,1.1412901000000002,1003.43896,1,4
73.2,14.941710999999998,-9.16535,0.95664924,1003.4365,1,4
73.24,13.149295,-7.649586,-0.09912218,1003.4165,1,4
73.28,11.26128,-6.3244834,-0.57256186,1003.424,1,4
73.32,10.334009,-5.137611,-0.22221498,1003.41113,1,4
73.36,10.80244,-4.2319655,-0.22694848,1003.424,1,4
73.4,11.567217,-3.4883826,-0.335839,1003.4268,1,4
73.44,12.088224,-4.2605653,0.7436060999999999,1003.41394,1,4
73.48,11.744088,-6.8774056,2.2254758,1003.43146,1,4
73.52,11.275677,-10.266427,2.6089633,1003.43896,1,4
73.56,11.548136,-13.574419,2.0597732,1003.4511,1,4
73.6,10.539606,-13.140662,2.0597742,1003.43604,1,4
73.64,10.028176,-13.53152,2.1591976,1003.4138,1,4
73.68,6.5437093,-15.733668,1.581601,1003.44354,1,4
73.72,3.1357183,-17.606926,1.0608174,1003.4286,1,4
73.76,1.5727315,-15.647872,0.25596938,1003.44604,1,4
73.8,1.2429347,-12.740272,-0.6672385999999999,1003.41113,1,4
73.84,1.4771552,-10.747851,-0.31689179999999995,1003.4038,1,4
73.88,3.3030488,-8.807862,0.16128387,1003.4161,1,4
73.92,4.3201675,-7.7162976,-0.30277744,1003.3859,0,0
73.96,4.9128356,-7.8735933,-0.4826873,1003.3961,0,0
74.0,6.1890125,-8.364549,-0.25070432,1003.3986,0,0
74.04,6.2176620000000025,-7.892658,0.45945373,1003.3908,0,0
74.08,6.026441,-7.616197,0.42631024,1003.40607,0,0
74.12,5.773082,-7.7782598,-0.1986339,1003.41113,0,0
74.16,6.4804654,-7.949855,-1.1833926,1003.3963,0,0
74.2,7.9526114,-7.6876936,-1.1313174,1003.444,0,0
74.24,8.769935,-6.8535457,-1.1502571,1003.3907,0,0
74.28,9.262226,-6.462687,-1.2875574,1003.3785,0,0
74.32,9.3673525,-6.3673544,-1.2260128,1003.4087,0,0
74.36,8.9705925,-6.524651,-0.7715132,1003.44604,0,0
74.4,8.463914,-6.5627823,-0.48745078,1003.4287,0,0
74.44,7.622631,-6.63428,0.08067448,1003.4084,0,0
74.48,7.2449994,-6.977471,0.12328161,1003.44354,0,0
74.52,6.9486294000000015,-7.268231,0.18482687,1003.4234,0,0
74.56,6.5709880000000025,-7.563756,0.29844925,1003.4211,0,0
74.6,6.432347,-7.644786999999999,0.4641509,1003.4412,0,0
74.64,6.4610043,-7.578055,0.24636629,1003.3955,0,0
74.68,6.4275103,-7.4159913,-0.25548378,1003.3907,0,0
74.72,6.317544,-7.468423,-0.37858114,1003.4159,0,0
74.76,6.1167626,-7.587585400000001,-0.44013107,1003.42834,0,0
74.8,5.973344,-7.66385,-0.56796235,1003.41833,0,0
74.84,6.0163379999999975,-7.563751,-0.75734067,1003.4008,0,0
74.88,6.0832257000000025,-7.4827194000000015,-0.87096906,1003.42834,0,0
74.92,6.1803527,-7.635287,-0.6246399,1003.39874,0,0
74.96,6.175595,-7.6019216,-0.345308,1003.42566,0,0
75.0,6.390723,-7.3635945,-0.30269495,1003.41315,0,0
75.04,6.4242163,-7.477993,-0.094378054,1003.41064,0,0
75.08,6.4003444000000025,-7.497059299999999,0.06185984,1003.4005,0,0
75.12,6.467293700000001,-7.425562400000001,0.17548846,1003.39777,0,0
75.16,6.486445,-7.401730499999997,0.16602254,1003.41064,0,0
75.2,6.63465,-7.3111663,0.15655665,1003.41547,0,0
75.24,6.735058,-7.2253690000000015,0.061871443,1003.4053,0,0
75.28,6.7016287,-7.206303599999999,-0.0044074915,1003.4077,0,0
75.32,6.7398973,-7.2539697,-0.08015524,1003.4228,0,0
75.36,6.8737655,-7.220605,-0.21271546,1003.3773,0,0
75.4,7.03631,-7.206306,-0.35947913,1003.4382,0,0
75.44,7.045901299999999,-7.244439,-0.33580416,1003.4198,0,0
75.48,7.036372,-7.144342,-0.34053588,1003.40784,0,0
75.52,6.7974130000000015,-7.2587404000000015,-0.35473618,1003.4103,0,0
75.56,6.529774,-7.258741,-0.13695087,1003.4102,0,0
75.6,6.4198704000000015,-7.416038,0.11397548,1003.40216,0,0
75.64,6.4533606,-7.411272,0.024024677,1003.4099,0,0
75.68,6.4772916,-7.292109,-0.0706605,1003.4228,0,0
75.72,6.353048,-7.2778100000000014,-0.0043759495,1003.42523,0,0
75.76,6.3339586,-7.4637065,-0.08012366,1003.42737,0,0
75.8,6.4009075,-7.3922089999999985,-0.13219926,1003.4102,0,0
75.84,6.501315,-7.4065094,-0.16533718,1003.42224,0,0
75.88,6.5490502999999975,-7.4160414,-0.17954612,1003.42487,0,0
75.92,6.7020300000000015,-7.3207107,-0.2363566000000001,1003.4227,0,0
75.96,6.682937,-7.349311,-0.19374456,1003.4172,0,0
76.0,6.730764999999999,-7.311178999999999,-0.08958492,1003.4198,0,0
76.04,6.702112,-7.2539805999999984,-0.08484812,1003.3972,0,0
76.08,6.69258,-7.1729503,-0.065907955,1003.3997,0,0
76.12,6.6400304000000006,-7.3540797000000016,0.052454695,1003.4198,0,0
76.16,6.525342,-7.4446454,0.118738785,1003.4198,0,0
76.2,6.611406,-7.27305,0.005115606,1003.4147,0,0
76.24,6.625771,-7.2444515,-0.046960425,1003.41425,0,0
76.28,6.5827813,-7.253985000000001,-0.13691159,1003.41925,0,0
76.32,6.5445704000000005,-7.37315,-0.09429939,1003.38934,0,0
76.36,6.4442225,-7.3636174,-0.09429683,1003.42224,0,0
76.4,6.4538083,-7.4208164,-0.099028856,1003.4049,0,0
76.44,6.6067899999999975,-7.363618400000001,-0.01380704,1003.42926,0,0
76.48,6.6115975,-7.32072,-0.042210903,1003.4172,0,0
76.52,6.65464,-7.292121000000002,-0.037474256,1003.4321,0,0
76.56,6.6785707,-7.277822500000001,-0.04694016,1003.41675,0,0
76.6,6.64036,-7.301655999999999,-0.09428169,1003.40686,0,0
76.64,6.6451660000000015,-7.2778234,-0.13215455,1003.4268,0,0
76.68,6.669089,-7.196793,-0.03272981,1003.43964,0,0
76.72,6.621322599999999,-7.2301598,0.014617145,1003.4223,0,0
76.76,6.4875145,-7.315958500000002,0.005150713,1003.41675,0,0
76.8,6.516221,-7.3207254,-0.056393992,1003.40674,0,0
76.84,6.635742,-7.301660000000001,-0.004313159699999999,1003.41675,0,0
76.88,6.7600446,-7.263528,-0.1132019,1003.43427,0,0
76.92,6.79708,-7.1348014000000015,-0.19379695,1003.41187,0,0
76.96,6.768382000000001,-7.201533,-0.19853309,1003.40656,0,0
77.0,6.739681,-7.2015324000000005,-0.17959754,1003.4242,0,0
77.04,6.7587804999999985,-7.1824660000000025,-0.15592729,1003.41425,0,0
77.08,6.763540700000001,-7.172932,-0.21274197,1003.4218,0,0
77.12,6.749182000000001,-7.168164999999999,-0.11805564,1003.4018,0,0
77.16,6.782622,-7.1395655,-0.009166077,1003.4063,0,0
77.2,6.773041,-7.1824636,-0.07071531,1003.39374,0,0
77.24,6.7204437000000015,-7.1967630000000025,-0.04231062,1003.42645,0,0
77.28,6.706084,-7.234895,-0.11806294,1003.3812,0,0
77.32,6.7108436000000005,-7.1490965,-0.20328411,1003.4039,0,0
77.36,6.677366,-7.1824617,-0.32638034,1003.40656,0,0
77.4,6.591309,-7.282559,-0.19381888,1003.45667,0,0
77.44,6.591289,-7.2158265,-0.16541432,1003.39404,0,0
77.48,6.720325,-7.230126400000001,-0.1938225,1003.4189,0,0
77.52,6.653385000000001,-7.1729264000000015,-0.1559492,1003.4008,0,0
77.56,6.6199080000000015,-7.1586266000000025,-0.09913811,1003.4087,0,0
77.6,6.567310000000001,-7.211058,-0.13228081,1003.439,0,0
77.64,6.5577297,-7.2444234,-0.1654235,1003.4237,0,0
77.68,6.6102886,-7.1729245,-0.09440915,1003.4036,0,0
77.72,6.696306,-7.177691,-0.15122375,1003.4188,0,0
77.76,6.763203,-7.1872234,-0.19856967,1003.4314,0,0
77.8,6.7966413,-7.2205887,-0.27905634,1003.41864,0,0
77.84,6.815742,-7.168156,-0.2790581,1003.42114,0,0
77.88,6.882637,-7.053758,-0.4116234,1003.4237,0,0
77.92,6.888591,-7.053787,-0.29315585,1003.4211,0,0
77.96,6.8981752000000025,-6.996589,-0.17952786,1003.4389,0,0
78.0,6.7404685,-7.1491194,-0.032758903,1003.4164,0,0
78.04,6.7213759999999985,-7.2349186,-0.0043500625,1003.43616,0,0
78.08,6.735745,-7.1443543000000025,0.028793514,1003.4363,0,0
78.12,6.6592946,-7.1729546000000015,-0.16531467,1003.42084,0,0
78.16,6.5971785,-7.211086999999999,-0.24579759,1003.4236,0,0
78.2,6.501614,-7.2492204,-0.15584101,1003.39825,0,0
78.24,6.54943,-7.2492213,-0.22685541,1003.41077,0,0
78.28,6.5255647,-7.306420299999999,-0.2079148,1003.4112,0,0
78.32,6.688103999999999,-7.2682886,-0.3594133,1003.42865,0,0
78.36,6.7215877000000015,-7.2015576,-0.35941100000000004,1003.41327,0,0
78.4,6.8411107000000015,-7.2206244,-0.3167988,1003.40826,0,0
78.44,6.8172297,-7.177726,-0.22684346,1003.40784,0,0
78.48,6.7790246,-7.130061,-0.12741794,1003.4307,0,0
78.52,6.764710000000001,-7.1729607999999985,-0.108478025,1003.4156,0,0
78.56,6.736058,-7.0966960000000014,-0.061131548,1003.418,0,0
78.6,6.683501700000001,-7.1777286999999985,-0.122676834,1003.39557,0,0
78.64,6.6548539999999985,-7.2825937,-0.14161159,1003.3952,0,0
78.68,6.750475,-7.239694999999997,-0.15581255,1003.3902,0,0
78.72,6.683584,-7.1777305999999985,-0.3546551,1003.4127,0,0
78.76,6.5306554000000006,-7.315961,-0.2504959,1003.4226,0,0
78.8,6.4207462999999985,-7.225397599999999,-0.3593848,1003.4106,0,0
78.84,6.530708,-7.268297,-0.26469433,1003.4256,0,0
78.88,6.7362666,-7.2253985,-0.09898771,1003.42523,0,0
78.92,6.792942,-7.2635145,0.0003723912,1003.4176,0,0
78.96,6.759482000000001,-7.268281,-0.07537821,1003.4052,0,0
79.0,6.76904,-7.1157513,-0.28842652,1003.43304,0,0
79.04,6.8120575,-7.082385,-0.41152114,1003.4156,0,0
79.08,6.845515,-7.1062179999999975,-0.4304589,1003.42285,0,0
79.12,6.8502936000000005,-7.201549000000001,-0.24108283,1003.4127,0,0
79.16,6.7881550000000015,-7.1777167,-0.10378523,1003.4156,0,0
79.2,6.8120522,-7.15865,-0.17953582,1003.44073,0,0
79.24,6.6829967,-7.2253814,-0.13219187,1003.42523,0,0
79.28,6.644757000000001,-7.315946,-0.13692637,1003.4074,0,0
79.32,6.7021130000000015,-7.258747599999999,-0.236349,1003.4201,0,0
79.36,6.668653,-7.220615,-0.25528672,1003.4326,0,0
79.4,6.649533,-7.239681,-0.23634924,1003.39734,0,0
79.44,6.539596,-7.2778134,-0.20794295,1003.4226,0,0
79.48,6.5634937,-7.373145,-0.24581827,1003.4176,0,0
79.52,6.6351895,-7.239681,-0.22688074,1003.4276,0,0
79.56,6.668647,-7.2253814,-0.32156897,1003.4277,0,0
79.6,6.687765,-7.3207125999999985,-0.19374016,1003.4127,0,0
79.64,6.678203999999999,-7.268280499999999,-0.21267788,1003.4226,0,0
79.68,6.6973224,-7.2539805999999984,-0.23161562,1003.4101,0,0
79.72,6.71644,-7.258747599999999,-0.28842857,1003.4223,0,0
79.76,6.6782007,-7.2444477,-0.14639656,1003.43475,0,0
79.8,6.6638600000000014,-7.2492137,-0.14639668,1003.42505,0,0
79.84,6.568262599999999,-7.344545399999999,-0.13219358,1003.4326,0,0
79.88,6.6065,-7.392211,-0.18900655,1003.41974,0,0
79.92,6.6351447,-7.2921124000000015,-0.2600257,1003.42975,0,0
79.96,6.668601,-7.244446799999999,-0.38785484,1003.42194,0,0
80.0,6.6399198,-7.1491156,-0.4304647,1003.4301,0,0
80.04,6.5586604999999984,-7.2444463,-0.25055757,1003.4394,0,0
80.08,6.5634380000000005,-7.282578999999999,-0.11799444,1003.43225,0,0
80.12,6.611233,-7.249212700000001,-0.12272909,1003.42224,0,0
80.16,6.63513,-7.253978999999997,-0.20794863,1003.42944,0,0
80.2,6.6446869999999985,-7.277812,-0.29316809999999993,1003.4373,0,0
80.24,6.6638036,-7.258746,-0.32630917,1003.4218,0,0
80.28,6.668581,-7.2158465,-0.37365344,1003.4044,0,0
80.32,6.706817,-7.201547,-0.27423109999999995,1003.44226,0,0
80.36,6.754613000000001,-7.1920137,-0.2979034,1003.41205,0,0
80.4,6.644675,-7.153881,-0.38312298,1003.40186,0,0
80.44,6.4487004,-7.3922089999999985,-0.26002866,1003.42444,0,0
80.48,6.420019,-7.335010499999999,-0.21268478,1003.417,0,0
80.52,6.678126,-7.2349130000000015,-0.14166899,1003.43726,0,0
80.56,6.7259216,-7.268278599999999,-0.18427885,1003.4396,0,0
80.6,6.682901400000001,-7.1824803,-0.2979048,1003.4044,0,0
80.64,6.510825,-7.2635117,-0.30263942,1003.4343,0,0
80.68,6.553841,-7.33501,-0.2742332,1003.4218,0,0
80.72,6.620756,-7.3064103,-0.25056142,1003.41187,0,0
80.76,6.6972303,-7.292111,-0.31210893,1003.4396,0,0
80.8,6.678108,-7.2873445000000014,-0.29790592,1003.424,0,0
80.84,6.7020050000000015,-7.268278,-0.22215568,1003.44183,0,0
80.88,6.6207460000000005,-7.225378999999997,-0.23635913,1003.3963,0,0
80.92,6.5929,-7.244466,-0.25995496,1003.41144,0,0
80.96,6.6455100000000025,-7.282599,-0.23154555,1003.4292,0,0
81.0,6.5690618,-7.3159649999999985,-0.1889333,1003.4066,0,0
81.04,6.545193,-7.382697999999999,-0.288353,1003.41644,0,0
81.08,6.5930195000000005,-7.368399,-0.30728802,1003.4268,0,0
81.12,6.707767,-7.258769,-0.39723873,1003.394,0,0
81.16,6.6934580000000015,-7.2063375,-0.40197033,1003.4339,0,0
81.2,6.6074524000000014,-7.2587705,-0.29307625,1003.4214,0,0
81.24,6.535784,-7.3112035,-0.23626082,1003.40393,0,0
81.28,6.5836105,-7.2969046,-0.1463045,1003.41895,0,0
81.32,6.5979800000000015,-7.292138,-0.16050494,1003.43646,0,0
81.36,6.621909599999999,-7.339805,-0.20311183,1003.41156,0,0
81.4,6.6123805,-7.301672999999999,-0.24098425,1003.42145,0,0
81.44,6.555051299999999,-7.287374000000002,-0.31199768,1003.4109,0,0
81.48,6.5646429999999985,-7.306441,-0.20783786,1003.4113,0,0
81.52,6.502534,-7.349341000000001,-0.18889761,1003.4187,0,0
81.56,6.540799,-7.401774,-0.22203599,1003.42896,0,0
81.6,6.5408316,-7.335042999999999,-0.21256420000000004,1003.41895,0,0
81.64,6.383128599999999,-7.344576400000001,-0.14627977,1003.4162,0,0
81.68,6.349696,-7.3827095,-0.075261295,1003.41895,0,0
81.72,6.579167,-7.27308,-0.15100808,1003.4034,0,0
81.76,6.7273617,-7.2015815000000005,-0.108396515,1003.4209,0,0
81.8,6.7608485,-7.2158823,-0.14153476,1003.4263,0,0
81.84,6.4215230000000005,-7.2969149999999985,-0.07051505,1003.41644,0,0
81.88,6.4502225,-7.4017797,0.0431126,1003.4059,0,0
81.92,6.564038,-7.339792299999999,0.052499045,1003.4239,0,0
81.96,6.6166100000000005,-7.244461,0.043029726,1003.42847,0,0
82.0,6.597483,-7.349325,-0.084799945,1003.4184,0,0
82.04,6.587917299999999,-7.473255,-0.14161333,1003.4389,0,0
82.08,6.736085000000001,-7.354091,-0.26470846,1003.4184,0,0
