Timestamp,Ax,Ay,Az,P,Value,Type
0.0,6.158405,-0.25017887,6.5321302,1003.22974,0,0
0.04,7.3533163,-0.5218717,8.260183999999999,1003.1818,0,0
0.08,7.807355999999999,-1.3989172,8.137086,1003.1994,0,0
0.12,7.2815385,-1.1462886,6.896668400000001,1003.2375,0,0
0.16,6.4259114,-1.851738,6.3758802,1003.2326,0,0
0.2,6.540585,-2.3855913,6.887192,1003.22,0,0
0.24,7.2383966,-1.3750802,7.209128,1003.225,0,0
0.28,6.898989,-2.7144818,6.612589,1003.2301,0,0
0.32,8.834767999999997,-2.17586,7.5736694,1003.1924,0,0
0.36,7.778386999999999,-2.6811137,6.1344059999999985,1003.22784,0,0
0.4,7.6923137000000015,-3.0052388,5.2396,1003.2153,0,0
0.44,7.921702000000002,-3.076736,5.935554,1003.2102,0,0
0.48,7.8308444,-3.4056273,3.6298952,1003.2203,0,0
0.52,8.021993,-3.3817937000000007,3.8382046,1003.24554,0,0
0.56,8.194028999999999,-3.572455,4.5767684,1003.2329,0,0
0.6,7.386197,-4.0681763,3.0664895,1003.2052,0,0
0.64,8.581107000000001,-4.635395,3.7813807,1003.2459,0,0
0.68,8.332514999999999,-4.1349053,2.7161357,1003.22314,0,0
0.72,8.179523,-4.7831564,2.0864568,1003.2107,0,0
0.76,9.039846,-3.4294531000000004,2.7871447,1003.2234,0,0
0.8,7.997808,-4.3636975,2.9339075,1003.208,0,0
0.84,8.270218,-4.888017,1.7597713,1003.23083,0,0
0.88,7.973825,-6.0415235,2.422584,1003.1905,0,0
0.92,7.7876296,-5.021486,2.0533204,1003.1704,0,0
0.96,8.002689,-4.411366,1.205859,1003.2008,0,0
1.0,8.514099,-4.783156,2.2426908,1003.22864,0,0
1.04,8.41847,-5.359909,1.3194791,1003.23114,0,0
1.08,8.260708000000001,-6.041526,1.4615083999999998,1003.20593,0,0
1.12,8.839030000000003,-5.2979426,1.5703967,1003.2188,0,0
1.16,8.36102,-5.707865,2.7824016,1003.1734,0,0
1.2,8.203255,-5.3742056,1.2295139,1003.1658,0,0
1.24,8.012033,-5.1930760000000005,0.6187729999999999,1003.1556,0,0
1.28,7.878164999999999,-5.2550397,0.33944005,1003.1987,0,0
1.32,7.859016,-5.6411304000000015,0.70872086,1003.1987,0,0
1.36,7.414464,-6.065353,0.78446865,1003.1635,0,0
1.4,8.102724,-5.7221603,0.87441945,1003.1863,0,0
1.44,8.064452000000001,-5.7316923,0.78446263,1003.1888,0,0
1.48,7.7824135,-6.0367513,0.5619429,1003.18616,0,0
1.52,8.069172,-6.09395,0.66609704,1003.1686,0,0
1.56,7.844487700000001,-5.9700184,0.7134381,1003.1887,0,0
1.6,7.677165,-5.974784400000001,0.5714031999999999,1003.1838,0,0
1.64,7.653236,-6.0033827,0.5998069,1003.1863,0,0
1.68,7.911312599999999,-5.9986153,0.57139736,1003.19147,0,0
1.72,7.7583259999999985,-5.869917,0.5713944999999999,1003.15106,0,0
1.76,7.863452400000001,-5.9414153,0.73236156,1003.18396,0,0
1.8,7.8682046,-6.0462785000000006,0.7797029999999999,1003.20166,0,0
1.84,7.8155932,-5.879448,0.6613399,1003.1613,0,0
1.88,7.954177400000002,-5.7936497000000005,0.5571802,1003.1917,0,0
1.92,8.035272,-5.8270116,0.5713685000000001,1003.1816,0,0
1.96,7.915741400000001,-5.941408,0.789148,1003.1765,0,0
2.0,7.8440084,-5.989073,0.91223913,1003.169,0,0
2.04,7.767494,-5.879441,0.61870265,1003.1943,0,0
2.08,7.5714855,-6.065335299999999,0.6234337,1003.1919,0,0
2.12,7.5332103,-5.98907,0.7275872,1003.1793,0,0
2.16,7.456699,-5.8079405,0.6944433000000001,1003.174,0,0
2.2,7.5187974,-5.979535,0.6897053000000001,1003.1792,0,0
2.24,7.5522194,-6.0271997000000015,0.8980157,1003.1818,0,0
2.28,7.7529364,-6.341792,0.8885436999999999,1003.17694,0,0
2.32,7.7529,-6.046264,0.7796491,1003.192,0,0
2.36,7.867580999999999,-5.9699984000000015,0.68495786,1003.18445,0,0
2.4,7.738488999999999,-6.0557957,0.4245622000000001,1003.1845,0,0
2.44,7.5615997,-6.1177597000000015,0.3819492,1003.21747,0,0
2.48,7.6523786,-6.1177588,0.41035226,1003.16693,0,0
2.52,7.8005166,-6.0700927,0.38667685,1003.1946,0,0
2.56,7.580609,-5.869896400000001,0.59972167,1003.18695,0,0
2.6,7.5614543,-5.588669,0.37246716,1003.1645,0,0
2.64,7.6665735,-5.8412952,0.5144959,1003.18726,0,0
2.68,7.8242699999999985,-6.522912,0.91218257,1003.16437,0,0
2.72,7.9771895000000015,-6.3227153,0.7559441,1003.1898,0,0
2.76,8.115769,-6.031955,0.7985505,1003.19226,0,0
2.8,8.029691999999999,-5.91279,0.8932348,1003.1823,0,0
2.84,7.900603,-5.7602596,0.8364188,1003.1949,0,0
2.88,7.652017999999999,-5.936621,0.84115005,1003.17224,0,0
2.92,7.585222999999999,-6.0700874,0.6849259,1003.17224,0,0
2.96,7.589975,-6.084387,0.65178245,1003.1924,0,0
3.0,7.5995054,-6.1987834,0.5997014,1003.2177,0,0
3.04,7.671175,-6.0510187,0.5760268,1003.17474,0,0
3.08,7.752401,-5.950921,0.52394557,1003.1899,0,0
3.12,7.8336253,-6.041485,0.4623953,1003.1823,0,0
3.16,7.9148507,-6.0748496,0.5712839,1003.1951,0,0
3.2,7.9578414,-6.0128837,0.47659314,1003.17224,0,0
3.24,7.929131,-5.9699839999999975,0.67070097,1003.16974,0,0
3.28,7.757028,-5.9318504,0.68490136,1003.20776,0,0
3.32,7.651844,-5.9699826,0.72750837,1003.1952,0,0
3.36,7.637472,-6.07008,0.8127247,1003.2052,0,0
3.4,7.6565614,-6.0653120000000005,0.860066,1003.21295,0,0
3.44,7.6804333,-6.003346400000001,0.75590664,1003.19775,0,0
3.48,7.7329789999999985,-5.9509134,0.7038251999999999,1003.20526,0,0
3.52,7.718611,-6.0414777000000015,0.7416979,1003.2181,0,0
3.56,7.814177000000001,-5.969978,0.6517413000000001,1003.16986,0,0
3.6,7.7615705,-5.965211,0.6896140000000001,1003.16003,0,0
3.64,7.7424206999999985,-5.955677,0.7748305,1003.21027,0,0
3.68,7.6754727,-6.079607,0.708546,1003.17755,0,0
3.72,7.661101299999999,-6.189236599999999,0.8742472,1003.19293,0,0
3.76,7.6897516,-5.993807,0.78902537,1003.1826,0,0
3.8,7.7088423,-5.8508096,0.6611938,1003.17523,0,0
3.84,7.7566074999999985,-5.927074,0.61384684,1003.1753,0,0
3.88,7.7995977,-6.093903,0.7464075,1003.21075,0,0
3.92,7.8325443,-6.0414586,0.77003264,1003.1878,0,0
3.96,7.818152,-5.9461255,0.6516677,1003.2029,0,0
4.0,7.760747999999999,-5.907992,0.6279915,1003.1878,0,0
4.04,7.693780999999999,-6.0605206,0.7226751,1003.21045,0,0
4.08,7.7654285,-5.9699545,0.7794833999999999,1003.2029,0,0
4.12,7.8992133,-6.0128527,0.7084628000000001,1003.208,0,0
4.16,7.731874,-5.93182,0.8504905999999999,1003.2007,0,0
4.2,7.7127085000000015,-6.0128502999999975,0.85522085,1003.1903,0,0
4.24,7.6313996,-6.189212,0.9120289,1003.2133,0,0
4.28,7.7365059999999986,-6.0652795,0.82207066,1003.1726,0,0
4.32,7.8272758,-5.984247,0.7983944000000001,1003.20325,0,0
4.36,7.745972599999999,-6.079578,0.7179053000000001,1003.2283,0,0
4.4,7.6120887,-6.2225730000000015,0.73210394,1003.23083,0,0
4.44,7.5068803,-6.2035050000000025,0.59953576,1003.2209,0,0
4.48,7.545072599999999,-6.170138400000001,0.5947972,1003.20825,0,0
4.52,7.6215034,-6.098639,0.66580904,1003.2159,0,0
4.56,7.659689,-6.108171,0.77469546,1003.20074,0,0
4.6,7.669199000000001,-6.1129355000000025,0.8362381999999999,1003.22565,0,0
4.64,7.678712400000001,-6.0271373,0.7888899,1003.19574,0,0
4.68,7.693005,-6.0080695,0.82676095,1003.19293,0,0
4.72,7.7694325,-5.9842353,0.8646316,1003.17303,0,0
4.76,7.7789397,-6.0271335,0.79361075,1003.19574,0,0
4.8,7.77889,-6.070031,0.7888718000000001,1003.1904,0,0
4.84,7.817082400000001,-5.941333,0.70838267,1003.2386,0,0
4.88,7.788353999999999,-6.0080633,0.6610341,1003.1906,0,0
4.92,7.679566,-6.046224,0.72742087,1003.2131,0,0
4.96,7.6747837,-6.103422599999999,0.77476466,1003.1903,0,0
5.0,7.6126437,-6.027158,0.6895451,1003.1852,0,0
5.04,7.622201,-6.0605235,0.68007606,1003.20575,0,0
5.08,7.612638499999999,-6.122489,0.7226855,1003.1903,0,0
5.12,7.689113000000001,-6.031924,0.76529497,1003.1856,0,0
5.16,7.779927000000002,-5.9747252,0.7889666999999999,1003.1853,0,0
5.2,7.837281699999999,-5.9937916,0.64219993,1003.1831,0,0
5.24,7.7560225,-6.041457,0.8599823,1003.2029,0,0
5.28,7.8181577,-6.008091,0.7321532,1003.1932,0,0
5.32,7.6891007,-6.074823,0.73215294,1003.20294,0,0
5.36,7.751236,-5.9699583,0.6800743,1003.2054,0,0
5.4,7.8372693,-5.993791000000001,0.67060524,1003.19543,0,0
5.44,7.732111,-5.979491,0.71794903,1003.1932,0,0
5.48,7.760788000000002,-6.050989,0.73688644,1003.1702,0,0
5.52,7.6604095,-6.1272544999999985,0.75582385,1003.20575,0,0
5.56,7.646066999999999,-6.0319233,0.73688596,1003.1831,0,0
5.6,7.7607803,-5.998557,0.6516664000000001,1003.1903,0,0
5.64,7.746438499999999,-6.070056,0.7368855,1003.17755,0,0
5.68,7.7416563,-6.0938888,0.74161965,1003.1929,0,0
5.72,7.765552499999999,-6.070056,0.6706034000000001,1003.1979,0,0
5.76,7.7703295,-6.0462227,0.7605568,1003.21045,0,0
5.8,7.832464,-5.936592,0.64219654,1003.19794,0,0
5.84,7.789444400000002,-6.031923,0.5333049,1003.1878,0,0
5.88,7.5934696,-6.031923,0.6611336999999999,1003.208,0,0
5.92,7.6890306,-5.9604235,0.7416153,1003.2054,0,0
5.96,7.7081466,-5.9651904,0.7368806,1003.1878,0,0
6.0,7.7655,-5.9175242999999975,0.6942706,1003.1901,0,0
6.04,6.158405,-0.25017887,6.5321302,1003.22974,0,0
6.08,7.3533163,-0.5218717,8.260183999999999,1003.1818,0,0
6.12,7.807355999999999,-1.3989172,8.137086,1003.1994,0,0
6.16,7.2815385,-1.1462886,6.896668400000001,1003.2375,0,0
6.2,6.4259114,-1.851738,6.3758802,1003.2326,0,0
6.24,6.540585,-2.3855913,6.887192,1003.22,0,0
6.28,7.2383966,-1.3750802,7.209128,1003.225,0,0
6.32,6.898989,-2.7144818,6.612589,1003.2301,0,0
6.36,8.834767999999997,-2.17586,7.5736694,1003.1924,0,0
6.4,7.778386999999999,-2.6811137,6.1344059999999985,1003.22784,0,0
6.44,7.6923137000000015,-3.0052388,5.2396,1003.2153,0,0
6.48,7.921702000000002,-3.076736,5.935554,1003.2102,0,0
6.52,7.8308444,-3.4056273,3.6298952,1003.2203,0,0
6.56,8.021993,-3.3817937000000007,3.8382046,1003.24554,0,0
6.6,8.194028999999999,-3.572455,4.5767684,1003.2329,0,0
6.64,7.386197,-4.0681763,3.0664895,1003.2052,0,0
6.68,8.581107000000001,-4.635395,3.7813807,1003.2459,0,0
6.72,8.332514999999999,-4.1349053,2.7161357,1003.22314,0,0
6.76,8.179523,-4.7831564,2.0864568,1003.2107,0,0
6.8,9.039846,-3.4294531000000004,2.7871447,1003.2234,0,0
6.84,7.997808,-4.3636975,2.9339075,1003.208,0,0
6.88,8.270218,-4.888017,1.7597713,1003.23083,0,0
6.92,7.973825,-6.0415235,2.422584,1003.1905,0,0
6.96,7.7876296,-5.021486,2.0533204,1003.1704,0,0
7.0,8.002689,-4.411366,1.205859,1003.2008,0,0
7.04,8.514099,-4.783156,2.2426908,1003.22864,0,0
7.08,8.41847,-5.359909,1.3194791,1003.23114,0,0
7.12,8.260708000000001,-6.041526,1.4615083999999998,1003.20593,0,0
7.16,8.839030000000003,-5.2979426,1.5703967,1003.2188,0,0
7.2,8.36102,-5.707865,2.7824016,1003.1734,0,0
7.24,8.203255,-5.3742056,1.2295139,1003.1658,0,0
7.28,8.012033,-5.1930760000000005,0.6187729999999999,1003.1556,0,0
7.32,7.878164999999999,-5.2550397,0.33944005,1003.1987,0,0
7.36,7.859016,-5.6411304000000015,0.70872086,1003.1987,0,0
7.4,7.414464,-6.065353,0.78446865,1003.1635,0,0
7.44,8.102724,-5.7221603,0.87441945,1003.1863,0,0
7.48,8.064452000000001,-5.7316923,0.78446263,1003.1888,0,0
7.52,7.7824135,-6.0367513,0.5619429,1003.18616,0,0
7.56,8.069172,-6.09395,0.66609704,1003.1686,0,0
7.6,7.844487700000001,-5.9700184,0.7134381,1003.1887,0,0
7.64,7.677165,-5.974784400000001,0.5714031999999999,1003.1838,0,0
7.68,7.653236,-6.0033827,0.5998069,1003.1863,0,0
7.72,7.911312599999999,-5.9986153,0.57139736,1003.19147,0,0
7.76,7.7583259999999985,-5.869917,0.5713944999999999,1003.15106,0,0
7.8,7.863452400000001,-5.9414153,0.73236156,1003.18396,0,0
7.84,7.8682046,-6.0462785000000006,0.7797029999999999,1003.20166,0,0
7.88,7.8155932,-5.879448,0.6613399,1003.1613,0,0
7.92,7.954177400000002,-5.7936497000000005,0.5571802,1003.1917,0,0
7.96,8.035272,-5.8270116,0.5713685000000001,1003.1816,0,0
8.0,7.915741400000001,-5.941408,0.789148,1003.1765,0,0
8.04,7.8440084,-5.989073,0.91223913,1003.169,0,0
8.08,7.767494,-5.879441,0.61870265,1003.1943,0,0
8.12,7.5714855,-6.065335299999999,0.6234337,1003.1919,0,0
8.16,7.5332103,-5.98907,0.7275872,1003.1793,0,0
8.2,7.456699,-5.8079405,0.6944433000000001,1003.174,0,0
8.24,7.5187974,-5.979535,0.6897053000000001,1003.1792,0,0
8.28,7.5522194,-6.0271997000000015,0.8980157,1003.1818,0,0
8.32,7.7529364,-6.341792,0.8885436999999999,1003.17694,0,0
8.36,7.7529,-6.046264,0.7796491,1003.192,0,0
8.4,7.867580999999999,-5.9699984000000015,0.68495786,1003.18445,0,0
8.44,7.738488999999999,-6.0557957,0.4245622000000001,1003.1845,0,0
8.48,7.5615997,-6.1177597000000015,0.3819492,1003.21747,0,0
8.52,7.6523786,-6.1177588,0.41035226,1003.16693,0,0
8.56,7.8005166,-6.0700927,0.38667685,1003.1946,0,0
8.6,7.580609,-5.869896400000001,0.59972167,1003.18695,0,0
8.64,7.5614543,-5.588669,0.37246716,1003.1645,0,0
8.68,7.6665735,-5.8412952,0.5144959,1003.18726,0,0
8.72,7.8242699999999985,-6.522912,0.91218257,1003.16437,0,0
8.76,7.9771895000000015,-6.3227153,0.7559441,1003.1898,0,0
8.8,8.115769,-6.031955,0.7985505,1003.19226,0,0
8.84,8.029691999999999,-5.91279,0.8932348,1003.1823,0,0
8.88,7.900603,-5.7602596,0.8364188,1003.1949,0,0
8.92,7.652017999999999,-5.936621,0.84115005,1003.17224,0,0
8.96,7.585222999999999,-6.0700874,0.6849259,1003.17224,0,0
9.0,7.589975,-6.084387,0.65178245,1003.1924,0,0
9.04,7.5995054,-6.1987834,0.5997014,1003.2177,0,0
9.08,7.671175,-6.0510187,0.5760268,1003.17474,0,0
9.12,7.752401,-5.950921,0.52394557,1003.1899,0,0
9.16,7.8336253,-6.041485,0.4623953,1003.1823,0,0
9.2,7.9148507,-6.0748496,0.5712839,1003.1951,0,0
9.24,7.9578414,-6.0128837,0.47659314,1003.17224,0,0
9.28,7.929131,-5.9699839999999975,0.67070097,1003.16974,0,0
9.32,7.757028,-5.9318504,0.68490136,1003.20776,0,0
9.36,7.651844,-5.9699826,0.72750837,1003.1952,0,0
9.4,7.637472,-6.07008,0.8127247,1003.2052,0,0
9.44,7.6565614,-6.0653120000000005,0.860066,1003.21295,0,0
9.48,7.6804333,-6.003346400000001,0.75590664,1003.19775,0,0
9.52,7.7329789999999985,-5.9509134,0.7038251999999999,1003.20526,0,0
9.56,7.718611,-6.0414777000000015,0.7416979,1003.2181,0,0
9.6,7.814177000000001,-5.969978,0.6517413000000001,1003.16986,0,0
9.64,7.7615705,-5.965211,0.6896140000000001,1003.16003,0,0
9.68,7.7424206999999985,-5.955677,0.7748305,1003.21027,0,0
9.72,7.6754727,-6.079607,0.708546,1003.17755,0,0
9.76,7.661101299999999,-6.189236599999999,0.8742472,1003.19293,0,0
9.8,7.6897516,-5.993807,0.78902537,1003.1826,0,0
9.84,7.7088423,-5.8508096,0.6611938,1003.17523,0,0
9.88,7.7566074999999985,-5.927074,0.61384684,1003.1753,0,0
9.92,7.7995977,-6.093903,0.7464075,1003.21075,0,0
9.96,7.8325443,-6.0414586,0.77003264,1003.1878,0,0
10.0,7.818152,-5.9461255,0.6516677,1003.2029,0,0
10.04,7.760747999999999,-5.907992,0.6279915,1003.1878,0,0
10.08,7.693780999999999,-6.0605206,0.7226751,1003.21045,0,0
10.12,7.7654285,-5.9699545,0.7794833999999999,1003.2029,0,0
10.16,7.8992133,-6.0128527,0.7084628000000001,1003.208,0,0
10.2,7.731874,-5.93182,0.8504905999999999,1003.2007,0,0
10.24,7.7127085000000015,-6.0128502999999975,0.85522085,1003.1903,0,0
10.28,7.6313996,-6.189212,0.9120289,1003.2133,0,0
10.32,7.7365059999999986,-6.0652795,0.82207066,1003.1726,0,0
10.36,7.8272758,-5.984247,0.7983944000000001,1003.20325,0,0
10.4,7.745972599999999,-6.079578,0.7179053000000001,1003.2283,0,0
10.44,7.6120887,-6.2225730000000015,0.73210394,1003.23083,0,0
10.48,7.5068803,-6.2035050000000025,0.59953576,1003.2209,0,0
10.52,7.545072599999999,-6.170138400000001,0.5947972,1003.20825,0,0
10.56,7.6215034,-6.098639,0.66580904,1003.2159,0,0
10.6,7.659689,-6.108171,0.77469546,1003.20074,0,0
10.64,7.669199000000001,-6.1129355000000025,0.8362381999999999,1003.22565,0,0
10.68,7.678712400000001,-6.0271373,0.7888899,1003.19574,0,0
10.72,7.693005,-6.0080695,0.82676095,1003.19293,0,0
10.76,7.7694325,-5.9842353,0.8646316,1003.17303,0,0
10.8,7.7789397,-6.0271335,0.79361075,1003.19574,0,0
10.84,7.77889,-6.070031,0.7888718000000001,1003.1904,0,0
10.88,7.817082400000001,-5.941333,0.70838267,1003.2386,0,0
10.92,7.788353999999999,-6.0080633,0.6610341,1003.1906,0,0
10.96,7.679566,-6.046224,0.72742087,1003.2131,0,0
11.0,7.6747837,-6.103422599999999,0.77476466,1003.1903,0,0
11.04,7.6126437,-6.027158,0.6895451,1003.1852,0,0
11.08,7.622201,-6.0605235,0.68007606,1003.20575,0,0
11.12,7.612638499999999,-6.122489,0.7226855,1003.1903,0,0
11.16,7.689113000000001,-6.031924,0.76529497,1003.1856,0,0
11.2,7.779927000000002,-5.9747252,0.7889666999999999,1003.1853,0,0
11.24,7.837281699999999,-5.9937916,0.64219993,1003.1831,0,0
11.28,7.7560225,-6.041457,0.8599823,1003.2029,0,0
11.32,7.8181577,-6.008091,0.7321532,1003.1932,0,0
11.36,7.6891007,-6.074823,0.73215294,1003.20294,0,0
11.4,7.751236,-5.9699583,0.6800743,1003.2054,0,0
11.44,7.8372693,-5.993791000000001,0.67060524,1003.19543,0,0
11.48,7.732111,-5.979491,0.71794903,1003.1932,0,0
11.52,7.760788000000002,-6.050989,0.73688644,1003.1702,0,0
11.56,7.6604095,-6.1272544999999985,0.75582385,1003.20575,0,0
11.6,7.646066999999999,-6.0319233,0.73688596,1003.1831,0,0
11.64,7.7607803,-5.998557,0.6516664000000001,1003.1903,0,0
11.68,7.746438499999999,-6.070056,0.7368855,1003.17755,0,0
11.72,7.7416563,-6.0938888,0.74161965,1003.1929,0,0
11.76,7.765552499999999,-6.070056,0.6706034000000001,1003.1979,0,0
11.8,7.7703295,-6.0462227,0.7605568,1003.21045,0,0
11.84,7.832464,-5.936592,0.64219654,1003.19794,0,0
11.88,7.789444400000002,-6.031923,0.5333049,1003.1878,0,0
11.92,7.5934696,-6.031923,0.6611336999999999,1003.208,0,0
11.96,7.6890306,-5.9604235,0.7416153,1003.2054,0,0
12.0,7.7081466,-5.9651904,0.7368806,1003.1878,0,0
12.04,7.7655,-5.9175242999999975,0.6942706,1003.1901,0,0
12.08,7.7559369999999985,-6.0271554000000025,0.81263036,1003.1803,0,0
12.12,7.8132906,-5.969956400000001,0.76055163,1003.1828,0,0
12.16,7.794167999999999,-5.9270573,0.746348,1003.22815,0,0
12.2,7.7559257,-5.946123,0.6469252,1003.208,0,0
12.24,7.827619,-5.9413567,0.54750234,1003.1828,0,0
12.28,7.918431,-5.9413567,0.5759084,1003.1927,0,0
12.32,7.87063,-5.8984575,0.6421898,1003.1928,0,0
12.36,7.870626,-5.8650913000000005,0.6279861999999999,1003.1901,0,0
12.4,7.841943700000002,-5.8174257,0.6469235,1003.1775,0,0
12.44,7.7798023,-6.0033216,0.8078929,1003.21533,0,0
12.48,7.7702384,-5.912757,0.85523665,1003.2079,0,0
12.52,7.822812599999999,-5.8746243,0.793689,1003.20044,0,0
12.56,7.727213000000001,-5.965189,0.69426614,1003.17755,0,0
12.6,7.703310000000001,-6.012854,0.7084691,1003.1928,0,0
12.64,7.7989025,-5.989022,0.6563903,1003.1851,0,0
12.68,7.841917,-5.917523,0.6942651999999999,1003.18,0,0
12.72,7.7845559999999985,-5.9318230000000005,0.6611239999999999,1003.18256,0,0
12.76,7.8227906,-5.9794884,0.6137796,1003.17224,0,0
12.8,7.779767999999999,-6.060519,0.74160814,1003.1926,0,0
12.84,7.770205000000002,-5.9651885,0.7510766,1003.1951,0,0
12.88,7.7319627,-5.993788,0.72740424,1003.19006,0,0
12.92,7.736739,-5.9699545,0.7842168,1003.20013,0,0
12.96,7.712836299999997,-6.0795856,0.78421646,1003.1874,0,0
13.0,7.688933400000002,-6.093885,0.83156013,1003.19257,0,0
13.04,7.803644999999999,-5.969954,0.7368717,1003.2001,0,0
13.08,7.779742,-5.9985532999999975,0.65638644,1003.1924,0,0
13.12,7.6889224,-6.1034180000000005,0.736871,1003.1849,0,0
13.16,7.7271576,-6.1701492999999985,0.6895266999999999,1003.1848,0,0
13.2,7.717592999999999,-6.0462190000000025,0.75580794,1003.2077,0,0
13.24,7.6745715,-6.031919,0.65165067,1003.19745,0,0
13.28,7.574192,-6.1320169999999985,0.7842137,1003.19745,0,0
13.32,7.6219864,-6.0938845,0.79841655,1003.19226,0,0
13.36,7.703405,-6.0128565,0.77949375,1003.1874,0,0
13.4,7.7177453,-6.0033236,0.7889626999999999,1003.17975,0,0
13.44,7.6795077,-6.0176234000000015,0.7889628000000001,1003.1898,0,0
13.48,7.703408,-6.0652885,0.72741556,1003.20764,0,0
13.52,7.6986284,-6.084355,0.80790055,1003.205,0,0
13.56,7.8468037,-5.9937906,0.7368845,1003.1849,0,0
13.6,7.851584,-5.931825,0.670603,1003.18726,0,0
13.64,7.73687,-5.9985566,0.6990095000000001,1003.1845,0,0
13.68,7.727311,-6.0795884,0.74635357,1003.1895,0,0
13.72,7.751211,-6.055756,0.7700256999999999,1003.1796,0,0
13.76,7.6795144,-6.031923,0.7747601,1003.1971,0,0
13.8,7.636497,-6.103421,0.7416194,1003.1718,0,0
13.84,7.717755,-6.0414567,0.77476037,1003.192,0,0
13.88,7.7225356,-6.0366898,0.7558228,1003.1946,0,0
13.92,7.813353,-6.0319233,0.675338,1003.17444,0,0
13.96,7.636500999999999,-6.046223,0.75582296,1003.1971,0,0
14.0,7.6795197,-6.089122,0.67060375,1003.18207,0,0
14.04,7.7034197,-6.112954599999999,0.6753382,1003.187,0,0
14.08,7.827696,-5.993791000000001,0.6516663,1003.16943,0,0
14.12,7.794237599999999,-5.979491,0.7179479999999999,1003.1945,0,0
14.16,7.732100999999999,-5.9842577000000015,0.68480724,1003.187,0,0
14.2,7.6030474,-6.070056,0.7226826,1003.1795,0,0
14.24,7.6843047,-6.089122,0.6848075,1003.1921,0,0
14.28,7.712984599999999,-6.012857,0.7510892,1003.17163,0,0
14.32,7.746444,-6.089122,0.68007314,1003.2148,0,0
14.36,7.722680599999999,-6.0652924000000015,0.613804,1003.1665,0,0
14.4,7.8135033,-5.946129,0.5853980999999999,1003.1946,0,0
14.44,7.889986500000001,-5.9413624,0.66114914,1003.1997,0,0
14.48,7.894772,-5.917529599999999,0.7132281,1003.18445,0,0
14.52,7.7609444,-5.9651957000000015,0.7937135999999999,1003.1793,0,0
14.56,7.627115700000001,-6.0700603,0.8694646999999999,1003.19434,0,0
14.6,7.689259,-6.0652933,0.7937147,1003.2144,0,0
14.64,7.7609625,-5.9318304,0.65168315,1003.1816,0,0
14.68,7.765749,-5.9413633,0.55699563,1003.1816,0,0
14.72,7.7275167,-6.0795937,0.60434026,1003.18396,0,0
14.76,7.732302000000002,-6.0176287,0.6090753000000001,1003.17413,0,0
14.8,7.737089,-6.017629,0.67062306,1003.16895,0,0
14.84,7.713196000000001,-5.9985623,0.6185451999999999,1003.179,0,0
14.88,7.722761599999999,-6.0271620000000015,0.70376503,1003.1715,0,0
14.92,7.7227679999999985,-6.0128627,0.7369064000000001,1003.1816,0,0
14.96,7.7418933,-5.9842634000000015,0.75584465,1003.17645,0,0
15.0,7.7466793,-6.0271626,0.72743875,1003.17645,0,0
15.04,7.823162599999999,-5.984264,0.7605801999999999,1003.20166,0,0
15.08,7.7944894,-6.0557623,0.6469550000000001,1003.1663,0,0
15.12,7.7466984,-6.0509953,0.70376843,1003.19403,0,0
15.16,7.904438499999999,-5.9508986,0.64695615,1003.2043,0,0
15.2,7.8757652999999985,-5.8984666,0.6232847,1003.1891,0,0
15.24,7.7610564,-5.9890313,0.60434765,1003.1788,0,0
15.28,7.6128883,-6.1081953,0.74164593,1003.199,0,0
15.32,7.775408,-6.012864,0.71797454,1003.19147,0,0
15.36,7.813747,-5.941368,0.67063963,1003.1736,0,0
15.4,7.665583,-6.079599,0.722719,1003.2317,0,0
15.44,7.6034546,-6.065299,0.6280318,1003.15607,0,0
15.48,7.832896000000002,-6.1081986,0.6422359999999999,1003.1812,0,0
15.52,7.990639999999999,-5.941369,0.6469713,1003.1812,0,0
15.56,7.904613,-5.9842687,0.58542484,1003.20886,0,0
15.6,7.9524206999999985,-5.9413695,0.4528625,1003.18616,0,0
15.64,7.856835,-5.9223040000000005,0.6138332,1003.19885,0,0
15.68,7.914203,-5.8222065,0.5806933000000001,1003.1635,0,0
15.72,8.143642999999999,-5.850806,0.5238813,1003.19885,0,0
15.76,8.349185,-5.569579,0.7463991999999999,1003.1937,0,0
15.8,7.847316,-5.8412733,0.8694948,1003.2065,0,0
15.84,7.431482000000001,-6.3798947,1.120419,1003.21155,0,0
15.88,7.2928777,-6.108201,0.75587076,1003.1706,0,0
15.92,6.829247500000001,-6.332229,0.7511374,1003.18616,0,0
15.96,6.8770555999999985,-6.508592,0.30610424,1003.18866,0,0
16.0,8.038558,-5.726877,0.41026202,1003.1933,0,0
16.04,8.602584,-5.5314489999999985,0.2114179,1003.19116,0,0
16.08,8.368383,-5.688745,0.2492941,1003.1832,0,0
16.12,8.072045,-5.6982784,0.39132714,1003.17584,0,0
16.16,7.876084,-5.80791,0.6091107,1003.18085,0,0
16.2,7.799617299999999,-5.855575,0.91211355,1003.2085,0,0
16.24,7.9334617,-5.798377,0.90738,1003.18335,0,0
16.28,8.105544,-5.722112,0.8931777,1003.1733,0,0
16.32,8.1342325,-5.731646,0.81269366,1003.2237,0,0
16.36,8.082231,-5.7983913000000005,0.6233701,1003.211,0,0
16.4,7.972325,-5.8508244000000005,0.57602894,1003.206,0,0
16.44,7.8815446,-5.9175572,0.5286881,1003.2161,0,0
16.48,7.7764196,-6.003356,0.552363,1003.2235,0,0
16.52,7.7095337,-6.0605555,0.53342813,1003.2008,0,0
16.56,7.67133,-6.0843887,0.5855098000000001,1003.2336,0,0
16.6,7.714378999999999,-6.0510235,0.5523718000000001,1003.2259,0,0
16.64,7.7765474,-5.9127946,0.49556178,1003.20575,0,0
16.68,7.8482794999999985,-5.922329,0.5429090999999999,1003.216,0,0
16.72,7.8244114,-5.989061,0.6944128,1003.2208,0,0
16.76,7.8961415,-5.9604620000000015,0.7985728,1003.2105,0,0
16.8,7.896175,-5.8937316,0.79384136,1003.17535,0,0
16.84,7.776712400000001,-5.8413,0.6234058000000001,1003.19293,0,0
16.88,7.6954865,-5.922333,0.6612839,1003.21826,0,0
16.92,7.838915299999999,-6.07963,0.7038966999999999,1003.23334,0,0
16.96,7.872405499999997,-5.960466,0.60921144,1003.22327,0,0
17.0,7.8198586,-5.9366345,0.52872944,1003.20807,0,0
17.04,7.733855,-5.8937364,0.5334668,1003.23334,0,0
17.08,7.705209,-5.989068,0.63762677,1003.23315,0,0
17.12,8.044609,-6.5705886,0.76072437,1003.1851,0,0
17.16,8.283632,-6.4323597,0.7465241,1003.20526,0,0
17.2,7.853482,-5.3551183,0.39144677,1003.2079,0,0
17.24,7.327733999999999,-5.00716,0.112119734,1003.19507,0,0
17.28,7.2082705,-5.6315804000000025,-0.26189539999999994,1003.23303,0,0
17.32,7.4329557,-6.089171,0.012703272,1003.22046,0,0
17.36,7.594938000000001,-6.27982,0.81750333,1003.21783,0,0
17.4,7.7096615,-6.4657154000000014,1.0589586000000002,1003.21277,0,0
17.44,7.685773399999999,-6.2655205999999986,1.3477583999999998,1003.2305,0,0
17.48,7.4372334,-5.7983980000000015,1.2909466,1003.2329,0,0
17.52,7.365545699999997,-5.8508306,1.0258207,1003.2379,0,0
17.56,7.8578753,-5.9985940000000015,0.69914776,1003.19995,0,0
17.6,8.383664999999999,-6.2226230000000005,0.87432164,1003.22015,0,0
17.64,8.613105000000001,-6.06056,0.84591615,1003.2227,0,0
17.68,8.431482,-5.684002,0.36300778,1003.215,0,0
17.72,7.609366400000001,-6.255989,0.6849482,1003.20496,0,0
17.76,6.78247,-6.756478,0.38668165,1003.22253,0,0
17.8,6.9163146,-6.475251,-0.05361704,1003.22015,0,0
17.84,7.4851217,-6.480018,0.8506552,1003.21246,0,0
17.88,8.837816,-6.0176625,0.7417648,1003.2427,0,0
17.92,9.487879,-5.283613,0.007932873,1003.2276,0,0
17.96,9.22978,-5.212115,0.37721744,1003.2175,0,0
18.0,8.264269,-5.803168,0.5618601,1003.2148,0,0
18.04,7.0788884,-6.2655244,0.8838005999999999,1003.2249,0,0
18.08,6.835128299999999,-5.955698,0.26359442,1003.23,0,0
18.12,7.059788,-5.784103,0.37722102,1003.2198,0,0
18.16,7.891484700000001,-5.6554055,1.0637106,1003.22217,0,0
18.2,8.178283,-5.507643,0.5571303000000001,1003.1994,0,0
18.24,8.025339,-5.8889675000000015,1.210479,1003.22455,0,0
18.28,7.6859827,-5.6649400000000005,0.8080555,1003.18677,0,0
18.32,7.8771844,-5.436145,0.6139458999999999,1003.212,0,0
18.36,7.7910967000000015,-5.545775,0.869599,1003.2146,0,0
18.4,8.11135,-5.4456773,0.94061565,1003.2247,0,0
18.44,8.33601,-5.2025824,0.5287231,1003.1918,0,0
18.48,7.915393400000001,-5.631573,1.0258362,1003.2045,0,0
18.52,7.858042999999999,-5.7364373,0.850664,1003.2322,0,0
18.56,7.738556,-5.793637,0.9832281,1003.2171,0,0
18.6,7.901076,-5.7745705,1.082651,1003.2421,0,0
18.64,8.25957,-5.607741000000001,0.9926983,1003.19653,0,0
18.68,8.618062,-5.4409122000000005,1.0589806,1003.20667,0,0
18.72,8.484236,-5.502877,0.9406212,1003.24475,0,0
18.76,8.235692,-5.6744742,0.9595594,1003.22424,0,0
18.8,8.097086000000001,-5.5648427000000025,0.75598073,1003.2495,0,0
18.84,7.8246446,-5.84607,0.88854474,1003.21405,0,0
18.88,7.63824,-5.8651366,1.0684528,1003.22925,0,0
18.92,7.7959809999999985,-5.869903,1.0779222,1003.23694,0,0
18.96,7.8533463,-5.7745724,0.9500941,1003.23694,0,0
19.0,7.8915915,-5.7602725,1.1110643999999998,1003.2139,0,0
19.04,7.7243065999999985,-5.8270044,0.77492243,1003.22174,0,0
19.08,7.719533999999999,-5.8842034000000005,1.0495186,1003.2291,0,0
19.12,7.74344,-5.841305,1.0400505,1003.22156,0,0
19.16,7.982437599999999,-5.7888722,0.874347,1003.2316,0,0
19.2,8.078042,-5.745974,1.111068,1003.2292,0,0
19.24,8.240561999999999,-5.679242,1.2246943,1003.2038,1,1
19.28,8.164093,-5.574378500000001,0.732317,1003.229,1,1
19.32,7.8103952,-5.760274,0.91222507,1003.2364,1,1
19.36,7.9737334,-5.6935625,0.56195456,1003.2237,1,1
19.4,7.973768700000001,-5.6887975,0.44359767,1003.2338,1,1
19.44,8.012051,-5.745997,0.58089936,1003.2214,1,1
19.48,8.313217999999999,-5.4361715,0.78921694,1003.2163,1,1
19.52,8.208099,-5.24551,0.7986889,1003.2339,1,1
19.56,7.9356894,-5.3408422,0.8839119000000001,1003.21625,1,1
19.6,7.868816000000002,-5.388509,1.1016985,1003.23114,1,1
19.64,7.9118686,-5.498141,1.3336875,1003.2313,1,1
19.68,7.806754,-5.4218764,1.3100193000000002,1003.23895,1,1
19.72,7.758997,-5.431411,1.3336948999999998,1003.20074,1,1
19.76,7.9645715,-6.051064,1.3052924,1003.2159,1,1
19.8,7.8116555,-5.741239,1.1064508999999998,1003.2487,1,1
19.84,7.534467,-5.0643888,0.34421554,1003.2157,1,1
19.88,8.227578,-5.8508716,0.53832966,1003.24866,1,1
19.92,9.589863,-6.4800577000000015,1.8544979,1003.2359,1,1
19.96,10.6558,-5.4171166,2.8108516,1003.2184,1,1
20.0,11.712177,-4.430441,3.5920317,1003.211,1,1
20.04,13.418605,-2.4618535,2.9292185,1003.2283,1,1
20.08,12.453124,-2.4809203,2.9576290000000003,1003.23083,1,1
20.12,10.077602,-3.8584564,2.06283,1003.2157,1,1
20.16,8.624583,-4.864201,1.3290008,1003.2182,1,1
20.2,8.117962,-5.970043,0.88870484,1003.25366,1,1
20.24,7.4249306,-8.14836,1.9208087,1003.22296,1,1
20.28,6.78448,-9.030174,2.8771625,1003.23346,1,1
20.32,6.8657746,-9.311403,1.5278605,1003.22815,1,1
20.36,6.0531235,-10.012084,0.4815495,1003.22565,1,1
20.4,3.0418830000000003,-8.277059,-0.19073276,1003.1929,1,1
20.44,0.4273635,-9.449632,-3.2775617,1003.205,1,1
20.48,3.7063422,-9.030176,-3.2112768,1003.1928,1,1
20.52,9.437366,-8.968211,-1.2322923,1003.2308,1,1
20.56,11.64567,-10.150319,1.2438046,1003.2105,1,1
20.6,11.23942,-8.868116,1.7456546000000002,1003.20544,1,1
20.64,10.068401,-6.422873,1.8734865,1003.20776,1,1
20.68,8.706192999999999,-5.626859,1.5042063,1003.20764,1,1
20.72,8.295166,-6.098749,1.1491292,1003.2481,1,1
20.76,8.319102,-5.3075013,0.78931785,1003.22797,1,1
20.8,8.147062,-5.236004,2.4558315,1003.21014,1,1
20.84,9.719653,-4.0634317000000015,3.1565266,1003.2177,1,1
20.88,11.674626,-3.4628463,1.816693,1003.23285,1,1
20.92,13.223318,-3.6535094,2.7162333,1003.22534,1,1
20.96,13.730011,-3.577245200000001,3.9093063,1003.1998,1,1
21.0,12.573337,-4.8880496,2.0676262,1003.21747,1,1
21.04,11.450113,-5.1454444000000015,0.24014887,1003.22754,1,1
21.08,11.077324,-7.4000270000000015,0.046041545,1003.21246,1,1
21.12,10.948303999999998,-10.493523,1.2059739,1003.2224,1,1
21.16,11.435883,-11.127476,2.9198322,1003.2528,1,1
21.2,11.569753,-10.0979,3.4974324999999995,1003.2351,1,1
21.24,11.048785,-9.511615,2.8677597,1003.2427,1,1
21.28,10.021165,-9.454417,1.9729605,1003.2373,1,1
21.32,8.558578500000001,-9.554515,1.6557584,1003.19684,1,1
21.36,6.517261,-9.211315,1.6509929,1003.21716,1,1
21.4,4.868249400000002,-8.686995,1.6367913,1003.2021,1,1
21.44,4.227777,-8.586897,0.9597736,1003.17926,1,1
21.48,1.8331145,-10.0454645,-1.4026926000000002,1003.1692,1,1
21.52,0.93453056,-11.537396,-3.4905632000000004,1003.18427,1,1
21.56,2.913391,-10.569787,-1.5873306,1003.18427,1,1
21.6,6.722912299999999,-9.897702,0.6047003000000001,1003.1843,1,1
21.64,11.082116,-10.769982,-0.37058502,1003.17926,1,1
21.68,13.242605,-12.414445,0.06971635,1003.17444,1,1
21.72,14.160348,-12.128452,1.1870376,1003.2045,1,1
21.76,13.849682,-11.608898,1.5042447,1003.2045,1,1
21.8,13.873599,-9.4973135,1.2959325000000002,1003.2021,1,1
21.84,13.663309,-5.8842645,0.84616613,1003.21936,1,1
21.88,12.559193,-5.21218,1.2296546999999998,1003.2093,1,1
21.92,12.344122,-3.6916487,1.9824266,1003.1892,1,1
21.96,12.19119,-1.9375565,2.8677626,1003.2069,1,1
22.0,11.034497,-2.1568186000000003,2.266495,1003.1991,1,1
22.04,11.407341,-2.623942,1.9303539,1003.21924,1,1
22.08,13.438776,-3.8060484,2.2002168,1003.2116,1,1
22.12,14.781922,-5.2169495,2.4795485,1003.19653,1,1
22.16,14.60509,-7.3428345,2.8583026,1003.23413,1,1
22.2,13.290664,-10.393432,2.758882,1003.24176,1,1
22.24,12.817483,-13.034105,1.5752827,1003.2319,1,1
22.28,13.161649,-15.098023,1.4616587,1003.23914,1,1
22.32,11.603453,-14.421173,1.7788656000000005,1003.25433,1,1
22.36,9.1949215,-12.290534,2.8394172,1003.26184,1,1
22.4,7.8709539999999985,-10.217083,2.3423083,1003.21405,1,1
22.44,7.6654615,-8.601221,1.6794951,1003.2518,1,1
22.48,6.809914,-8.458226,1.5990137,1003.21655,1,1
22.52,5.2947555,-7.676512,1.8025967,1003.1938,1,1
22.56,4.601723000000002,-6.8328320000000025,1.3244253,1003.18115,1,1
22.6,3.9612687000000006,-7.4572515,1.0640366,1003.2063,1,1
22.64,3.5167839999999995,-7.857644,0.7136942,1003.16595,1,1
22.68,3.5598414,-8.739457000000002,0.29233578,1003.17865,1,1
22.72,3.0149853,-7.867178,0.74684244,1003.1606,1,1
22.76,5.5769962999999985,-7.647917999999999,0.21185808,1003.1933,1,1
22.8,8.12467,-9.068353,-2.3257794,1003.17334,1,1
22.84,11.01649,-13.401154,-2.571965,1003.1556,1,1
22.88,13.0336075,-13.501252,-1.0616863,1003.17065,1,1
22.92,13.602443,-12.114185,1.1824251,1003.2035,1,1
22.96,13.559461,-10.426825,1.7458227,1003.2211,1,1
23.0,12.861649,-8.300941,0.2118792,1003.20105,1,1
23.04,11.896166,-7.68129,1.1208882,1003.20856,1,1
23.08,11.22225,-6.8852759999999975,3.0477943,1003.1907,1,1
23.12,11.241408,-5.626906,3.795834,1003.1985,1,1
23.16,10.816048,-4.7736936,2.299766,1003.196,1,1
23.2,11.590413,-4.2732058,1.7269061999999995,1003.2211,1,1
23.24,13.664889000000002,-5.1073546,2.28557,1003.1882,1,1
23.28,14.185927,-5.1883864,2.924718,1003.2337,1,1
23.32,12.221462,-5.8986044,3.696429,1003.1956,1,1
23.36,10.256253,-7.867175,2.1813548,1003.2262,1,1
23.4,10.127207,-11.156099,0.6616115,1003.22845,1,1
23.44,10.691233,-14.540354999999998,0.377548,1003.2208,1,1
23.48,11.785817,-13.896871,2.0014498,1003.2206,1,1
23.52,11.44168,-11.556491,3.2181928,1003.2206,1,1
23.56,10.318435,-10.474483,2.7210808,1003.25867,1,1
23.6,9.357702,-10.164657,1.7268566000000003,1003.20557,1,1
23.64,8.019366,-9.740433,1.2297448999999998,1003.2155,1,1
23.68,6.289086,-9.106482000000002,0.93621266,1003.2107,1,1
23.72,5.1084830000000006,-8.501128999999999,0.42489773,1003.208,1,1
23.76,4.1238519999999985,-8.115038,0.022474136,1003.1702,1,1
23.8,3.3495321,-8.115039,0.060350116,1003.17804,1,1
23.84,2.3457828,-8.076907,0.20711754,1003.1826,1,1
23.88,2.0207639,-8.667959,0.04141407,1003.16003,1,1
23.92,3.2635224,-7.700349,-0.34680623,1003.13715,1,1
23.96,6.571155,-7.0330315,-1.9801751,1003.165,1,1
24.0,9.816651,-10.040728,-2.1695507000000003,1003.1803,1,1
24.04,13.320255,-12.60037,-1.4688579,1003.16754,1,1
24.08,15.342122,-11.847255,-0.119551614,1003.1674,1,1
24.12,15.418608,-9.759502,2.2902615,1003.1853,1,1
24.16,13.979895,-6.022522,1.3197091,1003.1951,1,1
24.2,11.695159,-5.064444,1.1161304,1003.20013,1,1
24.24,9.534696,-6.327582,0.8178637,1003.1825,1,1
24.28,8.244157000000001,-6.737506,1.5469627,1003.21796,1,1
24.32,8.927678,-5.7651286,2.1292953,1003.1799,1,1
24.36,11.250483,-3.5105428999999995,2.1340134,1003.20264,1,1
24.4,12.913856,-1.2797941000000002,1.7741988000000002,1003.19006,1,1
24.44,13.635608,-1.055766,2.5175006,1003.18,1,1
24.48,12.670088,-3.1816504,2.0345912,1003.19006,1,1
24.52,11.613753,-5.7603583,1.3812436,1003.18726,1,1
24.56,11.795386,-8.401031,0.6663486,1003.1848,1,1
24.6,11.637654,-9.5307045,-0.09115611,1003.2124,1,1
24.64,11.274391,-9.311443,0.6947552,1003.2124,1,1
24.68,10.189377,-8.915819,1.4096503,1003.2351,1,1
24.72,9.697058,-9.015916,1.6937148999999998,1003.2301,1,1
24.76,9.697059,-11.041703,2.6500647,1003.2097,1,1
24.8,8.009789,-12.357273,3.3886318,1003.17456,1,1
24.84,5.548191,-11.1275015,2.84891,1003.2047,1,1
24.88,5.065432,-9.01115,2.6405964,1003.1944,1,1
24.92,4.9363785,-7.1283600000000025,1.8736225,1003.19476,1,1
24.96,4.9220405,-6.012985,1.5516832,1003.1743,1,1
25.0,5.739389,-6.0272856,0.67581856,1003.17944,1,1
25.04,5.992719,-6.332345,-0.25212460000000003,1003.1895,0,0
25.08,6.7144710000000005,-6.5611396,0.33967608,1003.1973,0,0
25.12,7.1398745,-7.819511,0.57639647,1003.18695,0,0
25.16,7.359747,-8.586926,0.15976892,1003.19226,0,0
25.2,7.727792999999999,-8.181769000000001,-0.5503916,1003.17175,0,0
25.24,8.874948,-6.5849724,-2.6098576,1003.18695,0,0
25.28,9.481984,-5.3647345999999985,-3.6561608,1003.1765,0,0
25.32,9.094822,-5.8604565000000015,-2.15062,1003.1845,0,0
25.36,8.612594999999999,-6.380024,-0.08163643,1003.1995,0,0
25.4,8.397526,-6.3466587,1.5706729,1003.192,0,0
25.44,8.287612,-6.265628,2.3755238,1003.20935,0,0
25.48,8.67002,-5.893837,3.0241394,1003.1996,0,0
25.52,9.042867,-5.769907,3.137767,1003.1815,0,0
25.56,8.999869,-5.955803,2.8252983,1003.18896,0,0
25.6,8.478894,-5.874772,1.9825763,1003.1814,0,0
25.64,8.106092,-5.8509398,1.499669,1003.1943,0,0
25.68,8.067877000000001,-5.760376,1.1209188,1003.22473,0,0
25.72,7.9340625,-5.7699099999999985,0.69955873,1003.18646,0,0
25.76,8.139619,-5.7270117,-0.081615835,1003.19653,0,0
25.8,8.502907,-6.4229293,-0.5124446,1003.18896,0,0
25.84,8.861413,-6.966317,-0.9196013,1003.21185,0,0
25.88,8.698922,-6.9996834,-1.5776819,1003.19434,0,0
25.92,8.044111000000001,-7.033050500000001,-1.5256011,1003.2043,0,0
25.96,7.212447599999999,-6.8471546000000005,-0.43195158,1003.19147,0,0
26.0,6.820525,-6.7708907000000025,0.21666381,1003.2116,0,0
26.04,6.691493,-6.651726700000001,0.8842169,1003.21674,0,0
26.08,6.787112,-6.656494,1.281909,1003.2145,0,0
26.12,7.0213449999999975,-6.4753656,1.3908024,1003.1965,0,0
26.16,7.0070289999999975,-6.632663000000001,1.409742,1003.21185,0,0
26.2,7.0883083,-6.77566,1.5470419,1003.1558,0,0
26.24,6.8254404000000015,-7.1045527,1.5423095,1003.18866,0,0
26.28,6.734644,-6.780427499999999,1.4902328,1003.2141,0,0
26.32,7.0071187,-6.451535,1.0309979,1003.16864,0,0
26.36,7.135664,-6.422924,0.6285270000000001,1003.17377,0,0
26.4,7.417674000000001,-6.5611539999999975,0.6427303000000001,1003.194,0,0
26.44,7.513271,-6.4372234000000015,0.61905843,1003.20624,0,0
26.48,7.795281,-6.1369305,0.5433081,1003.19366,0,0
26.52,7.9099975,-5.9701010000000005,0.3823384,1003.18866,0,0
26.56,7.675788400000001,-6.146464,0.39654174,1003.19617,0,0
26.6,7.2695065,-6.446757,0.7658254,1003.2213,0,0
26.64,7.317305,-6.546854,1.0451553,1003.2188,0,0
26.68,7.3890038,-6.570687,0.99307704,1003.2164,0,0
26.72,7.2981887,-6.7613497,1.0167491,1003.17865,0,0
26.76,7.240832000000001,-6.923413,1.0593588,1003.20374,0,0
26.8,7.1117789999999985,-6.8519144,1.2487351999999998,1003.18365,0,0
26.84,6.9731655,-6.8948135,1.0309528,1003.2088,0,0
26.88,6.8919106,-6.89958,0.7658262,1003.17566,0,0
26.92,6.9349300000000005,-6.985378,0.7421543,1003.2063,0,0
26.96,6.9731693,-7.004444,0.6569351,1003.2063,0,0
27.0,7.020969,-6.975845,0.4864967000000001,1003.201,0,0
27.04,7.212161999999997,-6.785183,0.27818298,1003.1731,0,0
27.08,7.202603999999999,-6.775649499999999,0.34919915,1003.1782,0,0
27.12,7.2695227,-6.575454,0.28765202,1003.20593,0,0
27.16,7.207386,-6.6183534,0.46755952,1003.1857,0,0
27.2,7.293423700000001,-6.599286599999999,0.7137486999999999,1003.196,0,0
27.24,7.350783,-6.523022,0.96940666,1003.2009,0,0
27.28,7.312545299999999,-6.3943252999999975,0.94100034,1003.1628,0,0
27.32,7.3364463,-6.4801235,1.1114389999999998,1003.1907,0,0
27.36,7.3138046,-6.422955,1.1636326,1003.2057,0,0
27.4,7.3090734,-6.2561269999999976,1.1825746,1003.2286,0,0
27.44,7.323465299999999,-6.4849234,1.2346579,1003.193,0,0
27.48,7.3617525,-6.51829,1.102099,1003.2033,0,0
27.52,7.2805505,-6.508758,1.0074159,1003.20557,0,0
27.56,7.2041264000000025,-6.5611916,0.69968444,1003.19824,0,0
27.6,7.247192999999997,-6.5087605,0.5860632,1003.19574,0,0
27.64,7.199447,-6.632693,0.59553677,1003.2132,0,0
27.68,7.1421413000000005,-6.6231604000000015,0.70443285,1003.1979,0,0
27.72,7.1565331999999975,-6.6708274,0.6570935999999999,1003.20306,0,0
27.76,7.1517982,-6.8519583,0.78966105,1003.1928,0,0
27.8,7.1614130000000005,-6.6994289999999985,0.5955555,1003.20544,0,0
27.84,7.3526545,-6.618399,0.73285776,1003.1778,0,0
27.88,7.147175,-6.732798,0.85122263,1003.1651,0,0
27.92,7.252382799999999,-6.4611053,0.39199013,1003.1702,0,0
27.96,7.486644999999997,-6.4944725,0.6192463,1003.20776,0,0
28.0,7.5392747,-6.556439,0.8370337,1003.1954,0,0
28.04,7.481966000000001,-6.5183077,0.60978675,1003.1851,0,0
28.08,7.3434032999999985,-6.570741,0.86544937,1003.17505,0,0
28.12,7.190502,-6.5278435,0.8701886000000001,1003.20276,0,0
28.16,7.295709599999999,-6.2084856,0.5719258,1003.19763,0,0
28.2,7.405694500000001,-6.2513857,0.50091416,1003.1571,0,0
28.24,7.606497999999997,-6.2895193,0.4014964,1003.1901,0,0
28.28,7.869436,-6.132224,0.36362568,1003.162,0,0
28.32,7.9842057,-5.989229,0.35889632,1003.17957,0,0
28.36,7.423637400000001,-6.3514542999999986,0.5386818,1003.175,0,0
28.4,7.165525,-6.6422143,0.90323067,1003.2022,0,0
28.44,7.366273,-6.742311999999999,1.0689343999999998,1003.18207,0,0
28.48,7.5861399999999986,-6.442019,1.2157005,1003.1697,0,0
28.52,7.8681445,-5.6650696,0.9505736,1003.2075,0,0
28.56,7.992416,-5.350477,0.75172824,1003.16943,0,0
28.6,7.356698,-6.09406,0.81327516,1003.1747,0,0
28.64,6.993428999999999,-6.704178999999999,0.8322125,1003.17706,0,0
28.68,7.055563,-6.9901724000000005,0.7469928000000001,1003.17957,0,0
28.72,7.2993293,-6.7995104999999985,0.34930256,1003.1717,0,0
28.76,7.538316,-6.322854,0.06523792,1003.20215,0,0
28.8,7.58133,-6.1178919999999986,-0.23776434,1003.15436,0,0
28.84,7.624345299999999,-6.1369586,-0.18095179,1003.1871,0,0
28.88,7.5813227,-7.109336,0.19306582,1003.187,0,0
28.92,7.8155293000000015,-6.728011,0.77066284,1003.2122,0,0
28.96,8.389103,-5.59357,0.12204905,1003.1946,0,0
29.0,8.193127,-5.488706,0.37297216,1003.1944,0,0
29.04,7.375776299999999,-6.0797596,0.8464123,1003.187,0,0
29.08,6.8595533,-6.565948,1.5802445,1003.1742,0,0
29.12,7.079420599999999,-6.5993137000000015,1.2346327,1003.20715,0,0
29.16,7.490480000000002,-6.194156,0.94583374,1003.187,0,0
29.2,7.652989999999999,-6.0511594,0.31142318,1003.169,0,0
29.24,7.8154993,-5.8795633,0.036827385,1003.1893,0,0
29.28,8.001908,-5.9224625,0.013154983500000002,1003.20435,0,0
29.32,7.9158683,-6.2370553,0.46765754,1003.17175,0,0
29.36,7.816492,-6.1512814,0.6145155999999999,1003.19684,0,0
29.4,7.859545,-5.917721,0.6476596,1003.2219,0,0
29.44,7.5823554999999985,-5.9034224,0.8038986,1003.1943,0,0
29.48,7.118749,-6.151284,1.310483,1003.2118,0,0
29.52,6.894133,-6.570742,1.3294237,1003.1944,0,0
29.56,7.362591,-6.194185,0.6429385,1003.207,0,0
29.6,7.7115554999999985,-5.8986597000000005,0.5056443,1003.1944,0,0
29.64,7.979255999999999,-6.232319,0.09848849,1003.18146,0,0
29.68,7.281444,-7.1236663,0.22632097,1003.1664,0,0
29.72,6.8656383000000005,-7.109367,0.53406066,1003.1841,0,0
29.76,7.467928,-6.2418547,0.18371788,1003.1889,0,0
29.8,7.984184,-6.0607266,0.24053411,1003.2217,0,0
29.84,7.8169270000000015,-6.4563517999999975,0.52460176,1003.1967,0,0
29.88,7.5014949999999985,-6.1894255,0.9601702,1003.20404,0,0
29.92,7.3390207,-5.9987636,0.9365017,1003.17377,0,0
29.96,7.315158999999999,-6.065497,0.95544267,1003.199,0,0
30.0,7.606761,-6.127463,1.1022123,1003.2015,0,0
30.04,7.5828967,-6.208495,1.2868572,1003.1837,0,0
30.08,7.482558,-6.518322,1.0027964,1003.17615,0,0
30.12,7.5064936,-6.832916,0.76134515,1003.1633,0,0
30.16,7.7503,-6.8186173,0.96966237,1003.1913,0,0
30.2,7.7694545,-6.6994539999999985,0.8181645000000001,1003.186,0,0
30.24,7.8555274000000015,-6.618424,0.6998079,1003.18866,0,0
30.28,7.783865,-6.6946892999999985,0.5767164,1003.1935,0,0
30.32,7.7743444,-7.080781,0.9554724,1003.1935,0,0
30.36,7.367342,-6.975899000000001,1.3436278,1003.1812,0,0
30.4,6.8559100000000015,-6.008289,0.7707654,1003.18604,0,0
30.44,6.8893743,-5.6746300000000005,0.07007414,1003.1806,0,0
30.48,7.2048473,-5.646030400000001,-0.49331957,1003.196,0,0
30.52,7.520321000000001,-6.2132510000000005,-0.25186428,1003.2035,0,0
30.56,7.620703,-7.085531,0.22631116,1003.1781,0,0
30.6,7.759322999999997,-6.799537700000001,0.81811225,1003.1756,0,0
30.64,7.792788000000002,-6.1369862999999985,0.18843704,1003.17053,0,0
30.68,7.0471454,-6.337182,0.52458036,1003.18317,0,0
30.72,6.6360884,-6.823371400000001,0.571925,1003.18066,0,0
30.76,6.4831410000000025,-7.0569320000000015,0.8559899,1003.21106,0,0
30.8,6.994586,-6.4325137,0.9696162,1003.1578,0,0
30.84,7.463013,-6.1465206,0.6287396,1003.1578,0,0
30.88,7.730689,-6.43728,0.6429434,1003.17285,0,0
30.92,7.6685576,-6.2037196,0.65714717,1003.1779,0,0
30.96,7.74026,-6.0845556,0.7802422,1003.1351,0,0
31.0,7.544295,-6.1036215,0.48197535,1003.1804,0,0
31.04,7.4439254,-6.0988555,0.36361575,1003.14514,0,0
31.08,7.831094999999999,-6.146521599999999,0.40149152,1003.1804,0,0
31.12,7.735506,-6.1560545,0.43936738,1003.1727,0,0
31.16,7.381807000000001,-6.279985400000001,0.41569597,1003.1753,0,0
31.2,7.0615664,-6.5373797,0.43936852,1003.18536,0,0
31.24,6.846480400000001,-6.7709410000000005,0.39202505,1003.17255,0,0
31.28,6.975542,-6.5087805,0.3825568,1003.1701,0,0
31.32,7.329254,-6.451582,0.32574454,1003.19775,0,0
31.36,7.4485984,-6.475411,0.39201242,1003.1577,0,0
31.4,7.5680933,-6.370547,0.44882527,1003.1627,0,0
31.44,7.721047,-6.4325123,0.52931017,1003.1751,0,0
31.48,7.706708,-6.384846,0.21683942,1003.17487,0,0
31.52,7.711487299999999,-6.2656827,0.16002657,1003.1725,0,0
31.56,7.6684694,-6.2323165000000005,0.25471467,1003.1976,0,0
31.6,7.525075,-6.1560516,0.3825436,1003.17236,0,0
31.64,7.410360000000002,-6.246616,0.50090367,1003.1725,0,0
31.68,7.4677175999999985,-6.2656827,0.45829406,1003.1852,0,0
31.72,7.6445704,-6.2609157999999985,0.6050606,1003.18506,0,0
31.76,7.5919924,-6.1417519999999985,0.6950143,1003.1773,0,0
31.8,7.410360000000002,-6.346714,0.784968,1003.19244,0,0
31.84,7.185708999999999,-6.50401,0.8985936999999999,1003.1773,0,0
31.88,7.142691,-6.4801774000000005,0.72815514,1003.16705,0,0
31.92,7.2478466,-6.4849443,0.5482478,1003.152,0,0
31.96,7.309984,-6.4468117,0.5482478,1003.1972,0,0
32.0,7.257406,-6.6517735,0.77076477,1003.19226,0,0
32.04,7.2717456999999985,-6.7328053,0.71395195,1003.1722,0,0
32.08,7.286085000000001,-6.742338,0.60979503,1003.16724,0,0
32.12,7.333883,-6.6517735,0.47249728,1003.16455,0,0
32.16,7.926578,-6.3371806,0.5056381,1003.18207,0,0
32.2,8.199028,-6.0940866,-0.057756048,1003.1616,0,0
32.24,8.046074,-5.912957,0.08427608,1003.16956,0,0
32.28,7.40558,-6.4182120000000005,0.5766541999999999,1003.1443,0,0
32.32,7.587212599999999,-7.171328,0.4961693,1003.15906,0,0
32.36,7.3395100000000015,-7.6289387,1.0501722,1003.1899,0,0
32.4,6.880683,-5.927279,0.60040694,1003.1742,0,0
32.44,7.2774386,-5.412491,0.0038748272,1003.19183,0,0
32.48,7.306152,-6.3181379999999985,0.09383165,1003.1566,0,0
32.52,7.3922205,-6.790028,0.8655425999999999,1003.1715,0,0
32.56,7.478292999999999,-6.661331,1.4005336000000002,1003.1617,0,0
32.6,7.420967599999999,-6.4945025,0.7566576,1003.19684,0,0
32.64,7.616974000000001,-6.1846776,0.1980009,1003.1765,0,0
32.68,7.3302197,-6.1036468,0.24061367,1003.1843,0,0
32.72,7.010005499999999,-6.260944,0.396852,1003.2019,0,0
32.76,7.526258,-6.5421714999999985,0.5957001000000001,1003.17413,0,0
32.8,7.4832740000000015,-6.647036999999999,0.87029874,1003.1792,0,0
32.84,7.0913644,-6.108417,0.4442054,1003.1637,0,0
32.88,7.253903,-5.922522,0.22169074,1003.2068,0,0
32.92,8.071289,-6.1274843,0.9034486,1003.2094,0,0
32.96,8.166921,-6.127485299999999,1.0265464,1003.17896,0,0
33.0,8.01878,-6.079821,0.7377507,1003.1842,0,0
33.04,7.6125298,-6.361048,0.51997113,1003.1816,0,0
33.08,7.2445210000000015,-6.237118700000001,0.10808128,1003.18646,0,0
33.12,7.115501400000001,-6.1084228,-0.119167015,1003.1789,0,0
33.16,7.397539599999999,-6.0941234,0.30693218,1003.1613,1,2
33.2,8.114547,-6.2132883,0.95554894,1003.1839,1,2
33.24,7.947288,-6.3705854,1.0786464,1003.18896,1,2
33.28,7.7322288,-6.0464606,0.21698788,1003.1991,1,2
33.32,7.918672999999999,-5.1932483,0.25486603,1003.194,1,2
33.36,8.009712,-5.0931554000000006,0.75199896,1003.17084,1,2
33.4,8.396921,-5.2218537000000005,1.0076609,1003.17114,1,2
33.44,8.698088,-5.6460776,1.2301815,1003.17114,1,2
33.48,8.946679,-5.7366433,1.637344,1003.1988,1,2
33.52,8.731627,-5.5793485999999985,1.7983174,1003.194,1,2
33.56,8.014702,-5.7890778,0.83250296,1003.1759,1,2
33.6,7.536760000000001,-6.1990027,0.5437079,1003.1885,1,2
33.64,7.3790655,-7.037917599999999,0.49163303,1003.1709,1,2
33.68,6.6908183,-8.091328,0.9414055,1003.18115,1,2
33.72,4.2197013,-8.963609,-1.6861852,1003.1509,1,2
33.76,2.6471856,-9.54513,-2.5620463,1003.1786,1,2
33.8,2.8192978,-10.507975,-1.5820212,1003.1659,1,2
33.84,5.6537657,-11.003698,-1.4115785,1003.16846,1,2
33.88,7.0734067,-11.356423,-0.92393124,1003.1734,1,2
33.92,8.598208999999999,-10.498446,0.027688175,1003.1583,1,2
33.96,10.003511,-9.244843,1.0787295,1003.20123,1,2
34.0,10.051351,-8.105636,1.9403951,1003.18097,1,2
34.04,9.520832,-7.0808268,2.21026,1003.1937,1,2
34.08,9.152828,-6.2562137,1.6942134999999998,1003.1659,1,2
34.12,8.689229,-5.9702215,0.9556502,1003.1859,1,2
34.16,8.851785000000003,-5.221873,1.2823279,1003.20374,1,2
34.2,9.200752,-4.392493,1.0172051,1003.16565,1,2
34.24,9.2485895,-5.0312123,0.65265954,1003.1581,1,2
34.28,10.940681,-5.05028,1.3296831,1003.1708,1,2
34.32,12.436802,-3.9730384,1.9120188,1003.1855,1,2
34.36,11.7477665,-3.0054095000000003,2.3049064,1003.1884,1,2
34.4,11.341493,-5.798612,1.0124147,1003.1782,1,2
34.44,11.7477865,-10.150478,-0.2800768,1003.2211,1,2
34.48,13.573681,-13.544268,-0.08123095,1003.1881,1,2
34.52,14.061229999999998,-14.216352,1.8646102,1003.18304,1,2
34.56,13.229554,-14.011391,2.5368967,1003.193,1,2
34.6,11.360661,-13.305942000000002,1.149717,1003.2008,1,2
34.64,8.965989,-12.447961,0.38747883,1003.2134,1,2
34.68,6.5474190000000005,-11.29922,0.103415444,1003.22833,1,2
34.72,4.5972686,-9.316333,-0.20432,1003.188,1,2
34.76,3.9137661,-7.72907,-0.284804,1003.16534,1,2
34.8,2.8670002999999995,-7.128484200000001,-0.4883824000000001,1003.1528,1,2
34.84,1.8871497,-7.0283865999999975,-1.0281037,1003.14764,1,2
34.88,2.2838838,-8.067496,-1.6530442,1003.1276,1,2
34.92,3.942486,-9.6356945,-1.6246368999999998,1003.17053,1,2
34.96,5.2426023,-11.008463,0.34961087,1003.13513,1,2
35.0,6.992019,-11.933174,1.9877157,1003.1603,1,2
35.04,10.376131,-12.938918,2.4469540000000003,1003.16785,1,2
35.08,13.650307000000002,-14.202056,1.8220134,1003.1274,1,2
35.12,15.03646,-14.411785,2.0445313,1003.18536,1,2
35.16,14.58239,-12.977052,4.8662376,1003.1678,1,2
35.2,13.392228,-9.368768,6.1113870000000015,1003.19543,1,2
35.24,12.369359,-6.5565,4.7005352999999985,1003.1727,1,2
35.28,11.456428,-5.140833,2.2859898,1003.1599,1,2
35.32,9.864762,-4.9978365999999985,0.9082788,1003.1651,1,2
35.36,8.751613,-4.8167205,1.0361575,1003.165,1,2
35.4,7.7096456999999985,-4.549794,1.9404316,1003.18256,1,2
35.44,7.8578496,-5.05505,1.7510583,1003.1676,1,2
35.48,8.656108999999999,-5.970229,0.35914618,1003.1522,1,2
35.52,11.222896,-6.241924299999999,-0.19951072,1003.1624,1,2
35.56,12.728563,-5.941631299999999,0.14136916,1003.18756,1,2
35.6,11.734397,-7.881621400000001,0.936752,1003.18756,1,2
35.64,9.832064,-9.640482,1.0882558,1003.2454,1,2
35.68,9.363676,-10.112371,2.0777495,1003.23785,1,2
35.72,10.056777,-11.222979,2.45177,1003.22034,1,2
35.76,11.094027,-12.571917,2.8305254,1003.2379,1,2
35.8,10.644759,-12.938942,3.85316,1003.2127,1,2
35.84,8.713747,-12.381255,4.923138,1003.2506,1,2
35.88,7.71002,-10.693895,4.454435299999999,1003.20264,1,2
35.92,8.46526,-9.530855,3.895778,1003.22034,1,2
35.96,7.8104559999999985,-8.425015,3.8579051,1003.20264,1,2
36.0,6.864086,-7.805364,3.843705200000002,1003.18506,1,2
36.04,6.505635,-7.686201,3.526503,1003.19507,1,2
36.08,5.67398,-7.743400599999997,3.550178,1003.18994,1,2
36.12,4.6367927,-7.905463,3.8247762,1003.1523,1,2
36.16,3.967652,-8.062761,3.5501838,1003.16473,1,2
36.2,3.637873200000002,-7.924532000000001,1.8363315,1003.1519,1,2
36.24,4.359659,-7.3001137,0.69060886,1003.1598,1,2
36.28,4.8663464,-9.654794,-0.69656914,1003.14984,1,2
36.32,6.352899,-10.069484,-3.7076476,1003.1624,1,2
36.36,10.648751,-8.6633215,-6.2453976,1003.1418,1,2
36.4,11.853243,-10.569943,-4.498404,1003.1494,1,2
36.44,13.846403,-12.142907,-1.6577626,1003.167,1,2
36.48,13.822489,-10.941733,-1.6293577,1003.17456,1,2
36.52,12.235577,-9.159041,-1.1985285,1003.17957,1,2
36.56,10.968909,-7.30485,-0.63513595,1003.2022,1,2
36.6,9.79784,-6.856793400000001,-1.5867528999999998,1003.1972,1,2
36.64,9.530155,-6.361071,-2.3726654,1003.2022,1,2
36.68,10.271007,-6.5517330000000005,-1.0422995000000002,1003.1996,1,2
36.72,11.265188,-5.2123300000000015,0.39695787,1003.18695,1,2
36.76,11.236492,-4.511646,1.9024968,1003.1998,1,2
36.8,10.237495,-5.0359664,3.0292838,1003.2046,1,2
36.84,10.027165,-6.489766,3.767849,1003.17926,1,2
36.88,8.803519999999997,-7.900666,4.856761,1003.1945,1,2
36.92,7.469935400000002,-7.819634,5.131355,1003.1894,1,2
36.96,7.1257715,-8.825377,4.2838945,1003.2272,1,2
37.0,6.1315550000000005,-9.897852,3.805718,1003.2071,1,2
37.04,5.1516769999999985,-10.236278,3.3938231,1003.1868,1,2
37.08,6.38963,-10.95126,3.5453227,1003.2297,1,2
37.12,6.7002997,-10.279176,5.1218777,1003.222,1,2
37.16,7.6753616,-8.153291000000001,4.41645,1003.2145,1,2
37.2,8.961112,-6.1799355,3.630537,1003.22455,1,2
37.24,8.511792,-6.8186535999999975,2.9487810000000003,1003.22455,1,2
37.28,7.4841175,-7.752899,3.455361,1003.2171,1,2
37.32,7.297687,-9.554657,3.2612486,1003.2171,1,2
37.36,6.1800120000000005,-9.9646,3.180837,1003.2167,1,2
37.4,5.630350599999999,-10.784449,2.1440039,1003.20166,1,2
37.44,5.859795,-9.230551,1.5995483,1003.20917,1,2
37.48,6.968725,-7.261963400000001,1.3959705,1003.2319,1,2
37.52,7.776527400000001,-6.4421163,0.8893905000000001,1003.1967,1,2
37.56,8.1206875,-6.2752876,0.99354887,1003.1865,1,2
37.6,8.417049,-6.237155,1.6658355,1003.20166,1,2
37.64,8.56524,-6.546982,2.2907786,1003.2015,1,2
37.68,8.321484,-6.8615746,1.9025584,1003.1915,1,2
37.72,7.958234299999999,-6.5755820000000025,1.0977111000000002,1003.19904,1,2
37.76,7.771837,-6.1942572999999985,0.59586567,1003.2117,1,2
37.8,6.696396400000001,-6.237157,0.47277254,1003.2019,1,2
37.84,6.5099983,-6.5660496,0.16030313,1003.1965,1,2
37.88,6.1467480000000005,-8.229578,0.2265862,1003.1789,1,2
37.92,5.257719,-8.658569,0.43016693,1003.194,1,2
37.96,5.845651,-8.415475,0.065619215,1003.1813,1,2
38.0,6.686912,-7.0522404000000005,-1.0327615,1003.20905,1,2
38.04,7.5042715,-5.7462034000000015,-2.7324114,1003.19635,1,2
38.08,10.157079,-6.985509,-0.3794107,1003.204,1,2
38.12,9.483141,-5.922567400000001,-1.6624331,1003.19385,1,2
38.16,8.91436,-4.5164332,-1.8186672,1003.1888,1,2
38.2,9.487951,-5.5889087,-1.8660098000000005,1003.19366,1,2
38.24,9.076903,-6.5708199999999986,-1.3925678999999995,1003.1811,1,2
38.28,9.253771,-4.025479,-0.0053858645,1003.2316,1,2
38.32,8.914419,-2.8338397,1.03145,1003.20374,1,2
38.36,8.560823,-3.4153626000000004,0.8562871,1003.21106,1,2
38.4,8.092422000000001,-4.902529,-0.8907065999999999,1003.18835,1,2
38.44,8.068541,-5.808175,-1.2457851,1003.2063,1,2
38.48,7.8773675,-5.917806,-0.7107956999999999,1003.1884,0,0
38.52,7.700532400000001,-5.8463087,0.03250743,1003.201,0,0
38.56,7.5093594,-6.160902,0.58643454,1003.21606,0,0
38.6,7.7053509999999985,-6.666157000000001,0.7474061,1003.22363,0,0
38.64,7.4807186,-6.6280255000000015,0.72373575,1003.201,0,0
38.68,7.040995599999999,-6.9092525999999985,0.49175164,1003.21356,0,0
38.72,6.816363000000001,-6.9140190000000015,0.065656856,1003.20624,0,0
38.76,6.8068233,-6.4707303,0.041986678,1003.2163,0,0
38.8,6.935895,-6.489797,0.3307869,1003.2033,0,0
38.84,7.337417999999999,-6.818689999999999,0.6148531,1003.1932,0,0
38.88,7.155803999999999,-6.8234572,0.75688696,1003.2033,0,0
38.92,7.4378285,-6.4611993,1.022015,1003.2009,0,0
38.96,7.815454499999999,-6.2705374,0.26451220000000003,1003.22363,0,0
39.0,8.040125,-6.179973,-0.29888020000000004,1003.1983,0,0
39.04,8.4177475,-5.6937847,0.12721784,1003.2236,0,0
39.08,8.54204,-5.5460224,0.5722535,1003.2184,0,0
39.12,8.709353,-5.6413536,0.45389527,1003.1983,0,0
39.16,8.580318,-5.7557516,0.14142638,1003.2134,0,0
39.2,8.403482,-5.9607134,0.4065546,1003.198,0,0
39.24,8.131053,-6.1418433,0.61013573,1003.198,0,0
39.28,8.111952,-6.127544,0.5580589,1003.2133,0,0
39.32,7.810844,-5.9368824999999985,0.4065598,1003.1904,0,0
39.36,7.677153,-6.0751157,0.34029138,1003.1854,0,0
39.4,7.485984299999997,-6.1370816,0.26454297,1003.20557,0,0
39.44,7.352175,-6.118016000000001,0.4255151,1003.208,0,0
39.48,7.26138,-6.189514599999999,0.4302514,1003.2032,0,0
39.52,7.313982000000001,-6.046519,0.35923755,1003.1855,0,0
39.56,7.457401799999999,-5.9368887,0.4823344,1003.2057,0,0
39.6,7.6677339999999985,-5.9273562,0.54388356,1003.19543,0,0
39.64,7.701217999999999,-5.95119,0.56755793,1003.208,0,0
39.68,7.8111777,-5.9368906,0.26929265,1003.17755,0,0
39.72,7.772962,-6.1799855,0.19827864,1003.1928,0,0
39.76,7.7443056,-6.1895190000000015,0.32610968,1003.22064,0,0
39.8,7.8064684999999985,-6.056056,0.16987662,1003.1902,0,0
39.84,7.6726584,-5.9082932,0.43027112,1003.2155,0,0
39.88,7.5962024,-6.0036254,0.5533676,1003.23065,0,0
39.92,7.538864599999999,-6.0226917,0.23616421,1003.19775,0,0
39.96,7.6918479999999985,-5.9654937000000015,0.3592615,1003.19525,0,0
40.0,7.8639455,-5.827264,0.46342066,1003.20026,0,0
40.04,8.1077385,-5.7700663,0.40187544,1003.2329,0,0
40.08,8.131662,-5.874931299999999,0.359268,1003.20544,0,0
40.12,7.9835114,-5.860632,0.5391776,1003.1902,0,0
40.16,7.9883130000000016,-6.189525,0.34033465,1003.18756,0,0
40.2,8.031358,-6.208592,0.18883604,1003.22296,0,0
40.24,8.03616,-6.089428400000001,-0.057350922,1003.19745,0,0
40.28,7.840211999999997,-6.094196,-0.33667862,1003.1698,0,0
40.32,7.711181599999999,-6.3611236,-0.18990986,1003.2125,0,0
40.36,7.5528436,-6.2562440000000015,-0.22310601,1003.2077,0,0
40.4,7.5289435,-6.0941815,-0.21363737,1003.22034,0,0
40.44,7.543280999999999,-6.3611083,0.70483714,1003.1899,0,0
40.48,7.629316999999999,-6.1990457,0.59121126,1003.20996,0,0
40.52,7.753589999999999,-6.270543599999999,0.5770079,1003.1873,0,0
40.56,7.677111599999999,-5.9750175,0.36869404,1003.20496,0,0
40.6,7.825285000000001,-6.003617,-0.41721725,1003.1798,0,0
40.64,7.944779,-6.1847463,-0.33199814,1003.2049,0,0
40.68,7.7249064,-6.1752124,0.051488537,1003.1923,0,0
40.72,7.6388690000000015,-6.0751147,-0.062137287,1003.1974,0,0
40.76,7.901757000000001,-5.727156,0.07516034,1003.23785,0,0
40.8,8.083388000000001,-5.4888287,0.098832235,1003.1999,0,0
40.84,8.073828,-5.550793,0.21719225,1003.2276,0,0
40.88,8.561366,-5.9368844,0.35448986,1003.1823,0,0
40.92,8.542246,-5.8844523,0.03728466,1003.1899,0,0
40.96,8.65218,-5.4173300000000015,-0.18523249,1003.1898,0,0
41.0,8.37495,-5.2648,-0.53557855,1003.22003,0,0
41.04,7.85395,-5.393497,-0.84331495,1003.2301,0,0
41.08,7.700995,-5.7652884,-0.5450476,1003.1899,0,0
41.12,7.724892599999999,-5.622292,-0.20890501,1003.1874,0,0
41.16,8.131176,-5.4363956,-0.20417069,1003.20245,0,0
41.2,8.150293,-5.6270585,-0.29885888,1003.21246,0,0
41.24,8.116833999999999,-5.4030304000000005,-0.44089118,1003.19995,0,0
41.28,7.66753,-5.3839636,-0.12842055,1003.19464,0,0
41.32,7.9304185,-5.240967,-0.1615615,1003.1973,0,0
41.36,8.003086,-5.207625,-0.6491161999999999,1003.2021,0,0
41.4,8.046141,-5.407821,-0.40765837,1003.2125,0,0
41.44,8.304286,-5.3792230000000005,-0.26088858,1003.1923,0,0
41.48,8.414261,-5.3172584,-0.35557294,1003.19965,0,0
41.52,8.447751,-5.350625,-0.38871098,1003.1923,0,0
41.56,8.333081,-5.4602566,-0.19459626,1003.2075,0,0
41.6,8.390476,-5.3887596,-0.30348405,1003.2024,0,0
41.64,8.371393,-5.269596,-0.4171065,1003.1996,0,0
41.68,8.199356,-4.993137,-0.13303898,1003.20215,0,0
41.72,8.28543,-5.007437,0.013731036,1003.2097,0,0
41.76,7.9986777,-5.2552996,0.084750384,1003.2074,0,0
41.8,7.673691000000002,-5.4364295,-0.062012445,1003.2122,0,0
41.84,7.6450453,-5.865421,-0.009930968,1003.1973,0,0
41.88,7.7024436,-5.484097,-0.062005732,1003.2047,0,0
41.92,8.008391,-5.4793315,-0.49283284,1003.1973,0,0
41.96,7.888930999999999,-5.7986917,-0.52123594,1003.20483,0,0
42.0,7.917649000000001,-6.0989857,-0.44074765,1003.16956,0,0
42.04,7.998941,-5.674763,-0.7342774000000001,1003.20435,0,0
42.08,8.304888,-5.565133,-0.5875074,1003.20734,0,0
42.12,8.410078,-5.6128,-0.7153331,1003.17175,0,0
42.16,8.233263,-5.674766,-0.9993939,1003.20984,0,0
42.2,8.003871,-5.82253,-0.97098404,1003.20734,0,0
42.24,7.6358633,-5.917862,-0.649041,1003.1818,0,0
42.28,7.5976605,-6.0703926,-0.48806798,1003.2145,0,0
42.32,7.5355634999999985,-6.070393599999999,-0.5022675,1003.19183,0,0
42.36,7.663747,-5.808212,-0.38872162,1003.19183,0,0
42.4,7.831041,-5.684281,-0.20881416,1003.20935,0,0
42.44,7.8453813,-5.746246299999999,-0.095188275,1003.1994,0,0
42.48,7.974436999999999,-5.965508,0.28356420000000004,1003.2094,0,0
42.52,8.218210000000001,-6.0560730000000005,0.4445340999999999,1003.20166,0,0
42.56,8.404622999999999,-6.0465393,0.5250191,1003.2045,0,0
42.6,8.2086525,-6.175237,0.25042373,1003.18427,0,0
42.64,7.926644,-6.323,0.19361098,1003.2045,0,0
42.68,7.630298599999999,-6.1561704000000015,-0.07624999,1003.2069,0,0
42.72,7.4343276,-6.132338,-0.1898756,1003.2094,0,0
42.76,7.224017599999999,-6.246735,0.046844747,1003.2219,0,0
42.8,7.18578,-6.2562685,0.09418891,1003.1765,0,0
42.84,7.286157000000001,-6.408798,0.45400384,1003.21674,0,0
42.88,7.472571,-6.613760000000001,0.57236403,1003.18677,0,0
42.92,7.663764,-6.2896347000000015,0.21254939,1003.2145,0,0
42.96,7.940994,-6.0322404,0.34037846,1003.19934,0,0
43.0,7.9170966,-6.065606,0.2598937,1003.2019,0,0
43.04,8.050933,-6.1561704000000015,0.1699401,1003.2269,0,0
43.08,7.716346700000001,-6.323,0.27409714,1003.22437,0,0
43.12,7.6494308,-6.0942063,0.3451133,1003.19934,0,0
43.16,7.811946000000002,-5.951209,0.34984782,1003.18176,0,0
43.2,7.9935784,-5.7843795,0.3167071,1003.212,0,0
43.24,7.8167276,-6.103739,0.72386605,1003.2118,0,0
43.28,7.5634,-6.3706665000000005,0.89903915,1003.217,0,0
43.32,7.529942,-6.308701,0.57709974,1003.21924,0,0
43.36,7.515541000000002,-6.213368,0.3024986,1003.2142,0,0
43.4,7.510761,-6.1990685,0.40192097,1003.2068,0,0
43.44,7.711510700000002,-6.017939,0.38298327,1003.2093,0,0
43.48,7.792766,-6.013172,0.35931113,1003.2167,0,0
43.52,7.749747,-5.979807,0.4303271,1003.19147,0,0
43.56,7.931379,-5.9559739999999985,0.4587334,1003.199,0,0
43.6,7.787983,-6.2848663,0.6481095,1003.1814,0,0
43.64,7.649367,-6.3658977,0.6339060999999999,1003.2066,0,0
43.68,7.6254663,-6.1990685,0.12732472,1003.1787,0,0
43.72,7.5298696,-6.2896333,0.10365258,1003.19403,0,0
43.76,7.429492,-6.308699,0.12259008,1003.2066,0,0
43.8,7.505967999999997,-6.2372007000000025,0.042105068,1003.21155,0,0
43.84,7.439049199999999,-6.2181344,0.013698523999999998,1003.19885,0,0
43.88,7.429488,-6.3754306,0.40665403,1003.19385,0,0
43.92,7.5011845,-6.4183297,0.52974844,1003.20386,0,0
43.96,7.84055,-6.218134,0.4871387,1003.1763,0,0
44.0,7.993502,-5.865409400000001,0.43979454,1003.1988,0,0
44.04,8.026959,-5.8463426,0.6386394,1003.2038,0,0
44.08,7.778408,-6.022705,0.3593094,1003.1963,0,0
44.12,7.826205,-6.0703707,0.5676230999999999,1003.2088,0,0
44.16,7.8883405,-5.7939105,0.38298118,1003.1734,0,0
44.2,8.012615,-5.474551,0.19360492,1003.19366,0,0
44.24,7.859659700000001,-5.8558755,0.5486852,1003.19604,0,0
44.28,7.6445675,-6.4421620000000015,0.946375,1003.2139,0,0
44.32,7.6350064,-6.656657000000001,1.0457973,1003.2086,0,0
44.36,7.305011,-6.5613213,0.75698143,1003.19867,0,0
44.4,7.061232,-6.1990633,0.515526,1003.18604,0,0
44.44,7.429267999999999,-5.946435,0.18411681,1003.19867,0,0
44.48,7.701708,-5.9750347,0.023146227,1003.17584,0,0
44.52,8.069745,-5.8320374,0.06575510000000001,1003.1834,0,0
44.56,8.007599,-6.046532,0.43030345,1003.1884,0,0
44.6,7.9358935,-5.9941,0.27406737,1003.2011,0,0
44.64,7.9263244,-5.936901,0.37822342,1003.1761,0,0
44.68,7.892857000000001,-5.9940989999999985,0.50605154,1003.1937,0,0
44.72,7.7542339999999985,-5.8940015,0.50605077,1003.1834,0,0
44.76,7.878499499999997,-5.7748375,0.6480821,1003.20123,0,0
44.8,7.835472999999999,-5.779604,0.55812764,1003.18317,0,0
44.84,7.845023599999997,-5.8558683,0.9037384,1003.17053,0,0
44.88,8.112685,-5.712871,0.908472,1003.1907,0,0
44.92,8.083997,-5.717638,0.6338756999999999,1003.18066,0,0
44.96,7.7876406,-5.9178333,0.7001566,1003.1756,0,0
45.0,7.6920350000000015,-6.156160400000001,0.60546774,1003.18567,0,0
45.04,7.5151734,-6.1466274000000025,0.5297164000000001,1003.1781,0,0
45.08,7.864090400000001,-6.0036305999999975,0.558122,1003.19824,0,0
45.12,7.8736415,-5.989331,0.037336703,1003.17816,0,0
45.16,7.625082499999999,-6.199058999999999,0.3498066,1003.2159,0,0
45.2,7.462561,-6.322989,0.07994477,1003.1982,0,0
45.24,7.5055704,-6.2181244000000016,0.013662269,1003.17554,0,0
45.28,7.711094,-6.0465282999999985,0.33086663,1003.1932,0,0
45.32,7.672846000000002,-6.022695,0.52971077,1003.1601,0,0
45.36,7.8070784,-5.917841,0.73806095,1003.1731,0,0
45.4,7.830985000000001,-5.9321404000000015,0.65757686,1003.1728,0,0
45.44,7.91703,-5.913075,0.7712033,1003.19574,0,0
45.48,7.983954,-5.798677400000001,0.76173514,1003.18823,0,0
45.52,8.156035000000001,-5.798678,0.6717821999999999,1003.1806,0,0
45.56,8.012649,-5.951208,0.63390756,1003.18567,0,0
45.6,7.969637400000001,-5.9559746,0.6339083000000001,1003.1728,0,0
45.64,8.050901,-5.822511,0.43032956,1003.20294,0,0
45.68,8.055688,-5.751013,0.34037656,1003.16284,0,0
45.72,8.007897999999999,-5.917843,0.4255965,1003.1904,0,0
45.76,8.017466,-5.9845742999999985,0.67178625,1003.1776,0,0
45.8,7.9696755,-5.851111,0.6339117,1003.2032,0,0
45.84,7.735472,-5.936909,0.4492706,1003.19574,0,0
45.88,7.477369,-6.0894394,0.61024094,1003.1754,0,0
45.92,7.41046,-5.903544,0.6859921999999999,1003.20044,0,0
45.96,7.463045599999999,-5.903544,0.75700897,1003.1801,0,0
46.0,7.6207867,-6.0608406,0.67179036,1003.1652,0,0
46.04,7.72117,-6.0703735,0.56763417,1003.1776,0,0
46.08,7.7163973,-6.046541,0.6481197,1003.20044,0,0
46.12,7.764203,-5.9798098,0.5913075,1003.2055,0,0
46.16,7.974522,-6.13234,0.70019954,1003.1876,0,0
46.2,7.902831599999999,-6.0799080000000005,0.6765281999999999,1003.1827,0,0
46.24,7.8502603,-5.932144,0.4729494000000001,1003.198,0,0
46.28,7.788132000000001,-5.8987794000000005,0.38299647,1003.1926,0,0
46.32,7.726002,-6.137107,0.67179585,1003.1952,0,0
46.36,7.635880999999999,-6.146657,0.7334068,1003.18256,0,0
46.4,7.626357,-6.032261,0.5629714,1003.20276,0,0
46.44,7.664629,-6.0274954,0.53930247,1003.20276,0,0
46.48,7.674224400000001,-6.084695,0.5771809,1003.21027,0,0
46.52,7.645581,-6.051329,0.5061681,1003.17004,0,0
46.56,7.7077537,-6.0989957000000015,0.5677187,1003.18005,0,0
46.6,7.774704499999999,-6.146662,0.57719046,1003.21027,0,0
46.64,7.7317214,-5.9989,0.5203809,1003.1698,0,0
46.68,7.6743994,-6.094232,0.4635713,1003.17255,0,0
46.72,7.631417,-6.1371317,0.49671537,1003.1976,0,0
46.76,7.6123323,-6.3087287000000005,0.454109,1003.1877,0,0
46.8,7.832235000000002,-6.1419,0.5298623,1003.2304,0,0
46.84,7.8991914,-5.9083394999999985,0.5724756,1003.1977,0,0
46.88,7.770170699999999,-5.956006,0.7097764,1003.21533,0,0
46.92,7.5359936,-6.2324667,0.64823216,1003.1973,0,0
46.96,7.555150500000001,-6.265834,0.581954,1003.1571,0,0
47.0,7.7129197,-6.1276045,0.51567554,1003.19495,0,0
47.04,7.7272925,-5.994142,0.6008979,1003.20483,0,0
47.08,7.6938667,-6.046575,0.45886877,1003.19495,0,0
47.12,7.689125,-6.1323743,0.5014819,1003.1851,0,0
47.16,7.7799745,-5.989378,0.46360973,1003.19495,0,0
47.2,7.780010000000001,-5.8225493,0.50148815,1003.1848,0,0
47.24,7.8469625,-5.8940480000000015,0.6198516,1003.17474,0,0
47.28,7.923472999999999,-6.0275135,0.68613625,1003.19995,0,0
47.32,7.928283,-6.1419106,0.8991872999999999,1003.2027,0,0
47.36,7.8225729999999984,-5.936936,0.77604204,1003.1873,0,0
47.4,7.6218324000000015,-5.913103,0.5251195,1003.18445,0,0
47.44,7.5788255000000015,-5.975069,0.5014486,1003.18713,0,0
47.48,7.593176400000001,-6.032267,0.53459036,1003.18933,0,0
47.52,7.731800999999999,-6.0227346,0.43043453,1003.2026,0,0
47.56,7.8321886,-5.94647,0.53932685,1003.2021,0,0
47.6,7.9421353,-5.9321704,0.36888942,1003.1946,0,0
47.64,7.9278064,-5.98937,0.4304376,1003.1997,0,0
47.68,7.7939843999999985,-5.9750705,0.4683139,1003.2224,0,0
47.72,7.736637599999999,-6.027503,0.58194065,1003.19214,0,0
47.76,7.71753,-5.9703040000000005,0.5440664000000001,1003.1795,0,0
47.8,7.798798,-5.989371,0.5393331,1003.1846,0,0
47.84,7.813149,-6.027504,0.4919901,1003.207,0,0
47.88,7.9183164,-5.9321723,0.57721037,1003.18933,0,0
47.92,7.913546000000001,-5.889274,0.42571044,1003.1845,0,0
47.96,7.8657584,-5.8845077,0.41624254,1003.1895,0,0
48.0,7.6650195,-6.008438,0.44465014,1003.18695,0,0
48.04,7.6506915,-6.06087,0.48252642,1003.18933,0,0
48.08,7.746299,-5.941707,0.63876283,1003.1919,0,0
48.12,7.846686,-5.8749757,0.6292949999999999,1003.1718,0,0
48.16,7.8227983,-5.970307,0.6056239999999999,1003.2045,0,0
48.2,7.8610473,-5.860677,0.5724842,1003.1893,0,0
48.24,7.9470953999999985,-5.84161,0.45412514,1003.2247,0,0
48.28,7.798933,-5.874976599999999,0.38311014,1003.16895,0,0
48.32,7.693788,-5.965542,0.5156744000000001,1003.17926,0,0
48.36,7.698109,-6.060861599999999,0.5061635999999999,1003.19403,0,0
48.4,7.7650190000000014,-5.9893627,0.48722535,1003.17413,0,0
48.44,7.7028737,-6.037028,0.5819127,1003.18396,0,0
48.48,7.6359496,-6.0751605,0.47775516,1003.1867,0,0
48.52,7.7076387,-6.2896550000000016,0.45408246,1003.2045,0,0
48.56,7.8127875,-6.056094,0.28837758,1003.19434,0,0
48.6,7.7888813,-5.9798290000000005,0.4256747,1003.1789,0,0
48.64,7.459067,-6.089459,0.28837624,1003.17145,0,0
48.68,7.5068574,-6.332554,0.3546572,1003.1893,0,0
48.72,7.396915400000001,-6.313487,0.5156264,1003.189,0,0
48.76,7.5642,-6.4612503,0.345187,1003.2117,0,0
48.8,7.578532000000001,-6.1847900000000005,0.3735928,1003.1764,0,0
48.84,7.774497,-5.989361,0.38779536,1003.1664,0,0
48.88,7.9178834,-5.9702945,0.29784095,1003.1941,0,0
48.92,7.9561133,-6.0894585,0.66712385,1003.1789,0,0
48.96,7.865289999999999,-6.151423,0.6671232,1003.2166,0,0
49.0,7.5402565,-6.299186,0.63398165,1003.2091,0,0
49.04,7.3920746,-6.370684,0.5913713,1003.1965,0,0
49.08,7.2916922999999985,-6.3230185999999975,0.5440265999999999,1003.1965,0,0
49.12,7.5450134,-6.5994787,0.62924516,1003.1714,0,0
49.16,7.5067673,-6.585178999999999,0.4777435,1003.18365,0,0
49.2,7.4446225,-6.170489,0.3167731,1003.16595,0,0
49.24,7.306000999999997,-6.3897495000000015,0.37358525,1003.18866,0,0
49.28,7.4207087,-6.51368,0.3309749,1003.1686,0,0
49.32,7.492398,-6.589945299999999,0.36411506,1003.17596,0,0
49.36,7.688707400000001,-6.3897575999999985,0.48250607,1003.2013,0,0
49.4,7.7556305,-6.1943293,0.24578635,1003.20123,0,0
49.44,7.540546000000001,-6.3849915999999975,0.4020223,1003.1457,0,0
49.48,7.363699,-6.451723,0.47303894,1003.1709,0,0
49.52,7.1772933000000005,-6.2801275,0.50144595,1003.1709,0,0
49.56,7.110382,-6.261061,0.56772816,1003.1557,0,0
49.6,7.0578103,-6.437424,0.5582599,1003.1585,0,0
49.64,7.205991,-6.475557,0.7997152,1003.1813,0,0
49.68,7.425867999999999,-6.5518220000000005,0.6482148,1003.1711,0,0
49.72,7.392415,-6.5232230000000015,0.48724556,1003.15076,0,0
49.76,7.344624,-6.542289,0.34521404,1003.1834,0,0
49.8,7.301611,-6.532756299999999,0.084822275,1003.1633,0,0
49.84,7.368535,-6.480324,0.14163572,1003.1834,0,0
49.88,7.507155,-6.2944283,0.1605739,1003.1759,0,0
49.92,7.784389999999997,-6.1371325999999975,0.2126529,1003.1784,0,0
49.96,7.7031402999999985,-6.246763,0.49198344,1003.17084,0,0
50.0,7.660128599999997,-6.3134947,0.667157,1003.19324,0,0
50.04,7.6123357,-6.2086305999999984,0.6766263000000001,1003.1832,0,0
50.08,7.574105,-6.289663,0.6245485,1003.16815,0,0
50.12,7.669707000000002,-6.2515306,0.68136185,1003.1782,0,0
50.16,7.6744924,-6.189565,0.5535335,1003.201,0,0
50.2,7.7605352,-6.2133985,0.43990842,1003.1959,0,0
50.24,7.741422,-6.284896400000001,0.39729932,1003.1807,0,0
50.28,7.7318687000000015,-6.3945274,0.40203425,1003.1807,0,0
50.32,7.6888565999999985,-6.1276007,0.22686185,1003.17804,0,0
50.36,7.608042999999999,-5.960782,0.20796482,1003.2009,0,0
50.4,7.483792299999997,-6.1037792999999985,0.406812,1003.16046,0,0
50.44,7.4885964,-6.1419120000000005,0.50623673,1003.1882,0,0
50.48,7.4121437000000014,-6.203878,0.40208203,1003.1655,0,0
50.52,7.330913000000002,-6.308743,0.42575642,1003.2007,0,0
50.56,7.2209992,-6.4422073,0.62933785,1003.1806,0,0
50.6,7.307059,-6.361176,0.5062454000000001,1003.16046,0,0
50.64,7.340541,-6.2467794,0.32160583,1003.1831,0,0
50.68,7.4505024,-6.2467804000000005,0.3168738,1003.1856,0,0
50.72,7.550901,-6.170516,0.33581350000000004,1003.1882,0,0
50.76,7.565262,-6.1419168,0.35475302,1003.18054,0,0
50.8,7.699123399999999,-6.222949,0.37842754,1003.168,0,0
50.84,7.7039256,-6.118085,0.36422637,1003.1882,0,0
50.88,7.775645299999999,-6.1133194,0.4021037,1003.1906,0,0
50.92,7.742211,-6.0990205,0.5062628,1003.1806,0,0
50.96,7.627519,-6.0894876,0.48259297,1003.1902,0,0
51.0,7.646662700000001,-6.2086525,0.5062672,1003.1957,0,0
51.04,7.6944833,-6.1943526,0.48733166,1003.17535,0,0
51.08,7.747085,-6.2801519999999975,0.6246316,1003.1932,0,0
51.12,7.69453,-6.10379,0.5678208,1003.17786,0,0
51.16,7.6324167,-5.932194,0.4352597,1003.1852,0,0
51.2,7.407789699999999,-5.941728,0.57729405,1003.17004,0,0
51.24,7.4078155,-6.0751925,0.8329542999999999,1003.19775,0,0
51.28,7.498654400000001,-6.1323919999999985,0.8376906999999999,1003.1778,0,0
51.32,7.4269814,-6.194357,0.82348967,1003.1703,0,0
51.36,7.5078235,-6.1800475,0.7003571999999999,1003.20044,0,0
51.4,7.4648119999999984,-6.303978400000001,0.5725289000000001,1003.2005,0,0
51.44,7.5699735,-6.4136095,0.44943488,1003.203,0,0
51.48,7.651236,-6.370710400000001,0.3831538,1003.19543,0,0
51.52,7.8089767,-6.3468776,0.38315442,1003.1449,0,0
51.56,7.9380364,-6.2944455,0.40682697,1003.18536,0,0
51.6,7.866347,-6.2134147,0.44943717,1003.1902,0,0
51.64,7.813775,-6.242014,0.61040753,1003.22034,0,0
51.68,7.842460000000001,-6.313512,0.72403383,1003.20526,0,0
51.72,7.837686,-6.456509,0.8565976999999999,1003.19525,0,0
51.76,7.918949599999999,-6.408844,0.6908941999999999,1003.1851,0,0
51.8,7.8042397,-6.570906599999999,0.7287699000000001,1003.19525,0,0
51.84,7.990659,-6.3850117,0.56306636,1003.18005,0,0
51.88,7.866390700000001,-6.5089417,0.24586175,1003.18,0,0
51.92,7.713442999999999,-6.7139039999999985,0.44944176,1003.2004,0,0
51.96,7.8090449999999985,-6.5423083,0.27900377,1003.1874,1,3
52.0,7.6465372999999985,-6.632873,0.20798822,1003.1977,1,3
52.04,7.761260000000001,-6.6805387000000005,0.51572514,1003.21533,1,3
52.08,7.9428972999999985,-6.566141,0.5820074000000001,1003.2153,1,3
52.12,7.971583,-6.5184760000000015,0.51572627,1003.22797,1,3
52.16,8.028947,-6.5327754,0.56307083,1003.22284,1,3
52.2,8.177128,-6.3611794,0.26480398,1003.17737,1,3
52.24,8.339647,-6.141918,0.28847656,1003.1825,1,3
52.28,8.358772,-6.2515492,0.392634,1003.1849,1,3
52.32,8.191485,-6.4994106,0.5488699,1003.2251,1,3
52.36,7.7807107,-6.747278999999999,0.5346930999999999,1003.1747,1,3
52.4,7.7090297,-6.7377460000000005,0.54889786,1003.1644,1,3
52.44,8.000616,-6.446986,0.63411885,1003.1673,1,3
52.48,8.105789999999999,-6.3945545999999975,0.7335429,1003.17456,1,3
52.52,8.101027,-6.5041857000000025,0.6767316,1003.20734,1,3
52.56,8.187078999999999,-6.413621400000001,0.37373123,1003.18207,1,3
52.6,8.144079,-6.342124,0.24116948,1003.1796,1,3
52.64,8.172775999999999,-6.2753925000000015,0.34059364,1003.16705,1,3
52.68,8.2205925,-6.394557,0.40687704,1003.1469,1,3
52.72,8.306647,-6.3325915,0.44475386,1003.18445,1,3
52.76,8.287544,-6.3659577,0.55838114,1003.15186,1,3
52.8,8.26844,-6.3897910000000016,0.5631169,1003.1391,1,3
52.84,8.139405,-6.4565234,0.63886917,1003.1544,1,3
52.88,8.053386,-6.4517574,0.6909491999999999,1003.1595,1,3
52.92,8.09164,-6.480357,0.43529293,1003.14154,1,3
52.96,8.072536999999999,-6.489891,0.4210911,1003.1545,1,3
53.0,8.134694999999999,-6.5661564,0.5536563,1003.14685,1,3
53.04,8.206408999999999,-6.43746,0.3690161,1003.13934,1,3
53.08,8.139508,-6.485126,0.31693918,1003.1519,1,3
53.12,8.048712,-6.528025,0.34061292,1003.10645,1,3
53.16,8.096527,-6.423161,0.19858228,1003.1164,1,3
53.2,8.125222,-6.4708276,0.3690225,1003.1365,1,3
53.24,8.034422,-6.389796,0.36902392,1003.1139,1,3
53.28,8.196956,-6.323065,0.28854087,1003.12396,1,3
53.32,8.072697999999999,-6.3611975,0.27907357,1003.1138,1,3
53.36,7.943159599999999,-6.4612837,0.51101524,1003.1087,1,3
53.4,7.7137259999999985,-6.3278203,0.6246406999999999,1003.13153,1,3
53.44,7.7902007,-6.2229557,0.53468674,1003.0989,1,3
53.48,7.938372,-5.951262,0.39265445,1003.0732,1,3
53.52,7.8857913,-6.29922,0.378451,1003.07104,1,3
53.56,7.990945299999999,-6.0370599999999985,0.21274659,1003.08093,1,3
53.6,7.9431443,-6.0275264,0.25062162,1003.0938,1,3
53.64,7.7376103,-6.2420215999999975,0.21274613,1003.06604,1,3
53.68,7.6515713,-6.404083999999999,0.35004362,1003.04047,1,3
53.72,7.9431367,-6.361185,0.4257939,1003.04315,1,3
53.76,8.215584,-6.0179934999999976,0.32163677,1003.0409,1,3
53.8,8.153443,-6.0132265,0.2790269,1003.05804,1,3
53.84,7.785396,-6.0847244000000025,0.19854175,1003.05304,1,3
53.88,7.761495,-6.2420215999999975,0.31690168,1003.0229,1,3
53.92,7.7853910000000015,-6.227721,0.31216705,1003.03534,1,3
53.96,7.8045077,-6.189589,0.3216356,1003.0102,1,3
54.0,7.766267,-6.1180900000000005,0.30269778,1002.9902,1,3
54.04,7.641989,-6.1133237000000005,0.36424482,1003.0077,1,3
54.08,7.718463400000001,-6.1705227,0.4115886,1002.9851,1,3
54.12,7.618085400000001,-6.2181883,0.5062765,1003.0002,1,3
54.16,7.5511656,-5.956027,0.4541978,1003.0052,1,3
54.2,7.641978999999999,-5.9321947,0.35477507,1002.99005,1,3
54.24,7.699335,-6.0656576,0.45893174,1002.9673,1,3
54.28,7.7088914000000015,-6.0799575,0.45419714,1002.98486,1,3
54.32,7.713669,-6.0894904,0.39738405,1002.9825,1,3
54.36,7.608417,-6.165753,0.2932183,1002.98,1,3
54.4,7.570172,-6.342116000000001,0.22220162,1002.98236,1,3
54.44,7.541486999999999,-6.3993144,0.2600763,1002.94965,1,3
54.48,7.5653796,-6.308749,0.25534135,1002.9421,1,3
54.52,7.646631200000002,-6.1609864000000005,0.33582574,1002.95215,1,3
54.56,7.703982400000001,-6.046589,0.368966,1002.94226,1,3
54.6,7.770892599999999,-6.0799546,0.411575,1002.9346,1,3
54.64,7.8091244999999985,-6.1514525,0.6672323,1002.94476,1,3
54.68,7.842577499999999,-6.0751870000000014,0.44944912,1002.9396,1,3
54.72,7.7852130000000015,-5.9035910000000005,0.37369806,1002.9295,1,3
54.76,7.737408999999999,-5.9178905,0.22693089,1002.9496,1,3
54.8,7.6322474,-6.156218,0.4731194,1002.9116,1,3
54.84,7.7612963000000015,-6.0322876,0.5015253,1002.89655,1,3
54.88,7.684813,-6.0465875,0.29794532,1002.93176,1,3
54.92,7.560531599999999,-6.0751863,0.39736724,1002.9091,1,3
54.96,7.517506599999999,-6.2324824,0.35002255,1002.9042,1,3
55.0,7.517500999999997,-6.3850126,0.39263162,1002.9119,1,3
55.04,7.6322100000000015,-6.3850120000000015,0.34055266,1002.9167,1,3
55.08,7.6608825,-6.2372489999999985,0.24586396,1002.9192,1,3
55.12,7.646536999999999,-6.1895833,0.15590967,1002.8763,1,3
55.16,7.6035122999999984,-6.1705165,0.18431558,1002.89905,1,3
55.2,7.7182210000000016,-6.137151,0.34055036,1002.88654,1,3
55.24,7.8329306,-6.2229486,0.4163003,1002.8737,1,3
55.28,7.813805,-6.146683,0.40683085,1002.8612,1,3
55.32,7.6799645,-6.0179863,0.33107984,1002.8764,1,3
55.36,7.508886,-5.9226800000000015,0.22701393,1002.85614,1,3
55.4,7.513697599999999,-6.132409,0.41165867,1002.84863,1,3
55.44,7.5185119999999985,-6.1324096,0.53949076,1002.83856,1,3
55.48,7.5233254,-6.2182083,0.4542746,1002.84607,1,3
55.52,7.4803414,-6.3135405,0.5063562,1002.836,1,3
55.56,7.57119,-6.184844,0.37379578,1002.831,1,3
55.6,7.614244500000001,-6.1705456,0.19389170000000008,1002.826,1,3
55.64,7.6572943,-6.3087764,0.2459731000000001,1002.7983,1,3
55.68,7.776822599999999,-6.304010400000001,0.41641462,1002.8082,1,3
55.72,7.8294343999999985,-6.037083999999999,0.32172963,1002.81586,1,3
55.76,7.7338743,-6.0704513,0.35013940000000005,1002.8056,1,3
55.8,7.657429,-6.1181173,0.45429927,1002.8234,1,3
55.84,7.776959,-6.2086830000000015,0.57266253,1002.793,1,3
55.88,7.767431299999997,-6.2229834,0.6294783,1002.7983,1,3
55.92,7.7005485999999985,-6.1324196,0.45904282,1002.78796,1,3
55.96,7.619325999999999,-6.1276536,0.283873,1002.7979,1,3
56.0,7.4998627,-6.075222,0.2602039,1002.78784,1,3
56.04,7.538133,-6.227753,0.17972197,1002.78296,1,3
56.08,7.5142727,-6.24682,0.42118016,1002.78534,1,3
56.12,7.4951835,-6.2706537,0.3312292,1002.7601,1,3
56.16,7.49522,-6.1753235,0.31229493,1002.7629,1,3
56.2,7.5000315,-6.289722,0.40225154,1002.77277,1,3
56.24,7.523965,-6.3326216,0.4306611,1002.7527,1,3
56.28,7.676953,-6.3040233,0.43066424,1002.75745,1,3
56.32,7.600508,-6.194392700000001,0.29810384,1002.73236,1,3
56.36,7.651996,-6.1800666,0.28380084,1002.7601,1,3
56.4,7.6950035,-6.227732,0.3074719,1002.7474,1,3
56.44,7.76191,-6.1562333,0.3642837,1002.73755,1,3
56.48,7.790578,-6.184832599999999,0.35481393,1002.73236,1,3
56.52,7.666290299999999,-6.0942680000000005,0.29799998,1002.702,1,3
56.56,7.498986,-6.151466,0.31220213,1002.7221,1,3
56.6,7.4511775999999985,-6.1514654,0.32166994,1002.72974,1,3
56.64,7.522863,-6.218197,0.45896667,1002.71216,1,3
56.68,7.465494,-6.2229633,0.41635597,1002.7044,1,3
56.72,7.494163,-6.180064,0.2932605,1002.71716,1,3
56.76,7.5180507,-6.094266,0.30746272,1002.7096,1,3
56.8,7.642314,-6.094266,0.33586809999999995,1002.68695,1,3
56.84,7.704439999999999,-6.1943626,0.4068831,1002.6919,1,3
56.88,7.7665663,-6.213429,0.30745956,1002.6945,1,3
56.92,7.699638,-6.303993,0.38794348,1002.6768,1,3
56.96,7.780883,-6.12763,0.40688,1002.66394,1,3
57.0,7.83345,-6.108564,0.38320696,1002.67926,1,3
57.04,7.79042,-6.1371627,0.31218985,1002.65924,1,3
57.08,7.6517940000000015,-6.213428,0.29798558,1002.67944,1,3
57.12,7.675681599999999,-6.2229605,0.41634464,1002.6566,1,3
57.16,7.7760463,-6.103796,0.41634363,1002.6617,1,3
57.2,7.685219999999997,-6.199127,0.36899862,1002.6669,1,3
57.24,7.7808046000000015,-6.2277260000000005,0.28377828,1002.64905,1,3
57.28,7.780792999999999,-5.9893985,0.18435478,1002.6363,1,3
57.32,7.6182685,-5.9178989999999985,0.20329133,1002.6566,1,3
57.36,7.495044999999997,-6.089521,0.2838725,1002.6539,1,3
57.4,7.342123,-6.127654,0.48272038,1002.6541,1,3
57.44,7.346933,-6.3373837,0.53480154,1002.62366,1,3
57.48,7.428219,-6.4517817000000015,0.49692905,1002.5934,1,3
57.52,7.590764,-6.28972,0.38804066,1002.6186,1,3
57.56,7.78677,-6.2420545,0.15605786,1002.6315,1,3
57.6,7.6577444,-6.265888,0.14185739,1002.6237,1,3
57.64,7.6864557,-6.184858,0.10398507,1002.5983,1,3
57.68,7.796423,-6.0942945,0.13239439,1002.601,1,3
57.72,7.796452,-6.099061,0.28863245,1002.6036,1,3
57.76,7.853842999999999,-6.0323305,0.40226126,1002.58075,1,3
57.8,7.763055299999999,-6.0370975,0.33598214,1002.5556,1,3
57.84,7.6196947,-6.0227985,0.3975325,1002.5757,1,3
57.88,7.5719285,-5.9608335,0.36912897,1002.5933,1,3
57.92,7.533719500000001,-6.094299,0.5348358,1002.5605,1,3
57.96,7.543313,-6.180097,0.5064325,1002.5706,1,3
58.0,7.495545,-6.213464,0.44488797,1002.54803,1,3
58.04,7.600732000000002,-6.0514015999999975,0.36914042,1002.5454,1,3
58.08,7.581643,-6.041869,0.1655637,1002.55035,1,3
58.12,7.610355,-6.213466,0.1892388,1002.53534,1,3
58.16,7.624726299999999,-6.3802967000000015,0.22238253,1002.54803,1,3
58.2,7.6773314,-6.1848683,0.2176507,1002.53033,1,3
58.24,7.7442827,-6.275434,0.37862352,1002.5278,1,3
58.28,7.682175,-6.2277694000000015,0.36442307,1002.53534,1,3
58.32,7.839939999999999,-6.0609403,0.35969153,1002.5303,1,3
58.36,7.8965163,-6.0037227,0.44957367,1002.51514,1,3
58.4,7.872615299999999,-6.037088400000001,0.53952724,1002.5052,1,3
58.44,7.767459,-5.9179244,0.57266796,1002.5127,1,3
58.48,7.6431823,-6.0895205,0.39749488,1002.51776,1,3
58.52,7.5810447,-6.2229843,0.39749476,1002.5152,1,3
58.56,7.4137497,-6.3469143,0.55373,1002.4773,1,3
58.6,7.528464299999999,-6.1085863,0.3643537,1002.48486,1,3
58.64,7.495004,-6.0513879999999975,0.1797118,1002.5202,1,3
58.68,7.533241,-6.194384,0.35488465,1002.4547,1,3
58.72,7.638395299999999,-6.275416000000001,0.33121255,1002.44965,1,3
58.76,7.786567999999999,-6.2420497,0.46377575,1002.49756,1,3
58.8,7.757888,-6.0895199999999985,0.37382194,1002.4773,1,3
58.84,7.772226299999999,-6.070454,0.28860253,1002.48236,1,3
58.88,7.8104634000000015,-6.0656870000000005,0.38802493,1002.4622,1,3
58.92,7.925178,-5.9131575,0.3738216,1002.4647,1,3
58.96,7.9873137,-5.9369903,0.3974935,1002.44226,1,3
59.0,7.901275999999997,-6.079987,0.34068057,1002.4571,1,3
59.04,7.6957429999999984,-6.184851,0.38329008,1002.4674,1,3
59.08,7.6097054,-6.041855,0.4590404000000001,1002.4649,1,3
59.12,7.738759,-5.9560566,0.38328984,1002.427,1,3
59.16,7.6336020000000016,-5.9989552,0.37382093,1002.4195,1,3
59.2,7.600142,-6.046621,0.31700793,1002.43207,1,3
59.24,7.6527185,-5.9941883,0.31227344,1002.4243,1,3
59.28,7.638377999999999,-5.9703555,0.35488293,1002.42944,1,3
59.32,7.719633,-6.056154,0.29333556,1002.4243,1,3
59.36,7.796108999999999,-6.032321,0.15603772,1002.41693,1,3
59.4,7.906888499999999,-6.0895405,0.21766216,1002.40137,1,3
59.44,7.9212584,-5.9894433,0.2555403,1002.40424,1,3
59.48,7.973867,-5.917946,0.17979254,1002.4243,1,3
59.52,7.878303,-5.913180400000001,0.23187406,1002.3992,1,3
59.56,7.816196400000001,-6.013278,0.26975203,1002.3941,1,3
59.6,7.811446000000001,-6.0228124,0.43072456,1002.3916,1,3
59.64,7.844937,-5.9656150000000014,0.44019625,1002.36115,1,3
59.68,7.8975463,-5.803552,0.34551108,1002.3461,1,3
59.72,7.868899000000001,-5.894118,0.28396666,1002.3663,1,3
59.76,7.758995,-5.9942160000000015,0.32657924,1002.35114,1,3
59.8,7.845061999999999,-5.8845863,0.26976907,1002.33856,1,3
59.84,7.763837,-5.9751515,0.269772,1002.3612,1,3
59.88,7.6634902999999985,-6.0037518,0.21769626,1002.3688,1,3
59.92,7.71132,-6.013285,0.25084,1002.31573,1,3
59.96,7.7495923,-6.0514183,0.23190546,1002.3185,1,3
60.0,7.8260983999999985,-6.0847855000000015,0.2603146,1002.3409,1,3
60.04,7.864369,-6.0514199999999985,0.20823905,1002.331,1,3
60.08,7.9121995,-5.9799223,0.12302269,1002.3185,1,3
60.12,7.921787700000001,-6.070488,0.17036942,1002.3007,1,3
60.16,7.835785,-6.0228230000000025,0.17984134,1002.2981,1,3
60.2,7.9314113,-5.946559,0.26979777,1002.29816,1,3
60.24,7.8597455,-5.9084272,0.28400385,1002.3208,1,3
60.28,7.768959,-5.9560933,0.43077314,1002.288,1,3
60.32,7.716409,-5.937028400000001,0.43551007,1002.29065,1,3
60.36,7.759460400000001,-5.913196599999999,0.34555948,1002.29816,1,3
60.4,7.758324000000001,-5.951301,0.32178340000000005,1002.27295,1,3
60.44,7.801328999999999,-5.9751334,0.21762528,1002.24786,1,3
60.48,7.705719999999999,-5.994199,0.14187361,1002.24255,1,3
60.52,7.643567999999999,-6.0704637,0.19868511,1002.2553,1,3
60.56,7.7009115,-6.0227976,0.14187096,1002.2302,1,3
60.6,7.643541,-6.0704627,0.2412923,1002.26044,1,3
60.64,7.7439027,-6.0847626,0.3501823,1002.24005,1,3
60.68,7.825146000000001,-6.1419606,0.22235216,1002.2428,1,3
60.72,7.8203520000000015,-6.1085944,0.388055,1002.24786,1,3
60.76,7.896816,-5.9226985,0.33124095,1002.2174,1,3
60.8,7.892021700000001,-5.8273664000000025,0.26022357,1002.2124,1,3
60.84,7.85377,-5.9894295,0.28862885,1002.2174,1,3
60.88,7.8728757,-6.0084953,0.40698764,1002.2277,1,3
60.92,7.9158789999999986,-5.913164,0.3691111,1002.2125,1,3
60.96,7.7437925,-5.951296299999999,0.34543785,1002.20483,1,3
61.0,7.6242839999999985,-6.013261,0.32649896,1002.21265,1,3
61.04,7.6386094,-6.0037274000000025,0.26495042,1002.1998,1,3
61.08,7.662495,-6.0084940000000016,0.32649648,1002.19214,1,3
61.12,7.576445599999999,-6.079992,0.32649526,1002.16986,1,3
61.16,7.566872,-6.1419563,0.3075564,1002.18964,1,3
61.2,7.638553999999999,-6.1419563,0.2649454,1002.16455,1,3
61.24,7.614642,-6.1514893,0.26494417,1002.17456,1,3
61.28,7.648086500000002,-6.284952,0.3548966,1002.167,1,3
61.32,7.6337347000000015,-6.1848540000000005,0.29808253,1002.1619,1,3
61.36,7.786955,-6.0275645,0.2365597,1002.162,1,3
61.4,7.825191,-6.0895295,0.19868426,1002.16437,1,3
61.44,7.724813,-6.2515926,0.39279464,1002.13666,1,3
61.48,7.7726083,-6.3278575,0.4922169,1002.1216,1,3
61.52,7.935119,-6.0609303,0.35491893,1002.1493,1,3
61.56,7.8777585,-5.8464345999999985,0.29810584,1002.14404,1,3
61.6,7.863417,-5.8464345999999985,0.33598086,1002.109,1,3
61.64,7.6961207,-5.9655986,0.3927935,1002.1595,1,3
61.68,7.590963,-6.0513964000000025,0.5584974,1002.1216,1,3
61.72,7.6387587,-6.0656962,0.6058413,1002.11646,1,3
61.76,7.5670595,-6.1371946,0.53955936,1002.1064,1,3
61.8,7.414103,-6.2134595,0.53482467,1002.07355,1,3
61.84,7.524036,-6.232526,0.2791666,1002.0989,1,3
61.88,7.5622716,-6.3802886,0.2554944,1002.08374,1,3
61.92,7.696103999999999,-6.246825,0.17500927,1002.0811,1,3
61.96,7.8394957,-6.103828,0.18921225,1002.06866,1,3
62.0,7.786915,-6.070462,0.14660238,1002.07117,1,3
62.04,7.657858,-6.122895,0.32177514,1002.0786,1,3
62.08,7.667414999999999,-6.137194,0.5016823,1002.07367,1,3
62.12,7.743889299999997,-6.1324277,0.5774326,1002.05347,1,3
62.16,7.810803999999999,-6.0847615999999976,0.57743233,1002.0459,1,3
62.2,7.8299212,-6.0609293,0.58690083,1002.05566,1,3
62.24,7.753442,-5.984664,0.49221256,1002.0309,1,3
62.28,7.7343199999999985,-5.941765,0.43539947,1002.04095,1,3
62.32,7.739097,-6.037096,0.45907128,1002.0409,1,3
62.36,7.7546525,-6.1372237,0.49705777,1002.0283,1,3
62.4,7.6782193,-6.04666,0.4071081,1002.0585,1,3
62.44,7.568333999999999,-6.094327,0.26508054,1002.0079,1,3
62.48,7.511017,-6.332656,0.31242836,1002.0208,1,3
62.52,7.530186,-6.256392,0.32190174,1002.0409,1,3
62.56,7.6927466,-6.1610622,0.24615555,1002.01074,1,3
62.6,7.721472,-6.1562967,0.17987815,1002.013,1,3
62.64,7.640262599999999,-6.165831,0.22249208,1002.01294,1,3
62.68,7.716783,-6.137233,0.30298102,1002.0309,1,3
62.72,7.798081,-6.0514355,0.37873524,1001.99786,1,3
62.76,7.8172507,-6.013304,0.41661507,1001.99036,1,3
62.8,7.874657000000001,-5.95134,0.41661963,1001.9649,1,3
62.84,7.736087299999999,-5.9608746,0.46396765,1001.97754,1,3
62.88,7.7026725,-5.9847083,0.35981482,1001.9903,1,3
62.92,7.6262455,-6.0800414000000025,0.34088176,1001.9702,1,3
62.96,7.626289999999999,-6.1134076,0.41190186,1001.95764,1,3
63.0,7.635896000000002,-6.07051,0.3266869,1001.96747,1,3
63.04,7.5642433,-6.041912,0.19412754,1001.93994,1,3
63.08,7.545171000000002,-6.246875,0.26988232,1001.95514,1,3
63.12,7.588236,-6.304075,0.31249627,1001.9423,1,3
63.16,7.8129339999999985,-6.075281,0.3125006,1001.93225,1,3
63.2,7.7412834,-6.060982,0.28883284,1001.93744,1,3
63.24,7.7700067,-6.070517,0.27936807,1001.94745,1,3
63.28,7.7891693,-6.0991173,0.28410646,1001.9047,1,3
63.32,7.8417974,-6.1277175,0.50189364,1001.93976,1,3
63.36,7.7932024,-6.0609660000000005,0.44027346,1001.9273,1,3
63.4,7.7979946,-6.013301,0.30771127,1001.9173,1,3
63.44,7.625934599999999,-6.075267,0.32665005,1001.91986,1,3
63.48,7.5542493,-6.103866,0.3645264,1001.91473,1,3
63.52,7.58294,-6.1133995,0.32665223,1001.9299,1,3
63.56,7.606852000000001,-6.1562986,0.35505990000000004,1001.8947,1,3
63.6,7.5925245,-6.0848010000000015,0.2982481,1001.8821,1,3
63.64,7.559079,-6.0466685,0.28878048,1001.8745,1,3
63.68,7.616448399999999,-6.132467299999999,0.20356227,1001.9099,1,3
63.72,7.597342999999999,-6.2230325,0.43081495,1001.86444,1,3
63.76,7.649932400000001,-6.223033,0.31719032,1001.88965,1,3
63.8,7.7933397,-6.0705028,0.29825386,1001.84406,1,3
63.84,7.735994,-6.056204,0.27931740000000005,1001.8695,1,3
63.88,7.688208,-6.0609699999999975,0.17989597,1001.89215,1,3
63.92,7.6452035999999985,-6.1992005999999975,0.31246057,1001.8795,1,3
63.96,7.630876,-6.0991035,0.468697,1001.8642,1,3
64.0,7.6500072,-5.9656400000000005,0.35980678,1001.83936,1,3
64.04,7.535303599999999,-6.027606,0.31719822,1001.85944,1,3
64.08,7.4588404000000015,-5.9942403,0.3882155000000001,1001.85693,1,3
64.12,7.492311999999999,-5.960874,0.32193503,1001.84937,1,3
64.16,7.4349656,-5.956108,0.34087372,1001.84155,1,3
64.2,7.3585014000000015,-5.937042,0.24145238,1001.84155,1,3
64.24,7.339395,-5.951342,0.3976889,1001.8241,1,3
64.28,7.406324400000001,-5.9132104000000005,0.3077363,1001.8366,1,3
64.32,7.406337299999999,-5.975176,0.31720626,1001.8366,1,3
64.36,7.3433695,-5.946556,0.4118184,1001.82654,1,3
64.4,7.529761,-5.8893566,0.33606595,1001.819,1,3
64.44,7.5058413,-5.9227223,0.3123921,1001.80396,1,3
64.48,7.477138,-5.8607564000000005,0.29345223,1001.8088,1,3
64.52,7.4006424,-5.8607559999999985,0.27924728,1001.8012,1,3
64.56,7.352823,-5.851222,0.39760545,1001.81647,1,3
64.6,7.3241224,-5.8226223,0.36919704,1001.8163,1,3
64.64,7.2810826,-5.8416877000000005,0.2271629,1001.7937,1,3
64.68,7.1806865,-5.841687,0.33605242,1001.7889,1,3
64.72,7.1663256,-5.794021599999999,0.2981752,1001.7939,1,3
64.76,7.2141037,-5.755889,0.31237656,1001.7889,1,3
64.8,7.2331996,-5.8607526,0.40232816,1001.7733,1,3
64.84,7.171042,-5.8178525,0.28396615,1001.7784,1,3
64.88,7.20448,-5.8178515,0.16560419,1001.7583,1,3
64.92,7.209237,-5.9370155,0.27922782,1001.77094,0,0
64.96,7.2761345,-5.813084,0.33603883,1001.7407,0,0
65.0,7.290452,-5.6557875,0.23187993,1001.77094,0,0
65.04,7.180496700000001,-5.7701845,0.25081572,1001.7583,0,0
65.08,7.103998,-5.841682,0.4165179,1001.7607,0,0
65.12,7.3716455,-5.7940164,0.35970306,1001.753,0,0
65.16,7.4146423,-5.6557856,0.29815385,1001.7558,0,0
65.2,7.2377677,-5.7940154,0.39757437,1001.7506,0,0
65.24,7.1803884999999985,-5.7987814,0.24607144,1001.74335,0,0
65.28,7.237725,-5.803547,0.26974148,1001.72046,0,0
65.32,7.328521,-5.8559785,0.29814607,1001.73804,0,0
65.36,7.122969,-5.8512115,0.3644259,1001.73553,0,0
65.4,7.056581,-5.8607583,0.33606794,1001.73303,0,0
65.44,7.0757002999999985,-5.803559,0.3218647,1001.7557,0,0
65.48,7.1951956999999975,-5.8798237,0.33606794,1001.7457,0,0
65.52,7.286011699999999,-5.8416915000000005,0.35027114,1001.75336,0,0
65.56,7.391167599999997,-5.722528,0.29819268,1001.7481,0,0
65.6,7.3672686,-5.8416915000000005,0.27925506,1001.753,0,0
65.64,7.32425,-5.9227233,0.33133352,1001.728,0,0
65.68,7.429406,-5.8512244,0.23664542,1001.7506,0,0
65.72,7.5441213,-5.8702907999999985,0.32659912,1001.76556,0,0
65.76,7.3338100000000015,-5.7940260000000015,0.3928808,1001.76825,0,0
65.8,7.3481493,-5.8702907999999985,0.3171303,1001.7532,0,0
65.84,7.190416,-5.9942217000000015,0.4023496,1001.75085,0,0
65.88,7.1951956999999975,-6.0800195,0.50177205,1001.72797,0,0
65.92,7.300350999999999,-6.0943190000000005,0.37394315,1001.74054,0,0
65.96,7.286011699999999,-6.0847864000000005,0.38814637,1001.7431,0,0
66.0,7.276452000000001,-6.056187,0.25084862,1001.7252,0,0
66.04,7.3385897,-6.132452,0.25558305,1001.7356,0,0
66.08,7.4102864,-6.108618700000001,0.36920878,1001.7381,0,0
66.12,7.57758,-5.979922,0.38341197,1001.71515,0,0
66.16,7.625377999999999,-5.9894547,0.29819268,1001.7379,0,0
66.2,7.5680203,-6.0895519999999985,0.42602164,1001.72034,0,0
66.24,7.5250020000000015,-6.184883599999999,0.44969365,1001.74054,0,0
66.28,7.6875157,-5.9989877,0.4828345,1001.7305,0,0
66.32,7.6875157,-5.979922,0.4023496,1001.7379,0,0
66.36,7.6875157,-6.0847864000000005,0.3976152,1001.7456,0,0
66.4,7.6449842000000015,-6.1229305,0.37398773,1001.74304,0,0
66.44,7.6211033,-6.1658300000000015,0.29823890000000003,1001.76825,0,0
66.48,7.5876617,-6.1276980000000005,0.3645222,1001.76825,0,0
66.52,7.6068025,-6.099099,0.35505533,1001.748,0,0
66.56,7.563801,-6.108633,0.35505685,1001.7305,0,0
66.6,7.5925,-6.127699400000001,0.5018252999999999,1001.748,0,0
66.64,7.692895,-6.0657344,0.5160302,1001.7531,0,0
66.68,7.76461,-5.984703,0.42607817,1001.72034,0,0
66.72,7.721611999999999,-6.103868,0.5255025,1001.7329,0,0
66.76,7.802885000000002,-6.089568,0.35979986,1001.7428,0,0
66.8,7.8602633,-6.018071,0.28878564,1001.72034,0,0
66.84,7.788582300000002,-6.070503,0.35506883,1001.7354,0,0
66.88,7.750363,-6.0514374,0.21303841,1001.74786,0,0
66.92,7.7025857,-6.1229362,0.25564992,1001.7353,0,0
66.96,7.654806599999999,-6.122937,0.22251081,1001.7304,0,0
67.0,7.7026224,-6.0466723,0.22724687,1001.7604,0,0
67.04,7.6261644,-6.0943384000000025,0.25092062,1001.7301,0,0
67.08,7.573605499999997,-6.089572,0.44029856,1001.7477,0,0
67.12,7.683560000000001,-6.075273,0.29353377,1001.73254,0,0
67.16,7.5784205999999985,-6.208737,0.35981697,1001.72754,0,0
67.2,7.678818,-6.0943403,0.3408813,1001.75287,0,0
67.24,7.7314143,-6.0085425,0.18464758,1001.7225,0,0
67.28,7.6501765,-6.0133095,0.13257086,1001.7451,0,0
67.32,7.626295,-6.1277075,0.20832294,1001.7732,0,0
67.36,7.673550599999999,-6.127694,0.2508829,1001.748,0,0
67.4,7.6544275,-6.0704956,0.32189867,1001.7376,0,0
67.44,7.6353045,-6.080029,0.25088224,1001.73254,0,0
67.48,7.6161813999999985,-6.0990944,0.27455392,1001.72754,0,0
67.52,7.6878753,-6.122927,0.34083527,1001.72797,0,0
67.56,7.654412700000001,-6.0561957,0.35977253,1001.7502,0,0
67.6,7.8073625999999985,-6.037129,0.24141204,1001.7301,0,0
67.64,7.687864299999997,-6.0800285,0.1845989,1001.7426,0,0
67.68,7.8551525999999985,-6.16106,0.25561458,1001.7452,0,0
67.72,7.8647094,-6.0704947,0.20353577,1001.72754,0,0
67.76,7.898164299999999,-5.927498,0.1845978,1001.72003,0,0
67.8,7.802564,-5.9894633000000015,0.22720711,1001.7426,0,0
67.84,7.788221000000001,-5.9656305,0.3503013,1001.73755,0,0
67.88,7.816896000000002,-6.080028,0.5633491999999999,1001.7577,0,0
67.92,7.7834334,-6.0752606,0.54914564,1001.7478,0,0
67.96,7.630476,-6.08956,0.33136266,1001.7476,0,0
68.0,7.5635552,-6.0990934,0.20353341,1001.72253,0,0
68.04,7.673487,-5.998996,0.094641745,1001.7476,0,0
68.08,7.8503356,-5.9942293,0.13725105,1001.73236,0,0
68.12,7.745176,-6.113393,0.13725066,1001.745,0,0
68.16,7.7260537,-6.1038594,0.22246961,1001.7425,0,0
68.2,7.812086,-5.9989953,0.16092204,1001.75256,0,0
68.24,7.6830277,-6.099093,0.28875062,1001.7274,0,0
68.28,7.7117023,-6.051427,0.34082875,1001.74,0,0
68.32,7.8264146,-5.965629,0.26981235,1001.7553,0,0
68.36,7.778613000000001,-5.994228400000001,0.29821843,1001.7223,0,0
68.4,7.759911,-6.0705037000000015,0.23197497,1001.7527,0,0
68.44,7.855519,-5.9847054,0.21777286,1001.7348,0,0
68.48,7.917669,-5.9370410000000025,0.217774,1001.7425,0,0
68.52,7.841205,-6.0133057,0.10888386,1001.7348,0,0
68.56,7.7456226,-6.018073,-6.1951578e-06,1001.74994,0,0
68.6,7.7504144,-6.018073,0.17516786,1001.7223,0,0
68.64,7.7791057,-5.9751744,0.1609658,1001.7196,0,0
68.68,7.707420299999999,-6.0037737,0.2509206,1001.735,0,0
68.72,7.6691947,-5.9799414,0.40715712,1001.74994,0,0
68.76,7.6596484,-6.0800395,0.274595,1001.7248,0,0
68.8,7.6501009999999985,-6.0705066,0.5065819,1001.75757,0,0
68.84,7.8604245,-5.822646,0.45450455,1001.72974,0,0
68.88,7.8413176999999985,-5.865545,0.25092632,1001.70966,0,0
68.92,7.693156,-5.9465765999999975,0.31720906,1001.7247,0,0
68.96,7.7075086,-6.0991073,0.18938135,1001.7221,0,0
69.0,7.7505393,-6.003776,0.21778896,1001.7222,0,0
69.04,7.7792306,-5.979943799999999,0.0047418512,1001.7347,0,0
69.08,7.707546000000002,-6.070509,0.08522787,1001.7424,0,0
69.12,7.611962299999999,-6.132475,0.18938595,1001.76764,0,0
69.16,7.640654,-6.094342,0.22252792,1001.75494,0,0
69.2,7.6215467000000015,-6.1086426,0.33615476,1001.745,0,0
69.24,7.678917,-5.941813,0.5113289000000001,1001.73236,0,0
69.28,7.764966499999999,-6.0037785,0.40717313,1001.71466,0,0
69.32,7.702841,-6.018079,0.56340957,1001.71716,0,0
69.36,7.808008999999997,-5.8321830000000014,0.35509694,1001.7373,0,0
69.4,8.022952,-5.703482,0.27933282,1001.75745,0,0
69.44,7.970378399999999,-5.755914700000001,0.2698645,1001.7423,0,0
69.48,7.8795686,-6.1181725999999985,0.4450381,1001.717,0,0
69.52,7.826997299999999,-6.1801386,0.51605475,1001.72455,0,0
69.56,7.831784,-6.0323753,0.36455435,1001.7146,0,0
69.6,7.7505326,-5.9847097,0.26986682,1001.7195,0,0
69.64,7.707521000000002,-6.046675,0.31247702,1001.76245,0,0
69.68,7.6788487,-6.1658397,0.30300882,1001.75476,0,0
69.72,7.631056299999999,-6.127707,0.34561896,1001.722,0,0
69.76,7.5689259999999985,-6.1420064000000005,0.2888067,1001.712,0,0
69.8,7.583271499999999,-6.060975599999999,0.17044717,1001.7323,0,0
69.84,7.726671700000002,-6.1277075,0.29827672,1001.7347,0,0
69.88,7.764916,-6.070509,0.37876207,1001.7347,0,0
69.92,7.8461785000000015,-6.0085440000000006,0.40716913,1001.7446,0,0
69.96,7.8605247,-5.9418125,0.24146552,1001.7421,0,0
70.0,7.788834,-5.984711,0.4024359,1001.7297,0,0
70.04,7.8366384999999985,-5.9942449999999985,0.5444686,1001.7171,0,0
70.08,7.760167599999999,-6.032377200000001,0.4734531,1001.7421,0,0
70.12,7.7506137000000015,-6.013311,0.4497816,1001.73694,0,0
70.16,7.664584,-6.0991095999999985,0.48765746,1001.7524,0,0
70.2,7.645470599999999,-6.094343,0.55393964,1001.73206,0,0
70.24,7.731513499999997,-6.0466776,0.45925215,1001.7245,0,0
70.28,7.760198599999999,-6.018079,0.3361582,1001.7294,0,0
70.32,7.88926,-5.9370475,0.24620506,1001.7294,0,0
70.36,7.827128,-6.056211,0.19886155,1001.7094,0,0
70.4,7.817607400000001,-6.1038775,0.3835069,1001.73706,0,0
70.44,7.961008500000001,-5.937049,0.32669473,1001.74976,0,0
70.48,7.884539,-5.8750834,0.20833525,1001.7545,0,0
70.52,7.765052000000002,-5.9894814000000025,0.38824335,1001.74457,0,0
70.56,7.779399400000001,-5.9370494,0.35983768,1001.7066,0,0
70.6,7.817645,-5.903683,0.47819844,1001.75726,0,0
70.64,7.698157000000001,-6.027614,0.50660557,1001.7418,0,0
70.68,7.612128299999997,-6.103879,0.36930853,1001.74225,0,0
70.72,7.693392299999997,-5.9990144,0.35037154,1001.70654,0,0
70.76,7.851133,-5.870318,0.28409055,1001.7347,0,0
70.8,7.8320217,-5.860785,0.26515365,1001.7094,0,0
70.84,7.688635,-5.932283999999999,0.27935752,1001.74445,0,0
70.88,7.6408443,-6.1324797,0.3598431,1001.7342,0,0
70.92,7.7268887,-6.037148,0.5350166999999999,1001.7245,0,0
70.96,7.9133086,-5.8464866,0.42139176,1001.74457,0,0
71.0,7.7651424,-5.903685,0.21781306,1001.73956,0,0
71.04,7.726911,-5.898918599999999,0.30776742,1001.73694,0,0
71.08,7.8416333,-5.960884,0.36931542,1001.7544,0,0
71.12,7.9372373,-5.8750863,0.42612892,1001.74713,0,0
71.16,7.846427999999999,-5.951351,0.37405112,1001.74945,0,0
71.2,7.899014,-5.8989195999999975,0.30303577,1001.73193,0,0
71.24,7.808205,-5.941818,0.3929901,1001.7242,0,0
71.28,7.793873,-5.975185,0.3977252,1001.73694,0,0
71.32,7.779541,-6.0657489999999985,0.45453873,1001.6966,0,0
71.36,7.741309599999999,-5.9370527000000015,0.33617926,1001.7418,0,0
71.4,7.793311,-6.0800357000000025,0.27457923,1001.71924,0,0
71.44,7.774177000000001,-6.0943346,0.40240684,1001.7367,0,0
71.48,7.922337,-5.9799365999999985,0.2461701,1001.7367,0,0
71.52,7.8076057,-5.9418044000000005,0.21302788,1001.73444,0,0
71.56,7.745454,-6.013302,0.23196419,1001.74945,0,0
71.6,7.7741175,-6.0466676,0.41187018,1001.73944,0,0
71.64,7.8601402999999985,-5.9370365,0.49708816,1001.72437,0,0
71.68,7.874465499999999,-5.994235,0.26510102,1001.7242,0,0
71.72,7.8075314,-6.0990980000000015,0.17514583,1001.72925,0,0
71.76,7.8075160000000015,-6.0609655,0.037846725,1001.7292,0,0
71.8,7.7836018,-6.0466657,-0.07104598,1001.72186,0,0
71.84,7.9317613,-5.9179683,-0.023703333,1001.7167,0,0
71.88,7.9413056,-5.8035703000000005,0.17987476,1001.7242,0,0
71.92,7.950852,-5.946567,0.15146704,1001.757,0,0
71.96,7.965175,-5.8321695,0.36451375,1001.7117,0,0
72.0,8.132455,-5.6653395,0.47813818,1001.73193,0,0
72.04,8.1372175,-5.4842095,0.5065430999999999,1001.7545,0,0
72.08,7.6114244000000015,-6.070496,0.58702666,1001.72925,0,0
72.12,7.420217999999997,-6.1801260000000005,0.34083635,1001.72174,0,0
72.16,7.759568700000001,-5.889366000000001,0.21300602,1001.72644,0,0
72.2,7.606599,-5.970397,-0.15154462,1001.70123,0,0
72.24,7.70696,-5.603371599999999,-0.15154594,1001.73944,0,0
72.28,7.6256886,-5.984696,-0.11840649,1001.7167,0,0
72.32,6.9899592,-7.409896000000002,0.23193806,1001.7319,0,0
72.36,7.0677967000000015,-6.828409700000001,0.028483164,1001.72894,0,0
72.4,7.851723,-5.8417330000000005,8.024275e-05,1001.762,0,0
72.44,8.033396,-5.822668,-0.17982343,1001.7343,0,0
72.48,7.909161,-6.0943627000000005,0.18946384,1001.7164,0,0
72.52,7.8996425000000015,-5.9513674000000005,0.15632673,1001.74945,0,0
72.56,7.8423223,-5.85127,0.165799,1001.7418,0,0
72.6,7.5364537,-6.0657663,0.29363143,1001.73694,0,0
72.64,7.345304,-6.342228,0.3930579,1001.72144,0,0
72.68,7.335783,-6.337462,0.26049802,1001.73944,0,0
72.72,7.522236,-6.29933,0.26523614,1001.7519,0,0
72.76,7.780386,-6.1801677,0.06166046,1001.729,0,0
72.8,7.727846,-6.194468,0.028523128,1001.7189,0,0
72.84,7.7135496,-6.251668,-0.08983305,1001.72394,0,0
72.88,7.608429400000001,-6.366066,-0.099298626,1001.744,0,0
72.92,7.546332400000002,-6.313635,0.009596417,1001.7415,0,0
72.96,7.584612,-6.299336,0.090085,1001.7491,0,0
73.0,7.3934627000000015,-6.418501,0.31260598,1001.739,0,0
73.04,7.3887186,-6.3946695,0.34575009999999995,1001.7415,0,0
73.08,7.3600826,-6.475702,0.30314440000000004,1001.739,0,0
73.12,7.336224599999999,-6.442336599999999,0.26053843,1001.7415,0,0
73.16,7.388839999999999,-6.3279405,0.21319787,1001.7212,0,0
73.2,7.451017999999999,-6.3756075,0.34576494,1001.7288,0,0
73.24,7.6087894,-6.432807,0.2368771,1001.72156,0,0
73.28,7.61839,-6.4566402,0.1279895,1001.7414,0,0
73.32,7.508495299999999,-6.4995410000000025,0.20374368,1001.74164,0,0
73.36,7.483232000000001,-6.304078,0.18941563,1001.7491,0,0
73.4,7.397178599999997,-6.3088440000000015,0.19414854,1001.7365,0,0
73.44,7.325466599999999,-6.3994083,0.39299214,1001.72363,0,0
73.48,7.34935,-6.34221,0.31250584,1001.74164,0,0
73.52,7.392351,-6.4470735,0.42612994,1001.73395,0,0
73.56,7.4353538,-6.3326755,0.43559733,1001.7161,0,0
73.6,7.483135000000001,-6.323142,0.3125013,1001.7491,0,0
73.64,7.5117974,-6.4566050000000015,0.31249982,1001.7413,0,0
73.68,7.401846400000001,-6.609135,0.44032732,1001.7489,0,0
73.72,7.416168700000001,-6.3898726,0.28882474,1001.7491,0,0
73.76,7.564327,-6.289775,0.3645738,1001.7312,0,0
73.8,7.636008,-6.189677,0.39297873,1001.7238,0,0
73.84,7.7076883,-6.165843,0.355102,1001.7441,0,0
73.88,7.4925804,-6.4041705,0.62969595,1001.7466,0,0
73.92,7.3443913,-6.3946375999999985,0.5255376,1001.7338,0,0
73.96,7.382614,-6.3183722,0.37876964,1001.7389,0,0
74.0,7.387376299999999,-6.413703,0.3124864,1001.73395,0,0
74.04,7.6167917,-6.4137025,0.4261107,1001.7413,0,0
74.08,7.7171509999999985,-6.4041685999999975,0.37403074,1001.7538,0,0
74.12,7.807952,-6.2611713,0.3503573,1001.7288,0,0
74.16,7.7649174,-6.022844,0.3740278,1001.73627,0,0
74.2,7.444652599999999,-6.1753725999999975,0.53973037,1001.7438,0,0
74.24,7.4255185,-6.1181736,0.51605695,1001.73364,0,0
74.28,7.3585850000000015,-6.1849055,0.35982020000000003,1001.7313,0,0
74.32,7.229513000000002,-6.3708005,0.7385709,1001.71356,0,0
74.36,7.431653999999999,-6.2850366,0.69608843,1001.7512,0,0
74.4,7.579863,-6.1801734,0.5729972,1001.7389,0,0
74.44,7.527328,-6.2087736,0.42623457,1001.7413,0,0
74.48,7.627745,-6.1706424,0.28894055,1001.7488,0,0
74.52,7.6516848,-6.204008999999999,0.34102273,1001.72107,0,0
74.56,7.5656886,-6.1182117,0.33155759999999995,1001.73627,0,0
74.6,7.709118400000001,-6.061014,0.40257695,1001.7489,0,0
74.64,7.9146924,-5.9752173,0.34576806,1001.7517,0,0
74.68,7.6853,-6.018117,0.5540854000000001,1001.73114,0,0
74.72,7.556284,-6.1563478,0.8334186,1001.7437,0,0
74.76,7.541987400000001,-6.2373805,0.85236025,1001.7413,0,0
74.8,7.542028,-6.213549,0.8949735999999999,1001.7362,0,0
74.84,7.4990478,-6.1658845,0.8286954,1001.7665,0,0
74.88,7.5421065999999986,-6.2755165,0.75768304,1001.75146,0,0
74.92,7.513466,-6.3041167,0.62038875,1001.7538,0,0
74.96,7.580424000000002,-6.1754208,0.5257044,1001.73364,0,0
75.0,7.590027,-6.3422513,0.49256754,1001.7388,0,0
75.04,7.637863,-6.327952400000001,0.60619676,1001.7388,0,0
75.08,7.843435,-6.1420574,0.7103573000000001,1001.7362,0,0
75.12,7.723977599999999,-6.2612224,0.9234091,1001.7362,0,0
75.16,7.599743400000001,-6.242157,1.008632,1001.7362,0,0
75.2,7.618902999999999,-6.1563597,0.9139477,1001.78436,0,0
75.24,7.5663657,-6.2516922999999975,1.0701866000000002,1001.7512,0,0
75.28,7.494707000000001,-6.142062,1.1554095,1001.7537,0,0
75.32,7.628585,-6.0038333,0.87608355,1001.7286,0,0
75.36,7.571264999999999,-6.0181336,0.68197644,1001.7462,0,0
75.4,7.3786545,-6.008566,0.5303456999999999,1001.7388,0,0
75.44,7.54593,-6.122963,0.5918913,1001.7439,0,0
75.48,7.765784700000001,-6.2087603,0.6581715,1001.7261,0,0
75.52,7.8661455999999985,-6.3660564000000015,0.8238743000000001,1001.7512,0,0
75.56,7.8326697,-6.494753,0.93276405,1001.7464,0,0
75.6,7.641462,-6.223058999999999,0.91855943,1001.75116,0,0
75.64,7.50283,-5.9656644,0.6534310999999999,1001.7286,0,0
75.68,7.421557000000001,-5.9608974,0.36936536,1001.7212,0,0
75.72,7.555376,-6.118193,0.4261768,1001.74365,0,0
75.76,7.741772,-6.0514607000000025,0.56820744,1001.7535,0,0
75.8,7.7895555,-6.060994,0.72917587,1001.74115,0,0
75.84,7.7513003,-6.0514603,0.6534239000000001,1001.7386,0,0
75.88,7.6270084,-6.1992235,0.87593925,1001.7262,0,0
75.92,7.603094,-6.156324,1.0463765,1001.7334,0,0
75.96,7.631756,-6.046693,0.8049203,1001.7237,0,0
76.0,7.631739,-5.9561275999999985,0.62501144,1001.7334,0,0
76.04,7.736878999999999,-6.0419254,0.6912915,1001.73615,0,0
76.08,8.190946,-5.9656606,0.8901351000000001,1001.73615,0,0
76.12,8.210047,-5.7988305,0.17523842,1001.7359,0,0
76.16,7.736831,-5.860795,0.9516795,1001.74615,0,0
76.2,7.411788,-6.0323905999999985,0.6676137,1001.7488,0,0
76.24,7.2540383,-6.299318,0.5634553000000001,1001.75397,0,0
76.28,7.3496190000000015,-6.289784,0.8096429,1001.74615,0,0
76.32,7.6363897,-6.151553599999999,1.3114882,1001.75885,0,0
76.36,7.880174,-6.280251,1.3540993,1001.7334,0,0
76.4,7.9136186,-6.2945504,1.2783474,1001.7663,0,0
76.44,7.5407785999999986,-6.4566126,1.0132194,1001.72833,0,0
76.48,7.3686905,-6.1992183,0.41194856,1001.75397,0,0
76.52,7.2874193,-6.3183823,0.17996143,1001.7485,0,0
76.56,7.378220599999999,-6.246883,0.40721148,1001.7313,0,0
76.6,7.7844887,-6.0514535999999985,0.69127434,1001.7334,0,0
76.64,7.8370523,-5.979955,0.39300558,1001.74115,0,0
76.68,7.7653394,-5.9990206,0.46875456,1001.7489,0,0
76.72,7.6553884,-6.170617,0.63919175,1001.7309,0,0
76.76,7.6744924,-6.1134176,0.59658074,1001.7359,0,0
76.8,7.717496400000001,-5.9847199999999985,0.6960019000000001,1001.7434,0,0
76.84,7.636226,-5.97042,0.76228225,1001.756,0,0
76.88,7.6935678,-6.056218,0.81909364,1001.7388,0,0
76.92,7.674434700000001,-6.0895834,0.88537407,1001.7432,0,0
76.96,7.6027207,-6.146782,0.72913724,1001.746,0,0
77.0,7.521449,-6.0943494000000005,0.6533854,1001.7258,0,0
77.04,7.693507,-6.0991154000000005,0.53502387,1001.764,0,0
77.08,7.8129883,-6.0657489999999985,0.5066161,1001.7535,0,0
77.12,7.841651400000001,-6.1181807999999975,0.5870996,1001.7259,0,0
77.16,7.8607554,-6.0466824,0.5444886,1001.72314,0,0
77.2,7.6934495,-6.1038804,0.56342494,1001.74603,0,0
77.24,7.507021000000001,-6.146779,0.6344396,1001.72314,0,0
77.28,7.516565299999999,-6.180145,0.8711584000000001,1001.75354,0,0
77.32,7.5404496,-6.1801443,0.91376674,1001.74084,0,0
77.36,7.546025299999997,-6.180164,0.84755796,1001.7256,0,0
77.4,7.5364823,-6.2659626,0.73866814,1001.73346,0,0
77.44,7.560398599999999,-6.251663,0.5114181999999999,1001.7156,0,0
77.48,7.560417,-6.1944647,0.37885663,1001.74347,0,0
77.52,7.699047599999999,-6.1277337,0.36465496,1001.751,0,0
77.56,7.7803226,-6.1610994,0.35992217,1001.75336,0,0
77.6,7.6799636,-6.194465599999999,0.39779893,1001.72815,0,0
77.64,7.613065,-6.1563339999999975,0.57770807,1001.7333,0,0
77.68,7.6847796000000015,-6.1420345,0.7434138000000001,1001.73065,0,0
77.72,7.694355499999999,-6.089603,0.75288415,1001.75336,0,0
77.76,7.565317599999997,-6.2278337,0.68186957,1001.73303,0,0
77.8,7.660931599999999,-6.1134367,0.7008089,1001.74585,0,0
77.84,7.876041000000002,-6.041939299999999,0.601388,1001.7104,0,0
77.88,7.8999570000000015,-6.1039042000000014,0.4735607,1001.7104,0,0
77.92,7.766141,-6.1849370000000015,0.32206136,1001.7531,0,0
77.96,7.493709599999999,-6.3517666,0.2699845,1001.7406,0,0
78.0,7.560642999999999,-6.0848393,0.37414294,1001.72546,0,0
78.04,7.6610355,-6.0657735,0.63927114,1001.7581,0,0
78.08,7.5272202,-6.2230706,0.64400727,1001.77075,0,0
78.12,7.307367,-6.251670400000001,0.5587896,1001.7608,0,0
78.16,7.818822999999999,-5.875113,0.22264838,1001.7506,0,0
78.2,7.790161,-5.8036146,0.45937026,1001.7558,0,0
78.24,7.560749,-6.0419436,0.62034166,1001.7305,0,0
78.28,7.646803,-6.1372747,0.37888864,1001.73804,0,0
78.32,7.7280755,-6.151575,0.5161878,1001.7507,0,0
78.36,7.723313,-6.0514769999999976,0.6818936,1001.71545,0,0
78.4,7.6030893,-5.8512645,0.227324,1001.7305,0,0
78.44,7.416666999999999,-6.1420236,0.83806133,1001.73303,0,0
78.48,7.330619299999999,-6.3183865999999975,0.7812475,1001.7406,0,0
78.52,7.387966599999999,-6.313619,0.5776671,1001.73553,0,0
78.56,7.784677999999999,-6.0752916,0.6108068,1001.73804,0,0
78.6,7.880264,-6.032392,0.8096509,1001.728,0,0
78.64,8.061885,-6.013325,0.7338993,1001.72034,0,0
78.68,7.9710584,-5.95136,0.44983402,1001.73804,0,0
78.72,7.712936,-6.0943565,0.5587241999999999,1001.7657,0,0
78.76,7.6794661999999985,-6.0705237,0.62027043,1001.7329,0,0
78.8,7.703353999999999,-6.080056,0.7623015999999999,1001.7381,0,0
78.84,7.6603246,-6.1229553,0.77176934,1001.74304,0,0
78.88,7.588617299999999,-6.189687,0.9138006,1001.7532,0,0
78.92,7.674643,-6.1372538,0.98008126,1001.728,0,0
78.96,7.813244999999997,-6.0991215999999975,0.8475168,1001.7607,0,0
79.0,7.598142599999999,-6.151553,0.8191093,1001.73553,0,0
79.04,7.579012,-6.1420197,0.71968573,1001.74304,0,0
79.08,7.6220193,-6.137253,0.7622944,1001.728,0,0
79.12,7.6028886,-6.1324863,0.89959115,1001.7532,0,0
79.16,7.7080326,-6.118186,0.75282353,1001.748,0,0
79.2,7.626765,-6.2850150000000005,0.79069775,1001.73804,0,0
79.24,7.693671000000001,-6.2087502,0.79543114,1001.7378,0,0
79.28,7.765358,-6.0848193,0.80963343,1001.7531,0,0
79.32,7.9613166,-6.4232445,0.80963224,1001.7303,0,0
79.36,7.9621167,-6.323167,0.9848785,1001.7453,0,0
79.4,7.8330845999999985,-6.3184010000000015,1.2926167,1001.73535,1,4
79.44,7.876123,-6.0038085,1.3020874,1001.7356,1,4
79.48,7.589355,-5.160128,0.97541535,1001.74036,1,4
79.52,7.3838463,-5.012366,0.7102908,1001.7077,1,4
79.56,8.0817175,-5.9561443,0.70555806,1001.74567,1,4
79.6,9.023361,-6.966655,1.6240346,1001.7251,1,4
79.64,8.789173,-7.7436047000000015,2.599324,1001.75037,1,4
79.68,5.5771627,-8.773181,1.8370866,1001.74536,1,4
79.72,1.4330969999999998,-10.913365,-2.5090945,1001.7278,1,4
79.76,0.4914959,-12.124072,-5.023062,1001.7406,1,4
79.8,3.4358752,-12.796157,-3.8773339,1001.7226,1,4
79.84,7.125905499999999,-12.729424,-1.713709,1001.7153,1,4
79.88,10.189783,-10.012488,-1.3254858,1001.74036,1,4
79.92,10.452692,-7.4957466,-0.64372957,1001.7253,1,4
79.96,9.578009,-6.7521644,0.00015127659,1001.72015,1,4
80.0,9.707085,-6.2802760000000015,1.3873338,1001.7301,1,4
80.04,9.63063,-5.884652,1.2453035,1001.7404,1,4
80.08,9.568514,-4.85031,1.0369917,1001.73535,1,4
80.12,9.659351,-4.345055,2.3200176,1001.7353,1,4
80.16,10.471939,-3.4632428,2.2300658,1001.72003,1,4
80.2,12.489038,-2.2573047,1.893925,1001.7402,1,4
80.24,14.443998,-2.0666425,1.9886149,1001.73035,1,4
80.28,13.961259,-4.602452,1.8371159,1001.753,1,4
80.32,14.042538,-8.60636,2.329496,1001.7351,1,4
80.36,14.310226,-11.656957,2.4194515,1001.763,1,4
80.4,15.174485,-14.249943,2.566137,1001.78546,1,4
80.44,15.21271,-15.937303,2.5329952,1001.768,1,4
80.48,12.908831,-15.498779,1.9743338,1001.78314,1,4
80.52,10.456779,-14.364339,1.5245641,1001.783,1,4
80.56,7.1586979999999985,-12.443416,0.6439636,1001.7729,1,4
80.6,5.495314,-11.251776,0.44511747,1001.7477,1,4
80.64,3.975322,-8.787466,0.0048164763,1001.7527,1,4
80.68,2.3645148,-8.282210000000001,-0.7384863,1001.7249,1,4
80.72,1.5710534,-9.388052,-1.1456465,1001.7175,1,4
80.76,2.1541765,-9.435717,-0.6248630999999999,1001.7276,1,4
80.8,3.41125,-9.783674,-0.052001413,1001.7075,1,4
80.84,4.935994,-11.308973,1.1363329,1001.6971,1,4
80.88,6.685389,-12.467246,2.6324036,1001.7228,1,4
80.92,8.9988,-12.333781,3.3662353,1001.72003,1,4
80.96,12.339869,-13.639818,2.9211998,1001.7251,1,4
81.0,16.192375,-14.736125,2.5235085,1001.72754,1,4
81.04,16.47915,-13.468222,1.6523769,1001.71246,1,4
81.08,15.547076,-9.888536,3.337823600000001,1001.72015,1,4
81.12,14.959147,-6.8427067,4.5877050000000015,1001.7273,1,4
81.16,13.888457,-4.778787,3.181586,1001.73486,1,4
81.2,11.307349,-4.230633,0.92327344,1001.7147,1,4
81.24,10.117166,-2.977028,0.9469442,1001.73,1,4
81.28,10.709847,-2.0952144,1.2830857,1001.70984,1,4
81.32,12.865524,-1.1037703,1.2688812,1001.7274,1,4
81.36,15.862449,-2.1428792000000003,2.1494792,1001.7323,1,4
81.4,16.27421,-5.7082815,1.7423843999999995,1001.73486,1,4
81.44,15.270465,-8.5491495,1.7849953,1001.7273,1,4
81.48,14.295398,-11.31852,1.7234492,1001.7827,1,4
81.52,14.9072275,-15.0412,1.0653683,1001.7876,1,4
81.56,15.700688,-17.62944,1.2689489,1001.7927,1,4
81.6,14.53921,-16.495,2.7129438,1001.80786,1,4
81.64,11.097765,-14.3452835,2.6845386,1001.76013,1,4
81.68,8.100841,-12.40053,1.5388137,1001.76263,1,4
81.72,5.108698,-10.4891405,0.6960911,1001.75745,1,4
81.76,3.101194,-8.901876,-0.3502111,1001.74994,1,4
81.8,2.594547,-7.9009,-0.6295399,1001.7503,1,4
81.84,2.1356997000000004,-7.5195765,-0.6437418,1001.71234,1,4
81.88,0.5440406,-8.959077,0.35048458,1001.6998,1,4
81.92,0.7209065,-10.026786,-0.40701896,1001.68207,1,4
81.96,3.1777396,-11.089728,-0.54904985,1001.6768,1,4
82.0,6.389781500000002,-12.362399,1.0890554,1001.7199,1,4
82.04,10.113263,-15.160369,2.2821267000000005,1001.7174,1,4
82.08,14.180889,-17.886837,2.3058,1001.70966,1,4
82.12,18.597443,-16.723799,1.226357,1001.7148,1,4
82.16,17.813568,-12.724659,1.7234706999999998,1001.7272,1,4
82.2,16.140648000000002,-9.168808,4.5499114999999986,1001.73,1,4
82.24,15.538409,-6.728331,5.638826,1001.76013,1,4
82.28,11.93923,-7.4290156,2.1637743,1001.75244,1,4
82.32,9.009223,-6.652067,0.8428764000000001,1001.7577,1,4
82.36,9.586971,-4.297373,2.0358906,1001.7173,1,4
82.4,11.804789,-2.4193492,2.3152194,1001.73737,1,4
82.44,15.14108,-0.15046795,2.8833473,1001.7299,1,4
82.48,16.957394,-1.1323783,4.019603,1001.73987,1,4
82.52,14.60094,-5.7797712999999975,2.7223752,1001.7247,1,4
82.56,13.057052,-9.102061,1.8275717,1001.74225,1,4
82.6,13.214773999999998,-12.20509,1.5340375,1001.73987,1,4
82.64,13.745322,-14.798096,2.0169458,1001.74225,1,4
82.68,13.946060999999998,-14.359571,3.2668276,1001.78015,1,4
82.72,13.44895,-13.930582,2.2962737,1001.76996,1,4
82.76,11.164194,-13.825718,1.5671743,1001.77,1,4
82.8,6.8862576,-13.601689000000002,1.2168272,1001.7526,1,4
82.84,4.725775,-10.398562,0.11370996,1001.7752,1,4
82.88,3.5690527000000003,-8.496706,-0.5822484,1001.74225,1,4
82.92,1.4898255,-8.87803,0.63449246,1001.73,1,4
82.96,-0.4029882,-10.355662,0.2983487,1001.7198,1,4
83.0,-0.29784322,-11.351873,0.27941006,1001.7047,1,4
83.04,2.9380724,-12.572112,0.77178717,1001.6944,1,4
83.08,6.436878,-13.072598,1.2215546,1001.697,1,4
83.12,10.580957,-12.276584,2.2962635,1001.7121,1,4
83.16,13.367572,-11.75703,1.391991,1001.7273,1,4
83.2,15.107409,-12.705574,-0.46389657,1001.73486,1,4
83.24,14.027162,-12.233684,0.7859851999999999,1001.76013,1,4
83.28,12.82742,-10.250796,2.3483377,1001.73486,1,4
83.32,12.277731,-7.800786,3.4703906000000004,1001.73206,1,4
83.36,11.288301,-6.5900803,2.8833237,1001.7448,1,4
83.4,10.41472,-5.417535,1.9886237,1001.7623,1,4
83.44,10.018026,-4.144865,2.5378177,1001.7146,1,4
83.48,10.233151,-3.0199578,2.310569,1001.73206,1,4
83.52,10.849778,-3.6491444,1.420504,1001.73474,1,4
83.56,12.771293,-3.2678206000000003,2.0643861,1001.722,1,4
83.6,14.233941,-3.401285,3.1864426,1001.73975,1,4
83.64,13.751214,-6.4661818,2.2821743,1001.73456,1,4
83.68,12.436802,-8.0915785,1.6288295,1001.72955,1,4
83.72,11.050691,-8.982924,1.5483477,1001.77747,1,4
83.76,11.347074,-10.97058,0.8902686,1001.79004,1,4
83.8,12.723689,-13.863881,0.39315897,1001.7824,1,4
83.84,13.23994,-14.397737,1.5625598,1001.7749,1,4
83.88,11.261134,-12.24802,3.6741076,1001.7928,1,4
83.92,7.227011999999997,-10.188868,2.3200707,1001.76013,1,4
83.96,7.217484,-7.2669697,1.3921301,1001.75757,1,4
84.0,6.64394,-6.9809775,1.4442117,1001.72705,1,4
84.04,4.990167,-7.638763000000001,1.1648854,1001.73474,1,4
84.08,4.5169916,-7.419502,0.59202474,1001.72455,1,4
84.12,4.349729,-7.591099000000002,0.9518423,1001.7523,1,4
84.16,3.532418,-7.7912955,1.7046157,1001.7144,1,4
84.2,2.8919551,-7.519602000000001,0.8760978000000001,1001.6967,1,4
84.24,3.5707204,-7.3384740000000015,-0.8614257,1001.7069,1,4
84.28,5.1719870000000014,-8.758909,-1.7704282999999998,1001.6942,1,4
