Timestamp,Ax,Ay,Az,P,LPFRMSAcc,LPFPValue,Value,Type
0.0,-2.1869137000000003,6.659681299999999,5.7239580000000005,1003.52185,0.01880951387711525,3.61267866,0,0
0.02,-0.7148066,6.230693,7.527759599999999,1003.6228,0.055726524086989616,10.4048779608,0,0
0.04,-2.9470522,3.5709565000000003,6.3962297,1003.5323,0.10455754161298132,19.981723982328,0,0
0.06,-1.8190913,3.666289,8.588253,1003.53784,0.16710189762656935,31.984627144613754,0,0
0.08,-0.394787,3.8760195,10.339974,1003.5905,0.2447307600264319,46.08817352108883,0,0
0.1,0.25518894,3.7425578,8.810756,1003.6356,0.3323460977376544,61.997237834666294,0,0
0.12,1.851571,3.4279668,9.786036,1003.67084,0.4304591596402084,79.44451202993855,0,0
0.14,1.7750167,4.4480114,8.493536,1003.6584,0.5358686034969219,98.18809350557328,0,0
0.16,1.7223662,2.960848,9.28891,1003.69147,0.6476567611012676,118.00973425282412,0,0
0.18,1.3649023,1.6595528999999998,8.31845,1003.66144,0.7619582875283557,138.71248215778482,0,0
0.2,3.319808,3.5566435,7.0164857000000005,1003.6712,0.8779585097497433,160.11928159084005,0,0
0.22,3.2958767,1.621422,6.3773384,1003.67224,0.9925920914202512,182.07112022016057,0,0
0.24,2.6218882000000003,1.1638335,4.7108245,1003.6516,1.101772731575521,204.4254545602356,0,0
0.26,3.912401,0.31062073,1.1552833,1003.6042,1.2027817956387978,227.0547878667091,0,0
0.28,6.2162356,-0.008737907,2.3625540000000003,1003.62976,1.3015252842061211,249.8457366759889,0,0
0.30000000000000004,7.631021499999999,-2.3014507,1.0132451999999998,1003.61725,1.4007892758127274,272.697396491835,0,0
0.32,10.460633,-3.8124483,8.223742,1003.6949,1.5122252962289555,295.520714117746,0,0
0.34,10.441479,-5.6332726,2.6418743,1003.67804,1.6305093088369138,318.236763945177,0,0
0.36000000000000004,15.594072,-3.6313176,6.4388633,1003.6527,1.7650242210688591,340.7761629424925,0,0
0.38,13.208919,-5.0136185,4.8007565,1003.70844,1.9085418236974785,363.0785320939274,0,0
0.4,12.11909,-4.4892964000000015,0.8238537,1003.6983,2.0553994857135023,385.09113664059714,0,0
0.42,11.220453,-4.8753867,1.1883997,1003.6637,2.2033108200681757,406.7683352461283,0,0
0.44,10.125846,-5.433073,0.17523421,1003.7033,2.349960447744025,428.0712738070897,0,0
0.46,10.560773,-5.213810400000002,-0.8521349,1003.6887,2.495623637699957,448.96677305384964,0,0
0.48,11.019601,-5.6523333,-1.4060632,1003.6839,2.6412538413477176,469.4270178452928,0,0
0.5,11.851255,-5.2996073,-0.6532958000000001,1003.70886,2.787441360234128,489.429104774769,0,0
0.52,11.650467,-3.7933743,-1.7374778999999998,1003.73413,2.9322989245352202,508.95444687646494,0,0
0.54,10.641894,-3.5073797999999994,-1.8227003,1003.7216,3.0733340261438133,527.9882009087681,0,0
0.56,9.561628,-4.2652617,-0.85214996,1003.7442,3.2087217166020685,546.5191475684397,0,0
0.5800000000000001,8.275827,-5.3901687,0.0047740974,1003.6917,3.3373265912040577,564.5389132256793,0,0
0.6,7.816931200000001,-5.9526214999999985,0.4071954,1003.6997,3.4593866840417755,582.0421569928036,0,0
0.62,7.7452016000000015,-6.128983,0.6297094,1003.6927,3.5753555612777514,599.0259651402605,0,0
0.64,8.280503,-5.4378314,0.6439094,1003.7095,3.6855878945385534,615.4897187448485,0,0
0.66,8.662854,-5.509329,0.59182775,1003.71515,3.7910946819867015,631.4347029823809,0,0
0.68,8.275235,-5.900176,0.250909,1003.6877,3.8918028873280286,646.8638018439282,0,0
0.7000000000000001,8.227389,-6.281499,0.23196699,1003.6652,3.988298115647074,661.7814386313531,0,0
0.72,7.7015634,-6.6389894,-0.39771315,1003.69794,4.080353585472313,676.1935619016489,0,0
0.74,7.462522,-6.619922,-0.6012972,1003.6904,4.16777605362154,690.1071026404362,0,0
0.76,7.1709065,-6.6294537,-0.7575369000000001,1003.6706,4.250377437922894,703.5299358277232,0,0
0.78,6.8314867,-6.5865535999999985,-0.87590206,1003.6933,4.327870199419777,716.4709393430303,0,0
0.8,6.525532,-6.7962804000000006,-0.77648383,1003.70593,4.400411889691402,728.9396560155203,0,0
0.8200000000000001,6.4251017999999975,-6.9106765,-0.93272406,1003.6859,4.46837632453821,740.946100545677,0,0
0.84,6.4059352999999986,-6.896375999999999,-0.60605454,1003.7163,4.531947663967086,752.5009676505589,0,0
0.86,6.659214,-6.796277000000001,-0.47349584,1003.7041,4.591605238106344,763.6151795008908,0,0
0.88,7.180165,-6.572247999999999,-0.61553234,1003.7089,4.648060876439279,774.3000344856404,0,0
0.9,7.3999853,-6.6008460000000015,-0.3504103,1003.694,4.701835350687019,784.566990626017,0,0
0.92,7.724961299999999,-6.567479,-0.36461818,1003.69183,4.7535117738613515,794.4277224934,0,0
0.94,8.790808,-5.657065,-0.9374858,1003.68933,4.8038753070166536,803.8940069584435,0,0
0.96,8.814653999999997,-5.6284647,-1.0179753,1003.6798,4.8529226410993225,812.9776447667055,0,0
0.98,8.09286,-6.114652,0.13721535,1003.65674,4.899874400002863,821.6903918769258,0,0
1.0,8.283999,-5.8048244,0.5254316,1003.67725,4.944774163961232,830.0441279127592,0,0
1.02,8.393884,-5.7333254999999985,0.089861736,1003.69214,4.987774900620368,838.050621917536,0,0
1.04,8.398616,-5.585561,0.32184320000000005,1003.69214,5.028789197430023,845.7214694852535,0,0
1.06,8.379445,-5.7190227999999985,0.48280832,1003.6977,5.068035773168089,853.0681448259418,0,0
1.08,8.26468,-5.7571545,0.47806928,1003.6901,5.1054274181387855,860.1019061956005,0,0
1.1,8.164257000000001,-5.8953834,0.23187587,1003.6677,5.141023378860875,866.8337745995268,0,0
1.12,7.949117,-5.9192147,0.0188233,1003.68506,5.1745677022338095,873.2747181486778,0,0
1.14,7.8630270000000015,-6.0479107,-0.24157389,1003.6878,5.206203260554955,879.4354229633722,0,0
1.16,7.700466,-6.2099724,-0.69608104,1003.67505,5.236026056107089,885.3262843949681,0,0
1.18,7.423157700000001,-6.2767024000000005,-0.76710445,1003.6628,5.263795572641547,890.9574610121042,0,0
1.2,7.2510295,-6.2910010000000005,-0.8854697,1003.6928,5.289420341958952,896.3390158913625,0,0
1.22,7.337014,-6.2147346,-0.8902087,1003.691,5.313091044981666,901.480624925466,0,0
1.24,7.236589,-6.381563,-0.8476036,1003.696,5.3350105081938874,906.3917260182684,0,0
1.26,7.188726400000001,-6.4101605,-0.5777485,1003.6879,5.355227420402233,911.0814411702023,0,0
1.28,7.226928999999997,-6.4053926,-0.44992286,1003.67834,5.373905725618178,915.5586223142387,0,0
1.3,7.2842216,-6.290994,-0.265287,1003.6759,5.3910761533271865,919.8318817727783,0,0
1.32,7.4897175,-6.2433276,-0.27949345,1003.69885,5.407114720690122,923.9096549159613,0,0
1.34,7.6473994,-6.1003300000000005,-0.24162303,1003.7364,5.422159471656202,927.8001515475804,0,0
1.36,7.6234350000000015,-6.2766905,-0.12326886,1003.68365,5.436459428056981,931.5109749657083,0,0
1.38,7.6759806,-6.1765919999999985,-0.06645897,1003.6839,5.450002034905388,935.0496810680893,0,0
1.4,7.9387975000000015,-6.105092,-0.123278365,1003.6816,5.463165268026496,938.4235566883076,0,0
1.42,7.8144746,-6.086024299999999,0.009280501,1003.6793,5.475715722451876,941.639633862255,0,0
1.44,7.7379427,-6.152755,0.0045410544,1003.68176,5.487640305895084,944.7047113072508,0,0
1.46,7.723553999999999,-6.2528515,-0.1753708,1003.66895,5.499079026546174,947.6252849969427,0,0
1.48,7.6422485999999985,-6.343415,-0.18957847,1003.6793,5.510036447477171,950.4076983631658,0,0
1.5,7.675652499999999,-6.2099495000000005,-0.16117711,1003.66925,5.5204059869794175,953.057980399453,0,0
1.52,7.484407400000001,-6.5245419999999985,-0.038087357,1003.70215,5.5303323419547485,955.5820886172785,0,0
1.54,7.307506599999999,-6.710436,0.023455456,1003.68726,5.5398148939577165,957.9855692555265,0,0
1.56,7.4030538,-6.3767757000000005,-0.04756507,1003.71,5.548558804110939,960.2738926981627,0,0
1.58,7.125776299999999,-6.6198688,-0.20853932,1003.71295,5.5565303257301695,962.4522358983627,0,0
1.6,6.810254,-6.743798,-0.6157031,1003.6777,5.563532062035725,964.5254316208252,0,0
1.62,6.8436637000000005,-6.6627655,-0.5304884,1003.6952,5.569572773032142,966.4983185273584,0,0
1.64,7.211653,-6.4339695,-0.3695236,1003.70795,5.574961991257423,968.3755160712724,0,0
1.66,7.5465339999999985,-6.3243456,-0.11383882,1003.69324,5.580120337559512,970.161351627218,0,0
1.68,7.5560584,-6.2766800000000025,-0.26534304,1003.6981,5.5850139253135085,971.8600482185941,0,0
1.7,7.503442999999999,-6.4101424000000025,0.14181229999999995,1003.69543,5.589745710842708,973.4756239011464,0,0
1.72,7.589441000000001,-6.2957435,0.39273226,1003.7108,5.594315234420905,975.011993208206,0,0
1.74,7.833173299999999,-6.238544,0.5205577,1003.7036,5.599054917570161,976.472818912374,0,0
1.76,7.5702479999999985,-6.472105,0.33117825,1003.71106,5.603798715162476,977.8616621724924,0,0
1.78,7.536751299999999,-6.4911699999999986,-0.33164190000000004,1003.69116,5.6085020866780795,979.1818302693124,0,0
1.8,7.19257,-6.624632400000001,-0.23695706,1003.7117,5.6127975492735285,980.4366383306924,0,0
1.82,7.240328,-6.214708,-0.2558984,1003.70386,5.616226229416019,981.6291487317377,0,0
1.84,7.531860000000001,-6.2909718,-0.6299196,1003.72174,5.619476399004495,982.762384250667,0,0
1.86,7.38843,-6.662762,-0.5399691999999999,1003.71924,5.6228270392473245,983.8391558358903,0,0
1.88,7.431408,-6.605562700000001,-0.052329194,1003.70636,5.626211496773329,984.8621131435846,0,0
1.9,7.330996499999999,-6.8200564,-0.09494212,1003.6943,5.629759845054838,985.8337940933465,0,0
1.92,7.115867,-6.7294908,-0.5163076,1003.6764,5.633012655515167,986.7566047618196,0,0
1.94,7.034575,-6.4482636,-0.38848197,1003.7041,5.635458793614255,987.6330112513403,0,0
1.96,7.1779284,-6.486395,-0.05707733,1003.70166,5.637440972966418,988.465251160976,0,0
1.98,7.144434,-6.8772516,-0.061815005,1003.6998,5.639509365478702,989.2554627209503,0,0
2.0,7.163520299999999,-6.6722894,-0.20385021,1003.6998,5.641386390912975,990.0056932695484,0,0
2.02,7.211275,-6.7151869999999985,0.06600697,1003.69476,5.643217016399728,990.7178776225193,0,0
2.04,7.173001299999999,-6.719953,-0.09496607,1003.6748,5.6449491724217555,991.3938086373632,0,0
2.06,7.158625999999999,-6.3243275,-0.2606735,1003.70764,5.646018993650428,992.0353910749848,0,0
2.08,7.2780833,-6.491156,-0.11391042,1003.7177,5.646909590139946,992.6443496289972,0,0
2.1,7.2923822,-6.58172,-0.22280543,1003.7052,5.647790312518609,993.222244468658,0,0
2.12,7.3975050000000016,-6.672283599999999,0.0044429563,1003.66974,5.6489422087262975,993.7704833328952,0,0
2.14,7.306648,-6.6436834000000005,-0.08551444,1003.6951,5.650150457177178,994.2906358133373,0,0
2.16,7.387866499999999,-6.4720864,-0.14233078,1003.6951,5.651293971191996,994.7840986161273,0,0
2.18,7.1014614,-6.6532244999999985,-0.25592142,1003.6929,5.652192623571168,995.2521940336547,0,0
2.2,7.1014414000000015,-6.7676215,0.056547463,1003.72064,5.653028298029634,995.6962895500608,0,0
2.22,7.3117323,-6.6150913000000005,-0.16123702,1003.7032,5.653912296177088,996.1175172259767,0,0
2.24,7.3403883,-6.4291945,-0.27013043,1003.7157,5.654628414949185,996.5170674584027,0,0
2.26,7.373827,-6.3910620000000025,-0.085490465,1003.73334,5.655186961925808,996.896088624924,0,0
2.28,7.5124197,-6.3290963,0.12282136,1003.70593,5.655740411950713,997.2555071566127,0,0
2.3,7.6318936,-6.329096,0.11335057,1003.6984,5.656477646087582,997.5962837854488,0,0
2.32,7.569735499999997,-6.424426,0.12281753,1003.7313,5.6574032239563765,997.9194800730608,0,0
2.34,7.411982000000001,-6.643687700000001,0.08494043,1003.701,5.658543534788863,998.2258697845316,0,0
2.36,7.1729702999999985,-6.572188400000001,0.1228137,1003.69086,5.6594024304183925,998.5162696983632,0,0
2.38,7.388039599999999,-6.586488,-0.03342363,1003.6963,5.6603596535167995,998.7915151713106,0,0
2.4,7.378457000000001,-6.495922599999999,-0.13284823,1003.6909,5.661262327553088,999.05235985659,0,0
2.42,7.2541633,-6.514988400000001,-0.19439723,1003.67584,5.661948989723891,999.2994867490194,0,0
2.44,7.2398024,-6.6627507,-0.2180712,1003.7213,5.662627820275477,999.5337665988733,0,0
2.46,7.4070740000000015,-6.572186,-0.13758829,1003.7088,5.6634260023297385,999.7558063944484,0,0
2.48,7.5313272,-6.3243246,-0.12338707,1003.70636,5.664185236878152,999.9662227507984,0,0
2.5,7.254077400000001,-6.4482545999999985,-0.10445143,1003.7192,5.6646392250046125,1000.1656573613665,0,0
2.52,6.9529295,-6.7294807,0.032844465,1003.6813,5.664759419025499,1000.3545340967636,0,0
2.54,7.0867434000000005,-6.777146000000001,0.33111015,1003.6788,5.664864857299304,1000.5333929374119,0,0
2.56,7.4165287,-6.491152,0.26482648,1003.6842,5.665057131367044,1000.7027755144344,0,0
2.58,7.636377,-6.2861895999999975,0.05651056,1003.69916,5.665391059934735,1000.8632289436392,0,0
2.6,7.593338,-6.3576875,-0.09972663,1003.6743,5.665875757541633,1001.0151254494876,0,0
2.62,7.3256474,-6.4482517,-0.0145093165,1003.69965,5.6661913497911565,1001.159005490437,0,0
2.64,7.263489999999999,-6.3672194000000015,-0.30330983,1003.7047,5.666158043609966,1001.2953023948544,0,0
2.66,7.4833393,-6.329087,-0.12340444,1003.7049,5.666102855382477,1001.424408890976,0,0
2.68,7.5935435,-6.4387235999999985,-0.08550458,1003.7024,5.666349741595401,1001.5466881589416,0,0
2.7,7.4358,-6.6198525,-0.00028624013,1003.7097,5.666861315189878,1001.662520962744,0,0
2.72,7.4596887,-6.348159,-0.019224763,1003.69226,5.66727163531858,1001.7721778887178,0,0
2.74,7.3927619999999985,-6.462556,-0.11864816,1003.69476,5.667642422311916,1001.8759920441088,0,0
2.76,7.1537614000000005,-6.453022,-0.057101805,1003.6676,5.667591195794884,1001.9741720204537,0,0
2.78,7.364063000000002,-6.3100257000000015,-0.11391561,1003.6899,5.6673003348585596,1002.067100468278,0,0
2.8,7.287576700000002,-6.4053564000000005,-0.09971325,1003.6951,5.666808259158393,1002.15507284309,0,0
2.82,6.9768796,-6.5531197,-0.099714205,1003.705,5.665868738152298,1002.2383849712387,0,0
2.84,7.244539,-6.4625545,-0.04763661,1003.6951,5.664819680109413,1002.3172437417744,0,0
2.86,7.383143,-6.467321,-0.038168732,1003.69257,5.663899928448743,1002.3918745259496,0,0
2.88,7.383133,-6.600784,0.037580818,1003.718,5.6632815598938535,1002.4625923385533,0,0
2.9,7.502617999999999,-6.5245194,-0.13759306,1003.70544,5.663014989173231,1002.5295528493507,0,0
2.92,7.6699009999999985,-6.276658,-0.38851747,1003.70013,5.66300761152371,1002.5929332344341,0,0
2.94,7.6077538,-6.262357700000001,-0.33643985,1003.7159,5.66310669235004,1002.6529788230496,0,0
2.96,7.574286,-6.3100233,-0.0855173,1003.7183,5.663297931793285,1002.7098702613872,0,0
2.98,7.72245,-6.1431937,0.004435476,1003.7159,5.66358904466272,1002.7637612433616,0,0
3.0,7.4882293,-6.371988,-0.009768695,1003.7083,5.663893591489973,1002.8147796545579,0,0
3.02,7.555136,-6.2099247,-0.14706734,1003.7183,5.664101770832933,1002.8631121959346,0,0
3.04,7.4499710000000015,-6.281423,0.037573572,1003.7055,5.664148991810793,1002.9088514255895,0,0
3.06,7.4977592999999985,-6.4387193,-0.014505785,1003.6983,5.664341211984238,1002.9521086237806,0,0
3.08,7.454730499999997,-6.524517,-0.11392924,1003.6983,5.664711440777112,1002.9930169730568,0,0
3.1,7.397363,-6.5626493,-0.13286775,1003.6739,5.665201056724283,1003.0316147693736,0,0
3.12,7.373454,-6.433952,-0.1802127000000001,1003.71106,5.665581988019115,1003.06816578503,0,0
3.14,7.3352056,-6.514983,-0.3317146,1003.7264,5.665925336653036,1003.1028319056378,0,0
3.16,7.153563,-6.4244184,-0.4074659,1003.7264,5.665833553710744,1003.1357077349464,0,0
3.18,7.143992999999999,-6.443484,-0.20388755,1003.70636,5.665355896259612,1003.1668111658777,0,0
3.2,7.2348003,-6.681812,0.03283192,1003.70605,5.66500797086401,1003.1962354172516,0,0
3.22,7.3542843,-6.47685,0.06597175400000001,1003.6934,5.664675372952048,1003.2240244782632,0,0
3.24,7.387731,-6.214689,0.023360949,1003.71136,5.6640543095798055,1003.2503333004512,0,0
3.26,7.182191400000002,-6.233754,-0.00031177327,1003.7309,5.662881484637908,1003.2753098158553,0,0
3.28,7.4259496,-6.5102150000000005,-0.02398488,1003.71643,5.661984928795234,1003.2989670975287,0,0
3.3,7.588051299999999,-6.400574,0.122744024,1003.69635,5.661444102154902,1003.3213012500647,0,0
3.32,7.846138499999999,-6.410106,0.013850635,1003.67834,5.66164339199464,1003.3423210467453,0,0
3.34,7.908253999999999,-6.20991,-0.12344909,1003.699,5.662338113682716,1003.3621781833236,0,0
3.36,7.917791999999999,-6.22421,-0.13765438,1003.70386,5.663502428962535,1003.3809540037444,0,0
3.38,7.6262016,-6.3004737,-0.3033605,1003.73395,5.6647127529096295,1003.3988151042547,0,0
3.4,7.2820315,-6.495902,-0.21814345,1003.6839,5.665676574762107,1003.4156234782904,0,0
3.42,7.1147156,-6.605532000000001,-0.270224,1003.70886,5.6663180319878625,1003.4315310090664,0,0
3.44,7.296332400000002,-6.6388979999999975,-0.18027176,1003.70135,5.6669928039681166,1003.4465582516274,0,0
3.46,7.3345437,-6.7389946,0.0375084,1003.70135,5.667890309003856,1003.4607535734483,0,0
3.48,7.425337299999999,-6.462534,-0.033509772,1003.70636,5.668738967770595,1003.4741807429452,0,0
3.5,7.559156,-6.348136,-0.21815298,1003.6965,5.669603199221902,1003.4868453392378,0,0
3.52,7.468315,-6.181306,-0.6395172,1003.699,5.6701497977645525,1003.4987995333008,0,0
3.54,7.3679112999999985,-6.56263,-0.27970505,1003.71643,5.670736281464058,1003.5101457288547,0,0
3.56,7.2006006,-6.7294592999999985,-0.10453372,1003.7065,5.671325629714247,1003.5208781026224,0,0
3.58,7.2579365,-6.5483294,-0.0429884,1003.69135,5.671747569713607,1003.5309749269144,0,0
3.6,7.539916499999999,-6.276635,-0.09506947,1003.70166,5.6720938645535135,1003.5405109471216,0,0
3.62,7.5064363,-6.1527042000000005,0.028023086000000003,1003.7142,5.672153502039253,1003.5495622551672,0,0
3.64,7.568552499999999,-6.167003,-0.05246373,1003.70135,5.672078618839314,1003.5581064268373,0,0
3.66,7.6880289999999984,-5.9239087,-0.16609117,1003.704,5.671768613353192,1003.5661812737887,0,0
3.68,7.649763,-6.1050366999999985,-0.061936725,1003.67926,5.671419158916769,1003.5737232919693,0,0
3.7,7.7596755,-6.224200700000001,0.056421295,1003.7216,5.67136914541384,1003.5809197753824,0,0
3.72,7.6305985,-6.2813983,-0.047737684,1003.6814,5.671450567645603,1003.5876403169352,0,0
3.74,7.6879334,-6.2003665,-0.14716229,1003.69635,5.6716358687632225,1003.5939699423101,0,0
3.76,7.620994599999999,-6.44346,-0.15189867,1003.68896,5.672126877247437,1003.5999047634987,0,0
3.78,7.630532700000002,-6.0240026,-0.39335528,1003.699,5.672364016438985,1003.6055055143527,0,0
3.8,7.5444746,-6.3671940000000005,-0.2276531,1003.6868,5.6726774714132855,1003.6107469979556,0,0
3.82,7.5683503,-6.0907335,-0.23238961,1003.7068,5.672730369801317,1003.6157241636744,0,0
3.84,7.539647599999999,-6.35766,-0.09982853,1003.7114,5.672854859991671,1003.6204664203143,0,0
3.86,7.620883,-6.024,-0.34128508,1003.68646,5.672745704751077,1003.6248942551683,0,0
3.88,7.783372999999999,-6.119331,-0.41230324,1003.6764,5.6728237653953695,1003.6289921107266,0,0
3.9,7.453545,-6.3719583,-0.44544607,1003.6714,5.672872932566659,1003.6327656442993,0,0
3.92,7.334026,-6.2098947,-0.31288493,1003.7118,5.672478479739082,1003.6363844622446,0,0
3.94,7.3101068,-6.176528500000001,-0.49752855,1003.68896,5.671626998152197,1003.639771321717,0,0
3.96,7.310083,-6.3719563,-0.511734,1003.6789,5.670640437820977,1003.6429048139886,0,0
3.98,7.5586095,-6.348123,-0.18979658,1003.7139,5.66987411973818,1003.6459291504294,0,0
4.0,7.7450004,-6.233725,-0.3744403,1003.68646,5.66946426748771,1003.648747365167,0,0
4.02,7.711520699999999,-6.209892,-0.2134725,1003.69147,5.669275728784854,1003.6513913411943,0,0
4.039999999999999,7.6875973,-6.171759,-0.2702876,1003.69135,5.6691979230026375,1003.6538714095842,0,0
4.06,7.730594,-5.990629,-0.26082075,1003.7043,5.669054777086256,1003.6562443409388,0,0
4.079999999999999,7.897864999999999,-5.8762317,-0.32237009999999994,1003.69385,5.668991248758062,1003.6584764434564,0,0
4.1,7.7448893,-5.9048300000000005,-0.36024725,1003.6839,5.668782956951902,1003.6605402540443,0,0
4.119999999999999,7.711406699999999,-5.9906273,-0.11879484,1003.699,5.668488771572659,1003.6625022921654,0,0
4.14,7.759183,-5.9000626,-0.25136015,1003.69635,5.668089005964418,1003.6643578007972,0,0
4.159999999999998,7.668347,-6.133623,-0.009907346,1003.7015,5.667740353577478,1003.6661310401416,0,0
4.18,7.630083,-6.1955870000000015,0.09424721,1003.70636,5.6674579403606975,1003.6678426986816,0,0
4.199999999999998,7.7447762,-6.08119,-0.104599744,1003.7065,5.66727320799272,1003.6694942864523,0,0
4.22,7.673056599999999,-6.1193212999999975,-0.14721146,1003.68097,5.66710887792733,1003.6709949419754,0,0
4.239999999999998,7.840330000000002,-5.981091,-0.26083902,1003.69604,5.6670654730982015,1003.6724110834044,0,0
4.26,8.122313,-5.9381914,-0.13301244,1003.7068,5.6675399785756255,1003.6737861860707,0,0
4.2799999999999985,8.036255,-5.9381910000000016,-0.29871854,1003.67896,5.668333726296011,1003.6750198525168,0,0
4.3,7.760035,-6.1288776,-0.2749541,1003.7089,5.669189764624335,1003.6762318887196,0,0
4.3199999999999985,7.478044500000001,-6.176544,-0.11871719,1003.69135,5.66969760612084,1003.677357269109,0,0
4.34,7.454164,-6.2242102999999975,-0.24654438,1003.6661,5.669926057951933,1003.6783111290524,0,0
4.3599999999999985,7.52588,-6.133646,-0.1944643,1003.6839,5.669899559849668,1003.6791740796336,0,0
4.38,7.454202,-6.1622458,-0.42644826,1003.6864,5.669585927102816,1003.6799625960804,0,0
4.4,7.688431,-6.052615,-0.51166594,1003.7114,5.669263807365029,1003.680772503867,0,0
4.42,7.850961,-5.861953700000001,-0.41697618,1003.7314,5.668952950737077,1003.6816703973732,0,0
4.44,7.530734,-6.147948,-0.26547350000000003,1003.69604,5.668483515084318,1003.682515506645,0,0
4.46,7.7267265,-6.038317,-0.3080813,1003.6814,5.668054254819994,1003.6832582293737,0,0
4.48,7.9991918,-5.9143870000000005,-0.23706369,1003.7035,5.667952818090125,1003.6839873695508,0,0
4.5,7.870157000000002,-5.933453599999999,-0.15184256,1003.6907,5.667946775836129,1003.6846558032807,0,0
4.52,7.7172213,-6.028785,-0.12816893,1003.68604,5.667892823681347,1003.6852514144326,0,0
4.539999999999999,7.5929656,-6.11935,-0.0050726607,1003.7034,5.6677096855145885,1003.6858430313547,0,0
4.56,7.731599,-6.0526185,-0.13763423,1003.7236,5.667554422601286,1003.6865017091544,0,0
4.579999999999999,7.913249499999999,-5.923923,-0.11396058,1003.70636,5.667560899667351,1003.687155206705,0,0
4.6,7.798553999999997,-6.0049550000000025,-0.27019408,1003.7214,5.667628586543469,1003.6878559183966,0,0
4.619999999999999,7.693416,-6.114586,-0.3506773,1003.7008,5.667723695825008,1003.6885216659413,0,0
4.64,7.698214,-6.0526204,-0.37434775,1003.67566,5.667772512402875,1003.6890636184739,0,0
4.659999999999998,7.7890496,-6.009722,-0.46429962,1003.7184,5.667882303823208,1003.6896480987056,0,0
4.68,7.7795095,-6.0669208,-0.25598404,1003.70135,5.668086919122494,1003.6902066722827,0,0
4.699999999999998,7.7030509999999985,-6.1145873,-0.22284155,1003.7006,5.668309297656799,1003.6907376438754,0,0
4.72,7.5596757,-6.133654,-0.18023017,1003.7131,5.668337182251237,1003.6912873148567,0,0
4.739999999999998,7.521455,-6.1765537,-0.22283818,1003.70605,5.668189788383483,1003.6918261498024,0,0
4.76,7.61707,-6.1765537,-0.18022682,1003.70636,5.668040162882483,1003.692354586221,0,0
4.7799999999999985,7.6362085,-6.066923,-0.19442828,1003.7239,5.667778077665295,1003.6929350761301,0,0
4.8,7.7796205999999986,-5.9811260000000015,-0.18969224,1003.70605,5.667542393763803,1003.6934952107396,0,0
4.8199999999999985,7.917833,-5.9954157,-0.29388592,1003.7208,5.667582512285107,1003.6940884429221,0,0
4.84,7.903495299999999,-5.96205,-0.21340081,1003.70264,5.667796341595746,1003.694643408484,0,0
4.8599999999999985,7.8413606,-6.071681,-0.13291574,1003.7284,5.668195724365201,1003.6952552997838,0,0
4.88,7.8126845,-5.9763503,-0.15658754,1003.6909,5.6685902821368925,1003.695780287857,0,0
4.9,7.72665,-6.0192489999999985,-0.16605613,1003.6909,5.668892426247213,1003.6962265982824,0,0
4.92,7.726653,-6.071681,-0.11871183,1003.7105,5.6691775491942,1003.6966723424202,0,0
4.94,7.664517999999997,-6.1002803,-0.028757896,1003.713,5.669380779577778,1003.6971249815076,0,0
4.96,7.6358414,-6.0669146,-0.13291462,1003.723,5.669422898090548,1003.6976180834724,0,0
4.98,7.635843799999999,-6.119346599999999,-0.13764876,1003.68317,5.669390612158217,1003.6980017752674,0,0
5.0,7.640625999999999,-6.1384134,-0.14711735,1003.69543,5.669325535332326,1003.6983315469464,0,0
5.02,7.5115747000000015,-6.1622458,-0.16132033,1003.74335,5.669055183650267,1003.6987849996332,0,0
5.039999999999999,7.506797,-6.1956120000000015,-0.123444885,1003.703,5.668639664651371,1003.6992008444287,0,0
5.06,7.602395,-6.1717796,-0.1613199,1003.6901,5.6682208862795465,1003.69953552185,0,0
5.079999999999999,7.841388,-5.957284,-0.10924119,1003.69543,5.667914514942403,1003.6998164629407,0,0
5.1,7.8605094,-6.0144825,-0.057162497,1003.67737,5.667811339160885,1003.699983895222,0,0
5.119999999999999,7.7649164000000015,-6.066915,-0.042959068,1003.70013,5.667797408442183,1003.7001323643628,0,0
5.14,7.8079367,-6.100281,-0.04295889,1003.70264,5.667975540595287,1003.700272579184,0,0
5.159999999999998,7.741022599999999,-6.0573826,-0.038224217000000005,1003.70264,5.668158215747088,1003.7004049957147,0,0
5.18,7.6741076,-6.0764484,-0.05716159,1003.6876,5.668259664656103,1003.7004759009767,0,0
5.199999999999998,7.8461823000000015,-5.9763513,-0.12817746,1003.6926,5.6684452230758895,1003.7005101996233,0,0
5.22,7.6645527,-6.1336474,-0.01455152,1003.71,5.668606366346518,1003.700574669188,0,0
5.239999999999998,7.568958999999999,-6.1527133,0.02332393,1003.6951,5.668615615879817,1003.7006119256866,0,0
5.26,7.736254700000001,-6.1956124,-0.17078641,1003.72754,5.668820225776908,1003.7007417865964,0,0
5.2799999999999985,7.769716000000002,-6.095515,-0.19445823,1003.715,5.669122906514076,1003.7009078612643,0,0
5.3,7.6406636,-6.0955153,-0.22286437,1003.73755,5.6693020927409385,1003.7011865165404,0,0
5.3199999999999985,7.735421,-6.00493,-0.32709807,1003.7099,5.6694159186883795,1003.7014641048828,0,0
5.34,7.721050999999999,-6.1765256,-0.12352145,1003.7001,5.669659135831273,1003.7017044711646,0,0
5.3599999999999985,7.6541070000000015,-6.2194233,0.023242647,1003.70715,5.6699619027351424,1003.7019364627147,0,0
5.38,7.792681699999997,-5.9620285000000015,-0.02883945,1003.7022,5.670211122911955,1003.702142399183,0,0
5.4,7.7209644,-6.02876,0.0327059,1003.7224,5.670379038716713,1003.7023972920093,0,0
5.42,7.969481,-5.97156,-0.10932918,1003.6949,5.670813690747657,1003.7025955250592,0,0
5.44,7.9025273,-6.0001583,-0.104598135,1003.68677,5.671407058199325,1003.702713711892,0,0
5.46,7.8642592,-6.0430574,-0.04305363,1003.7047,5.672128493845625,1003.7028252924144,0,0
5.48,7.696936999999999,-6.0287566,-0.07619709,1003.6817,5.6726679172739125,1003.7028478339116,0,0
5.5,7.673016,-6.047822,-0.14721523,1003.70935,5.673031648662692,1003.7028911593762,0,0
5.52,7.672978,-6.162218599999999,-0.15195312,1003.72174,5.673386937773486,1003.702997297583,0,0
5.539999999999999,7.6203694,-6.1574516,-0.1424871,1003.6792,5.673641835360839,1003.7030054110312,0,0
5.56,7.6155615,-6.1669836,-0.30819386,1003.70636,5.6738197168996205,1003.7030246565944,0,0
5.579999999999999,7.6107507,-6.0907183,-0.32239988,1003.7117,5.673822724391687,1003.7030728932104,0,0
5.6,7.5868306,-6.171749,-0.19457288,1003.7038,5.673731212200044,1003.7031181326686,0,0
5.619999999999999,7.64893,-6.1002502,-0.109357044,1003.70166,5.6735610582291525,1003.7031528569763,0,0
5.64,7.6871399999999985,-6.0621166,-0.39342397,1003.73175,5.6733501585275485,1003.7032864890894,0,0
5.6599999999999975,7.629752000000001,-6.1240816,-0.11883128,1003.6988,5.673075935497527,1003.7033884150636,0,0
5.68,7.7109766,-6.0811815000000005,-0.13303745,1003.7063,5.672823714979487,1003.7034889585608,0,0
5.6999999999999975,7.84478,-5.981083,-0.14250904,1003.6834,5.672684391620983,1003.7035054785434,0,0
5.72,7.720477000000002,-6.06688,-0.15198044,1003.7008,5.672550478389298,1003.7035103358777,0,0
5.7399999999999975,7.7204485,-6.062113,-0.13304546,1003.69135,5.672415090066104,1003.7034708506088,0,0
5.76,7.672617999999999,-6.1002445,-0.20879893,1003.6988,5.672252764428995,1003.7034191463632,0,0
5.7799999999999985,7.648692599999999,-6.0954776,-0.25614536,1003.70825,5.672024492668988,1003.7033908515648,0,0
5.8,7.6501327,-6.124112,-0.18026301,1003.7009,5.671774729814925,1003.7033568832152,0,0
5.8199999999999985,7.626263000000002,-6.090747,-0.2370732,1003.6983,5.671427358318037,1003.7033086640022,0,0
5.84,7.6023912,-6.1574792999999985,-0.21813308,1003.7108,5.671042325040648,1003.703293026315,0,0
5.8599999999999985,7.5641823000000015,-6.1860795,-0.189724,1003.6959,5.6706001026559365,1003.70325259396,0,0
5.88,7.602448,-6.1479483,-0.24179994,1003.70074,5.6701230264629165,1003.7032078225926,0,0
5.9,7.6072570000000015,-6.1145825,-0.20865645,1003.6857,5.669579546872102,1003.7031052344513,0,0
5.92,7.6311836,-6.095517,-0.13290346,1003.7009,5.668990624152381,1003.7030066487256,0,0
5.94,7.640772,-6.200382,-0.1329008,1003.6932,5.668515863401549,1003.7028842344426,0,0
5.96,7.6694803,-6.1765504,-0.15657014,1003.6929,5.668159669539902,1003.7027401259384,0,0
5.98,7.7746673,-6.0144873,-0.24178658,1003.6929,5.667876020180827,1003.7025773672107,0,0
6.0,7.784253599999999,-6.0478544,-0.13289279,1003.7107,5.667711413339678,1003.7024627950767,0,0
6.02,7.765163999999999,-6.0192555999999975,-0.19443737,1003.6903,5.6675869335109645,1003.7023177730772,0,0
6.039999999999999,7.703053999999999,-6.105054,-0.1328876,1003.6726,5.667504635546372,1003.7020826476552,0,0
6.06,7.683961999999997,-6.1002884,-0.04293141,1003.69244,5.667420989468645,1003.7018401773007,0,0
6.079999999999999,7.688771000000001,-6.1098228,-0.066600755,1003.6929,5.6673568795483575,1003.7015937458573,0,0
6.1,7.703139299999999,-6.090757,-0.11394213,1003.7177,5.667309954527028,1003.7014339815488,0,0
6.119999999999999,7.578893700000001,-6.1622562000000025,-0.10920505,1003.71014,5.667169766900884,1003.701324155472,0,0
6.14,7.61716,-6.1288905,-0.12340577,1003.7125,5.6669662538052155,1003.7012673461912,0,0
6.1599999999999975,7.650647,-6.18609,-0.19441918,1003.6998,5.6668387068791,1003.7012118670641,0,0
6.18,7.6745753,-6.109826,-0.1849477,1003.69476,5.666717968885617,1003.7011396189861,0,0
6.1999999999999975,7.741519999999999,-6.1431923,-0.11392912,1003.68475,5.666753500868009,1003.7010167779559,0,0
6.22,7.645955000000002,-6.1860924000000015,-0.16127032,1003.71234,5.666829116617758,1003.700948999221,0,0
6.2399999999999975,7.6555414000000015,-6.095528,-0.22281505,1003.70245,5.666840115821913,1003.7008945135336,0,0
6.26,7.6364517,-6.228993,-0.0949835,1003.7169,5.666932838090182,1003.7009039897316,0,0
6.2799999999999985,7.540881,-6.276659,-0.05237149,1003.689,5.667006474951839,1003.700869508537,0,0
6.3,7.650378999999999,-6.1527176,-0.071349144,1003.7019,5.6670762446728,1003.7008427507228,0,0
6.3199999999999985,7.6934085,-6.085986,-0.14709865,1003.6894,5.6671275295051275,1003.7007779136155,0,0
6.34,7.674299,-6.114586,-0.09501931,1003.71405,5.667166814642101,1003.7007684030583,0,0
6.3599999999999985,7.6265100000000015,-6.152718,-0.104487285,1003.7044,5.667167637694756,1003.7007730732793,0,0
6.38,7.6217394,-6.114586,-0.18023692,1003.69135,5.667079363665963,1003.7007432768223,0,0
6.4,7.789044400000001,-6.038321,-0.10448542,1003.6969,5.667085265659945,1003.7007031128768,0,0
6.42,7.798613,-6.0621543,-0.042937275,1003.7219,5.6672194892311385,1003.7007439328081,0,0
6.44,7.703027,-6.0955205,-0.02873316,1003.6863,5.667352978933888,1003.7007280031412,0,0
6.46,7.812972999999999,-6.0621552,-0.028732192,1003.7265,5.667622441920956,1003.7008067068762,0,0
6.48,7.765185000000002,-5.9811239999999986,-0.052403267,1003.7294,5.6678296942940225,1003.7009791853516,0,0
6.5,7.6934977,-6.076455,-0.057136763,1003.7088,5.6679856613786574,1003.7011597422653,0,0
6.52,7.741306,-6.066921700000001,-0.066604644,1003.68365,5.668161717190283,1003.701256247282,0,0
6.539999999999999,7.7508755,-6.0812225,-0.11394782,1003.6809,5.6683897833606744,1003.7012682366246,0,0
6.56,7.7556642999999985,-6.085989,-0.047665264000000006,1003.69617,5.668675800894568,1003.701260476756,0,0
6.579999999999999,7.588382000000001,-6.2432857,-0.028726738,1003.7088,5.668945594470077,1003.7012807624196,0,0
6.6,7.516694,-6.2528190000000015,-0.14708598,1003.68585,5.6691001174522135,1003.7012431360872,0,0
6.619999999999999,7.526264,-6.152721400000001,-0.23703875,1003.71387,5.66903891658979,1003.7012553461699,0,0
6.64,7.550173,-6.2146870000000005,-0.19916259,1003.71387,5.6689056360013526,1003.7013115477533,0,0
6.6599999999999975,7.5932007,-6.152722,-0.22283371,1003.67334,5.6686980103728475,1003.7012605099001,0,0
6.68,7.516734,-6.3338513,-0.1376135,1003.6881,5.6685394622948095,1003.7011680350172,0,0
6.6999999999999975,7.626679400000001,-6.214688,-0.1754878,1003.6831,5.6684440263284825,1003.7010212792846,0,0
6.72,7.84178,-6.1193566,-0.27017507,1003.70544,5.668635087384013,1003.7009075133141,0,0
6.7399999999999975,7.8417916,-5.976361,-0.21336117,1003.71045,5.668894295441071,1003.7008413426544,0,0
6.76,7.727086,-6.095524299999999,-0.21809466,1003.7002,5.669176368593135,1003.7007805654262,0,0
6.7799999999999985,7.7509947,-6.1288905,-0.22756259,1003.6977,5.669560034021924,1003.7007157726317,0,0
6.8,7.746224400000001,-6.0907583,-0.13287362,1003.69214,5.6699716423489175,1003.7006276489368,0,0
6.8199999999999985,7.6412725,-6.1193624,-0.14232376,1003.68506,5.670272826750487,1003.7004937393041,0,0
6.84,7.6412916,-6.062165,-0.13285327,1003.65216,5.670401017679881,1003.700201415291,0,0
6.8599999999999985,7.631748700000001,-6.1670294000000005,-0.25594625,1003.7002,5.670501692149793,1003.6999431126981,0,0
6.88,7.560069,-6.186096,-0.16125654,1003.6976,5.670482930282241,1003.6997064413208,0,0
6.9,7.6509023,-6.0907645,-0.13758297,1003.6772,5.670380413338162,1003.6994162953036,0,0
6.92,7.7273964999999984,-6.085999,-0.21806623,1003.69464,5.670325768995979,1003.6991427276196,0,0
6.94,7.7465324,-6.014500599999999,-0.13284543,1003.6848,5.670250256660992,1003.6988493693947,0,0
6.96,7.6652937,-6.1431985000000005,-0.113906175,1003.6796,5.6701891811869025,1003.6985208603372,0,0
6.98,7.5888342999999985,-6.1241325999999985,-0.11863896,1003.689,5.669992535310462,1003.6981963146367,0,0
7.0,7.598412,-5.9811363,-0.042886857,1003.68713,5.669505823902228,1003.6978697073233,0,0
7.02,7.746602,-6.0383353,-0.12810463,1003.6664,5.669081887822803,1003.6974678261544,0,0
7.039999999999999,7.7657440000000015,-6.086002,-0.13757139999999998,1003.67914,5.668807560778693,1003.6970467437797,0,0
7.06,7.7083993,-6.076469,-0.09969494,1003.6864,5.668559522893523,1003.6966363471156,0,0
7.079999999999999,7.7084160000000015,-5.990671,-0.28433517,1003.6564,5.668233271966293,1003.6961288697736,0,0
7.1,7.670197,-6.06217,-0.1991142,1003.6787,5.66786384372291,1003.6956177188632,0,0
7.119999999999999,7.6606584,-6.167035,-0.03814249,1003.68365,5.6675739504847025,1003.6951229821306,0,0
7.14,7.6797914999999985,-6.0574045,-0.10442287,1003.6789,5.667245479579903,1003.694627430018,0,0
7.1599999999999975,7.603331599999999,-6.162269,-0.17543739,1003.6759,5.666898201408662,1003.6941221414232,0,0
7.18,7.6176887,-6.190869,-0.05234124,1003.6764,5.666593207035885,1003.693611868712,0,0
7.1999999999999975,7.7419815,-6.086005,-0.12809011,1003.6789,5.6663938268062495,1003.6931080290167,0,0
7.22,7.6989800000000015,-6.081239,-0.29852712,1003.6759,5.666219859131767,1003.6926008873578,0,0
7.239999999999997,7.689438000000001,-6.105072,-0.14702457,1003.68304,5.666077027620754,1003.6921183577932,0,0
7.26,7.6607766,-6.0288080000000015,-0.18489817,1003.6933,5.6658185475974205,1003.691696248582,0,0
7.2799999999999985,7.718156,-6.105073,0.009214355,1003.67053,5.665646988744802,1003.691247074388,0,0
7.3,7.6702185,-6.114603,-0.061814475999999986,1003.701,5.665487537328277,1003.6908852946024,0,0
7.3199999999999985,7.689346,-6.124136,-0.11389218,1003.698,5.665383764385325,1003.6905912389234,0,0
7.34,7.6272197,-6.076471,-0.09495355,1003.698,5.665166425719521,1003.6903580828653,0,0
7.3599999999999985,7.7610674,-6.095537,-0.109155506,1003.6803,5.6650925905044325,1003.6901158570739,0,0
7.38,7.73718,-6.1384370000000015,-0.1470297,1003.6803,5.665163117147935,1003.6898664892792,0,0
7.399999999999999,7.69417,-6.1241374,-0.11388807,1003.67053,5.665271565835568,1003.6895765365344,0,0
7.42,7.670283,-6.109838,-0.20384075,1003.6778,5.665358811449447,1003.6892779387576,0,0
7.439999999999999,7.6607375,-6.066939,-0.18490182,1003.68756,5.665355249351977,1003.6890079131824,0,0
7.46,7.603389999999999,-6.17657,-0.071275115,1003.6577,5.66531795925259,1003.6886566100967,0,0
7.479999999999999,7.703778,-6.0288076,-0.08547728,1003.67523,5.665222910559943,1003.6882978628944,0,0
7.5,7.737247,-6.0621730000000005,-0.09021072,1003.70526,5.6651747780874775,1003.6880419375592,0,0
7.52,7.608205,-6.143205,-0.066537574,1003.6723,5.665062818417924,1003.6877591309584,0,0
7.539999999999999,7.622554300000001,-6.147972,-0.09494303,1003.6827,5.664924782057699,1003.687491030174,0,0
7.56,7.641682,-6.176571400000001,-0.104411066,1003.7097,5.66483267212966,1003.6873340886124,0,0
7.579999999999999,7.694274000000001,-6.081241,-0.10440977,1003.6652,5.664743153951949,1003.6871157323295,0,0
7.6,7.660827,-6.109841,-0.18015917,1003.6997,5.664641052056084,1003.6869680960817,0,0
7.619999999999999,7.6799564,-6.1289067,-0.14228301,1003.6673,5.664582691642418,1003.6867668395473,0,0
7.64,7.7134266,-6.1241403,-0.014453068,1003.6789,5.664609330975535,1003.6865606886513,0,0
7.659999999999997,7.65608,-6.1527400000000005,-0.028655205,1003.68427,5.664655015566209,1003.68637028724,0,0
7.68,7.660871,-6.138441,-0.06652948,1003.7122,5.664706911693952,1003.6862950355188,0,0
7.699999999999997,7.6369834,-6.1336746,-0.06179404,1003.6943,5.664719119064771,1003.6862573609706,0,0
7.72,7.5748570000000015,-6.1241417,-0.10440263,1003.67395,5.664583993262378,1003.68617976524,0,0
7.739999999999997,7.646565400000001,-6.1622744,-0.13754241,1003.67175,5.6644857662635495,1003.6860592544976,0,0
7.76,7.6226783,-6.190874,-0.066525295,1003.73425,5.664417752245037,1003.6861262578896,0,0
7.7799999999999985,7.713505,-6.124142,-0.15647802,1003.6789,5.664439146646918,1003.6861594475585,0,0
7.8,7.7463803,-6.0764623,-0.14706254,1003.6891,5.6645314106173075,1003.6861993599382,0,0
7.8199999999999985,7.712909,-6.0526295,-0.22754858,1003.7015,5.664603857532157,1003.6862897088213,0,0
7.84,7.6603193,-6.133661,-0.13759604,1003.68646,5.664674015291633,1003.6863701541428,0,0
7.8599999999999985,7.6316285000000015,-6.1813254,-0.0902531,1003.6837,5.664756448223603,1003.686431623074,0,0
7.88,7.6650740000000015,-6.1336603,0.009168265,1003.6862,5.66484059861259,1003.6864851031784,0,0
7.899999999999999,7.655501400000001,-6.109827,-0.094989836,1003.70374,5.664880443977893,1003.6865944758272,0,0
7.92,7.6841683,-6.1002936,-0.14233501,1003.6934,5.664916463953376,1003.6867156173868,0,0
7.939999999999999,7.6602564,-6.138426,-0.08552331,1003.6957,5.66495816861958,1003.686855001846,0,0
7.96,7.6363463,-6.1527247,-0.15180601,1003.6704,5.664986289440652,1003.6869189239476,0,0
7.979999999999999,7.679351,-6.157491,-0.1991513,1003.6806,5.665079926300902,1003.6869526573904,0,0
8.0,7.65544,-6.1193585,-0.16601157,1003.72296,5.665141521113576,1003.687112090694,0,0
8.02,7.7032256,-6.076459,-0.090262234,1003.6907,5.665194855435313,1003.6872658824342,0,0
8.04,7.5932784,-6.1670237,-0.14234176,1003.7132,5.665181206974647,1003.6874951356392,0,0
8.059999999999999,7.574146000000002,-6.190856,-0.057123657,1003.73065,5.665107075665183,1003.6878530612828,0,0
8.08,7.679288400000001,-6.100291,-0.023984026,1003.69293,5.665031538973162,1003.6881876013608,0,0
8.1,7.688836,-6.095524299999999,-0.061860364,1003.7132,5.664964762471796,1003.6885732456093,0,0
8.12,7.607568,-6.1527224,-0.18495598,1003.69763,5.664851651186353,1003.6889466051828,0,0
8.139999999999999,7.545417299999999,-6.1527224,-0.07133144,1003.7052,5.664594638564915,1003.6893350179233,0,0
8.16,7.5454050000000015,-6.2003879999999985,-0.042926174,1003.73004,5.664273787080475,1003.689824757356,0,0
8.18,7.712686,-6.1002893,-0.11394331,1003.74005,5.6640389558807955,1003.6904383019923,0,0
8.2,7.6266375,-6.152721400000001,-0.11394441,1003.71796,5.663809259773796,1003.691079508146,0,0
8.219999999999999,7.6696424,-6.100289,-0.06660160400000001,1003.74005,5.663585650392719,1003.691822371674,0,0
8.24,7.650511,-6.1431875,-0.05713393,1003.7427,5.663392701186117,1003.6926619253493,0,0
8.26,7.669617,-6.162253400000001,-0.07607275,1003.7302,5.6632835797657455,1003.6935388920456,0,0
8.28,7.717402000000001,-6.1241207000000015,-0.10921471,1003.6896,5.663277726032032,1003.6942995998069,0,0
8.299999999999999,7.674372999999999,-6.1002874,-0.061871674,1003.71466,5.663261446647048,1003.6950450586252,0,0
8.32,7.690161,-6.195654,-0.061739113,1003.68207,5.663385479672624,1003.6956570358265,0,0
8.34,7.565927999999999,-6.2290215,-0.12801696,1003.7171,5.6634779643554864,1003.6962749735524,0,0
8.36,7.5420729999999985,-6.181357,-0.08066882,1003.6842,5.66343999939776,1003.6967775134219,0,0
8.379999999999999,7.680732000000001,-6.128926,0.004554514,1003.7095,5.663441780353434,1003.6972673586027,0,0
8.4,7.719014,-6.114627,-0.038051073,1003.7267,5.663522611378862,1003.6978061433134,0,0
8.42,7.6808205,-6.1861267,-0.11853188,1003.747,5.663705049270788,1003.698459311368,0,0
8.44,7.5518103,-6.1908946,-0.047511738,1003.7265,5.663773515284072,1003.6991373971398,0,0
8.459999999999999,7.642668,-6.171829,-0.109055206,1003.7164,5.663863520188384,1003.6997986990981,0,0
8.48,7.6809509999999985,-6.152764,-0.061707098,1003.72406,5.664008545642211,1003.7004703661916,0,0
8.5,7.6666503,-6.1432314,-0.014359504,1003.7141,5.664165699817254,1003.7011129179176,0,0
8.52,7.6571380000000016,-6.1861324,-0.07116802,1003.69617,5.6643740110772525,1003.7016628821176,0,0
8.54,7.623724,-6.148000700000001,-0.12797682,1003.70636,5.664524156933023,1003.7021657401095,0,0
8.559999999999999,7.595086599999999,-6.2004337,-0.056956936,1003.71106,5.66464341807271,1003.7026420847667,0,0
8.58,7.666828,-6.12417,-0.004874427,1003.6934,5.6647510403088175,1003.7030297114006,0,0
8.6,7.7003284,-6.1384706,-0.06168348,1003.6882,5.664921354249928,1003.7033188313333,0,0
8.62,7.6191163,-6.148005,-0.038007397000000005,1003.73584,5.665026922382954,1003.7036913739128,0,0
8.639999999999999,7.633497,-6.167072,-0.09008202,1003.7541,5.665123758440912,1003.7042020235899,0,0
8.66,7.5809665,-6.2004395,-0.06167129,1003.7334,5.665171098013406,1003.70475834636,0,0
8.68,7.652705,-6.167074,-0.052198645,1003.7181,5.6652464657859625,1003.7052979431128,0,0
8.7,7.6957674,-6.0955772,-0.11847626,1003.7157,5.665324694843571,1003.705812178208,0,0
8.719999999999999,7.5810995,-6.186143,-0.10900311,1003.69543,5.6653371428717545,1003.7062291804968,0,0
8.74,7.581141499999997,-6.2576423,-0.094796106,1003.7436,5.66538545546906,1003.7067321786693,0,0
8.76,7.638540299999999,-6.1861453,-0.08058907,1003.71295,5.665463318367679,1003.7071990120113,0,0
8.78,7.609906,-6.1956787,-0.000100143254,1003.6905,5.665532613659598,1003.7075513895088,0,0
8.799999999999997,7.5908284,-6.186147,-0.123190835,1003.74005,5.6655524442632235,1003.7079797452636,0,0
8.82,7.6429667000000014,-6.1718364,-0.18477839,1003.7001,5.665595916908195,1003.7083298733256,0,0
8.84,7.657328999999999,-6.1956697,-0.0664161,1003.71515,5.665711332818924,1003.7086637989372,0,0
8.86,7.628674,-6.148005,-0.10902354,1003.70764,5.665782120208992,1003.7089551699312,0,0
8.879999999999997,7.6478195000000015,-6.1146393,-0.09955242,1003.7249,5.665800630695706,1003.7092700267302,0,0
8.9,7.6430645,-6.1623054,-0.009596407,1003.7074,5.665826160027327,1003.7095415021013,0,0
8.92,7.695664999999999,-6.105108,-0.1279545,1003.70245,5.665870649896367,1003.7097558483316,0,0
8.94,7.600095299999999,-6.190906,-0.07113917,1003.7047,5.665887451470772,1003.7099270436067,0,0
8.959999999999997,7.6144586,-6.1718407,-0.04746497,1003.72473,5.665877609318321,1003.7101316023948,0,0
8.98,7.686183,-6.109876,0.014084768,1003.7174,5.665879678095279,1003.7103385167712,0,0
9.0,7.705325599999999,-6.1194096,-0.12794521,1003.71924,5.665937449829554,1003.710553391654,0,0
9.02,7.600202,-6.143243,-0.118473485,1003.7297,5.665904454115172,1003.7108121828903,0,0
9.04,7.576322,-6.181376,-0.0853309,1003.72174,5.6658020912186835,1003.7110801909686,0,0
9.06,7.633705,-6.181377,-0.06165656,1003.7122,5.6657309855739175,1003.7113210342187,0,0
9.08,7.605051,-6.152778,-0.10426393,1003.7172,5.665604817649755,1003.7115550075918,0,0
9.1,7.566837,-6.167078,-0.05691768,1003.71185,5.665386718392078,1003.7117628084366,0,0
9.12,7.600321000000001,-6.0860476,-0.09479059,1003.7347,5.665037086682157,1003.7120289951528,0,0
9.14,7.576447,-6.1861463,-0.014303401,1003.699,5.664663785196682,1003.7122172933524,0,0
9.16,7.672067,-6.16708,-9.799376e-05,1003.7035,5.6644003708799735,1003.712352291386,0,0
9.18,7.7820277,-6.1194153,-0.019033276,1003.72217,5.664352284218601,1003.7125069193993,0,0
9.2,7.6530027,-6.0765166,-0.094781026,1003.70935,5.664229857889825,1003.7126321838016,0,0
9.22,7.6147833,-6.1813817,-0.14685774,1003.70374,5.664118024176183,1003.7127108555662,0,0
9.24,7.6817265,-6.1766157,-0.108980164,1003.7139,5.664116925244016,1003.7127846508572,0,0
9.26,7.7104300000000014,-6.1194177000000005,-0.04743057,1003.7164,5.664185072075218,1003.7128628716333,0,0
9.28,7.677002000000001,-6.1623173,-0.07583426,1003.6937,5.664315849445659,1003.7128630011732,0,0
9.3,7.681800999999999,-6.157551,-0.17052059,1003.69855,5.664505540429759,1003.7128115888304,0,0
9.32,7.633056599999999,-6.167061,-0.109059975,1003.7135,5.664678258281821,1003.7127686391644,0,0
9.34,7.6378245,-6.090796,-0.04277942,1003.70874,5.6647427948279825,1003.7127161857387,0,0
9.36,7.8051047,-6.1050954000000015,-0.09012464,1003.7287,5.665003441052586,1003.712727379623,0,0
9.38,7.738175,-6.05743,-0.07118817,1003.73846,5.665265506504188,1003.7128299079724,0,0
9.4,7.695143700000001,-6.143227,-0.075923756,1003.70856,5.665568382314013,1003.7129051303534,0,0
9.42,7.676011999999999,-6.076495,-0.13273777,1003.7212,5.66579005073686,1003.7130014583803,0,0
9.44,7.714241499999999,-6.109861,-0.061722476,1003.73083,5.6660430436991405,1003.7131507565739,0,0
9.46,7.6664276,-6.1289268,-0.09959917,1003.7083,5.666270362474737,1003.7132652137344,0,0
9.48,7.7046576,-6.105094,-0.06645912,1003.71576,5.666504917161162,1003.7133753293124,0,0
9.5,7.6377234,-6.1241593,-0.1942896,1003.7233,5.666664471893923,1003.7135083562507,0,0
9.52,7.613812400000001,-6.1241593,-0.14694661,1003.7083,5.666716722729131,1003.7136071487716,0,0
9.54,7.585121000000001,-6.1861243,-0.08540052,1003.6981,5.666707169746249,1003.7136386161072,0,0
9.56,7.628130400000001,-6.1098589999999975,-0.08540133,1003.70544,5.6666129253690345,1003.7136369056273,0,0
9.58,7.6759119999999985,-6.1098585,-0.109074846,1003.69794,5.666522278858308,1003.7135788853868,0,0
9.6,7.723698,-6.0431266,-0.09960714,1003.7157,5.666426971488365,1003.7135352547143,0,0
9.62,7.6567690000000015,-6.143224,-0.09960824,1003.7157,5.666348056903832,1003.7135044957358,0,0
9.64,7.6137380000000014,-6.1527567,-0.17062546,1003.7175,5.666228715463152,1003.7134917009176,0,0
9.66,7.651963999999999,-6.1193905,-0.10434498,1003.7304,5.66609061833274,1003.7135412652929,0,0
9.68,7.71409,-6.0621915,-0.15642451,1003.7049,5.6659652142875405,1003.7135539518198,0,0
9.7,7.733196,-6.0669575,-0.09014401,1003.7304,5.665887095809354,1003.7136258074084,0,0
9.72,7.694944400000002,-6.0907903,-0.10434839,1003.7102,5.6658195480215765,1003.7136769661,0,0
9.74,7.7140517000000015,-6.1146226,-0.1801,1003.70215,5.6658257421705605,1003.7136806728416,0,0
9.76,7.661461999999997,-6.0717235,-0.10435063,1003.73737,5.665753759622892,1003.7137692296968,0,0
9.78,7.675787400000001,-6.057423,-0.057007793,1003.7323,5.665617064263829,1003.7139141893066,0,0
9.8,7.681588,-6.090814,-0.15633689,1003.7124,5.6654784385972965,1003.7140368245365,0,0
9.82,7.633819,-6.18138,-0.023770865,1003.7249,5.6653763019697205,1003.7141842924573,0,0
9.84,7.715101700000001,-6.1432476,-0.085315794,1003.6993,5.6653895899849775,1003.7142610116592,0,0
9.86,7.7342515,-6.033618,-0.09478177,1003.71466,5.6653952151636044,1003.7143302371042,0,0
9.88,7.7390604,-6.090817,-0.14685756,1003.69684,5.6654765666963485,1003.7143284398537,0,0
9.9,7.657831,-6.133717,-0.13265185,1003.71674,5.6655473455869565,1003.7143355334197,0,0
9.92,7.6578584,-6.138484,-0.09477411,1003.7143,5.665613855006046,1003.7143416733741,0,0
9.94,7.667449,-6.1051188,-0.1515841,1003.7143,5.6656501258816565,1003.7143469486141,0,0
9.96,7.63402,-6.1480190000000015,-0.0947686,1003.6966,5.665659563583922,1003.7142877208008,0,0
9.98,7.691405,-6.1527863,-0.08529727,1003.6987,5.665744291386738,1003.71417927131,0,0
10.0,7.662757400000001,-6.1766195,-0.07582563,1003.6941,5.665879668557095,1003.7140111599634,0,0
10.02,7.715362,-6.1003555999999985,-0.066354305,1003.70123,5.666045721121894,1003.7138166046016,0,0
10.04,7.7106113,-6.076523,-0.12789892,1003.7091,5.666201104839463,1003.7136277157075,0,0
10.06,7.8731523,-6.0717573,-0.15156844,1003.6941,5.666607520503495,1003.7133905137041,0,0
10.08,7.7871447,-6.062225,-0.07581529,1003.69135,5.667079045301478,1003.7131015761644,0,0
10.1,7.701136,-6.13849,-0.24625136,1003.7216,5.667569856864276,1003.7128768652804,0,0
10.12,7.552987,-6.205223,-0.17996736,1003.7036,5.667920874737699,1003.712644914028,0,0
10.14,7.543458500000002,-6.243356,-0.15155807,1003.7163,5.668181246053525,1003.7124531202112,0,0
10.16,7.686884,-6.143259,-0.21310247,1003.7288,5.6684629432600975,1003.7123424999614,0,0
10.18,7.691692999999999,-6.1194267,-0.19889663,1003.7085,5.6687387894116,1003.7122309229088,0,0
10.2,7.6104655,-6.1670933,-0.18469074,1003.69385,5.6689382933438015,1003.7120661621033,0,0
10.22,7.6869679999999985,-6.167093799999999,-0.14681314,1003.69824,5.669192060757525,1003.7118708052716,0,0
10.24,7.792155,-6.09083,-0.10420069,1003.721,5.669564716286852,1003.711731053076,0,0
10.26,7.730042,-6.062231,-0.06632312,1003.7134,5.669902110183557,1003.7116135762448,0,0
10.28,7.672714,-6.071765,-0.104195684,1003.7189,5.6701264839466825,1003.7115360048424,0,0
10.3,7.662717,-6.1337194,-0.06636049,1003.7158,5.670313430440394,1003.711482813134,0,0
10.32,7.6292663,-6.1766185999999985,-0.10423501,1003.71075,5.670469072155344,1003.7114331748128,0,0
10.34,7.7105336,-6.081288,-0.2225941,1003.7181,5.67060884890379,1003.7114133149632,0,0
10.36,7.7248845,-6.062222,-0.2131243,1003.71027,5.670732607877913,1003.711391650866,0,0
10.38,7.624518400000001,-6.0955879999999985,-0.16577935,1003.7206,5.670719422206429,1003.7114056585268,0,0
10.4,7.600629,-6.109888,-0.24626334,1003.7181,5.670568665466456,1003.711442135325,0,0
10.42,7.6771164,-6.0622225,-0.1847151,1003.71,5.6703566597715485,1003.7114691745368,0,0
10.44,7.667565299999999,-6.0765224,-0.019010097,1003.71277,5.670090582422134,1003.7114977493559,0,0
10.46,7.667575,-6.047923,-0.07108772,1003.7231,5.6697413338504274,1003.7115647661684,0,0
10.48,7.615008,-6.05269,-0.12789957,1003.6899,5.669241554498536,1003.7115459890656,0,0
10.5,7.572,-6.157554,-0.028476145,1003.70483,5.668675805791793,1003.7115052200572,0,0
10.52,7.6723865999999985,-6.138489,-0.12789771,1003.6818,5.6681929721670805,1003.711362257769,0,0
10.54,7.638936,-6.1289554000000015,-0.17524095,1003.70465,5.667720020379763,1003.7112117721632,0,0
10.56,7.662846000000001,-6.0669910000000025,-0.26992807,1003.69257,5.66722058051761,1003.7110116927022,0,0
10.58,7.7154336,-6.086057,-0.31727123,1003.6998,5.666812756382762,1003.7107945403966,0,0
10.6,7.576828999999999,-6.171856,-0.18944138,1003.6948,5.6663672815339625,1003.710545084274,0,0
10.62,7.634197,-6.1861553,-0.20364366,1003.6918,5.666001996799372,1003.7102571825408,0,0
10.64,7.782381,-6.00026,-0.23678355,1003.70734,5.665712445029841,1003.709992290712,0,0
10.66,7.6676755,-6.0383925000000005,-0.19890746,1003.7196,5.665349792794718,1003.7097928200457,0,0
10.68,7.80152,-5.9811945,-0.12789047,1003.7043,5.665068098876822,1003.7095967936124,0,0
10.7,7.682035000000001,-6.138491,-0.15629596,1003.6993,5.664865760590942,1003.7093865161992,0,0
10.72,7.772861,-6.0383935,-0.07107581,1003.68677,5.664751745573378,1003.7091192956186,0,0
10.74,7.8158894,-5.9859614,-0.29359186,1003.72186,5.6647290012811515,1003.7089290460492,0,0
10.76,7.615147,-6.114659,-0.26518459999999994,1003.69904,5.664622118342298,1003.7087253409641,0,0
10.78,7.643836500000001,-6.133725,-0.18943314,1003.69885,5.664508906493354,1003.7085097959233,0,0
10.8,7.7490025,-6.1241927,-0.22257303,1003.71155,5.664550563582551,1003.70833028506,0,0
10.82,7.778953599999999,-6.0384254,-0.22719099,1003.69135,5.6646682329264175,1003.7081105402347,0,0
10.84,7.75033,-6.0622597,-0.12776339,1003.70886,5.664832441333469,1003.7079190717624,0,0
10.86,7.745609799999999,-6.052728,-0.2271804,1003.68866,5.6650209809448535,1003.707680557562,0,0
10.88,7.7791247000000014,-6.071796,-0.16089365,1003.6835,5.6653069058001515,1003.7073827564074,0,0
10.9,7.755289,-6.09563,-0.13248143,1003.69867,5.665668518371838,1003.7070882533836,0,0
10.92,7.678872,-5.9669347,-0.22716404,1003.70624,5.66580951253017,1003.7068249767999,0,0
10.94,7.7219419999999985,-6.038434,-0.099330366,1003.68823,5.665912559506683,1003.7065254036943,0,0
10.96,7.817601700000001,-5.9526377,-0.20821589,1003.6835,5.666033711890947,1003.7061778094446,0,0
10.98,7.8272210000000015,-6.0527368,-0.19874163,1003.7033,5.666312508473911,1003.7058603150516,0,0
11.0,7.693442299999999,-6.1194696,-0.12772042,1003.6806,5.666593976211956,1003.7054888398718,0,0
11.02,7.660042999999999,-6.0479730000000025,-0.16085581,1003.7211,5.666731118620527,1003.7052168045793,0,0
11.04,7.655322999999999,-6.076574,-0.29814807,1003.6928,5.6667761423043785,1003.7049317336986,0,0
11.06,7.7270759999999985,-6.0527425,-0.11823559,1003.6857,5.6668180765417695,1003.7046106108268,0,0
11.08,7.6267633,-6.109943,-0.18924586,1003.69086,5.6667698512083104,1003.7042773644583,0,0
11.1,7.6220546,-6.0861115,-0.231849,1003.6923,5.666605471474928,1003.7039397894553,0,0
11.12,7.818078999999999,-5.957416,-0.17976579,1003.6673,5.666493469979428,1003.7035096049403,0,0
11.14,7.870701299999999,-5.938351,-0.17029288,1003.70276,5.666491004386801,1003.7031267953253,0,0
11.16,7.846877,-5.9764852999999984,-0.2744429,1003.7127,5.666598631538234,1003.7028230082865,0,0
11.18,7.7943587,-5.943121,-0.17974941,1003.68787,5.666669787611508,1003.7025007512286,0,0
11.2,7.780064,-5.952655,-0.22708936,1003.6698,5.666698923211483,1003.702098282188,0,0
11.22,7.808813000000002,-5.9621897000000015,-0.13712919,1003.6974,5.666746852503941,1003.701725746728,0,0
11.24,7.770631,-5.966958,-0.07557683,1003.7273,5.666752847592195,1003.7014886417073,0,0
11.26,7.7420154,-6.0479910000000014,-0.20813438,1003.6773,5.6667818540789865,1003.7011920566008,0,0
11.28,7.765973599999999,-5.9907937,-0.23653533,1003.68,5.666798869495831,1003.7008537025968,0,0
11.3,7.753836,-5.9907303,-0.17522405,1003.675,5.666782507676607,1003.7004616596696,0,0
11.32,7.7872534,-6.0193286,-0.20363425,1003.6997,5.666829139365919,1003.7001125085643,0,0
11.34,7.830225,-5.981195,-0.24624817,1003.6974,5.666955809651843,1003.6997942336168,0,0
11.36,7.7202454,-6.00026,-0.22731458,1003.7097,5.666994954685067,1003.6995486666324,0,0
11.38,7.7536573,-5.9668927000000025,-0.13736518,1003.6798,5.6669656404258975,1003.6992605884449,0,0
11.4,7.7727270000000015,-5.9811916,-0.19891703,1003.6973,5.6669276655903085,1003.69899898444,0,0
11.42,7.815703999999997,-5.9430580000000015,-0.14210789,1003.6898,5.6669029133214215,1003.6987347147974,0,0
11.44,7.8634553,-5.9811897000000025,-0.1326434,1003.7072,5.66701662238781,1003.6985316811681,0,0
11.46,7.820386999999997,-5.947822,-0.11844474,1003.6994,5.667138665654021,1003.6983554066003,0,0
11.48,7.767765,-6.0288525,-0.11844878,1003.679,5.667283512939831,1003.6981299709292,0,0
11.5,7.786837599999999,-5.9478197,-0.094781056,1003.6944,5.667376116422767,1003.6979173480744,0,0
11.52,7.767674,-5.8953867,-0.12319149,1003.6665,5.667325179286525,1003.6976163720673,0,0
11.54,7.820205,-5.98595,-0.1279302,1003.7222,5.667348643790765,1003.6974389307277,0,0
11.56,7.8344975,-5.971649,-0.13740329999999998,1003.6921,5.667443594326763,1003.6972629234093,0,0
11.58,7.882252,-5.9525824,-0.24156423,1003.7169,5.667660635500081,1003.6971780968187,0,0
11.6,7.853523,-5.9144483,-0.23683439,1003.6915,5.667889165685828,1003.6970827028945,0,0
11.62,7.867821000000001,-5.9335136,-0.24157254,1003.69403,5.6681748321960095,1003.6969874230928,0,0
11.64,7.915569,-5.88108,-0.19896749,1003.71155,5.6685221159148185,1003.6969556591366,0,0
11.66,7.877287400000001,-5.9668769999999975,-0.12795544,1003.689,5.668963511593749,1003.6968989521324,0,0
11.68,7.810322999999999,-5.9478097000000005,-0.16110057,1003.7036,5.669352692359687,1003.6968729695957,0,0
11.7,7.795936599999999,-5.933509,-0.16583928,1003.69904,5.669652708636713,1003.6968578127356,0,0
11.72,7.7433147,-5.9954730000000005,-0.10903041,1003.68866,5.669862870834549,1003.6968149080084,0,0
11.74,7.8340807,-5.9430394,-0.11376938,1003.7089,5.670076429726657,1003.6968205037224,0,0
11.76,7.8722787,-5.9335055,-0.25580528,1003.70874,5.6703491252630815,1003.6968683582816,0,0
11.78,7.776633,-5.947804,-0.20373143,1003.70874,5.670530240742601,1003.6969533804806,0,0
11.8,7.879243400000001,-5.852528,-0.26980847,1003.7011,5.670684201825236,1003.697043433926,0,0
11.82,7.879286299999999,-5.938326999999999,-0.30294535,1003.70074,5.670922479081925,1003.697136312788,0,0
11.84,7.7407184,-6.0193596,-0.14197142,1003.6857,5.6711005645686114,1003.6971772098246,0,0
11.86,7.8315806,-5.938329,-0.1845769,1003.7111,5.671273502388011,1003.6972634684907,0,0
11.88,7.755146499999999,-5.885898,-0.22718261,1003.69867,5.67125074545249,1003.6973447501616,0,0
11.9,7.678714999999999,-5.9764643,-0.22244401,1003.69824,5.671043686647823,1003.6974197935452,0,0
11.92,7.717001400000001,-5.9478655,-0.23190837,1003.68823,5.670701490751536,1003.6974530186225,0,0
11.94,7.870001299999997,-5.8954344,-0.21770097,1003.68787,5.670427663269924,1003.6974478774333,0,0
11.96,7.8318057,-5.914502,-0.24610351,1003.6857,5.670177013054026,1003.6974010423199,0,0
11.98,7.8844285,-5.8906703,-0.15614563,1003.68036,5.670001608769915,1003.6972983110616,0,0
12.0,7.9322667,-5.876372,-0.1750796,1003.68787,5.669956011047429,1003.6971735958017,0,0
12.02,7.879737400000002,-5.876373,-0.18927838,1003.7157,5.669938210688121,1003.6971300924533,0,0
12.04,7.812863,-5.8954396,-0.15139921,1003.6779,5.669856274736383,1003.6970224245616,0,0
12.06,7.9132875999999985,-5.943107,-0.11825396,1003.7032,5.6699433434930695,1003.6969495284843,0,0
12.08,7.7555995,-5.962174,-0.037764903,1003.6904,5.669941128073479,1003.6968615392076,0,0
12.1,7.741303,-6.067039,-0.26501240000000004,1003.7029,5.669977470312216,1003.696805530342,0,0
12.12,7.760467999999999,-6.0289087,-0.274477,1003.6902,5.6700309477016235,1003.6967322609987,0,0
12.14,7.808308599999997,-5.909745,-0.2602699,1003.6899,5.670026787361378,1003.6966429240676,0,0
12.16,7.779679,-5.971711599999999,-0.30287507,1003.6955,5.67000499399423,1003.6965598714283,0,0
12.18,7.8657546,-5.9860120000000006,-0.31707466,1003.7104,5.670128739138407,1003.6965363105794,0,0
12.2,7.765427000000002,-5.986013400000001,-0.2697262,1003.70544,5.670212232334444,1003.6965475454953,0,0
12.22,7.7750325,-5.9860144,-0.2129091,1003.67694,5.670272765957207,1003.6964868855027,0,0
12.24,7.8276534,-5.9717160000000025,-0.24131165,1003.6924,5.6703828707752,1003.696418573546,0,0
12.26,7.856378,-5.924052,-0.14661936,1003.70013,5.670520206177452,1003.696371574236,0,0
12.28,7.904219,-5.9335856,-0.12767784,1003.71265,5.6707719231743265,1003.6963886479783,0,0
12.3,7.837347,-5.933586599999999,-0.24129935,1003.67694,5.671017257735016,1003.6963337192044,0,0
12.32,7.7979865,-6.04319,-0.17038599999999998,1003.70264,5.671326556161263,1003.6963078867508,0,0
12.34,7.7979865,-5.9573917000000005,-0.12304197,1003.66974,5.671581055817009,1003.6961894168023,0,0
12.36,7.879243400000001,-5.9526252999999985,-0.20826128,1003.6645,5.671917669038073,1003.6959706548556,0,0
12.38,7.860124000000001,-5.9287925,-0.3644966,1003.6945,5.6722735196049525,1003.6957720624415,0,0
12.4,7.7310690000000015,-6.019357,-0.23666768,1003.6949,5.6725386011025725,1003.69559344676,0,0
12.42,7.759747999999999,-6.04319,-0.18932363,1003.7044,5.672797837133353,1003.6954673255354,0,0
12.44,7.860124000000001,-5.933559,-0.2887461,1003.689,5.673082893138112,1003.6953326024492,0,0
12.46,7.826665400000001,-5.8715935,-0.33609015,1003.7124,5.673259926030669,1003.6952750037616,0,0
12.48,7.750188400000001,-5.9573917000000005,-0.27454287,1003.70154,5.673318148748826,1003.695246663548,0,0
12.5,7.745408500000001,-6.019357,-0.30768374,1003.7044,5.673344097504359,1003.695254574146,0,0
12.52,7.71195,-5.995524400000001,-0.21773003,1003.68896,5.6732511453712675,1003.6952389034835,0,0
12.54,7.7262897,-5.995524400000001,-0.12777638,1003.70215,5.6730736975170215,1003.6952499368338,0,0
12.56,7.735849000000001,-5.995524400000001,-0.16565162,1003.66364,5.672839107241282,1003.6951458901294,0,0
12.58,7.70717,-6.0145903,-0.23193325,1003.69403,5.672534948598442,1003.695049937257,0,0
12.6,7.70717,-6.0002910000000025,-0.2461365,1003.67896,5.672152870475148,1003.6949072295247,0,0
12.62,7.71673,-5.9764585,-0.2556053,1003.7089,5.671689142215303,1003.6948315069465,0,0
12.64,7.7932067,-6.0574900000000005,-0.31241816,1003.699,5.671387085029592,1003.6947796050508,0,0
12.66,7.841004400000001,-5.9764585,-0.34555894,1003.699,5.671207273637853,1003.694748937958,0,0
12.68,7.774087400000001,-6.109922,-0.2461365,1003.69604,5.671189713106903,1003.694726488338,0,0
12.7,7.774087400000001,-6.0002910000000025,-0.15618281,1003.68646,5.671171778125787,1003.6946768924955,0,0
12.72,7.788427,-5.9716916,-0.2556053,1003.6934,5.6711452912350095,1003.6946284727966,0,0
12.74,7.831444999999999,-6.0002910000000025,-0.27454287,1003.6909,5.671219489374657,1003.6945722666484,0,0
12.76,7.774087400000001,-6.0288906,-0.21299563,1003.7089,5.671321109913646,1003.6945741827358,0,0
12.78,7.7215095,-6.0765557,-0.29348052,1003.6812,5.671425783887348,1003.6945277287327,0,0
12.8,7.7262897,-6.0717893,-0.22719885,1003.7061,5.671530815574402,1003.6945283421522,0,0
12.82,7.7698946,-5.995539,-0.2981612,1003.7164,5.671613872111963,1003.694607622138,0,0
12.84,7.765132,-6.0432053,-0.32183167,1003.6885,5.671731598946312,1003.6946556864937,0,0
12.86,7.726917999999999,-6.062271599999999,-0.21293812,1003.6784,5.671835212274178,1003.6946396356868,0,0
12.88,7.636122999999999,-6.081339,-0.22240497,1003.6662,5.671802977710852,1003.6945230705056,0,0
12.9,7.7221866,-6.014607,-0.32655942,1003.69086,5.6717115883986455,1003.6944068864577,0,0
12.92,7.755662400000001,-6.0050745,-0.2650106,1003.7011,5.67160718077582,1003.6943283214416,0,0
12.94,7.664869,-6.014608,-0.32655576,1003.68787,5.671358922505353,1003.694235651436,0,0
12.96,7.727028,-6.1051736,-0.38336667,1003.67566,5.671206540350053,1003.6940868958741,0,0
12.98,7.7366100000000015,-6.1004076,-0.29341087,1003.6653,5.671142493420668,1003.6938518226344,0,0
13.0,7.860912,-6.01461,-0.28393954,1003.67535,5.671250760371232,1003.6935775053585,0,0
13.02,7.908733,-5.962178,-0.31234393,1003.67737,5.671525906146287,1003.6932767715939,0,0
13.04,7.703226,-6.0622764,-0.26973206,1003.6831,5.671733556384196,1003.692974406862,0,0
13.06,7.593306,-6.105176,-0.21765213,1003.65796,5.671754870948027,1003.69258118552,0,0
13.08,7.6076665,-6.1385427,-0.21765019,1003.7108,5.671678193959561,1003.6922993228744,0,0
13.1,7.717631,-6.076578,-0.16556916,1003.6626,5.671611525524898,1003.6919433514785,0,0
13.12,7.7272077,-6.052746,-0.2933965,1003.6853,5.671545213041282,1003.6916048990877,0,0
13.14,7.779813000000001,-6.0670457,-0.26498762,1003.66296,5.671582187232922,1003.6912027209185,0,0
13.16,7.6412225,-6.1004124000000015,-0.28865737,1003.655,5.671528572594752,1003.6907170264926,0,0
13.18,7.665143,-6.1099463,-0.28865543,1003.6726,5.671446307800608,1003.6902226456027,0,0
13.2,7.6986240000000015,-6.114713,-0.2318405000000001,1003.6958,5.671396495942735,1003.6898058891245,0,0
13.22,7.6269503,-6.138547,-0.32652652,1003.6824,5.671295754374692,1003.6894109818993,0,0
13.24,7.6938895999999986,-6.105181,-0.40227485,1003.66,5.6712215674587965,1003.68895616234,0,0
13.26,7.7225904,-6.071816,-0.24130319,1003.67737,5.671163982687203,1003.6885125735932,0,0
13.28,7.779965,-6.0003176,-0.20342639,1003.6899,5.671122276333683,1003.6881256133116,0,0
13.3,7.803610000000001,-6.0479774000000015,-0.3076065,1003.69507,5.671199800858124,1003.6878086949988,0,0
13.32,7.7414837,-5.9955454,-0.30287108,1003.67487,5.671213354953457,1003.6874820866756,0,0
13.34,7.669797,-6.047978,-0.23185404,1003.66986,5.671116024767448,1003.6871300560492,0,0
13.36,7.7319460000000015,-6.0765777000000005,-0.20818102,1003.6666,5.671058195013176,1003.686745093586,0,0
13.38,7.703278,-6.090877,-0.24605523,1003.6698,5.671008907292531,1003.6863439384165,0,0
13.4,7.73197,-6.0432124000000025,-0.25078845,1003.68726,5.670953254165702,1003.6859927755304,0,0
13.42,7.712861,-6.047979,-0.30286592,1003.6796,5.6708700744578024,1003.6856594740125,0,0
13.44,7.6459546,-6.1290107,-0.21291125,1003.6745,5.670753620047249,1003.6853247946848,0,0
13.46,7.6220675,-6.1242447,-0.26025426,1003.6948,5.6705656532339095,1003.6850631827699,0,0
13.48,7.6364174,-6.133778,-0.2839253,1003.6647,5.670352189827702,1003.6847587150239,0,0
13.5,7.660327400000001,-6.105179,-0.24131463,1003.6848,5.670116260012997,1003.6844898359495,0,0
13.52,7.665118700000002,-6.0479803,-0.21290714,1003.6968,5.669793909310987,1003.68429657099,0,0
13.54,7.7033687,-6.205277,-0.21290609,1003.662,5.669662266760057,1003.6840455344161,0,0
13.56,7.779857000000002,-6.047981,-0.20343629,1003.6718,5.6696209911504125,1003.6837796345752,0,0
13.58,7.8563447,-5.947883,-0.20816965,1003.69214,5.669659413271414,1003.6835747827921,0,0
13.6,7.837236999999999,-6.0146155,-0.18923102,1003.6843,5.6698198126557875,1003.6833963865379,0,0
13.62,7.875486,-5.990783,-0.21763645,1003.6616,5.670121717774669,1003.683160288616,0,0
13.64,7.8707185,-6.0289160000000015,-0.10400964,1003.6994,5.6705839447697,1003.6830101354536,0,0
13.66,7.813371000000001,-6.0241494000000015,-0.22710316,1003.68176,5.6710899191933395,1003.6828729596317,0,0
13.68,7.7369056,-6.0146165,-0.2460398,1003.7093,5.671495914256378,1003.6828468884204,0,0
13.7,7.6556587,-6.1290144999999985,-0.17502278,1003.679,5.6718236270151525,1003.6828100031,0,0
13.72,7.6556716,-6.0527496,-0.32178816,1003.68695,5.671990098754067,1003.6827923152196,0,0
13.74,7.7226,-6.0718164,-0.26970872,1003.679,5.672143944501503,1003.6827630338736,0,0
13.76,7.779969,-5.9764852999999984,-0.28864527,1003.6641,5.672259770193637,1003.6826699739546,0,0
13.78,7.775199400000001,-6.005085,-0.27917546,1003.6816,5.672369423606211,1003.682583894304,0,0
13.8,7.789144500000001,-5.9955425,-0.21292995,1003.6915,5.672480621567651,1003.682539932305,0,0
13.82,7.827377999999999,-5.952643,-0.23186807,1003.69653,5.67260260415056,1003.6825514517263,0,0
13.84,7.7556759999999985,-6.0527406,-0.18452448,1003.6916,5.6727405071902135,1003.6825942050607,0,0
13.86,7.79391,-6.0003085,-0.08036797,1003.6965,5.672885111315602,1003.6826820427693,0,0
13.88,7.817804,-5.9145107,-0.28394786,1003.6714,5.672974268350846,1003.6827190408142,0,0
13.9,7.7747803,-5.9955416,-0.33602676,1003.66644,5.673048682200746,1003.6826931277398,0,0
13.92,7.621822,-6.109939,-0.21293266,1003.6614,5.672999720862666,1003.6825935756874,0,0
13.94,7.550119400000002,-6.057507,-0.23660518,1003.69135,5.672658665974788,1003.6825371346216,0,0
13.96,7.650490299999999,-6.086106,-0.22240244,1003.67847,5.672260084964756,1003.6824726216107,0,0
13.98,7.860796499999997,-5.943109,-0.34076297,1003.6764,5.6719823557605675,1003.682393756477,0,0
14.0,7.856012,-5.9192758,-0.22713776,1003.691,5.671767839708136,1003.6823550537213,0,0
14.02,7.8273277,-6.019374,-0.24134143,1003.6789,5.671689207841417,1003.6823084177732,0,0
14.04,7.7173877000000015,-6.043206,-0.29815468,1003.6838,5.671584060829775,1003.6822725799452,0,0
14.06,7.660025,-6.052739,-0.24607675,1003.6711,5.671371426669867,1003.6822006923528,0,0
14.08,7.674360000000001,-6.0861053,-0.1513891,1003.67596,5.671126974318385,1003.6821147059834,0,0
14.1,7.741272,-6.0765715,-0.15138952,1003.6614,5.670952184495532,1003.681964155486,0,0
14.12,7.750826400000001,-6.067038,-0.2744845,1003.6938,5.670848515690316,1003.6818737381067,0,0
14.14,7.726922999999997,-6.047972,-0.2697506,1003.691,5.67074426652048,1003.6818266998532,0,0
14.16,7.8607516,-6.0098395,-0.27448540000000005,1003.6963,5.6708116042232515,1003.6818372407328,0,0
14.18,7.9276643,-5.9240413,-0.3739084,1003.696,5.6710404953700575,1003.6818975405877,0,0
14.2,7.808164,-5.9621735000000005,-0.26028314,1003.7063,5.671253382704425,1003.682038670393,0,0
14.22,7.683884,-6.105170200000001,-0.14665788,1003.6709,5.6714253326577975,1003.6821232734757,0,0
14.24,7.669540400000002,-6.033672,-0.15612714,1003.67096,5.671445257814997,1003.682157840975,0,0
14.26,7.7746906,-6.019372,-0.15612759,1003.6611,5.671484767521613,1003.6821125765899,0,0
14.28,7.8129240000000015,-6.0098386,-0.21294089,1003.6885,5.671594449479934,1003.6820955757036,0,0
14.3,7.7131367,-6.009853400000001,-0.32651275,1003.6984,5.671608306175162,1003.682139249648,0,0
14.32,7.698814,-6.067052,-0.28390154,1003.6729,5.671584553260094,1003.6821445786464,0,0
14.34,7.6223564,-6.1099515,-0.22708698,1003.6985,5.671455667719393,1003.6822081668663,0,0
14.36,7.646274000000001,-6.095653,-0.12292835,1003.693,5.671250744994997,1003.6823032040164,0,0
14.38,7.6271744,-6.0765867,-0.24602114,1003.686,5.670928473763795,1003.6824004873081,0,0
14.4,7.6845493,-6.0861199999999975,-0.2933635,1003.6981,5.670612047639192,1003.6825429650702,0,0
14.42,7.64155,-6.1385527,-0.3407058,1003.6856,5.670303194763293,1003.6826798637463,0,0
14.44,7.7562838,-6.0432224,-0.29336014,1003.6831,5.67006301787832,1003.6828023399074,0,0
14.46,7.890139,-5.9907910000000015,-0.26495188,1003.6934,5.670036744940711,1003.6829487114197,0,0
14.48,7.8375783,-5.904993,-0.20813741,1003.68304,5.6700020928686055,1003.6830783739267,0,0
14.5,7.6607447,-6.1099553,-0.25074527,1003.6756,5.6699327778563,1003.6831660215717,0,0
14.52,7.675103,-6.1480885,-0.09924261,1003.7034,5.66990025560534,1003.6833163093531,0,0
14.54,7.5890865,-6.0861235,-0.19392885,1003.6881,5.669683286330968,1003.6834663249233,0,0
14.56,7.699039999999999,-6.119489700000001,-0.29334968,1003.6954,5.669531060041139,1003.6836418399112,0,0
14.58,7.7755345999999985,-6.028926,-0.30281687,1003.6906,5.669446003722303,1003.6838219743307,0,0
14.6,7.699076700000001,-6.0670585999999975,-0.20339267,1003.6856,5.669338914749005,1003.6839875419963,0,0
14.62,7.732552,-6.057526,-0.26967278,1003.6853,5.669258519789603,1003.6841385624347,0,0
14.64,7.818608800000002,-6.0813594,-0.14184201,1003.65247,5.66936789622634,1003.6841579972687,0,0
14.66,7.847307000000002,-6.0575269999999986,-0.14657466,1003.65497,5.669661512062483,1003.6840700930984,0,0
14.68,7.7612869999999985,-5.9955626,-0.19865163,1003.6929,5.6698985696069455,1003.6840242086383,0,0
14.7,7.665711,-6.12426,-0.29807225,1003.665,5.670099066801642,1003.6839151779781,0,0
14.72,7.651389,-6.043229,-0.21285132,1003.67975,5.67013389169698,1003.683803843846,0,0
14.74,7.7135468,-6.1051946,-0.22231828,1003.69775,5.670203817692817,1003.6837556751692,0,0
14.76,7.7040043,-6.0718293,-0.26966083,1003.6775,5.670248441753527,1003.6836905928957,0,0
14.78,7.632325999999999,-6.1147285,-0.35014394,1003.66473,5.6702147016675175,1003.6835648280644,0,0
14.8,7.574986,-6.2052937,-0.2791262,1003.68744,5.6701329719538665,1003.6834676528782,0,0
14.82,7.6181927,-6.1242666,-0.2601714,1003.69244,5.66997167086849,1003.6834140893336,0,0
14.84,7.752046000000001,-6.038469,-0.26490408,1003.6698,5.6698483704491744,1003.6833177498636,0,0
14.86,7.766408999999999,-6.0766025,-0.22702666,1003.68744,5.669829406807428,1003.6832474644087,0,0
14.88,7.756875,-6.0384703,-0.24596198,1003.68744,5.669839283073528,1003.6832004533087,0,0
14.9,7.847722,-6.0432377,-0.21281834,1003.68225,5.670028331762204,1003.683155492669,0,0
14.92,7.776051,-6.052771,-0.17967506,1003.67975,5.67026801015942,1003.683103505674,0,0
14.94,7.6517940000000015,-6.0766044,-0.20807992,1003.67194,5.670380351611851,1003.683017381345,0,0
14.96,7.747414999999997,-6.0289397000000005,-0.21754636,1003.67505,5.670475197237949,1003.6829125993147,0,0
14.98,7.575374000000001,-6.19577,-0.22227786,1003.67944,5.670491213163578,1003.6828075125557,0,0
15.0,7.565833599999999,-6.1957703,-0.17966652,1003.69476,5.670420356661474,1003.68275768685,0,0
15.02,7.7379317,-6.0384746,-0.24594586,1003.69244,5.6703512129868,1003.6827485171837,0,0
15.04,7.694936999999999,-6.0718412000000015,-0.29802212,1003.67444,5.670259353452359,1003.6827105042046,0,0
15.06,7.6758485,-6.1528735,-0.25540972,1003.68994,5.670219012795307,1003.6827029421213,0,0
15.08,7.704553999999999,-6.138574,-0.20806326,1003.6594,5.670250069190423,1003.6826123696727,0,0
15.1,7.661559599999999,-6.129042,-0.1701858,1003.6817,5.670260404420108,1003.6825290553264,0,0
15.12,7.709377000000001,-6.0670767,-0.15598087,1003.7047,5.670249706137909,1003.6825352541707,0,0
15.14,7.766766,-6.0909104,-0.1938532,1003.69434,5.670346240759531,1003.6825832285547,0,0
15.16,7.6616354000000015,-6.1385765,-0.14177239,1003.69434,5.6704256544940375,1003.6826679430977,0,0
15.18,7.594736,-6.1910089999999975,-0.15123962,1003.6817,5.670450306178086,1003.6827393122724,0,0
15.2,7.7094765,-6.090912,-0.30747265,1003.6613,5.6704898312752166,1003.6827251925513,0,0
15.22,7.6378097999999985,-6.176711,-0.19384418,1003.6517,5.670531326312071,1003.6826010256723,0,0
15.24,7.5948167,-6.105213,-0.2269827,1003.69916,5.670413091226603,1003.6825509241256,0,0
15.26,7.695216,-6.1624126,-0.22224610000000009,1003.68445,5.670391019691285,1003.682513491072,0,0
15.28,7.666563000000001,-6.1147475,-0.19857179,1003.65393,5.670344596945872,1003.682377514658,0,0
15.3,7.6893606,-6.138553,-0.1702662,1003.684,5.67034360664516,1003.682263206846,0,0
15.32,7.6989006999999985,-6.0861206,-0.16079915,1003.6917,5.670330178512013,1003.6821961769183,0,0
15.34,7.713219599999999,-6.1147194,-0.17973861,1003.6967,5.670366710670258,1003.6821891630376,0,0
15.36,7.550685,-6.1766844,-0.14186534,1003.6865,5.670263653650151,1003.6821984845856,0,0
15.38,7.617584,-6.1623845,-0.18921103,1003.684,5.670128387909597,1003.6822132065613,0,0
15.4,7.670142,-6.16715,-0.2365569,1003.6867,5.670058510242858,1003.682242367355,0,0
15.42,7.603204300000002,-6.162383599999999,-0.18448032,1003.6965,5.669929888124515,1003.6823194613098,0,0
15.44,7.593624,-6.214815,-0.24129502,1003.684,5.66980575431395,1003.6823936314676,0,0
15.46,7.6653012999999985,-6.1337833,-0.2839065,1003.70416,5.669698255098924,1003.6825375271457,0,0
15.48,7.607922999999999,-6.1957474,-0.32178363,1003.6838,5.669596377104827,1003.6826692182692,0,0
15.5,7.555325999999999,-6.229113,-0.20342529,1003.67377,5.6694526549185005,1003.68275354336,0,0
15.52,7.6365643,-6.129015,-0.22236462,1003.69916,5.669273028735961,1003.6828871162544,0,0
15.54,7.6843414,-6.1242480000000015,-0.17028803,1003.69147,5.6691315064587045,1003.6830360396452,0,0
15.56,7.646083,-6.109948,-0.14661786,1003.6713,5.6689426856055425,1003.6831253786104,0,0
15.58,7.71298,-6.1337805,-0.1371509,1003.7089,5.668852054123327,1003.6832971071574,0,0
15.6,7.6986213,-6.086114,-0.13241826,1003.6863,5.668763443484043,1003.6834596569156,0,0
15.62,7.72728,-6.047981,-0.26971784,1003.67584,5.668680599715207,1003.683575855117,0,0
15.64,7.708141,-6.157611,-0.24604766,1003.6988,5.6687119524655945,1003.6837333347694,0,0
15.66,7.598185000000001,-6.2338758,-0.17029904,1003.6912,5.668762900599546,1003.6838993637848,0,0
15.68,7.564710000000002,-6.1766768,-0.12769094,1003.68335,5.668700507587607,1003.6840440893137,0,0
15.7,7.6172633,-6.167143,-0.26499087,1003.6734,5.668616151278149,1003.6841336500688,0,0
15.72,7.564667999999997,-6.1719093,-0.24132048,1003.6713,5.668432861251612,1003.6841665848123,0,0
15.74,7.5455284,-6.210040599999999,-0.20818153,1003.6759,5.6681806870886735,1003.6841659262462,0,0
15.76,7.574186,-6.1957407,-0.22712107,1003.6859,5.6678966183151385,1003.6841715870028,0,0
15.78,7.669761,-6.176674,-0.14663807,1003.6884,5.667711446848411,1003.684191811134,0,0
15.8,7.7088246,-6.129029,-0.18917221,1003.6784,5.667617358054695,1003.6841888306562,0,0
15.82,7.598903,-6.2005277,-0.26492140000000003,1003.69385,5.6675230382337105,1003.6842209773157,0,0
15.84,7.5893570000000015,-6.1909943,-0.16549772,1003.6962,5.667396424788466,1003.6842925065857,0,0
15.86,7.689747,-6.157629,-0.20337166,1003.6834,5.667361879144588,1003.6843524968248,0,0
15.88,7.775796400000001,-6.067065,-0.39748102,1003.6734,5.667444670215268,1003.6843660752118,0,0
15.9,7.7232323,-6.138563,-0.3548701,1003.6912,5.667633571504598,1003.6844026752035,0,0
15.92,7.5655136,-6.1909957,-0.23650865,1003.68085,5.667721478623206,1003.6844222253256,0,0
15.94,7.5750866,-6.2005295999999985,-0.18916343,1003.6759,5.667745631712912,1003.6844088198022,0,0
15.96,7.5464205999999985,-6.2100625,-0.18916222,1003.6884,5.667679885339438,1003.6844113429305,0,0
15.98,7.599012400000001,-6.1576309999999985,-0.17022333,1003.6884,5.667549953400626,1003.684427931532,0,0
16.0,7.646824400000002,-6.1766977,-0.1418156,1003.6605,5.667465005609302,1003.684356448667,0,0
16.02,7.627717999999999,-6.143332,-0.23176812,1003.688,5.667349235900772,1003.6843064031924,0,0
16.04,7.656411,-6.133799,-0.21282917,1003.6605,5.667239833918263,1003.6841764799592,0,0
16.06,7.723342,-6.152866,-0.24123438,1003.6884,5.6672712020906735,1003.6840768844625,0,0
16.08,7.646878,-6.143333,-0.30751482,1003.6834,5.667294255937463,1003.6839864450976,0,0
16.099999999999998,7.6086535,-6.1623993,-0.2791071,1003.70294,5.667271173237923,1003.6839747656722,0,0
16.12,7.6086674,-6.2624974,-0.17021455,1003.7208,5.6673337996593345,1003.684097016576,0,0
16.14,7.704277999999999,-6.100435299999999,-0.16074446,1003.6959,5.667414638451987,1003.6842475282144,0,0
16.16,7.6851726,-6.1433344000000005,-0.26963452,1003.7058,5.667540662049928,1003.684458109197,0,0
16.18,7.6087084,-6.1195016,-0.27910206,1003.688,5.6675517893770655,1003.6846569293598,0,0
16.2,7.623062599999999,-6.1814675,-0.16547513,1003.6903,5.667560094419741,1003.68485292191,0,0
16.22,7.627855999999999,-6.262499299999999,-0.21281783,1003.6855,5.66768194008591,1003.6850284304084,0,0
16.24,7.603969599999999,-6.1481028,-0.29330155,1003.6803,5.667719367843072,1003.6851664873683,0,0
16.259999999999998,7.613544,-6.200535,-0.33590987,1003.6904,5.667768988530461,1003.6853073151433,0,0
16.28,7.6326766,-6.181469,-0.31697103,1003.67303,5.6678337796252904,1003.6853875522307,0,0
16.3,7.637127400000002,-6.2052937,-0.21757866,1003.688,5.667944493311008,1003.6854678545334,0,0
16.32,7.632347599999999,-6.171928,-0.21284425,1003.6653,5.668043795903982,1003.6854662053715,0,0
16.34,7.661026,-6.1528616,-0.23178189,1003.6878,5.66815508836084,1003.6854731498328,0,0
16.36,7.622788000000001,-6.081363,-0.2554539,1003.6728,5.668122933274223,1003.6854336626196,0,0
16.38,7.594108999999999,-6.200527,-0.19390668,1003.68005,5.66807034778381,1003.6853793905324,0,0
16.4,7.594108999999999,-6.157628,-0.15129702,1003.6779,5.667942072457068,1003.68530450991,0,0
16.419999999999998,7.637127400000002,-6.090896,-0.15603143,1003.6753,5.667730293698048,1003.6852023291568,0,0
16.44,7.6705856,-6.119495400000001,-0.24125071,1003.6952,5.667540499057617,1003.685148033858,0,0
16.46,7.708824000000001,-6.105196,-0.18443786,1003.67755,5.667411967143631,1003.6850727056102,0,0
16.48,7.6466866,-6.1766944000000015,-0.13235942,1003.70026,5.667328251996857,1003.6850608198304,0,0
16.5,7.6132282999999985,-6.171928,-0.2459851,1003.7052,5.667228710423678,1003.6851228186036,0,0
16.52,7.704045,-6.0479975,-0.22231306,1003.6702,5.6671012866590855,1003.6851238785727,0,0
16.54,7.790081,-6.0670633,-0.26965714,1003.6653,5.667117373521191,1003.6850534491988,0,0
16.56,7.718383999999999,-6.043231,-0.2554539,1003.6977,5.66711153515168,1003.6850367453868,0,0
16.58,7.661026,-6.1337957,-0.19390668,1003.6702,5.6671067902689005,1003.6849685736148,0,0
16.599999999999998,7.6658063,-6.129029,-0.19390668,1003.67755,5.667104596961465,1003.6848816301724,0,0
16.62,7.6705856,-6.148095,-0.26492274,1003.6726,5.667140623575448,1003.684760593078,0,0
16.64,7.694484700000001,-6.0670633,-0.20337549,1003.7027,5.667141334194107,1003.6847182265664,0,0
16.66,7.661026,-6.105196,-0.2743915,1003.6825,5.667109173788147,1003.6846728059007,0,0
16.68,7.6705856,-6.090896,-0.17496903,1003.69257,5.667040392928863,1003.6846611020993,0,0
16.7,7.747062700000002,-6.043231,-0.15129702,1003.66705,5.66700231281362,1003.6845873606533,0,0
16.72,7.790081,-6.0479975,-0.17970344,1003.69745,5.667069125454031,1003.6845685082127,0,0
16.74,7.727944,-6.0193980000000025,-0.22231306,1003.70026,5.667091779337418,1003.6846083395668,0,0
16.759999999999998,7.6705856,-6.1242623,-0.19864108,1003.6695,5.667115622541102,1003.684589144529,0,0
16.78,7.7661820000000015,-6.0765967000000005,-0.19864108,1003.67505,5.667234860892887,1003.6845378428733,0,0
16.8,7.7569046,-6.071837,-0.26489687,1003.692,5.667419922314043,1003.6845193764958,0,0
16.82,7.7664723,-6.114736,-0.32170895,1003.7071,5.667736655732369,1003.6845843498493,0,0
16.84,7.670889,-6.1052027,-0.1938789,1003.68463,5.667993632817727,1003.6846419246448,0,0
16.86,7.632660400000002,-6.0861373,-0.24595644,1003.6871,5.6681125008882365,1003.6847016468056,0,0
16.88,7.594434,-6.13857,-0.26962736,1003.6566,5.668116473279548,1003.6846532513783,0,0
16.9,7.618344,-6.0766044,-0.24595435,1003.6796,5.667975737527796,1003.6845922974741,0,0
16.919999999999998,7.627917999999997,-6.0861382000000015,-0.23174982,1003.6845,5.667734826195407,1003.684538106333,0,0
16.94,7.656606699999997,-6.100438,-0.27909294,1003.65936,5.667473966926402,1003.6843995818581,0,0
16.96,7.7569919999999986,-6.0527725,-0.21754481,1003.6894,5.667295652783572,1003.6842951831374,0,0
16.98,7.929078599999999,-5.981275,-0.20334035,1003.7018,5.6673835677730295,1003.6842659537683,0,0
17.0,7.8908496,-5.938376,-0.1701987,1003.6691,5.667588012225902,1003.6841855292644,0,0
17.02,7.8574033,-5.9288435,-0.16546313,1003.6971,5.6678270861120605,1003.6841609582674,0,0
17.04,7.694901,-5.9574428,-0.0802428,1003.66693,5.66786144181969,1003.6840772158846,0,0
17.06,7.690134,-6.0098753,-0.10864811,1003.7044,5.667774444050822,1003.684076383138,0,0
17.08,7.704484,-6.0384746,-0.23647608,1003.70917,5.667645334011246,1003.6841659843436,0,0
17.099999999999998,7.6662564,-6.0813739999999985,-0.2743503,1003.68195,5.667474350932412,1003.6842371784256,0,0
17.12,7.7379622,-6.0289426,-0.24594305,1003.6918,5.66731521212099,1003.684327311674,0,0
17.14,7.6280413,-6.057542,-0.3216922,1003.6816,5.667028921478286,1003.6843971350901,0,0
17.16,7.6949663,-6.090908,-0.27434742,1003.68427,5.666780325432391,1003.6844583733744,0,0
17.18,7.761895,-6.038476,-0.24593998,1003.68964,5.6666065130091345,1003.6845311373779,0,0
17.2,7.718891,-6.0432434,-0.16545379999999998,1003.6966,5.666431549190039,1003.6846388795574,0,0
17.22,7.6663246,-6.133808,-0.15124954,1003.6865,5.666286867200286,1003.6847407805806,0,0
17.24,7.733252499999999,-6.0098777000000005,-0.13231094,1003.6968,5.666118632768699,1003.6848742335144,0,0
17.259999999999998,7.833639999999999,-5.986045400000001,-0.23173238,1003.66614,5.666069030951549,1003.6849247092863,0,0
17.28,7.8527694000000015,-5.995578299999999,-0.26013786,1003.6893,5.666169512637796,1003.6849850607248,0,0
17.3,7.751997999999999,-6.014635,-0.23650204,1003.67865,5.666259231092403,1003.6850155810373,0,0
17.32,7.6420574,-6.081367,-0.26490897,1003.6816,5.666246679572108,1003.6850302526937,0,0
17.34,7.6707315,-6.0813665,-0.2554406,1003.6562,5.666189934845762,1003.6849394276596,0,0
17.36,7.6994047,-6.0718336,-0.15601853,1003.6765,5.666124457724179,1003.6848287927196,0,0
17.38,7.761537599999999,-6.052767,-0.26964468,1003.70654,5.666133761203134,1003.6848091960334,0,0
17.4,7.661157000000001,-6.019401599999999,-0.26017633,1003.6835,5.666001614899099,1003.6847871672952,0,0
17.419999999999998,7.685051,-6.038467,-0.16548873,1003.67163,5.6658041850728775,1003.6847203369,0,0
17.44,7.775861999999999,-6.019401,-0.19389558,1003.6787,5.6656753065030765,1003.68463961235,0,0
17.46,7.809316,-6.005101,-0.2080993,1003.69403,5.6656449549852725,1003.6846020895332,0,0
17.48,7.7137145999999985,-6.028934,-0.17495884,1003.70654,5.665573763111234,1003.6846479108501,0,0
17.5,7.675471300000001,-6.071832700000001,-0.24597542,1003.70874,5.665462544849876,1003.6847751300862,0,0
17.52,7.675467,-6.086132,-0.1796942,1003.669,5.665331806716714,1003.6848307505353,0,0
17.54,7.732819,-6.0289335,-0.19863231,1003.6686,5.665205272366098,1003.684821466062,0,0
17.56,7.771053,-6.028933,-0.27438316,1003.69653,5.665149408862426,1003.6848554130237,0,0
17.58,7.6897907,-6.0575323,-0.25071165,1003.70905,5.665058454719218,1003.6849725090719,0,0
17.599999999999994,7.651548,-6.047999400000001,-0.22704007,1003.66614,5.664860969023406,1003.6850081781076,0,0
17.62,7.7280190000000015,-6.0527654,-0.21757172,1003.7114,5.664700619821956,1003.6851347058264,0,0
17.64,7.723234700000001,-5.9955669999999985,-0.24124418,1003.689,5.6644938901283215,1003.6852604207776,0,0
17.66,7.780587700000001,-5.966967,-0.17022856,1003.67865,5.6643018733752175,1003.6853477049938,0,0
17.68,7.7471247,-5.9955664,-0.1891666,1003.6659,5.664105453369002,1003.6853548175893,0,0
17.7,7.661082,-5.9860334,-0.18916711,1003.6885,5.663752539737233,1003.6853724249353,0,0
17.72,7.742334,-6.071831,-0.22230838,1003.6558,5.663506915265808,1003.6852815220565,0,0
17.74,7.780567599999999,-6.0670642999999975,-0.18916802,1003.6865,5.663412021450608,1003.6852055867932,0,0
17.759999999999994,7.7949023,-6.0003324000000005,-0.21757485,1003.67847,5.6633904915502855,1003.6851142422822,0,0
17.78,7.8140163,-6.024165,-0.21757533,1003.7111,5.663495550375755,1003.6851270789999,0,0
17.8,7.709574000000001,-6.0480155999999985,-0.15596275,1003.6987,5.663568750808767,1003.6851872840396,0,0
17.82,7.771733999999999,-5.976518,-0.14649187,1003.7011,5.663624110462076,1003.6852977669896,0,0
17.84,7.805214,-6.0146510000000015,-0.10861468,1003.68835,5.663765964175996,1003.6854063777637,0,0
17.86,7.671406299999999,-6.1099825,-0.25537875,1003.6912,5.663892666762448,1003.6855232032832,0,0
17.88,7.580613,-6.119516,-0.1512198,1003.7262,5.663866224778429,1003.6857728667807,0,0
17.9,7.6953505999999985,-6.052785,-0.1985618,1003.6983,5.663806377147533,1003.6860385671266,0,0
17.919999999999995,7.7383947,-6.0861516,-0.20329386,1003.69324,5.663830599902179,1003.6862992651106,0,0
17.94,7.728858,-6.0194199999999976,-0.2364326,1003.693,5.663829493452147,1003.6865537404947,0,0
17.96,7.810138,-5.9765224,-0.26483685,1003.6859,5.663886731109487,1003.6867762414786,0,0
17.98,7.752806,-6.0575542,-0.22695924,1003.6856,5.664002102478799,1003.6869686088784,0,0
18.0,7.767166599999999,-6.0432553,-0.17961326,1003.6909,5.664171656343923,1003.6871527377208,0,0
18.02,7.7958713,-5.9574574999999985,-0.17487650000000002,1003.70325,5.664326660750607,1003.6873733841104,0,0
18.04,7.8054533,-5.9717574,-0.10859276,1003.6959,5.66450013345365,1003.6875990430777,0,0
18.06,7.7194410000000016,-5.9908247,-0.18434106,1003.693,5.664574246717048,1003.6878178787856,0,0
18.08,7.709903999999999,-6.06709,-0.2269486,1003.6856,5.664644128700342,1003.6880032576537,0,0
18.1,7.724267500000002,-6.033725,-0.1085863,1003.6881,5.664686521709068,1003.688167406694,0,0
18.12,7.7864265,-5.990826,-0.19380368,1003.6906,5.664754670886344,1003.6883212061218,0,0
18.14,7.7864520000000015,-5.9526949999999985,-0.2695518,1003.6909,5.66480087334736,1003.6884663869542,0,0
18.16,7.729117,-6.0623260000000005,-0.17959604,1003.6834,5.6648685190009225,1003.6885764297447,0,0
18.18,7.710023,-6.0384936,-0.22693773,1003.67554,5.664895128388193,1003.6886267324072,0,0
18.2,7.719607000000001,-6.0766263,-0.14645064,1003.688,5.664946800526817,1003.6886689236032,0,0
18.22,7.705289,-6.057561,-0.21273036,1003.71576,5.664975071243483,1003.6888037316188,0,0
18.24,7.829586999999999,-5.9812970000000005,-0.22693138,1003.6856,5.665090303829283,1003.6889113145476,0,0
18.26,7.7244573,-6.038496,-0.15117857,1003.72327,5.6651787513016,1003.6891300660913,0,0
18.28,7.6575627000000015,-6.0384965,-0.12750450000000002,1003.6756,5.665133165339955,1003.6892746467174,0,0
18.3,7.7957972999999985,-5.9574555999999985,-0.2080242,1003.6906,5.665095830279663,1003.6894071694304,0,0
18.32,7.748007,-6.0670867,-0.18908586,1003.6906,5.665125969923983,1003.6895285606897,0,0
18.34,7.657197,-6.0670867,-0.17488201,1003.7034,5.665066827138041,1003.6896857591876,0,0
18.36,7.719342699999999,-6.081386599999999,-0.32164782,1003.6981,5.665056469487673,1003.6898549510477,0,0
18.38,7.724129,-6.081387,-0.17488062,1003.68536,5.665089366424514,1003.6899882671512,0,0
18.4,7.7432566,-6.024188,-0.15594229999999998,1003.675,5.665117742461942,1003.6900521074988,0,0
18.42,7.714585,-6.0289550000000025,-0.25062972,1003.69525,5.665105209697916,1003.6901272292424,0,0
18.44,7.7337117,-6.0384884,-0.2885042,1003.708,5.66510224932754,1003.6902579487904,0,0
18.46,7.7050405,-6.0194220000000005,-0.22695632,1003.7055,5.665033059960737,1003.6904283239667,0,0
18.48,7.738506299999999,-6.1099873,-0.13700193,1003.69995,5.665073073905347,1003.6906131455067,0,0
18.5,7.791092,-6.0623217,-0.21275169,1003.69775,5.6652371271818165,1003.6908021464957,0,0
18.52,7.77676,-6.038489,-0.21748541,1003.70776,5.665456499382322,1003.691030196042,0,0
18.54,7.8197856,-5.9717574,-0.23168801,1003.70013,5.6657108690146645,1003.6912644599153,0,0
18.56,7.681178599999999,-6.071855,-0.2174841,1003.6825,5.6658947526881365,1003.691439903418,0,0
18.58,7.657286599999999,-6.1385875,-0.13699855,1003.6824,5.666060194350947,1003.6915623816446,0,0
18.6,7.705093400000001,-6.0337234,-0.2269515,1003.68787,5.6661547509828045,1003.691657310832,0,0
18.62,7.7003202,-6.019424,-0.20801328,1003.69763,5.666159336945554,1003.6917626919427,0,0
18.64,7.6190705,-6.0909224,-0.14173089,1003.68,5.666041628515303,1003.6918134610014,0,0
18.66,7.633417,-6.138588,-0.2127463,1003.6974,5.6659041838968385,1003.691878432082,0,0
18.68,7.6764436,-6.043257,-0.23641764,1003.7004,5.665697548701058,1003.6919665181732,0,0
18.7,7.748149400000001,-6.06709,-0.25062004,1003.68695,5.665579022346552,1003.692026291578,0,0
18.72,7.7768345,-6.0623239999999985,-0.24115063,1003.7074,5.665579155002027,1003.6921344527087,0,0
18.74,7.786401700000001,-6.0432577000000025,-0.24114998,1003.6824,5.665675502095453,1003.692194979854,0,0
18.76,7.690812599999999,-6.1004559999999985,-0.2316805,1003.70496,5.66577314814058,1003.6922944157122,0,0
18.78,7.633462400000001,-6.1004567000000005,-0.22694542,1003.71533,5.665778133558187,1003.69246520534,0,0
18.8,7.7003875,-6.0956907,-0.2269447,1003.6974,5.665803896955829,1003.6926338803155,0,0
18.82,7.719611,-6.07186,-0.23640396,1003.67206,5.665849074589122,1003.6927088555552,0,0
18.84,7.6431460000000015,-6.129059,-0.26954374,1003.6725,5.6658625190720056,1003.6927023517967,0,0
18.86,7.676614999999999,-6.08616,-0.28848034,1003.6949,5.665847799766505,1003.6927045166096,0,0
18.88,7.777005,-6.095694,-0.36896396,1003.692,5.665989866721923,1003.6927038931784,0,0
18.9,7.7292185,-6.086161,-0.25533718,1003.6775,5.666172188711256,1003.6926486082988,0,0
18.92,7.710108,-6.067095,-0.22219555,1003.6569,5.666332044808849,1003.6924710635897,0,0
18.94,7.638422,-6.095695,-0.22219457,1003.71246,5.66639163857631,1003.6923861452556,0,0
18.96,7.609757000000001,-6.2291584,-0.21745886,1003.6695,5.666490212012775,1003.6922287212924,0,0
18.98,7.648006,-6.119528,-0.18431708,1003.672,5.6665399268799295,1003.6920167980822,0,0
19.0,7.705372,-6.057563,-0.2411292,1003.6845,5.6665622373046896,1003.6918024822604,0,0
19.02,7.719722,-6.052796400000001,-0.3405507,1003.67957,5.6665837130612875,1003.6915690758644,0,0
19.04,7.5906825,-6.1290617,-0.38315892,1003.6871,5.666496545508513,1003.6913467492997,0,0
19.06,7.624153,-6.176728,-0.1890473,1003.68994,5.66641823954466,1003.6911452372494,0,0
19.08,7.6528425,-6.1624284000000005,-0.20798397,1003.68396,5.666376549088316,1003.6909413143477,0,0
19.1,7.5429179999999985,-6.1719620000000015,-0.18431087,1003.7019,5.666201507357467,1003.6908005793404,0,0
19.12,7.6576443,-6.1052300000000015,-0.26479477,1003.6896,5.6660114365686525,1003.690671903802,0,0
19.14,7.686331,-6.1052303,-0.17010593,1003.6715,5.665851049544679,1003.6904891872427,0,0
19.16,7.600308999999997,-6.1385964999999985,-0.25532392,1003.70935,5.665625143957024,1003.6903956378168,0,0
19.18,7.648117999999997,-6.0909314000000006,-0.28372929,1003.68933,5.665359315145137,1003.690309141248,0,0
19.2,7.652908999999997,-6.1624300000000005,-0.19850905,1003.7045,5.665155444067799,1003.6902837999713,0,0
19.22,7.624241400000002,-6.1862629999999985,-0.19850802,1003.7169,5.664991856374877,1003.6903572267393,0,0
19.24,7.619472999999997,-6.1957964999999975,-0.23164777,1003.68396,5.664870759390265,1003.690399076615,0,0
19.26,7.476091,-6.3006606,-0.24584992,1003.67957,5.6646978163364565,1003.6903970704897,0,0
19.28,7.557357,-6.129065,-0.26952103,1003.6818,5.664383934154397,1003.6903643484233,0,0
19.3,7.7246,-6.105231,-0.28846323,1003.70154,5.664188068444541,1003.6903756675513,0,0
19.32,7.676810700000001,-6.1338305,-0.33107215,1003.6896,5.664059213593737,1003.6903828767296,0,0
19.34,7.6481395,-6.1576633,-0.20797688,1003.68896,5.663967528338734,1003.6903841244032,0,0
19.36,7.6577085999999985,-6.1195309999999985,-0.13695991,1003.6865,5.663872350732971,1003.6903712439998,0,0
19.38,7.691176400000002,-6.1195316,-0.15589678,1003.7146,5.663829399262253,1003.690447086397,0,0
19.4,7.6433864,-6.181497,-0.11802071,1003.68396,5.663834760622784,1003.690490747228,0,0
19.42,7.6003776,-6.2434626,-0.26478648,1003.6995,5.663900806290053,1003.6905617592483,0,0
19.44,7.461772,-6.2148633,-0.37367696,1003.694,5.663767891383063,1003.690636883136,0,0
19.46,7.47612,-6.23393,-0.3358009,1003.684,5.663505030862545,1003.690679369824,0,0
19.48,7.6195226,-6.257763,-0.29792490000000005,1003.67865,5.663386824161973,1003.6906736053304,0,0
19.5,7.624311,-6.205331299999999,-0.20797049,1003.68146,5.663330804913339,1003.6906353428444,0,0
19.52,7.5717425,-6.1195330000000006,-0.14168793,1003.67896,5.663130315938407,1003.6905595028777,0,0
19.54,7.59087,-6.195798,-0.25057846,1003.6787,5.662938206399595,1003.6904497964723,0,0
19.56,7.538301,-6.257764,-0.24110885,1003.69147,5.662751193451627,1003.6903565326256,0,0
19.58,7.648244999999997,-6.191032,-0.13221678,1003.6915,5.6626538334923175,1003.6902782411732,0,0
19.6,7.700831,-6.0909347999999985,-0.21743523,1003.69867,5.6625945553826424,1003.6902392731772,0,0
19.62,7.6100235,-6.1910324,-0.15588725,1003.6864,5.662549668128903,1003.690191019673,0,0
19.64,7.5431146999999985,-6.2100987000000005,-0.21743365,1003.6736,5.662437589165478,1003.6900886552057,0,0
19.66,7.5383444000000015,-6.276831,-0.21743284,1003.66614,5.662347340874945,1003.6899119908037,0,0
19.68,7.490555,-6.262531299999999,-0.14168157,1003.69904,5.662178526734598,1003.6897887509708,0,0
19.7,7.5622606,-6.314964,-0.1842904,1003.67865,5.6621265901628846,1003.6896397567514,0,0
19.72,7.657866,-6.2053337,-0.36419696,1003.66113,5.662197214484986,1003.6894054703346,0,0
19.74,7.720012,-6.219633,-0.2931801,1003.70135,5.6624900569982275,1003.6892414551636,0,0
19.76,7.700900999999999,-6.1624346,-0.26477290000000003,1003.67114,5.662871168846562,1003.6890313661197,0,0
19.78,7.6244326,-6.1243024,-0.36419466,1003.6558,5.663162028030361,1003.6887260985228,0,0
19.8,7.40932,-6.233933,-0.34052455,1003.6712,5.663169768225522,1003.6883932701194,0,0
19.82,7.380648,-6.3006644,-0.11327252,1003.68097,5.662960461089691,1003.6880724591693,0,0
19.84,7.633985000000001,-6.2863655,-0.032787000000000004,1003.6786,5.662943272175249,1003.6877548897612,0,0
19.86,7.4475803,-6.319731,-0.14167759,1003.6832,5.662845139839629,1003.6874578878287,0,0
19.88,7.3711114,-6.4341288,-0.4068035,1003.68854,5.662725912436602,1003.6871993525252,0,0
19.9,7.552751,-6.2720660000000015,-0.26950514,1003.6812,5.662647680230839,1003.686949313062,0,0
19.92,7.5718774999999985,-6.2577667,-0.57250637,1003.68854,5.6626445648851815,1003.6867341046652,0,0
19.94,7.4523899999999985,-6.3864636,-0.29791015,1003.6912,5.662664808311522,1003.6865600237493,0,0
19.96,7.6196904,-6.4150634,-0.08486132,1003.6983,5.663000484946593,1003.6864484697659,0,0
19.98,7.720074,-6.0909375999999975,-0.1558767,1003.6935,5.663351542402427,1003.6863752861757,0,0
20.0,7.7153015,-6.2577677000000005,-0.118000805,1003.6754,5.663922682298588,1003.6862711101244,0,0
20.02,7.6340523,-6.1862693,-0.013843205,1003.68085,5.664460029056627,1003.6861595441696,0,0
20.04,7.524124,-6.2434683,-0.17007789,1003.68097,5.664867343495784,1003.6860422821327,0,0
20.06,7.4715539999999985,-6.2482347,-0.108529925,1003.7005,5.665078865892023,1003.6859907171812,0,0
20.08,7.375964999999999,-6.3387995,-0.22688939,1003.67834,5.6650910434940585,1003.6859176118083,0,0
20.1,7.6101832,-6.3816986,-0.10379416,1003.67285,5.665351494629794,1003.6858059724983,0,0
20.12,7.796603699999999,-6.1624374,-0.6766564,1003.67584,5.665889809969894,1003.6856714505028,0,0
20.14,7.5863,-6.253002,-0.43046668,1003.67303,5.666421551889987,1003.685507077646,0,0
20.16,7.304298399999999,-6.4245987,-0.43993485,1003.66296,5.666731602514057,1003.6852806683099,0,0
20.18,7.409461500000001,-6.3673997,-0.46834052,1003.67053,5.666934254762579,1003.6850275106148,0,0
20.2,7.543303,-6.338801,-0.04697789,1003.69293,5.667191685743005,1003.6848322694374,0,0
20.22,7.476392999999999,-6.372167,0.25602466,1003.6733,5.6674419363982365,1003.6846182381627,0,0
20.24,7.2995496,-6.448432,-0.30263427,1003.69824,5.667514043847048,1003.6844781584712,0,0
20.26,7.218299000000001,-6.4150662,-0.4257282,1003.68787,5.667265821093315,1003.6843665946852,0,0
20.28,7.337802000000001,-6.4198327000000015,-0.25528896,1003.69543,5.666915751191193,1003.684307845183,0,0
20.3,7.686329,-6.3244915,-0.31213823,1003.6829,5.666904361540892,1003.6842508658802,0,0
20.32,7.47601,-6.3435583,-0.41156146,1003.70074,5.666890001211223,1003.6842598798512,0,0
20.34,7.5381384,-6.5246873,-0.16537328,1003.68787,5.6672010076492025,1003.6842808410285,0,0
20.36,7.5859284,-6.195794,-0.30267176,1003.70795,5.667441299143492,1003.684384571297,0,0
20.38,7.777111,-6.024198,-0.5583304,1003.67834,5.667730386896785,1003.6844544669057,0,0
20.4,7.6241493,-6.1719613,-0.16064121,1003.67834,5.6679728060780095,1003.6844942145843,0,0
20.42,7.576343,-6.2005606,-0.24112685,1003.6933,5.668137015342888,1003.6845610364608,0,0
20.44,7.4902973,-6.248225700000001,-0.18431482,1003.688,5.668154209533411,1003.6846324605395,0,0
20.46,7.342115,-6.3101907,0.052404627,1003.68787,5.667886287402513,1003.6847072259976,0,0
20.48,7.370784299999999,-6.429354,0.023997376,1003.6829,5.667574339833924,1003.6847667827427,0,0
20.5,7.5524087,-6.2529917,-0.22219242,1003.6679,5.667280057385068,1003.6847586866652,0,0
20.52,7.461583,-6.272057,-0.20325568,1003.6855,5.666882041040505,1003.6847542016988,0,0
20.54,7.5332713,-6.219625,-0.17011565,1003.68005,5.66643720056958,1003.6847333036563,0,0
20.56,7.60018,-6.262524,-0.47311825,1003.65753,5.6661371344982285,1003.684616906253,0,0
20.58,7.514135,-6.3292556,-0.4399782999999999,1003.68256,5.6659143040659465,1003.6845066526448,0,0
20.6,7.528465700000001,-6.3816875999999985,-0.34529093,1003.71576,5.665845693396598,1003.6845217446072,0,0
20.62,7.566696,-6.3673873,-0.27901003,1003.6827,5.665950754337548,1003.6845285215843,0,0
20.64,7.2177606,-6.496084,-0.24113567,1003.67285,5.66583542671211,1003.6844924670438,0,0
20.66,7.236872,-6.39122,-0.4163094,1003.67755,5.665422808403808,1003.6844356163704,0,0
20.68,7.485412599999999,-6.353087,-0.35002857,1003.67505,5.665081990291557,1003.6843515948964,0,0
20.7,7.671815400000002,-6.23869,-0.3168886,1003.6979,5.6649494951771615,1003.6843261277803,0,0
20.72,7.7626240000000015,-6.3530865,-0.25060770000000004,1003.69006,5.665294056467085,1003.6843242669763,0,0
20.74,7.695697999999997,-6.286355,-0.26954612,1003.71783,5.6658645128471825,1003.6844432434093,0,0
20.76,7.4232397,-6.3244867,-0.33582857,1003.6723,5.666252847578857,1003.6845046553087,0,0
20.78,7.193801,-6.5342155,-0.20800053,1003.7029,5.666401351700567,1003.6846251421042,0,0
20.8,7.327625999999999,-6.3197203,-0.29795498,1003.6674,5.666255103961471,1003.6846695937253,0,0
20.82,7.462066,-6.3674,-0.34997797,1003.6673,5.666128987690103,1003.6846463406398,0,0
20.84,7.390384700000001,-6.5532966,-0.2836949,1003.67487,5.666157790953193,1003.6845905993872,0,0
20.86,7.399963,-6.5294642,-0.19847392,1003.6848,5.666301151729781,1003.6845421002588,0,0
20.88,7.184886,-6.4484334,-0.3405047,1003.6823,5.666107636078047,1003.684491174868,0,0
20.9,7.213581,-6.3292699999999975,-0.34523764,1003.6848,5.665497793058674,1003.6844472889633,0,0
20.92,7.4143467,-6.5675974,-0.165329,1003.677,5.665152836548357,1003.6843817011372,0,0
20.94,7.6294537,-6.3912354,-0.20320286,1003.6948,5.665144114915942,1003.6843612536104,0,0
20.96,7.529093,-6.314971,-0.35943678,1003.6924,5.665180179080313,1003.6843721256624,0,0
20.98,7.266217699999999,-6.5294666,-0.4872644,1003.6976,5.665146963649121,1003.6844293525554,0,0
21.0,7.371388,-6.5056343,-0.50620073,1003.6695,5.665184779206355,1003.6844261725688,0,0
21.02,7.2662473,-6.548533,-0.30261993,1003.67944,5.6651641345193005,1003.6844054125113,0,0
21.04,7.4526759999999985,-6.5723660000000015,-0.18425836,1003.6973,5.665407934007914,1003.6844334894397,0,0
21.06,7.467028599999999,-6.457969,-0.39730528,1003.6998,5.665763641804613,1003.6845136176512,0,0
21.08,7.3188710000000015,-6.5104017,-0.40203822,1003.67194,5.666057836136376,1003.6845391539156,0,0
21.1,7.309325999999999,-6.47227,-0.3262864,1003.6745,5.666223359766928,1003.6845255768046,0,0
21.12,7.1802826,-6.5580683,-0.31208220000000003,1003.6799,5.6661934854593925,1003.6844969279927,0,0
21.14,7.295015299999997,-6.5485352999999975,-0.29787734,1003.6823,5.666153535014341,1003.684463704962,0,0
21.16,7.4049664,-6.353107,-0.3925641,1003.662,5.666015655061492,1003.6843534797542,0,0
21.18,7.4097614,-6.524704,-0.4777819,1003.672,5.666040848065308,1003.6842116122334,0,0
21.2,7.438453999999999,-6.457972,-0.31681088,1003.67444,5.666150212435756,1003.684051080288,0,0
21.22,7.486267599999999,-6.319742,-0.39729434,1003.6944,5.666228350683457,1003.683946490372,0,0
21.24,7.199495,-6.5819035,-0.45410582,1003.6594,5.666195693041653,1003.6837657073568,0,0
21.26,7.2138490000000015,-6.491339,-0.33574426,1003.67944,5.665951000835339,1003.6835903949382,0,0
21.28,7.295121000000001,-6.620037,-0.15583555,1003.6944,5.665815003996572,1003.6834744034633,0,0
21.3,7.3946357,-6.524684400000001,-0.080163896,1003.7041,5.66579563529371,1003.6834461655434,0,0
21.32,7.442412400000001,-6.415053,-0.32162052,1003.6742,5.665814719718964,1003.6833879283217,0,0
21.34,7.2464213000000015,-6.5342164,-0.4683888,1003.677,5.665738351180007,1003.6833134733704,0,0
21.36,7.1794853000000005,-6.6009474,-0.44471854,1003.6894,5.665566134784965,1003.6832695964714,0,0
21.38,7.389775999999999,-6.577114599999999,-0.20326576,1003.68445,5.665584036881302,1003.6832350762962,0,0
21.4,7.552269,-6.3769183,-0.33583090000000004,1003.6742,5.665759998150419,1003.6831720479947,0,0
21.42,7.4901114,-6.3959845999999985,-0.33583274,1003.6919,5.6660022007277275,1003.6831477768147,0,0
21.44,7.346696400000001,-6.519914,-0.20800574,1003.7069,5.666239044955024,1003.6832118388036,0,0
21.46,7.375358,-6.4484157999999985,-0.28375778,1003.6742,5.666420738153467,1003.6832360013568,0,0
21.48,7.537851299999999,-6.3435510000000015,-0.2742908,1003.6891,5.666666882211032,1003.6832784617843,0,0
21.5,7.447013,-6.4674807,-0.20801118,1003.7041,5.666989587720767,1003.6833909373556,0,0
21.52,7.3848557,-6.4198146,-0.29323226,1003.6795,5.667220851271603,1003.683476313396,0,0
21.54,7.389616499999999,-6.3912144,-0.38318777,1003.6817,5.667345499497572,1003.683545356937,0,0
21.56,7.279660000000002,-6.543744599999999,-0.28850147,1003.66675,5.667406971749878,1003.6835459005248,0,0
21.58,7.360898,-6.4913116,-0.23642479,1003.6918,5.667463123990513,1003.6835760955972,0,0
21.6,7.580748599999999,-6.4245796,-0.416334,1003.6816,5.667781555028959,1003.6835956620188,0,0
21.62,7.599849000000002,-6.2958817000000025,-0.3263821,1003.6816,5.668182312758902,1003.6836057665256,0,0
21.64,7.5854897,-6.219616,-0.18908621,1003.67926,5.6685230971154095,1003.6835990501088,0,0
21.66,7.6906247,-5.9431553,-0.2790417,1003.669,5.6686272555006765,1003.683540558902,0,0
21.68,7.9056954,-5.9860544,0.16599044,1003.6918,5.668925747049185,1003.68351861006,0,0
21.7,7.1695857000000025,-6.5485067,-0.09913808,1003.6764,5.66896446191455,1003.6834735890668,0,0
21.72,7.599749,-6.1338162,0.24173732,1003.67926,5.668895411363362,1003.6834186395964,0,0
21.74,7.4276557,-6.2911124,0.014484057,1003.679,5.668657859600514,1003.6833541791423,0,0
21.76,7.547132,-6.295878,0.4831884,1003.70667,5.66849339064026,1003.6833811588396,0,0
21.78,7.5136538,-6.119515,0.3553577,1003.6892,5.668096103550793,1003.6834259459283,0,0
21.8,7.667805,-5.967015,0.53537464,1003.6918,5.6675648594756245,1003.683495666395,0,0
21.82,7.863802400000001,-5.9241166,0.6584715,1003.6761,5.6672014927969165,1003.683530647,0,0
21.84,7.916410000000001,-5.94795,0.62059903,1003.6789,5.667099594910392,1003.6835448855336,0,0
21.86,7.7348084,-6.000383,0.5732578,1003.6715,5.6669896892346205,1003.6835141051137,0,0
21.88,7.816092,-6.0051503,0.71055806,1003.6863,5.6670311954300585,1003.6834969367565,0,0
21.9,7.7731020000000015,-6.0146837,0.72949815,1003.67114,5.667150705866453,1003.6834372818236,0,0
21.92,7.868728,-5.9813185,0.7957826,1003.69916,5.667464504715363,1003.6834411725104,0,0
21.94,7.7301416,-6.1147833,0.677425,1003.6963,5.6678730653905225,1003.6834909021002,0,0
21.96,7.5963345,-6.0575852,0.90467894,1003.67377,5.668111190686206,1003.6834998479179,0,0
21.98,7.758877,-5.9908543,1.1414018,1003.7163,5.6684283232290325,1003.6836258329904,0,0
22.0,7.840161,-6.0099206,1.1319355,1003.67114,5.668968890844059,1003.6836922044015,0,0
22.02,7.797172,-6.090952400000001,1.1082662,1003.6713,5.669731605191154,1003.6837062382443,0,0
22.04,7.821098299999999,-6.009922,0.9378302,1003.67865,5.6705878763809086,1003.6837004360904,1,1
22.06,7.682514999999999,-6.0432887000000015,0.90942657,1003.69366,5.6713341830736415,1003.6837311637372,1,1
22.08,7.8402759999999985,-5.9336585999999985,0.838413,1003.6637,5.6720874637921925,1003.6836862024963,1,1
22.1,7.926341499999999,-5.8240285000000025,0.6537739,1003.70654,5.6728223258924375,1003.6837287484152,1,1
22.12,7.9741683,-5.804963,0.84315276,1003.68604,5.673624769115187,1003.6837746624943,1,1
22.14,8.213188,-5.871695,0.9993908,1003.6884,5.674995873760264,1003.6838318833901,1,1
22.16,7.8212733,-5.8287973,0.6443131,1003.69104,5.676095597390607,1003.683908392993,1,1
22.18,7.864321,-5.7001004,1.0420058,1003.688,5.6769369079120215,1003.6839907266636,1,1
22.2,7.744853,-5.7573004,0.8573665000000001,1003.68854,5.677380196605638,1003.6840798540786,1,1
22.22,8.002991999999999,-5.52374,1.6480147,1003.6709,5.677832837777076,1003.6841111595883,1,1
22.24,7.3147273,-5.6429043,1.4870473999999998,1003.6684,5.677241359588304,1003.6840822609618,1,1
22.26,7.6254453999999985,-5.8574,2.3250399,1003.7138,5.676841920437372,1003.684163709996,1,1
22.28,7.1905107,-5.466543,1.8089923,1003.69604,5.67519890705925,1003.6842784330067,1,1
22.3,7.2383380000000015,-5.304481,2.339248200000001,1003.6809,5.672591630088937,1003.6843676399002,1,1
22.32,7.734396,-5.266323000000001,3.0919235,1003.69867,5.6703491109822775,1003.6844979516077,1,1
22.34,8.661666,-5.466518,4.1287565000000015,1003.6706,5.670907378895155,1003.6845630624063,1,1
22.36,9.7275505,-4.7229347000000015,6.4060044000000005,1003.7061,5.677108621453753,1003.6846981272836,1,1
22.38,9.92829,-3.3310997,7.149305,1003.69855,5.688505114560387,1003.6848673373507,1,1
22.4,9.789662,-2.8210778,8.527016,1003.70605,5.705709944369628,1003.6850931089516,1,1
22.42,11.175795,-2.8878093,7.712697,1003.6982,5.729225790021293,1003.6853397855459,1,1
22.44,12.112623,-3.2739,7.3954906,1003.71356,5.7596511142719375,1003.6856593417567,1,1
22.46,10.382322,-3.8697193,5.331289,1003.6959,5.7913568045706265,1003.6859785679944,1,1
22.48,8.389132,-4.808731,3.3286345,1003.6507,5.819778442509753,1003.6861336334532,1,1
22.5,6.6253695000000015,-5.437916,2.8315208,1003.6656,5.842702547954552,1003.6861967282119,1,1
22.52,5.478205,-6.310196,1.6147777,1003.6831,5.859614301759662,1003.6862413305196,1,1
22.54,4.8807173,-7.778295,-0.12748435,1003.69855,5.872550785263175,1003.6863250523284,1,1
22.56,3.0213609,-9.823148,-1.2163986,1003.67554,5.884350340401803,1003.6863602027304,1,1
22.58,1.8311777,-11.601072,-2.7219403,1003.69855,5.8986506834644326,1003.6864351448958,1,1
22.6,2.8779423,-13.502929,-2.3005795,1003.68353,5.919142673656371,1003.6864909052713,1,1
22.62,3.5040836000000004,-14.279878,0.2702011,1003.6631,5.946506335950666,1003.6864559678804,1,1
22.64,7.476087599999999,-12.282689,0.9282822,1003.6636,5.979225899938263,1003.6863428157174,1,1
22.66,10.415655,-11.143482,0.07135385,1003.6934,6.018315422156048,1003.6862682403296,1,1
22.68,11.601035,-11.114883,-0.44943187,1003.6806,6.064595140971623,1003.6861819398514,1,1
22.7,11.548442,-10.404665,1.6857832999999998,1003.6706,6.116152906610164,1003.6860495897656,1,1
22.72,10.386938,-9.274991,2.7604923,1003.68567,6.169197603768972,1003.6859312787068,1,1
22.74,10.076236,-8.30738,2.6894748,1003.6959,6.221571489929618,1003.6858626264516,1,1
22.76,10.343893,-6.481788,2.4290814,1003.7009,6.271320526331935,1003.6858560998636,1,1
22.78,10.248285,-4.3368373,2.074,1003.70355,6.3162297015121736,1003.6859140310112,1,1
22.8,9.899349,-3.149964,1.8420132,1003.6855,6.355101759830919,1003.6859637284616,1,1
22.82,9.881159,-2.7209969,0.8194667,1003.6834,6.387940785426147,1003.6859984117059,1,1
22.84,11.46808,-2.3349063,-0.5203674,1003.66315,6.418309772504605,1003.685946803539,1,1
22.86,14.388563,-4.1271324,1.0561914,1003.698,6.453227242995151,1003.6859445940697,1,1
22.88,16.051958,-8.397967,2.7605793,1003.7075,6.498936860830653,1003.686020241244,1,1
22.9,15.40192,-9.132018,3.5038824,1003.69006,6.553851799803491,1003.6861016262186,1,1
22.92,12.586648,-10.824146,2.55227,1003.7106,6.613690251814964,1003.6862617321277,1,1
22.94,12.362021,-13.674548,0.9425745,1003.70557,6.681118653232048,1003.6864727114737,1,1
22.96,12.605807,-14.718425,0.59696454,1003.7329,6.7569435750228575,1003.6868262710623,1,1
22.98,11.324843,-15.137882,1.8231773,1003.7356,6.839093549629648,1003.6873142617387,1,1
23.0,7.759141,-13.617352,2.628029,1003.7104,6.920090609278272,1003.6878285589585,1,1
23.02,6.736287,-10.938546,2.2966232000000004,1003.7306,6.993871306491956,1003.6884369691693,1,1
23.04,6.181851,-9.794575,2.168796,1003.7178,7.058377696106013,1003.6890802673427,1,1
23.06,5.240255,-8.598168,2.362909,1003.67035,7.111462346952251,1003.6895812566464,1,1
23.08,2.9029553,-8.660134,2.1214566,1003.6626,7.152256133585725,1003.6899267982711,1,1
23.1,-0.7918107,-11.2960415,0.90945095,1003.67786,7.1861651771047175,1003.6901886783772,1,1
23.12,-2.7371666,-11.853728,-2.2436604,1003.6277,7.215969260777594,1003.6901951163964,1,1
23.14,0.5896009,-12.969104,-2.4330342000000003,1003.67303,7.2437800485362835,1003.6901390106112,1,1
23.16,3.529203,-14.837594,-0.90855396,1003.6229,7.274031980061277,1003.6898473751013,1,1
23.18,7.9887834,-14.699365,0.49756643,1003.6626,7.309364042485435,1003.6894915954144,1,1
23.2,11.879568,-12.969106,-0.5534691999999999,1003.65784,7.350842870590802,1003.6890632827394,1,1
23.22,13.031526,-13.016771,-3.1573894,1003.67786,7.399871959917054,1003.688644493842,1,1
23.24,12.74954,-12.764145,-2.6650095,1003.6552,7.454458748698754,1003.6881540517944,1,1
23.26,11.736242,-13.307532,-0.25992993,1003.6907,7.512738595340215,1003.6877298626148,1,1
23.28,11.071876,-14.256078,1.9084297,1003.6876,7.5749152688973425,1003.6873545815505,1,1
23.3,12.653733,-11.5868,2.258752,1003.7032,7.638553239998374,1003.687080026708,1,1
23.32,14.928932,-6.682013499999999,3.8069038,1003.7049,7.70218917241929,1003.6869015819533,1,1
23.34,17.113314000000006,-0.9049465,5.061522,1003.7153,7.767830153419043,1003.6868461424726,1,1
23.36,12.993136,-3.3883228,1.2313898,1003.65784,7.825892332622317,1003.686692734035,1,1
23.38,12.132784,-3.0022318,-1.1358114,1003.65814,7.875107994989221,1003.6864543924968,1,1
23.4,13.456802,-2.7210054,1.4539089,1003.7055,7.918939617373338,1003.6863123581007,1,1
23.42,14.059070000000002,-6.4579864,3.196171,1003.67224,7.961996697315713,1003.6861361960193,1,1
23.44,15.163218,-10.190201,3.3476734,1003.7153,8.009982781993395,1003.6860855288983,1,1
23.46,14.986377,-13.226498,4.25668,1003.7428,8.066023843316806,1003.6862449315261,1,1
23.48,13.523769,-16.920579999999998,2.8742352,1003.6974,8.131920175172565,1003.6864259379346,1,1
23.5,13.762772,-18.922533,2.3250450000000003,1003.73254,8.209743034045259,1003.6867518858203,1,1
23.52,12.969337,-18.37438,3.3050683,1003.7477,8.296199866606411,1003.6872593065835,1,1
23.54,11.358555,-17.373402,4.275622,1003.7428,8.386775115869748,1003.6879076100662,1,1
23.56,9.824251,-16.391493,3.8211207,1003.7256,8.477120904014129,1003.6886161436273,1,1
23.58,8.705789999999999,-14.37524,2.6517236,1003.7231,8.561795360128626,1003.6893663457643,1,1
23.6,7.2718606,-12.49245,2.277707,1003.6924,8.636205686890097,1003.6900401455284,1,1
23.62,5.8235917,-11.853732,2.7842894,1003.7104,8.698917948774909,1003.6907088104758,1,1
23.64,2.4347236,-10.833689,1.7427213,1003.688,8.746375946294886,1003.6912898911056,1,1
23.66,-1.2361531,-10.171137,1.3639702,1003.6429,8.778306618317773,1003.691629130342,1,1
23.68,-2.6605217,-9.96141,0.34133998,1003.6429,8.796360535324318,1003.6917534572624,1,1
23.7,-3.124151,-10.576296,-0.8091193,1003.6254,8.803629104639064,1003.6916244400827,1,1
23.72,-0.07940333,-11.6821375,0.21351328,1003.6098,8.802644030428286,1003.6912158725186,1,1
23.74,5.4078230000000005,-12.516284,-0.26939493,1003.6377,8.798428584639739,1003.6906622050778,1,1
23.76,10.895051,-14.055882999999998,-3.351491,1003.6301,8.800643443216561,1003.6899549605887,1,1
23.78,13.241948,-17.850063000000006,-3.3325522000000003,1003.63226,8.817629469025581,1003.6891223375003,1,1
23.8,15.219892499999998,-18.712788,-2.0638134,1003.6277,8.851212197054318,1003.6881655113243,1,1
23.82,16.027657,-16.191278,-1.6140473999999998,1003.65015,8.896492798514894,1003.6871832038744,1,1
23.84,15.650029,-15.242734,0.23710269,1003.71277,8.949884887578937,1003.6864073494777,1,1
23.86,15.683464,-12.430464,0.34125742,1003.6826,9.006443140805077,1003.6857080980748,1,1
23.88,15.554386,-7.6448402,0.24183282,1003.6903,9.060021267650392,1003.6851067703819,1,1
23.9,14.603179,-4.5894765999999985,1.8894032,1003.73505,9.106804076186844,1003.6847552328592,1,1
23.92,12.500043,-4.3940473,1.5106488,1003.6649,9.143074594663211,1003.6843731354656,1,1
23.94,11.668333,-3.7267287,1.0277374,1003.6878,9.167756723772985,1003.6840478509213,1,1
23.96,12.213207,-5.1185627,2.0929763,1003.6974,9.184427468273798,1003.6838084972344,1,1
23.98,13.259962,-6.7916235999999985,3.2055595,1003.7074,9.197767550094873,1003.6836819337268,1,1
24.0,12.480829,-7.2396793000000015,4.0624843,1003.72504,9.207598162301274,1003.6837189912497,1,1
24.02,11.567864,-8.688711999999999,2.807865,1003.73004,9.213768413615796,1003.6839184909088,1,1
24.04,11.548722,-12.973846,1.908326,1003.7075,9.222369592677447,1003.68417966224,1,1
24.06,12.361263,-17.478241,1.6053218,1003.7223,9.24138906542616,1003.6845476664444,1,1
24.08,11.548676,-17.983496,3.091923,1003.7375,9.269809747208386,1003.6850634633604,1,1
24.1,9.698866,-15.7003145,4.2234435,1003.7323,9.300899531280649,1003.6856892730467,1,1
24.12,8.852818,-14.365678,3.1960754,1003.72217,9.330583544640797,1003.6863735691028,1,1
24.14,6.300377,-13.550597,1.8136269,1003.69763,9.354509991963297,1003.6870187362492,1,1
24.16,0.23478179,-14.303712,-2.2295568,1003.69507,9.372067821813276,1003.6876177904892,1,1
24.18,-0.2766798,-11.310315,-3.5693955,1003.6974,9.378500098887264,1003.6881823307699,1,1
24.2,1.965027,-10.314103,-1.1737888,1003.6624,9.372380058395231,1003.6885883421713,1,1
24.22,3.2220883,-9.40369,0.87620616,1003.6547,9.353972631834331,1003.6888250958136,1,1
24.24,3.3511207,-8.826937,0.34121633,1003.6424,9.323670448147322,1003.6888671609872,1,1
24.26,3.2841794,-9.270225,-0.9607471,1003.67035,9.28386873676994,1003.688837667995,1,1
24.28,4.0919404,-9.260691,-2.158554,1003.6521,9.236794227569026,1003.6886793523822,1,1
24.3,5.2199545,-8.545707,-1.7513968999999998,1003.63495,9.183076046078792,1003.6883460390384,1,1
24.32,7.5333557,-8.121483,-0.82819015,1003.6547,9.125639895860406,1003.6879303976268,1,1
24.34,9.693801,-11.534338,-0.283736,1003.6527,9.073358474491792,1003.6874363074443,1,1
24.36,11.887708,-14.155943,0.54478264,1003.6974,9.032936289029012,1003.6870355986522,1,1
24.38,13.211691,-11.539103,-0.17958337,1003.6675,9.001161639727377,1003.6866112042084,1,1
24.4,13.546251000000002,-7.5876265,-0.46364993,1003.68005,8.972967040177611,1003.6862125889427,1,1
24.42,14.239303,-4.5751620000000015,-0.22219728,1003.66724,8.946841053714634,1003.6857920711735,1,1
24.44,12.986969,-3.1690270000000003,-1.069658,1003.6874,8.919421228490458,1003.6854262902167,1,1
24.46,9.68888,-5.218646,-1.4578813,1003.7024,8.886156325584999,1003.6851641915184,1,1
24.48,9.311252,-7.9308167,-0.24114154,1003.72003,8.850199883044121,1003.6850581180188,1,1
24.5,10.267184,-7.859317999999999,1.6857587,1003.68195,8.813669917003404,1003.6849532022501,1,1
24.52,9.856104,-5.166212000000002,2.092916,1003.6899,8.773197470391567,1003.6848783071488,1,1
24.54,9.335081,-4.465528,1.6242075,1003.702,8.72762409686838,1003.6848737679312,1,1
24.56,8.297838,-7.034702,0.06185168,1003.66974,8.678546861681625,1003.6848152755142,1,1
24.58,7.9297710000000015,-9.217784,0.15180331,1003.71,8.629214067852244,1003.6848542566228,1,1
24.6,7.437422,-10.21876,1.2880578,1003.6973,8.580963681456117,1003.6849335050064,0,0
24.62,6.801684,-10.070996,1.9698098,1003.69464,8.533026719598798,1003.68503847226,0,0
24.64,6.0430794,-9.446612,1.6669346,1003.6994,8.483515004889227,1003.6851829228253,0,0
24.66,5.651145,-8.931824,0.78160185,1003.705,8.431253938752205,1003.6853819008224,0,0
24.68,5.0106616,-8.760228,0.26555267,1003.6825,8.375706620656032,1003.6855473429378,0,0
24.7,4.226781,-8.426569,-0.29784077,1003.6849,8.316076381263668,1003.6856911971564,0,0
24.72,3.6293173,-7.802150200000002,-0.92278105,1003.6624,8.251436864519722,1003.685734458434,0,0
24.74,4.312839,-7.487557400000001,-0.81388897,1003.6796,8.182655353618866,1003.6857506000487,0,0
24.76,5.1779933,-7.1062330000000005,-1.1784372,1003.7153,8.110860974725808,1003.6858712406192,0,0
24.78,5.5699453000000005,-7.6877537,-0.998529,1003.6899,8.038065001167965,1003.6859923421613,0,0
24.8,6.492456,-7.797384299999999,-0.6387135,1003.692,7.9659362634744655,1003.6861209750516,0,0
24.82,7.534465299999999,-7.940382,-1.4672333,1003.68225,7.896480526403593,1003.6862206995636,0,0
24.84,8.074591,-7.964215299999997,-0.3073034,1003.66974,7.8302634519768155,1003.6862494856239,0,0
24.86,8.915849,-7.2301655,0.41706166,1003.70465,7.7674395117400445,1003.6863411628387,0,0
24.88,9.0927105,-6.5151815000000015,0.4028593,1003.6795,7.707230082848402,1003.6863975406392,0,0
24.9,9.0975,-6.0909580000000005,0.73900294,1003.6973,7.649090303155784,1003.6864866049176,0,0
24.92,8.853738,-5.9956274,1.0704119,1003.6923,7.592516941237997,1003.6865862303363,0,0
24.94,8.146339,-6.243489,1.5580567,1003.6972,7.536772799031332,1003.6867124689273,0,0
24.96,7.7209454,-6.782109700000001,1.832653,1003.6944,7.482081539371902,1003.6868516884578,0,0
24.98,7.395929,-6.8631414999999985,1.7095593999999998,1003.6898,7.428090834784112,1003.6869853167565,0,0
25.0,7.558451,-6.6009808,0.9757276,1003.7328,7.374599435622015,1003.687268323581,0,0
25.02,7.768772599999999,-6.7106122999999975,0.72480506,1003.70715,7.322176006528933,1003.6875899624464,0,0
25.04,7.7114244,-6.872675,0.58277375,1003.67474,7.270998551700117,1003.6878279026828,0,0
25.06,7.55848,-7.1586690000000015,0.35078877,1003.67224,7.221252521493272,1003.687982030226,0,0
