Timestamp,Ax,Ay,Az,P,LPFRMSAcc,LPFPValue,Value,Type
0.0,7.2683372,-5.343756,2.3000998,1010.0079,0.01935033911484053,3.636028439999999,0,0
0.02,7.655469999999997,-5.219824299999999,2.323769,1010.03033,0.05623340060473202,10.471842655199998,0,0
0.04,8.219422999999999,-5.1721572999999985,3.0339239,1010.0353,0.10976755952109647,20.110396542192,0,0
0.06,7.832164,-5.319918,2.8966174,1010.0333,0.17725453672817368,32.19074520918623,0,0
0.08,7.9468474,-5.3389835,2.8492706,1010.0383,0.2570091763342184,46.385192488589276,0,0
0.1,8.05672,-5.124487,2.4799812,1010.02075,0.3470594959343906,62.396494111710865,0,0
0.12,8.056624000000001,-5.300847,2.5273163,1010.0434,0.4461002368030249,79.95560908709895,0,0
0.14,8.027883000000001,-5.186448,1.9639165,1010.0459,0.5522866514700495,98.8191681266383,0,0
0.16,8.730417999999998,-4.948118,2.584115,1010.0308,0.6656628188350173,118.76737076871937,0,0
0.18,8.457937,-5.129246,2.394736,1010.0208,0.784599060528492,139.60211496849482,0,0
0.2,7.4875746,-5.033914,1.5425371,1010.0563,0.9058914100921333,161.14533000952983,0,0
0.22,8.844975,-5.4390697,3.4078867,1010.0261,1.0325184526022195,183.236885591754,0,0
0.24,7.965428,-5.296071,2.6077669,1010.0412,1.1612958949617291,205.733479636077,0,0
0.26,8.749253,-5.3866343,2.3899782000000003,1010.0334,1.2928282539229616,228.5069498469509,0,0
0.28,8.189953,-5.334201,2.4941294,1010.0316,1.4253617211584078,251.44307686583008,0,0
0.30000000000000004,8.376301,-4.9481077,1.72715,1010.0168,1.5578737453897742,274.4403041029948,0,0
0.32,7.7882905,-5.872818,2.4325676,1010.042,1.6902480031413882,297.40882019498264,0,0
0.34,7.812158,-5.5010257000000005,1.9354522,1010.0472,1.8213912883896168,320.2692991811612,0,0
0.36000000000000004,8.576863000000001,-4.852772,2.4136212,1010.0195,1.951800165054654,342.9519191362964,0,0
0.38,8.275703,-4.871838,2.1958358,1010.02466,2.080478051407106,365.39574399576315,0,0
0.4,8.22335,-5.219802,1.689275,1010.0146,2.2072347743395846,387.5477355232033,0,0
0.42,8.132483,-5.439062,2.8870747000000003,1010.0551,2.3324928888396532,409.36226174896586,0,0
0.44,7.941238,-5.3580294,2.0632834,1010.0172,2.4551417224981558,430.7999348997533,0,0
0.46,8.127572,-5.2817626,2.2763243,1010.0298,2.5753703570327406,451.82749041015,0,0
0.48,8.070188499999999,-5.4390583,2.508308,1010.0196,2.6932216200103616,472.41693005366,0,0
0.5,7.802467299999999,-5.5915870000000005,2.247911,1010.017,2.8081506880618847,492.5451191744723,0,0
0.52,8.132195,-5.558219,2.43728,1010.03,2.920683337813471,512.1933326525939,0,0
0.54,8.093931,-5.3723230000000015,2.3615272000000003,1010.04254,3.0303821799401547,531.3467512283129,0,0
0.56,8.141651,-5.405687,1.8786106,1010.0151,3.1370870022496424,549.9939179373961,0,0
0.5800000000000001,8.390149000000001,-5.3437204000000005,2.0017004000000003,1010.02295,3.2411675160855458,568.1266589569675,0,0
0.6,8.390149000000001,-5.3437204000000005,2.0017004000000003,1010.02295,3.3425545011043813,585.7395755696158,0,0
0.62,8.767650999999999,-5.3008184,2.304693,1010.03796,3.4419338509572595,602.8298228725008,0,0
0.64,8.643349,-5.4247489999999985,2.1673927,1010.0028,3.539037620103988,619.3965881069894,0,0
0.66,7.8402642999999985,-5.3675475,1.4903656,1010.04065,3.6320881346774883,635.4413004909982,0,0
0.68,7.7494216,-5.515311,1.3577999,1010.03046,3.721202137299466,650.9669293277408,0,0
0.7000000000000001,7.978774,-5.210249,1.5282314,1010.0436,3.8066063004401913,665.9780509823066,0,0
0.72,8.490161,-5.0005190000000015,2.0158703,1010.013,3.88926959743802,680.4804038927448,0,0
0.74,8.341935000000001,-5.1435146,1.8264894,1010.0234,3.9690295605501897,694.4810377103937,0,0
0.76,8.246286999999999,-4.9051857000000005,2.0868769,1010.01556,4.045625830445002,707.9879220319114,0,0
0.78,8.317958,-5.057715,2.1389532000000004,1010.0235,4.119458368358583,721.0099330990892,0,0
0.8,8.294008,-5.329407,1.9874473,1010.0081,4.190769814728299,733.5565754788909,0,0
0.8200000000000001,8.107517,-5.276973,1.9685025,1010.01886,4.259212077125795,745.6380529099597,0,0
0.84,8.050133,-5.2769723,1.9874376,1010.0414,4.32478281675895,757.2650984175763,0,0
0.86,8.4658985,-4.9242454,2.086853,1010.0109,4.387965030061571,768.4486407138028,0,0
0.88,8.305053,-4.9290533,1.9923177,1010.03406,4.4484918085035,779.2001261961789,0,0
0.9,8.142548,-5.1530809999999985,1.8266143,1010.0138,4.50634371349313,789.5310679941002,0,0
0.92,8.013518,-5.1244825999999986,1.8786949,1010.03174,4.561390920023777,799.4532905859649,0,0
0.94,8.13302,-5.181681,1.8171484,1010.02655,4.614005868121336,808.9786302020268,0,0
0.96,8.247753,-5.157849,2.3000593,1010.01654,4.664662216648417,818.1189567620521,0,0
0.98,8.362492999999999,-5.2913136,1.95445,1010.0243,4.71359498230699,826.8862085461467,0,0
1.0,8.429418,-5.2055154,1.7887465,1010.0067,4.760787683581335,835.2921859918068,0,0
1.02,8.477232,-4.967188,1.6703880000000002,1010.04486,4.806062830036197,843.3488172892215,0,0
1.04,8.48681,-5.024387,1.689327,1010.02716,4.849563639758087,851.0676987373758,0,0
1.06,8.14268,-5.1959834,1.8502983,1010.0193,4.890983963615222,858.4603281495105,0,0
1.08,7.908486,-5.305615,1.8692374,1010.0321,4.930146960823962,865.5381138767343,0,0
1.1,8.319564999999999,-5.25795,2.2716637000000004,1010.02716,4.967996511181472,872.3122059113533,0,0
1.12,8.348269,-4.8861585,2.1296334,1010.0498,5.004142160400747,878.7936489718616,0,0
1.14,8.544249,-4.9195247,2.172244,1010.0145,5.039049206766253,884.9930471238281,0,0
1.16,8.730678,-4.9147587,1.9828693,1010.0246,5.0729804274886865,890.9209489212599,0,0
1.18,8.668566,-4.9624248,1.9876058,1010.04486,5.105867025925738,896.5876890293539,0,0
1.2,8.415242999999998,-5.134021,2.0160131000000003,1010.0298,5.137457455821794,902.0032121883604,0,0
1.22,7.970739,-5.458147,1.845576,1010.0452,5.167317890786653,907.1773196077803,0,0
1.24,7.899058,-5.6297435999999985,1.5236381,1010.0098,5.195508406605864,912.1193578529916,0,0
1.26,7.994671,-5.5248795,1.5804524,1010.0402,5.222177522089553,916.8386578781897,0,0
1.28,8.377079,-5.4104834,2.053895,1010.03784,5.248104805321077,921.344148436093,0,0
1.3,8.1189785,-5.4247830000000015,2.10124,1010.03046,5.272880763093033,925.6444706146864,0,0
1.32,7.7796288,-5.434316,1.7840363,1010.0557,5.295859925506536,929.7481157174788,0,0
1.34,8.214616,-5.0148597000000015,1.9497427,1010.0155,5.3175094747976965,933.6630591137233,0,0
1.36,8.243303,-4.9719615,1.9686812,1010.0431,5.337918715194443,937.3972712458352,0,0
1.38,8.54301,-4.9909930000000005,1.9685512,1010.06885,5.357703376422047,940.9584387692846,0,0
1.4,8.557286,-5.0767894,2.224203,1010.04816,5.377088298641697,944.3538093894348,0,0
1.42,8.404312,-5.1625866999999985,2.2762794,1010.02783,5.3958986427347995,947.5903853435975,0,0
1.44,8.490306,-5.0243554,2.1342437000000003,1010.0385,5.414073760018331,950.6750370694592,0,0
1.46,8.495045,-4.9671555,1.9448638,1010.0462,5.431491665693206,953.6143715209801,0,0
1.48,8.399428,-5.100619,2.015878,1010.0612,5.448178784157529,956.4147760248683,0,0
1.5,8.203393,-5.2054815,2.0490131000000003,1010.0691,5.4639477566673,959.0823690108148,0,0
1.52,8.25595,-5.2102475,1.9969327,1010.0239,5.478922236724968,961.622843684758,0,0
1.54,8.303706,-5.2007136,1.8264902,1010.0236,5.493144955104524,964.0418498293892,0,0
1.56,8.294084,-5.062482,2.0584705000000003,1010.0389,5.506581485860911,966.3448730393993,0,0
1.58,8.251023,-5.129213,1.9969193,1010.044,5.519245447730492,968.5371412048224,0,0
1.6,8.164966,-5.2388434,2.2004967,1010.0264,5.531241696321121,970.623590687453,0,0
1.62,8.2461815,-5.095845,2.1294767999999995,1010.067,5.542557437857741,972.6091737238304,0,0
1.64,8.284355999999999,-5.110143,2.1342053,1010.04443,5.553314446402959,974.4984018173681,0,0
1.66,8.284335,-5.1482754,2.257298,1010.02686,5.563635940729305,976.2956262102748,0,0
1.68,8.346430999999999,-5.033877,2.115262,1010.0369,5.573457127233595,978.0051222694908,0,0
1.7,8.446744,-4.9671435,1.9826931,1010.0522,5.5828502061553165,979.6310024672437,0,0
1.72,8.260269000000001,-5.0910726,2.063172,1010.04193,5.5916701434420535,981.177109549096,0,0
1.74,8.317606,-5.03864,1.9495444,1010.03436,5.599948070935526,982.647135868244,0,0
1.76,8.360603,-5.0720053,1.9684802,1010.0297,5.60783520043158,984.0446283547174,0,0
1.78,8.217147,-5.1101364999999985,2.1483817000000003,1010.0423,5.615218060002858,985.3730443336883,0,0
1.8,8.135867999999999,-5.1864004,2.0536919,1010.0222,5.622029788745536,986.6355696531058,0,0
1.82,8.336578,-5.167333,2.1105008,1010.0448,5.6286617975715885,987.835410254592,0,0
1.84,8.460811999999999,-5.029102,2.0252776000000003,1010.0348,5.635144756103343,988.9755072131484,0,0
1.86,8.298257000000001,-5.1482654000000005,2.1246965,1010.0094,5.641358716593702,990.0586188997618,0,0
1.88,8.279096000000001,-4.9909678,1.9400507,1010.0197,5.647033830436909,991.087516278014,0,0
1.9,8.236034,-5.1005974,2.001594,1010.0222,5.65227949708439,992.064814862837,0,0
1.92,8.154736,-5.114896,2.0536687,1010.04,5.657024102805786,992.9930665588803,0,0
1.94,8.403244,-5.114895,2.1625562,1010.0222,5.661786246946795,993.874574637892,0,0
1.96,8.326725999999999,-5.1148934,2.0299892,1010.0247,5.666356453122216,994.7116156278108,0,0
1.98,8.254987,-5.2292905,2.1483452,1010.04755,5.670791393093142,995.5064344102423,0,0
2.0,8.250164999999999,-5.281721,2.1341383,1010.0298,5.675133457839192,996.2610204025224,0,0
2.02,8.374398,-5.1816225,1.9447584,1010.04,5.679403257884724,996.9773769118518,0,0
2.04,8.302658000000001,-5.229287,1.8784728,1010.02997,5.683494872535845,997.6573388586123,0,0
2.06,8.221381,-5.1911545,1.8358612,1010.0325,5.687215860904816,998.3027038148794,0,0
2.08,8.269136999999999,-5.1673207,1.8358574,1010.03284,5.690652670213555,998.9151767805032,0,0
2.1,8.245196,-5.2388177,2.0820427,1010.0297,5.6939630890978,999.4963701765184,0,0
2.12,8.211696,-5.262649,2.0678358,1010.0579,5.6971124214870725,1000.0479341686024,0,0
2.14,8.359808000000001,-5.1339507000000015,1.9968138,1010.03534,5.700194179829272,1000.5712507730003,0,0
2.16,8.26417,-5.1673160000000005,2.0252163,1010.0532,5.703087302468719,1001.0677883418635,0,0
2.18,8.331044,-5.1768480000000014,2.0820255000000003,1010.04285,5.7059532950822005,1001.5388391596808,0,0
2.2,8.345363,-5.1673145,2.0725546,1010.0303,5.708795445313236,1001.9856289213292,0,0
2.22,8.264043,-5.2245116,2.0441425,1010.03284,5.711515637676598,1002.4093823146048,0,0
2.24,8.249661,-5.2435765,2.0772793000000003,1010.0479,5.714128536082421,1002.8113094765704,0,0
2.26,8.235259,-5.272174400000001,1.9683825,1010.04535,5.716597955251781,1003.1924948627678,0,0
2.28,8.21134,-5.324606,2.067803,1010.02496,5.718990333899207,1003.5539071445056,0,0
2.3,8.177839,-5.2912393,2.1293464,1010.02747,5.721238910014229,1003.8965558629292,0,0
2.32,8.158699,-5.276939,1.9683747,1010.0403,5.723234897809763,1004.2214377494217,0,0
2.34,8.292471,-5.2626376,1.8642122,1010.04816,5.725172835117163,1004.5294795844284,0,0
2.36,8.316349,-5.30077,1.9494295,1010.01776,5.727169062253847,1004.8214231593364,0,0
2.38,8.255446000000001,-5.248368,2.0679026,1010.0154,5.729097024999603,1005.0980828187512,0,0
2.4,8.288915,-5.1816363,1.9637465,1010.01526,5.7308992121461415,1005.3602411316632,0,0
2.42,8.217227000000001,-5.1816363,2.0442324,1010.06323,5.732493869583168,1005.6088149768781,0,0
2.44,8.178994,-5.1959357000000015,2.1294522,1010.02826,5.733886553448175,1005.8443648285927,0,0
2.46,8.293719,-5.1864032999999985,2.1767972,1010.0307,5.735303660079602,1006.0675674841851,0,0
2.48,8.260271000000001,-5.2436028,2.0347657,1010.03827,5.7366795803959425,1006.2790838797237,0,0
2.5,8.245947,-5.215003500000001,2.0773770000000003,1010.01276,5.7379766509533585,1006.479421000854,0,0
2.52,8.250731,-5.1673374,2.0252988000000003,1010.0582,5.739133681952653,1006.6693224854823,0,0
2.54,8.231622999999999,-5.2054706,2.0252998,1010.0278,5.740171231361035,1006.8492099563516,0,0
2.56,8.164716,-5.2388372,2.015832,1010.03314,5.741017111823592,1007.0196206737693,0,0
2.58,8.231643,-5.2531366,2.1247241000000003,1010.05066,5.741867949184481,1007.1811073252536,0,0
2.6,8.279451,-5.200705,2.053709,1010.0353,5.742714333123352,1007.3340720241343,0,0
2.62,8.217324000000001,-5.2483705999999986,2.0489755,1010.04065,5.743496835962571,1007.4789753127786,0,0
2.64,8.226892999999999,-5.1911726,2.0679142,1010.0408,5.744182304527649,1007.6162344274986,0,0
2.66,8.255578,-5.1864057,2.0158362000000003,1010.0403,5.744801567063208,1007.7462432173262,0,0
2.68,8.308166,-5.162574,2.1105254,1010.0582,5.745465796237025,1007.8694420284356,0,0
2.7,8.246038,-5.2388387000000005,2.063182,1010.0256,5.746122368103952,1007.9860626666292,0,0
2.72,8.260388,-5.2054725,2.0347764,1010.03284,5.746746063995419,1008.0964770609372,0,0
2.74,8.198266,-5.248372,1.9874339,1010.03577,5.747258662000758,1008.2010206743288,0,0
2.76,8.341675,-5.148275,2.0679202,1010.0307,5.747843924991202,1008.2999822566936,0,0
2.78,8.303441000000001,-5.143508,2.048983,1010.0127,5.748411942593213,1008.3935904947473,0,0
2.8,8.1743965,-5.2293067,2.1152656000000003,1010.04596,5.748862429490098,1008.4822512641102,0,0
2.82,8.260444,-5.2150073,1.9495623,1010.03284,5.749269220988394,1008.5661740393684,0,0
2.84,8.23656,-5.2340735999999985,2.0773928,1010.02026,5.749669293490182,1008.6455629130452,0,0
2.86,8.260465,-5.2197742,2.0537212,1010.0557,5.750077303312918,1008.7207874153387,0,0
2.88,8.327392,-5.1625760000000005,1.935362,1010.04285,5.750495455354245,1008.7920152108703,0,0
2.9,8.274819,-5.1244435,1.9400969,1010.0282,5.750790923281393,1008.8594023562426,0,0
2.92,8.3321905,-5.176876,2.0773962,1010.0458,5.751189909572068,1008.9232166694117,0,0
2.94,8.418239,-5.138744,2.101069,1010.0325,5.751797460534394,1008.9835964165177,0,0
2.96,8.384784,-5.086312,2.063194,1010.0256,5.752457271754942,1009.0406991739608,0,0
2.98,8.322652,-5.0720124,2.0300539,1010.03033,5.753023655737506,1009.0947178414116,0,0
3.0,8.332227,-5.0624795,2.134212,1010.04785,5.753557222415122,1009.1458800117416,0,0
3.02,8.384814,-5.0005145,2.0679314,1010.01776,5.754057478440004,1009.1942256734034,0,0
3.04,8.207977,-5.2007103,2.1058078,1010.01025,5.754449932615737,1009.2398815876232,0,0
3.06,8.279679,-5.1482787000000005,2.0300580000000004,1010.03784,5.754779797703671,1009.2830958037123,0,0
3.08,8.313153,-5.110146,2.1294818,1010.03284,5.7551133792022515,1009.3239789641556,0,0
3.1,8.208008,-5.1530457,2.0774043,1010.03784,5.755290709514531,1009.362673224452,0,0
3.12,8.322329,-5.0910707,2.0110867,1010.0256,5.7554322261561,1009.399250009242,0,0
3.14,8.327108,-5.048172,2.0063522000000003,1010.04535,5.7555024895631375,1009.4338952162492,0,0
3.16,8.307986999999999,-5.095837,2.1767905,1010.04285,5.755601153199775,1009.4666999583824,0,0
3.18,8.451382,-5.052938,2.0110862000000003,1010.05536,5.75585670178815,1009.4978054046808,0,0
3.2,8.451382,-5.052938,2.0110862000000003,1010.05536,5.7562499539449625,1009.5272973735733,0,0
3.22,8.465717999999999,-4.957607,1.9211324,1010.02496,5.756652993028388,1009.555148062742,0,0
3.24,8.465717999999999,-4.957607,1.9211324,1010.035,5.757063228899468,1009.5814843986656,0,0
3.26,8.092893,-5.2245336,2.1294463,1010.03534,5.757205038973308,1009.6063890652524,0,0
3.28,8.13591,-5.1339693,2.0631645,1010.04285,5.757054529461781,1009.6299660880136,0,0
3.3,8.288863000000001,-5.091069999999998,2.0442266,1010.05286,5.7568559933329215,1009.6523211634084,0,0
3.32,8.159807,-5.181635,2.1389146,1010.0278,5.756532307370839,1009.673425831839,0,0
3.34,8.217165,-5.238834,2.2193995,1010.0227,5.756296260410067,1009.6933313038696,0,0
3.36,8.370116000000001,-5.162569,2.0678985,1010.035,5.75625196969891,1009.7121497862621,0,0
3.38,8.394015,-5.2007010000000005,2.1767898,1010.03284,5.756506969117654,1009.7299322820737,0,0
3.4,8.47527,-5.0291047,2.1389143,1010.03284,5.756969091861517,1009.7467353631567,0,0
3.42,8.441811999999999,-5.038638,2.1625862,1010.04285,5.75757458601948,1009.7626485782947,0,0
3.44,8.331875,-5.157801999999998,2.0821013,1010.07544,5.758204134661027,1009.7778355443088,0,0
3.46,8.264957,-5.162569,2.0489604,1010.0303,5.758727985792945,1009.7921636195192,0,0
3.48,8.20282,-5.234067,1.9400692,1010.0122,5.759081877040418,1009.8056160377452,0,0
3.5,8.312753,-5.205467700000002,2.1105077000000003,1010.0325,5.759514241520402,1009.8183193767537,0,0
3.52,8.312753,-5.205467700000002,2.1105077000000003,1010.04,5.760014388436506,1009.8303420973448,0,0
3.54,8.441807,-5.119669,2.1720548,1010.06256,5.760731537066943,1009.8418013577092,0,0
3.56,8.269733,-5.1721015,2.0158195,1010.0273,5.7613281564629375,1009.8525945552792,0,0
3.58,8.260172,-5.248367,2.0678976,1010.00726,5.761904560789692,1009.862688220253,0,0
3.6,8.29841,-5.2293,2.0868354,1010.0322,5.762514162263651,1009.8722172250308,0,0
3.62,8.178914,-5.2436,1.9921468,1010.0473,5.762921082284911,1009.8812673516428,0,0
3.64,8.211408,-5.23881,2.0062618000000003,1010.0322,5.763203831416353,1009.8898074010507,0,0
3.66,8.306965,-5.2245089999999985,1.897367,1010.0498,5.763480470499857,1009.897929362064,0,0
3.68,8.220888,-5.2674074,1.9920515,1010.04456,5.763687786329802,1009.9056337971119,0,0
3.7,8.364224,-5.138708599999998,2.1530159,1010.0448,5.764010180427866,1009.9129424342508,0,0
3.72,8.306847,-5.1148753,2.1624830000000004,1010.0423,5.764312793432211,1009.9198660332632,0,0
3.74,8.316367,-5.1673064,2.219292,1010.0297,5.764695024793233,1009.9263791276308,0,0
3.76,8.077318,-5.2626357000000015,2.0109727,1010.032,5.7647484729104725,1009.9325143329546,0,0
3.78,8.206333,-5.219736,1.973094,1010.0673,5.764668923959691,1009.93842062878,0,0
3.8,8.273231,-5.210202,2.039374,1010.0296,5.764604605782196,1009.9439676775079,0,0
3.82,8.373548,-5.133936,2.1671975,1010.0144,5.764701079890503,1009.9491226061248,0,0
3.84,8.32573,-5.148236,2.1813989,1010.04443,5.764878262176151,1009.9540206076683,0,0
3.86,8.273093,-5.157767,2.138784,1010.06213,5.765026446790509,1009.9587376756447,0,0
3.88,8.301753,-5.172066,2.1103756,1010.0186,5.765200681491635,1009.9631211812764,0,0
3.9,8.301694,-5.1958976,1.9304628,1010.0415,5.765347301542853,1009.9672766105999,0,0
3.92,8.301674,-5.2101965,1.916258,1010.04944,5.765478758891415,1009.9712441361522,0,0
3.94,8.234697,-5.16253,2.0677536,1010.05414,5.765492186989281,1009.9750482668396,0,0
3.96,8.258576,-5.1339297,2.048814,1010.0363,5.765403513569675,1009.9786301029548,0,0
3.98,8.320675,-5.1577616,2.1056232,1010.0289,5.765382336901885,1009.9819759849756,0,0
4.0,8.268058,-5.2197260000000005,2.1624324,1010.0211,5.765422189441612,1009.9850732527832,0,0
4.02,8.291917999999999,-5.114861,1.9730527,1010.05695,5.765362521749017,1009.9880687549077,0,0
4.039999999999999,8.368356,-5.1720586,1.8878298,1010.0438,5.765374768219953,1009.9909162130673,0,0
4.06,8.291839999999999,-5.1672910000000005,1.9493735,1010.0286,5.7653373411387765,1009.99356788873,0,0
4.079999999999999,8.296599,-5.148225,1.9683094,1010.0264,5.765251614332705,1009.9960291049464,0,0
4.1,8.205744000000001,-5.1863556,1.9351649,1010.0231,5.764994299642543,1009.9983012908173,0,0
4.119999999999999,8.239142999999999,-5.210187,2.0677228,1010.0285,5.764725214512005,1010.0004177096056,0,0
4.14,8.340836,-5.124421599999999,2.0583746,1010.013,5.764525922965005,1010.0023330734928,0,0
4.159999999999998,8.254813,-5.1768540000000005,2.058376,1010.02057,5.7642966138814495,1010.0040911419586,0,0
4.18,8.326516999999999,-5.1387220000000005,2.0678453,1010.0381,5.7641285238501165,1010.0057670031441,0,0
4.199999999999998,8.2644005,-5.114889,1.878471,1010.06396,5.763803911958555,1010.0074572888764,0,0
4.22,8.164032,-5.1863875,1.906878,1010.02057,5.763257497191873,1010.0089980311093,0,0
4.239999999999998,8.154487,-5.219754,2.053646,1010.0385,5.762598362354278,1010.0104656380342,0,0
4.26,8.37915,-5.105357,1.9826311,1010.0306,5.762076567289856,1010.0118348992163,0,0
4.2799999999999985,8.317034,-5.1005910000000005,2.0394459,1010.0101,5.761588818655762,1010.0130385327595,0,0
4.3,8.360066,-5.081525,2.0205095,1010.03577,5.761179424836437,1010.0141838966404,0,0
4.3199999999999985,8.259698,-5.1387243,2.1057293,1010.02515,5.760764463439255,1010.0152354181376,0,0
4.34,8.321856,-5.0767593,2.1057312,1010.02576,5.760387558059857,1010.0162024310272,0,0
4.3599999999999985,8.326642999999999,-5.0624595,2.072591,1010.0452,5.760024391979194,1010.017161274865,0,0
4.38,8.2788515,-5.0862927,2.086795,1010.03046,5.759623221082893,1010.0180563846905,0,0
4.4,8.321891,-5.086293,2.053656,1010.01514,5.7592501922055925,1010.0188368047474,0,0
4.42,8.221528999999999,-5.1434917,2.1246734,1010.0378,5.758822044709669,1010.0195946514124,0,0
4.44,8.307578999999999,-5.09106,2.1530812000000004,1010.0349,5.758451902955249,1010.0203193839804,0,0
4.46,8.302806,-5.0815277000000005,2.1862226,1010.0146,5.758130968894801,1010.0209391678952,0,0
4.48,8.341072,-5.0672283,2.1294124,1010.0327,5.75788034119267,1010.0215291479582,0,0
4.5,8.317186999999999,-5.114894400000002,2.1767578,1010.0171,5.757723025625952,1010.0220345094092,0,0
4.52,8.302862,-5.138728,2.1152117,1010.0323,5.7576219227761625,1010.0225180025528,0,0
4.539999999999999,8.283757000000001,-5.1530275,2.1010098,1010.01416,5.757546957378381,1010.022915128286,0,0
4.56,8.278984,-5.1673274000000005,2.1246824,1010.0171,5.757512902820995,1010.0232450941215,0,0
4.579999999999999,8.322017,-5.1387285999999985,2.1199493,1010.02716,5.7575566521196535,1010.0235507455952,0,0
4.6,8.398507,-5.086296599999999,2.1578257,1010.02924,5.757762742475207,1010.0238413005534,0,0
4.619999999999999,8.279026,-5.1244297,2.243046,1010.01666,5.75798417722156,1010.0240721822322,0,0
4.64,8.327403,-5.1387434,2.0679264,1010.04175,5.7582386801802565,1010.0243398294276,0,0
4.659999999999998,8.274842,-5.167343,2.1105375,1010.03674,5.758479898620973,1010.0246209631036,0,0
4.68,8.207979,-5.2054768,2.1910276,1010.0216,5.758670963084284,1010.0248584973524,0,0
4.699999999999998,8.265355,-5.153045,2.1531537,1010.0165,5.758841784167021,1010.0250382920242,0,0
4.72,8.451802,-5.033882,2.1247506,1010.0238,5.759178872929865,1010.0251927007448,0,0
4.739999999999998,8.375344,-5.0720153,2.1815653,1010.0163,5.759593757813066,1010.0252971225676,0,0
4.76,8.222425,-5.114915,2.2478502,1010.0414,5.759887790746821,1010.0254473600494,0,0
4.7799999999999985,8.394534,-5.0481844,2.082149,1010.02905,5.760226490248248,1010.0255930793919,0,0
4.8,8.174698,-5.2245474000000005,2.2099812,1010.0238,5.76046996016529,1010.0257153819168,0,0
4.8199999999999985,8.299008,-5.0720186,2.2289221,1010.003,5.760686960541282,1010.0257416730534,0,0
4.84,8.322944,-5.0195875,2.1484404,1010.0159,5.760829368947573,1010.0257294738783,0,0
4.8599999999999985,8.313419,-5.100619999999998,2.1673813,1010.0185,5.760982817867057,1010.0256926685817,0,0
4.88,8.308675,-5.0958543,2.2005255,1010.0159,5.761147271429135,1010.0256248938144,0,0
4.9,8.251389,-5.1339874000000005,2.1910634,1010.0306,5.761258347845197,1010.0255829184123,0,0
4.92,8.260964999999999,-5.1435213,2.2100024,1010.0232,5.761357241815956,1010.0255372504407,0,0
4.94,8.308817,-5.033892,2.0916474,1010.02783,5.7613581924327875,1010.0255051521193,0,0
4.96,8.308817,-5.033892,2.0916474,1010.04065,5.761272596879864,1010.025531311495,0,0
4.98,8.375771,-5.086325,2.2620888,1010.0454,5.7613592625851,1010.025625953198,0,0
5.0,8.356686,-5.0910926,2.1105912,1010.02295,5.7615011635872095,1010.0256999451753,0,0
5.02,8.270685,-5.1149263,2.1674073,1009.9975,5.761593161309378,1010.0256638046836,0,0
5.039999999999999,8.218161,-5.0815616,2.2005532000000003,1010.03796,5.761529715163043,1010.0256761372484,0,0
5.06,8.218196,-5.0910954,2.17215,1010.0401,5.7613263533653845,1010.0257389602084,0,0
5.079999999999999,8.270809,-5.1673613,2.195825,1010.03015,5.761183175212902,1010.0258103503193,0,0
5.1,8.371203,-5.143529,2.2479053,1010.0426,5.761265187699068,1010.02593387336,0,0
5.119999999999999,8.399465,-4.93379,2.105835,1010.01495,5.761311737951051,1010.0260034763749,0,0
5.14,8.413818,-4.9671564,2.0016794,1010.0551,5.761341781567785,1010.0261697250836,0,0
5.159999999999998,8.327791,-5.081554,2.138978,1010.022,5.761386060510173,1010.0263016114324,0,0
5.18,8.260891,-5.014823000000002,2.3094182,1010.0146,5.761335792776537,1010.0263760204092,0,0
5.199999999999998,8.432981,-4.9623914000000005,2.0348241,1010.0096,5.761322807151138,1010.0263813745073,0,0
5.22,8.447335,-4.9194922,2.2620769,1010.0243,5.761425300207115,1010.0263786124403,0,0
5.239999999999998,8.528609,-4.809862,2.314157,1010.004,5.761686494028197,1010.0262956088733,0,0
5.26,8.628993,-4.6239667,2.29522,1010.0341,5.762074717133963,1010.0262503627292,0,0
5.2799999999999985,8.08412,-5.2579193,2.266816,1010.01117,5.762264390356632,1010.0261560939308,0,0
5.3,8.394824,-4.738365,1.8359866,1010.01404,5.762083882568668,1010.026029180082,0,0
5.3199999999999985,8.538235,-4.576302,2.2857566000000005,1010.0136,5.761868481601003,1010.0258722939573,0,0
5.34,8.423528,-4.590602400000001,2.1484594,1010.0233,5.761368435236707,1010.0257244091188,0,0
5.3599999999999985,8.552599,-4.500038,2.134258,1010.03656,5.760756378806574,1010.025632746203,0,0
5.38,8.423561,-4.433307,2.3520422,1010.02124,5.759856647378753,1010.0255359389639,0,0
5.4,8.409246000000001,-5.03866,2.4514666000000003,1010.01624,5.759329232675313,1010.0254169347077,0,0
5.42,7.955181,-5.0958595,2.4041243,1010.02124,5.758391420629428,1010.0252967455816,0,0
5.44,8.514435,-4.7145348,2.5935018,1010.0387,5.75776718176273,1010.0252387981856,0,0
5.46,8.519231,-4.6287379999999985,2.5698314,1010.0359,5.757335190923872,1010.0252259761933,0,0
5.48,8.6722,-4.5286403,2.8586316000000003,1010.0383,5.757411826671113,1010.0252617131664,0,0
5.5,8.543163,-4.4714417,2.669257,1010.0057,5.757548311490438,1010.0252228681883,0,0
5.52,8.57185,-4.5286407,2.8396962,1010.02325,5.7579382113932525,1010.0251814424404,0,0
5.539999999999999,8.648344,-4.562007,2.8823075,1010.01324,5.758741554607557,1010.0251018494567,0,0
5.56,8.38547,-4.705004,3.000669,1010.0358,5.75965541610244,1010.0250700344383,0,0
5.579999999999999,8.581458,-4.538175,3.4930487,1010.0383,5.761171359902043,1010.025089550564,0,0
5.6,8.027019000000001,-4.619207,2.834968,1010.0358,5.761901375888527,1010.0251453526307,0,0
5.619999999999999,8.581437,-4.657337999999998,3.511984,1010.0353,5.763370136165503,1010.0252312160674,0,0
5.64,8.026995,-4.6287400000000005,3.0906236,1010.04224,5.764221782810549,1010.025368316622,0,0
5.6599999999999975,8.514542,-4.4476104,3.1711094,1010.0275,5.7652489279083445,1010.0254971327324,0,0
5.68,8.404627,-4.4333114999999985,2.891781,1010.0272,5.76604591473997,1010.0256170849697,0,0
5.6999999999999975,8.476337,-4.952866,3.5924745,1010.0199,5.767720491373223,1010.0257024932606,0,0
5.72,8.007932,-4.509576999999998,2.650329,1010.025,5.768316645639951,1010.0257754310504,0,0
5.7399999999999975,8.022277,-4.623975,2.6976736,1010.0297,5.768123091306813,1010.0258540073303,0,0
5.76,8.404683,-4.6287413,3.21846,1010.0374,5.768221672871811,1010.0259650029044,0,0
5.7799999999999985,8.404683,-4.6287413,3.21846,1010.0273,5.7685780308227725,1010.0260678845834,0,0
5.8,8.137034,-4.600143,3.0101483,1010.0271,5.768536644758426,1010.0261625064503,0,0
5.8199999999999985,8.395158,-4.419014,2.7639606,1009.989,5.7682718453256365,1010.0261123293088,0,0
5.84,8.361707000000001,-4.466679599999999,2.924931,1010.0401,5.767892328439058,1010.026118348401,0,0
5.8599999999999985,8.084505,-4.7669735,3.0764344,1010.0299,5.76732075289159,1010.0261372808168,0,0
5.88,8.084505,-4.7669735,3.0764344,1010.0291,5.766581531983332,1010.026164675288,0,0
5.9,8.094086,-4.6764092,3.133249,1010.02155,5.7656602516764215,1010.026172268212,0,0
5.92,8.347430000000001,-4.6192107,3.0811722,1010.0266,5.764927407415447,1010.0261805171542,0,0
5.94,8.208836999999999,-4.7097764,3.3084254,1010.0218,5.7643639481212805,1010.0261720360576,0,0
5.96,8.031998,-4.7765083,3.1805975,1010.00854,5.763631651819361,1010.0261010668307,0,0
5.98,8.031998,-4.7765083,3.1805975,1010.0366,5.76275280740408,1010.0260761545816,0,0
6.0,8.333146000000001,-4.5667800000000005,3.2137406000000004,1010.0211,5.76207980359344,1010.0260362279614,0,0
6.02,8.333167,-4.585847,3.1474607000000003,1010.02374,5.7615655237135766,1010.0259926823793,0,0
6.039999999999999,8.122862,-4.5953803,2.9391475,1010.0108,5.760706230420506,1010.0258995118463,0,0
6.06,8.146775,-4.786043,3.1427283,1009.9907,5.759904804817759,1010.0256904681207,0,0
6.079999999999999,8.275844000000001,-4.628746499999999,3.3273714,1010.0333,5.759347864163908,1010.0255331513997,0,0
6.1,8.242393,-4.700245400000001,3.3415751000000005,1010.0233,5.75903057691262,1010.0253861069998,0,0
6.119999999999999,8.304551,-4.4190187000000005,2.8918085,1010.0256,5.7584729622938475,1010.0252569485828,0,0
6.14,8.439028,-4.414268,2.9297426,1010.0258,5.757960063280938,1010.0251447791907,0,0
6.1599999999999975,8.415168,-4.495301,3.1427944,1010.0459,5.757656134229379,1010.0251203851108,0,0
6.18,8.09018,-4.743162,3.2327516,1010.0384,5.757277607451727,1010.0251466371153,0,0
6.1999999999999975,8.267072,-4.5620346,2.9297535,1010.04315,5.756765353158122,1010.025234645493,0,0
6.22,8.367488,-4.690732499999998,3.1380708,1010.038,5.756565933280924,1010.0253583649716,0,0
6.2399999999999975,8.200234,-4.5382032,2.934495,1010.02795,5.756078478656138,1010.0254770133893,0,0
6.26,8.448822999999999,-4.6526017,2.9344985,1010.01294,5.755880292851714,1010.0255367178827,0,0
6.2799999999999985,8.042599000000001,-5.0005617,3.1428177,1010.05817,5.755723498098179,1010.0257069525886,0,0
6.3,8.162113,-4.929064,3.1901636000000004,1010.05536,5.75576222866155,1010.0259641229455,0,0
6.3199999999999985,8.315106,-4.724103,3.081276,1010.0353,5.755959058288388,1010.0262249678303,0,0
6.34,8.243449,-4.7241040000000005,2.9297783,1010.0302,5.7560768216033065,1010.0264697604864,0,0
6.3599999999999985,8.018818,-4.943366,2.9439836,1010.0174,5.75597219420954,1010.0266534081394,0,0
6.38,8.429939,-4.5954084,3.1759748,1010.0347,5.756177279119963,1010.0268446469363,0,0
6.4,8.4252,-4.542978,2.9392583,1010.02966,5.756448061569651,1010.0270237608084,0,0
6.42,8.186247999999999,-4.6001773,2.8777146,1010.01465,5.756377257796108,1010.0271374802867,0,0
6.44,8.530434,-4.5096135,3.005547,1010.02216,5.756597383303393,1010.0272200438887,0,0
6.46,8.062053,-4.638312,2.8635185,1010.03973,5.756295563039258,1010.0273380329297,0,0
6.48,8.248503999999999,-4.8909407,3.4789946000000005,1010.057,5.7565088071097525,1010.0275490711276,0,0
6.5,8.841239,-4.1330585,3.1901996,1010.05695,5.757314952225001,1010.0278413878232,0,0
6.52,8.32508,-4.619249,3.2990962999999995,1010.0419,5.758243777225221,1010.0281502898594,0,0
6.539999999999999,7.426514999999997,-5.2913346,3.6683836,1010.0088,5.758763911770406,1010.0283535746547,0,0
6.56,7.579488799999999,-5.1769376,3.1428666,1010.01935,5.758656981642994,1010.0285007842313,0,0
6.579999999999999,9.405414,-4.338024,3.6683888,1010.03894,5.760669575398892,1010.0286684397896,0,0
6.6,7.522209599999999,-4.457189,2.1297112,1010.0663,5.7604140064618905,1010.028952053858,0,0
6.619999999999999,7.99545,-4.643086,3.1334083,1010.0413,5.75974138414129,1010.0292471078552,0,0
6.64,7.937131,-4.8098917000000005,3.5215418,1010.04346,5.759043720117625,1010.0295589839784,0,0
6.6599999999999975,8.066185,-5.076819,2.9155378,1010.054,5.7584103835299585,1010.0299225453787,0,0
6.68,8.352973,-4.914756,3.4978697,1010.0835,5.758535908971523,1010.0304366670688,0,0
6.6999999999999975,8.582403999999999,-4.7669926,3.1380548,1010.04895,5.7593382886362505,1010.0309575929924,0,0
6.72,8.2048,-4.614463,2.7924432999999995,1010.0285,5.7597217431898295,1010.0314090358037,0,0
6.7399999999999975,8.099644,-4.933822,3.3416343,1010.003,5.7602255577434684,1010.031705658143,0,0
6.76,8.013608,-4.7479267,2.986554,1009.9928,5.760264646118934,1010.0318276932726,0,0
6.7799999999999985,8.620643,-4.657362,3.7629964,1010.0406,5.761377820831942,1010.0319671038176,1,1
6.8,7.7841770000000015,-4.7908254,2.906069,1010.0408,5.761555346768247,1010.0321220854007,1,1
6.8199999999999985,8.090085,-4.7050276,2.754568,1010.00775,5.761247528067195,1010.0321712876207,1,1
6.84,8.243038,-4.948122,3.9334347,1010.03815,5.7618253957386685,1010.0322362860668,1,1
6.8599999999999985,8.525046000000001,-4.6287627,3.5830888999999995,1010.02277,5.763087204949281,1010.0322596400638,1,1
6.88,7.6694617,-4.8813900000000015,3.0481012,1010.0461,5.763384370284249,1010.0323301009514,1,1
6.9,8.386432000000001,-4.528665,3.5783544000000003,1010.0479,5.764058848993352,1010.0324484118283,1,1
6.92,8.529827000000001,-4.5906305,3.654105,1010.04034,5.765422483966511,1010.0325813610367,1,1
6.94,7.731599,-4.8051257000000005,2.882397,1010.02,5.765718187828419,1010.0326535420572,1,1
6.96,7.8463144,-4.9671884,2.9818194,1010.01483,5.765494952363326,1010.0326531564557,1,1
6.98,8.047067,-5.057753,3.3605719,1009.99457,5.76549519759833,1010.0325157163749,1,1
7.0,8.118763000000001,-5.262715,2.882397,1010.0224,5.765722690441336,1010.0323578577403,1,1
7.02,7.8654337,-5.32468,2.0444071,1010.0196,5.7653610226919065,1010.0321724455632,1,1
7.039999999999999,7.827195,-5.4152445999999985,2.0775483,1010.01465,5.7645344666589375,1010.0319455345593,1,1
7.06,7.158023,-5.372346,1.840828,1010.02966,5.762043067867025,1010.0317368080721,1,1
7.079999999999999,8.023166999999999,-5.2579484,2.0349386000000003,1010.0575,5.7594797614354025,1010.0316451248384,1,1
7.1,8.792715,-4.647829,3.0528355,1010.0372,5.758104079682171,1010.0315841110845,1,1
7.119999999999999,8.329075,-4.323703299999999,3.0196947999999995,1010.0119,5.756649484256943,1010.0314593365308,1,1
7.14,8.897739,-3.5372178999999995,3.2090588,1010.04224,5.755629606359174,1010.031387896124,1,1
7.1599999999999975,9.858478,-3.0653288,3.8245313,1010.03705,5.756891348373872,1010.0313451549547,1,1
7.18,11.607881,-0.8536464,2.6930082000000004,1010.0098,5.762112187541564,1010.0312298262993,1,1
7.1999999999999975,13.371624,-0.20539457,3.0291505,1010.037,5.774481522735001,1010.0311486945247,1,1
7.22,14.862917,-1.0204756,4.927646,1010.0472,5.797237514415111,1010.0311347911886,1,1
7.239999999999997,15.355231,-1.2111378000000002,4.7950826,1010.05707,5.830004474026,1010.0312158729524,1,1
7.26,15.264414000000002,-2.002386,5.0886154,1010.0219,5.871670284809466,1010.0312539796564,1,1
7.2799999999999985,14.585676,-3.0081294,4.5299554,1010.03705,5.919702235132562,1010.0313085164132,1,1
7.3,12.649851,-3.8136775,3.5830736000000005,1010.0395,5.969285344239445,1010.0313861944323,1,1
7.3199999999999985,10.508493,-4.5572605,3.0717573,1010.05225,6.016255745699492,1010.0315299404301,1,1
7.34,8.300219,-4.8861527,2.3331897,1010.032,6.056698218211492,1010.0316586466084,1,1
7.3599999999999985,5.8816304000000015,-5.3056097,0.974415,1010.05475,6.087216774739067,1010.0318555002592,1,1
7.38,5.255473599999998,-5.41524,0.92707074,1009.9993,6.1080713489684975,1010.0319122403447,1,1
7.399999999999999,4.036618700000001,-5.6774006,0.68561566,1010.0216,6.119058210470411,1010.0319252518187,1,1
7.42,3.7402658,-6.244621,0.12695542,1010.01416,6.121869158364057,1010.0318727938507,1,1
7.439999999999999,3.9266732,-6.7880080000000005,-0.5642682,1010.032,6.1186554620605484,1010.0318268999324,1,1
7.46,5.5900397,-8.213208,-0.33701718,1010.00903,6.114450182988096,1010.0317042792261,1,1
7.479999999999999,7.941698599999999,-9.161754,-1.1323976999999998,1010.0166,6.114032762057684,1010.0315415561647,1,1
7.5,10.561024,-10.186562,0.76609796,1010.0495,6.122192515992862,1010.031462424466,1,1
7.52,11.120257,-10.6632185,0.95547396,1010.02875,6.139446188355415,1010.0313827389683,1,1
7.539999999999999,12.998715,-10.810982,1.921292,1010.0338,6.167956071015975,1010.0313210310028,1,1
7.56,15.957407,-10.034032,4.5583544,1010.0392,6.2112509328428605,1010.0312948701328,1,1
7.579999999999999,14.418304999999998,-7.3981266,4.2458835,1010.02924,6.26196525295191,1010.0312643568553,1,1
7.6,12.5493965,-5.7679634,3.2516582,1010.0341,6.313724803486871,1010.0312476036388,1,1
7.619999999999999,12.13833,-5.215043,3.3936900000000003,1010.027,6.365080589081195,1010.0312175091237,1,1
7.64,11.607765,-1.7497561,3.8718643,1010.04926,6.413236031883643,1010.031255870577,1,1
7.659999999999997,10.460606,-0.41035363,4.061239700000002,1010.0316,6.456037189724808,1010.0312910056233,1,1
7.68,10.489281,0.15686677,3.1427650000000003,1010.0015,6.493375993181384,1010.0312148033298,1,1
7.699999999999997,11.101092,0.6430557,2.735606,1010.03174,6.5267933986527575,1010.0311493616913,1,1
7.72,12.6401825,0.14256738,3.469438,1009.99365,6.560069969744236,1010.0309565397577,1,1
7.739999999999997,13.223316,-0.6296148,3.9949567,1010.0344,6.594597748823566,1010.0307985587538,1,1
7.76,14.934478,-6.1921864,4.335832599999999,1010.01904,6.636156501579058,1010.0306166359272,1,1
7.7799999999999985,15.441134,-7.073999400000001,4.2932234000000005,1010.06433,6.685399408571652,1010.0305772570283,1,1
7.8,16.186777,-8.136941,3.3321385,1010.0067,6.743129851291353,1010.030456503708,1,1
7.8199999999999985,16.277586,-11.230436,3.3179348,1010.05927,6.811542942169428,1010.0304535346608,1,1
7.84,16.669529,-12.445909,3.71089,1010.0771,6.891392402161388,1010.0306188384856,1,1
7.8599999999999985,16.56915,-13.189491,4.037564,1010.02405,6.981948435242393,1010.0307412531273,1,1
7.88,14.413454000000002,-12.441142,3.919203,1010.0591,7.077232741825683,1010.0309515101932,1,1
7.899999999999999,11.970969,-10.248526,2.6551166,1010.04675,7.169163390175528,1010.0311941678996,1,1
7.92,7.396689,-9.295215,2.281098,1010.0642,7.249725577650152,1010.0315274012448,1,1
7.939999999999999,6.015323,-8.556398,1.9165485,1010.04877,7.316912423258373,1010.0318839195841,1,1
7.96,3.654095,-7.2884936,1.0217456,1010.0818,7.367016476285893,1010.032378637078,1,1
7.979999999999999,1.8674684,-6.111179,-0.44582647,1010.04663,7.398081109539994,1010.0328670743622,1,1
8.0,1.4755437,-6.573535400000001,-1.0707661,1010.00116,7.413075295520914,1010.0331845120787,1,1
8.02,2.3598268,-7.5697465,-0.59258956,1010.01624,7.416163270965334,1010.0334039998016,1,1
8.04,5.2516274,-8.994947,-0.13808489999999998,1010.0065,7.413844331691093,1010.0335010847548,1,1
8.059999999999999,10.781889,-12.693795,1.0975973999999995,1010.0416,7.419796870207263,1010.0336160251137,1,1
8.08,12.856334,-13.53271,2.7357023,1010.00867,7.4375562793584855,1010.0336277807244,1,1
8.1,15.824611,-13.251484,3.9713836,1010.0442,7.470160148727343,1010.0336762279717,1,1
8.12,17.588379,-13.170453,4.672077,1010.0416,7.518767310826213,1010.0337475615387,1,1
8.139999999999999,19.313908,-9.819564,4.960878,1010.0336,7.580848001649426,1010.0338100606567,1,1
8.16,16.097116,-5.3961997,2.7783191,1010.0462,7.644167933965988,1010.0339098886592,1,1
8.18,15.222423,-4.5048537,3.9713898,1010.0794,7.706610821117409,1010.0341618610828,1,1
8.2,13.257943,-4.9529104,5.5621519999999975,1010.04663,7.765647965560888,1010.0344293892166,1,1
8.219999999999999,10.954098,-5.0005765,4.406959,1010.10394,7.816508147209428,1010.0349160152743,1,1
8.24,9.697028,-3.0176895,3.3369849,1010.0433,7.8555273442560125,1010.035376180404,1,1
8.26,9.5345335,-1.6353884,3.2422986000000003,1010.0462,7.8829306443589084,1010.0358217480632,1,1
8.28,11.919675,-0.5438474,4.085024,1010.0462,7.904979142004536,1010.0362528133536,1,1
8.299999999999999,14.515128,0.8003212,5.5621605,1010.02124,7.92835437166853,1010.0365796565162,1,1
8.32,13.860324,-4.4905577,4.383296,1009.99115,7.95208980060581,1010.0367049083712,1,1
8.34,13.267637,-6.1302533,4.241265,1010.0463,7.976065672665121,1010.0368501232402,1,1
8.36,14.367021,-8.256138,3.9335315,1010.0562,8.00393474719888,1010.0370480946547,1,1
8.379999999999999,14.367021,-8.256138,3.9335315,1010.0487,8.035143526770735,1010.037264969056,1,1
8.4,15.064901999999998,-11.135139,4.6531634,1010.0613,8.07391301214275,1010.0375431253883,1,1
8.42,15.155738,-12.684271,4.6531653,1010.0538,8.121304031113667,1010.0378474290719,1,1
8.44,13.305972,-12.736704,5.273374,1010.0813,8.173764018435682,1010.0382727410623,1,1
8.459999999999999,12.087143,-9.87677,3.658944,1010.0713,8.224014806616673,1010.0387674448692,1,1
8.48,11.088173,-9.471613,3.0008624,1010.0663,8.269754890862389,1010.0393036823514,1,1
8.5,8.24347,-9.8624525,3.5073779000000003,1010.0463,8.308092773932422,1010.0398026885339,1,1
8.52,6.2980795,-9.109337,2.9392486,1010.0311,8.335873930669319,1010.0402122807184,1,1
8.54,3.9559605,-6.992985000000001,1.3248149,1010.03076,8.347336885950668,1010.0405401681619,1,1
8.559999999999999,3.454076,-6.8166223,0.7614204000000001,1009.99854,8.343376955000055,1010.0406786889017,1,1
8.58,1.6568595000000002,-7.093082400000001,0.051258776,1010.00604,8.32498173680511,1010.0406763865473,1,1
8.6,3.8555489,-8.432485,-0.12865046,1010.01544,8.29803136557176,1010.0405835011952,1,1
8.62,4.9979177,-8.994938000000003,-0.14285415,1009.9853,8.265734931947796,1010.0403024070938,1,1
8.639999999999999,6.6756234,-9.428694,-0.04343212,1010.0157,8.231453103889962,1010.0399654636805,1,1
8.66,12.449611,-10.177044,1.6751553,1010.0029,8.205130882607211,1010.0395343048108,1,1
8.68,13.276513,-10.672766,1.5189196000000005,1010.0537,8.187880084727997,1010.0392043293367,1,1
8.7,15.609046,-11.435414,2.612566,1010.0462,8.183743441274206,1010.038937947422,1,1
8.719999999999999,17.802965,-9.500192,2.4421265,1010.08344,8.192874489296374,1010.0388627797513,1,1
8.74,17.129004000000002,-6.578292,1.9781541,1010.0582,8.209806488464741,1010.0388659755904,1,1
8.76,14.829907,-5.19599,2.7261891,1010.0634,8.228360758695514,1010.0389571219217,1,1
8.78,13.06137,-5.0672927,3.3842702000000005,1010.0358,8.245089750755849,1010.0390262931813,1,1
8.799999999999997,12.000243,-4.1044483,2.3663723,1010.0613,8.257004698553134,1010.0391675982506,1,1
8.82,11.455336,-1.9261316,1.5331163,1010.06586,8.262160596137393,1010.0393885480563,1,1
8.84,12.181855,-0.25306997,2.6930447,1010.0454,8.262908741168937,1010.0396054205316,1,1
8.86,13.826093,0.6144437,4.245928,1010.0554,8.263911972810007,1010.0398539095368,1,1
8.879999999999997,14.318407,0.37611604,4.837728,1010.03546,8.266471063264095,1010.0400576563477,1,1
8.9,13.634885999999998,-3.084404,4.605741,1010.03546,8.269564967966431,1010.0402211354663,1,1
8.92,13.161675,-6.8023175999999985,5.2780255999999985,1010.0554,8.275217601275687,1010.0404202295283,1,1
8.94,13.849951999999998,-7.498235,6.2154365,1010.0908,8.28561298693624,1010.040777516215,1,1
8.959999999999997,13.725672,-8.618376,6.0402637000000015,1010.0856,8.300919422961192,1010.0412545756732,1,1
8.98,13.03737,-10.739492,6.1538877,1010.0503,8.321925806879726,1010.0417086689376,1,1
9.0,13.717406,-11.13515,5.9551625,1010.078,8.349280279831664,1010.0422405545382,1,1
9.02,12.938319,-10.453532,5.5811462,1010.03253,8.379859797767201,1010.0426755706584,1,1
9.04,11.274988,-9.504989,5.8415422,1010.05786,8.409680305844276,1010.043114614848,1,1
9.06,10.089616,-9.0331,5.8226066,1010.0727,8.436393656207255,1010.0436090616804,1,1
9.08,8.665275999999999,-8.966369,3.938317,1010.0907,8.456805412778532,1010.0442154822797,1,1
9.1,6.5430837,-8.456348,3.1334720000000003,1010.0352,8.467554603613136,1010.0447188597847,1,1
9.12,4.4735093,-5.7918453,1.9830191,1010.02527,8.462328748896464,1010.0450936282527,1,1
9.14,4.1437235,-5.8538112999999985,1.5048461000000002,1010.02527,8.4424781207987,1010.0453534086096,1,1
9.16,3.732680600000001,-6.058773,1.3249406,1010.03253,8.40959029946571,1010.045536786262,1,1
9.18,3.455513,-6.392434,0.8941153000000001,1010.02795,8.365473385976657,1010.0456355063247,1,1
9.2,5.74988,-8.694682,0.29285145,1010.0528,8.318050286911824,1010.0457485275498,1,1
9.22,8.713399,-9.137973,0.7615611999999999,1010.0227,8.27249341877511,1010.0457654184047,1,1
9.24,11.662578,-9.347702,1.0550979,1010.00745,8.233601236879794,1010.0456424076582,1,1
9.26,12.9913845,-9.409669,1.0266933,1010.0576,8.203004229347489,1010.045576762695,1,1
9.28,14.693035,-9.85296,-0.13323195,1010.03,8.183208677803707,1010.0454626824595,1,1
9.3,15.128017000000002,-9.781461,0.11769336,1010.07513,8.173701684479521,1010.0454686835068,1,1
9.32,15.166296,-8.389627,0.6716224000000001,1010.05975,8.171927149879238,1010.0455253987717,1,1
9.34,13.866231,-6.8738637,1.1782075,1010.08514,8.173200635112815,1010.045718124944,1,1
9.36,13.106282,-5.391465,2.347609,1010.05975,8.17475949712692,1010.04593893254,1,1
9.38,11.830115,-5.3533339999999985,1.4244039,1010.067,8.173858451554219,1010.0462098579746,1,1
9.4,12.150422,-2.517234,2.0824916,1010.08514,8.169787532799766,1010.0465893961999,1,1
9.42,12.671442,-1.5639231000000002,2.2103226,1010.06976,8.163710893286163,1010.0470081703496,1,1
9.44,12.929612,-1.4590605,3.474414,1010.0695,8.156944021253475,1010.0474591697748,1,1
9.46,12.824497,-2.4648051,5.041506,1010.08014,8.150695281776981,1010.047975323856,1,1
9.48,12.861291,-5.210306,5.4106574,1010.0595,8.146788274378581,1010.0484728864363,1,1
9.5,12.999895,-6.49251,5.813081,1010.0796,8.14653680503863,1010.0490245903408,1,1
9.52,12.483648,-6.3924117,6.1397514000000015,1010.09436,8.148808640336647,1010.0496752833858,1,1
9.54,12.483648,-6.3924117,6.1397514000000015,1010.0715,8.153301889005702,1010.0503288047399,1,1
9.56,12.254179,-10.882507,6.314921400000001,1010.06647,8.164425023339556,1010.0509643645115,1,1
9.58,12.254179,-10.882507,6.314921400000001,1010.05927,8.181366281363225,1010.0515558454136,1,1
9.6,12.354536,-11.158968,6.002449,1010.0919,8.20366534134417,1010.052223716895,1,1
9.62,10.542953,-8.7470875,5.0129547,1010.08154,8.224155141785406,1010.0529193867552,1,1
9.64,10.585961,-8.704188,4.3027935,1010.0659,8.242509069163573,1010.0535808108513,1,1
9.66,9.042066,-8.084537,3.379583,1010.0439,8.255224046259395,1010.0541303942633,1,1
9.68,6.4561634,-7.1693563,2.8919363,1010.04144,8.257674434502396,1010.0545703207472,1,1
9.7,5.758293,-6.802331,2.3664155,1010.0634,8.249277765480942,1010.0549908266336,1,1
9.72,5.1416883,-6.6927,1.8456304,1010.05396,8.230117280729463,1010.0553586746588,1,1
9.74,4.176149,-6.7070000000000025,1.1070614,1010.00336,8.200140768263518,1010.0554965099452,1,1
9.76,4.5011477,-5.300864,0.54366475,1010.04614,8.158630941281327,1010.0555846177684,1,1
9.78,4.5011477,-5.300864,0.54366475,1010.0537,8.107079712969714,1010.0556556852173,1,1
9.8,5.237209,-6.7165313,0.52945894,1010.0032,8.050080089728603,1010.0555296399478,1,1
9.82,6.953139299999999,-7.240851400000001,0.31167457,1010.0258,7.991610094041095,1010.055311239644,1,1
9.84,8.927178,-8.141731,0.5957371,1010.02826,7.936319333335322,1010.055020876673,1,1
9.86,10.0552025,-8.890080000000003,0.8655973,1010.04333,7.886847992370317,1010.0547222247957,1,1
9.88,13.893357,-10.191349,0.4821079000000001,1010.0253,7.85056932987369,1010.0543524159875,1,1
9.9,14.715474,-10.119851,0.6478111999999999,1010.0454,7.8273958381291875,1010.0539934242273,1,1
9.92,14.662876999999998,-9.023542,1.073906,1010.06067,7.814595473976103,1010.0537002547808,1,1
9.94,13.706898,-6.9214897,1.3153588,1010.0909,7.807184858454981,1010.0535751293404,1,1
9.96,12.325505,-5.3103932999999985,1.8645471,1010.0629,7.800693535282134,1010.0534981380356,1,1
9.98,12.048886,-4.3284974,1.386428,1010.0707,7.79364098673047,1010.053492035222,1,1
10.0,11.89594,-3.2750883,2.7546716,1010.0603,7.785628779170812,1010.0535111514488,1,1
10.02,12.163612,-2.6459029,3.6400056,1010.088,7.77747720554841,1010.0536522024016,1,1
10.04,12.364369,-1.5400618,4.4401199999999985,1010.05804,7.769768189104536,1010.0537926310952,1,1
10.06,11.183764,-2.2407458,3.0671437000000004,1010.0732,7.7595344939567426,1010.0539865804166,1,1
10.08,10.280391,-4.042505,2.6836576,1010.0427,7.746185518646013,1010.0541173223476,1,1
10.1,10.261278,-5.910995,2.7546744,1010.07245,7.731774448203272,1010.0542988435576,1,1
10.12,9.907576,-7.064502,2.6221116,1010.0799,7.717078286950171,1010.0545513998616,1,1
10.14,8.186852,-8.680365,1.1118369,1010.0527,7.701218964246893,1010.0547678935724,1,1
10.16,9.085465,-8.72803,2.8493642999999995,1010.07495,7.686328289707763,1010.0550318429982,1,1
10.18,9.085465,-8.72803,2.8493642999999995,1010.0678,7.672347119114818,1010.0553110340762,1,1
10.2,8.292024000000001,-9.35245,2.148673,1010.0854,7.658732740303905,1010.0556660475901,1,1
10.22,8.999442,-8.027348,2.1723456000000003,1010.1025,7.644599982084408,1010.0561483397597,1,1
10.24,7.450794,-7.436294,1.5000608999999998,1010.0771,7.626692216616676,1010.0566499190976,1,1
10.26,8.387642,-7.755653999999999,1.8693451,1010.0771,7.607472493147276,1010.0571667348917,1,1
10.28,7.2213797999999985,-6.983471400000001,1.9735029,1010.0971,7.5843818476502145,1010.0577671530818,1,1
10.3,7.852317299999997,-6.3590527,3.0529475,1010.0894,7.558614210593477,1010.0584115608436,1,1
10.32,7.4651594,-5.372376,4.1087203,1010.0593,7.529572003969824,1010.0589841579229,1,1
10.34,6.6812777999999975,-4.566828,3.4174976000000004,1010.0695,7.495062947930733,1010.0595279617334,1,1
10.36,6.8485770000000015,-3.6182833,2.5653055,1010.0593,7.454547509364192,1010.0600076461183,1,1
10.38,7.4221606,-3.6421163,2.3427892000000003,1010.07935,7.4097722132198,1010.0605011277147,1,1
10.4,7.5846796,-3.9567091,3.6021414,1010.0946,7.362826170927106,1010.0610599239932,1,1
10.42,10.17056,-3.141628,2.7546835,1010.0946,7.317691943523165,1010.0616744206587,1,1
10.44,10.605526,-3.3799558,3.3086092,1010.0643,7.2756036001375985,1010.0622268419985,1,1
10.46,8.014882,-3.1988267999999995,4.842557,1010.0615,7.23278960525053,1010.0627123448623,1,1
10.48,7.599671400000001,-2.0787017,3.6258733,1010.0539,7.186947852533843,1010.0631096107517,1,1
10.5,8.197164,-2.3074968,3.5217178,1010.0413,7.139722571496308,1010.0633821202928,1,1
10.52,9.487741,-2.4361947,4.454398,1010.13116,7.094657129607867,1010.0638669100902,1,1
10.54,8.417112,-2.7412555,4.1371975,1010.1242,7.049605842975883,1010.0645124694788,1,1
10.56,9.50216,-2.6602247,5.7753043,1009.99316,7.008183761119226,1010.0648260168643,1,1
10.58,7.8292603,-3.2655783,3.5217307,1010.0311,6.965444375913568,1010.0649816536735,1,1
10.6,8.025249,-3.3323102,3.322887,1010.04596,6.921940700780419,1010.0650506964051,1,1
10.62,8.65145,-3.2131479,3.597487,1010.0229,6.879169525813737,1010.0649599600557,1,1
10.64,8.689703999999999,-3.1035173,3.9004903,1010.06085,6.837433540972128,1010.064864989561,1,1
10.66,8.469864999999999,-3.2560477000000003,4.302918,1010.05835,6.796814197063619,1010.0647576196696,1,1
10.68,8.31218,-2.8842576,3.6448398,1010.0408,6.756248536668781,1010.0645765002023,1,1
10.7,9.287292,-3.017722,4.596458,1010.05786,6.718514958895321,1010.0643922836407,1,1
10.72,9.105675,-3.0177224,4.373942400000002,1010.04333,6.682899783616416,1010.0641536856656,1,1
10.74,8.360057000000001,-3.2846503,3.8815672,1010.04785,6.647709496938018,1010.0638841672267,1,1
10.76,8.130658,-3.5134456,4.1514316,1010.0784,6.613014978884291,1010.0636982777318,1,1
10.78,8.613465,-2.9557598,3.9857314,1010.05786,6.579213074736291,1010.0635130079744,1,1
10.8,8.474867999999999,-3.0749242000000003,3.92892,1010.0676,6.546100912626977,1010.0633640167878,1,1
10.82,8.532257000000001,-3.1130571,4.407098,1010.0427,6.514259520405381,1010.0631579777147,0,0
10.84,8.651799,-3.0224938,3.8200362,1010.045,6.483309828694665,1010.0629105528703,0,0
10.86,8.756971,-3.1416583,3.895788,1010.0629,6.453586568794278,1010.0626918902876,0,0
10.88,8.685306,-3.1178265,4.0472918,1010.05786,6.425033807076536,1010.0624812852243,0,0
10.9,8.785712,-3.2560573,4.028357,1010.0576,6.397872556444162,1010.0622776219634,0,0
10.92,8.503752,-3.074929,3.6922188,1010.0498,6.371141626112197,1010.0620527456673,0,0
10.94,8.938746,-3.2036269,3.9242074,1010.04724,6.3459410575595925,1010.0618007190873,0,0
10.96,8.671092999999999,-3.3561568,3.8437238,1010.04724,6.321740063608183,1010.0615256098126,0,0
10.98,8.197908,-3.3513910000000005,3.370285,1010.04706,6.297293490525013,1010.0612304470624,0,0
11.0,7.9724283,-4.152152,3.5927260000000003,1010.06494,6.273142308790683,1010.0609829956468,0,0
11.02,8.546003,-4.137852,4.2886834,1010.04724,6.250873821934853,1010.0607148727914,0,0
11.04,7.943745599999999,-3.9900892,3.6826792,1010.0548,6.228693532641258,1010.0604566658943,0,0
11.06,7.6282744,-4.423846,3.228176,1010.0623,6.2061895879611075,1010.0602351502832,0,0
11.08,8.383482,-4.1807513,3.8909929,1010.05194,6.1850467834836165,1010.060009556548,0,0
11.1,8.703726,-4.142618700000001,3.2613165,1010.0674,6.165249389236287,1010.05983682752,0,0
11.12,8.880577,-3.7469945,2.5700934,1010.0523,6.1462951382962565,1010.0596570715717,0,0
11.14,9.014408,-3.7565274,2.996189,1010.0674,6.128652179213103,1010.0595261137579,0,0
11.16,9.14346,-3.718395,2.9535797,1010.0397,6.112414211698897,1010.0593390254246,0,0
11.18,9.363327,-3.727928,2.683718,1010.0571,6.097738683284451,1010.0591656536816,0,0
11.2,9.114777,-3.856625,2.6316397,1010.06714,6.084105062408407,1010.0590411700563,0,0
11.22,9.004836,-4.457211,2.9867196,1010.0417,6.071942240093343,1010.0588687481123,0,0
11.24,8.861441000000003,-4.4238453,2.7499990000000003,1010.04456,6.06070069848361,1010.0586648845897,0,0
11.26,8.455155,-4.65264,2.3996527000000003,1010.0795,6.0496186095125495,1010.0585597571968,0,0
11.28,8.689363,-4.4429110000000005,2.5842946,1010.05444,6.039031357596473,1010.0584520355064,0,0
11.3,8.651124000000001,-4.509643,2.5227470000000003,1010.0644,6.0288803061692375,1010.0583782652928,0,0
11.32,8.240057,-4.7575035,2.1818695,1010.0644,6.018496408987242,1010.058334760177,0,0
11.34,8.163577,-4.8719015,2.2434165,1010.06714,6.007956858294933,1010.0583280179201,0,0
11.36,8.115777,-5.000598,2.5322150000000003,1010.0364,5.9975158708860175,1010.0582431195974,0,0
11.38,8.115775,-4.9195666,2.5653558,1010.05194,5.987132552387657,1010.0581454122087,0,0
11.4,8.302185,-4.6335735,2.57009,1010.074,5.976874814739507,1010.0581161544764,0,0
11.42,8.259165,-4.5811415,2.4138546,1010.0361,5.966555576813253,1010.0580110441879,0,0
11.44,8.412116000000001,-4.6383395,2.494339,1010.0693,5.956585994017078,1010.0579588089778,0,0
11.46,8.617644,-4.4429107000000005,2.7168558,1010.0695,5.947261162700696,1010.057954202234,0,0
11.48,8.579688,-4.4715166,2.617459,1010.05444,5.938443608320534,1010.0579374805867,0,0
11.5,8.574916,-4.433385,2.5511785,1010.0719,5.9300266593028566,1010.0579729704097,0,0
11.52,8.660962,-4.552549,2.5559134,1010.0438,5.922260606074736,1010.0579533065236,0,0
11.54,8.713549,-4.5811480000000016,2.6174617,1010.06647,5.9152505419258965,1010.05796659161,0,0
11.56,8.732672,-4.6669464000000005,2.5417113,1010.0542,5.90900868968124,1010.0579647705828,0,0
11.58,8.603631,-4.719379,2.3570712000000005,1010.0774,5.9031970252897406,1010.0580331283487,0,0
11.6,8.603631,-4.719379,2.3570712000000005,1010.074,5.897786396877098,1010.0581510100093,0,0
11.62,8.36465,-4.752745,2.2907900000000003,1010.0695,5.892328628098668,1010.058296026608,0,0
11.64,8.350319,-4.9386415,2.3002598,1010.04645,5.887016881797054,1010.0583815175792,0,0
11.66,8.235612,-4.9338746,2.3760111,1010.0693,5.881686325106862,1010.0584963639377,0,0
11.68,8.350342,-4.900509400000002,2.328668,1010.0614,5.876499920258005,1010.0586082952699,0,0
11.7,8.431602,-4.833777400000002,2.4091535,1010.0589,5.871573564110139,1010.0587082479325,0,0
11.72,8.345574000000001,-4.910043,2.323935,1010.04144,5.866779871784879,1010.0587344004124,0,0
11.74,8.5559,-4.6049833,2.2955298,1010.0694,5.862174955582796,1010.058795904902,0,0
11.76,8.661063,-4.728914,2.3760157000000004,1010.0847,5.858098558696747,1010.0589435050116,0,0
11.78,8.445981,-4.6288166,2.2860625,1010.0667,5.853981808772841,1010.0591018478502,0,0
11.8,8.699321000000001,-4.6145167,2.3902204,1010.0514,5.850331719468664,1010.0592140329304,0,0
11.82,8.517696,-4.6335835,2.167704,1010.0438,5.846696485161719,1010.0592576691482,0,0
11.84,8.560723,-4.590685,2.2576587000000004,1010.07416,5.843164428069936,1010.0593498745017,0,0
11.86,8.637210000000001,-4.457221499999998,2.2671282,1010.06647,5.839751951745777,1010.0594569796036,0,0
11.88,8.637214,-4.590685400000001,2.3286757,1010.06396,5.8366120471602905,1010.059567828545,0,0
11.9,8.436471000000001,-4.581152,2.3570830000000003,1010.05927,5.833371790495888,1010.059664702487,0,0
11.92,8.555975,-4.657418,2.347615,1010.0389,5.830335481394839,1010.0596755473732,0,0
11.94,8.51297,-4.585919400000001,2.3002722,1010.0539,5.827322139453147,1010.059664337944,0,0
11.96,8.417378,-4.6335845,2.2339911,1010.07153,5.824184665625649,1010.059697149676,0,0
11.98,8.403048,-4.6431184000000005,2.295539,1010.06195,5.820962093275808,1010.0597342523836,0,0
12.0,8.364882000000001,-4.624054,2.1393106,1010.05927,5.817516390379157,1010.0597653650273,0,0
12.02,8.450931,-4.442925,2.2008588,1010.06116,5.813893552955864,1010.059797876845,0,0
12.04,8.675597999999999,-4.447692,2.3192205,1010.0539,5.810591308501135,1010.0598053719307,0,0
12.06,8.5800085,-4.4190927,2.3286898,1010.0414,5.807390542794352,1010.0597457352492,0,0
12.08,8.623038000000001,-4.3952603,2.4281132000000003,1010.0615,5.804395701463237,1010.0596993556308,0,0
12.1,8.713865,-4.357128,2.4423177000000003,1010.0539,5.8017295923389325,1010.0596374969195,0,0
12.12,8.61828,-4.347595,2.3902402,1010.07904,5.799156481169881,1010.0596526875737,0,0
12.14,8.67565,-4.4095607,2.3097565,1010.0459,5.796795317171871,1010.05961660036,0,0
12.16,8.7425785,-4.419094,2.4233830000000003,1010.06396,5.7948148532755726,1010.0596003499367,0,0
12.18,8.632648,-4.4286275,2.309758,1010.049,5.792933074117582,1010.0595478298034,0,0
12.2,8.618319999999999,-4.414328,2.2813525,1010.0765,5.791092680421249,1010.059562450826,0,0
12.22,8.527527000000001,-4.6240573,2.3239644,1010.07416,5.789351307267302,1010.0596279211383,0,0
12.24,8.527527000000001,-4.6240573,2.3239644,1010.04395,5.787703697607966,1010.0596293301904,0,0
12.26,8.513199,-4.67649,2.3144965,1010.0564,5.786165650878012,1010.05961894964,0,0
12.28,8.408055000000001,-4.7527547,2.2624192,1010.049,5.784594371869378,1010.0595715491672,0,0
12.3,8.431975999999999,-4.7527550000000005,2.328703,1010.05865,5.783073336097102,1010.0595263485322,0,0
12.32,8.374624,-4.724156,2.2955625,1010.0665,5.781456750364081,1010.0595115143964,0,0
12.34,8.417653999999999,-4.747989,2.2955635,1010.0436,5.779861010893955,1010.0594411255023,0,0
12.36,8.455903999999999,-4.686024,2.1819391,1010.06396,5.7782425207816654,1010.0593951978236,0,0
12.38,8.666227000000001,-4.7622895,2.2671592,1010.036,5.777096928704518,1010.0592703934143,0,0
12.4,8.685358,-4.6669583,2.4044583,1010.0532,5.776380939580985,1010.0591382628224,0,0
12.42,8.546761,-4.700324500000002,2.2434897,1010.03357,5.7757559444311735,1010.058929466485,0,0
12.44,8.546761,-4.700324500000002,2.2434897,1010.0562,5.7752136015390825,1010.058735147962,0,0
12.46,8.522884,-4.8480887,2.45654,1010.05115,5.774953364023341,1010.0585361415823,0,0
12.48,8.503489,-4.8433150000000005,2.4328427,1010.06903,5.7748926517561925,1010.0583980774356,0,0
12.5,8.4270115,-4.8433150000000005,2.224529,1010.0534,5.774773717926697,1010.0582580908767,0,0
12.52,8.417452,-4.8623815000000015,2.200857,1010.0507,5.7745953519984194,1010.0581071896263,0,0
12.54,8.450911,-4.8909807,2.342889,1010.01825,5.774519759474945,1010.0578303673984,0,0
12.56,8.340975,-4.8623815000000015,2.3286858,1010.07404,5.77430721275229,1010.0576441219556,0,0
12.58,8.551286,-4.78135,2.2766073,1010.05096,5.774237616480862,1010.0574554926428,0,0
12.6,8.47003,-4.762283999999998,2.2908106,1010.07904,5.774139003716303,1010.0573665240088,0,0
12.62,8.584744,-4.6383533,2.4896555,1010.0405,5.774195652590599,1010.0572271918376,0,0
12.64,8.599084,-4.6049875999999985,2.4896555,1010.04095,5.774382888046008,1010.0570454800404,0,0
12.66,8.4270115,-4.652653,2.3712955,1010.06335,5.774366135064508,1010.056907615768,0,0
12.68,8.47003,-4.662186,2.4754524,1010.061,5.774307159658867,1010.0568005314802,0,0
12.7,8.565625,-4.6669526,2.541734,1010.06616,5.7744188823741185,1010.0567396058902,0,0
12.72,8.46525,-4.695551999999998,2.3807645,1010.03357,5.7744494263912856,1010.0566023614576,0,0
12.74,8.560846000000002,-4.6669526,2.3286858,1010.0408,5.77452400254354,1010.0564242037758,0,0
12.76,8.3744335,-4.857615,2.224529,1010.0635,5.774448178053032,1010.0562922565146,0,0
12.78,8.278837,-4.9481792,2.2339978,1010.06104,5.774170387954216,1010.0561927597913,0,0
12.8,8.360094,-4.9291134,2.2055914,1010.07367,5.773823771506939,1010.0561677625508,0,0
12.82,8.297956,-4.9577127,2.1061687,1010.071,5.773293896071192,1010.0561990710443,0,0
12.84,8.388773,-4.790883,2.3334203,1010.0585,5.7726981162969455,1010.0562350185733,0,0
12.86,8.364874,-4.7098517,2.2766073,1010.0536,5.7718959421019065,1010.056257295743,0,0
12.88,8.383992,-4.671719,2.3949676,1010.04315,5.770968502563722,1010.0562297935857,0,0
12.9,8.570405000000001,-4.6049875999999985,2.5133276,1010.0607,5.770259174610697,1010.0562215854223,0,0
12.92,8.551286,-4.5859213,2.508593,1010.0581,5.769690615875338,1010.0562210949817,0,0
12.94,8.603864,-4.557322,2.461249,1010.0632,5.769290461007151,1010.0562457856863,0,0
12.96,8.680341,-4.533489,2.3476232999999995,1010.06335,5.769098291498834,1010.0562931775647,0,0
12.98,8.680341,-4.533489,2.3476232999999995,1010.06586,5.769090589664727,1010.056369493589,0,0
13.0,8.542269000000001,-4.7384644,2.1725001,1010.07605,5.769114540321866,1010.0565077762512,0,0
13.02,8.437135000000001,-4.757531,2.2766588,1010.0811,5.769047579875844,1010.0567184948172,0,0
13.04,8.418047999999999,-4.8099637,2.3524125,1010.05817,5.768955876452299,1010.0569099111605,0,0
13.06,8.408509,-4.695567,2.2387888,1010.05536,5.7686574827477575,1010.0570734669614,0,0
13.08,8.528015,-4.752766,2.290868,1010.07825,5.7684697847189605,1010.0572942203861,0,0
13.1,8.5949545,-4.605003400000001,2.314542,1010.08325,5.7683673562518,1010.0575827189183,0,0
13.12,8.661893,-4.581171,2.380826,1010.05566,5.768469598036697,1010.0578307144336,0,0
13.14,8.551978,-4.595471400000001,2.252999,1010.07806,5.768508384459222,1010.0581226686992,0,0
13.16,8.547232000000001,-4.7241693,2.385565,1010.0548,5.768670903844392,1010.0583686778804,0,0
13.18,8.418199000000001,-4.728936,2.290879,1010.08527,5.768673022184948,1010.0586828963527,0,0
13.2,8.365642999999999,-4.833801,2.3713658,1010.0626,5.7685852753732245,1010.0589746413684,0,0
13.22,8.341754,-4.7670693,2.3618982,1010.0732,5.768304827365163,1010.0592836385547,0,0
13.24,8.384803999999999,-4.900534,2.395042,1010.0528,5.768081596021188,1010.0595333273703,0,0
13.26,8.437405,-4.7813706,2.3619032000000004,1010.0748,5.767865366623227,1010.0598089124287,0,0
13.28,8.470874,-4.748005,2.3903103,1010.03705,5.767695935145143,1010.0599704873019,0,0
13.3,8.427877,-4.6908064000000005,2.305093,1010.0473,5.767394548407115,1010.0600676411057,0,0
13.32,8.418338,-4.757539,2.328767,1010.0621,5.767038291390302,1010.0601608026984,0,0
13.34,8.442260000000001,-4.7051077,2.399785,1010.0671,5.7666602093146935,1010.060268101392,0,0
13.36,8.442292,-4.7432404,2.3855848,1010.0518,5.766294745262027,1010.0603324253528,0,0
13.38,8.451861,-4.7003417,2.43293,1010.05206,5.765940149314003,1010.0603594812732,0,0
13.4,8.4614315,-4.700342,2.3571804,1010.0573,5.765575478122575,1010.060372373752,0,0
13.42,8.466255,-4.6431445999999985,2.3713875,1010.0596,5.765162954028982,1010.0603809850003,0,0
13.44,8.542743,-4.6574445,2.4282014,1010.07214,5.7648872506584725,1010.0604309263541,0,0
13.46,8.595353,-4.757543,2.3713915,1010.0467,5.7648956472379815,1010.0604256231987,0,0
13.48,8.6240425,-4.8290415,2.295642,1010.04956,5.7652398020927365,1010.0603818210874,0,0
13.5,8.561927,-4.8385754,2.2198935,1010.04175,5.765744037222331,1010.060276042986,0,0
13.52,8.452013,-4.767077400000002,2.0257847,1010.0642,5.766036452259966,1010.0601967037007,0,0
13.54,8.369993,-4.795658,1.9783711,1010.02875,5.766004301634284,1010.0600133913748,0,0
13.56,8.379545,-5.157916,2.5086236,1010.0667,5.766324029619036,1010.0598754883948,0,0
13.58,8.3508625,-5.091183999999998,2.5228264,1010.05896,5.76684143561487,1010.0597503415636,0,0
13.6,8.303058,-5.1007175,2.3618562,1010.0366,5.767378271636527,1010.0595564205936,0,0
13.62,8.197892,-4.9577203,2.1630101,1010.0537,5.767503786825329,1010.0593639889107,0,0
13.64,8.212228,-4.9672527,2.2008853,1010.0592,5.767317732156353,1010.0591933659152,0,0
13.66,8.288698,-4.8766885,2.2576973,1010.0717,5.766922755711657,1010.0590876273192,0,0
13.68,8.494223,-4.95772,2.3997285,1010.0434,5.7668545691824695,1010.0589377212376,0,0
13.7,8.5850315,-4.781357,2.385525,1010.0437,5.767051279496608,1010.0587504084274,0,0
13.72,8.623263,-4.633593599999998,2.2387576,1010.0534,5.767335729704027,1010.0585656373579,0,0
13.74,8.561119,-4.752757,2.215085,1010.05646,5.767691007767062,1010.0583947933465,0,0
13.76,8.541993,-4.852855,2.3050385,1010.0509,5.768215072521228,1010.0582168543216,0,0
13.78,8.412931,-4.8814545,2.2008808,1010.05566,5.768639922821298,1010.058050422724,0,0
13.8,8.455942,-4.8766875,2.257693,1010.05835,5.769072509452196,1010.0579044422426,0,0
13.82,8.374675,-4.9434190000000005,2.2387543,1010.04834,5.769427476428229,1010.0577410218973,0,0
13.84,8.317314,-4.9815516,2.2340198,1010.0657,5.769649983785926,1010.0576252760009,0,0
13.86,8.341209,-4.8814535,2.2955666,1010.02527,5.769722197309813,1010.0574065239334,0,0
13.88,8.494149,-4.9577184,2.1582675,1010.0628,5.769943327722281,1010.0572326511203,0,0
13.9,8.580183,-4.9148190000000005,2.1961424,1010.0829,5.770419795990405,1010.0571714195587,0,0
13.92,8.642311999999999,-4.838554,2.2387516,1010.0578,5.771172952356935,1010.0571195782406,0,0
13.94,8.565828,-4.786122,2.0493748,1010.0478,5.771896683890889,1010.0570402207704,0,0
13.96,8.570605,-4.786122,2.1014526,1010.0804,5.772622685061902,1010.0570541957144,0,0
13.98,8.274247,-4.9195848,2.0777798,1010.0577,5.772951373419409,1010.0570688688707,0,0
14.0,8.245562,-4.9243510000000015,2.262421,1010.05237,5.772967287141608,1010.0570649181436,0,0
14.02,7.963546000000001,-4.8004203,2.106185,1010.02997,5.772014817707598,1010.0569638855756,0,0
14.04,8.025786,-5.0768833,2.068319,1010.05237,5.770595269529765,1010.0568580752107,0,0
14.06,8.021005,-5.176981400000002,2.1203973,1010.0375,5.7688926044725655,1010.0566948921016,0,0
14.08,8.32691,-5.2341795,2.305039,1010.05505,5.767616406550549,1010.0565447818947,0,0
14.1,8.570675999999999,-5.2341795,2.404461,1010.06,5.767188360153189,1010.0564245833008,0,0
14.12,8.570675999999999,-5.2341795,2.404461,1010.0394,5.767511281410044,1010.0562570873236,0,0
14.14,8.427278,-4.6049940000000005,1.6516905,1010.0726,5.767286900758222,1010.0561679223638,0,0
14.16,8.460732,-4.924353,2.144068,1010.045,5.767155681425482,1010.0560489316847,0,0
14.18,8.460732,-4.924353,2.144068,1010.0596,5.767107251823872,1010.0559565753666,0,0
14.2,8.575446000000001,-5.1436142999999985,2.873166,1010.05176,5.767927871358968,1010.0558598616527,0,0
14.22,8.479847,-4.9005203,2.6317112000000003,1010.06213,5.768967017952878,1010.0557969779128,0,0
14.24,8.475063,-4.6383595,2.1109264,1010.02655,5.769671327464103,1010.0556361247199,0,0
14.26,8.475063,-4.6383595,2.1109264,1010.04456,5.770077239414826,1010.0554541207899,0,0
14.28,8.608894,-4.7527566,2.4091938,1010.04675,5.770707051037701,1010.0552619672824,0,0
14.3,8.632791000000001,-4.9720182,2.3192396,1010.0465,5.7717488201074625,1010.0550606373607,0,0
14.32,8.255182000000001,-5.148381,2.1724727,1010.0641,5.772610430527202,1010.0549152839476,0,0
14.34,8.350778,-5.081649,2.305036,1010.04175,5.773465369355803,1010.0547394546496,0,0
14.36,8.288637,-5.100715599999999,2.163004,1010.0412,5.774158207888317,1010.054535349845,0,0
14.38,8.36989,-5.100715599999999,2.1677377,1010.0464,5.77484805704705,1010.0543257155805,0,0
14.4,8.36989,-5.100715599999999,2.1677377,1010.0716,5.775532781338134,1010.0542026701677,0,0
14.42,8.365105999999999,-5.072116,2.2766285,1010.04083,5.776222202256677,1010.0540458056288,0,0
14.44,8.307746,-5.033983,2.1724715,1010.069,5.776725677050557,1010.0539610352215,0,0
14.46,8.37466,-5.0625825,2.2245498,1010.0612,5.777232940549033,1010.0539121923636,0,0
14.48,8.398558,-5.0864153,2.1914086,1010.05365,5.777793064249868,1010.0538680909214,0,0
14.5,8.193024000000001,-5.196046,2.2150805,1010.05835,5.778171609953564,1010.0538452577596,0,0
14.52,8.293395,-5.0864150000000015,2.3381746,1010.0531,5.778501656165638,1010.0538223994504,0,0
14.54,8.132173,-5.2103767,2.2436044,1010.0684,5.7785993321377305,1010.0538546812096,0,0
14.56,8.218257000000001,-5.2199116,2.3051565,1010.0531,5.77867778136321,1010.0538804885202,0,0
14.58,8.218306,-5.2008467000000005,2.1962695,1010.0635,5.778667371953497,1010.053937922101,0,0
14.6,8.194453999999999,-5.167482,2.0731795,1010.0677,5.778446428277105,1010.0540382138936,0,0
14.62,8.194479,-5.172249,2.0921192,1010.04285,5.778053736188973,1010.0540865541514,0,0
14.64,8.266248,-5.138885,2.1536732000000005,1010.0451,5.777625556104808,1010.054096916008,0,0
14.66,8.151581,-5.2056174,2.111068,1010.06177,5.777023827952582,1010.0541336948472,0,0
14.68,8.213742,-5.181785,2.1584141,1010.05286,5.776372690773668,1010.0541616073276,0,0
14.7,8.194647999999999,-5.1770196,2.1631508,1010.0525,5.775644463271685,1010.0541802890094,0,0
14.72,8.223398,-5.124589,2.182095,1010.04205,5.774852227951348,1010.0541531271028,0,0
14.74,8.280805,-5.0483255,2.1773648,1010.0346,5.774022082360996,1010.0540587355846,0,0
14.76,8.342966,-5.0435596,2.1726327000000003,1010.0747,5.773262041962839,1010.054049639791,0,0
14.78,8.343039,-4.967296,2.13003,1010.08466,5.772468067209048,1010.0541518000445,0,0
14.8,8.438659,-5.029262,2.1915793,1010.06714,5.771905669932728,1010.0542888263644,0,0
14.82,8.362229,-5.014963,2.300475,1010.09,5.771452788244513,1010.0545384630457,0,0
14.84,8.37664,-4.9911327000000005,2.167918,1010.0291,5.771037060619483,1010.0546674635502,0,0
14.86,8.36713,-5.0054336,2.182126,1010.0693,5.770660395463632,1010.0548341255272,0,0
14.88,8.391052,-5.048333,2.224738,1010.07214,5.770425424114772,1010.0550436891983,0,0
14.9,8.29075,-5.0960007,1.988024,1010.07214,5.770088945596969,1010.0552904063768,0,0
14.92,8.395953,-5.067402,1.9974972,1010.0566,5.769820604440316,1010.055513120213,0,0
14.94,8.367322,-5.057871,2.011705,1010.0592,5.7695594215257096,1010.0557231829256,0,0
14.96,8.367322,-5.057871,2.011705,1010.09424,5.769305503892273,1010.0560474548804,0,0
14.98,8.376978999999999,-4.991141000000002,2.1632147,1010.02386,5.769071791258898,1010.0562181067418,0,0
15.0,8.391364999999999,-4.9863753,2.2957822999999995,1010.0561,5.768938267879771,1010.0563684695422,0,0
15.02,8.404769,-4.943454,2.1773365,1010.0613,5.768817866009027,1010.0565190836224,0,0
15.04,8.404769,-4.943454,2.1773365,1010.0838,5.768709491749827,1010.0567503775225,0,0
15.06,8.380877,-4.9386873,2.106321,1010.0461,5.768533729317799,1010.0569164074536,0,0
15.08,8.414347,-4.910088,2.2057447,1010.07416,5.768372971030762,1010.0571251884337,0,0
15.1,8.443029,-4.9053216,2.1726043,1010.06866,5.76825636699391,1010.0573511926297,0,0
15.12,8.4526005,-4.957754,2.1394646,1010.06104,5.768234803041702,1010.0575641696436,0,0
15.14,8.486067,-4.886256,2.2104812000000003,1010.0785,5.768315104451113,1010.0578277251224,0,0
15.16,8.423933,-4.895789,2.1299965,1010.0609,5.768349402707987,1010.0580716629328,0,0
15.18,8.380925999999999,-4.857657,2.073185,1010.09644,5.768203515882237,1010.0584253323956,0,0
15.2,8.385710000000001,-4.9100895,2.15367,1010.0732,5.767996542237687,1010.0587910235364,0,0
15.22,8.452639,-4.967288,2.2057495,1010.0832,5.767935739264543,1010.0592020205437,0,0
15.24,8.428744,-4.929156,2.191547,1010.0878,5.767916929430739,1010.0596681302252,0,0
15.26,8.514787,-4.829058,2.1962817,1010.0705,5.767987345833397,1010.0601189794713,0,0
15.28,8.538689999999999,-4.7909255,2.1347349,1010.0653,5.768112949032912,1010.0605360015387,0,0
15.3,8.443106,-4.848125,2.040048,1010.0898,5.7681341526395045,1010.061009832632,0,0
15.32,8.428775,-4.8814907,2.1252677,1010.0701,5.768108720922692,1010.0614612343887,0,0
15.34,8.428778999999999,-4.895791,2.1678777,1010.0596,5.768075797372942,1010.0618533925368,0,0
15.36,8.438348,-4.852892,2.0826595,1010.0546,5.767971848157675,1010.0621737912636,0,0
15.38,8.314081,-4.93869,2.1110668,1010.0749,5.7676879907312895,1010.0625027099304,0,0
15.4,8.447924,-4.800460299999999,2.3051782000000003,1010.0546,5.767429580061156,1010.062764892708,0,0
15.42,8.357115,-4.8338265,2.201022,1010.062,5.767019647393613,1010.0629938037966,0,0
15.44,8.35234,-4.824293,2.1868188,1010.0799,5.76645271316867,1010.0632569319412,0,0
15.46,8.467065,-4.8099940000000005,2.2388983,1010.0822,5.7659605050156975,1010.0635576270143,0,0
15.48,8.486193,-4.7909274,2.2199614,1010.0596,5.765542002242812,1010.0638090737241,0,0
15.5,8.553118,-4.748029,2.2010248,1010.07654,5.76525734126983,1010.0640770833713,0,0
15.52,8.467089,-4.748029,2.1489468,1010.0465,5.764915990940717,1010.0642506191953,0,0
15.54,8.453044,-4.8338345999999985,2.2247243,1010.0665,5.7646212978566185,1010.0644120532204,0,0
15.56,8.529539999999999,-4.8147683,2.3004766,1010.0966,5.764520029564728,1010.0646705729332,0,0
15.58,8.625146,-4.767103700000002,2.3241496,1010.0816,5.764723152654253,1010.0649599468892,0,0
15.6,8.653853,-4.6479397,2.054291,1010.08905,5.765008165426023,1010.0653023619077,0,0
15.62,8.582175,-4.6241080000000006,2.0022142,1010.0585,5.765191094670577,1010.0655804313153,0,0
15.64,8.548736,-4.724206,2.153717,1010.05347,5.765386550119687,1010.0657825358908,0,0
15.66,8.534415,-4.7814054000000015,2.3762357000000005,1010.0712,5.765727738230916,1010.0659806183647,0,0
15.68,8.548764,-4.714674,2.404643,1010.0681,5.766170359609442,1010.0661632738124,0,0
15.7,8.496205,-4.7289734,2.1395183,1010.0585,5.766496851912074,1010.0662970803804,0,0
15.72,8.462775,-4.8052397,2.1063797,1010.086,5.766721592224604,1010.0664862423746,0,0
15.74,8.524932000000002,-4.8433723,2.0258968,1010.07806,5.766969197697719,1010.06669505144,0,0
15.76,8.443685,-4.8862714999999985,2.0211632,1010.09564,5.767134098439072,1010.0669837569452,0,0
15.78,8.400686,-4.852906,2.0211650000000003,1010.10345,5.767115589422373,1010.0673701356044,0,0
15.8,8.27644,-4.881506,2.106387,1010.0755,5.7667833185435775,1010.0677408072994,0,0
15.82,8.2716875,-5.019737200000002,2.3194377,1010.08307,5.766409559003304,1010.0681235179027,0,0
15.84,8.214339,-4.9959044000000015,2.3478448,1010.10315,5.765890359030236,1010.0685877763277,0,0
15.86,8.20001,-5.000671400000001,2.2342203,1010.10297,5.765170018254081,1010.069121771077,0,0
15.88,8.376882,-4.9005737,2.0306425,1010.0731,5.764387278979945,1010.0696079304615,0,0
15.9,8.496386,-4.7623440000000015,1.9454241,1010.1129,5.763588024923638,1010.0701933523442,0,0
15.92,8.558552,-4.7337456,2.0022395,1010.0678,5.7628827702894965,1010.0707020150513,0,0
15.94,8.596801,-4.7003794,2.0827253,1010.0797,5.762332758855492,1010.0711838621652,0,0
15.96,8.501233000000001,-4.667014599999999,2.2957761000000003,1010.0854,5.761816460880588,1010.0716608003708,0,0
15.98,8.482122,-4.671781,2.2768393,1010.0699,5.7612935426313125,1010.0720758840882,0,0
16.0,8.367436,-4.876744,2.37153,1010.0674,5.760815162422753,1010.0724258188782,0,0
16.02,8.377013999999999,-4.957776,2.314719,1010.0599,5.760449759292707,1010.0726899283108,0,0
16.04,8.424874,-4.943478,2.0401292,1010.1024,5.760130040634452,1010.0730302516632,0,0
16.06,8.424884,-4.9625444000000005,2.0543332,1010.0871,5.75987756771878,1010.0733816124716,0,0
16.08,8.477484,-4.910113,2.0780072,1010.0746,5.759734173897781,1010.073696461077,0,0
16.099999999999998,8.467943,-4.8147817,2.087478,1010.0867,5.7595785050294594,1010.0740214740448,0,0
16.12,8.348467999999999,-5.0149775000000005,2.2531838,1010.0892,5.759483157915351,1010.0743632981964,0,0
16.14,8.334149,-4.981612,2.2531855,1010.08936,5.759381859398424,1010.0747193221436,0,0
16.16,8.190764999999999,-5.1389093,2.1821706,1010.0717,5.759161450891392,1010.0750230353433,0,0
16.18,8.071300500000001,-5.1579760000000014,2.3005333,1010.0738,5.7587087265109975,1010.0752869933997,0,0
16.2,8.071300500000001,-5.1579760000000014,2.3005333,1010.0412,5.758052357632662,1010.0753975135616,0,0
16.22,8.080891000000001,-5.005447,1.4956874,1010.0716,5.756743378625075,1010.075481498128,0,0
16.24,9.366678,-4.566924,1.7229407,1010.0988,5.7568155999468384,1010.0756396534977,0,0
16.259999999999998,9.09903,-4.6241236,1.585645,1010.1017,5.757623391952484,1010.0758732168297,0,0
16.28,8.11919,-5.21041,2.291073,1010.08124,5.7582188490660675,1010.0760989138092,0,0
16.3,8.152667999999998,-5.2390103,2.584608,1010.1039,5.758861595907363,1010.0763984235706,0,0
16.32,8.100111,-5.100781,1.4814935,1010.1038,5.758830241102482,1010.0767617160707,0,0
16.34,8.205288000000001,-4.891052200000002,2.2437344,1010.0883,5.758465468582406,1010.0771242591464,0,0
16.36,8.363050999999999,-4.9625515999999985,2.4331136000000004,1010.08636,5.75824789900077,1010.077477850875,0,0
16.38,8.434768,-4.9577856,2.1348479,1010.0883,5.758139911905317,1010.0778292442633,0,0
16.4,8.549494000000001,-4.7957230000000015,1.5383136999999998,1010.0757,5.757939055938079,1010.0781320701816,0,0
16.419999999999998,8.520826,-4.78619,1.4294233,1010.08026,5.757561980344745,1010.0784073077106,0,0
16.44,8.578214,-5.2580800000000005,2.4473233,1010.0706,5.758023688007192,1010.0786224012833,0,0
16.46,8.544775,-5.248547599999998,2.24848,1010.0727,5.759063046789692,1010.0787911373196,0,0
16.48,8.860272,-5.005453599999999,1.5904006000000002,1010.08026,5.760656779724845,1010.0789455203868,0,0
16.5,8.860272,-5.005453599999999,1.5904006000000002,1010.0627,5.762734620222714,1010.0790234493917,0,0
16.52,8.616532000000001,-5.062653,1.5099185,1010.0899,5.764832118698237,1010.0791314630425,0,0
16.54,8.343722999999999,-5.2199407,2.3431408,1010.0623,5.766960079522313,1010.0791663106372,0,0
16.56,8.429765,-5.067411,1.7229341,1010.1078,5.768833541190842,1010.0793001832536,0,0
16.58,8.276816,-5.281905999999998,1.528824,1010.0721,5.770374541377167,1010.0793925524382,0,0
16.599999999999998,7.985255199999999,-4.843383,1.590372,1010.08484,5.770653640785887,1010.0794937806608,0,0
16.62,7.8609834,-4.5192575,0.85653937,1010.0648,5.769056150913718,1010.0795303283078,0,0
16.64,8.434567,-5.300973,1.6519202000000002,1010.0769,5.767864457030642,1010.0795531526268,0,0
16.66,8.979466,-4.762352,1.9454535,1010.0771,5.7675565336873875,1010.0795644888457,0,0
16.68,8.864759,-4.4906583,1.405732,1010.07404,5.767381175300777,1010.0795546173688,0,0
16.7,9.189792,-4.681321,1.8839074,1010.04926,5.768254428981468,1010.0794368343088,0,0
16.72,9.189792,-4.681321,1.8839074,1010.0746,5.770051092571576,1010.079315348594,0,0
16.74,8.17648,-5.172276,1.988065,1010.0765,5.771395877012037,1010.0791978685612,0,0
16.759999999999998,8.052208,-5.2866735,2.1869102,1010.0765,5.772337579301107,1010.0790843508777,0,0
16.78,8.1860485,-5.15321,1.9028462,1010.06647,5.772879523993441,1010.0789386349893,0,0
16.8,8.372466000000001,-4.9625483,1.9596597,1010.0894,5.773210996730782,1010.0788475413443,0,0
16.82,8.133483,-4.6241226,1.9928012,1010.07684,5.772602770681895,1010.0787598238504,0,0
16.84,8.621027,-4.605057,1.9785985,1010.06104,5.772010668889107,1010.0786185253073,0,0
16.86,8.831342,-4.5001926,1.9833331000000003,1010.0864,5.7717179785837125,1010.0785216872237,0,0
16.88,8.826566999999997,-4.414395,1.8839111,1010.07605,5.771563685237267,1010.0784272230186,0,0
16.9,8.429849,-5.2866745,1.7702858,1010.11163,5.77165608413969,1010.0784632844444,0,0
16.919999999999998,8.334257000000001,-5.36294,2.2247891,1010.07855,5.772071308139893,1010.078495460496,0,0
16.94,8.501555,-5.5869684,1.7040051,1010.1163,5.7730975707166605,1010.0786599875972,0,0
16.96,8.625836,-4.953016000000001,1.5619733,1010.0836,5.774148465577941,1010.0788231477887,0,0
16.98,9.12772,-4.3381300000000005,1.3347223999999998,1010.0785,5.775477779204419,1010.078966152802,0,0
17.0,8.750117999999999,-4.64319,1.3394572,1010.08344,5.7766367190694226,1010.0791086178816,0,0
17.02,8.15265,-4.681323,1.7844919,1010.08093,5.776753565476067,1010.0792410570014,0,0
17.04,8.353927,-5.3295875,1.9407752,1010.063,5.7770477270255185,1010.0792996124023,0,0
17.06,8.401736999999999,-5.048361,2.229575,1010.0859,5.777403321045834,1010.0793751133502,0,0
17.08,8.927541,-4.280946,1.6898552,1010.0986,5.7777950541234375,1010.0795110355797,0,0
17.099999999999998,8.339663,-4.738536,2.4000194,1010.1031,5.777892029848554,1010.0797160567334,0,0
17.12,8.937151,-4.2714143,2.7266946,1010.088,5.778531154889718,1010.0799270356207,0,0
17.14,8.550013,-4.3858120000000005,2.2437873,1010.0855,5.778802923758255,1010.0801335192372,0,0
17.16,8.167666,-4.600308,1.9597267,1010.1006,5.778144268179273,1010.0803896474913,0,0
17.18,8.354092,-4.609841,1.8366333,1010.0653,5.776956790590411,1010.0805616396859,0,0
17.2,8.578768,-4.5717096,1.9171206000000005,1010.07007,5.775704162955058,1010.0806758420862,0,0
17.22,8.698286999999999,-4.9053693,2.3668914,1010.0776,5.775135630943812,1010.0807656782956,0,0
17.24,9.023339,-5.0245333,2.4947226,1010.06494,5.775926396209647,1010.080788085128,0,0
17.259999999999998,8.1630125,-4.4859138,1.4436883,1010.06494,5.775422577796223,1010.080750830699,0,0
17.28,7.804553,-4.700409,2.3668993,1010.08777,5.773750715605044,1010.080743181695,0,0
17.3,7.890614999999999,-4.752842,2.9208272,1010.09515,5.771573089122058,1010.0807882875807,0,0
17.32,8.067480999999999,-5.0245357,3.058126,1010.10004,5.769622846823098,1010.0808974493063,0,0
17.34,8.13919,-5.1913657,2.9918456,1010.05945,5.768135603557701,1010.0809166937894,0,0
17.36,8.889657000000003,-4.881541,1.5478556,1010.09265,5.7673795458037365,1010.0809759381168,0,0
17.38,8.411703,-4.910141,1.7182965,1010.07965,5.766505607166968,1010.0810235130276,0,0
17.4,8.167957000000001,-5.744289,2.352709,1010.0668,5.766296960211147,1010.0810143455716,0,0
17.419999999999998,7.780806,-5.872986,2.3953197,1010.0843,5.766218455627983,1010.0810180735637,0,0
17.44,8.383087,-5.13417,3.04867,1010.0895,5.7667827250742985,1010.0810519025526,0,0
17.46,8.784628,-4.995941,2.8024845000000003,1010.07965,5.76831829721966,1010.081076746998,0,0
17.48,7.972086999999997,-5.267636,2.1586077,1010.1045,5.769269800486756,1010.0811830232608,0,0
17.5,7.040037599999999,-5.534563,2.2343595,1010.0843,5.768524581750333,1010.0812881500827,0,0
17.52,7.933899,-5.52503,3.9624202,1010.107,5.76881644930428,1010.0814736028025,0,0
17.54,7.866622,-5.239029,2.717239,1010.08405,5.768746928979317,1010.0816467438552,0,0
17.56,8.526249,-4.8338714000000005,2.3337538,1010.0691,5.7688589204370775,1010.0817545630116,0,0
17.58,8.430659,-5.0912657,2.461583,1010.06116,5.769289832273201,1010.0817756915916,0,0
17.599999999999994,8.454563,-5.177064,2.759851,1010.04865,5.770289950592798,1010.0816751083148,0,0
17.62,8.315954,-5.0722,2.81193,1010.07404,5.771473095217261,1010.0815587465421,0,0
17.64,7.909686,-5.2247295,2.892416,1010.0836,5.772340748891,1010.0814632777916,0,0
17.66,8.210828999999999,-5.505957,3.2759044,1010.07117,5.773973413573136,1010.0813418658037,0,0
17.68,8.115242,-5.210431,3.2048893,1010.0561,5.77575215818242,1010.0811437154545,0,0
17.7,8.373357,-5.0817337,3.3185153,1010.08344,5.778025859395268,1010.08097689643,0,0
17.72,8.511986,-5.3820276,3.1196718,1010.0859,5.7811469890657055,1010.080847218313,0,0
17.74,8.225203500000001,-5.4678260000000005,2.9965777,1010.06866,5.784545244002597,1010.0806887607428,0,0
17.759999999999994,6.9537910000000025,-5.1103344,2.641499,1010.0685,5.7854814152484,1010.0805048680952,0,0
17.78,6.86298,-5.234265,2.6888435,1010.0634,5.784270894908032,1010.0802808030264,0,0
17.8,7.7137947,-4.972104,3.2190976000000004,1010.10846,5.782592156223947,1010.0801842642412,0,0
17.82,8.755802000000001,-4.528815,3.024988,1010.1059,5.781723314893577,1010.0801915392192,0,0
17.84,9.142976,-4.9578050000000005,3.5599766,1010.076,5.7829900399944645,1010.0801828778482,0,0
17.86,8.330424,-4.2380557,2.78827,1010.0832,5.7835629049859065,1010.0801860863006,0,0
17.88,8.397347,-4.600314,2.4947374,1010.09283,5.783813689669191,1010.0802344393786,0,0
17.9,8.296981,-4.662279,3.4416194,1010.0526,5.78424830611475,1010.0801776801763,0,0
17.919999999999995,8.445167,-4.6241474,3.1528218,1010.0757,5.784866615588911,1010.0801114080967,0,0
17.94,8.325685499999999,-4.4859176,3.6736073,1010.07324,5.785674942863446,1010.080028113018,0,0
17.96,8.325685499999999,-4.4859176,3.6736073,1010.07776,5.78664825988821,1010.0799463482796,0,0
17.98,8.273117999999998,-4.4001199999999985,3.1812303,1010.10077,5.787244268248251,1010.0799490661027,0,0
18.0,7.9528865999999985,-4.7957444,3.6688752,1010.09076,5.787691086206652,1010.0799903869336,0,0
18.02,8.402192999999999,-4.595549,4.2417393,1010.07513,5.78902036343925,1010.0800094006266,0,0
18.04,8.1869545,-4.40965,4.099693299999998,1010.0976,5.790477035928933,1010.0800895272836,0,0
18.06,7.603825,-4.1284230000000015,3.181219,1010.1002,5.790078889547756,1010.0802327248996,0,0
18.08,8.684066,-3.8519628,3.512628,1010.06226,5.78993476855448,1010.0802945525032,0,0
18.1,8.684066,-3.8519628,3.512628,1010.0822,5.79001562322953,1010.0803560429848,0,0
18.12,7.8380466,-4.366751,3.4463470000000003,1010.0651,5.789220123097287,1010.0803554542192,0,0
18.14,8.115279,-4.0902910000000015,4.0807576,1010.06464,5.788381589430119,1010.0802983583513,0,0
18.16,8.320816,-4.109357,3.2759094,1010.0822,5.787257582212424,1010.0802547543519,0,0
18.18,8.320816,-4.109357,3.2759094,1010.0695,5.7858853769914615,1010.0801775087426,0,0
18.2,7.967117,-4.366751,4.1754465,1010.05475,5.784626013761217,1010.0800177154907,0,0
18.22,7.952781,-4.4048843,3.872445,1010.0545,5.783227058616668,1010.0797846583977,0,0
18.24,7.952781,-4.4048843,3.872445,1010.0747,5.781709796295156,1010.07956042438,0,0
18.26,8.120082,-4.347686,3.4037397000000005,1010.0772,5.77996453807266,1010.0793537936743,0,0
18.28,8.00537,-4.4620833,4.3411517,1010.09247,5.778692418179023,1010.0792184331253,0,0
18.3,7.7568226,-4.2618876,4.0286818,1010.05676,5.776976684981724,1010.079017978185,0,0
18.32,8.220468499999999,-4.1951556,4.3458877000000005,1010.07434,5.775866107907069,1010.0788240154784,0,0
18.34,8.416445,-3.8567307,3.6404614,1010.0745,5.774768336309467,1010.0786370635747,0,0
18.36,8.273052,-4.266655,3.9103224,1010.0991,5.773994262016893,1010.0785455394442,0,0
18.38,8.158342999999999,-4.366752,4.1281056000000005,1010.08405,5.773583996718783,1010.0784844847805,0,0
18.4,7.914575,-4.3333864,3.9008546,1010.064,5.772868542592789,1010.0783783927341,0,0
18.42,8.368661999999999,-4.02356,3.7351508,1010.08405,5.7722568174520195,1010.0783050675882,0,0
18.44,8.368661999999999,-4.02356,3.7351508,1010.06903,5.7717389494531,1010.078206887246,0,0
18.46,8.31131,-4.242822,4.213326,1010.07654,5.771783895294732,1010.0781141343016,0,0
18.48,8.144021,-4.2714214,3.8677151,1010.0738,5.771780826884992,1010.0780166469162,0,0
18.5,8.177482000000001,-4.228523,4.033419,1010.0966,5.771890055969802,1010.0779974071336,0,0
18.52,7.938495,-4.20469,3.555245,1010.0638,5.771288204720403,1010.077929296196,0,0
18.54,8.059591000000001,-4.2380953,4.3649745000000015,1010.0713,5.770968261421762,1010.0778452479054,0,0
18.56,8.093150999999999,-4.314362,3.9010122,1010.0838,5.7706250119147455,1010.0777924199432,0,0
18.58,8.093150999999999,-4.314362,3.9010122,1010.09406,5.770262404740232,1010.0778043044444,0,0
18.6,8.107592,-4.1904345,3.6453638,1010.0662,5.769595316418325,1010.0777730300932,0,0
18.62,8.437465,-4.056973,3.787402,1010.0785,5.7692261701542735,1010.0777480131684,0,0
18.64,8.040842,-4.3668013,3.9673185,1010.0454,5.768859580151683,1010.0776094553661,0,0
18.66,8.040842,-4.3668013,3.9673185,1010.0632,5.768496568585727,1010.0774351516527,0,0
18.68,8.327731,-4.018845,3.6169817,1010.0784,5.768046235077675,1010.0772846103456,0,0
18.7,8.122301,-4.157078,3.6927414,1010.068,5.7673421479341735,1010.0771181674492,0,0
18.72,8.227489,-4.171378,3.8253078,1010.08344,5.7667135907163365,1010.0769938571034,0,0
18.74,8.227557000000001,-4.1141815,3.8773923,1010.08325,5.7661465826080445,1010.0769065385962,0,0
18.76,8.366239,-3.9902525,3.8300545,1010.098,5.765732802718822,1010.0769053204242,0,0
18.78,7.8787656,-4.4907427,3.5649343,1010.18604,5.764863599042847,1010.0772971288941,0,0
18.8,7.6302495,-4.0998855,3.5696716,1010.0984,5.762814515060028,1010.0777193011937,0,0
18.82,8.76313,-3.6470642,4.5307617,1010.0177,5.762118373248907,1010.0778762631537,0,0
18.84,7.515668400000001,-4.5098129999999985,3.7259192,1010.02045,5.760554852933535,1010.0778082201939,0,0
18.86,8.930591999999997,-4.180923,4.5071054,1010.0729,5.760970062712758,1010.077730427842,0,0
18.88,8.940185000000003,-3.1084483,3.621774700000001,1010.1256,5.761661460814223,1010.0778340209796,0,0
18.9,7.845676400000001,-4.042695,3.4087324,1010.0653,5.761195482270759,1010.0778804334008,0,0
18.92,7.6115336,-4.767214,4.942686,1010.0428,5.761350647256081,1010.0777951538556,0,0
18.94,8.419422,-4.1284976,4.123643,1010.08026,5.76203824264288,1010.0777286742956,0,0
18.96,8.624986999999999,-3.971202,3.839582,1010.08246,5.763190535550513,1010.0776869657287,0,0
18.98,8.242669,-4.209531299999999,3.7022903,1010.08234,5.764180114779508,1010.0776668629628,0,0
19.0,8.247516000000001,-3.8806405,4.0479080000000005,1010.07275,5.765032545966357,1010.077631399452,0,0
19.02,8.448302,-3.9426067,4.260959,1010.08234,5.766337000072979,1010.0776170148556,0,0
19.04,7.917811,-4.481229,4.407732,1010.05237,5.767742927157098,1010.0775134153728,0,0
19.06,8.078737,-4.028367,3.8063173,1010.06195,5.7685840728553215,1010.0773658465746,0,0
19.08,7.987925,-4.0379004,3.621676,1010.0749,5.768628926387183,1010.0772265777368,0,0
19.1,8.093083,-4.2047300000000005,4.492806400000001,1010.07715,5.769032713506638,1010.077103244112,0,0
19.12,7.8445363,-4.247629,4.047773,1010.07965,5.768981792786305,1010.077003434842,0,0
19.14,8.389437,-3.9568694,4.185071,1010.0465,5.769319221832435,1010.0768054310056,0,0
19.16,7.763284700000002,-4.2237964,3.683224,1010.05695,5.768748498208794,1010.0765589952645,0,0
19.18,8.140892,-4.21903,4.085649,1010.06195,5.768340864598478,1010.0762886522605,0,0
19.2,7.815869,-4.3620269999999985,3.7542408,1010.0669,5.767388513208468,1010.0760159780341,0,0
19.22,7.8206506,-4.2952949999999985,3.5980055,1010.08484,5.7657806565996275,1010.0758068095663,0,0
19.24,8.719257,-3.8710716,4.137728,1010.0719,5.765216283236726,1010.0756079237942,0,0
19.26,7.901913,-4.1999645,3.9767587,1010.06195,5.7643163108816085,1010.0753830197999,0,0
19.28,7.76808,-4.0665,3.8347266,1010.04193,5.762660397357182,1010.0750638637596,0,0
19.3,8.289082,-4.0379010000000015,4.175604,1010.0844,5.761489252426897,1010.0748154675728,0,0
19.32,8.461159,-3.203754,4.5638256,1010.0919,5.760774734614648,1010.0746574890187,0,0
19.34,8.461159,-3.203754,4.5638256,1010.0794,5.760466264788015,1010.074534972208,0,0
19.36,8.733609,-3.7995734,3.8394618,1010.0716,5.760799919146218,1010.074416150454,0,0
19.38,8.088338,-5.2009416,4.9331093,1010.0899,5.762819257621625,1010.0743669014107,0,0
19.4,7.892369,-4.590822,5.5296445,1010.08215,5.7660436502213575,1010.0743514041108,0,0
19.42,6.893392,-4.562223,3.2808025,1010.06195,5.766619999113308,1010.0742930656419,0,0
19.44,6.9555326,-3.97117,3.526992,1010.064,5.764559144914457,1010.0742044627344,0,0
19.46,7.1467266,-4.1475325,4.4786077,1010.0891,5.761520602524634,1010.0741797971393,0,0
19.48,7.720306,-3.9759362,4.2987003,1010.05597,5.758233906763598,1010.07409244735,0,0
19.5,8.007097,-4.4811916,4.573296,1010.0716,5.755909151955852,1010.0740062922656,0,0
19.52,8.317786,-4.547923,5.193503,1010.0816,5.755600498659415,1010.0739575029808,0,0
19.54,7.8971024,-4.495489599999999,4.8668237,1010.0791,5.756032866568729,1010.0739329057582,0,0
19.56,7.2279300000000015,-4.6956854,3.792114,1010.1892,5.755265246883723,1010.0743261331917,0,0
19.58,6.9076834000000025,-4.2285629999999985,3.3849552000000003,1010.0438,5.752112927981174,1010.0745636948724,0,0
19.6,8.427662,-4.528855999999998,4.942574,1010.0169,5.751002270682428,1010.0745660150716,0,0
19.62,7.1562333,-4.6909184,3.8157861,1010.0413,5.748790214945156,1010.0744483075454,0,0
19.64,8.590175,-4.9578457,4.9378395,1010.1517,5.74916814462076,1010.0746224072682,0,0
19.66,7.3522053,-3.933036,4.2655544,1010.0791,5.748271576489287,1010.0747923611168,0,0
19.68,8.145653,-4.3906255,4.791073,1010.01904,5.748443876132545,1010.074741823838,0,0
19.7,7.701131,-4.64802,4.5732903,1010.04346,5.748875287618778,1010.0745845545323,0,0
19.72,7.973579400000001,-4.1665974000000014,3.8820677,1010.0463,5.748926156548338,1010.0743437669777,0,0
19.74,8.026157000000001,-4.1808968,3.972021,1010.031,5.748816647675018,1010.073974969533,0,0
19.76,7.4955993,-4.4668903,3.569597,1010.0615,5.747618989086393,1010.0736041902206,0,0
19.78,8.011818,-4.4430580000000015,5.136685,1010.05347,5.747699634086658,1010.0732040865354,0,0
19.8,7.782387700000001,-4.5955873,4.26082,1010.0991,5.747847103743895,1010.0729437802077,0,0
19.82,7.4908195000000015,-4.2380958,4.061975,1010.0914,5.747065891570188,1010.0727802159275,0,0
19.84,8.203011,-4.1618309999999985,4.1613975,1010.0816,5.746670136050394,1010.0726674417523,0,0
19.86,7.8732038,-4.1761303,4.2276793,1010.06903,5.746134602511786,1010.072554699701,1,2
19.88,8.145653,-4.0522003,4.4312580000000015,1010.0819,5.746008692138152,1010.0724887239052,1,2
19.9,7.667672,-4.2047295999999985,4.180335,1010.0766,5.745357674232056,1010.0724452282865,1,2
19.92,7.973579400000001,-4.0617332,4.3649764000000015,1010.0816,5.744793006864487,1010.0724397527356,1,2
19.94,7.839745,-4.21903,4.402851999999998,1010.0819,5.744256326699397,1010.072468971429,1,2
19.96,7.8254056,-4.266695,4.4738684,1010.0791,5.743830912403466,1010.0725186607692,1,2
19.98,8.026157000000001,-3.9092033,4.4312580000000015,1010.064,5.743492831069374,1010.0725318990917,1,2
20.0,7.9449005,-4.0522003,4.2229443,1010.087,5.7430275289099,1010.0725956816368,1,2
20.02,7.6294336,-4.3572598,4.1235222999999985,1010.087,5.742114064129213,1010.0727038954393,1,2
20.04,7.863896400000002,-3.9997742,4.156686,1010.0845,5.7409061291881045,1010.0728419791319,1,2
20.06,7.562778999999999,-4.314367,3.465464,1010.0719,5.7386491471526275,1010.0729605987576,1,2
20.08,7.921274,-4.1380050000000015,3.4465275,1010.0845,5.7359043396907285,1010.0731069529036,1,2
20.1,8.0121,-4.4335318,3.5033412000000004,1010.06195,5.733207526556639,1010.0731961063964,1,2
20.12,8.28456,-4.4335318,2.9920266,1010.049,5.7306810994520045,1010.0731877764397,1,2
20.14,8.322813,-4.9864526,2.8831363,1010.0874,5.728855607429867,1010.0732315800948,1,2
20.16,8.064714,-4.457365,1.7421459,1010.0745,5.7261100754408325,1010.0732748513161,1,2
20.18,6.678576,-4.9673867,0.45438823,1010.0974,5.720395664187814,1010.0733999363024,1,2
20.2,7.276061500000001,-4.872056,1.6948032,1010.077,5.713290988838698,1010.0735234216256,1,2
20.22,9.685094,-4.7290597000000005,3.3755178,1010.0921,5.7099200240961805,1010.0736994089392,1,2
20.24,10.4307575,-2.2838163,4.516510500000001,1010.0997,5.710482915522836,1010.0739485134576,1,2
20.26,13.5663185,1.109972,6.1735535000000015,1010.0894,5.721487704074365,1010.0742242475617,1,2
20.28,12.6677265,0.41882098,4.7437644,1010.0894,5.738742599785442,1010.0745225189244,1,2
20.3,12.242329,0.10899467,3.5648975,1010.09467,5.7598325779782975,1010.0748586024324,1,2
20.32,12.658186,-0.844317,3.190881,1010.06226,5.784921563227822,1010.0751102108516,1,2
20.34,12.285368,-1.9501584,2.7742538,1010.0874,5.8127540375786975,1010.0753767752916,1,2
20.36,11.778724,-3.7423844,2.4002373,1010.06714,5.8425884584197885,1010.0755826592397,1,2
20.38,11.286408,-4.576532,2.2818778,1010.0849,5.873670854209308,1010.0757981207228,1,2
20.4,9.842918,-5.5679754999999975,1.3681386,1010.0872,5.903666003530363,1010.0760295492547,1,2
20.42,8.456783999999999,-6.001733,0.30763283,1010.09973,5.93047975182243,1010.0763193611284,1,2
20.44,7.333541,-6.7357830000000005,-0.7339353,1010.0872,5.953575048021599,1010.0766146092,1,2
20.46,5.1396265,-8.294448,-0.16580534,1010.06726,5.972833205743295,1010.0768418138028,1,2
20.48,5.1396265,-8.294448,-0.16580534,1010.0772,5.988631538538495,1010.0770438612601,1,2
20.5,5.024921,-9.080929,-0.45460308,1010.07025,6.002623847018862,1010.0771979324927,1,2
20.52,4.245823400000001,-11.10195,1.5243791000000002,1010.0747,6.018285221979681,1010.0773250772772,1,2
20.54,5.5459404,-10.153405,2.333963,1010.0699,6.034988598475772,1010.0774106921302,1,2
20.56,7.959751,-9.304958,1.945743,1010.07776,6.053791792182191,1010.0774875989227,1,2
20.58,11.023622,-8.742505,1.9362755,1010.0653,6.078131238667048,1010.0775116784083,1,2
20.6,11.907889,-8.189585000000001,2.38131,1010.0655,6.108199742520143,1010.077489713,1,2
20.62,10.6364765,-5.658543,2.447593,1010.083,6.138331523080689,1010.077490141398,1,2
20.64,9.771343,-4.79103,2.248749,1010.083,6.1659550861591725,1010.0775103554216,1,2
20.66,9.952991,-3.4182620000000004,2.2203438,1010.0757,6.190520298812733,1010.0775216992532,1,2
20.68,9.704446,-3.2609658,1.9883586,1010.09326,6.211616487093918,1010.0775883805456,1,2
20.7,10.048601,-2.9130073,2.8026772,1010.0755,6.230407495713672,1010.0776397819652,1,2
20.72,10.665303,-2.6746821,2.7269363,1010.07776,6.248127965127221,1010.077685633045,1,2
20.74,11.946302,-2.8415117000000003,2.4428732,1010.0528,6.2673153032107365,1010.0776365587801,1,2
20.76,11.841161,-4.3572774,2.8595017999999994,1010.08093,6.2885967321481475,1010.0776050531481,1,2
20.78,11.841161,-4.3572774,2.8595017999999994,1010.0878,6.311651886619883,1010.07761391658,1,2
20.8,11.7551365,-6.2782,2.6653924,1010.0829,6.337548924731742,1010.0776407782088,1,2
20.82,12.180552,-7.1838465,2.0546556,1010.0934,6.36731692472373,1010.0777212463423,1,2
20.84,12.05629,-7.136181,2.0830634,1010.07776,6.40013687049695,1010.0777924874983,1,2
20.86,11.1529255,-9.462261,2.3008473,1010.088,6.4368696621430175,1010.0778921832292,1,2
20.88,10.067917,-11.202055,1.6475004,1010.091,6.477645504665843,1010.078027462517,1,2
20.9,9.871964,-10.14388,2.1919587000000003,1010.0934,6.520126061163745,1010.0782023364306,1,2
20.92,10.302154,-9.014205,3.0725584,1010.1132,6.563349492542296,1010.0784828466096,1,2
20.94,9.532618,-7.5365734,2.807433,1010.08344,6.603836360244157,1010.078748551156,1,2
20.96,7.333925999999999,-7.693869999999999,2.96367,1010.0935,6.6387720181956045,1010.0790364329088,1,2
20.98,6.5213666,-7.870233,3.2808757000000006,1010.1038,6.66805315907587,1010.0793799540677,1,2
21.0,5.3598870000000005,-7.493675,3.4371123,1010.091,6.690359484531476,1010.0797253215284,1,2
21.02,4.633363200000002,-6.955054799999999,2.9636722,1010.0763,6.704413832244282,1010.0800181570593,1,2
21.04,2.8935273,-6.554664,1.4202576,1010.0607,6.707878131072966,1010.0802073611693,1,2
21.06,1.9327995,-6.573730499999999,-0.45456544,1010.04584,6.701063704605707,1010.0802508194204,1,2
21.08,2.037968,-7.264881599999999,-1.434586,1010.0358,6.686882237067715,1010.0801291961811,1,2
21.1,3.9355628,-8.203894,-0.85225314,1010.05585,6.6692734920077825,1010.0799343247808,1,2
21.12,7.1141453,-9.700593,0.667492,1010.0763,6.654746646650453,1010.079749052842,1,2
21.14,12.888167,-11.492819,1.1882781999999998,1010.0585,6.653929734765077,1010.0795088499667,1,2
21.16,14.546766,-11.221125,0.9752306,1010.05835,6.6674925390347015,1010.0792204348463,1,2
21.18,13.925417,-7.3077826,1.7990193,1010.0757,6.688373628576112,1010.0789529176808,1,2
21.2,13.413984,-7.1171203,3.3140292,1010.1115,6.715050617635738,1010.0788337090092,1,2
21.22,13.863298,-6.559434,4.5449758000000005,1010.096,6.74769541420887,1010.0787901748747,1,2
21.24,13.154715,-4.9244757,2.6795132,1010.0863,6.781969683970113,1010.078778743484,1,2
21.26,10.788679,-4.9864397,1.5905969,1010.0588,6.812762691404097,1010.0786967192304,1,2
21.28,9.746664,-5.024572,1.4201568000000002,1010.0788,6.838427307627065,1010.078624614411,1,2
21.3,8.876691000000003,-4.2571554,1.4106836,1010.081,6.857157147454642,1010.0785694539804,1,2
21.32,9.144343,-3.9949942,1.2165715,1010.1193,6.869915446049433,1010.0786673441896,1,2
21.34,10.009455,-3.6613345,0.8662225,1010.0813,6.8786824183513975,1010.0787633175397,1,2
21.36,10.649932000000002,-3.4516056000000006,0.9419715,1010.08887,6.885016863786037,1010.0788845036484,1,2
21.38,10.879313,-5.515524,3.4985456,1010.1064,6.892202292979177,1010.079090639481,1,2
21.4,10.310484,-7.860667999999999,7.338145,1010.11096,6.904703913382781,1010.0793875108003,1,2
21.42,8.207336999999999,-8.995109,8.351303999999999,1010.0935,6.921582691078572,1010.0797006312596,1,2
21.44,7.667203,-9.49083,8.422319,1010.1214,6.942393435052584,1010.0801274222246,1,2
21.46,7.041016,-9.319233,8.924163,1010.1214,6.96634077931309,1010.0806531160013,1,2
21.48,7.5046077,-8.065627000000001,8.365499,1010.1266,6.991173413893003,1010.0812830278047,1,2
21.5,7.452013000000001,-7.7033687,7.877853,1010.0964,7.015594348858277,1010.0818940389743,1,2
21.52,7.1747513,-8.880708,6.8173437,1010.08887,7.039554624144581,1010.0824590419032,1,2
21.54,6.1709432999999985,-7.9893603,6.135585,1010.0863,7.059937165029732,1010.0829721059404,1,2
21.56,6.1709432999999985,-7.9893603,6.135585,1010.0638,7.077085042650827,1010.0833564297425,1,2
21.58,5.4108887,-7.779629700000001,5.325995,1010.09174,7.089353197102487,1010.0837261991068,1,2
21.6,6.008331,-8.432648,3.7541702,1010.0788,7.0975633822757045,1010.0840351930002,1,2
21.62,6.3476644,-7.665230800000002,2.61791,1010.0438,7.100655850801008,1010.0841633733096,1,2
21.64,4.8802476,-9.057065,1.9977015,1010.06885,7.099609024898268,1010.0842215052874,1,2
21.66,10.061522,-5.639443,5.1129370000000005,1010.1441,7.0993486559639525,1010.0844884332837,1,2
21.68,8.173467,-5.6918739999999985,3.702081,1010.2119,7.095646324736352,1010.0851829725012,1,2
21.7,8.785249,-4.686129599999999,6.0645456,1010.139,7.091062221745265,1010.0859904086533,1,2
21.72,8.756554,-5.9254346,4.686833,1010.1491,7.085521751975074,1010.0869310537655,1,2
21.74,8.035496,-5.2295346,3.9672666,1010.1139,7.076683930449108,1010.0878592959932,1,2
21.76,7.576629,-5.6823564000000015,4.246596,1010.0966,7.064971557943795,1010.0887109573604,1,2
21.78,7.428451499999999,-5.105603,3.5648413,1010.0538,7.049335443031232,1010.0893378058977,1,2
21.8,7.428451499999999,-5.105603,3.5648413,1010.00336,7.030288599341316,1010.0895821691639,1,2
21.82,8.169315,-5.7633886,4.398096,1009.95575,7.010851435536004,1010.0893162927373,1,2
21.84,7.4332213,-5.7204885,4.7863172999999986,1010.00616,6.9903243503691215,1010.0887820016728,1,2
21.86,7.328061999999999,-3.6613364,4.3081417,1010.0384,6.966258834563272,1010.088128526882,1,2
21.88,8.27924,-3.3991756,4.279735,1010.0791,6.940535387252947,1010.08751861386,1,2
21.9,7.6913214,-3.9139638,3.9199202,1010.0835,6.912520842803677,1010.086965227704,1,2
21.92,6.888310400000001,-4.4859505,3.0535235000000003,1010.07404,6.8811082847391525,1010.0864297248767,1,2
21.94,8.088036,-4.3524866,2.5706139,1010.08154,6.848403983012707,1010.0859389515692,1,2
21.96,8.532556,-4.838676,3.0866635,1010.081,6.816225496792833,1010.0854875240492,1,2
21.98,8.231424,-6.4164057,4.4028277000000005,1010.091,6.7867978713611725,1010.0851084876053,1,2
22.0,8.193178999999999,-4.5860476,3.640588,1010.0738,6.757294179493092,1010.0847328604483,1,2
22.02,8.045002,-4.7385774000000005,2.8878176,1010.0913,6.727211697002598,1010.0844245979947,1,2
22.04,8.307888,-4.4525843,4.2513256,1010.0662,6.6979046100796245,1010.0840866087384,1,2
22.06,8.19795,-4.2619214,3.7494788,1010.0838,6.6686215908939195,1010.0837869296396,1,2
22.08,7.8060006999999985,-4.6051135,3.8583694,1010.0685,6.6392134699263865,1010.0834671002414,1,2
22.1,6.8691554,-5.3153305,4.0240730000000005,1010.0866,6.60922318417554,1010.0831957774243,1,2
22.12,7.8824716,-4.838675,4.4880447,1010.2791,6.580298182140872,1010.0836612917842,1,2
22.14,7.437944,-5.038869999999998,4.270262000000002,1010.2111,6.551726008023706,1010.0845313996224,1,2
22.16,7.6960516,-4.9340053,4.478575,1009.9984,6.524052036872924,1010.0849901538693,1,2
22.18,7.825102999999999,-5.000737,4.4170275000000006,1009.96326,6.497486518056222,1010.0849572805679,1,2
22.2,6.759203,-5.339163,3.7778826,1010.0413,6.470171509890939,1010.084771067509,1,2
22.22,7.553211,-4.5002627,4.1803584,1010.0358,6.442978079575952,1010.0844302338072,1,2
22.24,7.6440372,-4.571761,4.3129225,1010.05835,6.416323985977456,1010.0840351843062,1,2
22.26,7.624936999999999,-4.4859633,4.0383286,1010.03796,6.3898862684101045,1010.0835202479036,1,2
22.28,7.476782000000001,-5.0436516,4.876320400000001,1010.0683,6.364832282583997,1010.0830104572062,1,2
22.3,7.357305999999999,-5.1771150000000015,4.3650064,1010.05554,6.3405643134512015,1010.0824611125,1,2
22.32,7.9261312,-4.700460400000001,4.757964599999998,1010.05835,6.31785066978317,1010.0818889115125,1,2
22.34,7.897461999999999,-4.767192400000001,4.819512400000002,1010.04315,6.296668980523155,1010.0812438546384,1,2
22.36,7.457739,-4.719527200000001,3.9199777,1010.07043,6.275356570481742,1010.0806349525078,1,2
22.38,7.4386387,-5.000755000000002,4.289263,1010.09076,6.25458675412984,1010.0801333767564,1,2
22.4,7.4099884,-5.153285,4.549658,1010.081,6.234726292869277,1010.0796933042656,1,2
22.42,7.209246,-5.081786599999999,4.436033,1010.07825,6.215253224288893,1010.0792992603177,1,2
22.44,7.347879400000001,-5.029355000000002,4.3602843,1010.0528,6.1962788642627,1010.0788556857484,0,0
22.46,7.07545,-5.0865545,4.080956,1010.08344,6.17720615280477,1010.0784802467896,0,0
22.48,7.5056515,-4.9816910000000005,4.2987404,1010.08093,6.158861812223807,1010.0781573280376,0,0
22.5,7.539119199999999,-5.0198236,4.525993,1010.0903,6.141525876826389,1010.0779157106476,0,0
22.52,7.2619195,-5.096089,4.464448,1010.0729,6.124740816642446,1010.0776841609633,0,0
22.54,7.2714887,-5.129455,4.2608690000000005,1010.0632,6.108366872454924,1010.0774274206826,0,0
22.56,7.5774149999999985,-5.148522,4.559139,1010.07825,6.093177215056299,1010.0772035262564,0,0
22.58,7.42448,-4.838696499999998,4.393436,1010.07025,6.078378913695985,1010.0769806604463,0,0
22.6,7.0851425999999975,-5.3439517,4.3887043,1010.073,6.063998551931323,1010.0767694058394,0,0
22.62,6.8700705,-5.196189,4.095173,1010.0959,6.049285512300688,1010.0766516114077,0,0
22.64,6.922658,-5.186656,4.00522,1010.07825,6.034320334734036,1010.0765532824464,0,0
22.66,6.6693473,-5.305821,3.337671,1010.08325,6.0183970871902135,1010.0764905071596,0,0
22.68,7.066089999999999,-5.382086,4.2987566,1010.0653,6.003171156475848,1010.0763947530903,0,0
22.7,7.209503,-5.615648,4.104648,1010.0678,5.988928155562168,1010.0762792036836,0,0
22.72,7.418901400000001,-5.362998,3.2618403,1010.07074,5.974981588006513,1010.0761571630948,0,0
22.74,7.6053042,-5.2152343,3.5601068,1010.093,5.961694101838697,1010.0761099622432,0,0
22.76,7.806037400000001,-5.1628017,3.4796205,1010.0553,5.949244225383183,1010.0759933397068,0,0
22.78,7.605266,-5.4344945,3.3565242,1010.0934,5.937469031715563,1010.0759529560104,0,0
22.8,7.7820907,-5.477393,3.7305396,1010.09283,5.926934635249815,1010.0759780303348,0,0
22.82,8.030631,-5.248598,3.6926634,1010.07025,5.9176556702502525,1010.0759795650986,0,0
22.84,8.0688505,-5.5250580000000005,3.3991287000000003,1010.08777,5.90967173168715,1010.0760233667813,0,0
22.86,7.8633,-5.358228,2.9588273,1010.0903,5.902053702533088,1010.0761134658279,0,0
22.88,8.336472500000001,-5.9683465999999985,2.963559,1010.09534,5.8962572336972725,1010.0762622928688,0,0
22.9,8.465517,-5.7252519999999985,3.5648274,1010.10785,5.892405489888454,1010.0765075121874,0,0
22.92,7.375693300000001,-6.1113424000000025,2.920946,1010.0829,5.888603250258412,1010.0767472009337,0,0
22.94,7.4569306,-5.653753,2.8025842,1010.0755,5.884348238250446,1010.0769544999864,0,0
22.96,7.5333885999999985,-5.410658,2.93988,1010.0903,5.879627977686383,1010.0771857132293,0,0
22.98,7.533378999999999,-5.320093,2.6700182,1010.08777,5.8742463380614724,1010.0774281166832,0,0
23.0,7.5381303,-5.55842,2.3433416,1010.09283,5.8684104780840185,1010.0776977511548,0,0
23.02,7.3517084000000015,-5.768148,2.42856,1010.09283,5.862194962713176,1010.07799047627,0,0
23.04,7.1700664000000005,-5.958811,2.97775,1010.0906,5.855940812886122,1010.0782945224672,0,0
23.06,6.8928094,-6.0684404,3.3754375,1010.0799,5.849669315635872,1010.0785689574063,0,0
23.08,6.950157000000001,-6.073207,3.1529195,1010.1156,5.8433411379165525,1010.0789447598717,0,0
23.1,7.1126520000000015,-6.1161056,2.7362900000000003,1010.07526,5.837023387435233,1010.0792635537944,0,0
23.12,7.5523744000000015,-5.8253445999999975,2.8499143,1010.0906,5.831118085565548,1010.079586051311,0,0
23.14,7.5571356,-5.6680480000000015,2.6273954,1010.09784,5.825287683811776,1010.079936724332,0,0
23.16,7.47585,-5.8062778,3.0676923,1010.0653,5.819846576819511,1010.0801938868055,0,0
23.18,7.5762167,-5.973107,3.332818,1010.09283,5.815302410906801,1010.0804666055748,0,0
23.2,7.265510000000001,-5.7347784000000015,2.9351265,1010.10284,5.810534615339775,1010.0807881240993,0,0
23.22,7.720469500000001,-5.658535,3.1671927,1010.0903,5.806359843219775,1010.0811064606207,0,0
23.24,7.739597,-5.6776019999999985,3.4086480000000003,1010.0674,5.802939405351287,1010.0813383995128,0,0
23.26,7.519761999999999,-6.0017285000000005,2.8026476,1010.1003,5.799854985026292,1010.0816116024796,0,0
23.28,7.519761999999999,-6.0017285000000005,2.8026476,1010.08527,5.797078573715898,1010.0818661748524,0,0
23.3,8.1507225,-5.853965799999999,2.897338,1010.09283,5.795465352306803,1010.082130584771,0,0
23.32,7.7683472999999985,-6.0827603,2.9020734,1010.0903,5.794551992877794,1010.0823936272699,0,0
23.34,7.6297507,-5.7777014000000015,2.8405275000000003,1010.1078,5.793634174103067,1010.082717514564,0,0
23.36,7.950024000000001,-5.420210400000001,2.712701,1010.10034,5.7927445119111125,1010.0830671423247,0,0
23.38,7.792308,-5.334413,2.750578,1010.08527,5.791547719818253,1010.0833840037017,0,0
23.4,7.6345835000000015,-5.7062040000000005,2.873673,1010.08484,5.790332117377095,1010.0836692240007,0,0
23.42,7.3334823,-6.0255647,3.1482713,1010.09283,5.789197321701461,1010.0839542234507,0,0
23.44,7.36217,-6.0636972999999985,3.067787,1010.08026,5.788177702604783,1010.0841927497604,0,0
23.46,7.2474729999999985,-5.906401,3.0441167,1010.1055,5.786875797868063,1010.0844802177086,0,0
23.48,7.366986,-6.354458,2.6748347000000003,1010.0678,5.785864173921101,1010.0846741756036,0,0
23.5,7.104114,-6.2114615,2.5091321,1010.10834,5.784436427699445,1010.0849307537677,0,0
23.52,7.2331867,-6.039866,2.4475868,1010.07776,5.782586791326388,1010.0851316515198,0,0
23.54,7.520002000000002,-5.553678,2.2676816000000004,1010.0729,5.780129043367742,1010.0852651308279,0,0
23.56,7.763789,-5.8444379999999985,2.9636407000000005,1010.0754,5.778265200711192,1010.085347558674,0,0
23.58,7.457891,-6.006501,2.8452814,1010.07776,5.7765797262604,1010.0853930767073,0,0
23.6,7.281046400000001,-6.1876307,2.7458599,1010.09576,5.774958477742183,1010.0854706173652,0,0
23.62,7.5487423,-6.1447325,2.7127213,1010.083,5.7737378170114955,1010.0855302380684,0,0
23.64,7.4292564,-6.044635,2.4239235,1010.08026,5.77240818716019,1010.0855639460643,0,0
23.66,7.6204658,-5.9350047,2.2392833,1010.0729,5.771060905880214,1010.085548140244,0,0
23.68,7.591805,-5.9350047,2.2866292,1010.0653,5.769679626680298,1010.085461280916,0,0
23.7,7.5679326,-5.8635072999999975,2.4381322999999995,1010.05975,5.768221836278827,1010.0852919714026,0,0
23.72,7.491472999999999,-6.05417,2.50915,1010.05023,5.766855971451562,1010.0850161464192,0,0
23.74,7.467044,-6.0255575,2.5138361,1010.0428,5.765504341373668,1010.0846204493373,0,0
23.76,7.428802,-6.0017247000000005,2.5611796,1010.07043,5.76410551097655,1010.0842197257778,0,0
23.78,7.2280440000000015,-6.1018224000000005,2.7410865,1010.05554,5.762588179384919,1010.0837623994278,0,0
23.8,7.4287906,-6.106589,2.6653354,1010.06476,5.761243206688907,1010.083289897227,0,0
23.82,7.600859,-6.025557,2.7647576000000003,1010.04987,5.760277349465582,1010.0827520826524,0,0
23.84,7.486140299999999,-5.982658,2.6085222000000003,1010.07275,5.759329593027147,1010.0822408621968,0,0
23.86,7.624751,-5.8110620000000015,2.286582,1010.07043,5.758243141122595,1010.0817466286984,0,0
23.88,7.7681426999999985,-5.830128,2.2534412999999995,1010.08826,5.757276934701568,1010.0813333721156,0,0
23.9,7.8254967,-5.853961,2.3575976,1010.0424,5.756592046571827,1010.0808280584596,0,0
23.92,7.806375999999997,-5.911159,2.4854264,1010.083,5.756260609182665,1010.0803893823024,0,0
23.94,7.7729135,-6.0398564000000015,2.7363493,1010.0528,5.756480702986562,1010.079902446274,0,0
23.96,7.204111599999999,-6.106588,2.457019,1010.07526,5.756234323518997,1010.0794554767924,0,0
23.98,7.161090400000001,-6.17332,2.4380813,1010.0884,5.75558823363856,1010.0790927348422,0,0
24.0,7.161086599999999,-6.1256537,2.4238777,1010.0855,5.754521412135488,1010.0787952822096,0,0
24.02,7.443092,-6.1256537,2.5848472,1010.0353,5.75360597843053,1010.0783758700476,0,0
24.04,7.696415400000001,-5.944525,2.3291888,1010.0453,5.752868449609486,1010.0778862043288,0,0
24.06,7.615156699999999,-6.077988,2.4144080000000003,1010.0454,5.7523700827655,1010.0773365853644,0,0
24.08,7.596032000000001,-5.958824,2.6747997000000003,1010.08826,5.75204337267688,1010.0768902663395,0,0
24.1,7.5291130000000015,-5.8777924000000015,2.423876,1010.068,5.751529528137652,1010.0764638938907,0,0
24.12,7.505210400000001,-5.7395625,2.5138295,1010.08026,5.750691141087947,1010.0761008171768,0,0
24.14,7.4813075,-5.920692,2.8925812,1010.0428,5.749969138718423,1010.0756601196507,0,0
24.16,7.376148,-6.0398555,3.0488167,1010.07074,5.74943487598642,1010.075253006886,0,0
24.18,7.031998,-6.139953,2.883112,1010.08325,5.748572192362754,1010.074922071222,0,0
24.2,7.0511155,-6.1208870000000015,2.7505481,1010.0479,5.747346617063623,1010.0745323770133,0,0
24.22,7.323560700000002,-5.934991,2.783689,1010.05835,5.746002268570117,1010.0741297866526,0,0
24.24,7.3474555,-6.016022,2.9067830000000003,1010.0453,5.744770225349691,1010.0736702705783,0,0
24.26,7.2661953,-6.020788,2.7647507,1010.05566,5.743438289391018,1010.0731994052013,0,0
24.28,7.3856864,-6.0827537000000005,2.565905,1010.05566,5.7421745923018594,1010.0727202066953,0,0
24.3,7.4191413,-6.268649,2.755281,1010.0483,5.741370506292088,1010.072208874151,0,0
24.32,7.409574,-5.9397564,2.3244495,1010.0509,5.740311751657151,1010.071680348768,0,0
24.34,7.3426550000000015,-5.9778895,2.343387,1010.0509,5.738984495771728,1010.0711385344839,0,0
24.36,7.352211,-5.9874220000000005,2.5517006,1010.0663,5.7375600763508805,1010.0706423686586,0,0
24.38,7.457362700000001,-5.9206905,2.7647482999999995,1010.0759,5.736254544413457,1010.070222884008,0,0
24.4,7.533834,-6.1637845,2.7884197,1010.0713,5.735495960532094,1010.0698561049884,0,0
24.42,7.552951299999997,-6.254349,2.9162482999999995,1010.0713,5.735442126586795,1010.0695372170683,0,0
24.44,7.457350999999999,-6.173317400000001,2.8404977,1010.0934,5.735716811085659,1010.0693413537214,0,0
24.46,7.677218400000001,-5.820592,2.5564332000000003,1010.0483,5.736028342228353,1010.069092539994,0,0
24.48,7.772813,-5.749094,2.4333386000000004,1010.081,5.736375012147946,1010.0689155550407,0,0
24.5,7.74413,-5.849191,2.5659013,1010.0563,5.736894694542729,1010.068713755138,0,0
24.52,7.5720534,-6.006488,2.7458086,1010.0659,5.737584515306274,1010.0685253152252,0,0
24.54,7.189663,-6.2734146,2.6889951,1010.0763,5.738143580166737,1010.0683867985837,0,0
24.56,7.1848800000000015,-6.1494839999999975,2.5706346,1010.0659,5.738349893303147,1010.0682554528042,0,0
24.58,7.0940614,-6.0827519999999975,2.3007731,1010.08905,5.737876998446175,1010.0682142560432,0,0
24.6,7.3899274,-6.1447059999999984,2.8451857999999994,1010.0662,5.737635515875367,1010.0681706032638,0,0
24.62,7.2752050000000015,-6.077974,2.6416056,1010.0509,5.737221123686992,1010.0680698574961,0,0
24.64,7.308649000000001,-6.125639,2.4901035,1010.08636,5.736686248569755,1010.0680466830484,0,0
24.66,7.399450999999999,-5.977875,2.688947,1010.0838,5.736107577570992,1010.0680829180476,0,0
24.68,7.4902515,-6.049373,2.7078834,1010.0638,5.7357341506427515,1010.068099516788,0,0
24.7,7.6240716,-5.787213,2.7646947,1010.0966,5.735463303311501,1010.0682167851744,0,0
24.72,7.5619197,-5.87301,2.745756,1010.0562,5.735279085177946,1010.0682771430943,0,0
24.74,7.561911999999999,-6.001707,2.6936767,1010.0785,5.735301550114657,1010.068367277637,0,0
24.76,7.743514999999999,-5.811043700000001,2.3527968,1010.08636,5.735382494454793,1010.0685116943196,0,0
24.78,7.743514999999999,-5.811043700000001,2.3527968,1010.0613,5.73551481979617,1010.0686133388003,0,0
24.8,7.609666000000002,-6.144703,2.8025641,1010.0659,5.7361310173087405,1010.0686933838443,0,0
24.82,7.5236144,-6.173301,2.750484,1010.0588,5.73704559356225,1010.068728495463,0,0
24.84,7.1364354999999975,-6.039838,2.504294,1010.08905,5.737317429367964,1010.0688326775056,0,0
24.86,7.432753999999999,-5.9397388,2.679464,1010.0688,5.737448092725015,1010.0689246151196,0,0
24.88,7.432753999999999,-5.9397388,2.679464,1010.06885,5.737453545718338,1010.0690055825808,0,0
24.9,7.925051700000001,-5.6489787000000025,2.4758825,1010.0685,5.737676019414451,1010.0690753053324,0,0
24.92,7.600003,-5.725243,2.4048643,1010.0713,5.737615744969513,1010.0691449212565,0,0
24.94,7.580868700000001,-5.7443085,2.8925068,1010.0966,5.737570071085665,1010.0693052721704,0,0
24.96,7.5999804000000015,-5.6203785,2.9777255,1010.0759,5.73747275473028,1010.069470699258,0,0
24.98,7.528261,-5.9778695,2.9540513,1010.08154,5.737634202807076,1010.0696603201152,0,0
25.0,7.5473732999999985,-5.996935400000001,2.982457,1010.06903,5.7380943881325805,1010.0698255999524,0,0
25.02,7.5999365,-5.887304,2.830955,1010.0914,5.73867349934411,1010.0700493090566,0,0
25.04,7.5664625,-5.811039,2.4569354,1010.0688,5.739002358482872,1010.0702424809084,0,0
25.06,7.451733,-5.858704,2.3811839,1010.08136,5.738946524704425,1010.0704531906256,0,0
25.08,7.418267,-5.949269,2.4474647000000003,1010.0734,5.738645582245369,1010.0706499822452,0,0
25.1,7.351897200000002,-5.844418,2.2912796,1010.0964,5.737813746482957,1010.0709165673843,0,0
25.12,7.4952993,-5.791986,2.556407,1010.0759,5.736815034587424,1010.0711700623708,0,0
25.14,7.896814,-5.505993,2.8688786,1010.0734,5.736158600101929,1010.0714020783162,0,0
25.16,7.657831,-5.7586207,2.8310041,1010.0709,5.735694160633638,1010.0716052801235,0,0
25.18,7.6721783,-5.6203910000000015,2.8641458,1010.0785,5.735279584983664,1010.0718096502319,0,0
25.2,7.7343197,-5.5059934,2.759989,1010.08344,5.734816048739248,1010.0720321009192,0,0
25.22,7.648291,-5.8777843,2.6889737,1010.0759,5.73457432862218,1010.072242582783,0,0
25.24,7.6721973,-5.706189,2.6463647,1010.0755,5.734336710356843,1010.0724402912598,0,0
25.26,7.8108195999999985,-5.834886,2.9446328,1010.07825,5.734651389697139,1010.0726359014212,0,0
25.28,7.7917112999999985,-5.501228,2.5422094,1010.07825,5.7348012322380315,1010.0728289533148,0,0
25.3,7.7917112999999985,-5.501228,2.5422094,1010.071,5.734804885549816,1010.0729929497362,0,0
25.32,7.681783699999999,-6.0970473,2.6984453,1010.06824,5.735304492888726,1010.073120746355,0,0
25.34,7.5909824000000015,-5.696657,2.5280085,1010.0709,5.735512864659415,1010.0732256727603,0,0
25.36,7.5527477,-5.892086,2.4759305,1010.08826,5.735613393923982,1010.0733725093103,0,0
25.38,7.5240808,-5.668058,2.7931364,1010.0835,5.735475914066101,1010.0735387130524,0,0
25.4,7.528864,-5.939751599999999,2.8594186,1010.0634,5.7355059518553215,1010.0736490713118,0,0
25.42,7.7296276,-5.6537585,2.8499508,1010.1114,5.73565205926965,1010.0738824872127,0,0
25.44,7.9686213000000015,-5.5822606,2.840482,1010.08887,5.736199108536309,1010.0741426885494,0,0
25.46,7.782217,-5.6060934,2.632169,1010.0607,5.736704180165704,1010.0743242087717,0,0
25.48,7.9303979999999985,-5.7252574,2.6463728,1010.0964,5.737558898065824,1010.074564072888,0,0
25.5,8.030783,-5.372533,2.660577,1010.1013,5.738488812216443,1010.0748722661592,0,0
25.52,7.6579647,-5.6394596,2.6937184,1010.0734,5.7391965463637495,1010.0751392855752,0,0
25.54,7.791806699999999,-5.7919903,3.029862,1010.0938,5.740299820518178,1010.0754424025032,0,0
25.56,7.3759755999999985,-5.7252584,2.6132355,1010.0634,5.740762371439415,1010.0756668839715,0,0
25.58,7.457236,-5.7300252999999985,2.9067688,1010.04584,5.7409634954947135,1010.0757578590152,0,0
25.6,7.486149,-5.691898,2.9067903,1010.0788,5.740932549896468,1010.0758491962712,0,0
25.62,7.8255315,-5.5822678,2.7884316000000005,1010.0453,5.741040742106511,1010.0758199247637,0,0
25.64,7.6869335,-5.615634,2.7647612,1010.0509,5.741072443426276,1010.0757043487306,0,0
25.66,7.887693400000002,-5.591802,2.906794,1010.0784,5.741417167372707,1010.0756119300924,0,0
25.68,7.763435,-5.7061996,2.9399366,1010.08325,5.741989984701668,1010.0755577660353,0,0
