Timestamp,Ax,Ay,Az,P,LPFRMSAcc,LPFPValue,Value,Type
0.0,-3.7388346,5.9589605,6.8319473,1003.1246,0.02038202013364036,3.61124856,0,0
0.02,-3.6097934,2.7272353,7.4095435,1003.2244,0.0563625139760177,10.4007551328,0,0
0.04,-2.8928347000000003,1.7405583999999998,9.691525,1003.2423,0.1092826637010938,19.974192702048,0,0
0.06,-0.8853289000000001,1.4640981000000002,10.273856,1003.4276,0.17729738806433706,31.97371440450816,0,0
0.08,-0.35956395,1.4545655,10.576857,1003.5105,0.2589600040176299,46.07402420894572,0,0
0.1,0.83059454,1.4164333,9.94718,1003.54047,0.3511394497846013,61.979937156994545,0,0
0.12,0.9166191,1.2448376,9.61577,1003.54333,0.4515677413904203,79.42403005212532,0,0
0.14,1.9490441000000005,0.22479473,11.741517,1003.58325,0.5634231736123886,98.16460372607521,0,0
0.16,1.413694,-1.0288095,9.255954,1003.6687,0.6798086693043366,117.98358937096344,0,0
0.18,0.6393525,1.2305387,6.836671400000001,1003.5716,0.7946987018930447,138.68376192505121,0,0
0.2,2.4939077000000003,0.4774229999999999,7.073391,1003.6072,0.9089749648202764,160.08815877091297,0,0
0.22,3.249101,-1.3243351,9.05237,1003.61237,1.0268560009998955,182.0377709843412,0,0
0.24,2.9861991000000003,-1.3481675,7.1491384999999985,1003.58765,1.1436643670440385,204.39002790058262,0,0
0.26,4.3962293,-0.4234553,7.352717399999999,1003.53546,1.2605864520347114,227.0174056673316,0,0
0.28,4.6495457,-1.4244318,7.1065270000000025,1003.6037,1.3772584053212198,249.80666732162845,0,0
0.30000000000000004,5.6771913,-2.2109137000000003,7.428465400000001,1003.6088,1.4953600678823045,272.6569465970073,0,0
0.32,5.6236644,-3.0212047,4.7771115,1003.57605,1.6109036665785934,295.47876213698294,0,0
0.34,4.744134,-4.7609973,3.3520515,1003.5864,1.7228093699884686,318.1933058444122,0,0
0.36000000000000004,6.608211,-5.5903769999999975,3.9817233,1003.6118,1.8352898506644868,340.7313832432568,0,0
0.38,8.964603,-6.119463,4.237376,1003.5975,1.9522886253248968,363.03234645320015,0,0
0.4,10.455858,-6.743881,4.279982,1003.60046,2.0759881173424906,385.0435227542746,0,0
0.42,11.846728,-6.391155,2.5377162,1003.6129,2.206285933647751,406.7194478919886,0,0
0.44,12.343779,-5.685703299999999,2.5140395,1003.61835,2.342200597317209,428.0211313912615,0,0
0.46,12.023484,-5.1184816,2.3578,1003.6186,2.4814620039719872,448.9154498182105,0,0
0.48,10.847608,-5.280544,1.1552569,1003.6413,2.6207706347010573,469.37468264091706,0,0
0.5,10.45561,-4.832486,-0.43550786,1003.6394,2.7583865421977682,489.3758137455533,0,0
0.52,9.676453,-5.051746400000002,-1.3019085,1003.6243,2.892902552744755,508.9001077401258,0,0
0.54,9.064592,-5.475969,-0.62015843,1003.6347,3.023395547868982,527.9328184458657,0,0
0.56,8.366691000000001,-6.043188,0.39299968,1003.6578,3.1492821349791456,546.4627315590523,0,0
0.5800000000000001,8.328403,-5.7381268,0.8522324,1003.6626,3.27027368743093,564.4816823122516,0,0
0.6,8.122822,-5.800091,0.99426,1003.6557,3.3862567282959484,581.9842536614542,0,0
0.62,7.663917,-6.000285,1.0510688999999998,1003.6558,3.4968969189303105,598.9675432724283,0,0
0.64,7.472672500000002,-6.233845,1.1646898,1003.6409,3.602440605641675,615.4308020569042,0,0
0.66,7.276650999999997,-6.629468400000001,1.5813128,1003.67395,3.7034523884272255,631.3754128514624,0,0
0.68,7.348304700000001,-6.3387074,1.5813088,1003.64667,3.799810361921125,646.8042474752688,0,0
0.7000000000000001,7.434289,-6.276741,1.2972398,1003.639,3.8916746046895785,661.7217708579531,0,0
0.72,7.343423,-6.1766424,0.79065406,1003.68475,3.978847623446468,676.1339612438043,0,0
0.74,7.3816147,-6.1528077,0.7764466,1003.62225,4.061588214511862,690.0475305082648,0,0
0.76,7.4293637000000015,-6.1575727,0.33614242,1003.6402,4.140144174228387,703.4704939205121,0,0
0.78,7.252461,-6.4006667,0.24144976,1003.6555,4.214762894564358,716.4116904134603,0,0
0.8,7.596558,-6.062239599999999,0.023662612000000003,1003.6305,4.285723416011095,728.8805193491405,0,0
0.8200000000000001,7.6399794,-6.128981,-0.33138084,1003.6611,4.353364817810183,740.887186687051,0,0
0.84,7.6064906,-6.138514,-0.018912852,1003.6564,4.4177765171443335,752.4422471147551,0,0
0.86,7.687716,-5.985983,-0.075728625,1003.60645,4.479038494291783,763.5564896390613,0,0
0.88,7.816739,-5.985982,-0.07573153,1003.61664,4.537509080775299,774.2412508748378,0,0
0.9,7.893186,-6.0145807,-0.06153102,1003.6142,4.59346484170762,784.5080485196202,0,0
0.92,7.821457,-6.0574794,-0.023658685,1003.6017,4.6469328153650284,794.3685280638797,0,0
0.94,7.740167,-6.095611,0.06629191,1003.61707,4.6979261213014665,803.8345425401571,0,0
0.96,7.711456,-6.162342,0.056820206,1003.64777,4.746588560747969,812.9180405502514,0,0
0.98,7.7162085,-6.0860763,0.15150577,1003.6128,4.792927522519109,821.6307205259897,0,0
1.0,7.864349000000002,-6.0241102999999985,0.13256505,1003.6206,4.837210117708596,829.9844081186586,0,0
1.02,7.725703,-5.990743599999999,0.08521809,1003.6511,4.8792446342881055,837.9909265663135,0,0
1.04,7.7161155,-6.0384083,-0.06628539,1003.6333,4.9191862800264925,845.6617988110228,0,0
1.06,7.630047,-5.990742,0.042603016,1003.62366,4.956932692571777,853.0084442267281,0,0
1.08,7.601336,-6.1718707,0.018928085,1003.61597,4.992791628863165,860.0421272088292,0,0
1.1,7.5869656,-6.1528034000000025,-0.033153277,1003.6217,5.026805613365664,866.7739759538619,0,0
1.12,7.5200179999999985,-6.1289697,0.08520413,1003.5987,5.058928390790712,873.2148065115389,0,0
1.14,7.4100504,-6.162335,-0.033158902000000004,1003.6192,5.089131416401544,879.3753802088606,0,0
1.16,7.4721546,-6.271965,0.113604546,1003.59686,5.117775829023693,885.2660604550623,0,0
1.18,7.519922999999999,-6.1861663,0.09466423,1003.6193,5.144901901212728,890.8971371829679,0,0
1.2,7.500774000000002,-6.3148627,0.23669362,1003.6223,5.170734212719733,896.2785671658862,0,0
1.22,7.586778999999999,-6.267196,0.25089398,1003.62506,5.1954049024268505,901.4200460729961,0,0
1.24,7.5054919999999985,-6.20523,0.3077041,1003.6176,5.218751543116354,906.3309680294556,0,0
1.26,7.4672227,-6.195696400000001,0.15146583,1003.6355,5.24076266387292,911.0205549852768,0,0
1.28,7.4671907000000015,-6.1861625,0.14672852,1003.628,5.261501630670229,915.4976608214937,0,0
1.3,7.5627546,-6.2052283,0.2461481,1003.6209,5.281224454179957,919.7708751994176,0,0
1.32,7.652356599999999,-6.1146336,0.042457562,1003.62897,5.299998409694453,923.8485765650332,0,0
1.34,7.795667,-6.0288334,0.009309068,1003.61365,5.3179901379700265,927.7387877560568,0,0
1.36,7.699992,-6.1956606,0.27442855,1003.6316,5.335292464081995,931.4493924885236,0,0
1.38,7.886331,-5.981164,0.12765522,1003.6418,5.351947868378872,934.9879754971727,0,0
1.4,7.9531740000000015,-5.8953643,0.13238287,1003.6016,5.367975995709051,938.3616764918253,0,0
1.42,7.7475595,-5.947794,0.13237524,1003.6147,5.3831166348585775,941.5775895753296,0,0
1.44,7.5945325,-6.07649,0.3170103,1003.6299,5.3973421260381365,944.6425586934427,0,0
1.46,7.666145299999997,-6.176585,0.4353628,1003.6199,5.410963358694698,947.5630838349111,0,0
1.48,7.637398200000002,-6.219483,0.33119956,1003.6506,5.424002896110821,950.345574908107,0,0
1.5,7.5178194,-6.157515,0.23176937,1003.6129,5.436201707958686,952.9959463907137,0,0
1.52,7.498626,-6.233778,0.10393372,1003.6358,5.4476792624763535,955.5201181057383,0,0
1.54,7.6754007,-6.1861115,0.10866094,1003.6511,5.458699853719696,957.9237477679536,0,0
1.56,7.7661433,-6.0621785999999975,0.11338858,1003.61584,5.4692647969664145,960.2120864695222,0,0
1.58,7.8425410000000015,-6.019278,-0.0049787425,1003.6463,5.479458732699484,962.390425714938,0,0
1.6,7.6273713,-6.176572,0.19859348,1003.63635,5.489143530411578,964.4636915996136,0,0
1.62,7.5747149999999985,-6.209936,0.4163689,1003.63885,5.498316755598347,966.4366599055544,0,0
1.64,7.5985355,-6.114603,0.3122048,1003.6715,5.506910433753525,968.3140201250236,0,0
1.66,7.579347599999997,-6.1575003,0.3027297,1003.6345,5.514985500819262,970.1000093424964,0,0
1.68,7.660520599999999,-6.186098,0.37847254,1003.647,5.522747131084695,971.7988785814224,0,0
1.7,7.6413226,-6.257594,0.39740294,1003.63983,5.530268163294159,973.4146268660443,0,0
1.72,7.579107,-6.200394,0.17014432,1003.622,5.537360619810631,974.9510485936188,0,0
1.74,7.488217,-6.2289915,0.13226233,1003.6348,5.54393974626874,976.411892337166,0,0
1.76,7.5789595,-6.2051563,0.17959963,1003.6532,5.550157098812956,977.8007625765507,0,0
1.78,7.660132400000001,-6.1956215,0.22220163,1003.6202,5.556152543831407,979.1209182947957,0,0
1.8,7.545348,-6.138421,0.24113293,1003.6204,5.561671153085136,980.3756060215757,0,0
1.82,7.699789999999999,-6.1861234000000005,0.13711227,1003.6354,5.56705629175246,981.5679833552803,0,0
1.84,7.6185174,-6.233788,0.3548934,1003.6354,5.572246604681716,982.7010106672632,0,0
1.86,7.6854179999999985,-6.152756,0.24600057,1003.60815,5.5772413049460985,983.777419301729,0,0
1.88,7.690182000000001,-6.0669580000000005,0.14184226,1003.6159,5.581937727986597,984.7999525016568,0,0
1.9,7.632808,-6.100323,0.19391918,1003.62585,5.58630528661689,985.771236068107,0,0
1.92,7.699708,-6.1289225,0.14657354,1003.6309,5.590510578599268,986.6937570175772,0,0
1.94,7.7427106,-6.1622879999999975,0.36435476,1003.63916,5.594682140379389,987.5698999792656,0,0
1.96,7.8287309999999986,-6.21472,0.34068125,1003.5963,5.599014779106463,988.4017549402882,0,0
1.98,7.675761,-6.128921,0.5489936,1003.64417,5.603134135635785,989.1916546780627,0,0
2.0,7.5036710000000015,-6.176586,0.44483513,1003.62445,5.606824034145254,989.9415681495192,0,0
2.02,7.494096000000001,-6.1861190000000015,0.26492628,1003.63983,5.6101047828705655,990.6535054355603,0,0
2.04,7.283769,-6.548377,0.42116025,1003.6268,5.613183816717203,991.3292770819376,0,0
2.06,7.1212344,-6.5245442,0.12762518,1003.6602,5.615773022771704,991.970780231182,0,0
2.08,7.2024784,-6.4482784,0.17496806,1003.61975,5.617940383565941,992.5795487050219,0,0
2.1,7.2359214,-6.424445,0.04240334,1003.64294,5.619743019602134,993.1572847371688,0,0
2.12,7.2024465,-6.2862144,-0.094895914,1003.6199,5.620975616107379,993.7054377101199,0,0
2.14,7.0112386,-6.572208,0.3217303,1003.6251,5.621814349297832,994.2254964612632,0,0
2.16,7.183296,-6.534075,0.38801056,1003.6505,5.622515930590013,994.7189503865128,0,0
2.18,7.369691400000002,-6.576974000000001,0.610526,1003.6204,5.623464381107353,995.1870114934717,0,0
2.2,7.6086649999999985,-6.529308,0.63419646,1003.61804,5.624938565499333,995.6309419902043,0,0
2.22,7.7042413,-6.443509,0.6152571,1003.628,5.626905763214874,996.0519883859523,0,0
2.24,7.532152000000001,-6.534073,0.3548633,1003.62054,5.629125259058477,996.451271767046,0,0
2.26,7.5560399999999985,-6.3672433,0.13707964,1003.6209,5.631360947442229,996.8298892242192,0,0
2.28,7.498660000000001,-6.429208,0.056592785,1003.6136,5.633593796552125,997.1888569681697,0,0
2.3,7.560782400000001,-6.3958416,0.20809232,1003.6239,5.6358736419813535,997.5292070216394,0,0
2.32,7.7459183,-6.290946,0.3736797,1003.62427,5.638353927166477,997.8518825556073,0,0
2.34,7.7745314,-6.257579,0.35000163,1003.62897,5.6410032500667455,998.1577961722212,0,0
2.36,7.956102,-6.3290760000000015,0.0943381,1003.62897,5.644168065089415,998.4477976696409,0,0
2.38,7.874783,-6.1765447,0.17955172,1003.6343,5.647450267232988,998.7227144011504,0,0
2.4,7.7456627,-6.3433723,0.34998426,1003.64417,5.650841189258102,998.9833480652679,0,0
2.42,7.5352893,-6.391036,0.2505561,1003.6216,5.654037388288888,999.2303416778476,0,0
2.44,7.2388678,-6.429167,0.3357686,1003.6395,5.656642157246416,999.4644582038825,0,0
2.46,7.085852,-6.557862299999999,0.40677902,1003.63214,5.6586647143259325,999.6863272207527,0,0
2.48,7.0762267,-6.5101953,0.4257106,1003.6016,5.6600854327388666,999.8964656660646,0,0
2.5,7.076160400000001,-6.5626254,0.35468847,1003.63214,5.661037057675824,1000.0955924239444,0,0
2.52,7.2433963000000015,-6.510192,0.13216618,1003.6016,5.661742310703603,1000.2841624544808,0,0
2.54,7.300688,-6.5626225000000025,0.028003238,1003.6171,5.662386959517393,1000.4627815086267,0,0
2.56,7.396222,-6.381492,-0.12350337,1003.58466,5.662877466728276,1000.6318480674388,0,0
2.58,7.501308,-6.3052254,-0.22766669,1003.60254,5.6632973948163965,1000.7919297697628,0,0
2.6,7.376967,-6.4291544,0.032719534,1003.5997,5.663619217456647,1000.9434859347647,0,0
2.62,7.4916205,-6.314755,0.17001161,1003.62756,5.6638823454713165,1001.0870636287954,0,0
2.64,7.496351,-6.319521,0.09899104,1003.6351,5.664104538915888,1001.2231018101774,0,0
2.66,7.524947599999999,-6.371951,0.2410156,1003.61755,5.664410576522531,1001.3519251607297,0,0
2.68,7.4388447,-6.3767157,0.35463533,1003.6303,5.6646670085739945,1001.473955622699,0,0
2.7,7.467461599999999,-6.3290486,0.1841911,1003.6102,5.664849949557492,1001.5894722186536,0,0
2.72,7.357460499999997,-6.424378400000001,0.1273722,1003.6152,5.664921315791771,1001.6988353028518,0,0
2.74,7.271362299999999,-6.4291434,0.07055368,1003.59796,5.6647647503746725,1001.802305372959,0,0
2.76,7.400346799999999,-6.371943,0.1084225,1003.6209,5.664531909174622,1001.9002784675633,0,0
2.78,7.500661,-6.357641,0.13682328,1003.61536,5.664372455959343,1001.9930217874719,0,0
2.8,7.6487727,-6.3099747000000015,0.1320832,1003.6056,5.6644508781776866,1002.0807750665086,0,0
2.82,7.553111,-6.3814715999999985,0.032654684,1003.58307,5.664680095797556,1002.1637221256261,0,0
2.84,7.4670086,-6.3957696,0.17468077,1003.5906,5.664927788696505,1002.2421509074097,0,0
2.86,7.2996539999999985,-6.457733,0.26936322,1003.6334,5.665017618954142,1002.3164590757273,0,0
2.88,7.318707000000002,-6.481564,0.037371363,1003.6134,5.665022534253192,1002.3867867605801,0,0
2.9,7.347316,-6.3051996,0.06577137,1003.5984,5.664756648195207,1002.4532901105777,0,0
2.92,7.5623455,-6.2575325999999984,0.1557194,1003.59863,5.664532472736707,1002.5161756942374,0,0
2.94,7.342408,-6.3957615,0.17465097,1003.61597,5.664184109992406,1002.5757006554601,0,0
2.96,7.566992999999999,-6.295662,0.1462385,1003.591,5.663946848580327,1002.6319519888368,0,0
2.98,7.552588,-6.267061,0.1557013,1003.60846,5.663747900871442,1002.6851710958484,0,0
3.0,7.509512400000001,-6.276593,-0.05735219,1003.61597,5.663525186436663,1002.7355463748593,0,0
3.02,7.447304700000001,-6.5816507,0.1746272,1003.60596,5.663600377624768,1002.7831914604434,0,0
3.04,7.571513,-6.2670565,0.14148039,1003.6235,5.663708589774549,1002.828315768808,0,0
3.06,7.4854155,-6.615013,-0.03843267,1003.6014,5.664177766734074,1002.8709707109114,0,0
3.08,7.3228396999999985,-6.448182,0.051515337,1003.6014,5.664481542135644,1002.9112901631944,0,0
3.1,7.2701964000000014,-6.6102440000000025,-0.0005691126,1003.60614,5.664780867230463,1002.9494178906443,0,0
3.12,7.0949100000000005,-6.6150484,-0.099848226,1003.6213,5.6648149877300495,1002.9855263262127,0,0
3.14,7.2573996,-6.4815845,0.13686983,1003.5992,5.664678070867959,1003.0196409651066,0,0
3.16,7.4629064,-6.5101830000000005,0.013773033,1003.6217,5.664748113255224,1003.0519520725592,0,0
3.18,7.286028,-6.5626144,0.08005236,1003.5914,5.664798603421963,1003.0824441796426,0,0
3.2,7.180847,-6.5387816,0.25048864,1003.5738,5.664642376862282,1003.111155886415,0,0
3.22,7.2334,-6.4529830000000015,0.33097118,1003.61414,5.664270830403337,1003.1383362933279,0,0
3.24,7.348089999999999,-6.40055,0.44459462,1003.6221,5.663826448510152,1003.1640944502202,0,0
3.26,7.367186999999999,-6.37195,0.21734114,1003.6092,5.663294289801301,1003.1884567376294,0,0
3.28,7.4245195000000015,-6.309984,0.19840123,1003.6016,5.662692280780681,1003.2114705705287,0,0
3.3,7.5535507,-6.2813845,0.4114473,1003.617,5.662211454025433,1003.2332654992247,0,0
3.32,7.5774225999999985,-6.1336203000000005,0.26467827,1003.59174,5.661672550964121,1003.2538140064232,0,0
3.34,7.658655599999999,-6.3290486,0.117909566,1003.5945,5.661466117730613,1003.2731971369606,0,0
3.36,7.754225999999999,-6.3767138,0.15578249,1003.5846,5.661771546386205,1003.2914451214103,0,0
3.38,7.6538233999999985,-6.50541,0.38776588,1003.61206,5.662552668819598,1003.3087232540332,0,0
3.4,7.496066000000001,-6.4148445,0.03741775,1003.57666,5.6633642678244565,1003.3249547843042,0,0
3.42,7.1757965,-6.3719454,-0.16142942,1003.61224,5.6636421587218475,1003.3403311912281,0,0
3.44,6.960678,-6.786635,-0.0004621185400000001,1003.60205,5.663704551784935,1003.3548599720976,0,0
3.46,7.3621564,-6.519707,0.20784938,1003.62476,5.663814535087964,1003.3686692429744,0,0
3.48,7.3764725,-6.5435395,0.15576877,1003.61224,5.664019289315224,1003.3817479694465,0,0
3.5,7.041861,-6.672236,0.26465777,1003.5872,5.6639800862670375,1003.3940439594674,0,0
3.52,7.142213000000001,-6.5673710000000005,0.50137585,1003.60474,5.663748620248728,1003.4056672019952,0,0
3.54,7.548471000000001,-6.348109,0.12735556,1003.60724,5.663656079983162,1003.416663161166,0,0
3.56,7.601023700000002,-6.3624077,0.19836932,1003.6026,5.663791823667376,1003.4270485633093,0,0
3.58,7.6153383,-6.348108,0.023194024,1003.5972,5.664128501815448,1003.4368376498147,0,0
3.6,7.643993400000001,-6.467271,0.2457089,1003.60974,5.6648526139707975,1003.4461097351117,0,0
3.62,7.692112400000001,-6.11932,0.11790939,1003.5922,5.6655302068229245,1003.4548284746339,0,0
3.64,7.6299649999999986,-6.386247,0.20786211,1003.63745,5.666418010895983,1003.4631897903669,0,0
3.66,7.319265400000001,-6.414846,0.33568993,1003.6304,5.667044056439749,1003.4711798057033,0,0
3.68,7.467428699999997,-6.3624134,0.30254814,1003.59973,5.6675959773181965,1003.478702563954,0,0
3.7,7.2236476,-6.715139,0.16051494,1003.5847,5.668182400376793,1003.485731263914,0,0
3.72,7.032444,-6.634106599999999,0.046888247,1003.62756,5.6683895187613125,1003.4924524066486,0,0
3.74,7.706384,-6.1002519999999985,0.018480701,1003.5822,5.668594729269067,1003.4987142997052,0,0
3.76,7.763732400000001,-6.262315,0.018479789,1003.59973,5.6691009109311405,1003.5046109649304,0,0
3.78,7.830638,-6.1908164,-0.36027363,1003.59265,5.669900612814069,1003.5101381988502,0,0
3.8,7.744588999999999,-6.166983,-0.2040394,1003.615,5.670776756040152,1003.5153995652257,0,0
3.82,7.548607,-6.1669827,-0.10935219,1003.60974,5.671397127671912,1003.5203881341204,0,0
3.84,7.6489716,-5.9953866,0.013741285,1003.6001,5.671728035128599,1003.5250829963127,0,0
3.86,7.6632996,-6.0716515,0.08475631,1003.57733,5.671924227555617,1003.5294194657592,0,0
3.88,7.524674,-6.143149,0.19838096,1003.6076,5.671872736456361,1003.5335326200853,0,0
3.9,7.644158,-6.25278,-0.10462199,1003.62,5.6719360067502045,1003.5374782858156,0,0
3.92,8.040872,-6.1193155999999975,-0.16617025,1003.5947,5.672577665956249,1003.5411706742261,0,0
3.94,7.491181,-6.2480125,0.40669167,1003.615,5.673015869257116,1003.544699054198,0,0
3.96,7.170924,-6.2909117,0.4256283,1003.595,5.672826940377929,1003.5479978141465,0,0
3.98,7.3764443,-6.1097817,0.19364145,1003.6278,5.672149748769617,1003.5511998863057,0,0
4.0,7.663222,-6.0573497000000005,0.042139553,1003.62494,5.6714345189411475,1003.554294701675,0,0
4.02,7.754026,-6.0621160000000005,0.10368568,1003.62036,5.6708436975620025,1003.5572671156093,0,0
4.039999999999999,7.730115,-6.0859485,0.032668527,1003.62286,5.670355383101894,1003.5601296749452,0,0
4.06,7.883058,-5.976317400000001,-0.114099026,1003.6151,5.670072900440253,1003.5628569255448,0,0
4.079999999999999,7.868708,-5.981084,-0.08569357,1003.6075,5.669954946051472,1003.5654274392427,0,0
4.1,7.7922187,-5.976317,-0.30347729999999995,1003.6001,5.669859393680153,1003.5678235663652,0,0
4.119999999999999,7.576608699999999,-6.1622,-0.07627339999999999,1003.62286,5.6696626528188165,1003.5701389154513,0,0
4.14,7.7295303,-6.119299400000001,0.1320375,1003.6354,5.669570524160672,1003.5724196978081,0,0
4.159999999999998,7.848994,-5.9858356,-0.04787274,1003.59534,5.6695954258136885,1003.5745175101863,0,0
4.18,7.805948,-5.9334025000000015,-0.08101614,1003.5975,5.6695868976740265,1003.5764538741672,0,0
4.199999999999998,7.6625223,-5.9429349999999985,-0.024206173,1003.6076,5.669323846295002,1003.578276971434,0,0
4.22,7.600351,-6.0144324000000005,0.042072408,1003.6003,5.6688268965451645,1003.5799671430817,0,0
4.239999999999998,7.743713400000002,-6.0239654,0.20777364,1003.61285,5.668376106735166,1003.581578957034,0,0
4.26,7.848839,-5.942933,0.108348444,1003.61755,5.6680351851952935,1003.5831326515973,0,0
4.2799999999999985,7.648055999999999,-5.9333987,0.10834555,1003.61554,5.6674493082288615,1003.5846221625676,0,0
4.3,7.834439,-6.0573287,-0.08576777599999999,1003.6151,5.667112607659974,1003.5860480146756,0,0
4.3199999999999985,7.786611,-6.4481854000000025,0.15094975,1003.61536,5.667428901994728,1003.5874134207457,0,0
4.34,7.76745,-6.3719196,0.15094595,1003.61285,5.668189506666813,1003.5887114652344,0,0
4.3599999999999985,7.867804,-6.147891,-0.27041808,1003.62036,5.6692169995115185,1003.5899723520698,0,0
4.38,7.4662666,-6.1145239999999985,-0.6065639,1003.60535,5.669813521547228,1003.5911418312102,0,0
4.4,7.4518976,-6.057325,-0.3793152,1003.61536,5.669904775883322,1003.5922623683864,0,0
4.42,7.7529936,-6.081157,0.19827928,1003.60785,5.670057792662227,1003.5933085905086,0,0
4.44,7.647806,-6.114522,-0.047912646,1003.595,5.670132586267827,1003.5942391214502,0,0
4.46,7.2988505,-6.247985,0.22668007,1003.6178,5.669761268307546,1003.5951461577527,0,0
4.48,7.327491999999999,-6.2813497000000025,0.094113305,1003.57996,5.669082824636679,1003.595892944862,0,0
4.5,7.2031913,-6.228917,0.042032503,1003.57745,5.6678677948483,1003.5964864113504,0,0
4.52,7.389572,-6.281348,-0.17101860000000002,1003.6025,5.666550979835508,1003.5970324472584,0,0
4.539999999999999,7.967892,-5.942922,-0.13788104,1003.6075,5.66564995979991,1003.5975526077766,0,0
4.56,8.096922,-5.8618903,-0.04319532,1003.62286,5.665234164726006,1003.5981033282224,0,0
4.579999999999999,7.939156,-5.928621,0.12724036,1003.6053,5.6650680927975765,1003.5986158528267,0,0
4.6,7.8483043000000015,-5.9858184,0.17931552,1003.6075,5.665045849243648,1003.5991007024973,0,0
4.619999999999999,7.8691497,-6.128858,0.39252174,1003.62067,5.665379244530867,1003.5996067651367,0,0
4.64,7.711447200000001,-6.228956,0.21735163,1003.61035,5.6658870710344384,1003.6000925977304,0,0
4.659999999999998,7.835767,-5.990629,0.15580850000000002,1003.62573,5.666441865899844,1003.6006141740587,0,0
4.68,8.050895,-5.9620304000000015,0.26470307,1003.6125,5.667362429344196,1003.6011178278757,0,0
4.699999999999998,8.113072,-5.890534,0.29311317,1003.5776,5.668620851613348,1003.601478192208,0,0
4.72,7.840659,-6.081197,0.042193007000000005,1003.60986,5.669949566494845,1003.60182678464,0,0
4.739999999999998,7.7498710000000015,-6.0239987,-0.014617253,1003.60504,5.671113488345107,1003.602146368488,0,0
4.76,7.6543199999999985,-6.0716660000000005,0.14162225,1003.6282,5.6720347077548094,1003.6025225458501,0,0
4.7799999999999985,7.458386,-6.2909284,0.2978611,1003.605,5.672718816325017,1003.6028638550017,0,0
4.8,7.429745,-6.2480297,0.023269095,1003.61035,5.673078591895234,1003.6031923858902,0,0
4.8199999999999985,7.6735535000000015,-6.109801,0.08008544,1003.6,5.6733613507110565,1003.603471183194,0,0
4.84,7.6401324000000015,-6.1955996,0.17004259,1003.61035,5.673634967929533,1003.6037422922324,0,0
4.8599999999999985,7.501557000000001,-6.2527995,0.06115479400000001,1003.59265,5.673749883327942,1003.6039419119264,0,0
4.88,7.501592,-6.214668,0.046954833,1003.6025,5.673673395971368,1003.604113105005,0,0
4.9,7.616333999999997,-6.162236,-0.00038681552,1003.5975,5.6735433213193645,1003.6042405640312,0,0
4.92,7.707197,-6.1193385000000005,0.1747905,1003.5974,5.673461193353843,1003.6043285607968,0,0
4.94,7.611636999999999,-6.133639,0.10851212,1003.6026,5.673283214537737,1003.6044000919194,0,0
4.96,7.73117,-6.090741,0.08957797,1003.6025,5.6731595257660254,1003.6044564564886,0,0
4.98,7.659511599999999,-6.17654,0.2221448,1003.6125,5.673083299808321,1003.6045352169783,0,0
5.0,7.602189,-6.20514,0.1558664,1003.61,5.672991576152206,1003.6046244829663,0,0
5.02,7.5735483,-6.267106,0.1842763,1003.5976,5.672923291840084,1003.6046780702544,0,0
5.039999999999999,7.501889699999999,-6.228975,0.07538846,1003.6126,5.672707735196396,1003.6047539389294,0,0
5.06,7.683560400000001,-6.105045,0.13693923,1003.62286,5.672494896137112,1003.6048861583104,0,0
5.079999999999999,7.588002,-6.2289767,0.13220829,1003.6051,5.672292421060115,1003.6050037571856,0,0
5.1,7.4876647,-6.205145,-0.005085971,1003.61,5.671905583433516,1003.605125654026,0,0
5.119999999999999,7.524309599999999,-6.2813706,-0.12832631,1003.595,5.671518848400542,1003.6051969097192,0,0
5.14,7.6772366,-6.295669599999999,0.15573554,1003.62756,5.671398231651268,1003.605340378375,0,0
5.159999999999998,7.4573407,-6.295669,0.2314837,1003.60474,5.671165016838032,1003.605464985917,0,0
5.18,7.658067699999997,-6.166971,0.023167636,1003.6023,5.6709792229894616,1003.6055636951919,0,0
5.199999999999998,7.901811,-6.023974,0.07524365,1003.59973,5.6710520018411135,1003.6056299134044,0,0
5.22,7.533742399999999,-6.3814654000000015,0.2504145,1003.6025,5.67122821349398,1003.6056771561286,0,0
5.239999999999998,7.5145955,-6.329033,0.117848545,1003.6023,5.6713893306496574,1003.6057067420379,0,0
5.26,7.930412,-5.9095745000000015,0.089439705,1003.595,5.671671764450103,1003.605694339876,0,0
5.2799999999999985,7.6435966,-6.06687,0.09417167,1003.5947,5.671787246705692,1003.605643801702,0,0
5.3,7.433259,-6.2051,0.1699197,1003.6,5.6715992720825446,1003.6055788284856,0,0
5.3199999999999985,7.6196446,-6.243232,0.22199571,1003.6025,5.6714949817148845,1003.6055103343688,0,0
5.34,7.4905643,-6.3099627,0.193587,1003.59973,5.671346056998553,1003.6054290037634,0,0
5.3599999999999985,7.4761972,-6.2527637,0.1746468,1003.60724,5.671058200413665,1003.6053636596272,0,0
5.38,7.6721460000000015,-6.2003307,0.05155012,1003.61475,5.670891042452115,1003.6053397123736,0,0
5.4,7.562182000000001,-6.2432294000000015,-0.11415662,1003.60223,5.670711631662595,1003.6053073576156,0,0
5.42,7.4331026,-6.3480926,0.1983118,1003.6125,5.670459537588411,1003.6053046624644,0,0
5.44,7.6481667,-6.190796,-0.014738854,1003.612,5.670274663562902,1003.6053263842437,0,0
5.46,7.9014716,-6.095464,0.0988846,1003.6221,5.670441080752301,1003.6054059626243,0,0
5.48,7.4999394,-6.233693,0.04680355,1003.62726,5.670444618201362,1003.6055549526164,0,0
5.5,7.5190353,-6.1621947,0.013660591,1003.5972,5.670240025551252,1003.6056565223438,0,0
5.52,7.7723369999999985,-6.133595,0.25984704,1003.6145,5.670232354246986,1003.6057781058746,0,0
5.539999999999999,7.581119500000002,-6.2146254,0.25037596,1003.61957,5.670194127019035,1003.6059351879013,0,0
5.56,7.604992,-6.195558,0.09887255,1003.61456,5.670136771944814,1003.6061050349035,0,0
5.579999999999999,7.437674,-6.1764917,0.08466704,1003.6221,5.669768697514633,1003.6063126935893,0,0
5.6,7.38507,-6.472018,0.04678938,1003.59955,5.669442369931392,1003.6064718351068,0,0
5.619999999999999,7.222911999999999,-6.476793,0.2456669,1003.6321,5.6689147091156125,1003.6067047139453,0,0
5.64,7.767798,-6.052569,-0.16149294,1003.6017,5.6685106682555935,1003.6068924687168,0,0
5.6599999999999975,8.131052,-6.0478024,0.094163865,1003.6042,5.668810228058407,1003.6070486759456,0,0
5.68,7.4140697,-6.367161,-0.005259670300000001,1003.6064,5.668979753284974,1003.6071843654196,0,0
5.6999999999999975,7.5239944,-6.1097665,-0.047870297,1003.61414,5.66886643073764,1003.6073293009233,0,0
5.72,7.868128299999999,-6.038268,0.2030521,1003.59955,5.668977022011387,1003.6074293604507,0,0
5.7399999999999975,7.5717690000000015,-6.1383653,0.28353596,1003.5914,5.668934519840679,1003.6074600673517,0,0
5.76,7.676914,-6.1478987,0.25512853,1003.6092,5.668937810227244,1003.607493463727,0,0
5.7799999999999985,7.5574080000000015,-6.1955633,0.14623618,1003.5939,5.668846326936169,1003.6074740362947,0,0
5.8,7.3901033,-6.3576264,0.09415668,1003.6139,5.6686204447536745,1003.6074800036847,0,0
5.8199999999999985,7.710339,-6.143131,-0.0431421,1003.6214,5.668504247420003,1003.6075353884577,0,0
5.84,8.001897,-5.976301,-0.09522152,1003.5914,5.668754155148629,1003.6075262390443,0,0
5.8599999999999985,7.743775,-6.209862,0.12256004,1003.6089,5.669200144856975,1003.6075231001623,0,0
5.88,7.409178,-6.2146287,-0.06681718,1003.5913,5.669285225467679,1003.6074619234855,0,0
5.9,7.7724313999999985,-6.043032599999999,0.07994831,1003.5836,5.6694146168668755,1003.6073219648492,0,0
5.92,7.719842999999999,-6.1526628,0.3356052,1003.5963,5.669648932774629,1003.6071586183248,0,0
5.94,7.471282,-6.209861,0.18410318,1003.5914,5.669641240542432,1003.6069575543097,0,0
5.96,7.547747599999999,-6.243227,0.24564947,1003.6163,5.669589123361607,1003.6068135269506,0,0
5.98,7.5429564,-6.143128400000001,0.16042915,1003.6242,5.6693545943763874,1003.6067488556794,0,0
6.0,7.5429460000000015,-6.205094,0.16042815,1003.5985,5.669041279840242,1003.6066620162633,0,0
6.02,7.5955114,-6.143128,-0.014745925,1003.61847,5.668660017624657,1003.6066277936967,0,0
6.039999999999999,7.8058124000000015,-6.1335955,0.10834761,1003.5936,5.668550736231055,1003.6065506545796,0,0
6.06,7.595488499999999,-6.238459,0.14148736,1003.5985,5.668478762707242,1003.6064535120993,0,0
6.079999999999999,7.777111,-6.1145277,-0.21832828,1003.6335,5.668575807232019,1003.6064650443599,0,0
6.1,7.9682918,-5.919099,-0.21832936,1003.60345,5.668890888031091,1003.6064643801061,0,0
6.119999999999999,7.926247999999997,-5.9858546,0.14157456,1003.61847,5.669407833492743,1003.6065070134027,0,0
6.14,7.778102,-6.095486,0.103701875,1003.626,5.669995209604144,1003.6066148589357,0,0
6.1599999999999975,7.4339843,-6.3481144999999986,0.24573658,1003.623,5.670426888549329,1003.606769137756,0,0
6.18,7.338414,-6.281383,0.05162837,1003.601,5.6704721953059245,1003.606884689626,0,0
6.1999999999999975,7.759063999999999,-6.248018,-0.019385118,1003.6034,5.67080412896842,1003.6069742463756,0,0
6.22,7.716074499999999,-6.238486,0.023227038,1003.61316,5.671306169259392,1003.6070756474326,0,0
6.2399999999999975,7.677864,-6.209887,-0.1614122,1003.62054,5.671860262911867,1003.6072137170758,0,0
6.26,7.625312299999999,-6.0954905,-0.13773775,1003.6209,5.6722235176276685,1003.6073849860312,0,0
6.2799999999999985,7.716156,-5.895295,0.032703366,1003.62054,5.672307468450817,1003.60758367733,0,0
6.3,7.9360547000000015,-5.866697,-0.03357574,1003.60046,5.672473994483293,1003.6077335957235,0,0
6.3199999999999985,7.897842999999999,-6.062126,0.47300798,1003.60785,5.6729170791867505,1003.6078664826716,0,0
6.34,7.8213940000000015,-6.152692,0.44460413,1003.6078,5.673590260397973,1003.6079836622407,0,0
6.3599999999999985,7.826202,-5.9429636,0.17474556,1003.6002,5.674188246230068,1003.6080591809247,0,0
6.38,7.854907499999999,-5.880999,0.08479427,1003.6152,5.674685268378839,1003.608151616182,0,0
6.4,7.749778999999997,-5.9810977,0.10846886,1003.6056,5.675043731704067,1003.6082241061572,0,0
6.42,7.6207523,-6.0525965999999976,0.18422186,1003.5902,5.675161301290863,1003.6082232715172,0,0
6.44,7.6159987,-6.190827400000001,0.06112976,1003.61005,5.675234624534077,1003.6082291102516,0,0
6.46,7.5777899999999985,-6.166995,-0.189791,1003.5925,5.675179157578691,1003.6081776445607,0,0
6.48,7.4535394,-6.214661,-0.15664792,1003.62476,5.674872547735388,1003.6081918659556,0,0
6.5,7.5348253,-6.2337284,-0.17084839999999998,1003.61505,5.67450089554892,1003.6082291212629,0,0
6.52,7.6065507,-6.2003636,-0.16611147,1003.6402,5.674144129135777,1003.6083771352156,0,0
6.539999999999999,7.5731196,-6.314761,-0.061952014000000014,1003.6402,5.6738969230238006,1003.6086224826577,0,0
6.56,7.530127999999999,-6.2956953,0.16056742,1003.60706,5.673655750752215,1003.6088336467196,0,0
6.579999999999999,7.654428500000002,-6.1527,-0.08561922599999999,1003.58936,5.67343019112872,1003.6089501261567,0,0
6.6,7.740492999999999,-5.995404,-0.08088225,1003.62006,5.673157063688158,1003.6090930429332,0,0
6.619999999999999,7.8930297,-6.0382924,0.1321278,1003.6243,5.6731496248941315,1003.6092740692424,0,0
6.64,7.873921000000001,-6.124091,0.20787922,1003.59174,5.6734571233053215,1003.60937090144,0,0
6.6599999999999975,7.797455,-6.019227,-0.024105687,1003.63214,5.673778223891668,1003.6095384311244,0,0
6.68,7.630172,-6.0525928,-0.024104744,1003.622,5.6738791039101635,1003.6097313220016,0,0
6.6999999999999975,7.6062818,-6.0335274000000005,0.12266262,1003.64435,5.673723054066408,1003.6100263876214,0,0
6.72,7.7449045,-6.052593,0.07058495,1003.6093,5.673590350616823,1003.6102844926075,0,0
6.7399999999999975,7.7305765,-6.0811934,0.10846126,1003.6044,5.673492713016621,1003.61049137,0,0
6.76,7.9074396999999985,-6.114559,0.023242883,1003.6216,5.673757742346795,1003.610714157932,0,0
6.7799999999999985,7.792734599999997,-6.0668940000000005,0.13213514,1003.61163,5.674094958397975,1003.61091431038,0,0
6.8,7.787964,-6.081194,-0.05250584,1003.5989,5.674503653274207,1003.6110479135657,0,0
6.8199999999999985,7.6015625,-6.1622257000000005,-0.009895157,1003.60925,5.6747754346642925,1003.611159492852,0,0
6.84,7.6398125,-6.209892,0.009043513,1003.6114,5.675049423271479,1003.6112589501347,0,0
6.8599999999999985,7.577686,-6.1669927000000015,0.05638855,1003.61646,5.675168267400541,1003.6113655543696,0,0
6.88,7.592034299999999,-6.1622267,0.023248509,1003.6264,5.675166212185505,1003.6115138738755,0,0
6.9,7.6780815,-6.133627400000001,0.0043119006,1003.62897,5.675159300160942,1003.6117077710452,0,0
6.92,7.7211089999999984,-6.0573625999999985,0.08006323,1003.6514,5.675120527152977,1003.6120219906084,0,0
6.94,7.5203667,-6.2146589999999975,0.14161138,1003.63855,5.6749352606379535,1003.6123951358484,0,0
6.96,7.4677997,-6.319524,0.21262841,1003.5959,5.674679894078058,1003.6126654644933,0,0
6.98,7.668562,-6.205127,0.12267567,1003.6061,5.674530187720093,1003.6128806912117,0,0
7.0,7.615991,-6.1193290000000005,-0.028824639,1003.6161,5.674275889566733,1003.6130824550515,0,0
7.02,7.4200315,-6.2051272000000015,-0.07143314,1003.61084,5.673728605863527,1003.6132526607423,0,0
7.039999999999999,7.534756,-6.2527933,-0.07143226,1003.6184,5.6731710236473045,1003.6134215849124,0,0
7.06,7.4343910000000015,-6.2527933,0.04219445,1003.60803,5.672445908864892,1003.6135514366032,0,0
7.079999999999999,7.4152822,-6.305226,0.20789954,1003.5984,5.6716198410483205,1003.6136116283853,0,0
7.1,7.2288795,-6.4577556,0.19369718,1003.6508,5.670623182500039,1003.613798691982,0,0
7.119999999999999,7.3195763,-6.3433557,0.065857366,1003.60065,5.669460275219171,1003.6139166460846,0,0
7.14,7.721086,-6.228958,0.12740518,1003.6209,5.668643616531714,1003.6140460104041,0,0
7.1599999999999975,7.816687,-6.195592,0.004311107,1003.64056,5.668246021662992,1003.6142557670787,0,0
7.18,7.496445,-6.3576555,0.08006205400000001,1003.593,5.667919656147604,1003.6143645873157,0,0
7.1999999999999975,7.520349499999999,-6.2480245000000005,0.12267217,1003.633,5.667549878463308,1003.6145278283624,0,0
7.22,7.725886,-6.138394,0.094266176,1003.638,5.667330285424796,1003.6147565679687,0,0
7.239999999999997,7.639854400000001,-6.3338230000000015,0.12267305,1003.5905,5.667361972650534,1003.6148713586407,0,0
7.26,7.5586023,-6.4148545,0.1132047,1003.638,5.667594194824543,1003.6150560507872,0,0
7.2799999999999985,7.692442,-6.3624225,0.13214279999999998,1003.628,5.668146494881268,1003.6152658429852,0,0
7.3,7.6494293,-6.3338230000000015,0.084799215,1003.6301,5.668871789663196,1003.6155046183363,0,0
7.3199999999999985,7.4343424,-6.3910217000000005,0.1463469,1003.6076,5.6694838192675725,1003.6156871436107,0,0
7.34,7.195357,-6.5054197,-0.05249768,1003.65015,5.669776224353996,1003.6159724892261,0,0
7.3599999999999985,7.142784,-6.638883,-0.066700414,1003.638,5.669892238818552,1003.6163039196506,0,0
7.38,7.420018700000001,-6.405322,0.0705978,1003.6276,5.669957336157067,1003.6166374374627,0,0
7.399999999999999,7.5681973,-6.195594,0.023254221,1003.6249,5.669931966347697,1003.6169618790273,0,0
7.42,7.7546144,-6.0907297,-0.099839896,1003.6374,5.669993675148781,1003.6173221328287,0,0
7.439999999999999,7.6924815,-6.0907297,0.17002165,1003.64496,5.670032711811516,1003.6177399494096,0,0
7.46,7.4678364,-6.300458,0.23156938,1003.6249,5.669968571425168,1003.6181349083224,0,0
7.479999999999999,7.420043,-6.3862567000000015,0.3925396,1003.6147,5.669864197521675,1003.618471528348,0,0
7.5,7.37703,-6.4100895,0.4493529000000001,1003.62976,5.6696945390377484,1003.6188096043007,0,0
7.52,7.534768,-6.3862567000000015,0.15582028,1003.6372,5.669665439162529,1003.6191745336367,0,0
7.539999999999999,7.467855499999999,-6.343358,0.17002392,1003.63715,5.669597420496602,1003.6195616968773,0,0
7.56,7.420063000000002,-6.3433585,-0.13297752,1003.6224,5.669418468487848,1003.6199140122077,0,0
7.579999999999999,7.286233,-6.438689,-0.047757763,1003.63666,5.66906054077075,1003.6202856035893,0,0
7.6,7.329257000000001,-6.5244875,-0.009882078,1003.6393,5.668730755971107,1003.6206823935615,0,0
7.619999999999999,7.391399000000002,-6.452989,0.023259198,1003.6213,5.668425685090464,1003.6210352205644,0,0
7.64,7.400964,-6.3528914000000025,0.056400508,1003.6189,5.668022691396871,1003.6213392917095,0,0
7.659999999999997,7.3675103,-6.290927,0.08480737,1003.6288,5.667398478524108,1003.6216348275236,0,0
7.68,7.338836,-6.2527943,0.19369915,1003.6363,5.666487537480763,1003.6219487575896,0,0
7.699999999999997,7.5873914,-6.2766275,0.05640189,1003.64166,5.665750337314073,1003.622297106669,0,0
7.72,7.5300384,-6.367192,0.37360746,1003.6163,5.665213001297812,1003.6225833183313,0,0
7.739999999999997,7.706896,-6.2861605,0.26471657,1003.64386,5.665022003857469,1003.62291281101,0,0
7.76,7.6208649999999984,-6.3290596,0.16056015,1003.6408,5.665051700381782,1003.6232683446216,0,0
7.7799999999999985,7.6638875,-6.224196,0.12268536,1003.60333,5.665205947587494,1003.6235107160795,0,0
7.8,7.678232,-6.1526976,0.15109226,1003.6313,5.665400417071402,1003.6237529169223,0,0
7.8199999999999985,7.649558,-6.1288643,0.13215508,1003.6563,5.66555168299762,1003.624084095086,0,0
7.84,7.6686830000000015,-6.224196,0.22684364,1003.62585,5.665823116458995,1003.6243830813693,0,0
7.8599999999999985,7.60177,-6.3338269999999985,0.30259457,1003.6334,5.666241268454652,1003.6246797265559,0,0
7.88,7.525298599999997,-6.410092,0.25051660000000003,1003.6385,5.666765111360598,1003.6249915952277,0,0
7.899999999999999,7.467946,-6.3957925000000015,0.13689134,1003.6539,5.667265895307306,1003.6253712326428,0,0
7.92,7.444051700000001,-6.2670949999999985,0.046938077,1003.6463,5.667531758780048,1003.6257820238256,0,0
7.939999999999999,7.4966345,-6.1908307,-0.00040554628,1003.65826,5.667571281407738,1003.6262619196286,0,0
7.96,7.687832000000001,-6.329061,0.10375185,1003.6354,5.667901177011781,1003.6267188526497,0,0
7.979999999999999,7.6065807,-6.4053260000000005,0.23631565,1003.63824,5.668462816361152,1003.6271640747974,0,0
8.0,7.7213,-6.391026,-0.014607359,1003.6508,5.669385378603461,1003.627642562418,0,0
8.02,7.9507356,-6.3862596,-0.038278904,1003.62317,5.6709869906199835,1003.6280492528548,0,0
8.04,7.6543927,-6.3433614,-0.0430129,1003.63574,5.67264926411096,1003.6284362912146,0,0
8.059999999999999,7.4871050000000015,-6.2241974,0.0658789,1003.6327,5.673933690446992,1003.6287936276607,0,0
8.08,7.6544027,-6.0001690000000005,-0.038277578,1003.62537,5.6748573777852025,1003.6290970450852,0,0
8.1,7.7547836,-5.909604,0.19844313,1003.64294,5.6755129957366215,1003.6294149793588,0,0
8.12,7.845860000000001,-5.7999800000000015,0.16059163,1003.60535,5.675942555720503,1003.6296092721576,0,0
8.139999999999999,7.353553999999999,-6.5197306,0.605627,1003.61,5.676353745718517,1003.6297103558946,0,0
8.16,7.5256433,-6.043075,0.0090934895,1003.6276,5.676342755724829,1003.6297920762033,0,0
8.18,7.6451525999999985,-6.1574725999999975,0.028032394,1003.6202,5.676301416866955,1003.6298297527941,0,0
8.2,7.692964599999999,-6.066909,-0.005107116,1003.6454,5.676193725513058,1003.6299190967192,0,0
8.219999999999999,7.898512400000001,-5.8953133,-0.19921625,1003.6251,5.676153818280847,1003.6299806922636,0,0
8.24,7.745572599999999,-6.105042,-0.18501173,1003.6425,5.6761864643550135,1003.6300801875943,0,0
8.26,7.549616,-6.128875,-0.15186948,1003.6525,5.675994846795804,1003.630248812993,0,0
8.28,7.6452274,-6.0526104000000025,0.037508104,1003.6374,5.675659344763786,1003.6304235546687,0,0
8.299999999999999,7.702598599999999,-6.009712,-0.18027331,1003.64734,5.675239878478117,1003.6306388556168,0,0
8.32,7.501863,-6.171776,0.046979602,1003.6401,5.674629526281719,1003.630863155654,0,0
8.34,7.683511699999999,-6.095511,0.11326274,1003.6347,5.674047900142472,1003.6310751598064,0,0
8.36,7.764781500000002,-6.085978,0.11326395,1003.6598,5.673614113139862,1003.6313658961003,0,0
8.379999999999999,7.841274,-6.090745,-0.033501204,1003.6298,5.673442725050499,1003.6316171534636,0,0
8.4,7.898648,-6.0812125,-0.29862633,1003.64166,5.673595199983343,1003.6318753187172,0,0
8.42,8.070735,-5.7713866,-0.46432918,1003.6523,5.6739499999560925,1003.6321769623883,0,0
8.44,7.8413186,-5.7999864,-0.16606046,1003.6372,5.674111993674697,1003.6324615776712,0,0
8.459999999999999,7.372913,-6.1288785999999975,-0.057167713,1003.6469,5.6737562350637365,1003.6327650420557,0,0
8.48,7.4063864,-6.248043,-0.024025492,1003.6394,5.673156337725433,1003.6330570690344,0,0
8.5,7.913059700000002,-5.814287,-0.36963573,1003.6369,5.672626793980332,1003.633328938624,0,0
8.52,7.559371,-6.0240154000000015,-0.12817961,1003.63654,5.671829742041818,1003.6335807224144,0,0
8.54,8.252457000000001,-5.7856884000000015,0.2931837,1003.6268,5.6716636209371325,1003.6337787879712,0,0
8.559999999999999,7.774491999999999,-5.4806294,-0.28441226,1003.60925,5.6708782090626135,1003.6338654950599,0,0
8.58,7.937019,-5.528295,0.32632726,1003.63885,5.669884523284381,1003.6339600536618,0,0
8.6,7.5450907,-6.076449,0.681409,1003.6341,5.668780182168275,1003.6340441094493,0,0
8.62,7.96557,-5.985881,0.6813958999999999,1003.62885,5.668154909344128,1003.6340996823486,0,0
8.639999999999999,8.233248,-5.7999854000000015,0.94178885,1003.6239,5.668220687603982,1003.6341120677063,0,0
8.66,8.448348,-5.5568914000000005,0.9891338,1003.6264,5.668991034058165,1003.6340952479643,0,0
8.68,8.515272999999999,-5.2613654,0.7524142,1003.6436,5.670126575721934,1003.6341146031481,0,0
8.7,8.228495,-5.342397,0.4494132000000001,1003.6239,5.6711299722655495,1003.6340949328168,0,0
8.719999999999999,7.941714,-5.6140914,0.63879025,1003.6189,5.67185850626295,1003.634022850354,0,0
8.74,7.693173,-5.7713876,0.21269456,1003.63617,5.672077766422984,1003.6339668880287,0,0
8.76,7.874813599999999,-5.53306,0.96546566,1003.64056,5.671956186641741,1003.633941174921,0,0
8.78,8.046896,-5.595025,1.112233,1003.58057,5.6719311714879055,1003.6337263185893,0,0
8.799999999999997,8.343253,-5.7618546,1.031749,1003.6264,5.672673431263888,1003.6335100967875,0,0
8.82,8.228546000000001,-5.6093254,0.8755144,1003.6256,5.673686043743437,1003.6332905668553,0,0
8.84,8.314589999999999,-5.347164599999998,0.65299815,1003.6486,5.674747075995219,1003.6331517041664,0,0
8.86,8.142528,-5.475862,0.92286,1003.6408,5.675740484450843,1003.6330565389596,1,1
8.879999999999997,7.999144,-5.695124,0.9938772,1003.62335,5.6766991232922495,1003.6329375074426,1,1
8.9,8.008712,-5.7284904,0.98440915,1003.6228,5.677677807496407,1003.6327958361676,1,1
8.92,8.0087185,-5.761856,0.870784,1003.6129,5.678688808206978,1003.6325990304184,1,1
8.94,7.831875,-5.804755,0.8755191999999999,1003.65814,5.679482297689009,1003.632517080349,1,1
8.959999999999997,8.266848,-5.8953204,0.31686040000000004,1003.64325,5.6808514221234185,1003.6324833077783,1,1
8.98,7.994406,-5.8047557,0.28845477,1003.6458,5.682153146869212,1003.6325014064273,1,1
9.0,8.247746000000001,-6.5578723,0.08961061,1003.65576,5.684749394512093,1003.6326011293297,1,1
9.02,6.5079036,-7.0821934,-0.85253525,1003.63794,5.686647826014529,1003.6327084644213,1,1
9.04,5.781384,-7.6303477,-2.0598075,1003.6358,5.688206290409213,1003.632814435236,1,1
9.06,5.231715,-7.7733445,-1.756805,1003.6229,5.688920211521152,1003.6328723790808,1,1
9.08,6.3358593,-7.844842999999999,-1.2312851,1003.6278,5.690185539676434,1003.6329053176978,1,1
9.1,7.0146,-8.254767,-0.27966893,1003.6072,5.693341608832728,1003.632841883116,1,1
9.12,8.224217999999999,-7.892517,0.21747352,1003.65,5.699330275630094,1003.6328476015401,1,1
9.14,9.361834,-6.867708,0.9276362,1003.63214,5.708313646554163,1003.6328501069742,1,1
9.16,9.596059,-6.1002927000000025,0.94184077,1003.62463,5.71941637976796,1003.6328227283908,1,1
9.18,10.738459,-5.790467,0.73352945,1003.6678,5.7340402132249615,1003.632924454852,1,1
9.2,11.813936,-5.423442400000001,0.07071471,1003.59674,5.753338305949797,1003.632884076316,1,1
9.22,14.892151,-4.0459085,1.4484285,1003.62714,5.7818937907925125,1003.6328277191666,1,1
9.24,16.722835999999994,-2.0487213,2.3148263,1003.62933,5.821657205473981,1003.6327653302003,1,1
9.26,14.834838,-4.107875,1.9076697,1003.6347,5.86807287509713,1003.6327171681212,1,1
9.28,12.444956,-6.1098294,0.6057104,1003.62714,5.916803703584478,1003.6326545343028,1,1
9.3,10.934559,-7.8782225000000015,1.012871,1003.6571,5.966652297402519,1003.6326871947373,1,1
9.32,10.576094,-9.413054,0.9039815,1003.6718,6.018706099931051,1003.6328568595959,1,1
9.34,9.883042,-11.243412,1.2069854,1003.6343,6.074248193016992,1003.6330119707707,1,1
9.36,9.108737,-13.321632,1.5005205,1003.68475,6.135144771908228,1003.6333352839099,1,1
9.38,5.63384,-14.44654,0.07546665,1003.6093,6.199095910007143,1003.633534436378,1,1
9.4,1.2221017,-14.923196,-1.4300722,1003.61676,6.2645491254468055,1003.6336500195274,1,1
9.42,-0.9813663,-14.041384,-3.1770654,1003.63434,6.329822853402313,1003.6337546327279,1,1
9.44,-0.63241905,-13.402665,-2.4858403,1003.6241,6.393073842779606,1003.6338123122744,1,1
9.46,2.1303277,-12.182427,-2.1970398,1003.61676,6.4520547410871885,1003.6338018895973,1,1
9.48,3.8845375,-12.177661,-3.9819088,1003.60114,6.508769465214615,1003.633675097317,1,1
9.5,6.5421295,-12.616185,-3.2812144999999995,1003.6014,6.565766214114487,1003.633446873308,1,1
9.52,10.614547,-13.335935999999998,-1.4158572,1003.63184,6.6280401773819975,1003.6332394298296,1,1
9.54,12.120205,-13.321635999999998,0.81404936,1003.6391,6.696676110539356,1003.6330772308247,1,1
9.56,11.436712,-12.187197,1.1454594,1003.634,6.768033706515148,1003.6329372337532,1,1
9.58,11.6135845,-10.709564,0.8803346,1003.6089,6.8396063845631945,1003.6327269982993,1,1
9.6,12.28278,-9.06987,0.6199444000000001,1003.6239,6.909986694561376,1003.6325094570584,1,1
9.62,12.899109,-6.6198525,1.3821591999999998,1003.64886,6.977570184085527,1003.6323760995724,1,1
9.64,13.60175,-2.5444462000000003,2.688856,1003.63385,7.041466760539963,1003.6322635709391,1,1
9.66,13.424907,-0.34229743,3.626269,1003.6415,7.101488411879336,1003.6321973917836,1,1
9.68,11.708968,-1.6578672,1.2732707,1003.6268,7.153679612465023,1003.6321194852713,1,1
9.7,12.421169,-3.340462,0.34059393,1003.6264,7.2007861035990794,1003.6320300569299,1,1
9.72,14.098889000000002,-6.3195605000000015,1.9881676,1003.61304,7.248864450065478,1003.6318826738426,1,1
9.74,15.05964,-8.416846000000001,2.6983294,1003.6059,7.301544388031707,1003.6316589085208,1,1
9.76,14.481294,-10.866857,1.9408253,1003.6184,7.35965326487968,1003.631413457412,1,1
9.78,15.164817,-14.727768,0.30745673,1003.6384,7.428445807177723,1003.6312217283653,1,1
9.8,16.331099,-17.787897,0.68147564,1003.6556,7.512698641498656,1003.6311400783577,1,1
9.82,15.838789000000002,-19.480024,2.3763933,1003.6484,7.612514937545245,1003.6311300681286,1,1
9.84,12.746264,-18.231186,2.2769718,1003.6455,7.719784663927647,1003.6311729548453,1,1
9.86,8.669103,-16.739254000000006,0.9797458,1003.67096,7.826010686653213,1003.6313540829103,1,1
9.88,6.03544,-12.811613,0.6862136999999999,1003.64856,7.921168186505041,1003.6315760689704,1,1
9.9,4.9313145,-10.599931,-0.11389987,1003.638,8.001033314398402,1003.6317953420047,1,1
9.92,3.3109712999999994,-9.0508,0.73355955,1003.6334,8.062887326958412,1003.6319948684263,1,1
9.94,-0.08267919,-8.755272999999999,0.75249803,1003.61053,8.106780528958664,1003.6320938964463,1,1
9.96,-3.0700462,-10.733395,-0.09969391,1003.5955,8.139584648633166,1003.6320496595777,1,1
9.98,-3.1465132,-11.705772,-0.895073,1003.5955,8.164530084296269,1003.6318789931059,1,1
10.0,1.499467,-12.063265,-0.87613434,1003.5654,8.182511080478115,1003.6314888678363,1,1
10.02,5.7630615,-15.7716465,-0.90927434,1003.573,8.203893858511972,1003.6309335932241,1,1
10.04,10.366023,-17.778368,1.1359894,1003.58276,8.236092920772847,1003.6302695276407,1,1
10.06,14.409747,-16.934687,2.9019234,1003.5955,8.281501941349754,1003.6295575889923,1,1
10.08,15.2987995,-18.41232,0.8471924999999999,1003.58276,8.341598983070266,1003.6287600486817,1,1
10.1,16.641932999999998,-19.551527,-1.7946045,1003.6103,8.418166082370266,1003.6279888858882,1,1
10.12,17.248629,-15.814538,-0.502143,1003.6178,8.504164990848265,1003.6272708064546,1,1
10.14,16.307002999999998,-12.134756,3.2001612,1003.63776,8.592307060780302,1003.6266740725639,1,1
10.16,16.469513,-9.203323,6.9640125999999976,1003.6253,8.681056560260531,1003.6261418518367,1,1
10.18,15.848135999999998,-4.5273314,6.301196,1003.63226,8.764899388410377,1003.6256936069356,1,1
10.2,11.570208,-3.4500892,1.9644804,1003.5723,8.8328538736876,1003.6251053207561,1,1
10.22,9.988089,-2.3108819,0.6625188,1003.6026,8.882452869925133,1003.6245044919333,1,1
10.24,9.792113,-2.015355,1.8839948,1003.5903,8.91544657442982,1003.623850463414,1,1
10.26,11.823525,-2.0248885,3.5410364000000003,1003.62787,8.938500330242944,1003.6232870341464,1,1
10.28,13.85016,-4.517798,3.7209432,1003.6028,8.957943874165235,1003.6227154347226,1,1
10.3,13.998329,-8.002151,2.3527,1003.61273,8.97674384575043,1003.6221744219067,1,1
10.32,14.763094,-11.005081,2.2201364,1003.6327,8.999588357083695,1003.6217342750637,1,1
10.34,15.0116415,-14.332137,2.0307598,1003.6223,9.030719185269193,1003.6213473979228,1,1
10.36,15.341444,-17.125339999999998,1.3821458999999998,1003.668,9.073590269415778,1003.6211735026487,1,1
10.38,16.842299,-20.80512,1.3111295,1003.6702,9.134508798918173,1003.6211963441752,1,1
10.4,18.108942000000006,-22.006292,2.4189801,1003.6776,9.214899874677686,1003.6214195801087,1,1
10.42,11.713562,-20.185469,2.7314506,1003.6777,9.301597940213425,1003.6218194408913,1,1
10.44,6.5179105,-15.752572,1.4484262,1003.64716,9.38027939641407,1003.6222639838916,1,1
10.46,5.3803134,-11.291075,0.5630923000000001,1003.6397,9.442055890683324,1003.6227195517444,1,1
10.48,4.2666154,-8.707600999999999,0.21274595,1003.64435,9.482809297970075,1003.623199961113,1,1
10.5,2.7705328,-7.811487700000002,0.26482403,1003.59717,9.501916503637275,1003.6235307429712,1,1
10.52,1.5277798,-6.958274,0.5441536,1003.56433,9.499442864433563,1003.623609899146,1,1
10.54,0.829925,-6.729479,1.0460001,1003.58734,9.477318795289591,1003.6235492699057,1,1
10.56,-0.75697345,-7.0393047000000015,0.48260567,1003.5969,9.438401039904186,1003.6233997605368,1,1
10.58,-1.4882873,-7.954484,-0.7436055,1003.58185,9.386925905852745,1003.6231180749209,1,1
10.6,0.7104187,-9.174723,-2.1686614,1003.5674,9.327299887189561,1003.6226685924408,1,1
10.62,5.0934944,-14.193907,-2.9735107000000003,1003.5642,9.272983053781305,1003.6220609427884,1,1
10.64,9.514811,-19.928072,-2.8125412,1003.5797,9.237875418343004,1003.6213715241616,1,1
10.66,17.941599,-25.63364,0.5725576,1003.58417,9.238641246681338,1003.620628428376,1,1
10.68,23.472982,-23.231325,2.153954,1003.61646,9.27484661524219,1003.6199568225978,1,1
10.7,24.170872,-12.344511,3.7873273,1003.65686,9.330405717036367,1003.6194962431708,1,1
10.72,23.492178,-4.9992480000000015,9.080396,1003.62646,9.399277737452577,1003.6191143447136,1,1
10.74,12.015905,-7.515991,4.0713983,1003.61926,9.456944912448238,1003.618777423596,1,1
10.76,7.6137424,-5.9954605,1.2923058,1003.6117,9.494175202187645,1003.6184542413713,1,1
10.78,8.067860000000001,-4.73709,1.9361881,1003.6088,9.512750503661222,1003.6181339222888,1,1
10.8,8.498078,-3.5597515,3.0961208,1003.60895,9.515120028634856,1003.6178178262272,1,1
10.82,9.262895,-3.2403934,3.8488955,1003.6042,9.50486863095291,1003.6174894995728,1,1
10.84,9.272491,-4.0030437,2.6132193,1003.61395,9.483276045459665,1003.6171866479424,1,1
10.86,9.726605,-5.4330115,1.055603,1003.59644,9.453317125440966,1003.6168443603093,1,1
10.88,10.266752,-6.619885000000001,-0.7339993,1003.5839,9.418249618193249,1003.6164233152596,0,0
10.9,10.008689,-7.5064654000000015,-2.6608977000000005,1003.5987,9.379943179812532,1003.6159874759185,0,0
10.92,9.076664,-8.297714,-2.3342204,1003.61145,9.33834483980913,1003.6155860333637,0,0
10.94,7.853069,-9.646651,-1.7992293999999998,1003.58624,9.294093526288982,1003.6151256730016,0,0
10.96,7.155257700000001,-10.180507,-1.6998034,1003.6184,9.247637826702872,1003.6147306861632,0,0
10.98,6.4383245,-10.256773,-1.3589228000000002,1003.6313,9.198626326802547,1003.6144413253227,0,0
11.0,4.540780000000002,-9.889749,-1.3589194,1003.639,9.144998944953977,1003.6142740573127,0,0
11.02,3.1164315,-9.174767,-2.2016401,1003.6059,9.085344597451282,1003.614096112693,0,0
11.04,4.273184,-7.840130999999999,-1.5577577,1003.5884,9.018765747161977,1003.6138463748213,0,0
11.06,5.5637584,-7.349176400000001,-0.8523288,1003.64124,8.94670945587223,1003.6137243234883,0,0
11.08,5.860149,-7.3491774,-0.22264911,1003.6365,8.870374464431064,1003.613698471366,0,0
11.1,6.5054617,-7.3444114,0.08509083,1003.61395,8.791384668074366,1003.6136765339336,0,0
11.12,7.093413000000001,-7.158517,-0.13268858,1003.6088,8.710888307063978,1003.6136395944964,0,0
11.14,7.7004857000000015,-6.8486914999999975,-0.19896683,1003.6163,8.629825967292517,1003.6136165322696,0,0
11.16,8.207183,-6.629431200000001,-0.39307398,1003.6337,8.549075351815981,1003.6136684549697,0,0
11.18,8.254199,-6.643711,-0.3552703,1003.6112,8.468982741757571,1003.6137054474292,0,0
11.2,8.316341,-6.2719197,-0.014392722,1003.5962,8.389374387349884,1003.6136751143564,0,0
11.22,8.450181,-6.3005195,0.25073445,1003.6309,8.310744909471671,1003.6137103216412,0,0
11.24,8.593579,-6.243321,0.5158615,1003.64624,8.233452827351831,1003.6138585376401,0,0
11.26,8.598366,-6.0097594,0.30281377,1003.6409,8.15733014312048,1003.6140868505612,0,0
11.28,8.263783,-6.090791,0.43064317,1003.59564,8.082057701919508,1003.6142221791963,0,0
11.3,7.742789299999999,-6.395851,0.5395349,1003.61566,8.0073552200998,1003.6143469317333,0,0
11.32,7.59462,-6.634179,0.48745695,1003.6187,7.933505665550761,1003.6144728341203,0,0
11.34,7.312616999999999,-6.8629737,0.6010831,1003.6282,7.86057324175337,1003.6146334992673,0,0
11.36,7.3460803,-7.2347655,0.49692664,1003.61066,7.789286967282322,1003.6147611583932,0,0
11.38,7.0306187000000016,-7.5779576,-0.11854552,1003.62054,7.719743593837474,1003.6148947618268,0,0
11.4,6.6577983,-7.020271000000001,-0.52570385,1003.62317,7.650643286596758,1003.6150426046784,0,0
11.42,6.4618316,-6.815309,-0.7576892,1003.61053,7.581627608105935,1003.6151569932448,0,0
11.44,6.2467456,-6.934473,-0.9612682,1003.60315,7.5128528188051025,1003.6152148418068,0,0
11.46,6.3423467,-7.0059710000000015,-0.473624,1003.6054,7.4447039672374595,1003.6152306233656,0,0
11.48,6.6721580000000005,-7.210933,-0.07593359,1003.65814,7.3781065700074135,1003.6153990417067,0,0
11.5,6.9589515,-7.048871000000001,0.1276463,1003.6282,7.313289270250236,1003.6155939396028,0,0
11.52,7.0545526,-6.7390447,0.37383583,1003.6255,7.249981411612784,1003.615801813201,0,0
11.54,7.135814,-6.915407000000001,0.49219635,1003.6054,7.188621508463875,1003.6159480437848,0,0
11.56,7.2027364,-6.748578,0.3738367,1003.6327,7.129054592045424,1003.6161375601712,0,0
11.58,7.174062299999999,-6.6675460000000015,0.35016513,1003.6307,7.071126217162986,1003.6163574416338,0,0
11.6,7.088031299999999,-7.005972,0.3501656,1003.6282,7.015211653712617,1003.616594362104,0,0
11.62,7.0306786999999975,-6.867742,0.09450817,1003.6532,6.960979554906593,1003.6169354853281,0,0
11.64,7.1931970000000005,-6.753344500000001,0.08977421,1003.61304,6.908508732542895,1003.6172228780616,0,0
11.66,7.537347,-6.638947999999999,-0.042788666,1003.6026,6.858151681655882,1003.61742417592,0,0
11.68,7.771275500000002,-6.4053793,-0.099627376,1003.5953,6.809899695706274,1003.6175223956744,0,0
11.7,7.556178,-6.691373,0.27439007,1003.6075,6.7637344291944075,1003.6175731020247,0,0
11.72,7.207246,-6.810536,0.28859267,1003.65295,6.719212178979019,1003.6177452629886,0,0
11.74,7.030387400000001,-6.8248362999999985,0.3785458,1003.65027,6.676063525517519,1003.6180144734697,0,0
11.76,6.9108853,-6.891568,0.29806036,1003.5768,6.634198404686702,1003.618103975746,0,0
11.78,6.877421400000001,-6.944,0.35960707,1003.6253,6.593650509380575,1003.618208965645,0,0
11.8,6.8678550000000005,-7.044097,0.20810552,1003.6228,6.55453777239662,1003.6183182624433,0,0
11.82,6.863069,-6.9201665,0.13235448,1003.6249,6.516640600011197,1003.6184385313492,0,0
11.84,6.8104844,-6.9964314,0.042400192,1003.6126,6.479988723032442,1003.6185237822419,0,0
11.86,6.8104787,-6.910633,0.032930873,1003.63995,6.444441651911732,1003.6186762443148,0,0
11.88,6.8965087,-6.9773645,0.032930285,1003.60974,6.410223077123892,1003.6187787893224,0,0
11.9,6.9538607999999975,-6.820067999999999,0.047132894,1003.6173,6.377155391756832,1003.6188640744501,0,0
11.92,7.0112114000000005,-6.7581024,0.15602365,1003.6271,6.3452217177547565,1003.6189690817205,0,0
11.94,7.0446644,-6.786702,0.17496070000000002,1003.63226,6.314496986305133,1003.6191097134504,0,0
11.96,6.8964843999999985,-6.9296985,0.33593,1003.6396,6.284948731027228,1003.6193077406786,0,0
11.98,7.1163487000000005,-6.758102,0.29331967,1003.6276,6.256621176949718,1003.619512569671,0,0
12.0,7.259736500000002,-6.7342695999999975,0.42114803,1003.63226,6.22966711867726,1003.619739447318,0,0
12.02,7.207153,-6.7152033,0.5584453,1003.61456,6.203930956762866,1003.6199212703964,0,0
12.04,7.173688,-6.6961369999999985,0.3217244,1003.622,6.179263766725861,1003.620089412695,0,0
12.06,7.1975803,-6.991663000000001,0.3927399,1003.6472,6.156094495999727,1003.6203355813443,0,0
12.08,7.001602,-6.977363,0.4495522,1003.637,6.134026254616356,1003.6206130878702,0,0
12.1,7.030276,-6.653237,0.31225392,1003.6522,6.112572935430473,1003.62097200552,0,0
12.12,7.116305400000001,-6.6961365000000015,0.11340833,1003.6371,6.091922338887597,1003.6213472059356,0,0
12.14,7.054161,-6.815299499999999,0.3453936,1003.6192,6.072144070448982,1003.6216710030812,0,0
12.16,7.0589356,-6.963063000000001,0.35486183,1003.6217,6.0534299948437456,1003.621957214628,0,0
12.18,7.0689660000000005,-6.8582100000000015,0.28862327,1003.6495,6.0355817059021675,1003.6223092651784,0,0
12.2,6.982942,-6.901109,0.30756208,1003.6396,6.018498533040668,1003.6226825836898,0,0
12.22,6.882579,-7.1108384,0.3975169,1003.6241,6.002322609641173,1003.6230175506253,0,0
12.24,6.930389999999999,-7.1346717,0.3075644,1003.61426,5.9871045982813715,1003.623282000227,0,0
12.26,6.935182000000001,-7.0059743,0.25548708,1003.63666,5.9726007626503,1003.6235638286943,0,0
12.28,7.064247999999999,-6.7771807,0.29336336,1003.6016,5.958639982023145,1003.6237337825453,0,0
12.3,6.8826284,-6.934477,0.2791614,1003.64417,5.945168477671206,1003.6239575241499,0,0
12.32,6.8061643,-7.0679407,0.40699148,1003.6616,5.932274301787382,1003.6242907351456,0,0
12.34,6.99259,-7.0965405,0.36911738,1003.61646,5.920246299740846,1003.6245569697344,0,0
12.36,7.135997,-6.9392447,0.18447676,1003.61664,5.9089973403558815,1003.6247637135262,0,0
12.38,7.107328999999999,-7.001209700000001,0.1323993,1003.6066,5.898523014389492,1003.6248810029718,0,0
12.4,7.1169020000000005,-7.158507000000001,0.08505650000000001,1003.6292,5.889014531776812,1003.6250001883153,0,0
12.42,6.99264,-6.9249454,0.07558887,1003.6316,5.8798678191389575,1003.625129259807,0,0
12.44,6.8683777,-6.5197887,0.0093083605,1003.63916,5.870301443495867,1003.6252938180417,0,0
12.46,6.9018482999999975,-6.739051,0.22235766,1003.6316,5.860770208197101,1003.6254619239528,0,0
12.48,6.7919245,-6.996445,0.5537671,1003.6317,5.851549203438115,1003.6256329194098,0,0
12.5,6.7967179999999985,-7.020278500000001,0.6863315999999999,1003.62854,5.842695395982702,1003.6257944764856,0,0
12.52,6.868426,-6.967847,0.53956616,1003.61414,5.8342049783595575,1003.6258952722023,0,0
12.54,6.9592557,-6.7819505000000015,0.21762781,1003.6441,5.825901819265144,1003.6260498723178,0,0
12.56,6.9975066,-6.796251,0.07086244,1003.6641,5.817867194637773,1003.6263234574395,0,0
12.58,7.040537,-6.901115400000001,0.0471915,1003.63074,5.810314698449719,1003.626581096806,0,0
12.6,7.217402499999999,-6.843917,0.16081837,1003.6486,5.803400005227027,1003.626888015002,0,0
12.62,7.1265990000000015,-6.762886,0.11820991,1003.6564,5.796819708610989,1003.627265451066,0,0
12.64,6.978437,-6.8582177,0.051929325,1003.61664,5.790473507794965,1003.6275607019479,0,0
12.66,6.8254956999999985,-7.0870123,0.1797594,1003.6586,5.784474452193314,1003.6279333271007,0,0
12.68,6.8493119999999985,-7.067944000000002,0.18448621,1003.65106,5.778809801294992,1003.6283458347079,0,0
12.7,6.944916,-7.020279,0.17028376,1003.63367,5.7735287117982175,1003.6287294934247,0,0
12.72,6.987943,-6.8057837,0.14661257,1003.6159,5.768354250603628,1003.6290223080906,0,0
12.74,7.073989,-6.901114999999999,0.023518834,1003.6408,5.763556775289514,1003.6293234388202,0,0
12.76,7.2412906,-6.8868160000000005,0.09453574,1003.66144,5.759340376938888,1003.6297051375533,0,0
12.78,7.293877,-6.5388575,0.1892246,1003.6408,5.755245085963991,1003.6300823480583,0,0
12.8,7.1839495,-6.5912895,0.29811668,1003.63367,5.751181188282223,1003.6304285668076,0,0
12.82,6.89717,-6.748586,0.38807115,1003.61053,5.746958561013295,1003.630662850854,0,0
12.84,6.768125500000001,-6.958315,0.5253696999999999,1003.6408,5.742743526626475,1003.6309063579744,0,0
12.86,6.8350506,-7.0488800000000005,0.62005866,1003.6461,5.738793446112428,1003.6311762179773,0,0
12.88,7.011912,-6.963082000000001,0.21290056,1003.6355,5.735187352855122,1003.6314302318907,0,0
12.9,7.021481,-7.0202813,0.16555737,1003.6226,5.7319942947066655,1003.63162288975,0,0
12.92,6.9163356,-7.025048,-0.071161896,1003.6436,5.729028451500403,1003.6318362398317,0,0
12.94,6.949801,-6.9392495,-0.2179278,1003.6408,5.726201012834169,1003.6320570255,0,0
12.96,7.093206,-6.8105525999999985,-0.01434743,1003.6455,5.723526876680447,1003.6323005064247,0,0
12.98,7.2270494,-6.7247553,0.20817037,1003.623,5.7210820405932825,1003.6324821643468,0,0
13.0,7.2844152,-6.6961559999999976,0.29812488,1003.67053,5.718900561395116,1003.6327796494954,0,0
13.02,7.145809700000001,-6.648491,0.3975482,1003.6252,5.7166883551344965,1003.6330152206343,0,0
13.04,7.1936160000000005,-6.6198916,0.45909622,1003.6326,5.714495094940762,1003.6332218764984,0,0
13.06,7.164944,-6.5912924,0.5253785,1003.6251,5.712249417985152,1003.6333752388645,0,0
13.08,7.1219363,-6.6484914,0.57272357,1003.623,5.709986268143215,1003.6334733989912,0,0
13.1,7.1362853,-6.915417999999999,0.5301146999999999,1003.66064,5.708114219263695,1003.6336579330427,0,0
13.12,7.0932755000000025,-6.8105544999999985,0.30759853,1003.64264,5.7063594600530925,1003.6338533227718,0,0
13.14,6.997688,-6.8868194,0.26498964,1003.6302,5.704680117618046,1003.6340128171744,0,0
13.16,6.9164369999999975,-6.9344854000000025,0.16083324,1003.63513,5.703018779452945,1003.6341577682867,0,0
13.18,7.208017,-6.748589999999999,0.08508383,1003.66046,5.7015437652289815,1003.6343805351238,0,0
13.2,7.3036213,-6.8057884999999985,0.16083513,1003.66046,5.700466994383795,1003.6346712579744,0,0
13.22,7.327528999999997,-6.8105555,0.10875742,1003.6027,5.699787649638326,1003.6348130441563,0,0
13.24,6.7157240000000025,-7.0727167,0.5395890999999999,1003.63794,5.698970722347523,1003.634949583468,0,0
13.26,6.476742,-7.1537485,0.6200748,1003.6449,5.697831297326112,1003.6351060511032,0,0
13.28,6.6679429999999975,-6.910653999999999,0.28393283,1003.6455,5.696280599374157,1003.635281724122,0,0
13.3,6.8639216,-6.7390585000000005,0.28866786,1003.63226,5.6944058514997975,1003.635426070594,0,0
13.32,7.193739,-6.7771907,-0.004864238,1003.6626,5.692791579530531,1003.6356514412828,0,0
13.34,7.361041,-6.8248570000000015,0.18451278,1003.65765,5.691738497635332,1003.6359297736352,0,0
13.36,7.4805436,-6.8963550000000025,0.018809311,1003.6574,5.6914648478843475,1003.6362530009164,0,0
13.38,7.3801770000000015,-6.7676587,0.24606158,1003.62976,5.691552525234445,1003.6365152297383,0,0
13.4,6.9691234,-6.7676587,0.18924958,1003.6572,5.691335274197756,1003.6368214002988,0,0
13.42,6.887875,-6.8486905,0.38809535,1003.63226,5.690859240442108,1003.6370755115648,0,0
13.44,6.8687644,-6.8915896,0.43544015,1003.64514,5.69019530036404,1003.6373290764377,0,0
13.46,6.921351,-6.896356,0.50645703,1003.6474,5.689459035642115,1003.6375893816844,0,0
13.48,7.074313,-6.8010259999999985,0.28867522,1003.6373,5.68873169812396,1003.6378183456262,0,0
13.5,7.193817,-6.996454700000001,0.3123481,1003.6472,5.688477061656494,1003.638054432121,0,0
13.52,7.074053,-6.986915,0.26497933,1003.6372,5.68844659994038,1003.6382599621919,0,0
13.54,6.9211009999999975,-6.8057857,0.13715062,1003.6572,5.688118322751893,1003.6385097526993,0,0
13.56,6.9067636,-6.853451700000001,0.28391737,1003.6574,5.6875830943440935,1003.6387984724812,0,0
13.58,6.753812299999999,-7.0441136,0.26971433,1003.6372,5.686925827324952,1003.63904783078,0,0
13.6,6.9115477,-6.9678493,0.20816727,1003.6597,5.686275353446102,1003.6393425115816,0,0
13.62,7.097963,-6.905884,0.23183952,1003.6292,5.685818946807954,1003.6395663784964,0,0
13.64,6.949791,-6.7438207,0.20343328,1003.6547,5.685078851757808,1003.63981866834,0,0
13.66,7.021489999999999,-6.6484895,0.17976144,1003.6472,5.684060254915006,1003.6400681644394,0,0
13.68,7.422996,-6.8010197,0.19396488,1003.6472,5.6836264137076835,1003.6403142938008,0,0
13.7,7.2700443,-6.9821490000000015,0.53010786,1003.6497,5.683761602812834,1003.640565562247,0,0
13.72,6.992818400000001,-6.9487830000000015,0.657937,1003.6323,5.6839550845920455,1003.640757827022,0,0
13.74,6.9259033,-6.8439190000000005,0.17976229,1003.6573,5.683905037238648,1003.6409872639999,0,0
13.76,6.858988,-6.705688499999999,0.25077856,1003.6422,5.683342764251862,1003.6411943603633,0,0
13.78,6.9067880000000015,-6.944016499999999,0.26498196,1003.62683,5.682749870646207,1003.6413256390125,0,0
13.8,7.0310655,-7.025048299999999,0.22710693,1003.63684,5.6824316683566725,1003.6414254885264,0,0
13.82,7.102764,-6.9583163,0.12295021,1003.6541,5.682361904284692,1003.6415593437982,0,0
13.84,7.0454089999999985,-6.777187,0.19396648,1003.6597,5.682166565631803,1003.6417429246789,0,0
13.86,7.0454116,-6.8439190000000005,0.104013026,1003.6694,5.68195452097441,1003.642004702216,0,0
13.88,6.9402575,-6.8915844,0.23184212,1003.6165,5.681646531233448,1003.6421441919196,0,0
13.9,6.911581,-6.867752,0.32179603,1003.6772,5.681183009128006,1003.6423936459313,0,0
13.92,6.906803599999999,-7.1680449999999984,0.4448907999999999,1003.64935,5.6810311171262775,1003.6426391063704,0,0
13.94,6.835108999999999,-7.1442122,0.63426715,1003.65967,5.681037778409396,1003.6429173064316,0,0
13.96,7.0549817,-6.944017,0.44489118,1003.65466,5.681187585374559,1003.6432053977023,0,0
13.98,7.3226533,-6.591292,0.15609269,1003.64435,5.681347719172478,1003.6434640757176,0,0
14.0,6.9785094,-6.6770897,0.17029607,1003.66187,5.681113920297924,1003.6437589049393,0,0
14.02,6.701322,-6.9821506,0.20344067,1003.6391,5.680574519736383,1003.6440026439816,0,0
14.04,6.839939599999999,-6.9630847000000005,0.2602539,1003.6697,5.679942074608059,1003.6443105222812,0,0
14.06,7.074153999999999,-6.944018400000001,0.19870695,1003.6717,5.679542903109697,1003.6446811656664,0,0
14.08,7.107616,-6.877287,0.24131691,1003.66437,5.679306272171936,1003.6450795459652,0,0
14.1,7.1506386,-6.743823,0.2744581,1003.6342,5.679089001004076,1003.6453923884316,0,0
14.12,7.074165299999999,-6.786722,0.22238001,1003.6464,5.6788331822221005,1003.6456724434368,0,0
14.14,6.892536,-6.896353200000001,0.27445879999999995,1003.65643,5.678436814896183,1003.6459586272427,0,0
14.16,7.031153999999999,-6.944019,0.3123344,1003.6365,5.678194093512663,1003.646177448196,0,0
14.18,6.9881395999999985,-6.891587,0.42122602,1003.6541,5.677956347203754,1003.6463993195764,0,0
14.2,7.007262700000001,-6.934486,0.28392863,1003.6491,5.677804509486091,1003.6466050875778,0,0
14.22,6.945129,-6.882053999999999,0.33600745,1003.63153,5.677564183240057,1003.6467326338684,0,0
14.24,7.007270299999999,-6.9249525,0.17977242,1003.65643,5.677392468277347,1003.6468802442888,0,0
14.26,7.088531,-6.8343880000000015,0.26499203,1003.6384,5.677275374983638,1003.6469801439772,0,0
14.28,6.988158,-6.8439217,0.26499236,1003.66144,5.677071207003733,1003.6471204708232,0,0
14.3,6.9594830000000005,-6.853455,0.3170712,1003.64136,5.676765429543308,1003.6472237259296,0,0
14.32,6.9594869999999975,-6.820089,0.32180592,1003.6086,5.676322725087023,1003.6471759167281,0,0
14.34,6.983389999999999,-6.762890299999999,0.3454783,1003.64624,5.6757149674268765,1003.6471303032176,0,0
14.36,7.016852,-6.877288,0.2649937,1003.6333,5.675173967255329,1003.6470402100281,0,0
14.38,6.9451589999999985,-6.9916854000000015,0.31707257,1003.63354,5.674758920804982,1003.6469120029296,0,0
14.4,6.964282000000001,-6.9249535,0.22711918,1003.64856,5.674381516948638,1003.6468046519267,0,0
14.42,7.0168633,-6.9297204,0.2034475,1003.6587,5.674122239021692,1003.6467526198337,0,0
14.44,7.0885644,-6.7438245,0.21291667,1003.6508,5.673806805153737,1003.6467212148452,0,0
14.46,6.935614,-6.872522,0.3786212,1003.6608,5.673411579880898,1003.6467441490236,0,0
14.48,6.8448014000000015,-6.9154205,0.30760548,1003.66583,5.672871760491638,1003.6468331227272,0,0
14.5,6.954741,-6.8582220000000005,0.35968423,1003.6509,5.672287520262008,1003.6469263806496,0,0
14.52,6.98814,-6.8868199999999975,0.35494440000000005,1003.6608,5.671756877726276,1003.64705872838,0,0
14.54,7.0311600000000025,-6.815322,0.16556832,1003.6534,5.6712251479165285,1003.6471984994122,0,0
14.56,6.988142999999999,-6.8534546,0.27445975,1003.6633,5.6706907711628,1003.6473799664984,0,0
14.58,6.992924,-7.1251482999999975,0.23185022,1003.6534,5.6705598579005505,1003.6475619829364,0,0
14.6,7.35619,-6.6294265,0.09928697,1003.6534,5.670613510207606,1003.6477438295219,0,0
14.62,6.9642477,-6.891587,0.2555225,1003.6383,5.670617747985095,1003.6478705113792,0,0
14.64,6.44325,-7.287211,0.50644606,1003.61554,5.670452310901146,1003.6478660576273,0,0
14.66,6.553187,-7.2014127000000006,0.340742,1003.658,5.6701423780907545,1003.6478986044845,0,0
14.68,7.174563,-6.7056910000000025,0.22238198,1003.6481,5.669872600950457,1003.6479280879114,0,0
14.7,7.332298,-6.6627927,0.14189722,1003.67334,5.669816817473548,1003.6480456223508,0,0
14.72,7.2414827000000015,-6.8105555,0.17977257,1003.6581,5.6700214677351175,1003.6481856715413,0,0
14.74,6.9355759999999975,-6.7438235,0.31233603,1003.64294,5.669907201058638,1003.648290534588,0,0
14.76,6.9355774000000014,-6.820089,0.23658566,1003.6534,5.669617879042519,1003.648401585652,0,0
14.78,6.782625,-7.129915,0.32653946,1003.643,5.669416411062117,1003.6484802646637,0,0
14.8,6.93558,-6.948786,0.3123364,1003.638,5.6692445950806665,1003.6485120564853,0,0
14.82,6.94992,-7.044117,0.36441493,1003.6581,5.6692648557351255,1003.6485746643357,0,0
14.84,7.0933156,-6.853455,0.23185168,1003.6532,5.669379581685607,1003.6486466358408,0,0
14.86,7.1219964,-6.853455,0.23658621,1003.6704,5.6696204978122005,1003.6487885419734,0,0
14.88,7.0407405,-6.905887,0.13716385,1003.6355,5.669922950702984,1003.6488660914813,0,0
14.9,6.988164,-6.982152,0.24605528,1003.645,5.670316933031717,1003.6489206962973,0,0
14.92,6.964267,-6.92972,0.32180586,1003.6299,5.6706828365790605,1003.6489004706058,0,0
14.94,6.9881663,-6.9630857000000015,0.32180595,1003.655,5.671106699584426,1003.6489045574907,0,0
14.96,6.945149400000001,-6.872521000000001,0.26499322,1003.66547,5.671380733999723,1003.6489678042552,0,0
14.98,6.830435799999999,-7.0155176999999975,0.28866538,1003.6704,5.6715658729643135,1003.6491008450008,0,0
15.0,6.911693,-7.1203823,0.25079024,1003.66754,5.671943545737827,1003.6492847807616,0,0
15.02,7.0116625,-6.9869084,0.18447134,1003.64294,5.672435478723192,1003.6494244651892,0,0
15.04,6.954289,-6.967842,0.14186023,1003.64795,5.672912787249262,1003.649542582275,0,0
15.06,6.9638333,-6.9773746,0.19393726,1003.6626,5.673405332813394,1003.6496939572355,0,0
15.08,6.839544,-7.0631723,0.40698418,1003.6603,5.673869166700876,1003.6498658939047,0,0
15.1,7.0641804000000015,-6.882043,0.19866908,1003.65027,5.674355666563589,1003.6500192719276,0,0
15.12,7.121522,-6.743811999999999,0.18446437,1003.6628,5.674746818301996,1003.6502008073697,0,0
15.14,6.915975,-6.9106417,0.42118323,1003.63965,5.6750030938255405,1003.6503232291797,0,0
15.16,6.8108015,-7.053638,0.425916,1003.65216,5.675198352117302,1003.6504380134658,0,0
15.18,6.806008,-6.9678397,0.21286651,1003.6372,5.6751897386324766,1003.6504917800128,0,0
15.2,6.86335,-6.9297065999999985,0.1749898,1003.6674,5.6750265121922325,1003.6506001577254,0,0
15.22,6.9541554,-6.9821386,0.1986609,1003.65466,5.674938478269745,1003.6507105357043,0,0
15.24,7.0592933,-6.982138000000001,0.30281612,1003.6372,5.6750774251437175,1003.6507594277583,0,0
15.26,7.087956,-6.882039999999999,0.26967382,1003.65717,5.675311415852766,1003.6508257068373,0,0
15.28,7.059262,-6.772409,0.2507348,1003.63684,5.675426419370577,1003.6508339224868,0,0
15.3,7.073586,-6.6818437999999984,0.26967102,1003.66223,5.67532873388664,1003.6508822077136,0,0
15.32,7.1022506,-6.7819410000000016,0.3501546,1003.63934,5.675235146949311,1003.6508833205922,0,0
15.34,7.0735592999999986,-6.896338,0.51112324,1003.6171,5.675282194856237,1003.6507626839776,0,0
15.36,6.9492699999999985,-7.0488677,0.40696505,1003.64685,5.675483629119492,1003.6506420038028,0,0
15.38,6.896673,-6.9773684000000005,0.35015040000000003,1003.6216,5.6756337968992,1003.6504308195863,0,0
15.4,6.853643400000001,-6.9201694000000025,0.19391403,1003.66473,5.6755817393337935,1003.6502956942624,0,0
15.42,6.9109880000000015,-6.8534380000000015,0.18444398,1003.63965,5.6753369480834746,1003.6501379730267,0,0
15.44,6.9683247,-6.839137599999999,0.24598932,1003.64935,5.6749895076712695,1003.64999577384,0,0
15.46,7.0017686,-6.939234700000001,0.3264729,1003.66187,5.674752993179201,1003.6499128738527,0,0
15.48,6.925278,-6.944000999999999,0.48744136,1003.66223,5.674523673006699,1003.6498839650784,0,0
15.5,7.001739,-6.8200702999999985,0.4069551,1003.64685,5.674225943801737,1003.6498474990108,0,0
15.52,7.0366396999999985,-6.786739999999999,0.45916548,1003.64935,5.673877512124902,1003.6498134865973,0,0
15.54,7.1131597000000015,-6.8248734,0.38341895,1003.66437,5.673648193844134,1003.6498358366766,0,0
15.56,7.146661,-6.85824,0.4828454,1003.63184,5.6736321622246075,1003.6497908001948,0,0
15.58,7.218401400000001,-6.786743,0.39763007,1003.6266,5.673802547168112,1003.6496675190787,0,0
15.6,7.132408,-6.834409,0.27453947,1003.63434,5.674066954740107,1003.649503408816,0,0
15.62,7.0703087,-6.839177,0.36923108,1003.6366,5.674333849789685,1003.6493119487164,0,0
15.64,7.079911,-6.8201118,0.2698125,1003.66187,5.674582116767928,1003.6491879835563,0,0
15.66,7.0034800000000015,-6.853478999999999,0.43552086,1003.63873,5.67475977691646,1003.6490407992006,0,0
15.68,6.7693133,-6.9869437,0.38344634,1003.6542,5.674723338887152,1003.6489293202266,0,0
15.7,6.7215576,-7.0203104000000005,0.42605993,1003.6413,5.674482649739868,1003.6488033518524,0,0
15.72,6.9653683000000015,-7.0060115000000005,0.5254861,1003.6466,5.674404604006628,1003.6486841141301,0,0
15.74,7.209181299999999,-6.786751299999999,0.38819236,1003.64935,5.6745027001629245,1003.648581152868,0,0
15.76,7.290480599999999,-6.658055,0.32664904,1003.66675,5.6746935332550015,1003.6485555841464,0,0
15.78,7.0993323,-6.801053,0.36452824,1003.6641,5.67488131178062,1003.648588951521,0,0
15.8,7.1806293000000005,-6.777221000000001,0.25090623,1003.6513,5.6751466177412855,1003.6486281947076,0,0
15.82,7.2475867,-6.681891,0.35980120000000004,1003.61096,5.675453100266076,1003.6485272644867,0,0
15.84,7.161593400000001,-6.7772229999999976,0.32666433,1003.6441,5.675797101052481,1003.6484221443911,0,0
15.86,7.027802,-6.8391899999999985,0.4544972,1003.6567,5.676072187799113,1003.6483590605548,0,0
15.88,6.9704875999999985,-6.834424,0.312469,1003.6491,5.676181765063863,1003.6483059870593,0,0
15.9,7.023103,-6.767693,0.35981652,1003.6161,5.676129847342001,1003.6481431497647,0,0
15.92,6.9992504,-6.9726562,0.35035190000000005,1003.64636,5.676197275255079,1003.6479928473926,0,0
15.94,6.965834599999999,-6.977423700000001,0.3030118,1003.6206,5.676324547983414,1003.647761425966,0,0
15.96,7.008893,-6.7915287,0.16571775,1003.63135,5.676290072373228,1003.6474978608596,0,0
15.98,7.004156599999999,-6.8391956999999985,0.1657217,1003.63385,5.676174814885735,1003.6472158424324,0,0
16.0,6.99464,-6.8010645000000025,0.24621053,1003.6564,5.675922658216933,1003.6469997139177,0,0
16.02,6.9360585000000015,-6.7962675,0.3786619,1003.65106,5.675465230757504,1003.646823359792,0,0
16.04,7.1081243,-6.7009363,0.3928644,1003.6235,5.6749496984601455,1003.6465835691913,0,0
16.06,7.084217,-6.824867200000001,0.41653568,1003.65125,5.674528325531735,1003.6463884893673,0,0
16.08,6.9790550000000025,-6.8772993,0.321847,1003.65356,5.6741038298723145,1003.6462419342732,0,0
16.099999999999998,6.969487700000001,-6.8868313,0.4212688,1003.6635,5.673685695156375,1003.6461745672284,0,0
16.12,7.0555162,-6.9726295,0.26029834,1003.64636,5.673515499304849,1003.6461157092656,0,0
16.14,7.0746284,-6.8248663,0.12299992,1003.6481,5.673373357382912,1003.6460708458168,0,0
16.16,7.050722,-6.7772,0.08512397,1003.65356,5.673151173948607,1003.646058165428,0,0
16.18,7.012475500000001,-6.7486005,0.20821778,1003.62585,5.6727644240053055,1003.6459742116408,0,0
16.2,6.945550999999999,-6.877298,0.41179657,1003.641,5.672334365331649,1003.6458821229128,0,0
16.22,6.950323599999999,-6.872531,0.41179585,1003.6656,5.671867669434103,1003.6458717376704,0,0
16.24,6.969436,-6.9011297,0.3360448,1003.641,5.671434267300112,1003.6458450230142,0,0
16.259999999999998,6.854713,-6.944029,0.2839656,1003.62854,5.6709230873664165,1003.6457591198613,0,0
16.28,6.897723700000001,-7.034592999999999,0.25555852,1003.61835,5.670540201768413,1003.645584543004,0,0
16.3,7.060230000000002,-6.877297,0.19874494,1003.6356,5.670277765693798,1003.645394342538,0,0
16.32,7.069782000000001,-6.810564500000001,0.21768185,1003.6253,5.670041309896712,1003.6451539417732,0,0
16.34,6.9598384000000015,-6.901128999999999,0.23188438,1003.6483,5.6697974905376425,1003.6449528494667,0,0
16.36,7.0793266,-6.8296304,0.31710306,1003.6358,5.6696266036763125,1003.6447422140468,0,0
16.38,7.0601997,-6.824864,0.34550878,1003.6253,5.66948730570374,1003.6444861046193,0,0
16.4,7.1366695999999985,-6.848696,0.3407737,1003.6481,5.669524827731924,1003.6442728163522,0,0
16.419999999999998,7.055405,-6.84393,0.3313042,1003.6179,5.669589425661957,1003.6439894127008,0,0
16.44,7.021939,-6.8582287,0.279225,1003.6349,5.6696452515711915,1003.6437062753488,0,0
16.46,7.026711,-6.8963614,0.33603722,1003.63043,5.6697593227509975,1003.6434083005928,0,0
16.48,7.1557584,-6.9583270000000015,0.28395805,1003.65753,5.670202789951088,1003.6431958482167,0,0
16.5,7.031476,-6.853462,0.26975414,1003.66046,5.670597892683335,1003.6430702762434,0,0
16.52,6.836283,-6.9821787,0.31243515,1003.63513,5.670853271977367,1003.6429307358534,0,0
16.54,6.8171897,-6.9059143,0.38345355,1003.66254,5.670848776973492,1003.6428780313156,0,0
16.56,6.965388000000001,-6.8534822,0.3266429,1003.66046,5.6707512679739605,1003.6428947566736,0,0
16.58,7.041888,-6.8677826,0.36925477,1003.62463,5.670709363513195,1003.6428437820756,0,0
16.599999999999998,7.089709299999999,-6.9869475,0.41660085,1003.61975,5.6709648221316895,1003.6427156033052,0,0
16.62,6.994138,-6.8153520000000025,0.27457094,1003.6374,5.671080516471684,1003.642583208372,0,0
16.64,7.0801973,-6.7629204,0.26983872,1003.6454,5.67112506888641,1003.6424763646588,0,0
16.66,7.1327979999999975,-6.7343216,0.24143437,1003.6649,5.671143392393858,1003.6424626826413,0,0
16.68,7.2618766,-6.7676880000000015,0.31245267,1003.6474,5.67138563780673,1003.6424683675529,0,0
16.7,7.2858,-6.8534865000000025,0.3645333,1003.6299,5.671986632458537,1003.6424281446176,0,0
16.72,7.1472087,-6.762923,0.31245694,1003.6147,5.672560262975893,1003.6422927823114,0,0
16.74,6.9082394,-6.867787400000001,0.28878683,1003.66254,5.672901430343428,1003.6422460661612,0,0
16.759999999999998,6.769652400000001,-6.92022,0.29352373,1003.64215,5.672910825496826,1003.6422044419327,0,0
16.78,6.774456,-6.9869523,0.5681214,1003.63226,5.672758553219131,1003.6421318627736,0,0
16.8,6.8270564,-6.982187,0.5349826,1003.6525,5.67252915097342,1003.6421050571223,0,0
16.82,7.0278325,-6.9583545,0.43082795,1003.6168,5.672480507823019,1003.6419902734434,0,0
16.84,7.0613136,-6.834424,0.35981393,1003.61694,5.672455485782268,1003.6417986696002,0,0
16.86,7.262090700000001,-6.7009615999999985,0.15150248,1003.6574,5.672552926501693,1003.6416855332338,0,0
16.88,7.348151700000002,-6.6914287,0.099426225,1003.63184,5.67287531477982,1003.6415501220207,0,0
16.9,7.2143393,-6.891625,0.042615443,1003.6499,5.673474888688612,1003.6414605322336,0,0
16.919999999999998,7.05663,-6.977423,0.16571216,1003.6601,5.6742091279335805,1003.641448472782,0,0
16.94,6.836782,-7.0346227,0.37876242,1003.6268,5.674834733075622,1003.6413850825484,0,0
16.96,6.8654847000000006,-6.8105946,0.22726369,1003.6493,5.675063473813839,1003.6413575646403,0,0
16.98,6.8702869999999985,-6.7247977,0.42137635,1003.6419,5.674836301606697,1003.6413352025847,0,0
17.0,6.9133306,-6.748631,0.53973883,1003.6523,5.674317833456638,1003.6413549167427,0,0
17.02,7.1618070000000005,-6.7486289999999975,0.6817643,1003.6415,5.673934297272054,1003.6413728584724,0,0
17.04,7.410378999999999,-6.6914306,0.39770195,1003.6266,5.673937957840312,1003.6413355294943,0,0
17.06,7.343480599999999,-6.74863,0.16571784,1003.6343,5.674247408752537,1003.6412772177032,0,0
17.08,6.90854,-6.848728,0.20359504,1003.62646,5.674317139802568,1003.6411723514208,0,0
17.099999999999998,6.8559813,-7.091823,0.056830276,1003.6341,5.674453485085003,1003.6410542311083,0,0
17.12,7.0949917000000005,-6.8820953,0.27461475,1003.63904,5.674698276069112,1003.6409426087683,0,0
17.14,7.114131,-6.8344297,0.31249186,1003.6415,5.6750001788960525,1003.6408459858774,0,0
17.16,6.942077,-6.986960400000001,0.4166505,1003.6694,5.6753267749286165,1003.6408634043415,0,0
17.18,6.7317863,-7.0775256,0.40718356,1003.65155,5.675503631833893,1003.640917267041,0,0
17.2,6.6887919999999985,-7.101359,0.35037288,1003.6263,5.6755175310270465,1003.6409122379608,0,0
17.22,6.9421372,-6.9297633,0.037903566,1003.63904,5.675485556358132,1003.6409010542087,0,0
17.24,7.2193856,-6.667603,0.21781279,1003.61145,5.675456298320968,1003.6407851484503,0,0
17.259999999999998,7.420158,-6.4864745,0.08998572,1003.6388,5.67548416280805,1003.640675587588,0,0
17.28,7.1429543,-6.5865725999999984,0.2604266,1003.6263,5.6752790567526175,1003.6405270274944,0,0
17.3,6.8227267000000005,-6.9202323,0.478211,1003.63873,5.674889711675818,1003.640389290497,0,0
17.32,6.9565800000000015,-6.9631314,0.68652654,1003.62836,5.674623503008608,1003.6402242806404,0,0
17.34,7.2338257,-6.972665299999999,0.5302927,1003.6287,5.6748714231886925,1003.6400369905203,0,0
17.36,7.410700999999999,-6.863034700000001,0.08052634,1003.58856,5.675655072907173,1003.6396861838048,0,0
17.38,7.0904746,-6.7534046000000005,-0.05676954,1003.6238,5.6762677835959074,1003.6393190207287,0,0
17.4,6.8276057,-6.705739,-0.07097091,1003.64624,5.67626583752532,1003.6390195109603,0,0
17.419999999999998,6.822848,-6.805837599999999,0.12787607,1003.64624,5.675861335238402,1003.6387808578895,0,0
17.44,6.9853797,-6.9107020000000015,0.516099,1003.62085,5.675522247950712,1003.638505432948,0,0
17.46,7.1431327000000016,-7.006034,0.46875668,1003.62585,5.67560948009063,1003.6382165079108,0,0
17.48,7.042778,-6.8439713000000015,0.35039857,1003.631,5.675678714435984,1003.6379352343196,0,0
17.5,6.751229,-6.882104400000001,0.35040027,1003.6587,5.675358426864582,1003.6377614541307,0,0
17.52,6.7409935,-6.8487215,0.31719765,1003.6562,5.674628356350525,1003.637674280721,0,0
17.54,7.0182157000000025,-6.8296556,0.3266658,1003.65375,5.67391994298567,1003.6376551268856,0,0
17.56,7.190278,-6.901153599999999,0.29825840000000003,1003.6433,5.6735916002575575,1003.6376585240996,0,0
17.58,7.180713000000001,-6.8868537,0.2509139,1003.6287,5.673562648372747,1003.6376292751917,0,0
17.599999999999994,6.9847316999999975,-6.9631186000000005,0.18463132,1003.6587,5.6736149269416725,1003.6376792854657,0,0
17.62,6.946486,-6.7581563,0.118349,1003.6329,5.673381138578337,1003.637706269116,0,0
17.64,7.0516334,-6.8296547000000025,0.35980290000000004,1003.61584,5.673167943242492,1003.6376513933006,0,0
17.66,7.1328830000000005,-6.8248880000000005,0.4024119,1003.6506,5.673091842879912,1003.6376495200143,0,0
17.68,7.1376557,-6.815355,0.25091030000000003,1003.63324,5.673120222416341,1003.6376319905064,0,0
17.7,7.113749,-6.805821400000001,0.31719127,1003.6533,5.6731951954097966,1003.6376729062674,0,0
17.72,6.9512285999999985,-6.843953999999999,0.32665944,1003.63873,5.673124611427747,1003.6377128649713,0,0
17.74,7.0085783,-6.8296537,0.26037702,1003.65125,5.67298585762425,1003.6377969061681,0,0
17.759999999999994,7.0754886,-6.9154515,0.21303232,1003.6639,5.673009015825162,1003.6379651361074,0,0
17.78,6.9273067,-7.0203156,0.34086052,1003.62836,5.673118075231312,1003.6380792055916,0,0
17.8,6.979877,-6.781987700000001,0.17515567,1003.6228,5.673022309651443,1003.638124992248,0,0
17.82,7.018108,-6.905917999999999,0.18462381,1003.6483,5.672983127812903,1003.6382020793654,0,0
17.84,7.0372205,-6.929751,0.35506177,1003.6528,5.673066808287366,1003.6383227460568,0,0
17.86,7.1949460000000025,-6.80582,0.28877935,1003.6429,5.673311242122749,1003.6384458452593,0,0
17.88,7.0993429999999975,-6.7533875,0.43081087,1003.61786,5.673488599334247,1003.6384805066716,0,0
17.9,7.022858,-6.643757000000001,0.26984040000000004,1003.61334,5.673322045091294,1003.6384206276716,0,0
17.919999999999995,6.841218,-6.91545,0.48762232,1003.64526,5.672994689490203,1003.6383923403276,0,0
17.94,6.8412104000000005,-7.091812599999999,0.56810653,1003.6556,5.672797257616919,1003.6384292932053,0,0
17.96,7.142331,-6.9964814,0.3739953,1003.6303,5.672996101352923,1003.6384326793122,0,0
17.98,7.300057000000002,-6.7629204,0.17988394,1003.61505,5.673435734612697,1003.6383514936307,0,0
18.0,7.161434700000001,-6.7343205999999975,-0.0142273605,1003.6454,5.673831998310927,1003.6383051325861,0,0
18.02,7.1519309999999985,-6.7676873,0.1372787,1003.6281,5.674223700922156,1003.638227429489,0,0
18.04,7.104128,-6.8439527,0.250904,1003.65533,5.674652209395196,1003.6382203402864,0,0
18.06,6.946389,-7.115646000000001,0.44501412,1003.64276,5.6752911608895245,1003.6382304190422,0,0
18.08,6.932045,-6.986949000000001,0.3882008,1003.62756,5.675897415169245,1003.638200911122,0,0
18.1,7.118452,-6.7533875,0.3645283,1003.6399,5.676408355372317,1003.638180954644,0,0
18.12,7.061089999999999,-7.001248,0.26037094,1003.58734,5.677099354761928,1003.6379802936632,0,0
18.14,7.18058,-7.101346,0.37399626,1003.65,5.678277134531112,1003.6378462605632,0,0
18.16,7.1471160000000005,-6.7962856,0.1183379,1003.6323,5.6793765157715095,1003.637707862378,0,0
18.18,7.056295,-6.6389894,-0.061569918,1003.61487,5.680039797257218,1003.6375033574373,0,0
18.2,6.951134,-6.7057210000000005,0.15147781,1003.64233,5.680254834461138,1003.6373400327846,0,0
18.22,7.0754046000000015,-6.791519,0.43080723,1003.61456,5.680399983280156,1003.6371137110036,0,0
18.24,7.1040782999999985,-6.7390865999999985,0.45447883,1003.6348,5.680452991212848,1003.6369054037184,0,0
18.26,6.9750185,-6.8153520000000025,0.5870417,1003.6048,5.680355870942013,1003.6366057639476,0,0
18.28,6.955895,-6.8153520000000025,0.4213371,1003.6624,5.680080281232933,1003.636433861496,0,0
18.3,7.056265400000001,-6.729553,0.25563246,1003.63257,5.679662066131451,1003.6362680585884,0,0
18.32,7.1040587,-6.739086,0.26036644,1003.63226,5.679205195609689,1003.6361071261282,0,0
18.34,7.065815,-6.729553,0.2130219,1003.6198,5.678642188137301,1003.6359062205523,0,0
18.36,7.032352,-6.7390857,0.089926936,1003.61255,5.677946851641639,1003.6356446179916,0,0
18.38,7.108823299999999,-6.7533854999999985,0.17041138,1003.6248,5.677274820311793,1003.6353744253439,0,0
18.4,7.0992584,-6.715253,0.37872466,1003.6419,5.676569016739882,1003.6351591751896,0,0
18.42,7.0801344,-6.796284,0.30770817,1003.64496,5.675918097027588,1003.6350042631224,0,0
18.44,7.137486999999999,-6.772452,0.37398937,1003.62213,5.6753747969674295,1003.6348210354726,0,0
18.46,7.209179,-6.658053999999999,0.26036322,1003.64233,5.674867241581709,1003.6346861677936,0,0
18.48,7.07056,-6.7581515,0.20354988,1003.6321,5.674322803222339,1003.6345576885083,0,0
18.5,7.0466566,-6.877316,0.22722146,1003.6316,5.673885114029456,1003.634433516533,0,0
18.52,7.152437700000001,-6.8916306,0.29356042,1003.6316,5.673725439876689,1003.6343135975162,0,0
18.54,7.33887,-6.739101,0.018966783,1003.6196,5.673868053499986,1003.6341546681219,0,0
18.56,7.324551,-6.6390038,3.103167e-05,1003.63983,5.674115010504668,1003.634034669304,0,0
18.58,7.1668367,-6.5484395,0.009501586,1003.66205,5.674084153271346,1003.6340294935388,0,0
18.6,7.0521410000000015,-6.6437716,0.21781725,1003.6267,5.673773017356231,1003.633998534056,0,0
18.62,7.056941,-6.824901,0.55869627,1003.6472,5.673510438174695,1003.6340187035344,0,0
18.64,6.999603,-6.8582673,0.5586979999999999,1003.6416,5.673254747300848,1003.6340638179528,0,0
18.66,6.966164599999999,-6.8010693,0.52555895,1003.6346,5.672869638410674,1003.6341056113084,0,0
18.68,7.0474405,-6.829669,0.388263,1003.6519,5.672520596273402,1003.6342065997163,0,0
18.7,7.147836999999999,-6.6390076,0.033184618,1003.6523,5.672067461683506,1003.6343609693147,0,0
18.72,7.224332,-6.686673,-0.085173875,1003.6291,5.6717085781572925,1003.6344784308023,0,0
18.74,7.324729400000002,-6.696207000000001,0.06632905,1003.6421,5.671600956376742,1003.6346096574221,0,0
18.76,7.2291527,-6.639008500000001,0.14681569,1003.6391,5.671490777414084,1003.6347417744963,0,0
18.78,7.1144576,-6.643776400000001,0.17995837,1003.6366,5.671211734812638,1003.6348652027552,0,0
18.8,7.1622744,-6.6390095,0.32672668,1003.6341,5.670858402525406,1003.6349715092348,0,0
18.82,7.081039,-6.6580770000000005,0.39774472,1003.63654,5.670349876158321,1003.6350710882066,0,0
18.84,7.0715002999999985,-6.6723766000000015,0.37880898,1003.6416,5.669710421929046,1003.6351825802684,0,0
18.86,6.9807043,-7.015569,0.41668603,1003.6496,5.669322966992526,1003.6353329973656,0,0
18.88,7.1049976,-6.901172,0.4356254,1003.6237,5.669177911111553,1003.6354240271222,0,0
18.9,7.420485,-6.6485452999999985,-0.037813235,1003.6191,5.669349116543624,1003.6354456945172,0,0
18.92,7.4778633,-6.4817160000000005,-0.1561715,1003.63904,5.669661775620298,1003.6354777793274,0,0
18.94,7.420522999999997,-6.591348,-0.04727855,1003.6265,5.6701566791908276,1003.63547380946,0,0
18.96,7.353626299999997,-6.7343449999999985,0.15630270000000002,1003.6486,5.6709089573913785,1003.6355175559712,0,0
18.98,7.2819495,-6.8821087,0.17050777,1003.6441,5.671986535295522,1003.6355871071868,0,0
19.0,7.4444833,-6.829677,0.07582153400000001,1003.64874,5.673518218602369,1003.6356959130553,0,0
19.02,7.353405,-6.6723742,-0.10410984,1003.6287,5.6750859696732725,1003.6357668686334,0,0
19.04,7.3534130000000015,-6.5341444000000015,-0.25561002,1003.63367,5.676493769061023,1003.6358220162551,0,0
19.06,7.1765695,-6.5913434,-0.28401563,1003.6312,5.677563812836641,1003.6358541054352,0,0
19.08,7.004504700000001,-6.796305,0.018987015,1003.6237,5.6783553852165465,1003.6358387046553,0,0
19.1,6.827661,-6.73434,0.2793801,1003.64154,5.678553656983321,1003.6358456211892,0,0
19.12,6.951944,-6.7057405,0.3882722,1003.6386,5.678378146263396,1003.6358616484024,0,0
19.14,6.9471735999999975,-6.5913444000000005,0.43561712,1003.62115,5.677705833641754,1003.635822848114,0,0
19.16,6.9471817,-6.624709599999999,0.23677285,1003.64124,5.676630260177037,1003.6358080659256,0,0
19.18,7.2578783,-6.5150795,0.033194248,1003.6461,5.675515580128122,1003.6358320553467,0,0
19.2,7.372604400000001,-6.4388146,-0.11357133,1003.62616,5.674445060194062,1003.6358184329996,0,0
19.22,7.597264,-6.4864807,-0.36449394,1003.62366,5.6738480341677535,1003.6357626259354,0,0
19.24,7.6211696,-6.5341463,-0.36922774,1003.61835,5.67377398935463,1003.6356506293599,0,0
19.26,7.5303617,-6.615178,-0.23666368,1003.62115,5.674121861031657,1003.6354994669199,0,0
19.28,7.219683,-6.8058405,-0.27927247,1003.64374,5.674632766075653,1003.6353955657074,0,0
19.3,7.1384354000000005,-6.6008782,-0.39763173,1003.6287,5.674880451115492,1003.6352796545593,0,0
19.32,7.167122999999999,-6.372084,-0.26506767,1003.6333,5.6746101148122925,1003.6351701087123,0,0
19.34,7.1671314,-6.591346700000001,-0.11356594,1003.6386,5.674182475597532,1003.6350856616106,0,0
19.36,7.205379,-6.524615,0.018998206,1003.63116,5.673581271604191,1003.6349969117696,0,0
19.38,7.181490400000001,-6.596113000000001,0.14682811,1003.6558,5.672894579948562,1003.634993383528,0,0
19.4,7.1050224,-6.629479400000001,0.3030643,1003.6486,5.6720728273934675,1003.6350392497928,0,0
19.42,6.9664154000000025,-6.8582740000000015,0.33620578,1003.6511,5.671257959885796,1003.635137595925,0,0
19.44,7.2006354,-6.577048,0.13736169,1003.6232,5.670393131060016,1003.6351815192224,0,0
19.46,7.540011,-6.3339534,-0.16563937,1003.6232,5.66968582625436,1003.6351771963783,0,0
19.48,7.697752,-6.2052565,-0.066216156,1003.63367,5.669201009682331,1003.6351679508067,0,0
19.5,7.4778886,-6.362553,-0.118293926,1003.6461,5.668772135925673,1003.6351991367967,0,0
19.52,7.166926400000001,-6.805836,0.056853898,1003.6433,5.668528482214515,1003.635255855845,0,0
19.54,7.778739,-6.2576823,0.12313533,1003.62616,5.6686580783258735,1003.635273227715,0,0
19.56,7.8456535,-6.281515,0.6959981,1003.67316,5.669304934471514,1003.6354249698793,0,0
19.58,7.477607000000001,-6.3101144,0.7102010999999999,1003.6386,5.669856747070128,1003.6355704793643,0,0
19.6,7.0665402,-6.4102115999999985,0.5160902,1003.63824,5.66979200897035,1003.6357086618198,0,0
19.62,7.056978,-6.6866717000000016,0.27936977,1003.66113,5.669538184463098,1003.6359222766548,0,0
19.64,7.1860313,-6.395912,0.21782234,1003.6386,5.668903739398322,1003.6361206665268,0,0
19.66,7.1955886,-6.891634,0.48768318,1003.6104,5.668668605688242,1003.6362033694184,0,0
19.68,7.2194850000000015,-7.020331,0.18941541,1003.6207,5.668987553482688,1003.6362206335632,0,0
19.7,7.640105,-6.653305499999999,-0.18460281,1003.62836,5.6699214571398535,1003.636207589881,0,0
19.72,7.644881699999999,-6.434044,-0.17986864,1003.6532,5.671106395508152,1003.6362572371596,0,0
19.74,7.262494999999999,-6.672372,0.047382575,1003.63824,5.672236005146914,1003.6363082434414,0,0
19.76,6.913567,-6.8439679999999985,0.26989934,1003.6232,5.673041482243469,1003.6363061229157,0,0
19.78,6.7797303,-6.986964,0.4166657,1003.64325,5.6735838941887,1003.6363292471764,0,0
19.8,7.033057,-6.6104064,0.31724298,1003.65784,5.673710433882119,1003.6364271184834,0,0
19.82,7.338961999999999,-6.6771383,0.3219771,1003.62286,5.674030070264263,1003.6364647559436,0,0
19.84,7.491913999999999,-6.6294727,0.2130856,1003.6454,5.674683494132662,1003.6365301792824,0,0
19.86,7.5779476,-6.476943,0.066318825,1003.62054,5.67555212600044,1003.6365304226988,0,0
19.88,7.5683856,-6.4531097,0.10419385,1003.6557,5.676561186282113,1003.63659964826,0,0
19.9,7.238575999999999,-6.5961065,0.05684957,1003.6454,5.677372175205537,1003.636692497232,0,0
19.92,7.037822200000001,-6.782002,0.2320223,1003.6407,5.677970338665378,1003.6367889655936,0,0
19.94,7.03304,-6.8820996,0.31724137,1003.6154,5.67852100709074,1003.6367972047619,0,0
19.96,7.023478,-6.886866,0.27936593,1003.6408,5.679018078737775,1003.6368188949541,0,0
19.98,7.037814599999999,-6.782002,0.08525508,1003.6252,5.67932797776951,1003.6367962323856,0,0
20.0,7.0282526,-6.796301400000001,-0.0046988428,1003.648,5.679476947734552,1003.6368165413036,0,0
20.02,6.914453999999999,-6.9154880000000025,0.05219791,1003.6227,5.679488530824723,1003.6367836667148,0,0
20.04,6.9288254,-6.9440884999999986,0.023794401,1003.6352,5.6794416154327365,1003.6367489175284,0,0
20.06,7.0244554999999975,-6.8630576,-0.042484116,1003.65533,5.679366133038429,1003.6367851050436,0,0
20.08,6.9575686,-6.834459,-0.07562221599999999,1003.63074,5.679125193661252,1003.6367953179542,0,0
20.1,6.919367,-6.82016,-0.014071625,1003.63245,5.678660894770695,1003.6367886989373,0,0
20.12,7.029336,-6.84876,0.019072363,1003.638,5.6782057783573885,1003.6367872110576,0,0
20.14,7.134526299999999,-6.7152970000000005,0.03327871,1003.6279,5.677726537243606,1003.6367539024077,0,0
20.16,7.086760000000001,-6.762964,0.12796976,1003.6352,5.677225417749875,1003.6367188768356,0,0
20.18,7.1728324999999975,-6.6819334,0.17531711,1003.63745,5.6767229168740165,1003.6366905602838,0,0
20.2,7.273239,-6.634268799999999,0.23686711,1003.6177,5.6763099667334815,1003.6365971737614,0,0
20.22,7.196796000000001,-6.6628685,0.28421435,1003.63245,5.675903498764219,1003.6364997276047,0,0
20.24,7.149032000000001,-6.6390367,0.29842067,1003.6377,5.675398671851026,1003.6364179451613,0,0
20.26,7.254222,-6.6247377000000025,0.14692283,1003.61975,5.674942246034878,1003.6362856775916,0,0
20.28,7.2685943,-6.691470599999999,0.22267626,1003.62,5.674648917803914,1003.6361101775276,0,0
20.3,7.4215817,-6.5770744999999975,-0.11819774,1003.63995,5.674573604180488,1003.635968929032,0,0
20.32,7.139608,-6.734371,0.06644717,1003.65533,5.674478257184694,1003.6359138217167,0,0
20.34,7.005807400000001,-6.801104,0.11852877,1003.6327,5.6742615449284255,1003.635853559135,0,0
20.36,7.101438000000001,-6.743906,0.35998654,1003.63245,5.674011663618388,1003.6357880583048,0,0
20.38,7.001094,-6.853537599999999,0.39786473,1003.6098,5.6737444322416675,1003.6356366247612,0,0
20.4,7.096722,-6.8916707,0.2416323,1003.6401,5.673649822756173,1003.6355188862332,0,0
20.42,6.9868229999999985,-7.068034,0.20376039,1003.62994,5.673802109083838,1003.6353947684793,0,0
20.44,7.206726,-6.886906,0.028590363,1003.62744,5.674229723602341,1003.6352564608653,0,0
20.46,7.331035000000001,-6.581847,-0.051891383,1003.64984,5.674657922089247,1003.6351867529984,0,0
20.48,7.0395017000000015,-6.658113,0.033331044,1003.63745,5.6747467308869135,1003.6351333068164,0,0
20.5,6.494638,-7.063271,0.38841453,1003.6225,5.674355940229124,1003.6350406018657,0,0
20.52,6.2356453,-7.701967999999999,0.7623517,1003.622,5.674240888794677,1003.6349117416044,0,0
20.54,6.120928,-7.6590686,0.7055385999999999,1003.64496,5.674142808063079,1003.6348340544076,0,0
20.56,6.8426757,-6.9869843,0.30784833,1003.63995,5.673965770864062,1003.6347838274048,0,0
20.58,7.229837,-7.015583500000001,0.26523843,1003.63245,5.674329094748623,1003.6347310450464,1,2
20.6,7.253733,-6.8201547000000025,0.5303649,1003.6273,5.674946001646688,1003.634657654792,1,2
20.62,7.6361156,-6.047972,0.55877113,1003.62,5.6753409880801415,1003.6345400396066,1,2
20.64,8.568175,-5.0136294,0.22262813,1003.62494,5.675897340170728,1003.6344015546858,1,2
20.66,8.749805,-5.2614903,-0.042498786,1003.65497,5.677176796465759,1003.634353235813,1,2
20.68,9.528911,-5.1613927,1.67609,1003.6349,5.6806615343435,1003.634312509608,1,2
20.7,9.916073,-5.1709256,2.1163895,1003.6296,5.686946958964096,1003.6342595588987,1,2
20.72,10.255436,-5.456919,2.069045,1003.6469,5.6965529634492675,1003.63425827724,1,2
20.74,9.815691,-5.4855185,1.5624635,1003.6165,5.708129034141251,1003.6341932149684,1,2
20.76,9.127398,-6.11947,1.4109623,1003.6294,5.720836018794956,1003.6341184703708,1,2
20.78,8.644634,-7.1681127999999985,0.9706625,1003.6296,5.734896920034852,1003.6340361595517,1,2
20.8,7.8511844,-8.307319999999999,0.85230213,1003.61945,5.750498971506832,1003.6339109195372,1,2
20.82,4.8160057,-9.76112,-0.45439383,1003.6223,5.766225960098286,1003.63375845815,1,2
20.84,1.74259,-11.319784,-1.7752931,1003.604,5.78345306973909,1003.6335166128192,1,2
20.86,-0.15977429999999998,-11.968035,-1.8179028,1003.622,5.803017127336093,1003.6332614584784,1,2
20.88,-0.16455649,-13.131074,-2.0498888,1003.6345,5.827038168998097,1003.6330404628524,1,2
20.9,3.1000469,-13.688762,-1.3444629,1003.6098,5.856591392242668,1003.6327615254512,1,2
20.92,6.7996125,-12.878447,-0.9846483,1003.622,5.8919592071505456,1003.6324763148718,1,2
20.94,8.773669,-10.723964,-1.2213688,1003.6341,5.930909375347034,1003.6322301480703,1,2
20.96,9.490638,-9.927949,-0.3691761,1003.629,5.972531394820706,1003.6320010065517,1,2
20.98,9.796542,-9.336895,1.3588812,1003.63153,6.0160773488345205,1003.6317968414818,1,2
21.0,9.896915,-8.679111,2.608764,1003.6495,6.060788471084233,1003.6316801725967,1,2
21.02,9.304375,-7.992731,3.0206716,1003.6396,6.104732500857315,1003.6316055953488,1,2
21.04,9.227901,-7.12045,2.9259837,1003.63904,6.1465619707594605,1003.631566462749,1,2
21.06,9.572051,-5.3997230000000025,3.465706,1003.63904,6.185346123592542,1003.631558789918,1,2
21.08,9.19923,-4.9850335,2.5898418,1003.6241,6.2197519802566354,1003.6315251585607,1,2
21.1,10.255571,-5.595152400000001,1.8986187,1003.60913,6.252362229331777,1003.6314148193228,1,2
21.12,12.607239,-6.043209,1.0038166,1003.6165,6.2878014994395866,1003.6312636302223,1,2
21.14,14.294513,-2.930647,1.3541628,1003.632,6.326938443087683,1003.6311326904648,1,2
21.16,13.816536,-4.2080845999999985,0.5209081,1003.62366,6.368781913847308,1003.6309900904088,1,2
21.18,13.09001,-8.955575,-1.6190425,1003.629,6.415963619384537,1003.6308569246744,1,2
21.2,14.347102,-13.550536,-1.9125754,1003.6215,6.475765780439048,1003.6307055745024,1,2
21.22,14.361444,-15.1521,0.31259537,1003.62866,6.5486905133465205,1003.630564477422,1,2
21.24,14.007743,-15.323695,0.82864577,1003.6464,6.632737476523361,1003.6304968119234,1,2
21.26,10.728801,-15.809885,-0.5159248,1003.65393,6.722850178238812,1003.6305213821656,1,2
21.28,7.416401400000002,-13.107246,-1.3539141,1003.6486,6.80969931463448,1003.6306081754559,1,2
21.3,6.05416,-11.276889,-0.88047326,1003.67194,6.888589928605193,1003.6308336605756,1,2
21.32,4.4338107,-9.718226,-0.49698615,1003.66895,6.955724642239798,1003.6311701180493,1,2
21.34,3.3726983,-9.084273,-0.56800187,1003.61115,7.010179446767727,1003.631395339448,1,2
21.36,1.4751204,-8.755381,-0.5443294,1003.60345,7.051547904709772,1003.6314937418539,1,2
21.38,0.48092425,-8.464622,-0.73370534,1003.61456,7.080403123604517,1003.6315197287494,1,2
21.4,1.374752,-8.922211,-1.5811634,1003.58905,7.099459084898112,1003.6313897997464,1,2
21.42,2.9759896,-10.09955,-0.667423,1003.6062,7.112666680026907,1003.6311843112004,1,2
21.44,4.8066583,-10.495174,1.6997797,1003.62366,7.122982764081247,1003.6309756540007,1,2
21.46,7.2395825,-11.367455,2.6040516,1003.62866,7.134984924132267,1003.6307829481447,1,2
21.48,8.59227,-13.526704999999998,2.2489712,1003.61346,7.153537716699038,1003.6305503106372,1,2
21.5,11.053873,-17.349483,2.3199875,1003.5985,7.187206638186384,1003.630229371017,1,2
21.52,13.5251,-13.941397,2.798169,1003.6309,7.2318712909999405,1003.629948203033,1,2
21.54,14.1464815,-10.7668705,4.620915,1003.61115,7.283480423735298,1003.6296320894714,1,2
21.56,14.160825,-9.5847645,5.430499,1003.626,7.340151827362479,1003.6293396960064,1,2
21.58,13.936182,-6.843994,4.540432,1003.61346,7.397423958142067,1003.629024170235,1,2
21.6,11.4984865,-6.0956454,2.9354687000000004,1003.624,7.449128162587615,1003.6287272846504,1,2
21.62,9.051235,-6.0575128,1.4488663999999998,1003.6265,7.490833504841548,1003.6284569383232,1,2
21.64,9.897266,-5.4235606,0.48778275,1003.6265,7.524196486117798,1003.6282110153306,1,2
21.66,12.205917,-3.9935935,0.09956211,1003.5735,7.5532826206713715,1003.6277967581192,1,2
21.68,14.877833,-3.1022477000000004,2.4525619,1003.62866,7.583788063355909,1003.627433828118,1,2
21.7,14.806143,-4.8182087,2.6514075,1003.624,7.616269335758606,1003.6271007813876,1,2
21.72,12.31587,-7.106156,1.1932112,1003.60846,7.647208595855231,1003.6267393944836,1,2
21.74,10.27012,-7.7162757,0.4451758,1003.6265,7.67373223447541,1003.6264192111952,1,2
21.76,9.534038,-10.180586,0.47831735,1003.63617,7.698550165984571,1003.626171400081,1,2
21.78,10.083721,-12.921355,1.2594947,1003.66833,7.726931599379673,1003.6261042051403,1,2
21.8,10.829378,-13.841301,3.0301628,1003.6337,7.761259017211237,1003.6260721765524,1,2
21.82,10.155432,-12.21114,6.074385,1003.6787,7.798992761720756,1003.6262333362564,1,2
21.84,8.721497,-11.453257,6.0033699999999985,1003.6562,7.8366767227862,1003.6264836169604,1,2
21.86,8.100128,-10.580977,4.038593,1003.6507,7.870702844928679,1003.6267919439692,1,2
21.88,7.9184994999999985,-9.599067,3.7355912,1003.6534,7.899437744980514,1003.6271601707159,1,2
21.9,7.3019133,-9.5943,4.147485,1003.65375,7.922890928661933,1003.6275812592547,1,2
21.92,6.656645299999999,-9.718231,4.5451755999999985,1003.6262,7.941334212123648,1003.6279483605543,1,2
21.94,5.901443,-9.646732,5.042289,1003.6363,7.954777164795496,1003.6283027971648,1,2
21.96,4.711278,-9.05568,4.128549,1003.6234,7.96090449733104,1003.628598327284,1,2
21.98,3.7505436,-8.517058,2.608806,1003.5959,7.957747730984461,1003.6287417437187,1,2
22.0,2.3787465,-7.883107000000001,2.0927563,1003.59326,7.943969054323442,1003.6287407322037,1,2
22.02,-0.31344953,-5.5283995,3.2194378,1003.571,7.9165088275253614,1003.6285319717924,1,2
22.04,-0.30392796,-7.4302545,4.5782084,1003.5888,7.881896234099697,1003.6282044759947,1,2
22.06,5.9910355000000015,-12.749731,0.74807155,1003.5909,7.8522585917586065,1003.6277808045944,1,2
22.08,11.1388445,-11.129101,-8.540833000000001,1003.526,7.835034169711772,1003.6270400376486,1,2
22.1,12.290736,-10.871706,-6.2777925,1003.5634,7.8281248566329875,1003.6261563918396,1,2
22.12,12.43887,-10.690576,-2.2677555,1003.61597,7.828253020323776,1003.6253389313923,1,2
22.14,11.234322,-9.956525,-2.3245716,1003.61584,7.83175705527143,1003.624582427188,1,2
22.16,9.198084,-10.704874,-3.209909,1003.6109,7.836742964013204,1003.6238647233353,1,2
22.18,7.821460000000001,-10.981334,-2.627581,1003.6054,7.841485328944119,1003.6231640872068,1,2
22.2,7.725822999999999,-10.452245,-2.4855525000000003,1003.6309,7.844950880260693,1003.6225728544098,1,2
22.22,9.030669,-10.089985,-2.5234315,1003.60785,7.84840034782973,1003.6219974388347,1,2
22.24,10.827838,-9.270136,-2.4050748,1003.6109,7.853239277543051,1003.6214490508523,1,2
22.26,12.170921,-6.6294622,-1.9458413,1003.6259,7.858331902260027,1003.620980518648,1,2
22.28,13.27024,-3.6789622,0.14676199999999998,1003.6432,7.863165378428018,1003.6206465137254,1,2
22.3,12.782659,-2.8066816,1.4108443000000002,1003.6379,7.8664876042391265,1003.6204134995264,1,2
22.32,11.472951,-6.03364,2.4666128,1003.6558,7.868529813795098,1003.6203349995816,1,2
22.34,10.746383,-10.023246,3.4513657,1003.6507,7.873382185140687,1003.620374951032,1,2
22.36,10.354396,-14.189217,5.7286105,1003.6962,7.887727310584995,1003.62068322231,1,2
22.38,11.530187,-14.117717,8.24731,1003.7133,7.913590261477344,1003.6212890312108,1,2
22.4,11.802596,-13.235903,9.6913,1003.6831,7.9499578698442654,1003.6220468434433,1,2
22.42,11.004331,-12.825978,8.46982,1003.66284,7.992762437583535,1003.6228633016954,1,2
22.44,10.253863,-12.830743,7.2009954,1003.64276,8.039085475873769,1003.6236563523207,1,2
22.46,9.584647,-12.582882,5.5818252999999975,1003.6404,8.085938922458125,1003.6244173689853,1,2
22.48,8.676447999999999,-12.859341,4.795911299999998,1003.6282,8.131977474319722,1003.6251034207814,1,2
22.5,7.725225,-13.202533,3.8064167,1003.62787,8.176144972693718,1003.6257195758336,1,2
22.52,7.1898465,-11.977526,3.806413,1003.5955,8.215831458165496,1003.6261552199652,1,2
22.54,6.597111999999999,-10.885983,3.3992505,1003.6307,8.248705229185465,1003.6265565163277,1,2
22.56,5.5285125,-9.761127,2.6229982000000005,1003.59814,8.272002267000207,1003.6268088023346,1,2
22.58,4.8593755,-8.83165,1.8465589,1003.59576,8.284108374023237,1003.626919946562,1,2
22.6,4.304956400000001,-8.269197,1.4062628,1003.5755,8.284578563229555,1003.6268330417939,1,2
22.62,4.639579,-7.759175999999999,0.51619804,1003.55554,8.273990455947631,1003.6264995977904,1,2
22.64,4.9120674000000015,-7.854507400000001,-1.410701,1003.545,8.25432526715457,1003.6259115681166,1,2
22.66,4.711352,-7.101392999999999,-1.6852932,1003.5405,8.225289468477554,1003.6250845034517,1,2
22.68,5.8585410000000016,-7.0537286,-1.1313647,1003.5575,8.189225121774601,1003.6241104049013,1,2
22.7,6.169266,-5.58563,-2.385978,1003.57544,8.14587169324651,1003.6230744779648,1,2
22.72,7.741862299999997,-5.804892,-2.5564132,1003.57794,8.099041574016665,1003.6219966488028,1,2
22.74,9.529542,-6.3196816,-2.7599895,1003.5976,8.052954860247977,1003.6209564510193,1,2
22.76,10.8201275,-6.681941,-3.181348,1003.60535,8.010488435429416,1003.6199811490344,1,2
22.78,11.713991,-6.987001400000001,-3.0819216,1003.598,7.973191186619773,1003.6190402400639,1,2
22.8,12.483576,-7.4588914000000015,-2.75051,1003.5902,7.942293074164746,1003.6181050280336,1,2
22.82,13.214921,-7.716286,-2.4475048,1003.6129,7.9186097250617795,1003.6172599365823,1,2
22.84,12.708303,-5.0803814,-1.6947308999999997,1003.623,7.897839550449637,1003.6165338780046,0,0
22.86,11.599424,-3.5884497000000004,-0.42117277,1003.6126,7.876306263082927,1003.6158781706844,0,0
22.88,9.893073,-4.565595,0.3600075,1003.61475,7.851583514687648,1003.6152947262816,0,0
22.9,9.027964,-5.2615137,0.113821715,1003.61487,7.823192523297433,1003.6147776657926,0,0
22.92,8.009908,-5.8287344,-1.1834013,1003.61487,7.790678792878526,1003.6143211235484,0,0
22.94,7.9717,-6.896444,-0.5963321999999999,1003.60986,7.755846937499458,1003.613901662776,0,0
22.96,8.291988,-8.169116,0.33161482,1003.605,7.721351734342269,1003.6134989812517,0,0
22.98,7.6802087,-8.059485,0.587276,1003.6225,7.686246325278377,1003.613175575524,0,0
23.0,7.5942106,-6.681952000000001,0.20379266,1003.60974,7.648585347375041,1003.6128774461516,0,0
23.02,6.968089999999999,-6.2100635,-0.67206913,1003.6125,7.607223291189728,1003.6126126602317,0,0
23.04,6.1221074999999985,-6.3673606,-0.69100285,1003.60693,7.561705098928317,1003.612358237816,0,0
23.06,5.4468117,-6.7629523,-0.48281193,1003.587,7.51233953022802,1003.6120421405133,0,0
23.08,5.255604,-7.349238400000001,0.023767838,1003.61487,7.460454818428872,1003.611773017231,0,0
23.1,5.9677777,-6.9631467,0.5966293,1003.61475,7.406852866369121,1003.6115459370368,0,0
23.12,6.4122834000000015,-6.7105190000000015,0.37411082,1003.6224,7.352132657530817,1003.6113843636036,0,0
23.14,7.1053380000000015,-6.896414,0.37884372,1003.5898,7.297909840530933,1003.611163893609,0,0
23.16,7.425569500000001,-7.063244,0.44985837,1003.6101,7.245047372934606,1003.6109652563048,0,0
23.18,7.377753999999999,-6.7677164,0.7717963000000001,1003.59973,7.193126500677707,1003.6107492934603,0,0
23.2,7.554591,-6.624719,0.9090926,1003.6125,7.142323274609369,1003.6105647712344,0,0
23.22,7.4733195000000014,-6.7534160000000005,0.6108237,1003.62,7.0926953373768615,1003.6104356942192,0,0
23.24,7.267771700000001,-6.5293875,0.82860476,1003.63794,7.0436899071548975,1003.6104206572693,0,0
23.26,7.3824697,-6.734349000000001,0.9374946,1003.6023,6.995891886352986,1003.610378136254,0,0
23.28,7.272517999999999,-6.643783999999999,0.5350687,1003.61487,6.948976093990406,1003.6103567353945,0,0
23.3,7.3776584,-6.510319,0.41670713,1003.6075,6.9029741589495375,1003.6103275413476,0,0
23.32,7.382422,-6.6390166,0.23206381,1003.6324,6.858117943800268,1003.610381206339,0,0
23.34,7.4302034,-6.967909,0.17998387,1003.6251,6.814968794145877,1003.6104816123824,0,0
23.36,7.1003804000000015,-7.072772500000001,0.042684652,1003.61487,6.773138741891443,1003.610586129358,0,0
23.38,7.2103004,-7.087072,0.09002727,1003.6175,6.73280878203465,1003.6107033704916,0,0
23.4,7.1959443,-7.101371,0.39302766,1003.61475,6.693964126388132,1003.6108215326236,0,0
23.42,6.9808369999999975,-6.905942,-0.11828956,1003.60986,6.655953809058558,1003.6109224791662,0,0
23.44,6.942583,-6.7963104,-0.056743715,1003.63245,6.618599914794808,1003.611089174606,0,0
23.46,6.9808064,-6.7534113,0.32674167,1003.62976,6.58196633539297,1003.6113036816682,0,0
23.48,7.1002845999999975,-6.591348,0.15630159,1003.6294,6.546040851348572,1003.6115583668544,0,0
23.5,6.8947363,-6.681912,0.26519138,1003.62726,6.510694925032605,1003.611839932564,0,0
23.52,6.9568577000000005,-6.6723785000000015,0.31253392,1003.6042,6.476070458194494,1003.6120612202678,0,0
23.54,7.1145744,-6.7820085999999975,0.35040763,1003.6449,6.442604973692991,1003.61237496969,0,0
23.56,7.2199693,-6.8153806,0.4829929,1003.61725,6.410502132944482,1003.6126697487886,0,0
23.58,7.31556,-6.610419,0.44038272,1003.61694,6.3795718325342365,1003.6129455885043,0,0
23.6,7.368131,-6.6485505000000025,0.32675645,1003.62225,6.349913896857339,1003.6132228163588,0,0
23.62,7.1721524999999975,-6.877345599999999,0.009550709,1003.6399,6.321501470607263,1003.6135638127521,0,0
23.64,7.028753,-6.9917425999999985,0.27467683,1003.62976,6.294252660567912,1003.613923423439,0,0
23.66,7.0813227,-6.791547,0.41197386,1003.6195,6.267927589653749,1003.6142612511176,0,0
23.68,7.1960320000000015,-6.7295820000000015,0.04742407,1003.6243,6.242580322216414,1003.6145958951506,0,0
23.7,7.435014999999999,-6.2386265,0.2273309,1003.6167,6.2178885636018375,1003.6148991613954,0,0
23.72,7.425451,-6.0860963,0.19892398,1003.60913,6.193645971582184,1003.6151463584683,0,0
23.74,7.114756,-6.705748,-0.009390522,1003.60986,6.170248903683896,1003.6153457509116,0,0
23.76,7.0191545,-6.867811,0.004812207,1003.6243,6.147773160621084,1003.6155541693712,0,0
23.78,6.9331117,-7.3301669999999985,0.37882963,1003.60913,6.126767160922147,1003.6157152009121,0,0
23.8,6.9331070000000015,-7.3254004,0.45457968,1003.59973,6.107134749001036,1003.6157999416583,0,0
23.82,7.0764933,-7.0584729999999976,0.6392207,1003.60944,6.0886183960223565,1003.6158519227921,0,0
23.84,6.976111,-6.8725767000000015,0.7149706,1003.607,6.070746395921178,1003.6158659863997,0,0
23.86,6.961765299999999,-6.5103183,0.42143697,1003.627,6.052930316910747,1003.615918495452,0,0
23.88,7.004778999999999,-6.496019,0.5824063,1003.6449,6.035290468054267,1003.6160692258674,0,0
23.9,7.0860276,-6.6819143,0.43563902,1003.6143,6.0182404657132365,1003.616196042049,0,0
23.92,7.052562700000001,-6.624715299999999,0.6060770000000001,1003.627,6.001660075386223,1003.6163469910756,0,0
23.94,7.0573362999999985,-6.4960184000000005,0.47351313,1003.6042,5.985364301744813,1003.616436640468,0,0
23.96,7.1624856,-6.56275,0.11369778,1003.6245,5.969610570008356,1003.6165448827652,0,0
23.98,7.4205894,-6.839210499999999,0.15630688,1003.627,5.955177441502961,1003.6166781640812,0,0
24.0,7.2867484,-6.905942,0.20365033,1003.6292,5.941856399741567,1003.6168410100612,0,0
24.02,7.32976,-7.106137,0.14210252,1003.6191,5.929916194084193,1003.6169930331328,0,0
24.04,7.267616999999999,-7.1299696,-0.037805427,1003.61694,5.919179287389842,1003.6171271697998,0,0
24.06,7.253913400000001,-6.925023,0.042737693,1003.62976,5.909227601316178,1003.6172911711473,0,0
24.08,7.4881425,-6.8153929999999985,0.28892845,1003.6167,5.900214695734933,1003.617433954522,0,0
24.1,7.440365299999999,-6.548466,0.32680556,1003.6245,5.891622358948343,1003.6175855556752,0,0
24.12,7.430823299999999,-6.5246344,0.4309641,1003.6145,5.883393284398223,1003.6177084024542,0,0
24.14,7.454743,-6.2243414,0.31734025,1003.6241,5.875137860857419,1003.6178399596193,0,0
24.16,7.282687700000001,-6.343506,0.15163767,1003.60693,5.866769191770206,1003.6179169276753,0,0
24.18,7.215788000000001,-6.3959384,0.36942196,1003.63684,5.858310294678644,1003.6180530597104,0,0
24.2,7.354419999999997,-6.6009007,0.18951619,1003.5868,5.850289798245598,1003.6180608349613,0,0
24.22,7.282742,-6.920260400000001,-0.137156,1003.6015,5.843024652425611,1003.6180080861673,0,0
24.24,6.9768534,-6.6962333,-0.14188866,1003.62396,5.835671927395548,1003.6179829042227,0,0
24.26,6.905177,-6.3482747,0.05695818,1003.60394,5.827662704810495,1003.6179100990013,0,0
24.28,7.058147999999999,-6.4865055,-0.12294757,1003.6017,5.819532023426987,1003.6177874119513,0,0
24.3,7.072507000000001,-6.362575,-0.19396192,1003.6167,5.81117455253227,1003.6176750909906,0,0
24.32,6.933910000000001,-6.801099000000002,-0.0045840740000000005,1003.6016,5.803056866988982,1003.6175179738623,0,0
24.34,7.010407400000001,-6.648569599999999,0.14218433,1003.6243,5.795076806698744,1003.6174035604618,0,0
24.36,7.1968374000000015,-6.6247373,0.004888218,1003.5917,5.7874942286562945,1003.6172099319632,0,0
24.38,7.220755599999999,-6.4865080000000015,-0.24129911,1003.62146,5.780139878961362,1003.6170541420672,0,0
24.4,7.263789999999997,-6.558006,-0.17028148,1003.6016,5.773176425745307,1003.6168608512036,0,0
24.42,7.2207922999999985,-6.7057699999999985,-0.4780159000000001,1003.60913,5.766745940786098,1003.6166622283316,0,0
24.44,7.412002,-6.6152053,-0.5064208,1003.59393,5.7609794222600055,1003.6164048891408,0,0
24.46,7.3976817,-6.519875,-0.14186984,1003.61163,5.755641913460419,1003.6161603146304,0,0
24.48,7.4598384000000015,-6.391178,-0.15133692,1003.6317,5.7506250553953215,1003.6160001514604,0,0
24.5,7.521994,-6.3196807,-0.18921052,1003.6597,5.7459133198189525,1003.6160159507382,0,0
24.52,7.435977,-6.5532427,-0.15606786,1003.61414,5.741668057490912,1003.6160231575574,0,0
24.54,7.531592999999999,-6.505577,-0.051909205,1003.6266,5.737932598396977,1003.6160676021357,0,0
24.56,7.5363584,-6.50081,0.023840021,1003.6391,5.734661850727157,1003.6161897899973,0,0
24.58,7.459898,-6.3673470000000005,-0.3170356,1003.6342,5.731522838262825,1003.6163625919477,0,0
24.6,7.4216776,-6.2481837,-0.22708027,1003.6142,5.72828565040915,1003.6165074944198,0,0
24.62,7.249622299999999,-6.400714,0.094860874,1003.62897,5.724904982595416,1003.6166803952648,0,0
24.64,7.158824000000001,-6.7296065999999986,0.13747214,1003.6266,5.721731651668748,1003.6168688810285,0,0
24.66,7.187519,-6.553245,-0.2034035,1003.6167,5.718550102286263,1003.6170348190773,0,0
24.68,7.311812400000001,-6.4245480000000015,-0.2886211,1003.6214,5.71539131211061,1003.6171971565884,0,0
24.7,7.2544723,-6.820173,-0.014024034,1003.6167,5.7127200819144095,1003.6173388082497,0,0
24.72,6.8960050000000015,-7.0251354999999975,0.0901345,1003.62146,5.710255542956138,1003.6174788079477,0,0
24.74,7.072873,-6.5246477,-0.23653801,1003.61395,5.707527426445272,1003.6175898079724,0,0
24.76,7.474394,-6.4102507000000015,-0.36436528,1003.6015,5.7050497925843136,1003.6176299642856,0,0
24.78,7.5126505,-6.6771774000000015,-0.24126916,1003.62897,5.703219213370423,1003.6177062705324,0,0
24.8,7.531787,-6.7105440000000005,-0.16078274,1003.61163,5.702039423172666,1003.6177518201583,0,0
24.82,7.656080999999999,-6.3387527000000015,-0.24126579,1003.60895,5.701134744514651,1003.617760381255,0,0
24.84,7.560502,-6.1576242,-0.18445143,1003.60394,5.700081507127185,1003.6177181924677,0,0
24.86,7.398006,-6.4340854000000025,0.16589616,1003.61646,5.699011731777024,1003.617676384962,0,0
24.88,7.412362,-6.391186,0.32686743,1003.637,5.697903806025244,1003.6177090088645,0,0
24.9,7.206849000000001,-6.4102535000000005,0.25111863,1003.62897,5.696466369247965,1003.6177783749124,0,0
24.92,7.068252,-6.56755,0.11855689,1003.60895,5.6947444453955685,1003.6178078846028,0,0
24.94,6.8579583,-6.6771812000000015,0.22744982,1003.6315,5.6926217750017765,1003.617883250981,0,0
24.96,6.752819500000001,-6.74868,0.1753729,1003.6291,5.690099164304033,1003.6179902250093,0,0
24.98,7.068303,-6.4817532999999985,-0.17023711,1003.61163,5.6873220523070165,1003.61806185045,0,0
25.0,7.359889,-6.5484858,-0.17970429999999998,1003.639,5.6848730515947175,1003.6182005160284,0,0
25.02,7.465063000000002,-6.524653400000001,0.2984723,1003.6061,5.682859908942157,1003.6182794790753,0,0
25.04,7.594133999999999,-6.4912877,0.014409458,1003.61646,5.681387436362562,1003.618342700699,0,0
25.06,7.527234,-6.5437202,0.023879867000000003,1003.60895,5.6803638740928255,1003.6183647496033,0,0
25.08,7.388638999999999,-6.5103545,0.08542886400000001,1003.5986,5.6794789227084195,1003.6183130789163,0,0
25.1,7.422114,-6.4865227,-0.11814903,1003.6139,5.678739959880367,1003.6182515356136,0,0
25.12,7.484267999999997,-6.4436235,-0.15602274,1003.6264,5.67817290364276,1003.6182264904228,0,0
25.14,7.5751023,-6.3721260000000015,-0.018723365,1003.61896,5.677804728477534,1003.6182070011264,0,0
