Timestamp,Ax,Ay,Az,P,Value,Type
0.0,-1.9418929,7.298486,5.1839128,1003.071,0,0
0.04,-1.6598763,6.4691052,7.347536,1003.1157,0,0
0.08,-1.9131987,5.444296,7.986682000000001,1003.1404,0,0
0.12,-1.4591098,5.630191,7.655274,1003.1503,0,0
0.16,-1.6598544999999998,5.36803,6.907239,1003.0959,0,0
0.2,-1.5355719,3.6520696,9.222363,1003.0952,0,0
0.24,-1.7841146,2.9847515,8.611626,1003.15515,0,0
0.28,-1.5306809,3.0705469,8.564291,1003.14233,0,0
0.32,-2.3814743,1.1067253,6.9072514000000025,1003.1198,0,0
0.36,-0.51256055,2.722588,8.346511,1003.1198,0,0
0.4,-0.45041233,1.5357149,8.422262,1003.0998,0,0
0.44,-1.1769311000000002,-1.5720804,7.693165,1003.1098,0,0
0.48,-1.5879829,2.8608172,7.3570232,1003.14984,0,0
0.52,1.6670749,1.225888,9.549054,1003.14233,0,0
0.56,1.4424356000000005,-0.018183738,8.554831,1003.11694,0,0
0.6,2.8094697,1.4499155,6.334395,1003.11694,0,0
0.64,3.000673,0.0008819103,6.168692,1003.1623,0,0
0.68,5.05122,0.09621279,5.5248137,1003.1698,0,0
0.72,6.121908,-1.0906601,7.783125999999997,1003.147,0,0
0.76,6.695495599999999,-2.3442647,6.429087,1003.18695,0,0
0.8,7.541531599999999,-2.515861,7.271812,1003.16425,0,0
0.84,8.60266,-3.2642107000000005,3.886714,1003.15924,0,0
0.88,11.1025095,-2.7494228,7.645832,1003.18195,0,0
0.92,9.329212,-4.698945,3.971935,1003.1773,0,0
0.96,11.795602,-3.3404765,6.3864822,1003.17694,0,0
1.0,10.419031,-4.656047,5.131867,1003.13654,0,0
1.04,10.820545,-3.9458296,3.863047,1003.1691,0,0
1.08,11.0069685,-3.969663,4.435911,1003.1839,0,0
1.12,10.333027,-4.2270575,2.7409952,1003.1763,0,0
1.16,9.472674,-4.656048,1.9266784,1003.17377,0,0
1.2,8.9086685,-5.094571,1.7609754000000002,1003.1611,0,0
1.24,8.989937,-5.1184044,1.2449261,1003.1786,0,0
1.28,9.347924,-5.0945597000000005,1.1691302,1003.19653,0,0
1.32,9.524768,-4.713235,0.591532,1003.2141,0,0
1.36,9.1806135,-5.03736,0.65781283,1003.1988,0,0
1.4,8.716964,-5.18989,0.38321665,1003.2085,0,0
1.44,8.55922,-5.118391,0.14176118,1003.1935,0,0
1.48,8.693047,-5.1231575,0.09915072,1003.196,0,0
1.52,8.525744,-5.2709208,-0.07602307,1003.1906,0,0
1.56,8.444479,-5.5807467000000015,-0.04761743,1003.196,0,0
1.6,8.334536,-5.623646,-0.11389987,1003.2132,0,0
1.64,8.157675,-5.633178,-0.18965113,1003.1882,0,0
1.68,8.100307,-5.7857080000000005,-0.46898174,1003.1882,0,0
1.72,7.870869,-5.9382377,-0.45004496,1003.2057,0,0
1.76,7.8135020000000015,-5.9048715,-0.61101556,1003.1881,0,0
1.8,7.6844387,-5.9096375,-0.68676674,1003.1904,0,0
1.84,7.6700907,-5.9096375,-0.5636730999999999,1003.1856,0,0
1.88,7.789577,-5.9144044000000005,-0.4595169,1003.2131,0,0
1.92,7.7943473,-5.890571,-0.45951775,1003.19293,0,0
1.96,7.7035227,-6.171798,0.061265938,1003.2106,0,0
2.0,7.9377246,-5.871504,0.122812375,1003.2231,0,0
2.04,7.9568324000000015,-5.9239364000000005,-0.16125286,1003.1879,0,0
2.08,7.9329267,-5.9763684,-0.04289342,1003.2106,0,0
2.12,7.985496,-5.8333716,-0.14705108,1003.1878,0,0
2.16,8.143219,-5.6331754,-0.251209,1003.20294,0,0
2.2,8.214908,-5.6331754,-0.028692726,1003.20026,0,0
2.24,8.257919000000001,-5.6856074,0.01865063,1003.2352,0,0
2.28,8.081377,-5.8000120000000015,0.113367155,1003.22797,0,0
2.32,7.9188665999999985,-5.833379,0.18438356,1003.22046,0,0
2.36,7.8328333,-5.6999144999999976,-0.113883615,1003.20544,0,0
2.4,7.9140935,-5.7237477,-0.10441448,1003.19495,0,0
2.44,7.832841,-5.6999144999999976,-0.0049916394,1003.24316,0,0
2.48,7.909322299999999,-5.647483,0.118103266,1003.23285,0,0
2.52,7.7085732999999985,-5.7380476,-0.11861664,1003.185,0,0
2.56,8.358630999999999,-5.8858112999999985,1.4247996,1003.20795,0,0
2.6,8.439891000000001,-5.3567233,0.28854284,1003.1703,0,0
2.64,8.220024,-5.533086,-0.97554284,1003.19293,0,0
2.68,7.8472023,-5.0850296,-0.87138563,1003.2227,0,0
2.72,7.9332423,-5.5521525999999986,0.5347328,1003.1929,0,0
2.76,8.028843,-5.494954,0.094433576,1003.21796,0,0
2.8,8.44947,-5.2470930000000005,0.4163735,1003.2352,0,0
2.84,8.545069,-5.1040964,0.1228407,1003.2054,0,0
2.88,8.353882,-5.204193599999999,0.12284109,1003.1979,0,0
2.92,8.568976,-5.09933,0.97976863,1003.20294,0,0
2.96,8.525961,-4.956333,0.43531248,1003.22284,0,0
3.0,8.368232,-5.204194,0.64362663,1003.22797,0,0
3.04,8.353896,-5.3328915,0.6720334,1003.17737,0,0
3.08,8.08623,-5.7046833,0.21753086,1003.2102,0,0
3.12,7.765987400000001,-5.647484,0.25067207,1003.19745,0,0
3.16,8.105358,-5.5378537,1.263835,1003.1803,0,0
3.2,8.220077,-5.409157,0.4968618,1003.1852,0,0
3.24,8.134044,-5.609352,-0.218033,1003.20544,0,0
3.28,8.325592,-5.575995400000001,0.26964328,1003.19293,0,0
3.32,8.03882,-5.9096546,0.26964477,1003.20306,0,0
3.36,7.905002,-5.809557,0.19863035,1003.2102,0,0
3.4,7.881122,-5.8905888,-0.057025876,1003.19543,0,0
3.44,7.9815145,-5.7523589999999984,-0.014414724,1003.20807,0,0
3.48,8.053228,-5.6141295,0.35487035,1003.2079,0,0
3.52,8.034125999999999,-5.8667574,0.41168484,1003.18317,0,0
3.56,8.038924,-5.9573226,0.63420355,1003.20807,0,0
3.6,7.981584,-5.9477897,0.70522124,1003.20544,0,0
3.64,7.8716664,-6.0526547,0.7430981,1003.2107,0,0
3.68,7.7282887,-6.2147183,0.6578803000000001,1003.20306,0,0
3.72,7.599251700000001,-6.267151,0.30753598,1003.2256,0,0
3.76,7.6470666,-6.271917299999999,0.21284941,1003.1982,0,0
3.8,7.75224,-6.1718199999999985,0.1844446,1003.2106,0,0
3.84,8.096405,-5.676099,0.20338392,1003.2256,0,0
3.88,7.6041,-6.028824299999999,-0.038069274,1003.2006,0,0
3.92,6.906267999999999,-6.4721150000000005,0.11816779,1003.23065,0,0
3.96,7.183514,-6.4339830000000005,0.26493597,1003.2082,0,0
4.0,7.704529300000001,-6.1146235,0.12763976,1003.1931,0,0
4.04,7.924417999999997,-6.0002265,0.10396926,1003.17566,0,0
4.08,8.072610000000001,-5.9001293,0.07083014,1003.20294,0,0
4.12,7.8623166,-5.91443,0.14658226,1003.2007,0,0
4.16,7.5946630000000015,-6.033593700000001,0.12291166,1003.1906,0,0
4.2,7.5468826,-6.1861243,0.09924124,1003.2185,0,0
4.24,7.537341599999999,-6.224257,0.23654072,1003.1906,0,0
4.28,7.5326414,-6.171827,0.26968884,1003.2156,0,0
4.32,7.5374413,-6.167061,0.07558009,1003.2185,0,0
4.36,7.547021400000001,-6.167061,-0.2132167,1003.2261,0,0
4.4,7.5327034,-6.200428,-0.20848039,1003.20306,0,0
4.44,7.599639999999999,-6.1527624,-0.13746254,1003.1932,0,0
4.48,7.680917,-6.0621985999999985,-0.19427358,1003.22845,0,0
4.52,7.7143945999999985,-6.033599400000001,-0.13272457,1003.1982,0,0
4.56,7.7669929999999985,-6.0145339999999985,-0.09011306,1003.17566,0,0
4.6,7.81003,-5.962102400000001,0.10399927,1003.2186,0,0
4.64,8.0586,-5.885838,0.21289246,1003.1807,0,0
4.68,7.8913274000000015,-5.9287376,0.032986946,1003.20306,0,0
4.72,7.652356,-6.028836,0.26970893,1003.1957,0,0
4.76,7.652377599999999,-5.990704,0.39753982,1003.1656,0,0
4.8,7.5759196,-6.057436,0.48276085,1003.18567,0,0
4.84,7.4564447,-6.1098685,0.42594984,1003.2035,0,0
4.88,7.5902996,-6.119402,0.3265292,1003.19617,0,0
4.92,7.6428967,-6.019305,0.25551486,1003.21106,0,0
4.96,7.8484488,-6.066971,0.06140612400000001,1003.1982,0,0
5.0,7.9679637,-6.009773,0.07087681400000001,1003.1907,0,0
5.04,7.8198104000000015,-6.0908045999999985,0.12769154,1003.17316,0,0
5.08,7.638197,-6.1194042999999985,-0.00960448,1003.1907,0,0
5.12,7.6477766,-6.047907,0.03300703,1003.19855,0,0
5.16,7.666916,-6.124172,0.29340115,1003.20105,0,0
5.2,7.819889,-5.9954753,0.44490385,1003.1935,0,0
5.24,7.781671,-5.9144444000000025,0.48278093,1003.2157,0,0
5.28,7.770892,-5.857216,0.4637317,1003.18854,0,0
5.32,7.732624499999999,-5.919181,0.5962924,1003.2166,0,0
5.36,7.7851715,-6.0383434000000005,0.62469596,1003.196,0,0
5.4,8.071926,-5.957311,0.45898867,1003.196,0,0
5.44,8.200958,-5.8715124,0.3785018,1003.21155,0,0
5.48,8.052755,-5.80478,0.08496599,1003.2238,0,0
5.52,7.5604076,-6.0621734000000025,0.118104324,1003.20105,0,0
5.56,7.4886837,-6.2242365,0.17491467,1003.19653,0,0
5.6,7.689404,-5.9716077000000025,0.25066236,1003.1761,0,0
5.64,7.8853490000000015,-5.8667426,0.35955113,1003.1839,0,0
5.68,7.813622500000001,-5.96684,0.3500797,1003.20105,0,0
5.72,7.5889425,-5.9954386,0.58679724,1003.19324,0,0
5.76,7.689289,-6.057403,0.6814826999999999,1003.18365,0,0
5.8,7.708373,-5.9382386,0.56785375,1003.19855,0,0
5.84,7.770482,-5.96207,0.52997583,1003.22363,0,0
5.88,7.770460000000001,-5.981136,0.54417706,1003.2016,0,0
5.92,7.784764999999997,-5.9191699999999985,0.8329726000000001,1003.19904,0,0
5.96,7.7847357000000015,-5.885803,0.26957574,1003.1865,0,0
6.0,7.8898616,-5.9430013,0.4968245,1003.1915,0,0
6.04,-1.9418929,7.298486,5.1839128,1003.071,0,0
6.08,-1.6598763,6.4691052,7.347536,1003.1157,0,0
6.12,-1.9131987,5.444296,7.986682000000001,1003.1404,0,0
6.16,-1.4591098,5.630191,7.655274,1003.1503,0,0
6.2,-1.6598544999999998,5.36803,6.907239,1003.0959,0,0
6.24,-1.5355719,3.6520696,9.222363,1003.0952,0,0
6.28,-1.7841146,2.9847515,8.611626,1003.15515,0,0
6.32,-1.5306809,3.0705469,8.564291,1003.14233,0,0
6.36,-2.3814743,1.1067253,6.9072514000000025,1003.1198,0,0
6.4,-0.51256055,2.722588,8.346511,1003.1198,0,0
6.44,-0.45041233,1.5357149,8.422262,1003.0998,0,0
6.48,-1.1769311000000002,-1.5720804,7.693165,1003.1098,0,0
6.52,-1.5879829,2.8608172,7.3570232,1003.14984,0,0
6.56,1.6670749,1.225888,9.549054,1003.14233,0,0
6.6,1.4424356000000005,-0.018183738,8.554831,1003.11694,0,0
6.64,2.8094697,1.4499155,6.334395,1003.11694,0,0
6.68,3.000673,0.0008819103,6.168692,1003.1623,0,0
6.72,5.05122,0.09621279,5.5248137,1003.1698,0,0
6.76,6.121908,-1.0906601,7.783125999999997,1003.147,0,0
6.8,6.695495599999999,-2.3442647,6.429087,1003.18695,0,0
6.84,7.541531599999999,-2.515861,7.271812,1003.16425,0,0
6.88,8.60266,-3.2642107000000005,3.886714,1003.15924,0,0
6.92,11.1025095,-2.7494228,7.645832,1003.18195,0,0
6.96,9.329212,-4.698945,3.971935,1003.1773,0,0
7.0,11.795602,-3.3404765,6.3864822,1003.17694,0,0
7.04,10.419031,-4.656047,5.131867,1003.13654,0,0
7.08,10.820545,-3.9458296,3.863047,1003.1691,0,0
7.12,11.0069685,-3.969663,4.435911,1003.1839,0,0
7.16,10.333027,-4.2270575,2.7409952,1003.1763,0,0
7.2,9.472674,-4.656048,1.9266784,1003.17377,0,0
7.24,8.9086685,-5.094571,1.7609754000000002,1003.1611,0,0
7.28,8.989937,-5.1184044,1.2449261,1003.1786,0,0
7.32,9.347924,-5.0945597000000005,1.1691302,1003.19653,0,0
7.36,9.524768,-4.713235,0.591532,1003.2141,0,0
7.4,9.1806135,-5.03736,0.65781283,1003.1988,0,0
7.44,8.716964,-5.18989,0.38321665,1003.2085,0,0
7.48,8.55922,-5.118391,0.14176118,1003.1935,0,0
7.52,8.693047,-5.1231575,0.09915072,1003.196,0,0
7.56,8.525744,-5.2709208,-0.07602307,1003.1906,0,0
7.6,8.444479,-5.5807467000000015,-0.04761743,1003.196,0,0
7.64,8.334536,-5.623646,-0.11389987,1003.2132,0,0
7.68,8.157675,-5.633178,-0.18965113,1003.1882,0,0
7.72,8.100307,-5.7857080000000005,-0.46898174,1003.1882,0,0
7.76,7.870869,-5.9382377,-0.45004496,1003.2057,0,0
7.8,7.8135020000000015,-5.9048715,-0.61101556,1003.1881,0,0
7.84,7.6844387,-5.9096375,-0.68676674,1003.1904,0,0
7.88,7.6700907,-5.9096375,-0.5636730999999999,1003.1856,0,0
7.92,7.789577,-5.9144044000000005,-0.4595169,1003.2131,0,0
7.96,7.7943473,-5.890571,-0.45951775,1003.19293,0,0
8.0,7.7035227,-6.171798,0.061265938,1003.2106,0,0
8.04,7.9377246,-5.871504,0.122812375,1003.2231,0,0
8.08,7.9568324000000015,-5.9239364000000005,-0.16125286,1003.1879,0,0
8.12,7.9329267,-5.9763684,-0.04289342,1003.2106,0,0
8.16,7.985496,-5.8333716,-0.14705108,1003.1878,0,0
8.2,8.143219,-5.6331754,-0.251209,1003.20294,0,0
8.24,8.214908,-5.6331754,-0.028692726,1003.20026,0,0
8.28,8.257919000000001,-5.6856074,0.01865063,1003.2352,0,0
8.32,8.081377,-5.8000120000000015,0.113367155,1003.22797,0,0
8.36,7.9188665999999985,-5.833379,0.18438356,1003.22046,0,0
8.4,7.8328333,-5.6999144999999976,-0.113883615,1003.20544,0,0
8.44,7.9140935,-5.7237477,-0.10441448,1003.19495,0,0
8.48,7.832841,-5.6999144999999976,-0.0049916394,1003.24316,0,0
8.52,7.909322299999999,-5.647483,0.118103266,1003.23285,0,0
8.56,7.7085732999999985,-5.7380476,-0.11861664,1003.185,0,0
8.6,8.358630999999999,-5.8858112999999985,1.4247996,1003.20795,0,0
8.64,8.439891000000001,-5.3567233,0.28854284,1003.1703,0,0
8.68,8.220024,-5.533086,-0.97554284,1003.19293,0,0
8.72,7.8472023,-5.0850296,-0.87138563,1003.2227,0,0
8.76,7.9332423,-5.5521525999999986,0.5347328,1003.1929,0,0
8.8,8.028843,-5.494954,0.094433576,1003.21796,0,0
8.84,8.44947,-5.2470930000000005,0.4163735,1003.2352,0,0
8.88,8.545069,-5.1040964,0.1228407,1003.2054,0,0
8.92,8.353882,-5.204193599999999,0.12284109,1003.1979,0,0
8.96,8.568976,-5.09933,0.97976863,1003.20294,0,0
9.0,8.525961,-4.956333,0.43531248,1003.22284,0,0
9.04,8.368232,-5.204194,0.64362663,1003.22797,0,0
9.08,8.353896,-5.3328915,0.6720334,1003.17737,0,0
9.12,8.08623,-5.7046833,0.21753086,1003.2102,0,0
9.16,7.765987400000001,-5.647484,0.25067207,1003.19745,0,0
9.2,8.105358,-5.5378537,1.263835,1003.1803,0,0
9.24,8.220077,-5.409157,0.4968618,1003.1852,0,0
9.28,8.134044,-5.609352,-0.218033,1003.20544,0,0
9.32,8.325592,-5.575995400000001,0.26964328,1003.19293,0,0
9.36,8.03882,-5.9096546,0.26964477,1003.20306,0,0
9.4,7.905002,-5.809557,0.19863035,1003.2102,0,0
9.44,7.881122,-5.8905888,-0.057025876,1003.19543,0,0
9.48,7.9815145,-5.7523589999999984,-0.014414724,1003.20807,0,0
9.52,8.053228,-5.6141295,0.35487035,1003.2079,0,0
9.56,8.034125999999999,-5.8667574,0.41168484,1003.18317,0,0
9.6,8.038924,-5.9573226,0.63420355,1003.20807,0,0
9.64,7.981584,-5.9477897,0.70522124,1003.20544,0,0
9.68,7.8716664,-6.0526547,0.7430981,1003.2107,0,0
9.72,7.7282887,-6.2147183,0.6578803000000001,1003.20306,0,0
9.76,7.599251700000001,-6.267151,0.30753598,1003.2256,0,0
9.8,7.6470666,-6.271917299999999,0.21284941,1003.1982,0,0
9.84,7.75224,-6.1718199999999985,0.1844446,1003.2106,0,0
9.88,8.096405,-5.676099,0.20338392,1003.2256,0,0
9.92,7.6041,-6.028824299999999,-0.038069274,1003.2006,0,0
9.96,6.906267999999999,-6.4721150000000005,0.11816779,1003.23065,0,0
10.0,7.183514,-6.4339830000000005,0.26493597,1003.2082,0,0
10.04,7.704529300000001,-6.1146235,0.12763976,1003.1931,0,0
10.08,7.924417999999997,-6.0002265,0.10396926,1003.17566,0,0
10.12,8.072610000000001,-5.9001293,0.07083014,1003.20294,0,0
10.16,7.8623166,-5.91443,0.14658226,1003.2007,0,0
10.2,7.5946630000000015,-6.033593700000001,0.12291166,1003.1906,0,0
10.24,7.5468826,-6.1861243,0.09924124,1003.2185,0,0
10.28,7.537341599999999,-6.224257,0.23654072,1003.1906,0,0
10.32,7.5326414,-6.171827,0.26968884,1003.2156,0,0
10.36,7.5374413,-6.167061,0.07558009,1003.2185,0,0
10.4,7.547021400000001,-6.167061,-0.2132167,1003.2261,0,0
10.44,7.5327034,-6.200428,-0.20848039,1003.20306,0,0
10.48,7.599639999999999,-6.1527624,-0.13746254,1003.1932,0,0
10.52,7.680917,-6.0621985999999985,-0.19427358,1003.22845,0,0
10.56,7.7143945999999985,-6.033599400000001,-0.13272457,1003.1982,0,0
10.6,7.7669929999999985,-6.0145339999999985,-0.09011306,1003.17566,0,0
10.64,7.81003,-5.962102400000001,0.10399927,1003.2186,0,0
10.68,8.0586,-5.885838,0.21289246,1003.1807,0,0
10.72,7.8913274000000015,-5.9287376,0.032986946,1003.20306,0,0
10.76,7.652356,-6.028836,0.26970893,1003.1957,0,0
10.8,7.652377599999999,-5.990704,0.39753982,1003.1656,0,0
10.84,7.5759196,-6.057436,0.48276085,1003.18567,0,0
10.88,7.4564447,-6.1098685,0.42594984,1003.2035,0,0
10.92,7.5902996,-6.119402,0.3265292,1003.19617,0,0
10.96,7.6428967,-6.019305,0.25551486,1003.21106,0,0
11.0,7.8484488,-6.066971,0.06140612400000001,1003.1982,0,0
11.04,7.9679637,-6.009773,0.07087681400000001,1003.1907,0,0
11.08,7.8198104000000015,-6.0908045999999985,0.12769154,1003.17316,0,0
11.12,7.638197,-6.1194042999999985,-0.00960448,1003.1907,0,0
11.16,7.6477766,-6.047907,0.03300703,1003.19855,0,0
11.2,7.666916,-6.124172,0.29340115,1003.20105,0,0
11.24,7.819889,-5.9954753,0.44490385,1003.1935,0,0
11.28,7.781671,-5.9144444000000025,0.48278093,1003.2157,0,0
11.32,7.770892,-5.857216,0.4637317,1003.18854,0,0
11.36,7.732624499999999,-5.919181,0.5962924,1003.2166,0,0
11.4,7.7851715,-6.0383434000000005,0.62469596,1003.196,0,0
11.44,8.071926,-5.957311,0.45898867,1003.196,0,0
11.48,8.200958,-5.8715124,0.3785018,1003.21155,0,0
11.52,8.052755,-5.80478,0.08496599,1003.2238,0,0
11.56,7.5604076,-6.0621734000000025,0.118104324,1003.20105,0,0
11.6,7.4886837,-6.2242365,0.17491467,1003.19653,0,0
11.64,7.689404,-5.9716077000000025,0.25066236,1003.1761,0,0
11.68,7.8853490000000015,-5.8667426,0.35955113,1003.1839,0,0
11.72,7.813622500000001,-5.96684,0.3500797,1003.20105,0,0
11.76,7.5889425,-5.9954386,0.58679724,1003.19324,0,0
11.8,7.689289,-6.057403,0.6814826999999999,1003.18365,0,0
11.84,7.708373,-5.9382386,0.56785375,1003.19855,0,0
11.88,7.770482,-5.96207,0.52997583,1003.22363,0,0
11.92,7.770460000000001,-5.981136,0.54417706,1003.2016,0,0
11.96,7.784764999999997,-5.9191699999999985,0.8329726000000001,1003.19904,0,0
12.0,7.7847357000000015,-5.885803,0.26957574,1003.1865,0,0
12.04,7.8898616,-5.9430013,0.4968245,1003.1915,0,0
12.08,7.7990203,-6.109830400000001,0.6388543000000001,1003.2035,0,0
12.12,7.7607527,-6.0716968,0.7146021,1003.19904,0,0
12.16,7.760723,-5.9906644999999985,0.62464577,1003.21106,0,0
12.2,7.693777000000001,-6.0240297,0.64831513,1003.20905,0,0
12.24,7.827580999999999,-5.9858965999999985,0.70512515,1003.18066,0,0
12.28,7.765415700000001,-6.066927,0.6719818000000001,1003.18097,0,0
12.32,8.014387,-6.0431050000000015,0.47317526,1003.19635,0,0
12.36,7.765828,-6.0478716,0.47790894,1003.2365,0,0
12.4,7.3643100000000015,-6.262366,0.68622136,1003.2016,0,0
12.44,7.5554914,-6.1670346,0.42582813,1003.19385,0,0
12.48,7.717993700000001,-6.0526366,0.37848312,1003.20886,0,0
12.52,7.9330735,-5.962072,0.45423254,1003.1888,0,0
12.56,7.976080400000002,-5.9144063,0.681483,1003.2141,0,0
12.6,7.813556699999999,-6.0717025,0.728826,1003.21405,0,0
12.64,7.71795,-6.0621686,0.5205112000000001,1003.206,0,0
12.68,7.6558009999999985,-6.0097365,0.51104134,1003.18604,0,0
12.72,7.775284,-6.062168,0.59625953,1003.20404,0,0
12.76,7.918667299999999,-6.066934,0.48736724,1003.2093,0,0
12.8,7.9999137,-5.9334707,0.37847495,1003.1935,0,0
12.84,7.799149000000001,-6.0669336,0.22697286,1003.19116,0,0
12.88,7.732220599999999,-6.143199,0.21276863,1003.21906,0,0
12.92,7.842146400000002,-5.9906690000000005,0.2127677,1003.18115,0,0
12.96,7.9042716,-5.93347,0.31218909999999994,1003.2164,0,0
13.0,7.8325634000000015,-5.90487,0.24590646,1003.21155,0,0
13.04,7.7178369999999985,-5.966835,0.2932495,1003.196,0,0
13.08,7.650908999999999,-5.9763684,0.38320217,1003.2016,0,0
13.12,7.6747966,-6.119364,0.32165387,1003.22156,0,0
13.16,7.646106,-6.024033,0.32638717,1003.19904,0,0
13.2,7.7512507,-6.057399,0.15121321,1003.18604,0,0
13.24,7.617406,-6.052632,0.20802508,1003.2085,0,0
13.28,7.7464476,-6.0144987,0.24589922,1003.1988,0,0
13.32,7.7992063,-6.000203599999999,0.14175886,1003.19867,0,0
13.36,7.813542999999999,-5.8858066,0.03286723,1003.2041,0,0
13.4,7.7322817,-6.0717019999999975,0.24591509,1003.17114,0,0
13.44,7.588883999999997,-6.2528315,0.12755463,1003.19867,0,0
13.48,7.502844,-6.1193665999999975,0.09441343,1003.19104,0,0
13.52,7.455042,-6.2242317000000025,0.0991475,1003.19855,0,0
13.56,7.4980564,-6.00497,-0.11390105,1003.2085,0,0
13.6,7.5793095,-6.1717997,0.042333987,1003.18866,0,0
13.64,7.7465982,-6.2194650000000005,0.20803778,1003.2032,0,0
13.68,7.6940174,-6.1288996,0.118083775,1003.21356,0,0
13.72,7.6987934,-6.1241330000000005,-0.019214306,1003.18854,0,0
13.76,7.564955,-6.1956315,0.018660557,1003.2185,0,0
13.8,7.670107400000001,-6.119366,0.03286346,1003.21356,0,0
13.84,8.038149,-5.895338,0.11334798,1003.206,0,0
13.88,7.91865,-6.147966,0.20803572,1003.2113,0,0
13.92,7.765692,-6.4720917,0.2127698,1003.19867,0,0
13.96,7.775247999999999,-6.3815269999999975,0.19856623,1003.21106,0,0
14.0,7.684428,-6.0907664000000015,-0.07129517,1003.2189,0,0
14.04,7.517131299999999,-6.1050663,-0.3837662,1003.206,0,0
14.08,7.043926700000001,-6.576956,-0.3458913,1003.2035,0,0
14.12,7.12518,-6.8200493,-0.019217722,1003.2082,0,0
14.16,7.4119644,-6.557889,0.1417517,1003.2113,0,0
14.2,7.8039045,-6.0526339999999985,-0.23226665,1003.21106,0,0
14.24,7.913836999999999,-5.943003,-0.45951834,1003.20105,0,0
14.28,7.803897,-5.971602,-0.22279851,1003.2036,0,0
14.32,7.62822,-6.090795,-0.07592435,1003.2157,0,0
14.36,7.6282606,-6.1575274,-0.004904557,1003.2107,0,0
14.4,7.508808599999999,-6.2719264,0.14186594,1003.2082,0,0
14.44,7.456271000000001,-6.3672580000000005,0.21288572,1003.221,0,0
14.48,7.5184546,-6.2576284000000015,-0.06170557,1003.2107,0,0
14.52,7.3846636,-6.352961,-0.033295196,1003.20105,0,0
14.56,7.4372786999999985,-6.429227,-0.36943445,1003.18567,0,0
14.6,7.4564433,-6.362496,-0.45938393,1003.2086,0,0
14.64,7.489942599999999,-6.362497,-0.5824746999999999,1003.2057,0,0
14.68,7.370494,-6.286233,-0.61087704,1003.1756,0,0
14.72,7.298834299999997,-6.3577323,-0.48304462,1003.1906,0,0
14.76,7.222403,-6.3910995,-0.42149317,1003.1932,0,0
14.8,7.370617399999999,-6.2099714000000015,-0.30312935,1003.239,0,0
14.84,7.518834599999999,-6.2147393,-0.16582768,1003.2281,0,0
14.88,7.6479297000000015,-6.2004404000000015,-0.1042767,1003.2106,0,0
14.92,7.700550999999999,-6.0812774,-0.109007135,1003.2006,0,0
14.96,7.863107,-5.943048,-0.07586238,1003.2032,0,0
15.0,7.973087,-5.833419,-0.19421856,1003.20306,0,0
15.04,8.001805000000001,-5.881085,0.009364553,1003.2182,0,0
15.08,7.934928399999999,-5.9668839999999985,0.028305871,1003.24365,0,0
15.12,7.9110723,-6.019317,-0.033237446000000004,1003.1829,0,0
15.16,7.939791,-5.9430532,-0.033233736,1003.1956,0,0
15.2,7.9398399999999985,-5.952588,-0.16105822,1003.1856,0,0
15.24,7.834725,-5.9335227,-0.18946093,1003.1854,0,0
15.28,7.791747,-6.024088,-0.108972356,1003.1879,0,0
15.32,7.758332000000001,-6.081288,-0.22732852,1003.2057,0,0
15.36,7.605420599999999,-6.1718535,-0.15630853,1003.20776,0,0
15.4,7.5050855,-6.2052207,-0.12316398,1003.1979,0,0
15.44,7.404766,-6.286253,-0.14209639999999998,1003.2231,0,0
15.48,7.3221006,-6.36725,-0.15169422,1003.2253,0,0
15.52,7.379451299999999,-6.286218,-0.27005494,1003.2104,0,0
15.56,7.455924,-6.2623854,-0.360009,1003.2153,0,0
15.6,7.417677999999999,-6.1956534,-0.22271197,1003.19543,0,0
15.64,7.432010000000001,-6.2814510000000015,-0.23218141,1003.1977,0,0
15.68,7.508481,-6.195653,-0.1659004,1003.18787,0,0
15.72,7.737905499999999,-5.957325,-0.23691697,1003.1928,0,0
15.76,7.771357000000001,-6.0478897000000025,-0.08068223,1003.2231,0,0
15.8,7.7522326,-6.1193876,0.042411767,1003.2102,0,0
15.84,7.8478227,-5.995457,0.032942444,1003.2006,0,0
15.88,7.857377499999999,-6.0145230000000005,0.13236447,1003.22296,0,0
15.92,7.8478084,-6.1193870000000015,0.03767556,1003.1999,0,0
15.96,7.7283077,-6.0002227,-0.26532690000000003,1003.1999,0,0
16.0,7.474972,-6.100321,-0.19904585,1003.1852,0,0
16.04,7.6088,-6.0526550000000015,0.17970595,1003.2099,0,0
16.08,7.914700999999999,-6.1336865,0.29333112,1003.2203,0,0
16.12,7.613567,-6.5054774,0.20337681,1003.2206,0,0
16.16,7.575322,-6.190885,-0.052281607,1003.20996,0,0
16.2,7.670911999999999,-5.9430237,-0.34108084,1003.2227,0,0
16.24,7.3410993000000015,-6.276683,-0.16117409,1003.2178,0,0
16.28,7.0543046,-6.433979,0.07081119999999999,1003.22784,0,0
16.32,7.4223433,-6.4196787,0.061341804000000014,1003.2079,0,0
16.36,7.9050965,-6.0621867,-0.22745745,1003.21277,0,0
16.4,8.187099,-5.91919,-0.2605989,1003.2104,0,0
16.44,8.172753,-5.9096565000000005,-0.14697377,1003.1899,0,0
16.48,7.9096410000000015,-5.919184,-0.19433834,1003.2004,0,0
16.52,7.594158599999999,-5.9811489999999985,0.047115017,1003.2104,0,0
16.56,7.269117,-6.5197697,0.35484996,1003.19745,0,0
16.6,7.288221000000001,-6.457804,0.26016048,1003.1825,0,0
16.64,7.264308,-6.6246333,0.15600225,1003.2224,0,0
16.68,7.718374000000002,-6.1670437000000025,-0.24642356,1003.1924,0,0
16.72,8.143761999999999,-5.7380533,-0.22748728,1003.2303,0,0
16.76,8.296700999999999,-5.6570215,-0.3458487,1003.2049,0,0
16.8,8.138953,-5.9096484,-0.047582533,1003.2278,0,0
16.84,7.708753999999999,-6.147976,0.27908993,1003.2024,0,0
16.88,7.503208,-6.186108,0.32169822,1003.1825,0,0
16.92,7.3597990000000015,-6.1670413,0.3785097,1003.19745,0,0
16.96,7.297647,-6.1527414,0.2554139,1003.2001,0,0
17.0,7.412347299999999,-6.186107,0.13231793,1003.2124,0,0
17.04,7.4983673,-6.209939,0.018690743,1003.2099,0,0
17.08,7.5509309999999985,-6.176573,-0.09493627,1003.2149,0,0
17.12,7.7229899999999985,-6.0955415,-0.21803205,1003.20245,0,0
17.16,7.665616,-6.090774,-0.29378402,1003.1921,0,0
17.2,7.9476104,-5.871512,-0.26537892,1003.2124,0,0
17.24,7.942815299999999,-5.8190794000000015,-0.080738515,1003.19495,0,0
17.28,8.157892,-5.8333793,0.056557886,1003.187,0,0
17.32,8.420765,-5.5998178,0.5442001000000001,1003.19495,0,0
17.36,8.176982,-5.671315,0.67676216,1003.20996,0,0
17.4,7.933195599999999,-5.7094474,0.56786937,1003.20245,0,0
17.44,7.7993455,-5.8953424000000005,0.58207124,1003.1974,0,0
17.48,8.010992,-5.7142467,0.5111773000000001,1003.16187,0,0
17.52,7.910655499999999,-5.7809795999999976,0.51118094,1003.23987,0,0
17.56,7.7386193,-5.7714467,0.67215407,1003.2475,0,0
17.6,8.216638,-5.542653,0.7952520000000001,1003.19684,0,0
17.64,7.8916497,-5.7762150000000005,0.44017524,1003.2195,0,0
17.68,8.207156,-5.5903206,0.8520719999999999,1003.2649,0,0
17.72,8.417507,-5.428259,0.84260684,1003.2095,0,0
17.76,8.455785,-5.1803994000000015,0.75739115,1003.227,0,0
17.8,8.30765,-5.2900305,0.8710205,1003.2443,0,0
17.84,7.662412599999999,-5.761921,1.1030096,1003.2041,0,0
17.88,7.6576724,-5.9144516,1.2355766,1003.2166,0,0
17.92,7.930161,-5.6951904,1.2592521,1003.2345,0,0
17.96,8.408178,-5.366299,1.287662,1003.21436,0,0
18.0,8.503816,-5.3758339999999984,1.0036014000000002,1003.2091,0,0
18.04,8.178825999999999,-5.633228,0.8189630999999999,1003.2091,0,0
18.08,8.1023855,-5.5235980000000025,0.7716225,1003.2091,0,0
18.12,8.040286,-5.4997663,0.8710484000000001,1003.22394,0,0
18.16,8.121584,-5.3424716,0.904193,1003.2116,0,0
18.2,8.083385,-5.504535,0.9799471,1003.20355,0,0
18.24,7.8587728000000014,-5.733331,1.0746387,1003.20605,0,0
18.28,7.7584342999999985,-5.6761336,1.060439,1003.2142,0,0
18.32,7.892305,-5.528370400000001,0.94208217,1003.22394,1,1
18.36,7.973602,-5.4950056,0.7432408,1003.19855,1,1
18.4,8.112255000000001,-5.4854736,0.8805421,1003.1811,1,1
18.44,8.040595,-5.4711747000000015,0.74798214,1003.1963,1,1
18.48,8.048848,-5.4187107,0.70525295,1003.19354,1,1
18.52,8.015376,-5.356745,0.7241893,1003.21106,1,1
18.56,7.9819026,-5.4663754,0.5774215,1003.2213,1,1
18.6,8.201759,-5.3281455,0.68631136,1003.2286,1,1
18.64,8.565010000000001,-5.52834,0.6531691999999999,1003.17584,1,1
18.68,8.564996,-5.3281446,0.55847985,1003.2083,1,1
18.72,7.804991,-5.509273,0.28861728,1003.2057,1,1
18.76,7.245738,-5.5807705,0.18919341,1003.2008,1,1
18.8,6.9254775,-5.62367,0.12291044,1003.2309,1,1
18.84,6.4474816,-5.9716277,0.2838788,1003.2236,1,1
18.88,6.562182400000001,-6.0860248,0.6247545999999999,1003.1957,1,1
18.92,7.804915400000001,-6.7295094,0.32175127,1003.1751,1,1
18.96,9.936694,-7.358695,0.42117247,1003.2258,1,1
19.0,11.456653,-6.486415,1.3349106000000002,1003.2356,1,1
19.04,15.51469,-2.568304,2.5942612,1003.21533,1,1
19.08,20.246687,0.5919232,3.3091552,1003.2157,1,1
19.12,19.02304,-1.2670336000000002,4.2323627,1003.23315,1,1
19.16,11.877215,-7.139432000000001,2.627398,1003.2356,1,1
19.2,10.500617,-7.6208534,1.183403,1003.2178,1,1
19.24,9.783636,-8.259571000000001,0.7667744000000001,1003.19794,1,1
19.28,8.851555000000003,-9.732437,0.3785515,1003.24036,1,1
19.32,8.593430499999998,-10.657149,0.40695655,1003.2304,1,1
19.36,7.76173,-11.619992,1.1739289,1003.2301,1,1
19.4,3.885299,-13.531382999999998,1.4816641000000002,1003.2354,1,1
19.44,-5.033835400000001,-18.412334,-4.6399225999999985,1003.18994,1,1
19.48,-1.950875,-15.833629,-3.1959307,1003.22296,1,1
19.52,2.2983582,-14.680121,-1.1506691,1003.1923,1,1
19.56,8.091463000000001,-14.537124,-3.238543,1003.1798,1,1
19.6,13.291873999999998,-14.927981,-2.518915,1003.17725,1,1
19.64,15.605282999999998,-15.418937,1.5479372,1003.18195,1,1
19.68,14.735345,-12.411238,3.4511666,1003.1997,1,1
19.72,12.641774,-10.01366,4.0382314,1003.2094,1,1
19.76,12.297614,-8.426396,2.7078624,1003.23236,1,1
19.8,13.396954999999998,-4.894377,2.8925028,1003.2018,1,1
19.84,12.302365,-2.0487423,4.1187124,1003.2047,1,1
19.88,10.462124,-1.1478626,4.454853,1003.2094,1,1
19.92,10.911412,-0.5854087,2.3433077,1003.2169,1,1
19.96,13.659784,-0.5043767,2.759934,1003.2019,1,1
20.0,16.159605,-4.460619,3.3469987,1003.1868,1,1
20.04,17.034294,-7.597013,2.2107403,1003.2117,1,1
20.08,16.31332,-10.418834,1.8794026,1003.22437,1,1
20.12,15.261768,-13.545695000000002,0.601114,1003.25934,1,1
20.16,16.370687,-17.130146,-0.40257934,1003.25183,1,1
20.2,16.671818,-18.903305,0.567974,1003.27924,1,1
20.24,15.5007715,-17.783165,1.9172797,1003.27124,1,1
20.28,10.3433695,-16.224498999999998,1.1597753999999998,1003.26874,1,1
20.32,8.24504,-12.8736105,0.6342569,1003.26105,1,1
20.36,6.7441864,-11.105219,0.7857584,1003.25385,1,1
20.4,4.1678760000000015,-10.170973,0.66739863,1003.2314,1,1
20.44,-0.2008599,-11.581875,0.48275727,1003.204,1,1
20.48,-5.530337,-13.06904,-0.8381412,1003.2061,1,1
20.52,-3.2694843,-12.263492,-0.6534989999999999,1003.1659,1,1
20.56,0.1480795,-13.726826,-0.7434523000000001,1003.13824,1,1
20.6,4.7605944,-16.806019,1.1645131000000002,1003.18896,1,1
20.64,13.168275,-18.736475,1.6190163999999998,1003.1633,1,1
20.68,19.750069,-21.806139,0.7052769,1003.2008,1,1
20.72,22.307268,-20.404772,0.14661755,1003.1857,1,1
20.76,21.097982,-13.254937,0.35966617,1003.2109,1,1
20.8,18.803682,-10.175741,4.6963816,1003.24316,1,1
20.84,15.476943,-8.440714999999999,3.4180925,1003.22284,1,1
20.88,11.820398,-7.482636999999999,0.7100134,1003.2008,1,1
20.92,9.105474,-5.04216,-1.1742792,1003.23566,1,1
20.96,9.8272295,-3.4501297,-0.33628914,1003.1954,1,1
21.0,12.441788,-1.943898,0.9041253,1003.23114,1,1
21.04,16.700594,-0.46626532,3.9909577000000014,1003.23535,1,1
21.08,16.251621,-4.999269,5.079901,1003.2326,1,1
21.12,15.066249,-8.860180999999997,3.1387963,1003.19745,1,1
21.16,14.062507,-10.657173,2.215589,1003.2503,1,1
21.2,13.173479,-14.060494,1.5906489,1003.26245,1,1
21.24,13.073123,-18.21693,2.3765619,1003.26746,1,1
21.28,12.838928,-18.865185,3.2808347,1003.2596,1,1
21.32,12.666874,-17.778408,3.7732143,1003.2475,1,1
21.36,10.119257,-16.872765,2.636959,1003.23456,1,1
21.4,8.274269,-14.832679999999998,2.419178,1003.24994,1,1
21.44,6.0851374000000025,-11.915546,1.5054393999999998,1003.23956,1,1
21.48,4.536496,-9.803963,0.6201073,1003.23206,1,1
21.52,1.9888788,-9.91836,0.8142195,1003.2121,1,1
21.56,-1.1036376,-10.514181,1.4107558999999998,1003.21185,1,1
21.6,-2.1264977000000003,-10.590446,0.6958625,1003.19934,1,1
21.64,-1.9974256,-12.130044,-1.2641795,1003.2146,1,1
21.68,1.0568869,-14.160598,0.29344136,1003.1692,1,1
21.72,7.4522824,-14.608654,2.045173,1003.1946,1,1
21.76,13.049451,-14.713519,1.6806251,1003.1896,1,1
21.8,14.889691,-17.921412,-0.33149529,1003.2021,1,1
21.84,16.08944,-19.303713,-8.5327774e-05,1003.1919,1,1
21.88,16.19461,-16.925201,1.9504908,1003.20404,1,1
21.92,16.471857,-14.098636,4.294023,1003.2192,1,1
21.96,16.462315,-11.496095,5.065732499999998,1003.25183,1,1
22.0,15.554170999999998,-6.6342077,3.3518796,1003.2317,1,1
22.04,12.394739,-4.508324,1.5717449,1003.2188,1,1
22.08,10.406452,-4.1222353,0.17037138,1003.2065,1,1
22.12,10.999168,-3.559782,0.033075593,1003.2089,1,1
22.16,12.70558,-3.6455808,1.8416201,1003.229,1,1
22.2,14.048726,-4.8419876,3.3945067000000004,1003.239,1,1
22.24,14.163464,-7.33013,2.0310004,1003.23663,1,1
22.28,13.905373,-9.889772,1.1456684,1003.2136,1,1
22.32,12.982893,-14.03191,0.89948124,1003.24603,1,1
22.36,12.829959,-16.539118,1.5480965,1003.27106,1,1
22.4,12.829982,-17.24457,3.001561,1003.25824,1,1
22.44,11.969638,-16.119660999999994,2.977891,1003.27576,1,1
22.48,9.073097,-15.471413,1.9741989,1003.26855,1,1
22.52,7.237674,-13.431327,1.9221225,1003.28864,1,1
22.56,6.0379653,-10.857387,1.5196999,1003.27893,1,1
22.6,5.392717,-9.0842285,1.7706257,1003.22833,1,1
22.64,4.647089,-9.136661,1.9978791,1003.23083,1,1
22.68,2.8929217,-8.955531,1.7943016,1003.2134,1,1
22.72,0.8328409,-8.769636,1.5197073,1003.2058,1,1
22.76,-1.5092347,-9.975575,-0.7954138000000001,1003.1806,1,1
22.8,0.0012048781,-11.486576,-2.3056867000000003,1003.19824,1,1
22.84,5.3450456,-11.238714,-0.7859411000000001,1003.1909,1,1
22.88,8.824761,-11.062353,0.009440446,1003.1827,1,1
22.92,10.5933075,-13.831723,-0.037901882000000005,1003.20306,1,1
22.96,13.757565,-17.592535,-0.41665164,1003.2183,1,1
23.0,15.091151000000002,-16.615393,0.35032377,1003.22034,1,1
23.04,15.1102915,-14.761203,1.7848504,1003.2277,1,1
23.08,14.569532,-13.169158,3.053612,1003.2252,1,1
23.12,14.607765,-10.056595,2.1209338,1003.22,1,1
23.16,14.6316595,-5.96689,2.371857,1003.2457,1,1
23.2,13.76651,-3.8457716,2.9352505,1003.22784,1,1
23.24,12.461618,-3.1450875,1.5717415,1003.2071,1,1
23.28,12.901356,-2.496836,1.7185076,1003.235,1,1
23.32,13.565743,-3.569311,2.5612311,1003.22217,1,1
23.36,12.7914095,-6.662806,2.8784359,1003.23944,1,1
23.4,11.845004,-8.507463000000001,3.0536084,1003.2244,1,1
23.44,10.812562,-10.895508,2.3907914,1003.26495,1,1
23.48,11.018087,-13.817408,1.2734712,1003.2347,1,1
23.52,12.289512,-15.685898000000002,1.0130786,1003.2443,1,1
23.56,11.620334,-15.228309,2.5612285,1003.2595,1,1
23.6,11.797181,-14.551457,3.2619202,1003.2571,1,1
23.64,10.869894,-14.389395,2.9683864,1003.2466,1,1
23.68,9.110922,-13.521881,2.6511807000000003,1003.249,1,1
23.72,7.265911999999997,-11.9918165,2.7837439,1003.21405,1,1
23.76,5.626434,-11.129069,2.310303,1003.2546,1,1
23.8,3.8865807,-10.39502,1.5859383,1003.23694,1,1
23.84,2.0750303,-9.365442,1.5670003,1003.20667,1,1
23.88,1.0139086,-9.241511,1.5954063,1003.21643,1,1
23.92,-0.23362523,-9.775367,0.50649273,1003.1563,1,1
23.96,-0.21929094,-9.956496,-0.21313720000000005,1003.1817,1,1
24.0,4.0347295,-9.913597,-1.0890026000000002,1003.19904,1,1
24.04,8.666354,-10.695312,-3.4467368,1003.1866,1,1
24.08,10.067462,-13.2740345,-4.559264,1003.1535,1,1
24.12,10.464206,-15.638247,-2.6370943,1003.1963,1,1
24.16,11.678295,-16.010036,-0.56815773,1003.1838,1,1
24.2,13.523318,-15.485718,0.32664654,1003.22107,1,1
24.24,14.617915,-14.022386,-1.3824717,1003.2082,1,1
24.28,14.431521,-10.981323,-2.495055,1003.2184,1,1
24.32,16.128372,-6.4244947,-0.19413242,1003.2361,1,1
24.36,17.352022,-3.2642677000000004,2.4618704,1003.22327,1,1
24.4,13.848447,-4.2223463,0.3692655,1003.22064,1,1
24.44,11.606738,-5.7047462,0.14675018,1003.2331,1,1
24.48,11.482483,-7.2109785,1.3019466,1003.22815,1,1
24.52,11.80275,-6.2529016,3.072616,1003.23285,1,1
24.56,11.621137,-6.6199270000000014,3.4466357000000003,1003.2633,1,1
24.6,11.090599,-10.457005,2.5423665,1003.2382,1,1
24.64,11.664195,-14.146321,1.780129,1003.2331,1,1
24.68,11.936665,-15.466658,2.4003382,1003.268,1,1
24.72,11.090658,-15.218797,3.94849,1003.2828,1,1
24.76,10.06302,-13.655366,4.384057,1003.2577,1,1
24.8,9.694997,-13.393207,3.9153528,1003.2526,1,1
24.84,9.126218,-13.345541,3.266741,1003.23285,1,1
24.88,7.697075999999999,-11.748745,2.9921474,1003.2446,1,1
24.92,6.913211,-10.938432,2.812242,1003.2275,1,1
24.96,5.876011,-10.747769,2.428757,1003.1996,1,1
25.0,4.403852,-10.085218,2.0263343000000003,1003.18964,1,1
25.04,3.027289,-8.87928,1.3729883,1003.1871,1,1
25.08,1.7316993000000005,-8.083260000000001,-0.06629467,1003.18726,1,1
25.12,0.32166618,-7.983161,-1.4629433,1003.17456,1,1
25.16,1.1676998,-8.045127,-1.8038197,1003.16425,1,1
25.2,4.4801126,-9.780153,-1.7801467,1003.17944,1,1
25.24,8.480818,-12.144366,-3.1909982999999995,1003.1722,1,1
25.28,10.33061,-15.643019,-3.9342992,1003.1495,1,1
25.32,12.099146,-17.16355,-3.0679023,1003.18195,1,1
25.36,14.469937,-15.132998,-2.5045073,1003.1817,1,1
25.4,14.680257999999998,-13.269275,-2.23938,1003.179,1,1
25.44,13.437518,-12.62579,-1.5150153999999998,1003.18677,1,1
25.48,12.706216,-10.5189705,-0.22725649,1003.2163,1,1
25.52,14.26922,-7.063217999999999,1.8085384,1003.2417,1,1
25.56,13.494902,-5.199495,1.4771308,1003.1962,1,1
25.6,11.630786,-5.0850973,0.9752847,1003.22943,1,1
25.64,9.919627,-5.7667150000000005,2.021589,1003.20404,1,1
25.68,9.460773,-6.8487234,2.4713585,1003.2188,1,1
25.72,9.608956,-8.450288,2.305655,1003.239,1,1
25.76,9.742799,-9.060407,2.8643155,1003.234,1,1
25.8,9.690229,-9.103306,3.6975715,1003.2365,1,1
25.84,9.5994215,-9.951753,3.588681,1003.2388,1,1
25.88,10.483695,-12.177736,2.1588914,1003.2313,1,1
25.92,11.171996,-15.256931,1.2214801000000002,1003.2134,1,1
25.96,10.7466,-16.84896,1.5576236,1003.2157,1,1
26.0,9.030661,-15.357029,2.5565841,1003.2334,1,1
26.04,6.841517999999999,-12.69729,3.3377614,1003.2209,1,1
26.08,6.186726,-9.632396,2.7080894,1003.1907,1,1
26.12,5.976424,-8.292994,1.5244889,1003.2136,1,1
26.16,4.5377154000000015,-8.092798,0.7338446,1003.1856,1,1
26.2,3.4957275,-8.1785965,0.37876502,1003.19824,1,1
26.24,2.3533626,-8.197664,-0.009455401,1003.1733,1,1
26.28,1.4069709,-7.997468,-0.20356515,1003.1702,1,1
26.32,1.3687457,-7.806806,-0.72908276,1003.1683,1,1
26.36,2.1860993,-8.030834,-0.71961343,1003.17535,1,1
26.4,4.6955085,-10.037556,-1.4818515,1003.16785,1,1
26.44,7.157118,-12.983288,-1.4534441,1003.1829,1,1
26.48,9.685644,-15.576295000000002,-0.042590555,1003.17535,1,1
26.52,13.781947,-15.314134,0.023692032,1003.2079,1,1
26.56,16.190977,-13.240683,-1.4203006,1003.17535,1,1
26.6,16.63551,-8.860217,0.9090275,1003.1849,1,1
26.64,15.837292,-7.387351,4.9664135,1003.2228,1,1
26.68,10.713352,-8.421694,3.4940145,1003.22034,1,1
26.72,7.5586905,-6.9154625,1.5671124,1003.20264,1,1
26.76,6.4641247,-5.247168,-0.4308054,1003.21014,1,1
26.8,6.755702499999999,-4.961175,-0.8474321,1003.16986,1,1
26.84,7.9650044000000015,-4.8753767,0.48767105,1003.18994,1,1
26.88,10.584347,-5.4616637,1.6570698,1003.20013,1,1
26.92,12.376782,-5.900187,2.8406723,1003.2124,1,1
26.96,12.654021,-5.0803400000000005,1.6333996000000002,1003.1898,1,1
27.0,10.895063,-6.9631295,-0.22248606,1003.20764,1,1
27.04,9.943893,-9.646701,-1.9174021,1003.2095,1,1
27.08,9.246334,-11.5437975,-1.5575606000000002,1003.1948,1,1
27.12,8.123103,-12.315982,-0.21298753,1003.1894,1,1
27.16,6.889933,-11.82026,0.99902195,1003.2044,1,1
27.2,5.6758842000000005,-10.609554,1.4156514,1003.2044,1,1
27.24,4.4952955,-9.217721,0.38355336,1003.189,1,1
27.28,3.8930619,-7.892618,-0.8284521999999999,1003.2069,0,0
27.32,3.9026434,-7.010806,-1.1787963,1003.1969,0,0
27.36,3.8022873,-7.2920327,-0.5964626000000001,1003.18195,0,0
27.4,4.218152,-7.535128599999997,-0.6106638000000001,1003.1995,0,0
27.44,5.2792883,-7.1395050000000015,-1.0130864,1003.2194,0,0
27.48,5.709492,-7.925987200000002,0.014281408999999997,1003.1919,0,0
27.52,6.2400723,-8.469375999999999,-0.9325975,1003.19995,0,0
27.56,7.095675999999999,-8.469375999999999,-1.7374446,1003.20435,0,0
27.6,8.233293,-8.188149000000001,-1.6664265,1003.1966,0,0
27.64,8.544001,-7.9927216,-0.9278575,1003.2094,0,0
27.68,8.864267,-7.5255985,-0.15141326,1003.22943,0,0
27.72,9.069822,-6.858281,0.5303431,1003.1941,0,0
27.76,8.529725,-6.572288499999999,1.0605984,1003.21936,0,0
27.8,7.870133,-6.572288499999999,1.7802299,1003.244,0,0
27.84,7.253557700000001,-7.196708,2.2726097000000003,1003.229,0,0
27.88,6.660885,-7.282507400000001,1.6760768,1003.2011,0,0
27.92,6.9524740000000005,-6.9536147,1.0274653,1003.21155,0,0
27.96,7.5738697,-6.3863955,0.17053996,1003.20105,0,0
28.0,8.348222,-6.343497,-0.04724053,1003.19653,0,0
28.04,8.563332,-6.5675254,-0.26028693,1003.2565,0,0
28.08,8.58637,-6.9583619999999975,-0.64858687,1003.2311,0,0
28.12,8.184854,-7.0965915,-1.642813,1003.17365,0,0
28.16,7.4535300000000015,-7.1680899999999985,-1.8227217,1003.2086,0,0
28.2,6.9229574000000005,-7.4064174,-0.804826,1003.2265,0,0
28.24,6.3589272,-7.625678999999999,0.16099136,1003.24146,0,0
28.28,6.0195475,-7.6352115,0.40717915,1003.2111,0,0
28.32,6.043433,-7.6399775,0.29828665,1003.2086,0,0
28.36,6.062539,-7.53988,0.4639896,1003.20105,0,0
28.4,5.9478097000000005,-7.182387400000001,0.4923947,1003.19574,0,0
28.44,6.0529519999999986,-7.1966867,0.39770538,1003.2136,0,0
28.48,6.191552,-7.3301497000000015,0.12784302,1003.20844,0,0
28.52,6.550024,-7.5589447,0.16098258,1003.1857,0,0
28.56,6.6981835000000025,-7.516045,-0.0331293,1003.1959,0,0
28.6,6.8511232999999985,-7.2014523,-0.58232147,1003.22327,0,0
28.64,7.0327435,-6.8725595,-0.6770108,1003.2156,0,0
28.68,6.9610330000000005,-6.8058270000000025,-0.23197795,1003.19037,0,0
28.72,6.7746058000000025,-7.1585517,0.22725795,1003.2256,0,0
28.76,6.903648,-7.1347190000000005,0.17044398,1003.218,0,0
28.8,7.324256,-7.129952,-0.004730355,1003.17035,0,0
28.84,7.1951885,-7.415945,0.142035,1003.218,0,0
28.88,6.8749266,-7.2300496,0.28880018,1003.1954,0,0
28.92,6.5833454,-7.1394844,0.10415718,1003.22784,0,0
28.96,6.2296242999999984,-7.134717,-0.28879982,1003.21277,0,0
29.0,6.2535120000000015,-7.0489190000000015,-0.16097197,1003.2173,0,0
29.04,6.349094,-7.272947,0.080481425,1003.2079,0,0
29.08,6.2115316,-7.697196000000001,0.24628189,1003.21027,0,0
29.12,6.3549547,-7.4874682,0.33150384,1003.2505,0,0
29.16,6.426679,-7.325406,0.22734942,1003.1826,0,0
29.2,6.326329,-7.311107000000002,-0.023571689,1003.21533,0,0
29.24,6.4745339999999985,-7.215776400000001,-0.13246016,1003.21783,0,0
29.28,6.6131773,-7.211010499999999,0.028512262000000007,1003.1977,0,0
29.32,6.8378572,-7.1871785999999975,-0.08511077,1003.2173,0,0
29.36,6.7614074,-7.0918484,0.16581517,1003.2378,0,0
29.4,6.651501,-7.3778424,0.4309445,1003.2401,0,0
29.44,6.3599625,-7.554205400000002,0.5729793000000001,1003.20514,0,0
29.48,6.4030094,-7.3730774000000014,0.32679296,1003.2499,0,0
29.52,6.5559983,-7.2539144,0.35993695,1003.1945,0,0
29.56,6.7137537,-7.2253156,0.24157882,1003.2194,0,0
29.6,6.8380575,-7.253915299999999,0.21790949,1003.23737,0,0
29.64,6.8524265,-7.268216000000002,0.24158415,1003.2173,0,0
29.68,6.656489,-7.3397145,0.36468187,1003.2244,0,0
29.72,6.7473288,-7.3540154000000015,0.3504808,1003.1969,0,0
29.76,7.182326,-6.886893700000001,-0.018799584,1003.21686,0,0
29.8,6.5036206,-7.287285000000002,0.48778424,1003.21436,0,0
29.84,6.0877995,-7.678142999999999,0.65349036,1003.2519,0,0
29.88,6.216891,-7.6114125,0.57774323,1003.2443,0,0
29.92,6.6853320000000025,-7.373085,0.31735283,1003.22186,0,0
29.96,6.7953053,-7.1061587,0.50199807,1003.25684,0,0
30.0,6.685397,-7.3063544999999985,0.6440326999999999,1003.22437,0,0
30.04,6.5037866,-7.349253999999997,0.5493465999999999,1003.2044,0,0
30.08,6.584479300000001,-7.258675999999999,0.31730926,1003.22406,0,0
30.12,6.3598337,-7.477938000000001,0.38832575,1003.2263,0,0
30.16,6.211665,-7.377839999999999,0.5303584,1003.21405,0,0
30.2,6.106514,-7.606634599999999,0.61084366,1003.2468,0,0
30.24,6.4458847000000015,-7.53037,0.7623451,1003.20605,0,0
30.28,6.93343,-7.2157774,0.7765486999999999,1003.2393,0,0
30.32,6.8760777000000015,-7.325408500000001,0.2652335,1003.2365,0,0
30.36,6.4554589999999985,-7.3683076,0.312578,1003.2113,0,0
30.4,6.183016,-7.487471,0.53509545,1003.1888,0,0
30.44,6.19258,-7.492238499999999,0.49722072,1003.229,0,0
30.48,6.4076767,-7.630468400000002,0.554034,1003.2364,0,0
30.52,6.536736,-7.420739999999999,0.56823766,1003.2488,0,0
30.56,6.694475,-7.263444,0.5161597,1003.2413,0,0
30.6,6.5749850000000025,-7.444573399999999,0.31731516,1003.2512,0,0
30.64,6.4793935,-7.330176,0.47355098,1003.2213,0,0
30.68,6.6514716,-7.330176,0.33625370000000004,1003.2007,0,0
30.72,6.761412,-7.1919460000000015,0.4214734000000001,1003.2333,0,0
30.76,6.641922,-7.287277,0.70553815,1003.2336,0,0
30.8,6.6945047,-7.368309,0.53510004,1003.2386,0,0
30.84,6.6849504,-7.497006,0.52563167,1003.2287,0,0
30.88,6.4364047,-7.392142,0.5824449,1003.26624,0,0
30.92,6.44597,-7.6733694,0.57297665,1003.22076,0,0
30.96,6.5845885,-7.244378999999999,0.35519448,1003.24097,0,0
31.0,6.799685,-6.9440865999999986,0.31731970000000004,1003.2333,0,0
31.04,6.6467366,-6.815389,0.04745906,1003.25104,0,0
31.08,6.761833,-7.0298940000000005,0.31262070000000003,1003.22815,0,0
31.12,6.8287725,-7.325421,0.65823424,1003.23303,0,0
31.16,6.656718700000001,-7.239623,0.81447136,1003.2457,0,0
31.2,6.7762337,-7.196724400000001,0.45465842,1003.2437,0,0
31.24,6.5133634,-7.2634563,0.36470646,1003.2504,0,0
31.28,6.6376586,-7.272989999999999,0.3268331,1003.198,0,0
31.32,6.4321465,-7.582816999999999,0.2889595999999999,1003.2278,0,0
31.36,6.546883,-7.058496000000001,0.27475837,1003.24084,0,0
31.4,6.776333,-7.1156955,0.00016461685000000002,1003.2552,0,0
31.44,6.723777,-6.9155006,0.1090579,1003.2276,0,0
31.48,6.8050523,-6.848769,0.27949822,1003.2305,0,0
31.52,6.8480906,-7.020366,0.5398923000000001,1003.23035,0,0
31.56,6.9532657,-7.082331699999999,0.5777693,1003.2608,0,0
31.6,6.8529100000000005,-7.18243,0.5825056,1003.2328,0,0
31.64,6.8338094,-6.915503,0.33158390000000004,1003.22253,0,0
31.68,6.886408,-6.9727025,0.23216322,1003.24084,0,0
31.72,6.6617775,-7.1967306,0.35999402,1003.2278,0,0
31.76,6.6092186,-7.2539296,0.30791733,1003.21533,0,0
31.8,6.6092386,-7.206264999999997,0.1611526,1003.24475,0,0
31.84,6.6474990000000025,-7.125234,0.21323302,1003.2453,0,0
31.88,6.719214,-7.2443985999999985,0.37893885,1003.19476,0,0
31.92,6.7574735,-7.2348657,0.35053438,1003.2601,0,0
31.96,6.776611999999999,-7.2158,0.25584805,1003.25775,0,0
32.0,6.719275,-7.029904400000001,0.1706306,1003.23505,0,0
32.04,6.8340087,-7.063271,0.35527414,1003.2398,0,0
32.08,6.8053503,-6.9584074000000005,0.35054156,1003.2373,0,0
32.12,6.8579497000000025,-6.9727073000000015,0.2937307,1003.222,0,0
32.16,6.83885,-7.120471,0.48784304,1003.2299,0,0
32.2,6.733714599999999,-7.1538377,0.7150963,1003.2373,0,0
32.24,6.8293295,-7.1443048,0.51625305,1003.23486,0,0
32.28,6.862807000000001,-7.1490717,0.30320662,1003.22437,0,0
32.32,6.82459,-7.0775747,0.36949027,1003.2445,0,0
32.36,6.78637,-7.2444043,0.31267902,1003.20935,0,0
32.4,6.6041913,-7.263457000000002,0.21320656,1003.242,0,0
32.44,6.628094,-7.225324,0.20373806,1003.2343,0,0
32.48,6.733252,-7.168125999999999,0.123253405,1003.22174,0,0
32.52,6.7810520000000025,-7.134760000000001,0.25108257,1003.24176,0,0
32.56,6.881431,-6.9107323,0.5162095,1003.22437,0,0
32.6,6.9148929999999975,-6.829700999999999,0.46886575,1003.2418,0,0
32.64,6.7810607,-6.9965305,0.5256788,1003.21643,0,0
32.68,6.6376696,-7.115694,0.5304135,1003.24677,0,0
32.72,6.675911,-7.196725999999999,0.6108986,1003.24396,0,0
32.76,6.742831,-7.1919594,0.54935163,1003.2314,0,0
32.8,6.8766685,-7.0918617,0.3836477,1003.20593,0,0
32.84,6.847992999999999,-7.144294,0.22267829,1003.24146,0,0
32.88,6.6950417,-7.211025699999999,0.00016146526,1003.2233,0,0
32.92,6.7189440000000005,-7.096628,0.14692833,1003.23346,0,0
32.96,6.814543,-7.044196,0.17060062,1003.2361,0,0
33.0,7.0105179999999985,-7.044196,0.066443995,1003.2361,0,0
33.04,6.886246000000001,-6.934566,0.25108606,1003.256,0,0
33.08,7.0583215,-7.063263,0.31736797,1003.246,0,0
33.12,7.0344257,-6.8869004,0.41205633,1003.2386,0,0
33.16,6.9579520000000015,-6.9536320000000025,0.38838455,1003.2333,0,0
33.2,7.07267,-6.9202660000000025,0.35997838,1003.2354,0,0
33.24,6.867141,-6.8487678,0.47833875,1003.22833,0,0
33.28,6.771548299999999,-7.03943,0.35997890000000005,1003.2258,0,0
33.32,6.9436240000000025,-6.863067599999999,0.35524476,1003.20526,0,0
33.36,6.991423599999999,-6.8821344,0.46887064,1003.22546,0,0
33.4,6.8195686,-7.0346694,0.3126553,1003.2404,0,0
33.44,6.9581943,-6.8249416,0.052264027000000005,1003.25793,0,0
33.48,6.905627000000001,-6.8726068,0.21323471,1003.2203,0,0
33.52,6.8865194,-7.025137400000001,0.57305056,1003.23285,0,0
33.56,6.8530717,-6.939339,0.41208184,1003.2277,0,0
33.6,6.8913217000000015,-6.944106,0.3268636,1003.25793,0,0
33.64,6.9295716,-6.910740400000001,0.36473987,1003.2502,0,0
33.68,6.9726005,-6.9107410000000025,0.37894404,1003.2273,0,0
33.72,7.0156300000000025,-6.9250407,0.28425702,1003.2273,0,0
33.76,7.1399164000000015,-6.848775999999999,0.14222589,1003.2195,0,0
33.8,6.982193,-6.9441074999999985,0.22271168,1003.2372,0,0
33.84,7.073021400000001,-6.767745,0.26532245,1003.2523,0,0
33.88,7.049133,-6.9917735999999975,0.27952662,1003.2322,0,0
33.92,6.9535484,-6.977474000000001,0.38841906,1003.24713,0,0
33.96,7.082615,-6.8106446,0.35054487,1003.24963,0,0
34.0,7.0443873,-6.882144,0.3836867,1003.24695,0,0
34.04,6.9488015,-6.9202759999999985,0.47837576,1003.24445,0,0
34.08,6.8388777,-7.015608,0.2653286,1003.2294,0,0
34.12,6.8771276,-6.9298100000000025,0.41683057,1003.23676,0,0
34.16,7.049212,-6.829713000000001,0.30794033,1003.232,0,0
34.2,6.987086,-6.8726119999999975,0.27480054,1003.22424,0,0
34.24,6.7481054999999985,-6.905978,0.34108305,1003.22424,0,0
34.28,6.7720175000000005,-7.010843,0.35528743,1003.23676,0,0
34.32,6.9966793,-6.8249474,0.35528848,1003.2264,0,0
34.36,7.0349283,-6.786815,0.33161744,1003.2339,0,0
34.4,7.0829268,-6.743921,0.42158952,1003.25635,0,0
34.44,7.145085000000001,-6.6819563,0.4263258,1003.2264,0,0
34.48,7.0829663,-6.824953599999999,0.3931867,1003.2164,0,0
34.52,6.987388,-6.98225,0.4973452,1003.211,0,0
34.56,6.9491687,-6.925051700000001,0.42633092,1003.2263,0,0
34.6,6.9109490000000005,-6.877387,0.28903490000000004,1003.2384,0,0
34.64,6.9922247,-6.929819599999999,0.26536462,1003.2259,0,0
34.68,7.0257,-6.925053,0.46894556,1003.2158,0,0
34.72,7.04006,-6.8201895000000015,0.42633775,1003.2384,0,0
34.76,7.1643524,-6.7629914000000015,0.39793298,1003.2359,0,0
34.8,7.0066365999999976,-6.9250546,0.46895063,1003.22833,0,0
34.84,6.8823820000000016,-6.929822,0.4500149000000001,1003.2205,0,0
34.88,6.8584995,-6.953655,0.45475084,1003.2532,0,0
34.92,7.001913,-6.8440247,0.46895576,1003.2255,0,0
34.96,7.0401716,-6.882158,0.5447081,1003.2333,0,0
35.0,6.982832000000001,-6.8154263,0.60625696,1003.20306,0,0
35.04,7.073667,-6.8535595,0.3837417,1003.23804,0,0
35.08,7.001990299999999,-6.882159,0.5541821,1003.25824,0,0
35.12,7.0115666,-6.8869257,0.58259004,1003.2609,0,0
35.16,7.1836596,-6.658132000000001,0.38848135,1003.2404,0,0
35.2,7.0641827999999975,-6.953658,0.611,1003.2402,0,0
35.24,6.8491100000000005,-7.115721700000001,0.5447201,1003.2406,0,0
35.28,6.8730283,-7.1204886,0.46423692,1003.2255,0,0
35.32,6.8109083,-7.149089,0.30800322,1003.263,0,0
35.36,6.8539460000000005,-7.110956699999999,0.26066092,1003.2351,0,0
35.4,6.824747,-7.1633763,0.18959717,1003.2326,0,0
35.44,6.68613,-7.0299125,0.21800339,1003.25006,0,0
35.48,6.6383295,-7.191975599999999,0.18959674,1003.23224,0,0
35.52,6.7243633,-7.1252437,0.42631674,1003.2225,0,0
35.56,6.8820944000000015,-7.044212,0.6346303000000001,1003.23956,0,0
35.6,6.872532400000001,-6.9488807,0.58728606,1003.23737,0,0
35.64,6.9107685,-6.953647,0.40264404,1003.245,0,0
35.68,7.097178,-6.8773828,0.38370618,1003.2451,0,0
35.72,7.2405696,-6.6962533,0.5683478,1003.25244,0,0
35.76,7.221448,-6.748685000000001,0.6535668,1003.2672,0,0
35.8,6.944217,-6.9059815,0.44051838,1003.245,0,0
35.84,6.9250946,-6.910748,0.35529885,1003.2445,0,0
35.88,6.9920095999999985,-6.9393473,0.52100277,1003.2417,0,0
35.92,6.9920073,-6.8773823000000025,0.41684565,1003.247,0,0
35.96,6.9920050000000025,-6.863082,0.5162679,1003.19904,0,0
36.0,6.877287,-7.087110000000001,0.49259567,1003.2392,0,0
36.04,6.7243309999999985,-7.1919746,0.4499858,1003.257,0,0
36.08,6.514017,-7.3159046,0.2511406,1003.23145,0,0
36.12,6.5665926999999975,-7.163375,0.099639386,1003.2265,0,0
36.16,6.7291035999999975,-7.0966429999999985,0.14698319,1003.2466,0,0
36.2,6.686083,-7.1347755999999976,0.24167109,1003.2616,0,0
36.24,6.719538000000001,-7.1729080000000005,0.37423414,1003.2592,0,0
36.28,6.6956367,-7.163375,0.3458275,1003.24896,0,0
36.32,6.834248,-7.106176,0.29374877,1003.24896,0,0
36.36,7.0302186,-7.082342999999999,0.41684315,1003.2487,0,0
36.4,7.255217999999997,-6.89169,0.39320305,1003.239,0,0
36.44,7.150073,-6.7439265,0.41214168,1003.2514,0,0
36.48,6.997131,-6.7820587,0.3127202,1003.2588,0,0
36.52,7.073616,-6.7820589999999985,0.24643925,1003.2463,0,0
36.56,7.3126190000000015,-6.7200947,0.58731765,1003.2411,0,0
36.6,7.1883564,-6.8106589999999985,0.5920531,1003.2413,0,0
36.64,7.183584,-6.858325,0.5636474,1003.2364,0,0
36.68,7.0784416,-6.8154270000000015,0.4500229,1003.24084,0,0
36.72,7.0975699999999975,-6.8487926,0.45949256,1003.23083,0,0
36.76,6.829916000000001,-6.929825,0.50683796,1003.25354,0,0
36.8,6.930302,-6.967957000000001,0.09021126,1003.23334,0,0
36.84,6.8633957,-7.0108565999999986,0.12808755,1003.22076,0,0
36.88,6.963784,-7.025156,0.34587127,1003.23334,0,0
36.92,6.9637957,-7.106188,0.3222003,1003.2509,0,0
36.96,6.710477,-7.0394570000000005,0.023933763,1003.24335,0,0
37.0,6.4762774000000025,-7.1014222999999985,-0.03761253,1003.22314,0,0
37.04,6.418931,-7.1109550000000015,-0.0044706315,1003.2304,0,0
37.08,6.7057304,-6.9631925,0.21804743,1003.2384,0,0
37.12,7.0403285,-6.8869276,0.25592372,1003.2375,0,0
37.16,7.1502743,-6.8869276,0.29379994,1003.2175,0,0
37.2,6.849158,-6.9298277000000015,0.25119135,1003.20544,0,0
37.24,6.777472500000001,-6.967960400000001,0.1801763,1003.2158,0,0
37.28,6.968675599999999,-6.791598,0.15650526,1003.2507,0,0
37.32,7.049944,-6.839264,0.36482015,1003.2682,0,0
37.36,7.1455509999999975,-6.8011312,0.4973845,1003.2505,0,0
37.4,7.274839999999997,-6.748705,0.49267158,1003.21265,0,0
37.44,7.260519500000001,-6.920301400000001,0.44059482,1003.23303,0,0
37.48,7.0884657,-6.7630057,0.23701717,1003.25494,0,0
37.52,6.8877354,-6.88217,0.17547187,1003.2174,0,0
37.56,6.672664599999999,-7.077599,0.20388016,1003.25543,0,0
37.6,6.7396007,-7.0919,0.33171085,1003.2295,0,0
37.64,6.8208776,-7.087134,0.27963424,1003.235,0,0
37.68,6.840018,-7.3635945,0.13286954,1003.24506,0,0
37.72,6.7300997,-7.1872320000000025,0.07605834,1003.2449,0,0
37.76,6.6632037,-7.106201,0.2512333,1003.2376,0,0
37.8,6.7110224,-7.1729336,0.09973419,1003.25507,0,0
37.84,6.8018594,-6.982272,0.5258325,1003.2524,0,0
37.88,6.9118119999999985,-7.1777015,0.5684437,1003.23456,0,0
37.92,6.99787,-7.153869,0.58738333,1003.25244,0,0
37.96,7.0552483,-6.972739999999999,0.37907138,1003.2249,0,0
38.0,6.7254605,-7.225368,0.25597858,1003.23956,0,0
38.04,6.7159210000000025,-7.215835,0.26544926,1003.23706,0,0
38.08,6.739839,-7.420798,0.24177897,1003.2549,0,0
38.12,6.9597289999999985,-6.996575,0.2323119,1003.23956,0,0
38.16,7.103145,-6.9203104999999985,0.014531266,1003.2471,0,0
38.2,6.9310923,-6.8392797000000005,-0.013873305,1003.2524,0,0
38.24,6.782937,-6.910778,0.10922298,1003.2645,0,0
38.28,6.6491218,-7.249204,0.22285043,1003.237,0,0
38.32,6.7447395000000006,-7.1252747,0.36961895,1003.262,0,0
38.36,6.869035,-7.301636999999999,0.53059053,1003.2291,0,0
38.4,6.758674000000001,-7.339759299999999,0.43586355,1003.2467,0,0
38.44,6.7108789999999985,-7.182463,0.28909725,1003.2395,0,0
38.48,6.739559700000001,-7.049,0.06658044,1003.2521,0,0
38.52,6.7252235,-7.0299335,0.014502228999999997,1003.23926,0,0
38.56,6.4527764,-7.1824636,0.2701603,1003.262,0,0
38.6,6.352403,-7.4112577,0.17073801,1003.24194,0,0
38.64,6.4336624,-7.296861,0.033440515,1003.23663,0,0
38.68,6.8160496,-7.2015295,0.20861371,1003.22675,0,0
38.72,6.663098,-7.425558,0.13286345,1003.21387,0,0
38.76,6.796935,-7.1824636,-0.009168465,1003.2545,0,0
38.8,6.6583232999999975,-7.120498,0.005035002,1003.229,0,0
38.84,6.5244913,-7.006100999999999,-0.004433583499999999,1003.2313,0,0
38.88,6.7539240000000005,-6.9727354,0.32697496,1003.2541,0,0
38.92,6.830404,-7.0728335000000015,0.45953855,1003.229,0,0
38.96,7.1363134000000015,-6.8631043000000025,0.3837883,1003.244,0,0
39.0,7.351407000000001,-6.839272,0.48794544,1003.244,0,0
39.04,6.954686,-6.934603,0.49741447,1003.23914,0,0
39.08,6.8495326,-6.934603,0.7909478,1003.2264,0,0
39.12,6.839975999999999,-7.125266000000001,0.56843096,1003.2414,0,0
39.16,6.7874002,-7.273028999999997,0.16600682,1003.2413,0,0
39.2,6.7109265,-7.144332,0.33644563,1003.26404,0,0
39.24,6.6440115,-7.1347985000000005,0.25122654,1003.2413,0,0
39.28,6.5388584000000005,-7.35406,0.23702356,1003.2459,0,0
39.32,6.6153369999999985,-7.2348967,0.23228939,1003.26135,0,0
39.36,6.6774770000000006,-7.239663,0.21808639,1003.23846,0,0
39.4,6.571691,-7.201515,0.39320165,1003.2609,0,0
39.44,6.6863837,-7.230114,0.3269179,1003.2308,0,0
39.48,6.724599400000002,-7.2634789999999985,0.21329008,1003.25323,0,0
39.52,6.767596000000001,-7.110948599999999,0.30324185,1003.23334,0,0
39.56,6.7675686,-7.182447,0.4642090999999999,1003.23846,0,0
39.6,6.8440270000000005,-7.068049,0.41212896,1003.2413,0,0
39.64,7.0208573,-7.139547,0.43579888,1003.25073,0,0
39.68,7.020836,-6.9870167,0.27956155,1003.258,0,0
39.72,6.9777960000000006,-7.0632806,0.39791974,1003.258,0,0
39.76,6.8200410000000025,-7.1729107,0.38371453,1003.2379,0,0
39.8,6.800892,-6.8392515,0.4736655,1003.24835,0,0
39.84,6.877347500000001,-6.8440175000000005,0.60622686,1003.2431,0,0
39.88,6.8104143,-7.106178,0.49733412,1003.24536,0,0
39.92,6.810384299999999,-6.882148700000001,0.62042594,1003.2306,0,0
39.96,6.815142999999999,-7.1347755999999976,0.52573586,1003.2506,0,0
40.0,6.7960020000000005,-7.044210400000001,0.45471784,1003.2379,0,0
40.04,6.8103228000000025,-6.925046000000001,0.47365376,1003.2607,0,0
40.08,6.671680499999999,-7.110941,0.3268846,1003.23285,0,0
40.12,6.824612599999999,-6.9202785,0.32214823,1003.225,0,0
40.16,6.924965400000001,-6.9870100000000015,0.36475578,1003.22284,0,0
40.2,6.867585000000001,-7.010842,0.46417618,1003.23785,0,0
40.24,6.8627834000000005,-7.096639,0.63934726,1003.24286,0,0
40.28,6.8149630000000005,-6.972708,0.34107766,1003.22784,0,0
40.32,6.8436174,-7.010840400000001,0.39315388,1003.23035,0,0
40.36,6.8053589999999975,-7.168136,0.51151216,1003.26556,0,0
40.4,6.8980637000000025,-7.001353,0.38385606,1003.24756,0,0
40.44,6.9315789999999975,-6.9536886,0.35072040000000004,1003.24506,0,0
40.48,7.0176615999999985,-7.0394883,0.2749742,1003.24536,0,0
40.52,7.036838,-6.972758,0.29865137,1003.25256,0,0
40.56,7.060786200000001,-7.0108914,0.36967206,1003.24756,0,0
40.6,7.0178185,-6.8821955,0.28919172,1003.23285,0,0
40.64,7.0417743,-6.7868660000000025,0.3696818,1003.25494,0,0
40.68,6.965347,-6.844065,0.46437442,1003.2325,0,0
40.72,7.0036354,-6.939398,0.59694237,1003.2397,0,0
40.76,6.979792999999999,-6.972765400000001,0.6869013,1003.25037,0,0
40.8,6.9463844,-6.9489335999999975,0.65376496,1003.2425,0,0
40.84,6.932095,-6.786872,0.54961264,1003.24963,0,0
40.88,6.913028999999999,-6.910804,0.36024135,1003.2198,0,0
40.92,6.817489599999999,-7.0919339999999975,0.46913782,1003.2474,0,0
40.96,6.7793009999999985,-7.0252037,0.39339194,1003.2474,0,0
41.0,6.874947,-6.991839,0.23242670000000004,1003.2425,0,0
41.04,6.8511047000000005,-7.1157713000000005,0.3223856,1003.24036,0,0
41.08,6.8607179999999985,-7.168205,0.27504644,1003.2323,0,0
41.12,6.8846664,-7.0871744,0.21823815,1003.2248,0,0
41.16,6.846478,-7.077642,0.27978998,1003.2546,0,0
41.2,6.8369718,-6.9203470000000005,0.36027974,1003.2248,0,0
41.24,6.779664,-7.010913,0.4076284,1003.2473,0,0
41.28,6.923114999999999,-6.929883,0.459712,1003.24976,0,0
41.32,6.923164999999999,-6.987083,0.5259982,1003.24,1,2
41.36,6.8610805999999975,-7.0347494999999975,0.69170725,1003.25226,1,2
41.4,6.773698,-7.0394835,0.52587986,1003.2599,1,2
41.44,6.7163377,-7.2301455,0.5921613,1003.2473,1,2
41.48,6.4725657,-7.2778106,0.9519758,1003.21967,1,2
41.52,6.1379766,-6.672458,1.0135229,1003.2446,1,2
41.56,6.6111746,-5.8097115,1.5627136,1003.2671,1,2
41.6,7.490655999999999,-5.8097115,1.9793409,1003.23694,1,2
41.64,8.728622,-5.6238155,2.4906564,1003.24475,1,2
41.68,10.917771,-5.0041633,3.8541648,1003.24225,1,2
41.72,12.303911,-4.637137999999998,4.857858,1003.23956,1,2
41.76,12.858365,-4.627605,5.624832,1003.2445,1,2
41.8,11.629954,-5.895509,5.170328,1003.2697,1,2
41.84,9.8614235,-8.116725,3.3712544,1003.2198,1,2
41.88,8.456161,-8.879373,2.078762,1003.2322,1,2
41.92,6.7067479999999975,-8.574314,0.8478164,1003.25226,1,2
41.96,6.2048664,-8.345519,-0.103799134,1003.23975,1,2
42.0,2.232847,-10.6001005,-1.49098,1003.2146,1,2
42.04,-1.6579158,-14.098753,-4.213262599999998,1003.23193,1,2
42.08,-0.5490038,-15.05683,-2.3621106,1003.23694,1,2
42.12,2.9211314,-15.142629,-0.51569325,1003.2348,1,2
42.16,5.1963153,-16.3438,-2.158532,1003.2119,1,2
42.2,8.121553,-16.057806,-1.5099188,1003.23956,1,2
42.24,10.066931,-14.117820000000002,0.024028182,1003.2242,1,2
42.28,11.462631,-12.244561,0.52114046,1003.2496,1,2
42.32,12.021866,-9.808851,2.1829164,1003.25726,1,2
42.36,12.017083,-7.9165287,3.0067024,1003.22705,1,2
42.4,10.367954,-7.2253747000000015,3.068241,1003.2496,1,2
42.44,10.229334,-5.7143760000000015,3.286023,1003.22174,1,2
42.48,9.9043,-3.7505546,3.1203182000000003,1003.2367,1,2
42.52,9.115626,-3.5551255,2.632674,1003.2242,1,2
42.56,9.469326,-3.6933556,2.6800175,1003.22705,1,2
42.6,11.529414,-5.304452,2.2965302000000003,1003.21924,1,2
42.64,13.226238,-5.6476435999999985,1.392258,1003.24695,1,2
42.68,13.5417,-8.912735000000003,0.30334443,1003.24695,1,2
42.72,13.771124,-11.691637,-0.1085493,1003.2392,1,2
42.76,15.123801,-15.276089,-0.75242907,1003.2244,1,2
42.8,15.3054285,-18.88437,-0.48256844,1003.234,1,2
42.84,14.793982500000002,-19.113167,-0.5062409999999999,1003.2565,1,2
42.88,10.970135,-17.535435,-1.2400744,1003.2466,1,2
42.92,7.2992387,-15.032993,-0.84238493,1003.2716,1,2
42.96,5.0336056,-11.99193,-0.47310185,1003.25433,1,2
43.0,3.4371445,-9.308358,-0.92760533,1003.2595,1,2
43.04,2.0318756,-7.988022,-0.88499624,1003.2139,1,2
43.08,0.6696251999999999,-7.4922996,-0.6198701,1003.2269,1,2
43.12,-0.5635701999999999,-7.9212894,-0.9039351,1003.2417,1,2
43.16,-0.5348977,-9.479954,-1.6756436,1003.1942,1,2
43.2,3.1837835,-11.872765,-1.4815336,1003.21967,1,2
43.24,7.203591,-15.767042000000002,0.67261994,1003.1842,1,2
43.28,8.876517999999997,-16.172197,2.8835866,1003.21924,1,2
43.32,11.266415,-15.295151999999998,4.8720360000000005,1003.24164,1,2
43.36,12.834182,-17.711794,4.9903955,1003.23456,1,2
43.4,12.834719,-17.01589,4.422316,1003.2219,1,2
43.44,12.739137,-13.869965,5.075665,1003.2672,1,2
43.48,13.135874,-11.491453,5.747952,1003.24945,1,2
43.52,13.212364,-9.484734,5.4591546,1003.2111,1,2
43.56,12.194283,-7.2349186,4.4459934,1003.24426,1,2
43.6,10.855954,-5.3759623,3.394957,1003.20905,1,2
43.64,10.129437,-4.865940599999999,2.4717495,1003.23193,1,2
43.68,10.755604,-4.4369510000000005,1.2976179,1003.21906,1,2
43.72,13.618726,-3.2643783,-0.9890978,1003.21625,1,2
43.76,14.632055,-4.3606873,0.7152890000000001,1003.23364,1,2
43.8,15.411181,-8.140566999999999,0.8147131999999999,1003.2443,1,2
43.84,13.814741,-11.63922,-0.004337605,1003.2367,1,2
43.88,12.04145,-13.569675,0.7863094,1003.2441,1,2
43.92,12.863591,-17.769012,1.6243004,1003.26917,1,2
43.96,14.517418,-19.30861,5.880532,1003.2944,1,2
44.0,11.157231,-17.864344,5.951549,1003.2891,1,2
44.04,5.7656269999999985,-15.647897,6.4533973,1003.3116,1,2
44.08,4.8957169999999985,-13.3122835,7.2061696,1003.2941,1,2
44.12,5.4071703,-11.234066,4.5691066,1003.2861,1,2
44.16,5.593599,-9.413241,2.7226906000000004,1003.23364,1,2
44.2,6.0763736,-9.270244,3.7547922,1003.2496,1,2
44.24,5.1204269999999985,-8.784057,4.5170325999999985,1003.2192,1,2
44.28,3.5144281000000004,-8.51713,3.3050263,1003.2291,1,2
44.32,2.2191167000000003,-7.854578,2.0409417000000003,1003.21155,1,2
44.36,1.3683256,-7.578118300000001,1.7332065,1003.20654,1,2
44.4,2.0709722,-9.365577,-2.328911,1003.21155,1,2
44.44,4.1741014,-9.008086,-7.958116499999999,1003.17114,1,2
44.48,7.400482000000001,-10.190192,-6.7981862999999985,1003.1968,1,2
44.52,10.913654,-12.816566,-3.0485365,1003.2043,1,2
44.56,13.155398000000002,-13.617348000000002,-3.2189736,1003.22394,1,2
44.6,13.169753,-11.539128,-5.292642,1003.23944,1,2
44.64,12.945116,-9.465677,-4.217931,1003.2392,1,2
44.68,11.319997,-9.737371,-1.784445,1003.2566,1,2
44.72,9.996007,-10.614418,-0.14633961,1003.25366,1,2
44.76,10.268471,-8.798361,-1.0506096,1003.234,1,2
44.8,13.002535,-5.375973,-1.609268,1003.2541,1,2
44.84,14.938369,-2.1013489,-1.4861721,1003.23114,1,2
44.88,14.207074,-1.9821854,0.20874621,1003.2567,1,2
44.92,12.46724,-4.4083633,1.6432721999999995,1003.25116,1,2
44.96,11.219727,-7.1539,3.181955,1003.2691,1,2
45.0,10.956853,-10.023368,3.9726021,1003.2466,1,2
45.04,10.310656,-12.411389,5.4023075,1003.269,1,2
45.08,9.225633,-13.593496,6.0651236,1003.2716,1,2
45.12,8.666388000000001,-13.126373999999998,8.186136999999999,1003.3014,1,2
45.16,10.344091,-13.050109,7.367083999999997,1003.2845,1,2
45.2,10.721689,-12.358957,7.603803,1003.25604,1,2
45.24,11.26658,-13.212171,8.380245,1003.2512,1,2
45.28,10.229354,-12.950009,8.89156,1003.2791,1,2
45.32,9.349862,-13.536295999999998,7.622739,1003.264,1,2
45.36,8.379556,-12.478121,6.940984200000001,1003.26416,1,2
45.4,7.222833599999999,-11.481911,4.753688,1003.2594,1,2
45.44,6.338563,-10.361769,2.8267846000000003,1003.23175,1,2
45.48,5.6454830000000005,-9.86128,1.5153538999999998,1003.2242,1,2
45.52,4.976303,-9.532388,1.0135063,1003.2192,1,2
45.56,4.311903,-8.907969,0.20392245,1003.20624,1,2
45.6,3.829135,-9.012834,0.32701623,1003.2117,1,2
45.64,3.5041006,-8.431313000000001,-0.22690983,1003.2111,1,2
45.68,4.0489917,-8.064287,-1.9644371,1003.21155,1,2
45.72,4.5986605,-8.159618,-3.5220568,1003.20654,1,2
45.76,5.478137,-9.441822,-2.802428,1003.20905,1,2
45.8,7.753316000000001,-9.856512,-4.0475774,1003.20667,1,2
45.84,9.770386,-11.624905,-3.8724048,1003.2194,1,2
45.88,12.203299,-12.735513,-3.4179027000000004,1003.2117,1,2
45.92,13.426920999999998,-11.672569,-3.2521992,1003.2392,1,2
45.96,13.570308,-8.526643,-1.3868446,1003.25684,1,2
46.0,12.872448,-5.4665120000000025,-0.30266657,1003.2342,1,2
46.04,12.161209,-4.0508685,-0.58190936,1003.2816,1,2
46.08,10.230199,-4.818285,-1.4104275,1003.2517,1,2
46.12,8.99226,-5.3330736,-0.34991792,1003.24164,1,2
46.16,9.102226,-6.0432916,1.0467342,1003.2541,1,2
46.2,9.60891,-7.6496214999999985,1.5722553999999995,1003.2367,1,2
46.24,8.915873,-7.911783,1.4444295,1003.26416,1,2
46.28,8.700811,-7.964216,0.89524144,1003.24396,0,0
46.32,8.103365,-8.660134,0.33658433,1003.2492,0,0
46.36,7.419883,-9.236888,-0.070571706,1003.2517,0,0
46.4,6.612126400000001,-10.03767,0.13774487,1003.2541,0,0
46.44,5.2451367,-9.808877,0.41234353,1003.2492,0,0
46.48,4.8341002,-8.841267,0.45022118,1003.24396,0,0
46.52,4.4278455,-7.9689865000000015,0.1945659,1003.2267,0,0
46.56,4.308377,-7.73066,-0.14630878,1003.24945,0,0
46.6,4.456583,-7.4542003,-0.70496553,1003.22894,0,0
46.64,5.0923333,-7.4208355,-0.57239896,1003.2342,0,0
46.68,6.091342,-6.853615799999999,-1.0837119,1003.24896,0,0
46.72,7.5444330000000015,-6.2244315000000014,0.24192424,1003.21906,0,0
46.76,8.854128999999997,-5.7716093,-0.236248,1003.2566,0,0
46.8,8.978435000000003,-5.1185913,-0.8422491,1003.2744,0,0
46.84,8.696451,-5.847875,0.9236862,1003.2242,0,0
46.88,8.529194,-5.81451,1.3308482,1003.24866,0,0
46.92,8.490985,-5.8002114,1.2551005,1003.2591,0,0
46.96,8.58183,-5.5237517,1.2835096,1003.2263,0,0
47.0,8.424128,-5.7048817000000005,1.079933,1003.24146,0,0
47.04,8.470672,-5.7525163,0.8620357,1003.2466,0,0
47.08,8.279459,-5.642885,0.9945972,1003.2745,0,0
47.12,7.9735303,-5.6381183,1.060877,1003.2436,0,0
47.16,7.6293674,-5.881211799999999,0.5684973000000001,1003.2342,0,0
47.2,7.7631826,-5.828779,0.77207494,1003.24396,0,0
47.24,7.634105,-6.1672044,1.3544046,1003.2466,0,0
47.28,7.701005,-6.0528064000000015,1.2171053,1003.21906,0,0
47.32,8.002113,-5.7668123,1.2265722,1003.23145,0,0
47.36,7.9160542,-5.747746,1.3543991000000002,1003.2591,0,0
47.4,7.8013186,-5.885976,1.3496628000000002,1003.25146,0,0
47.44,7.6101084,-5.9622397000000005,1.3165205,1003.2213,0,0
47.48,7.820398299999999,-5.833543,1.4159409,1003.20654,0,0
47.52,7.720003599999999,-5.8287754000000005,1.2691725,1003.23444,0,0
47.56,7.748661999999999,-5.9050392999999985,1.3117805,1003.2367,0,0
47.6,7.906376400000001,-5.8383074,1.5058893,1003.2337,0,0
47.64,7.9493756,-5.8383074,1.4490747,1003.23865,0,0
47.68,8.073630999999999,-5.871672599999999,1.8278251,1003.2492,0,0
47.72,8.202664,-5.771574,1.4727428,1003.23615,0,0
47.76,7.901517399999999,-5.895504,1.3023026000000002,1003.23364,0,0
47.8,7.648165700000002,-6.043267,1.5484896,1003.2434,0,0
47.84,7.686386,-5.9860672999999975,1.4017215,1003.2392,0,0
47.88,7.7580633,-5.895503,1.5248141000000002,1003.2342,0,0
47.92,7.442576,-6.195795,1.9651119,1003.24615,0,0
47.96,7.3660803,-6.1481295,1.974579,1003.2462,0,0
48.0,7.3325996,-5.995599,1.7662631000000002,1003.23615,0,0
48.04,7.3141327,-6.0099144,1.6716348,1003.2492,0,0
48.08,7.3380384,-6.0528135,1.5106657,1003.23096,0,0
48.12,7.295025999999999,-6.1386123,1.6905735,1003.2437,0,0
48.16,7.309371,-6.0051489999999985,1.6006204,1003.2337,0,0
48.2,7.108625999999999,-6.1433787,1.0230236,1003.22614,0,0
48.24,6.9891367,-6.434139,0.8431168,1003.2767,0,0
48.28,7.194675,-6.400773,1.037228,1003.22864,0,0
48.32,7.438451,-6.295909,1.183995,1003.2287,0,0
48.36,7.6726675,-6.4007735,1.3970437,1003.25397,0,0
48.4,7.7348113,-6.3769407,1.1461209,1003.22894,0,0
48.44,7.7395973,-6.424607,0.6300715,1003.2492,0,0
48.48,7.648787,-6.367408,0.4691023,1003.24115,0,0
48.52,7.462381,-6.5342379999999975,0.31760192,1003.2492,0,0
48.56,7.338113000000001,-6.4198403,0.28919607,1003.24866,0,0
48.6,7.3046603,-6.658169,0.03353882,1003.25854,0,0
48.64,7.1182539999999985,-6.7010679999999985,0.085617796,1003.24396,0,0
48.68,6.9796460000000025,-6.8488307,0.12822804,1003.23645,0,0
48.72,6.7884603000000014,-7.139591,0.31287035,1003.2434,0,0
48.76,6.649852,-7.1586576,0.43596545,1003.2517,0,0
48.8,6.625959,-7.07286,0.4643725,1003.2437,0,0
48.84,6.678543,-7.029961,0.43123218,1003.24646,0,0
48.88,6.7598057,-7.1252923,0.31760707,1003.22327,0,0
48.92,6.7406929999999985,-7.0633273,0.37442046,1003.24866,0,0
48.96,7.0179276,-6.853598599999999,0.28920174,1003.2337,0,0
49.0,7.1039705,-6.8583655,0.29867113,1003.2537,0,0
49.04,7.050731,-7.001345599999999,0.3128138,1003.22864,0,0
49.08,7.1510854,-6.8297490000000005,0.44064072,1003.2234,0,0
49.12,7.26578,-6.877414,0.15184018,1003.24866,0,0
49.16,7.461734299999999,-6.7439504,0.2891363,1003.2287,0,0
49.2,7.571649000000002,-6.5628204,0.4595729,1003.2566,0,0
49.24,7.552510300000002,-6.4531894,0.6158064999999999,1003.24066,0,0
49.28,7.260922,-6.739182,0.42169404,1003.2436,0,0
49.32,7.0458117,-6.8583455,0.4264267,1003.2484,0,0
49.36,6.8354797000000005,-6.805913,0.7294268,1003.2234,0,0
49.4,6.6299286,-7.134804700000001,0.6915496,1003.26117,0,0
49.44,6.357459,-7.1634035,0.45482758,1003.2234,0,0
49.48,6.4817133,-7.025173,0.2417775,1003.2234,0,0
49.52,6.849738,-6.9536743,0.3696046,1003.2462,0,0
49.56,7.050471300000001,-6.834510000000001,0.5069005999999999,1003.24115,0,0
49.6,7.055232000000001,-6.8869414,0.46902362,1003.2565,0,0
49.64,6.8114405,-7.101436,0.32698947,1003.2612,0,0
49.68,7.0026135,-6.844042,0.5116295,1003.2412,0,0
49.72,7.3037224,-6.395985,0.8335673000000001,1003.24646,0,0
49.76,7.050372,-6.6962776,0.8714407,1003.2587,0,0
49.8,6.973875,-6.858339999999999,0.6915315,1003.2534,0,0
49.84,7.2271852,-6.772541499999999,1.2028453,1003.2359,0,0
49.88,7.2558427,-6.858339,1.1460304,1003.2284,0,0
49.92,7.0502925,-7.0728339999999985,0.66311955,1003.2259,0,0
49.96,6.7730436,-7.191997,0.175474,1003.24646,0,0
50.0,6.906859,-7.301627000000001,0.042908948,1003.2284,0,0
50.04,7.250984700000001,-6.867870299999999,0.40745628,1003.22614,0,0
50.08,7.380018700000001,-6.777305,0.4974081,1003.2462,0,0
50.12,7.279619,-6.8154372999999975,0.5068747,1003.2487,0,0
50.16,6.9402375,-7.077597,0.5684206,1003.269,0,0
50.2,6.667763000000001,-7.1061954,0.8477481,1003.24615,0,0
50.24,6.729882000000001,-6.958432000000001,0.68204224,1003.26416,0,0
50.28,6.911492999999999,-6.791602,0.70571226,1003.2462,0,0
50.32,6.7776380000000005,-7.120494,0.6062879,1003.25604,0,0
50.36,6.6724625,-7.163392,0.7435838,1003.24615,0,0
50.4,6.7489214,-7.296856,0.60155004,1003.24115,0,0
50.44,6.8827357000000005,-7.0156283,0.1281077,1003.23364,0,0
50.48,6.758444,-7.1538580000000005,0.0334181,1003.2612,0,0
50.52,6.562454,-7.387419,-0.07547487,1003.25604,0,0
50.56,6.462052,-7.2539544,0.01447643,1003.25366,0,0
50.6,6.439838,-7.263528999999999,0.14719397,1003.24146,0,0
50.64,6.573697,-7.23493,0.14246185,1003.2412,0,0
50.68,6.707555,-7.1014675999999985,0.36024663,1003.2487,0,0
50.72,6.7505937000000005,-7.211098700000001,0.31290445,1003.24115,0,0
50.76,6.769737700000001,-7.1205344,0.25609386,1003.2287,0,0
50.8,6.9370546000000015,-6.982305,0.1850799,1003.2287,0,0
50.84,6.9657564,-6.982305499999999,-0.023231741,1003.2334,0,0
50.88,6.9466595999999985,-7.044271000000001,0.22769369,1003.2287,0,0
50.92,6.922784,-7.0156727,0.37919682,1003.25604,0,0
50.96,6.941926,-6.9727745,0.37919894,1003.2636,0,0
51.0,6.980187,-6.906043,0.35552892,1003.23615,0,0
51.04,6.889394,-7.006141,0.35079667,1003.25116,0,0
51.08,6.774700599999999,-7.153905,0.32239226,1003.2565,0,0
51.12,6.755604700000001,-7.220638,0.40761372,1003.24866,0,0
51.16,6.760407400000001,-7.153906299999999,0.2561149,1003.2437,0,0
51.2,6.7413089999999976,-7.1110077,0.019396495,1003.23627,0,0
51.24,6.741336,-7.125308,0.08568058,1003.22076,0,0
51.28,6.6505413,-7.172974000000001,0.13302663,1003.24115,0,0
51.32,6.7461604999999984,-7.111008999999999,0.10935676,1003.23627,0,0
51.36,6.6697070000000025,-6.982313,0.204047,1003.2337,0,0
51.4,6.7318634999999984,-7.077645,0.32714328,1003.23865,0,0
51.44,6.7127724,-7.0919447,0.40763068,1003.24866,0,0
51.48,6.746253,-6.944182400000001,0.50232077,1003.24115,0,0
51.52,7.056963400000001,-7.063347,0.6254175000000001,1003.2387,0,0
51.56,6.985289999999999,-7.1396127000000025,0.78165495,1003.24896,0,0
51.6,6.8028429999999975,-6.886964999999999,0.45017207,1003.2512,0,0
51.64,6.7502559999999985,-7.0776267000000015,0.09035647,1003.2537,0,0
51.68,6.6403089999999985,-7.1014595,0.12823069,1003.2562,0,0
51.72,6.812372,-7.0299606,0.25132433,1003.23315,0,0
51.76,6.960536500000001,-7.096692,0.421762,1003.2487,0,0
51.8,7.0178843,-7.120525,0.23238489,1003.26117,0,0
51.84,6.931837599999999,-7.215855,0.4264946,1003.2462,0,0
51.88,6.774094,-7.2349215,0.35074320000000003,1003.24316,0,0
51.92,6.7119474000000015,-7.0537925,0.4691024,1003.2263,0,0
51.96,6.587662,-7.2253880000000015,0.39335102,1003.2334,0,0
52.0,6.6736884000000005,-7.311186,0.544851,1003.2612,0,0
52.04,6.936567299999999,-7.215853999999997,0.61586624,1003.2512,0,0
52.08,7.046492999999999,-7.101457000000001,0.4075515,1003.2409,0,0
52.12,6.817053,-7.130056,0.27972165,1003.2559,0,0
52.16,6.5111356,-7.1300554000000025,0.27498636,1003.23364,0,0
52.2,6.40119,-7.3683834,0.24184461,1003.2234,0,0
52.24,6.434639,-7.3540835000000015,0.28445333,1003.23303,0,0
52.28,6.9078293,-7.039490700000001,0.3649373,1003.2484,0,0
52.32,6.979516499999999,-7.0633235,0.50223416,1003.2462,0,0
52.36,6.9556070000000005,-6.963225,0.3459979,1003.24316,0,0
52.4,6.745286,-7.072856,0.39807546,1003.2384,0,0
52.44,6.4441485,-7.325483,0.30338642,1003.2255,0,0
52.48,6.4680370000000025,-7.2492175,0.48329282,1003.2384,0,0
52.52,6.5684036999999975,-7.1443534,0.39333823,1003.24567,0,0
52.56,6.491917,-7.1824850000000025,0.40754062,1003.2583,0,0
52.6,6.473481700000002,-7.158669500000001,0.43127522,1003.2459,0,0
52.64,6.5165176,-7.053806,0.36499515,1003.23627,0,0
52.68,6.4639564000000025,-6.968008,0.24663657,1003.2459,0,0
52.72,6.358819,-7.211102499999999,0.5070305,1003.2559,0,0
52.76,6.7412195000000015,-7.4637303,0.35553104,1003.2532,0,0
52.8,7.2000985,-7.0919394,-0.013750937,1003.2434,0,0
52.84,7.295712,-6.901277499999999,0.09514204,1003.21826,0,0
52.88,6.9324636,-7.3064356,0.35080138,1003.213,0,0
52.92,6.5883355,-7.2206383,0.36974066,1003.2634,0,0
52.96,6.7556458,-7.1110077,0.26558524,1003.2459,0,0
53.0,6.793901400000001,-7.015677,0.24664928,1003.23566,0,0
53.04,6.965992,-7.0061436000000015,0.40288627,1003.21783,0,0
53.08,7.118964,-6.9346466,0.38868466,1003.24066,0,0
53.12,7.162003,-7.2444735,0.4170930000000001,1003.2304,0,0
53.16,6.975603,-7.2635393,0.5165166,1003.24066,0,0
53.2,7.01864,-6.8822155,0.5875345000000001,1003.2358,0,0
53.24,7.152491,-6.600989,0.27033085,1003.23816,0,0
53.28,6.9278593,-6.734453,0.251395,1003.2253,0,0
53.32,6.6936655,-7.0347466,0.44077265,1003.2682,0,0
53.36,6.607646000000001,-7.277841599999999,0.59227514,1003.2079,0,0
53.4,6.760617,-7.063347,0.35555652,1003.2582,0,0
53.44,6.6889424,-7.106246499999999,0.21826082,1003.21545,0,0
53.48,6.5742435,-7.1157804,0.1661839,1003.24817,0,0
53.52,6.6650777,-7.220644999999997,0.033622194,1003.2453,0,0
53.56,6.617292999999999,-7.311209,0.024154611,1003.21515,0,0
53.6,6.769856,-7.0585723,0.16615094,1003.2303,0,0
53.64,6.870233,-6.9727745,0.2134951,1003.2301,0,0
53.68,6.8033166,-6.987074000000002,0.38393378,1003.24255,0,0
53.72,6.7841988,-7.1634364,0.3886683,1003.24255,0,0
53.76,6.698164,-7.230168300000001,0.36499643,1003.2251,0,0
53.8,6.6742663,-7.072872,0.36499655,1003.2303,0,0
53.84,6.8606796,-6.8822103000000014,0.21349570000000004,1003.22015,0,0
53.88,6.8559012,-7.1110044000000014,0.3697312,1003.24786,0,0
53.92,6.817664,-7.1396046,0.52123225,1003.21045,0,0
53.96,6.93716,-7.034740400000001,0.4833571,1003.2097,0,0
54.0,7.051877,-6.987074400000001,0.2608402,1003.2351,0,0
54.04,6.9945207,-7.0538063,0.14721459,1003.22723,0,0
54.08,6.8798065,-7.2635345,0.25137162,1003.24005,0,0
54.12,6.7985506,-7.211102499999999,0.20876208,1003.24005,0,0
54.16,6.8367906000000005,-7.0204406000000015,0.13774614,1003.2251,0,0
54.2,6.755535000000001,-7.101472,0.25610638,1003.2404,0,0
54.24,6.745977000000001,-7.1729702999999985,0.44074827,1003.23004,0,0
54.28,6.6599417,-7.2444687,0.5638429,1003.21,0,0
54.32,6.693401299999999,-7.249235,0.48809254,1003.24506,0,0
54.36,6.7364216,-7.04904,0.33659172,1003.22473,0,0
54.4,6.7125235,-7.1586704,0.23716931,1003.2222,0,0
54.44,6.5834699999999975,-7.182503,0.31765434,1003.22723,0,0
54.48,6.707745599999999,-7.2158694,0.3602641,1003.2507,0,0
54.52,6.8702607,-7.077639,0.37920177,1003.22723,0,0
54.56,6.8893805,-7.049040299999999,0.32712346,1003.22473,0,0
54.6,6.8164525,-7.1681740000000005,0.24652585,1003.2397,0,0
54.64,6.7829485,-7.1681724,0.35067865,1003.26013,0,0
54.68,6.606048,-7.3207016,0.67261374,1003.25037,0,0
54.72,6.988384,-6.906009700000001,0.5258427,1003.263,0,0
54.76,6.9548770000000015,-6.8821754,0.15655479999999994,1003.23755,0,0
54.8,6.7062789999999985,-7.1443353000000025,0.21809767,1003.2297,0,0
54.84,6.5962954,-7.268264999999999,0.39800066,1003.22015,0,0
54.88,6.749204,-7.2587304,0.23702674,1003.22253,0,0
54.92,6.796954,-7.001334700000001,0.27489758,1003.23224,0,0
54.96,6.68697,-7.2682614,0.22754909,1003.21216,0,0
55.0,6.543531,-7.334991499999999,0.22754498,1003.2021,0,0
55.04,6.725115299999999,-7.0966625,0.37430713,1003.217,0,0
55.08,6.978399799999999,-6.9441320000000015,0.350631,1003.25256,0,0
55.12,6.892315400000001,-7.044228,0.4737211,1003.22504,0,0
55.16,6.940067999999999,-6.9059973,0.34115362,1003.2245,0,0
55.2,6.9256773,-7.2158217,0.36008656,1003.222,0,0
55.24,6.629285,-7.2491865,0.44530168,1003.2651,0,0
55.28,6.653132,-7.001324,0.27485844,1003.25464,0,0
55.32,6.849059,-6.915525,0.1801662,1003.2675,0,0
55.36,6.8394520000000005,-7.2158175,0.2795843,1003.2297,0,0
55.4,6.8585252999999975,-7.0918856,0.3221898,1003.2372,0,0
55.44,6.887156,-6.891689,0.18962206,1003.23676,0,0
55.48,6.853652499999999,-6.9059877000000025,0.21328996,1003.2421,0,0
55.52,6.8010235,-7.048983,0.39319268,1003.2043,0,0
55.56,6.753186,-7.1395464,0.5115492,1003.23926,0,0
55.6,6.8318806,-6.9966044000000025,0.43600166,1003.22675,0,0
55.64,6.7411046,-7.1110024,0.38866135,1003.2145,0,0
55.68,6.7029095000000005,-7.1586690000000015,0.30818042,1003.22424,0,0
55.72,6.6647143,-7.1682039999999985,0.24190268,1003.24176,0,0
55.76,6.7890296,-7.130072,0.30345368,1003.23175,0,0
55.8,6.746053999999999,-7.1920385,0.35553607,1003.2189,0,0
55.84,6.7508774,-7.0681086,0.18983585,1003.20404,0,0
55.88,6.7939386,-7.172974000000001,0.27505907,1003.2091,0,0
55.92,6.7748604000000014,-7.168209,0.2845316,1003.22186,0,0
55.96,6.7318845000000005,-7.082412,0.3176764,1003.24176,0,0
56.0,6.583753999999999,-7.1777440000000015,0.36028996,1003.21674,0,0
56.04,6.588574,-7.1396127000000025,0.56387305,1003.23663,0,0
56.08,6.5551615000000005,-7.315975999999999,0.5733461,1003.21625,0,0
56.12,6.5886602,-7.315977,0.52600574,1003.2342,0,0
56.16,6.8181343,-7.1253160000000015,0.29402384,1003.2164,0,0
56.2,6.92811,-7.0967174,0.19933946,1003.2239,0,0
56.24,7.009410000000001,-6.991853999999999,0.10938972,1003.21387,0,0
56.28,7.066808,-7.0347543,0.18040949,1003.24426,0,0
56.32,7.057292,-7.0013895,0.30824238,1003.2342,0,0
56.36,6.9665213,-7.0156902999999975,0.4502787,1003.2342,0,0
56.4,6.8231645000000025,-7.0347576,0.44554776,1003.2315,0,0
56.44,6.780193,-7.134856,0.4881616,1003.2514,0,0
56.48,6.7515545,-7.139624,0.53550935,1003.2387,0,0
56.52,6.799395,-7.230189999999999,0.48816925,1003.2467,0,0
56.56,6.6751637000000015,-7.2015910000000005,0.34140667,1003.2314,0,0
56.6,6.5788217000000015,-7.177739999999999,0.26085347,1003.2467,0,0
56.64,6.5931729999999975,-7.1682076,0.03360317,1003.2364,0,0
56.68,6.8178334000000005,-7.3731694,0.20404264,1003.2543,0,0
56.72,7.004256,-6.939413,0.20877796,1003.2314,0,0
56.76,7.2910595,-6.65342,0.42182755,1003.2212,0,0
56.8,6.8608885,-6.9108142999999975,0.20878038,1003.2488,0,0
56.84,6.5836716,-7.172975,0.55912745,1003.2414,0,0
56.88,6.6792774,-6.7487526,0.24192321,1003.244,0,0
56.92,6.7414246,-7.134843300000001,0.59226996,1003.2264,0,0
56.96,6.4642105,-7.077645,0.39342636,1003.2463,0,0
57.0,6.6936483,-6.8154845,-0.07527903,1003.2315,0,0
57.04,6.7127820000000025,-7.111011500000001,0.5591325,1003.2387,0,0
57.08,6.435565,-7.3493395,0.64908725,1003.24176,0,0
57.12,6.363879,-7.4065385,0.37449285,1003.2567,0,0
57.16,6.426027,-7.2730755999999985,0.6254172,1003.23364,0,0
57.2,6.7223864,-7.268308999999999,0.5354646,1003.22864,0,0
57.24,6.755853,-7.3398075,0.36976117,1003.2384,0,0
57.28,6.9183807,-7.3398075,0.5117947,1003.21375,0,0
57.32,7.1048045,-7.087181,0.47865483,1003.24835,0,0
57.36,6.9423020000000015,-7.13008,0.34135816,1003.2364,0,0
57.4,6.6555257,-7.277843499999999,0.033622872000000005,1003.254,0,0
57.44,6.5025825999999975,-7.3827076,0.17092158,1003.2414,0,0
57.48,6.655547,-7.401774400000001,0.46445566,1003.23364,0,0
57.52,6.956686500000001,-7.010917,0.35083106,1003.2514,0,0
57.56,7.2004666,-6.7582893,0.43605128,1003.22363,0,0
57.6,7.042112,-6.9441705,0.6395738000000001,1003.2211,0,0
57.64,6.674053999999999,-7.411292599999999,0.92363685,1003.25867,0,0
57.68,6.602342599999999,-7.5495224,0.8242130999999999,1003.23114,0,0
57.72,6.5115123,-7.3207273,0.6111635999999999,1003.22363,0,0
57.76,6.6166553,-7.287361,0.56381834,1003.2159,0,0
57.8,6.6357603,-7.363625999999999,0.4880666,1003.20593,0,0
57.84,6.673986,-7.3636255,0.5117374,1003.2359,0,0
57.88,6.6787515,-7.277827,0.37917286,1003.24365,0,0
57.92,6.673958,-7.339792,0.23240498,1003.2284,0,0
57.96,6.6978436000000015,-7.215861,0.24187253,1003.2235,0,0
58.0,6.745628,-6.9298673,0.29394978,1003.24115,0,0
58.04,6.83643,-6.9251003,0.30815175,1003.2432,0,0
58.08,6.755160000000001,-6.9870652999999985,0.36496332,1003.2308,0,0
58.12,6.640431,-7.1205287,0.5922136,1003.2361,0,0
58.16,6.602179,-6.948932000000001,0.5353994000000001,1003.21326,0,0
58.2,6.7073197,-7.0061307,0.5780076999999999,1003.24854,0,0
58.24,6.6403884999999985,-6.987064,0.81946105,1003.20575,0,0
58.28,6.669055,-7.053795299999999,0.78158474,1003.21124,0,0
58.32,6.8315554,-7.0919275,0.6016760999999999,1003.2334,0,0
58.36,6.998834,-7.2730565,0.37442335,1003.24115,0,0
58.4,6.927123,-7.3350215,0.49278218,1003.2382,0,0
58.44,6.6259812999999985,-7.1872573000000015,0.2844671,1003.2083,0,0
58.48,6.5925107,-6.7296679999999975,0.07141776400000001,1003.2484,0,0
58.52,6.8075867,-6.7058344,-0.17950705,1003.22327,0,0
58.56,6.8601503,-7.0966916,0.10929039,1003.27356,0,0
58.6,6.9518679999999975,-7.320742599999999,0.35082754,1003.2384,0,0
58.64,6.9614509999999985,-7.2492447,0.4076425,1003.2507,0,0
58.68,7.0236096,-7.0728827,0.32242516,1003.24615,0,0
58.72,6.9614964000000015,-7.0252175,0.4691939000000001,1003.2359,0,0
58.76,6.7512064,-7.0967160000000025,0.63016564,1003.24304,0,0
58.8,6.846825,-7.0395184,0.5023388,1003.2184,0,0
58.84,6.708234,-7.12055,0.47866887,1003.24365,0,0
58.88,6.7656100000000015,-7.1396174,0.5023426,1003.21326,0,0
58.92,6.7608542,-7.1348509999999985,0.2608902,1003.2432,0,0
58.96,6.6700606,-7.287381,0.21354821,1003.2155,0,0
59.0,6.660524400000001,-7.1062527,0.09045578,1003.2407,0,0
59.04,6.7943816,-7.0061550000000015,0.009973001,1003.22577,0,0
59.08,6.7896233,-7.068121400000001,0.15674148,1003.2308,0,0
59.12,6.7753067,-7.273084,0.23722844,1003.2227,0,0
59.16,6.775331,-7.1253214000000025,0.38399723,1003.2534,0,0
59.2,6.7275543,-7.077656299999999,0.18515418,1003.2505,0,0
59.24,6.6463194,-7.091956,0.3082507,1003.21826,0,0
59.28,6.6845803,-7.039525,0.30351838,1003.248,0,0
59.32,6.8136578,-6.9823265,0.3129893,1003.23303,0,0
59.36,6.808901,-7.00616,0.32246017,1003.2559,0,0
59.4,6.8901787,-7.03476,0.25618044,1003.24054,0,0
59.44,6.8424053,-6.9298964000000005,0.365074,1003.23,0,0
59.48,6.8950033,-6.958496,0.22304368,1003.2381,0,0
59.52,6.9762826,-7.096726400000001,0.23724897,1003.2202,0,0
59.56,7.0002046,-7.306456,0.43136168,1003.23773,0,0
59.6,6.798688,-7.058576,0.15669619,1003.2301,0,0
59.64,6.679185,-6.8917470000000005,0.07621054,1003.2352,0,0
59.68,6.6265974000000005,-7.0681086,0.16616337,1003.2277,0,0
59.72,6.7413044000000015,-7.144374000000001,0.4549613,1003.2327,0,0
59.76,6.760414999999999,-6.9012785,0.5165078,1003.24304,0,0
59.8,6.6887092999999975,-6.724916499999999,0.26084915,1003.24054,0,0
59.84,6.511848400000001,-6.863146,0.25137958,1003.2507,0,0
59.88,6.5357379999999985,-6.982310000000001,0.41708288,1003.23553,0,0
59.92,6.6217656000000025,-6.929877799999999,0.32239395,1003.2155,0,0
59.96,6.5739600000000005,-6.9298773,0.19929872,1003.2609,0,0
60.0,6.540492,-6.8154797999999985,0.19456346,1003.2077,0,0
60.04,6.4831247,-6.8965106,0.1472186,1003.2252,0,0
60.08,6.4353166,-6.891744,0.35553142,1003.2381,0,0
60.12,6.6026006,-6.743980400000001,0.33185863,1003.2352,0,0
60.16,6.6073723,-6.72968,0.34606108,1003.2434,0,0
60.2,6.559564599999999,-6.7153807,0.31291938,1003.2327,0,0
60.24,6.5213199999999985,-6.739213499999999,0.26084036,1003.23303,0,0
60.28,6.444833,-6.86791,0.27504262,1003.2327,0,0
60.32,6.420927,-6.753513000000001,0.30818278,1003.2527,0,0
60.36,6.444815,-6.7153797000000015,0.298713,1003.228,0,0
60.4,6.430469,-6.763045299999999,0.27030596,1003.24554,0,0
60.44,6.358761,-6.777345,0.39339948,1003.2202,0,0
60.48,6.3539753,-6.763045,0.32238290000000003,1003.2427,0,0
60.52,6.377863,-6.743978,0.33185068,1003.248,0,0
60.56,6.3539553,-6.7058453999999985,0.30344346,1003.2302,1,3
60.6,6.3546752999999985,-6.7439956999999975,0.32718137,1003.27014,1,3
60.64,6.354696,-6.8631597000000015,0.31298003,1003.27264,1,3
60.68,6.369054,-6.729697,0.2561689,1003.25494,1,3
60.72,6.426432,-6.6105337,0.17568587,1003.2402,1,3
60.76,6.4312305,-6.6582003,0.1756876,1003.27014,1,3
60.8,6.311757599999999,-6.6867994999999985,0.27037767,1003.2476,1,3
60.84,6.297437,-6.820264,0.39820835,1003.26263,1,3
60.88,6.283119,-6.6868005,0.40294474,1003.26013,1,3
60.92,6.3070374000000005,-6.6439023,0.38400885,1003.2624,1,3
60.96,6.2496985999999985,-6.6391354000000025,0.28932247,1003.25494,1,3
61.0,6.3453164000000015,-6.601004,0.3129965,1003.2502,1,3
61.04,6.3835735,-6.6915693,0.3745455,1003.2622,1,3
61.08,6.3310165000000005,-6.7011027,0.30826572,1003.26764,1,3
61.12,6.21632,-6.7344694,0.33193946,1003.25476,1,3
61.16,6.311935,-6.7773685,0.4266293,1003.27515,1,3
61.2,6.2976160000000005,-6.753536,0.39822474,1003.2775,1,3
61.24,6.340654,-6.844101400000001,0.34141374,1003.2821,1,3
61.28,6.3263354000000005,-6.8202690000000015,0.31774357,1003.28265,1,3
61.32,6.369374,-6.7201724,0.25146374,1003.2851,1,3
61.36,6.431529,-6.8012039999999985,0.21359012,1003.2847,1,3
61.4,6.5462656,-6.786905,0.25146735,1003.2976,1,3
61.44,6.5558457,-6.810737599999999,0.28461003,1003.2846,1,3
61.48,6.613223599999999,-6.8727036,0.33195594,1003.3074,1,3
61.52,6.555884,-6.9156027,0.3698328,1003.3095,1,3
61.56,6.6610627,-6.8202724,0.42191333,1003.2972,1,3
61.6,6.608092299999999,-6.9346604,0.38873664,1003.3074,1,3
61.64,6.531619,-6.9727929999999985,0.38873693,1003.30225,1,3
61.68,6.4694853,-7.0013924,0.34139323,1003.3424,1,3
61.72,6.4694886,-6.944194,0.3413936,1003.3271,1,3
61.76,6.459933,-7.0013924,0.3319251,1003.3199,1,3
61.8,6.507735,-7.010926,0.37926945,1003.3299,1,3
61.84,6.4886193,-7.053825,0.22776885,1003.33234,1,3
61.88,6.5029626,-7.039525,0.27511325,1003.33466,1,3
61.92,6.5985622,-6.9823265,0.26564482,1003.33215,1,3
61.96,6.727621000000001,-6.9823265,0.27984840000000005,1003.37494,1,3
62.0,6.6607075,-7.029992,0.4502873,1003.365,1,3
62.04,6.632033,-7.1205570000000025,0.39820918,1003.37494,1,3
62.08,6.6607146,-7.0728917,0.43608472,1003.36975,1,3
62.12,6.679837700000001,-7.077658,0.4455539000000001,1003.342,1,3
62.16,6.7276397,-7.1110244000000025,0.40294462,1003.3746,1,3
62.2,6.756322,-7.2206554,0.35560092,1003.3846,1,3
62.24,6.8184633,-7.2206554,0.34139806,1003.36694,1,3
62.28,6.8089075,-7.192056,0.2561791,1003.41187,1,3
62.32,6.7897925,-7.1491566,0.28932026,1003.40936,1,3
62.36,6.7467774999999985,-7.1729894,0.35560226,1003.4195,1,3
62.4,6.794579,-7.1491570000000015,0.42661867,1003.3995,1,3
62.44,6.765903999999999,-7.1920566999999975,0.46449423,1003.3971,1,3
62.48,6.6942105,-7.111025,0.469229,1003.4268,1,3
62.52,6.7563515,-6.925128999999999,0.36980686,1003.4096,1,3
62.56,6.7420163,-6.9775615,0.31299436,1003.412,1,3
62.6,6.6983104,-7.072875999999999,0.35554105,1003.42474,1,3
62.64,6.6409270000000005,-7.1253076,0.36974192,1003.41925,1,3
62.68,6.722162,-7.1348395,0.37447426,1003.4218,1,3
62.72,6.7603755,-6.9632429999999985,0.33659682,1003.41925,1,3
62.76,6.784252,-7.0061417,0.31765714,1003.43176,1,3
62.8,6.7364286999999985,-7.087173,0.35079563,1003.442,1,3
62.84,6.827222,-7.1157713000000005,0.36973116,1003.4568,1,3
62.88,6.8988953,-7.177736,0.32238490000000003,1003.42914,1,3
62.92,6.913212,-7.082404,0.36025804,1003.47424,1,3
62.96,6.970544,-7.0395045,0.35552132,1003.4543,1,3
63.0,6.903604,-6.982305499999999,0.3081752,1003.45905,1,3
63.04,6.822321400000001,-7.1872663,0.37445453,1003.4719,1,3
63.08,6.7840605,-7.115767999999999,0.4217965,1003.4742,1,3
63.12,6.8987546,-6.958471,0.3413097,1003.46674,1,3
63.16,6.8604894,-6.944171000000001,0.37918246,1003.46405,1,3
63.2,6.7170725,-7.0109020000000015,0.37444597,1003.5044,1,3
63.24,6.7648470000000005,-7.106232,0.36024055,1003.5017,1,3
63.28,6.7170258,-7.029967,0.31762886,1003.5091,1,3
63.32,6.8412757,-6.987067,0.3176265,1003.4992,1,3
63.36,6.8173537,-7.0919313,0.26081157,1003.5091,1,3
63.4,6.817329400000001,-7.10623,0.27027816,1003.5444,1,3
63.44,6.8985634000000005,-7.07763,0.41230825,1003.51416,1,3
63.48,6.831617999999999,-7.1443615000000005,0.3886336,1003.5389,1,3
63.52,6.850711,-7.1967925999999975,0.31288078,1003.54913,1,3
63.56,6.7742179999999985,-7.206325,0.33655128,1003.5216,1,3
63.6,6.818762,-7.1729965,0.27040926,1003.5317,1,3
63.64,6.837907,-7.115799000000001,0.23253642,1003.5389,1,3
63.68,6.8427253,-6.96327,0.36510324,1003.5235,1,3
63.72,6.890563,-6.972803999999999,0.3082941,1003.5392,1,3
63.76,6.8093495,-6.9442058000000015,0.28462598,1003.5791,1,3
63.8,6.785479,-6.9442067,0.27515978,1003.5441,1,3
63.84,6.823765,-6.963274,0.37458664,1003.56885,1,3
63.88,6.828581,-7.015707000000001,0.45034036,1003.58405,1,3
63.92,6.7903805,-6.939442999999999,0.35565576,1003.5841,1,3
63.96,6.7521825,-6.972810000000001,0.45034754,1003.56885,1,3
64.0,6.747428,-7.0014095,0.38406828,1003.57874,1,3
64.04,6.862190700000001,-7.087209,0.36513498,1003.57117,1,3
64.08,6.862228999999999,-7.1110419999999985,0.32252884,1003.57886,1,3
64.12,6.8383656,-7.153942999999999,0.36987615,1003.6265,1,3
64.16,6.862303,-7.072912,0.19470665,1003.61615,1,3
64.2,6.833662,-7.182544,0.32727346,1003.6037,1,3
64.24,6.8193583,-7.1777782000000006,0.32727674,1003.59863,1,3
64.28,6.8815339999999985,-7.0538482999999985,0.25152975,1003.63354,1,3
64.32,6.872007400000001,-7.0347834,0.2752048,1003.624,1,3
64.36,6.7334332,-7.06815,0.350959,1003.6386,1,3
64.4,6.738251700000001,-7.053851,0.32255602,1003.65375,1,3
64.44,6.7287273,-7.082451299999999,0.40777856,1003.6514,1,3
64.48,6.786123299999999,-6.9585222999999985,0.38411003,1003.644,1,3
64.52,6.7813816,-7.015722,0.31783187,1003.64105,1,3
64.56,6.7718573000000015,-7.077687299999999,0.3036319000000001,1003.6712,1,3
64.6,6.8519190000000005,-7.058592,0.3508666,1003.6686,1,3
64.64,6.8949275,-7.0919576,0.28458402,1003.6661,1,3
64.68,6.8232183000000015,-7.225421000000001,0.21830124,1003.68353,1,3
64.72,6.8040886,-7.1777554000000015,0.21830025,1003.6635,1,3
64.76,6.73238,-7.339817999999997,0.18989277,1003.6835,1,3
64.8,6.851863400000001,-7.215886999999999,0.26090783,1003.68353,1,3
64.84,6.9139895000000005,-7.068123299999999,0.34612605,1003.6937,1,3
64.88,6.90442,-7.010925,0.34612516,1003.6935,1,3
64.92,6.8279314,-6.9584923,0.45501536,1003.6835,1,3
64.96,6.7944613,-7.034757000000001,0.3792638,1003.7364,1,3
65.0,6.8087893,-7.0252237000000015,0.568639,1003.7189,1,3
65.04,6.7562003,-6.9584913,0.5591691999999999,1003.701,1,3
65.08,6.751410000000001,-7.0013905,0.369792,1003.70844,1,3
65.12,6.6366825,-7.0633550000000005,0.28930598,1003.721,1,3
65.16,6.737048599999999,-7.077655,0.3035083,1003.7211,1,3
65.2,6.7322564,-7.2111177,0.18041268,1003.716,1,3
65.24,6.646209,-7.201584,0.24669328,1003.73596,1,3
65.28,6.689216,-7.1253195000000025,0.21828589,1003.7309,1,3
65.32,6.693984,-7.149151299999999,0.25616008,1003.7135,1,3
65.36,6.775230400000001,-7.244483,0.36978477,1003.7464,1,3
65.4,6.880375,-7.201583,0.42186224,1003.7538,1,3
65.44,7.0763354000000005,-7.058586599999999,0.3461107,1003.7659,1,3
65.48,6.985508,-6.9823213000000015,0.35557848,1003.7659,1,3
65.52,6.8899007,-7.0442863,0.33663988,1003.7659,1,3
65.56,6.913789,-7.0013869999999985,0.23721631,1003.7509,1,3
65.6,6.9086833,-7.006145,0.3413434,1003.80084,1,3
65.64,6.832182,-7.1491413,0.35081005,1003.7834,1,3
65.68,6.736563,-7.1110086,0.41235518,1003.7734,1,3
65.72,6.703079,-7.0538089999999976,0.29399276,1003.7683,1,3
65.76,6.6934967000000025,-7.1443734,0.29399064,1003.81335,1,3
65.8,6.6456747000000025,-7.2254043,0.28925404,1003.81085,1,3
65.84,6.755586,-7.225403999999997,0.19456373,1003.80084,1,3
65.88,6.6838665,-7.2206364,0.13774882,1003.79034,1,3
65.92,6.6695027,-7.1920366,0.18035625,1003.81586,1,3
65.96,6.879790299999999,-7.0585723,0.23243248,1003.8106,1,3
66.0,6.961023,-7.049039,0.30344638,1003.8358,1,3
66.04,7.0565963000000025,-7.0776369999999975,0.393398,1003.8258,1,3
66.08,6.922736,-7.1157694000000005,0.20401943,1003.78503,1,3
66.12,6.817558,-7.144367999999999,0.33184633,1003.8181,1,3
66.16,6.750616,-7.034737,0.39339137,1003.83057,1,3
66.2,6.7744913,-7.025202799999999,0.35077953,1003.86584,1,3
66.24,6.7457910000000005,-7.1253,0.29869914,1003.848,1,3
66.28,6.702746,-7.0871673,0.32710308,1003.8304,1,3
66.32,6.640588799999999,-7.096699,0.28449166,1003.8632,1,3
66.36,6.5879835999999985,-7.1252985,0.28448915,1003.8583,1,3
66.4,6.592741499999999,-7.134831,0.2797527,1003.86304,1,3
66.44,6.726548700000001,-7.1777289999999985,0.22767176,1003.86304,1,3
66.48,6.7360883000000005,-7.1538960000000005,0.26554520000000004,1003.86053,1,3
66.52,6.8698993,-6.9965990000000025,0.20873013,1003.8583,1,3
66.56,6.9176726,-7.006131599999999,0.25607198,1003.9055,1,3
66.6,6.837273,-7.1539160000000015,0.2987601,1003.9108,1,3
66.64,6.7416899999999975,-7.220648,0.36030853,1003.8755,1,3
66.68,6.789499,-7.215881299999999,0.32716864,1003.88275,1,3
66.72,6.7799505999999985,-7.1348505000000015,0.30349767,1003.89545,1,3
66.76,6.789521700000001,-7.1872826000000005,0.22301385,1003.89795,1,3
66.8,6.7512940000000015,-7.1062517000000005,0.23721802,1003.903,1,3
66.84,6.846903299999999,-7.1825166,0.1709376,1003.89795,1,3
66.88,6.8516955,-7.0299872999999975,0.29876766,1003.91815,1,3
66.92,6.832584,-6.991855,0.2466899,1003.9404,1,3
66.96,6.751342,-6.9584894,0.29876968,1003.9454,1,3
67.0,6.650976700000001,-7.2206507,0.38872436,1003.9429,1,3
67.04,6.6557674,-7.1253199999999985,0.38872537,1003.9229,1,3
67.08,6.7513747,-7.087187299999999,0.2987727000000001,1003.95306,1,3
67.12,6.6749100000000015,-7.1491528,0.22775769,1003.9381,1,3
67.16,6.6414585000000015,-7.1634525999999985,0.17567997,1003.9554,1,3
67.2,6.780087,-7.1968193,0.23249406,1003.9831,1,3
67.24,6.856576,-7.1872864000000005,0.29877687,1003.9856,1,3
67.28,6.856587400000001,-7.1729865,0.33665314,1003.97534,1,3
67.32,6.8709373,-7.1014886,0.32245088,1003.99536,1,3
67.36,6.9091872999999975,-7.077656299999999,0.2940455,1003.9903,1,3
67.4,6.904419,-6.9823255999999985,0.3555938,1003.9681,1,3
67.44,6.8948708,-7.0156913,0.34612608,1003.9753,1,3
67.48,6.751487299999999,-7.0824237000000005,0.34139264,1004.0079,1,3
67.52,6.713259,-7.163455,0.32719040000000005,1003.9978,1,3
67.56,6.655914,-7.11579,0.34139475,1004.0028,1,3
67.6,6.7322745,-7.006156,0.20882075,1004.02765,1,3
67.64,6.7848587,-7.0156899999999975,0.22775896,1003.9975,1,3
67.68,6.760965299999999,-7.0776553,0.28930673,1004.02026,1,3
67.72,6.7083936,-7.16822,0.28457293,1004.0303,1,3
67.76,6.770538,-7.2111187,0.27983909999999995,1004.00995,1,3
67.8,6.8613605,-7.0824223,0.27510533,1004.04004,1,3
67.84,6.856587400000001,-7.211119,0.23249619,1004.05023,1,3
67.88,6.93785,-7.277850999999999,0.24196559,1004.0403,1,3
67.92,7.0238929999999975,-7.292151,0.33191988,1004.0525,1,3
67.96,7.1003757,-7.172986999999999,0.1946227,1004.05756,1,3
68.0,7.0764831999999975,-7.0824227,0.2514361,1004.0525,1,3
68.04,7.0191307,-7.0871897,0.3035151,1004.0671,1,3
68.08,6.942661,-7.315984200000001,0.35085976,1004.08716,1,3
68.12,6.885309,-7.268319,0.37926674,1004.039,1,3
68.16,6.9617925000000005,-7.1920543000000015,0.32245445,1004.0752,1,3
68.2,6.9952570000000005,-7.1586884999999985,0.22776692,1004.085,1,3
68.24,6.918786,-7.239719999999997,0.26564273,1004.0875,1,3
68.28,6.875775,-7.492348,0.3413938,1004.085,1,3
68.32,6.942698,-7.382716999999999,0.2703783,1004.1173,1,3
68.36,6.937924400000001,-7.382716999999999,0.25144120000000003,1004.1251,1,3
68.4,7.0430865,-7.344585,0.17569129999999994,1004.1173,1,3
68.44,7.0861106,-7.349352,0.24197355,1004.13763,1,3
68.48,7.186493,-7.416084,0.32245898,1004.10205,1,3
68.52,7.210397200000001,-7.4113172999999986,0.33192834,1004.15765,1,3
68.56,7.239083,-7.4303837,0.37453857,1004.1346,1,3
68.6,7.176384,-7.3970037,0.336612,1004.13495,1,3
68.64,7.1524696,-7.5114006999999985,0.23245363,1004.16754,1,3
68.68,7.1667924,-7.582899,0.37448427,1004.1472,1,3
68.72,7.271932,-7.5256996,0.25612262,1004.15753,1,3
68.76,7.329273,-7.535233,0.24191791,1004.157,1,3
68.8,7.219321000000001,-7.5447655,0.25611964,1004.1471,1,3
68.84,7.1284895000000015,-7.5781307,0.2513838,1004.1695,1,3
68.88,7.2288485,-7.568597299999999,0.34133600000000003,1004.1524,1,3
68.92,7.2001534,-7.6019625999999985,0.45022577,1004.1595,1,3
68.96,7.200137,-7.692527,0.42655227,1004.1924,1,3
69.0,7.2861585999999985,-7.592428,0.30819073,1004.20483,1,3
69.04,7.310040499999999,-7.420832000000001,0.024124926,1004.172,1,3
69.08,7.147510499999999,-7.401766,0.08093629,1004.17444,1,3
69.12,7.161834700000001,-7.4970965,0.35553035,1004.1818,1,3
69.16,7.257414,-7.582894299999999,0.51176417,1004.1796,1,3
69.2,7.1618013,-7.5399942,0.4312778,1004.1994,1,3
69.24,7.1713457,-7.6400924,0.32238507,1004.2069,1,3
69.28,7.2239084,-7.5590606,0.32711807,1004.2069,1,3
69.32,7.309927,-7.4637284,0.18981874,1004.1919,1,3
69.36,7.214315400000001,-7.4208293,0.038316373,1004.19714,1,3
69.4,7.013547999999999,-7.478028,0.118799746,1004.1894,1,3
69.44,7.042209599999999,-7.4923267,0.279768,1004.20734,1,3
69.48,7.061311999999999,-7.516159,0.34604815,1004.19684,1,3
69.52,7.109094,-7.497092200000001,0.47387558,1004.2044,1,3
69.56,7.104299,-7.435127,0.34131083,1004.19434,1,3
69.6,7.067209,-7.416089,0.29880628,1004.17615,1,3
69.64,7.0624647,-7.468522,0.2514656,1004.1919,1,3
69.68,7.1294074000000025,-7.4637556,0.18518616,1004.1994,0,0
69.72,7.153334599999999,-7.392258,0.16625114,1004.1815,0,0
69.76,7.0386479999999985,-7.454224000000001,0.17572255,1004.1941,0,0
69.8,7.005217599999999,-7.411326,0.17572518,1004.20215,0,0
69.84,6.9000945000000025,-7.5304904000000015,0.27515066,1004.2144,0,0
69.88,7.0052786,-7.449459599999999,0.4029822,1004.2198,0,0
69.92,7.057889500000001,-7.234965299999999,0.22307779,1004.1966,0,0
69.96,6.976657,-7.3302975,0.24675207,1004.24207,0,0
70.0,6.8715363,-7.3684306,0.33197448,1004.23224,0,0
70.04,7.0388675,-7.282634,0.29410276,1004.1994,0,0
70.08,6.98153,-7.215902000000002,0.26096383,1004.22186,0,0
70.12,6.943328,-7.201603,0.20888866,1004.20734,0,0
70.16,6.890782400000001,-7.2445035,0.17101641,1004.2069,0,0
70.2,6.8286643,-7.311235400000001,0.29411268,1004.2148,0,0
70.24,6.833484,-7.249271,0.31305397,1004.2222,0,0
70.28,6.828735000000001,-7.177774,0.29411912,1004.21185,0,0
70.32,6.8096380000000005,-7.1539416,0.3509341,1004.1963,0,0
70.36,6.785775,-7.1873083,0.3651406,1004.2169,0,0
70.4,6.7905803,-7.201608,0.18996987,1004.1991,0,0
70.44,6.785836,-7.201609,0.27045804,1004.23206,0,0
70.48,6.8480024,-7.149178,0.26572627,1004.22186,0,0
70.52,6.9388413,-7.101513400000001,0.14263384,1004.2139,0,0
70.56,6.8385015,-7.1634784,0.1947156,1004.2269,0,0
70.6,6.813428,-7.077652499999999,0.28929618,1004.18604,0,0
70.64,6.8373113,-7.115784,0.3177012,1004.19434,0,0
70.68,6.875533,-7.1062509999999985,0.37924695,1004.22186,0,0
70.72,6.822935,-6.98232,0.30822906,1004.23456,0,0
70.76,6.7703419999999985,-7.0252184999999985,0.28928998,1004.21906,0,0
70.8,6.6986265,-7.1777477,0.35083556,1004.22437,0,0
70.84,6.7416267,-7.134848,0.5686165,1004.2114,0,0
70.88,6.875442999999999,-7.1205482,0.44552037,1004.2089,0,0
70.92,6.9041066,-7.0490494,0.21826752,1004.22687,0,0
70.96,6.7941546000000015,-7.139614,0.15671875,1004.20935,0,0
71.0,6.7081,-7.1872786999999985,0.06676341599999999,1004.20935,0,0
71.04,6.5694675,-7.3064423,0.07623051,1004.20654,0,0
71.08,6.545552,-7.2683095999999985,0.12830743,1004.23895,0,0
71.12,6.736725,-7.1729774000000015,0.19458738,1004.2269,0,0
71.16,6.7080293000000015,-7.115778999999999,0.28453955,1004.2361,0,0
71.2,6.7127914,-7.1825100000000015,0.38869482,1004.2265,0,0
71.24,6.760572,-7.106244599999999,0.35555238,1004.2116,0,0
71.28,6.9182887000000015,-6.963247999999999,0.27033156,1004.2038,0,0
71.32,6.961289,-6.9394145000000025,0.24665792,1004.22144,0,0
71.36,6.9947300000000014,-6.915581,0.31293797,1004.22437,0,0
71.4,6.8178606,-6.977546,0.31293646,1004.21893,0,0
71.44,6.8321824000000015,-6.9823119999999985,0.43602934,1004.19855,0,0
71.48,6.8608446,-7.0299773000000005,0.5023095000000001,1004.2493,0,0
71.52,6.8178085999999976,-7.172973599999999,0.44549498,1004.2113,0,0
71.56,6.6935160000000025,-7.206339,0.31293005,1004.2261,0,0
71.6,6.627907799999999,-7.2540364,0.2467682,1004.2286,0,0
71.64,6.637503,-7.244505,0.16628659,1004.2361,0,0
71.68,6.7857080000000005,-7.18254,0.28464955,1004.2035,0,0
71.72,6.819205,-7.0538435,0.30832502,1004.21655,0,0
71.76,6.857475999999999,-7.001412400000001,0.3035937,1004.2038,0,0
71.8,6.757135400000001,-7.187309299999999,0.4882387,1004.23895,0,0
71.84,6.7571710000000005,-7.144411,0.4929764,1004.21893,0,0
71.88,6.833684,-7.020481599999999,0.3651507,1004.22894,0,0
71.92,6.9054160000000016,-7.082447,0.26573142,1004.23895,0,0
71.96,6.8958898,-7.0300160000000025,0.22312485,1004.2238,0,0
72.0,6.881586,-7.1205816,0.16158082,1004.2061,0,0
72.04,6.800362599999999,-7.211147299999999,0.26574078,1004.2113,0,0
72.08,6.74304,-7.268347,0.3083537,1004.25146,0,0
72.12,6.6713786,-7.1158175,0.36516976,1004.2144,0,0
72.16,6.6092771999999975,-7.206383,0.29889137,1004.21893,0,0
72.2,6.5615144,-7.301715,0.43145797,1004.2393,0,0
72.24,6.532867,-7.29695,0.45986724,1004.22394,0,0
72.28,6.733656,-7.263584599999999,0.3888546,1004.2139,0,0
72.32,6.728910000000001,-7.1301217,0.11899656,1004.2393,0,0
72.36,6.733725,-7.201620599999999,0.123734236,1004.2213,0,0
72.4,6.7289805,-7.3064857,0.10006544,1004.21655,0,0
72.44,6.752915400000001,-7.211156,0.16635035,1004.2185,0,0
72.48,6.743391,-7.1682577000000025,0.1284784,1004.2236,0,0
72.52,6.7386446,-7.1301255,0.25157595,1004.2139,0,0
72.56,6.757797,-7.0538615999999985,0.35100153,1004.2313,0,0
72.6,6.732295,-7.0967210000000005,0.50709015,1004.23645,0,0
72.64,6.7561649999999975,-7.0633550000000005,0.5307595,1004.2114,0,0
72.68,6.751355,-7.0490546,0.55916315,1004.216,0,0
72.72,6.789565,-7.0776534,0.45973808,1004.20105,0,0
72.76,6.7082770000000025,-7.211116,0.4692041,1004.2211,0,0
72.8,6.708247,-7.0633516000000025,0.31296593,1004.2133,0,0
72.84,6.746455,-7.130083,0.32243195,1004.24896,0,0
72.88,6.7034062999999975,-7.273078999999999,0.35557,1004.20844,0,0
72.92,6.6938179999999985,-7.277845,0.35083297,1004.206,0,0
72.96,6.708129,-7.311209700000001,0.35083038,1004.2287,0,0
73.0,6.803693300000001,-7.1396136,0.33188978,1004.2236,0,0
73.04,6.861022,-7.049048,0.33662158,1004.21106,0,0
73.08,6.865773,-6.996615400000001,0.27980608,1004.20856,0,0
73.12,6.8083835000000015,-7.0442796,0.50705457,1004.2211,0,0
73.16,6.7605567,-7.125310400000001,0.5733335999999999,1004.20105,0,0
73.2,6.8274455000000005,-7.11101,0.55912775,1004.21375,0,0
73.24,6.808294,-7.1300755,0.5543905,1004.23895,0,0
73.28,6.784366,-7.0681095,0.38394922,1004.2208,0,0
73.32,6.6791800000000014,-7.192039500000001,0.31293038,1004.22894,0,0
73.36,6.7173880000000015,-7.153906299999999,0.39341247,1004.2336,0,0
73.4,6.8559723,-7.139606,0.32712802,1004.1982,0,0
73.44,6.803364,-7.1348386,0.34606287,1004.234,0,0
73.48,6.73164,-7.149137,0.38867006,1004.2386,0,0
73.52,6.717261,-7.215867999999999,0.3271191,1004.2593,0,0
73.56,6.7459087,-7.144369599999999,0.4644141,1004.20294,0,0
73.6,6.784564,-7.0538149999999975,0.45498338,1004.2063,0,0
73.64,6.818010000000001,-7.1205463,0.37449738,1004.2238,0,0
73.68,6.803658,-7.1634449999999985,0.40290263,1004.2236,0,0
73.72,6.7319520000000015,-7.139612,0.369761,1004.21356,0,0
73.76,6.8753304,-7.025214,0.26086822,1004.2381,0,0
73.8,6.927896499999999,-6.982315,0.38869607,1004.2386,0,0
73.84,6.9087644,-7.0013809999999985,0.49285182,1004.2261,0,0
73.88,6.8609576,-7.063346000000001,0.5117885999999999,1004.2058,0,0
73.92,6.88962,-6.8583837,0.5354591,1004.2236,0,0
73.96,6.9517484,-6.929881599999999,0.45497346,1004.2063,0,0
74.0,6.793999,-7.0347456999999975,0.36501834,1004.20856,0,0
74.04,6.6840509999999975,-7.2111077,0.3792204,1004.2185,0,0
74.08,6.7318362999999986,-7.182508,0.36028162,1004.23083,0,0
74.12,6.770063,-7.096709700000001,0.3318741,1004.2213,0,0
74.16,6.8321886,-7.077643400000001,0.27032572,1004.24146,0,0
74.2,6.8035,-7.168208,0.3034657,1004.2188,0,0
74.24,6.8751807000000005,-7.010911,0.4076211,1004.23895,0,0
74.28,6.884728999999999,-7.053809599999999,0.41708887,1004.21356,0,0
74.32,6.942073,-6.972778,0.5023069,1004.23834,0,0
74.36,6.903822999999999,-7.010910000000001,0.51650906,1004.2543,0,0
74.4,6.817774000000001,-7.1396070000000025,0.3366005,1004.2186,0,0
74.44,6.750844,-7.106240299999999,0.34606817,1004.2261,0,0
74.48,6.808189,-7.0585747,0.21823806,1004.2035,0,0
74.52,6.9372315,-7.029975,0.23244017,1004.22845,0,0
74.56,6.8129444,-7.0728740000000005,0.36026803,1004.2157,0,0
74.6,6.718825,-7.2159065999999985,0.37934074,1004.2108,0,0
74.64,6.6949697,-7.0824437000000025,0.54978335,1004.2108,0,0
74.68,6.7428145000000015,-6.9918809999999985,0.45983395,1004.2358,0,0
74.72,6.809773,-7.0729136,0.3414776,1004.2287,0,0
74.76,6.800263,-7.10628,0.40302944,1004.18604,0,0
74.8,6.895906,-7.0443163,0.30834565,1004.24097,0,0
74.84,6.924632000000001,-6.963286,0.27994347,1004.2261,0,0
74.88,6.829083,-6.996653,0.32729182,1004.2258,0,0
74.92,6.7813287,-7.068152400000002,0.24681097,1004.25336,0,0
74.96,6.7718163,-7.2016172,0.40778506,1004.21295,0,0
75.0,6.824437599999999,-7.077687700000001,0.4314611,1004.2107,0,0
75.04,6.943977,-6.9728246,0.40305868,1004.21545,0,0
75.08,6.8340917,-6.906094,0.30364078,1004.20844,0,0
75.12,6.767218,-6.9537606,0.25630072,1004.193,0,0
75.16,6.829403,-7.044326299999999,0.3083835,1004.23334,0,0
75.2,6.901147,-7.049094,0.44568554,1004.1903,0,0
75.24,6.877294,-6.9966630000000025,0.34153292,1004.2537,0,0
75.28,6.791305,-7.120595,0.25158352,1004.23083,0,0
75.32,6.815247500000001,-7.1396623,0.3841509,1004.2033,0,0
75.36,6.815292,-7.091997599999999,0.35574844,1004.2233,0,0
75.4,6.777100999999999,-7.030033,0.27053347,1004.2386,0,0
75.44,6.7628080000000015,-7.106299400000001,0.24213134,1004.24585,0,0
75.48,6.686375599999999,-7.2921963,0.28947943,1004.2186,0,0
75.52,6.576486599999999,-7.325563400000001,0.36523423,1004.21545,0,0
75.56,6.705591,-7.087236999999999,0.3889108,1004.2236,0,0
75.6,6.7659726,-7.163459,0.32246834,1004.2178,0,0
75.64,6.813748,-7.149158,0.4739673,1004.2206,0,0
75.68,6.8376220000000005,-7.082426,0.4029489,1004.22565,0,0
75.72,6.8710537,-7.1110244000000025,0.39347762,1004.2082,0,0
75.76,6.847132000000001,-7.1968217,0.48342928,1004.20294,0,0
75.8,6.823208,-7.1777554000000015,0.30351958,1004.208,0,0
75.84,6.8088446,-7.0728908,0.22776692,1004.2181,0,0
75.88,6.8470564,-7.0967226,0.41240627,1004.2208,0,0
75.92,6.880489999999999,-7.0681224,0.40293515,1004.22314,0,0
75.96,6.708392599999999,-7.0299897,0.35558888,1004.2206,0,0
76.0,6.5984320000000025,-7.1491528,0.36505538,1004.2306,0,0
76.04,6.627087,-7.3255149999999984,0.573367,1004.20544,0,0
76.08,6.7178764000000015,-7.2349496,0.55916137,1004.22833,0,0
76.12,6.775211,-7.1920505000000015,0.30350134,1004.2178,0,0
76.16,6.6891484,-7.115784,0.014700312,1004.2158,0,0
76.2,6.5266113,-7.2826133,0.06204217,1004.20276,0,0
76.24,6.660421,-7.282613,0.21354079,1004.22296,0,0
76.28,6.746432,-7.0728839999999975,0.37450823,1004.208,0,0
76.32,6.7225075,-7.0681160000000025,0.40291235,1004.2157,0,0
76.36,6.6746855,-7.1348476,0.6538335999999999,1004.24066,0,0
76.4,6.6985592999999986,-7.1539135,0.65856576,1004.20544,0,0
76.44,6.818028999999999,-7.1396130000000015,0.51179683,1004.22046,0,0
76.48,6.832342999999999,-7.0824137,0.3981688,1004.19775,0,0
76.52,6.8896785000000005,-7.053814,0.27980664,1004.2077,0,0
76.56,6.7749380000000015,-7.211109599999999,0.20405386,1004.2007,0,0
76.6,6.6804156,-7.2635679999999985,0.31304348,1004.22833,0,0
76.64,6.6899977,-7.234969,0.36038956,1004.2358,0,0
76.68,6.637434,-7.282635000000001,0.3935317,1004.2356,0,0
76.72,6.570537599999999,-7.2635694000000015,0.47875282,1004.2306,0,0
76.76,6.5514355,-7.201604400000001,0.44561368,1004.22797,0,0
76.8,6.627928999999999,-7.187305499999999,0.53083444,1004.2202,0,0
76.84,6.766564999999999,-7.1777729999999975,0.38880426,1004.2077,0,0
76.88,6.809601299999999,-7.2063727,0.34619626,1004.2206,0,0
76.92,6.919556599999999,-7.1444077,0.37933895,1004.20026,0,0
76.96,6.8622217,-7.1920740000000025,0.3177938,1004.21545,0,0
77.0,6.6423683,-7.325538000000001,0.30832659999999995,1004.2027,0,0
77.04,6.6280446,-7.230207400000001,0.4077505,1004.24066,0,0
77.08,6.6710863,-7.1920753,0.33673662,1004.2153,0,0
77.12,6.6519850000000025,-7.2445083,0.5213800000000001,1004.2077,0,0
77.16,6.5994215,-7.2206755,0.50244373,1004.2253,0,0
77.2,6.6042229999999975,-7.287408,0.37935114,1004.2105,0,0
77.24,6.781091,-7.134878,0.43143103,1004.2153,0,0
77.28,6.7954545,-7.1920776,0.29886985,1004.2354,0,0
77.32,6.6759770000000005,-7.215911,0.22785541,1004.21027,0,0
77.36,6.70467,-7.2302113,0.28466958,1004.2052,0,0
77.4,6.757271,-7.244511599999999,0.24206202,1004.2183,0,0
77.44,6.609116,-7.249277999999999,0.23732933,1004.22565,0,0
77.48,6.523097,-7.230212700000001,0.3462223,1004.2206,0,0
77.52,6.575695,-7.263578999999999,0.5308659,1004.22797,0,0
77.56,6.68087,-7.23498,0.46458602,1004.2153,0,0
77.6,6.7609105,-7.1110196,0.2798329,1004.21295,0,0
77.64,6.6509447,-7.2301826,0.30350214,1004.23834,0,0
77.68,6.732171000000001,-7.187283,0.32717136,1004.2535,0,0
77.72,6.7273607,-7.1872820000000015,0.331903,1004.21277,0,0
77.76,6.799028999999999,-7.1348495,0.37451005,1004.20276,0,0
77.8,6.7273016000000005,-7.1920476,0.39817926,1004.2027,0,0
77.84,6.636453,-7.3731756,0.3792387,1004.2258,0,0
77.88,6.6555456999999985,-7.2969103,0.5117996,1004.2227,0,0
77.92,6.693752000000001,-7.2015777000000005,0.31295165,1004.2356,0,0
77.96,6.674606,-7.206344,0.25613633,1004.2152,0,0
78.0,6.5550785000000005,-7.239708999999999,0.36029026,1004.21277,0,0
78.04,6.636305,-7.2587747999999985,0.44550678,1004.2302,0,0
78.08,6.674515,-7.287373,0.31767526,1004.2077,0,0
78.12,6.6792636,-7.220641,0.4360326,1004.23785,0,0
78.16,6.664894,-7.196807400000001,0.21351275,1004.2127,0,0
78.2,6.5883904000000015,-7.3588695999999985,0.34607366,1004.20026,0,0
78.24,6.6982937000000025,-7.172973,0.41708678,1004.2002,0,0
78.28,6.827317999999999,-7.0538087,0.4028808,1004.2177,0,0
78.32,6.8033905,-7.158672,0.29872122,1004.2177,0,0
78.36,6.726883,-7.206336500000001,0.44548503,1004.21796,0,0
78.4,6.7889905,-7.1396046,0.4265446,1004.2202,0,0
78.44,6.745943,-7.1777362999999985,0.37446356,1004.2077,0,0
78.48,6.6789956,-7.2397003,0.48335207,1004.2153,0,0
78.52,6.669403599999999,-7.2111,0.29397290000000004,1004.2277,0,0
78.56,6.6359167,-7.2635317,0.44073686,1004.2276,0,0
78.6,6.637973,-7.2349830000000015,0.37937778,1004.2253,0,0
78.64,6.7144995,-7.211150999999999,0.3320383,1004.2002,0,0
78.68,6.714553,-7.206386,0.31783995,1004.2329,0,0
78.72,6.7624005999999985,-7.163488,0.32257894,1004.2202,0,0
78.76,6.7528977,-7.2206883,0.3131153,1004.2077,0,0
78.8,6.6812505999999985,-7.1491914,0.32732308,1004.2202,0,0
78.84,6.7721195000000005,-7.068161,0.30839035,1004.2178,0,0
78.88,6.829527400000001,-7.087229,0.32733253,1004.21265,0,0
78.92,6.724428,-7.1396623,0.4172914000000001,1004.2052,0,0
78.96,6.7340407,-7.258827,0.50724995,1004.2277,0,0
79.0,6.791448599999999,-7.182564,0.37942562,1004.2352,0,0
79.04,6.6911225000000005,-7.2111645000000015,0.34155494,1004.2022,0,0
79.08,6.629035000000001,-7.1349,0.36996594,1004.2152,0,0
79.12,6.6912293000000025,-7.1873336,0.33683026,1004.20483,0,0
79.16,6.724738,-7.187335000000001,0.45519498,1004.23773,0,0
79.2,6.720011,-7.2064033,0.422059,1004.2327,0,0
79.24,6.758303,-7.2159366999999985,0.50254875,1004.2277,0,0
79.28,6.7057714000000015,-7.168272999999999,0.45520896,1004.1827,0,0
79.32,6.6723690000000015,-7.196872999999999,0.32738522,1004.2251,0,0
79.36,6.6819820000000005,-7.24454,0.45995343,1004.21014,0,0
79.4,6.729833599999999,-7.2111754,0.4741615,1004.20483,0,0
79.44,6.749006,-7.1968774999999985,0.43629116,1004.2202,0,0
79.48,6.7108173,-7.287443,0.35107645,1004.2177,0,0
79.52,6.6487336,-7.3065104,0.37475333,1004.2202,0,0
79.56,6.6201077,-7.3303447,0.31794536,1004.2002,0,0
79.6,6.6464133,-7.296921,0.34613454,1004.2102,0,0
79.64,6.713286,-7.1682229999999985,0.31298965,1004.21014,0,0
79.68,6.722801,-7.1586880000000015,0.37453285,1004.1849,0,0
79.72,6.722759700000001,-7.201586,0.44554505,1004.2122,0,0
79.76,6.7274947,-7.1682196,0.42186898,1004.2297,0,0
79.8,6.6939945000000005,-7.196818,0.431334,1004.20465,0,0
79.84,6.708289,-7.215883,0.45500195,1004.2297,0,0
79.88,6.641328,-7.192049000000001,0.41712263,1004.1923,0,0
79.92,6.674745,-7.1968145,0.31296194,1004.21014,0,0
79.96,6.6077833,-7.339810000000001,0.40764594,1004.21967,0,0
80.0,6.626858,-7.287377,0.39343867,1004.2477,0,0
80.04,6.660272,-7.201577,0.28927767,1004.2429,0,0
80.08,6.6124325,-7.258775,0.26086748,1004.2251,0,0
80.12,6.5789294000000025,-7.2826076,0.41709876,1004.1973,0,0
80.16,6.574108,-7.306439,0.42656374,1004.2427,0,0
80.2,6.597962400000001,-7.2969050000000015,0.4454973,1004.2122,0,0
80.24,6.5931387,-7.244471499999999,0.35080516,1004.21716,0,0
80.28,6.6838994000000005,-7.1968045,0.23717435,1004.2152,0,0
80.32,6.669515,-7.206336500000001,0.29871753,1004.2177,0,0
80.36,6.659911599999999,-7.268300999999999,0.35552633,1004.2226,0,0
80.4,6.7076783,-7.2206345,0.3318515,1004.22723,0,0
80.44,6.6693820000000015,-7.168201,0.45020628,1004.2352,0,0
80.48,6.607206,-7.325496,0.46440595,1004.2198,0,0
80.52,6.583265299999999,-7.287362599999999,0.37918288,1004.2152,0,0
80.56,6.650138,-7.2158628,0.24188104,1004.2198,0,0
80.6,6.6708617,-7.316,0.36038804,1004.2302,0,0
80.64,6.632643700000001,-7.230202999999999,0.30831143,1004.22723,0,0
80.68,6.737822,-7.201604,0.30831352,1004.2247,0,0
80.72,6.6948237000000015,-7.2206706999999986,0.37459704,1004.2327,0,0
80.76,6.5896845,-7.306469,0.40300497,1004.19214,0,0
80.8,6.5562524999999985,-7.3398356,0.44561705,1004.2226,0,0
80.84,6.6040706999999985,-7.2921705,0.40774363,1004.22723,0,0
80.88,6.623212,-7.2874045,0.30358872,1004.2027,0,0
80.92,6.661472,-7.2111399999999986,0.32726273,1004.2352,0,0
80.96,6.690171,-7.196841,0.28465495,1004.2327,0,0
81.0,6.6615133,-7.2921724,0.355673,1004.2352,0,0
81.04,6.604177,-7.301706299999997,0.36040935,1004.2202,0,0
81.08,6.628095,-7.225442,0.42195833,1004.2152,0,0
81.12,6.7093744000000015,-7.1491776,0.369882,1004.21716,0,0
81.16,6.6663785,-7.2016100000000005,0.32253990000000005,1004.2276,0,0
81.2,6.5899215,-7.335074400000001,0.2846665,1004.2147,0,0
81.24,6.6281796,-7.292175999999999,0.4361693,1004.2077,0,0
81.28,6.7190194000000005,-7.1587130000000005,0.31307690000000005,1004.2352,0,0
81.32,6.6951404000000005,-7.182546,0.24206266,1004.2327,0,0
81.36,6.642582400000001,-7.239745,0.3509558,1004.2177,0,0
81.4,6.666505,-7.3493767,0.29887947,1004.2327,0,0
81.44,6.7095428,-7.211147299999999,0.2894125,1004.20715,0,0
81.48,6.7382436000000006,-7.2063812999999985,0.2894145,1004.18964,0,0
81.52,6.7478247000000025,-7.2111483,0.25627562,1004.2077,0,0
81.56,6.7430663,-7.1587167,0.26574640000000005,1004.2402,0,0
81.6,6.670251,-7.1729884,0.4502858,1004.2302,0,0
81.64,6.6845690000000015,-7.244486999999999,0.42187744,1004.23773,0,0
81.68,6.727562,-7.2111197,0.28931177,1004.2202,0,0
81.72,6.622382000000001,-7.277850999999999,0.26090312,1004.20734,0,0
81.76,6.536322599999999,-7.2635508,0.08099369,1004.2351,0,0
81.8,6.5219593,-7.3350490000000015,0.04785063,1004.20966,0,0
81.84,6.694008,-7.2206507,0.18988058,1004.21967,0,0
81.88,6.756123,-7.125319,0.23722255,1004.2152,0,0
81.92,6.7035227,-7.087186,0.27509573,1004.1923,0,0
81.96,6.607903,-7.1682169999999985,0.39818805,1004.2227,0,0
82.0,6.598319,-7.234947999999997,0.50234276,1004.2253,0,0
82.04,6.612634,-7.211114999999999,0.38398042,1004.2397,0,0
82.08,6.612612,-7.2921457,0.35083756,1004.22705,0,0
82.12,6.6078076,-7.234946300000002,0.1377871,1004.2302,0,0
82.16,6.6603613,-7.2206464000000015,0.21353537,1004.20966,0,0
82.2,6.6555586,-7.2873774,0.19459568,1004.2302,0,0
82.24,6.7320113,-7.3779416,0.14251503,1004.20734,1,4
82.28,6.64117,-7.511404,0.24193516,1004.2223,1,4
82.32,6.6985063999999985,-7.4828043000000015,0.33188695,1004.2297,1,4
82.36,6.8992324000000025,-7.587668400000001,0.6632929,1004.2501,1,4
82.4,6.9087679999999985,-7.1539106,1.0041678,1004.2173,1,4
82.44,7.616156599999999,-5.895539,0.43603724,1004.22473,1,4
82.48,8.213608,-5.5428133,0.9189443000000002,1004.2397,1,4
82.52,9.236462,-4.8993278,1.316632,1004.2121,1,4
82.56,10.115922,-4.970825700000002,1.4728652,1004.22723,1,4
82.6,10.116625,-5.4808645,1.9795108,1004.2167,1,4
82.64,9.5717325,-6.0480847,2.4340146000000003,1004.2276,1,4
82.68,9.098537,-6.6963367,2.4198115,1004.2202,1,4
82.72,9.3757715,-7.192059,1.695448,1004.2122,1,4
82.76,6.3262596,-9.527671,1.491869,1004.22955,1,4
82.8,1.0015634,-11.4009285,-3.4129736000000004,1004.2198,1,4
82.84,0.23679985,-11.086336,-3.048424,1004.22473,1,4
82.88,0.26070362,-12.001515,-0.72856534,1004.20233,1,4
82.92,0.39932305,-13.607845,-1.1641302,1004.2226,1,4
82.96,2.6553955,-13.493447,-0.28353044,1004.2122,1,4
83.0,5.666677,-12.611635,-0.53445345,1004.1971,1,4
83.04,8.004006,-11.710755,-1.3724427,1004.20984,1,4
83.08,9.552669,-10.728845,-0.98895544,1004.2043,1,4
