Timestamp,Ax,Ay,Az,P,LPFRMSAcc,LPFPValue,Value,Type
0.0,8.01039,-1.1141523000000002,3.913846700000001,1004.47156,0.01867446916343914,3.6160976159999993,0,0
0.02,8.168167,-1.6384746,5.6750493,1004.48694,0.05605923249892407,10.414416502079998,0,0
0.04,8.01525,-1.5193117,5.2063465,1004.5145,0.10900539380667568,20.0001713704128,0,0
0.06,7.914911,-1.6813755,5.1684747,1004.5069,0.17535223900766125,32.01436859513817,0,0
0.08,8.020102,-1.9864357,5.021711,1004.48926,0.2534412507491155,46.131022871963005,0,0
0.1,8.794467,-1.5431471,5.357857,1004.5094,0.3431713286310386,62.054660748626354,0,0
0.12,8.455128,-1.7433432,4.642965,1004.49396,0.441595156843956,79.51756865375106,0,0
0.14,8.646357,-1.366786,4.7944694000000005,1004.5094,0.5477172207005149,98.27776467156572,0,0
0.16,8.343465,-2.0721931,4.8558545,1004.4861,0.6600366537673857,118.11662388008915,0,0
0.18,8.9122505,-1.114115,4.4581637,1004.49445,0.7777471109948254,138.83720005077208,0,0
0.2,8.008858,-2.0388267,4.585992,1004.49146,0.8986006553188176,160.26225649100476,0,0
0.22,8.137901,-1.7290002,4.7090855000000005,1004.5094,1.022021619445639,182.23272607822673,0,0
0.24,9.069955,-1.5478709,4.4392233,1004.4886,1.1486306663927983,204.60595415161447,0,0
0.26,8.95523,-1.9816275,3.913703700000001,1004.4864,1.2770936880996562,227.254508082314,0,0
0.28,8.873963,-1.8481636,4.1456885,1004.53174,1.4067229910564267,250.06496837038372,0,0
0.30000000000000004,8.596725,-1.5764695,3.0757124,1004.50397,1.5354571591746755,272.9362714867889,0,0
0.32,7.98968,-2.4678154,4.1456866,1004.4865,1.6630780719641731,295.77893574309195,0,0
0.34,9.500091,-1.3238417,4.434485400000002,1004.4789,1.7918206599266873,318.5140337512862,0,0
0.36000000000000004,9.29455,-1.4144061,2.7679737,1004.46643,1.9194971277855368,341.07219497782205,0,0
0.38,8.639708,-2.3772502,3.804807700000001,1004.4914,2.045635918523804,363.39289537566896,0,0
0.4,8.840447,-1.9720924,3.800072,1004.4836,2.1701437266548984,385.42339278385407,0,0
0.42,9.108107,-2.3772497,3.833212,1004.5018,2.2934713305368195,407.1182225597046,0,0
0.44,9.504821000000002,-1.8958273,4.1930256,1004.5193,2.416136011283466,428.43841802843116,0,0
0.46,8.921676,-2.3105175,3.7811317,1004.50354,2.536529050499996,449.3507771836955,0,0
0.48,8.32419,-2.7395072,3.5396762,1004.4962,2.6534209137827425,469.8274612554259,0,0
0.5,8.271603,-2.6441758,3.9326308,1004.50354,2.766968062274247,489.84549318468726,0,0
0.52,8.931207,-2.4296806,4.0462556,1004.504,2.87833298483885,509.38619682191774,0,0
0.54,8.137749000000001,-2.8443708,2.8247783,1004.52936,2.985227866446431,528.4348779432157,0,0
0.56,8.582262,-2.7204401,3.7716582,1004.5093,3.0892216788354045,546.980160501399,0,0
0.5800000000000001,9.09847,-2.5965095,4.2308949999999985,1004.4939,3.1915317855868106,565.0138216320048,0,0
0.6,8.610921000000001,-2.6966069,3.6248903,1004.5116,3.2906547889375117,582.5305566091329,0,0
0.62,8.285884,-2.9349344,3.5586076,1004.4989,3.3861042326937563,599.5274296711302,0,0
0.64,8.67304,-2.9206345,3.1183074,1004.50385,3.4783485212257315,616.0037818218951,0,0
0.66,8.735571,-2.8920448,3.4355483,1004.5266,3.5677487382607453,631.9609687277522,0,0
0.68,9.146639,-2.5869853,3.7006755,1004.4989,3.655100042171544,647.4018756303473,0,0
0.7000000000000001,8.080749,-2.7156825,3.1562192,1004.5066,3.7380193109774313,662.3310379772113,0,0
0.72,8.362761500000001,-3.2257044,4.500791,1004.5169,3.8186765775050926,676.7543149301823,0,0
0.74,8.735596000000001,-2.0864975,3.8190374,1004.51135,3.896482982458744,690.6786477720789,0,0
0.76,8.300638000000001,-2.620352,4.1078362,1004.542,3.971210627089617,704.1120963391992,0,0
0.78,8.573093,-2.2533271,3.9326642,1004.5193,4.043099463877165,717.0633574262855,0,0
0.8,8.568321000000001,-2.6203525,4.13151,1004.51404,4.112572830516334,729.5419141801002,0,0
0.8200000000000001,8.405813,-2.7299830000000003,4.9600306,1004.5243,4.180218840013517,741.5579035167227,0,0
0.84,8.14293,-2.6394186,3.8237742999999993,1004.50885,4.244428132647506,753.1218551019023,0,0
0.86,8.902925,-2.5011888,4.969501,1004.5043,4.307703795106897,764.2447395241996,0,0
0.88,8.099924,-2.7824156,4.1220427000000015,1004.5093,4.367861860222075,774.9378726174547,0,0
0.9,8.257665,-2.3820252,4.2119975,1004.5016,4.425186169153824,785.2127544372322,0,0
0.92,8.348486999999999,-2.8729808,4.9647684000000005,1004.5065,4.480960352480293,795.0810974972135,0,0
0.94,8.162081,-2.343893,3.738558,1004.5043,4.533395924982115,804.5546889540227,0,0
0.96,8.257683,-2.8348484,4.723315,1004.5074,4.584039613938984,813.6453841250252,0,0
0.98,8.453662,-1.90537,4.0747019999999985,1004.49695,4.6321889879107365,822.3649880152727,0,0
1.0,8.257695,-2.725218,4.586018599999999,1004.50726,4.678491174991518,830.7253421918408,0,0
1.02,8.601846,-2.672786,2.4555364,1004.5249,4.721966209810928,838.7382295503653,0,0
1.04,8.109534,-2.7252183,4.443988,1004.5094,4.763419198685138,846.4151930339763,0,0
1.06,8.793053,-2.6489537,4.5197379999999985,1004.4998,4.804172564472932,853.7676625531727,0,0
1.08,9.452671,-2.6632535,3.3882160000000003,1004.4998,4.8444798075702264,860.8069403151433,0,0
1.1,9.271046,-2.4821246,4.0320954,1004.54,4.8842922314297805,867.544285160486,0,0
1.12,8.874327000000003,-2.8157837000000003,4.3208947,1004.49194,4.923220639200265,873.9904146232532,0,0
1.14,8.649683,-2.7299857000000003,3.004731,1004.49194,4.959753904634517,880.1560201079103,0,0
1.16,8.5014515,-2.8586812000000004,3.1278203,1004.5097,4.993922774669851,886.0516223617647,0,0
1.18,8.568374,-2.563155,3.0994143,1004.52234,5.025809661356019,891.6874710967681,0,0
1.2,8.300708,-2.8157825,2.2898314,1004.51483,5.054721721816517,897.0734855310692,0,0
1.22,8.81215,-2.2247293,3.0662742,1004.5298,5.082007907513648,902.2194106173056,0,0
1.24,9.710757,-1.9387364,2.625975,1004.5327,5.109115897601597,907.1346778652817,0,0
1.26,9.419192,-1.843405,1.3713577,1004.5053,5.134827120929383,911.8283422452783,0,0
1.28,9.906736,-2.6632533,2.5454907,1004.51013,5.161028623772141,916.3093185273603,0,0
1.3,9.820704,-2.6489534,2.4508028,1004.52765,5.1873470336181216,920.5862951635097,0,0
1.32,9.667754,-2.3248277,1.7643143,1004.52264,5.21291721859851,924.6676025606224,0,0
1.34,9.467006,-2.1055663,1.7974555,1004.50793,5.237245413503522,928.561270955493,0,0
1.36,9.653422,-2.5440893,2.4366007,1004.4952,5.261246169345338,932.2750784937607,0,0
1.38,9.586509,-2.2437963,3.0899490000000003,1004.49005,5.284960571062307,935.8165727319968,0,0
1.4,9.060734,-2.0912669,2.2093499,1004.5205,5.306754270874894,939.1931711790668,0,0
1.42,9.213692,-1.8148066000000005,1.3476886,1004.5003,5.326625089715403,942.4118392306532,0,0
1.44,9.3953285,-1.8815384,1.5228618,1004.4954,5.345172611211861,945.4793551398047,0,0
1.46,9.333195,-2.091267,1.8921458,1004.52106,5.362583536128043,948.4023623346277,0,0
1.48,9.2567215,-2.134166,1.7453796999999998,1004.5207,5.378737482238981,951.1871575075684,0,0
1.5,9.490935,-2.553623,1.4423780000000002,1004.49567,5.394294555572905,953.8397131673516,0,0
1.52,9.280626,-2.6394212,1.6506919999999998,1004.521,5.408967042664646,956.3659639809337,0,0
1.54,9.070319,-2.9158816,2.275634,1004.5006,5.422818907968663,958.7714438894836,0,0
1.56,9.089442,-2.7156863,2.1099303,1004.50616,5.435735306765474,961.061570914676,0,0
1.58,9.032088,-2.8157842,1.8874134,1004.5236,5.4476310384968185,963.2415904588432,0,0
1.6,9.318881,-2.5488572,1.8732105,1004.5163,5.458984965360429,965.3164446824176,0,0
1.62,9.304545,-2.7728853,1.9726334,1004.5013,5.469956900283587,967.290851353511,0,0
1.64,9.132476,-2.9873805,2.1004627,1004.5091,5.4804027125177575,969.1694227832164,0,0
1.66,9.275715,-2.9015784,2.1477928,1004.5113,5.490591028601852,970.9565592564846,0,0
1.68,9.294832,-2.8443801,2.0341666000000003,1004.5063,5.5004682284158495,972.6564521109414,0,0
1.7,9.113196,-2.8729794,1.9678847,1004.5191,5.509671223329669,974.2731829695397,0,0
1.72,8.735591000000001,-2.9635437,1.645945,1004.4962,5.51744394879299,975.8105292175068,0,0
1.74,8.835963000000003,-3.3210354,2.209339,1004.5066,5.5245989171825824,977.2722342170276,0,0
1.76,8.859859,-2.8062472,2.2661517000000004,1004.5141,5.530914963213856,978.6618674714227,0,0
1.78,9.017591,-2.5536196,2.4886682,1004.5046,5.5367393187231375,979.9827812521092,0,0
1.8,8.835956,-2.8682125,2.195135,1004.5342,5.541793712679024,981.2383257762165,0,0
1.82,8.91721,-3.3162687000000006,2.1525252,1004.5196,5.546583384792293,982.4315375049227,0,0
1.84,8.835951,-3.6165617,2.3182292,1004.53265,5.55126841224226,983.5654233933902,0,0
1.86,8.945884,-3.030275,1.8495227,1004.51996,5.555427807021153,984.6427612962236,0,0
1.88,9.352165,-2.4868875,1.8684602,1004.52246,5.559588609323157,985.666263982501,0,0
1.9,9.361722,-2.7156823,1.636474,1004.52496,5.563794226488493,986.6385222617587,0,0
1.92,9.304361,-2.8777452,2.1430552000000005,1004.4996,5.568207527410623,987.5619095571684,0,0
1.94,9.165745,-2.8491457,2.2945561000000003,1004.52515,5.572573518828291,988.4388822369867,0,0
1.96,9.2231,-2.8443792,2.2708838,1004.5302,5.576978587868223,989.2717040408207,0,0
1.98,9.031905,-2.8825116000000004,2.2519457000000003,1004.53046,5.581047363957944,990.0625169081418,0,0
2.0,8.945867,-2.9111109,2.304024,1004.5305,5.584681989499091,990.8133638968374,0,0
2.02,9.05102,-2.8777447,2.3561022,1004.51294,5.588127212792935,991.52613077002,0,0
2.04,9.007998,-2.811013,2.2424765,1004.5534,5.591213567289407,992.202829748392,0,0
2.06,9.2183075,-2.5583854,2.0578344,1004.52325,5.5941512086601755,992.8451144785872,0,0
2.08,9.285222,-2.4010887000000003,2.3182263,1004.5358,5.597115828816075,993.4547237340653,0,0
2.1,9.54811,-2.1007957000000004,2.1856627,1004.5536,5.600407413735063,994.0333304267627,0,0
2.12,9.576786,-2.7395144,2.3608358,1004.5006,5.604431306679858,994.5822694708936,0,0
2.14,8.974527,-2.4916534,3.0094488,1004.5486,5.6081550869671055,995.1031908001927,0,0
2.16,8.8260355,-2.7967052000000003,2.7206209,1004.53107,5.6113131813433395,995.5974172518808,0,0
2.18,8.6921835,-2.9540012000000004,2.654338,1004.5213,5.6137656490484575,996.0662417224856,0,0
2.2,8.491417,-2.9969,2.3418658,1004.5166,5.615061707430447,996.5109163145108,0,0
2.22,8.395806,-3.0826976000000004,2.9241962000000004,1004.52435,5.615550492858985,996.932679145292,0,0
2.24,9.069743,-2.567909,3.3881664,1004.5419,5.616585699819321,997.3327419776475,0,0
2.26,9.064949,-2.6823057999999995,3.3644931,1004.54144,5.6181366737877765,997.7121888091972,0,0
2.28,9.060155,-2.4153786,3.752713200000001,1004.51483,5.62027359067762,998.0719575378412,0,0
2.3,9.246552,-2.339113,3.781118,1004.53186,5.6232537370032,998.4131048353348,0,0
2.32,9.165282,-1.9196556,3.1703784,1004.5273,5.626191553046863,998.7365536899932,0,0
2.34,8.82112,-2.267614,3.634348600000002,1004.51685,5.628915044876895,999.0431621646852,0,0
2.36,8.69205,-2.2771468,3.2082512000000003,1004.5068,5.630887950735422,999.3337505091304,0,0
2.38,8.672917,-2.3152788,3.7006276,1004.54004,5.632540858293664,999.6092570124492,0,0
2.4,8.472149,-2.5631394,3.7621734,1004.54504,5.633714319494611,999.8704633775368,0,0
2.42,8.615528,-2.3105116000000003,3.7242968,1004.52747,5.634560718399228,1000.1180305455694,0,0
2.44,8.787587,-2.291445,4.221408,1004.5299,5.6358391826894225,1000.3526636252783,0,0
2.46,8.935744999999997,-2.0817163,4.159859,1004.52747,5.6376182318191965,1000.5750147174588,0,0
2.48,8.811455,-2.2342455,4.060436,1004.48987,5.639587805798322,1000.785577621526,0,0
2.5,8.711065,-2.3438761,3.9704804,1004.5255,5.6415109574049405,1000.9850947241223,0,0
2.52,8.71105,-2.0674155,3.8568535,1004.53046,5.643162549224334,1001.1741513509699,0,0
2.54,8.538963,-2.291443,3.6958823,1004.52045,5.6442233454479815,1001.3532484615887,0,0
2.56,8.601085000000001,-2.2437773,4.1267114000000005,1004.50824,5.6452106909248165,1001.5228566380699,0,0
2.58,8.524593,-2.3534076,3.9325995,1004.51807,5.645876648386466,1001.6835051909115,0,0
2.6,8.610615,-2.2008773999999995,4.055693,1004.5737,5.646444613062313,1001.8358589535153,0,0
2.62,8.677517,-2.2390094,3.9752066,1004.52045,5.646996106862044,1001.9801432659192,0,0
2.64,8.486311,-2.3867726,3.8426418,1004.5385,5.647142062917718,1002.116842968602,0,0
2.66,8.404369,-2.620317,3.9467363,1004.511,5.646993480583472,1002.2462497912056,0,0
2.68,8.767596000000001,-2.4868524,3.7715597,1004.4959,5.647032989777273,1002.3686924004097,0,0
2.7,8.977867999999997,-2.3867536,3.8899164,1004.5261,5.647671289587272,1002.4846493572608,0,0
2.72,8.882230999999997,-2.1627245,3.9277878,1004.5336,5.648583987570008,1002.5944851466484,0,0
2.74,8.963445,-2.2342217,3.927784,1004.4987,5.64991925397171,1002.6983912236236,0,0
2.76,8.796113,-2.3104857999999995,3.8330925,1004.4936,5.65127228446892,1002.7966653848337,0,0
2.78,8.552301,-2.3867497,3.8614948,1004.5415,5.652247807488568,1002.8897818382933,0,0
2.8,8.456663,-2.3343167,3.9041007,1004.5138,5.652719911961168,1002.9779060019523,0,0
2.82,8.494860000000001,-2.3533819,3.6815798,1004.5116,5.652642295257168,1003.0612938113546,0,0
2.84,8.623875,-2.234217,4.0271873,1004.5268,5.6525444053835425,1003.1402511020217,0,0
2.86,8.504336,-2.4344113,3.8851514,1004.5118,5.652189790824147,1003.2149553400876,0,0
2.88,8.642909,-2.396278,3.7809908,1004.5346,5.651758938307183,1003.2857147256184,0,0
2.9,8.681109,-2.5631063,3.7715185,1004.5146,5.651413068767345,1003.3526617056613,0,0
2.92,8.595028999999998,-2.6012375,4.1502666,1004.5121,5.651323978989588,1003.4159900350868,0,0
2.94,8.389458,-2.5059056,3.842527,1004.4842,5.650774273526912,1003.4757925028407,0,0
2.96,8.618844000000001,-2.4296396,3.8614604,1004.5121,5.650214597309412,1003.532364670338,0,0
2.98,8.824337,-2.2771087000000003,3.8614569,1004.50476,5.6499513338057055,1003.5858524607253,0,0
3.0,8.829074,-2.2485085,3.9466724,1004.48975,5.650015878115777,1003.6363683034527,0,0
3.02,8.900729,-2.2389743,3.9703405,1004.5348,5.650517419008232,1003.6842384561943,0,0
3.04,8.876791,-2.3962698,4.1029005,1004.5069,5.651545560453182,1003.7294981047148,0,0
3.06,8.742915,-2.5869308,4.3017416,1004.5328,5.653062374959347,1003.7723814169702,0,0
3.08,8.671175999999999,-2.5249646,3.861438,1004.50757,5.6544666490553865,1003.812919790578,0,0
3.1,8.580318,-2.563096,3.8235588,1004.52277,5.6555895470476845,1003.851294958252,0,0
3.12,8.489463,-2.5201962000000004,3.7525394,1004.5127,5.656212038719804,1003.8875843145587,0,0
3.14,8.628038,-2.620293,3.8519583,1004.5048,5.6567799232023885,1003.9218715662587,0,0
3.16,8.658097,-2.2580683,3.634302,1004.5127,5.656990289066732,1003.9542947642227,0,0
3.18,8.739367999999999,-2.4868636000000004,3.7431946,1004.4952,5.657236316361039,1003.9848911607924,0,0
3.2,8.763283,-2.529763,3.904166000000002,1004.49054,5.657709229409687,1004.0137464726224,0,0
3.22,8.901911,-2.382,3.8142133,1004.51776,5.658488400007133,1004.041057474854,0,0
3.24,9.040542,-2.5392969,4.1124825,1004.4852,5.66011352657604,1004.0667883895164,0,0
3.26,8.839805,-2.6250951,4.3302665000000005,1004.51526,5.662347332332289,1004.09113872351,0,0
3.28,8.543471,-2.5392973,4.098282299999998,1004.5131,5.664326241892406,1004.114173739222,0,0
3.3,8.44311,-2.5249982,3.8426254,1004.4751,5.665665393126818,1004.1358268136437,0,0
3.32,8.548281,-2.4868662,3.6627195,1004.51807,5.666460967426144,1004.1563355456736,0,0
3.34,8.553075,-2.4630334,3.6343143,1004.498,5.666747095184907,1004.175687053331,0,0
3.36,8.54831,-2.6584628,3.7810822,1004.5134,5.66679790724388,1004.1940018121053,0,0
3.38,8.624803,-2.7251952,3.8426309,1004.5056,5.666868404488894,1004.2113064864343,0,0
3.4,8.615258,-2.8395927000000003,3.8757732,1004.48553,5.6670328651019215,1004.2275841013202,0,0
3.42,8.653513,-2.8443596,3.918384,1004.47064,5.667386919411013,1004.2428420030687,0,0
3.44,8.758682,-2.6012654,3.9751985,1004.51843,5.668007162494299,1004.2573160018428,0,0
3.46,8.600964,-2.577433,3.8047614,1004.5059,5.668418943196173,1004.2710001295528,0,0
3.48,8.58186,-2.4153707000000004,3.4780886,1004.51843,5.668266762651777,1004.2839821723308,0,0
3.5,8.562756,-2.5774338,3.4260116000000003,1004.4985,5.667630066083689,1004.2962253695093,0,0
3.52,8.667925,-2.76333,3.5491073,1004.5009,5.66696123280937,1004.3077802872058,0,0
3.54,8.505427000000001,-2.8014627,3.6153905,1004.47565,5.666041306534221,1004.3185945434486,0,0
3.56,8.54368,-2.8300626,3.6958766000000014,1004.5157,5.665053102938641,1004.3288595999085,0,0
3.58,8.715769,-2.625101,3.3881415999999995,1004.48346,5.663973068829093,1004.3384863652363,0,0
3.6,8.701445,-2.610801700000001,3.4354873,1004.50104,5.6628156439685595,1004.3475777681656,0,0
3.62,8.725359,-2.7394990000000004,3.6722088,1004.52124,5.661890128148673,1004.3562361158282,0,0
3.64,8.854428,-2.796698,3.7337575,1004.4683,5.661491117539049,1004.3642900618061,0,0
3.66,8.916578999999997,-2.629869,3.5822577000000004,1004.4758,5.661464138633707,1004.3718079642496,0,0
3.68,8.8964815,-2.6918101,3.6768563,1004.4934,5.661834543290317,1004.3788885141772,0,0
3.7,8.652689,-2.6918097000000003,3.4401337999999995,1004.4834,5.661925229373591,1004.3855211294424,0,0
3.72,8.643107,-2.6107776,3.4543352,1004.47845,5.661715018565396,1004.3917162522246,0,0
3.74,8.623965,-2.4820797000000003,3.373848,1004.5014,5.6610739333531646,1004.3975851242067,0,0
3.76,8.542685,-2.7680728,3.5348155,1004.4962,5.6601860572635125,1004.4031258730432,0,0
3.78,8.504424,-3.030233,3.7573307,1004.51135,5.659349729588933,1004.4084112855724,0,0
3.8,8.614339,-3.139863,3.9277675,1004.4987,5.658968938263213,1004.4134065154548,0,0
3.82,8.705131,-2.9158344,3.913562,1004.4939,5.659002907144703,1004.4181100771234,0,0
3.84,8.547373,-2.8777015,3.8614812000000014,1004.5012,5.659051663706741,1004.422565267936,0,0
3.86,8.480433999999999,-2.6870387000000004,3.4448519,1004.5109,5.658549951410119,1004.4268198795737,0,0
3.88,8.685943,-2.8586342,3.4211776,1004.50385,5.658028477905905,1004.4308565628496,0,0
3.9,8.834095,-2.7823687,3.4732540000000003,1004.4892,5.657758374123447,1004.4346334125667,0,0
3.92,8.776714,-2.9539642,3.7383785000000014,1004.50635,5.657908528950197,1004.4382288166913,0,0
3.94,8.55682,-2.9253645,3.3974992999999993,1004.50635,5.657751133558829,1004.4416509520357,0,0
3.96,8.446861,-2.8490990000000003,3.4590445,1004.4934,5.657118395514116,1004.4448610473984,0,0
3.98,8.504196,-2.7823663,3.5395272000000007,1004.5115,5.6561935277337625,1004.4479373878903,0,0
4.0,8.776622999999999,-2.6203032000000004,3.4353685,1004.4934,5.655346514554441,1004.4508193077527,0,0
4.02,8.9677925,-2.5917032000000004,3.572664,1004.4966,5.655013285197513,1004.4535305826352,0,0
4.039999999999999,8.967771,-2.5917025,3.833054,1004.4661,5.655334737156839,1004.455971515024,0,0
4.06,8.747875,-2.6250677,3.6862855,1004.51434,5.6557305609814845,1004.4583384494284,0,0
4.079999999999999,8.628359,-3.0302246,3.3596094,1004.4913,5.6559692478733,1004.4605485342502,0,0
4.1,8.4323635,-3.3066845,3.5726557,1004.4887,5.6560559554335805,1004.4626027104753,0,0
4.119999999999999,8.719128999999999,-2.8252614,3.5158405,1004.49365,5.656174274637338,1004.4645295508304,0,0
4.14,8.900738,-2.6488984,3.4542910000000004,1004.4859,5.65651034849691,1004.466309040585,0,0
4.159999999999998,8.814679,-2.7775950000000003,3.3264604,1004.49365,5.656859277316941,1004.467979825186,0,0
4.18,8.704350999999999,-2.7871184,3.4779255,1004.47833,5.6571282607690785,1004.4694933910887,0,0
4.199999999999998,8.718652,-2.8347828,3.5962818,1004.4964,5.6574690645976515,1004.4709276417128,0,0
4.22,8.85245,-2.7013183,3.3690271000000003,1004.4913,5.6578751838085175,1004.4722682860539,0,0
4.239999999999998,8.785492999999999,-2.6679517999999995,3.373758,1004.4962,5.658196927448173,1004.4735390335637,0,0
4.26,8.775897,-2.6155186,3.5441933,1004.4787,5.658520738681843,1004.4746804455427,0,0
4.2799999999999985,8.665923,-2.815713,3.4873769999999995,1004.48083,5.658714578065977,1004.4757111355632,0,0
4.3,8.579849000000001,-2.8347783,3.5820613,1004.4964,5.6587173942540785,1004.4766963331776,0,0
4.3199999999999985,8.675409,-2.7299132,3.4352918,1004.5059,5.658555200622063,1004.47767198699,0,0
4.34,8.594114999999999,-2.7918775,3.4447567,1004.5062,5.658140970256664,1004.4786367755456,0,0
4.3599999999999985,8.871305,-2.8061764,3.2127676,1004.52875,5.657865197035253,1004.4796696703212,0,0
4.38,8.804350999999997,-2.8681405,3.3642652,1004.4959,5.65773012248216,1004.480640765332,0,0
4.4,8.789975,-2.682244,3.5015597,1004.49084,5.657683738119843,1004.4815355421284,0,0
4.42,8.823399,-2.6012118,3.3405867,1004.50104,5.657616226867693,1004.4823963829537,0,0
4.44,8.636948,-2.7442074,3.463678,1004.52637,5.657353934616737,1004.4833153269284,0,0
4.46,8.526974000000001,-2.791872,3.610441,1004.4984,5.656857663958112,1004.4841816106474,0,0
4.48,8.546053,-2.6345747000000004,3.5820305,1004.4709,5.65607760863987,1004.4848992451433,0,0
4.5,8.53168,-2.8014033,3.5962307,1004.5263,5.655131787414581,1004.4856823897012,0,0
4.52,8.727611999999999,-2.8252351000000004,3.8708224,1004.51624,5.6546322556829445,1004.4864843836301,0,0
4.539999999999999,8.9044285,-2.5869064,3.5062704,1004.4987,5.654438741642884,1004.487237001684,0,0
4.56,8.933069999999997,-2.5201738,3.3168905,1004.5034,5.654398354185172,1004.4879602017908,0,0
4.579999999999999,8.799199,-2.6870024,3.430513,1004.4987,5.654415405356872,1004.4886378846784,0,0
4.6,8.937776,-2.582137,3.321618,1004.50354,5.654606616722653,1004.4892903328932,0,0
4.619999999999999,8.971194,-2.5535367,3.3973649,1004.4884,5.6550518306471895,1004.4898636309372,0,0
4.64,8.880342500000003,-2.6012015,3.4683776,1004.50104,5.6556266441678105,1004.4904104320177,0,0
4.659999999999998,8.789488,-2.6679322999999995,3.5488591,1004.51355,5.656241315927256,1004.4909768878972,0,0
4.68,8.710306,-2.6298509,3.4354233999999995,1004.48566,5.656636292291019,1004.4914582675156,0,0
4.699999999999998,8.624316,-2.7966816000000003,3.5632565,1004.52356,5.656868754721925,1004.4919991807836,0,0
4.72,8.6865015,-2.7966826,3.6200736,1004.4805,5.657114548869215,1004.4924357346963,0,0
4.739999999999998,8.715227,-2.7680845,3.4070299,1004.4834,5.657248462502087,1004.4927889450888,0,0
4.76,8.763072,-2.7680857000000003,3.47805,1004.50073,5.6574236817607435,1004.4931296295892,0,0
4.7799999999999985,8.758336,-2.7442536,3.4685855,1004.5005,5.657605122264247,1004.4934571917473,0,0
4.8,8.7536,-2.6107914,3.5301366,1004.49756,5.657752513585618,1004.4937613957795,0,0
4.8199999999999985,8.830127000000003,-2.6727579,3.3739057,1004.48816,5.6579322691882945,1004.4940100254379,0,0
4.84,8.729797999999999,-2.6727588,3.5727553,1004.51807,5.658099689188588,1004.4943163305123,0,0
4.8599999999999985,8.696383,-2.7156591,3.520681,1004.5056,5.658179087481144,1004.4946276028863,0,0
4.88,8.734669,-2.7728586,3.3833873,1004.4956,5.658183979626174,1004.4949061437856,0,0
4.9,8.615219,-2.9539892999999995,3.4449387,1004.5005,5.658057506571268,1004.4951724004063,0,0
4.92,8.648719999999999,-2.9921227000000004,3.3881297,1004.49554,5.657859862614021,1004.4954089881153,0,0
4.94,8.629650999999999,-3.0397894,3.3549936,1004.5026,5.6575717606551965,1004.4956439246575,0,0
4.96,8.648816,-3.1494215,3.4307482000000005,1004.4952,5.657366612900495,1004.4958499164577,0,0
4.98,8.863953,-3.168489,3.203501,1004.4926,5.657485814285443,1004.4960202311129,0,0
5.0,8.768403,-3.082692,3.236646,1004.52026,5.65768027726112,1004.4962579843103,0,0
5.02,8.911844,-2.7824,3.0898836,1004.5027,5.657924309115084,1004.4964912542916,0,0
5.039999999999999,8.873652,-2.7585683,3.288733,1004.51013,5.6582595058364475,1004.496746471132,0,0
5.06,8.692063000000001,-2.968298,3.4023626000000005,1004.50226,5.658544136952139,1004.4969918294361,0,0
5.079999999999999,8.811605,-2.9587662,3.530196,1004.50757,5.659090776691296,1004.4972467094476,0,0
5.1,8.78775,-2.9444673,3.5396687999999994,1004.50726,5.659821205132286,1004.4975079692717,0,0
5.119999999999999,8.826039999999997,-3.0302665,3.5160012000000003,1004.50726,5.6608179784538,1004.4977739257628,0,0
5.14,8.91212,-2.8825045,3.2130034,1004.52277,5.661901595426264,1004.4980989107856,0,0
5.159999999999998,8.916943,-2.8872721,3.231945,1004.52277,5.663082754512169,1004.498474883473,0,0
5.18,8.728814999999999,-3.077892,3.231788,1004.49976,5.66411567690382,1004.4988117193593,0,0
5.199999999999998,8.704892999999998,-3.120791,3.3596148,1004.5394,5.665087062278419,1004.4992554653584,0,0
5.22,8.704869,-3.034992,3.2601902000000003,1004.5094,5.665874838415961,1004.499684079648,0,0
5.239999999999998,8.728744500000001,-2.9682596,3.3454072,1004.5122,5.666558935004892,1004.5001078605476,0,0
5.26,8.56143,-2.9777923,3.3454053,1004.5269,5.666846184130239,1004.5005787650523,0,0
5.2799999999999985,8.570966,-2.9396594,3.283856,1004.5171,5.6667310967054005,1004.5010543327188,0,0
5.3,8.604397,-3.0302231,3.3359318,1004.4945,5.666417689848722,1004.501450948711,0,0
5.3199999999999985,8.656953,-3.0063896,3.3075235,1004.5523,5.665991558573041,1004.5019844551863,0,0
5.34,8.661703999999999,-2.9301243,3.3406615,1004.53217,5.665451334424723,1004.5025645294687,0,0
5.3599999999999985,8.695145,-2.8347924,3.236503,1004.5269,5.664742282846482,1004.5031646907993,0,0
5.38,8.900651,-2.6917953,3.20336,1004.5317,5.66416452962463,1004.5037977204636,0,0
5.4,8.752456,-2.7203941,3.2128265,1004.5241,5.663449618922867,1004.5044301536816,0,0
5.42,8.74287,-2.8157246,3.3595907999999994,1004.4992,5.662757334959822,1004.5049701431196,0,0
5.44,8.809764,-2.7918913,3.3264482,1004.5366,5.662174368322932,1004.505561145272,0,0
5.46,8.690247,-2.8347898,3.2317579,1004.5066,5.6614269314764325,1004.5060870946504,0,0
5.48,8.733242,-2.8538554,3.2648964,1004.56714,5.660651532064931,1004.5067716139813,0,0
5.5,8.723657000000001,-2.9634855,3.3169727,1004.519,5.659940702945397,1004.5074204774508,0,0
5.52,8.666277000000001,-3.058816,3.2128136,1004.53674,5.6591719966232645,1004.508099363494,0,0
5.539999999999999,8.809646,-2.7775886,3.0518415,1004.5317,5.658339509697572,1004.5087841894932,0,0
5.56,8.728366000000001,-2.949184,2.9997609,1004.50146,5.657372529052057,1004.509362934664,0,0
5.579999999999999,8.790481,-2.9682496,3.2033384,1004.5138,5.65655273968859,1004.509890287332,0,0
5.6,8.828695,-2.9110506000000003,3.1796641,1004.50616,5.655885632268412,1004.510342827115,0,0
5.619999999999999,8.776093,-3.006381,3.0613017000000005,1004.5464,5.655239083956424,1004.5108724970897,0,0
5.64,8.881226,-2.8919833,3.1370504,1004.536,5.6547879267067325,1004.5114309724896,0,0
5.6599999999999975,8.761700999999999,-2.9777803,3.0518281000000003,1004.5338,5.654284859128827,1004.5120049698525,0,0
5.68,8.838003,-2.9158108,3.2175164,1004.4984,5.653951660465325,1004.5124631760305,0,0
5.6999999999999975,8.775833,-3.058807,3.2743263,1004.51843,5.653783271948992,1004.5128895275757,0,0
5.72,8.775803999999999,-3.0731058,3.3358707,1004.511,5.653813149707732,1004.5132594495018,0,0
5.7399999999999975,8.737535000000001,-3.0778716,3.2269766,1004.53314,5.653875004252146,1004.5136578824976,0,0
5.76,8.651469,-2.9491737,3.155958,1004.55865,5.6536740731492054,1004.5141719095154,0,0
5.7799999999999985,8.737474,-3.0826366000000003,3.0139232,1004.5682,5.653394152637656,1004.5148206049142,0,0
5.8,8.70877,-3.073103,3.2080314,1004.5504,5.653114472953202,1004.515521877991,0,0
5.8199999999999985,8.880805,-2.8681400000000004,3.2316997000000005,1004.5053,5.653043377493968,1004.5161047241207,0,0
5.84,8.660907,-3.0206692000000004,3.084931,1004.543,5.652743751221937,1004.5167165499544,0,0
5.8599999999999985,8.627415,-3.0349681,3.1748812,1004.518,5.6522508581542334,1004.5172617796808,0,0
5.88,8.737319,-3.1016994,3.1654098,1004.5353,5.651829905479986,1004.5178084822604,0,0
5.9,8.794647,-3.0683322,3.2600954,1004.53265,5.651622804395315,1004.5183449781237,0,0
5.92,8.8758745,-2.882436,3.2174828,1004.5124,5.651610997145224,1004.5187976239473,0,0
5.94,8.794585000000001,-2.9634666000000003,3.113323,1004.5652,5.6516003008766535,1004.5193646303503,0,0
5.96,8.847133,-2.9586995,3.1653986,1004.5652,5.651720346460607,1004.5200306445391,0,0
5.98,8.813647,-2.987298,3.1038487,1004.5375,5.651870150012685,1004.5206820243559,0,0
6.0,8.813617,-3.0254297,3.1133149,1004.5377,5.652076152457135,1004.5213188482744,0,0
6.02,8.770574,-3.0158958,3.1227815,1004.5425,5.652251005789408,1004.5219577980348,0,0
6.039999999999999,8.789663000000001,-3.011129,3.0991068,1004.5624,5.652414602712795,1004.5226679659703,0,0
6.06,8.789629,-3.073093,3.12751,1004.5444,5.652626283851989,1004.5233737056807,0,0
6.079999999999999,8.760917999999998,-2.9920611,3.2742736,1004.5168,5.652873783957577,1004.5239736319484,0,0
6.1,8.717869,-2.9872935000000003,3.279005,1004.52686,5.653072520377942,1004.5245141177234,0,0
6.119999999999999,8.713061999999999,-3.073091,3.212721,1004.5143,5.653228078230207,1004.5249549201303,0,0
6.14,8.756048,-3.0587904,3.1369677000000005,1004.53186,5.653364274448942,1004.5253692714247,0,0
6.1599999999999975,8.727339,-3.1255214,3.160637,1004.5216,5.653489220194269,1004.5257218228512,0,0
6.18,8.806013,-3.1112757,3.1087594,1004.5518,5.653705947577318,1004.5261272187294,0,0
6.1999999999999975,8.834743,-2.98258,3.1182332,1004.55164,5.6539799175271925,1004.52657727254,0,0
6.22,8.700967,-3.0636127,3.1655822,1004.5342,5.654138095122665,1004.5270023819058,0,0
6.2399999999999975,8.739264,-3.0636141,3.2081974,1004.5391,5.654293259425206,1004.5274215599666,0,0
6.26,8.791885,-3.0254830000000004,3.1750605,1004.5291,5.654495910006789,1004.5277979880851,0,0
6.2799999999999985,8.705919999999999,-3.0493174,3.1750672000000004,1004.5338,5.654595495184883,1004.5281522072138,0,0
6.3,8.820681,-3.0111861,3.1513994,1004.51117,5.654776610981956,1004.5284040592898,0,0
6.3199999999999985,8.758613,-3.0493202,3.0519829,1004.5589,5.654872537124647,1004.5287363811708,0,0
6.34,8.816025,-3.0207222,3.1561449,1004.5385,5.6550499861429095,1004.5290651698123,0,0
6.3599999999999985,8.696591,-3.144654,3.1561506,1004.5286,5.655158134541148,1004.5293540128447,0,0
6.38,8.763567,-3.0493245,3.1088119,1004.55365,5.65523466831611,1004.5296967001022,0,0
6.4,8.854442,-2.9873607000000004,3.127755,1004.54114,5.6554253416249605,1004.5300406944424,0,0
6.42,8.735002,-2.9921286,3.094619,1004.5559,5.655474461373007,1004.5304377413413,0,0
6.44,8.86411,-2.9825969,3.0898898,1004.54083,5.655630283821449,1004.5308259841124,0,0
6.46,8.778137,-2.9825983,3.1656458,1004.536,5.655769499705912,1004.531187661882,0,0
6.48,8.802086,-2.9301674,3.1609159,1004.5076,5.655902141476594,1004.5314223247767,0,0
6.5,8.869059,-2.9158692000000004,3.194062,1004.54065,5.656166991220197,1004.5316628925412,0,0
6.52,8.744845,-2.94447,3.2745526000000003,1004.5307,5.656389153334062,1004.5318719918048,0,0
6.539999999999999,8.764027,-2.9826040000000003,3.2082765,1004.5405,5.656586826134236,1004.5320878127434,0,0
6.56,8.8071,-2.9397063,3.0662494,1004.5534,5.656720913858348,1004.5323552359987,0,0
6.579999999999999,8.897975,-2.8539097,3.1609428,1004.5657,5.6569783830718,1004.5327115723379,0,0
6.6,8.835894999999997,-2.91111,3.1372764,1004.55054,5.657246770931885,1004.5330906134668,0,0
6.619999999999999,8.7690325,-2.977843,3.075734,1004.52515,5.65739999061754,1004.5333969479994,0,0
6.64,8.749972,-3.0588758,3.250912,1004.52246,5.6575850165973005,1004.53362825218,0,0
6.6599999999999975,8.740466,-2.9492464,3.1325572,1004.52496,5.657629582344573,1004.533801426846,0,0
6.68,8.811145,-2.834824,3.2129486000000003,1004.52747,5.657665696595793,1004.533931650844,0,0
6.6999999999999975,8.811159,-2.925389,3.2176843,1004.5652,5.6577527185174326,1004.5341592828256,0,0
6.72,8.710799,-2.9778216,3.1372008,1004.5246,5.6576759999157336,1004.5343260050267,0,0
6.7399999999999975,8.801629,-2.9778218,3.1514056,1004.535,5.657633600999935,1004.5344757471454,0,0
6.76,8.839884,-2.9396899,3.141938,1004.5175,5.65766290880031,1004.5345469465916,0,0
6.7799999999999985,8.878138,-2.9063246,3.1372051,1004.5372,5.6578033008116515,1004.5346194094146,0,0
6.8,8.897271,-2.8967915,3.0993314,1004.5243,5.6580464633513445,1004.5346462876912,0,0
6.8199999999999985,8.768231,-2.9682903,3.0851295,1004.5171,5.658173133374268,1004.5346068707004,0,0
6.84,8.730007,-3.0016565,3.1656156,1004.5246,5.658199975792371,1004.534536017113,0,0
6.8599999999999985,8.7587,-3.0350225,3.2034922000000003,1004.5041,5.658238838027162,1004.5343638412216,0,0
6.88,8.749158,-3.0731556,3.1892905,1004.5316,5.658285539836433,1004.5342017567757,0,0
6.9,8.768290499999999,-3.0350235,3.089869,1004.5442,5.658283600792644,1004.5340945326344,0,0
6.92,8.854341999999997,-3.0016580000000004,3.0851362,1004.52936,5.6583748697634135,1004.5339827450662,0,0
6.94,8.730082000000001,-3.0397909,3.2129662,1004.5188,5.658426460571,1004.5338293116884,0,0
6.96,8.777896,-2.9301603,3.1892958,1004.5213,5.658446107495228,1004.5336486324338,0,0
6.98,8.77791,-3.035025,3.0425305,1004.5288,5.658406769056906,1004.5334715291676,0,0
7.0,8.849622,-3.1494226000000003,3.208236,1004.5188,5.658632755546849,1004.5332622232164,0,0
7.02,8.596308,-3.1684895,3.1703622000000005,1004.5112,5.658611396122651,1004.5329978564747,0,0
7.039999999999999,8.67758,-3.101758,3.0662067000000004,1004.5163,5.6584075323665335,1004.5327041497383,0,0
7.06,8.730171,-3.1065247000000005,3.113552,1004.51117,5.658175146340357,1004.532367107527,0,0
7.079999999999999,8.711069,-3.0493264,3.1277566,1004.51605,5.657854869792597,1004.5320105554416,0,0
7.1,8.677624,-3.1637242000000003,3.1987739,1004.50867,5.6575196841736215,1004.5316114800199,0,0
7.119999999999999,8.883172,-2.9587630000000003,3.0662124,1004.5236,5.657333944736463,1004.5312300156488,0,0
7.14,8.78759,-3.054094,3.1372297,1004.5231,5.657209574538193,1004.5308636856745,0,0
7.1599999999999975,8.782825,-3.0540946,3.0946217000000003,1004.521,5.657102876535529,1004.5305044872406,0,0
7.18,8.763626,-3.049326,3.0520043,1004.5057,5.656945480954152,1004.5300978033504,0,0
7.1999999999999975,8.744518,-3.1017585,3.2035065,1004.5057,5.656843162324775,1004.5296506253728,0,0
7.22,8.687172,-3.1351247000000004,3.208242,1004.5284,5.656709130324923,1004.5292509966606,0,0
7.239999999999997,8.7875595,-2.9873617,3.2035084,1004.50323,5.656634450915939,1004.5288042091423,0,0
7.26,8.711093,-3.0159612,3.184572,1004.48254,5.656475773027745,1004.5282428765383,0,0
7.2799999999999985,8.735003,-3.0683935,3.1040878,1004.5177,5.656267939819814,1004.527708928694,0,0
7.3,8.754134,-3.1494253,3.184574,1004.52026,5.656160018834107,1004.5272103162357,0,0
7.3199999999999985,8.735026,-3.082694,3.0236053,1004.51294,5.655955043144636,1004.5267183691286,0,0
7.34,8.711138,-3.1446593,2.9478557,1004.5098,5.655613446214111,1004.5262227785361,0,0
7.3599999999999985,8.878442999999997,-3.1255934,3.1561706000000003,1004.52264,5.655585558601898,1004.5257719766856,0,0
7.38,8.672922999999999,-3.2161582,3.2508597000000004,1004.5398,5.655579412010432,1004.5254241490547,0,0
7.399999999999999,8.816326,-3.135127,3.0851567,1004.51013,5.655692254571228,1004.5250617496234,0,0
7.42,8.921494500000003,-2.8253012,2.9810007,1004.53015,5.655845063323513,1004.5247598511872,0,0
7.439999999999999,8.711195,-3.1255944,2.9667985,1004.51733,5.6558193047076255,1004.5244663462648,0,0
7.46,8.778122999999999,-3.0397967999999995,3.0946283,1004.5351,5.655786745714072,1004.5242452864686,0,0
7.479999999999999,8.773354,-3.1446612000000003,3.0378168,1004.52484,5.65577125361958,1004.5240520990017,0,0
7.5,8.725567,-3.096996,3.0709584,1004.5322,5.655671926202634,1004.5239107309993,0,0
7.52,8.897653,-2.9635324,3.052022,1004.5323,5.655722213583925,1004.5238160196006,0,0
7.539999999999999,8.682571000000001,-3.1398954,2.9052565,1004.52484,5.655523842397818,1004.5237360189384,0,0
7.56,8.768619000000001,-3.0874636000000004,3.0946336,1004.5019,5.655353124924568,1004.5235867206852,0,0
7.579999999999999,8.821209,-3.0350318,3.0567596000000004,1004.5094,5.655246775949893,1004.523403728554,0,0
7.6,8.81644,-3.035032,3.1561828,1004.5448,5.655254096023195,1004.523319063284,0,0
7.619999999999999,8.892928,-2.8872693,3.0425582,1004.5348,5.655338074133304,1004.5232855844237,0,0
7.64,8.806903,-3.0112002,2.9952154,1004.5119,5.655375284114947,1004.5232150143988,0,0
7.659999999999997,8.720879,-3.0683987,3.0993732999999994,1004.5374,5.6553151296272075,1004.5232037246733,0,0
7.68,8.677332,-3.144651,3.0188398,1004.5143,5.655086219917787,1004.5231616956623,0,0
7.699999999999997,8.820717,-3.0159535,3.146668,1004.527,5.654975265625406,1004.5231383767244,0,0
7.72,8.806367999999997,-3.0540857000000003,3.0235727000000003,1004.5245,5.654886276209693,1004.5231226739543,0,0
7.739999999999997,8.720321,-3.0779183,3.0235717,1004.5043,5.6546720555020356,1004.5230410373604,0,0
7.76,8.801566000000003,-3.0922177000000004,3.0803838,1004.5316,5.654545508937634,1004.5229997155316,0,0
7.7799999999999985,8.806337,-3.054085,3.1135237,1004.52136,5.654502693114599,1004.5229573005878,0,0
7.8,8.772869,-3.0207186000000004,3.0093658,1004.514,5.654382357894387,1004.5228875764614,0,0
7.8199999999999985,8.768078,-2.9921196,3.1087873,1004.5037,5.654231457245598,1004.522756892948,0,0
7.84,8.662912,-3.1494153,3.066177,1004.5191,5.653933540146266,1004.5226282561807,0,0
7.8599999999999985,8.72982,-3.1541817,3.1229885,1004.52893,5.6536714448839565,1004.5225372790112,0,0
7.88,8.820627,-2.9921186,3.009362,1004.5415,5.653431417875294,1004.5225251573796,0,0
7.899999999999999,8.811057,-2.977819,3.0756428,1004.521,5.653227590540666,1004.5225089561394,0,0
7.92,8.787147500000001,-3.0588498,3.0046258,1004.5059,5.653017893241928,1004.5224348484816,0,0
7.939999999999999,8.806257,-3.0302505,3.0567033,1004.5109,5.6528544766579065,1004.5223278415004,0,0
7.96,8.97354,-2.9253857000000005,3.0803745,1004.5311,5.652995375849335,1004.5222648699023,0,0
7.979999999999999,8.806237,-3.0397828,3.0093575,1004.5359,5.6531174597923055,1004.5222583146667,0,0
8.0,8.858805,-2.9492183,2.9667468,1004.5234,5.653236441538971,1004.5222566325276,0,0
8.02,8.701061,-3.0826817,3.0756373,1004.51825,5.653213137844246,1004.5222407223127,0,0
8.04,8.715391,-3.1112804,3.094574,1004.5107,5.653122168105388,1004.5221851174465,0,0
8.059999999999999,8.74884,-3.068381,3.231871,1004.53326,5.653097832975719,1004.5221758545636,0,0
8.08,8.782289,-3.0207155,3.1087754000000003,1004.5007,5.653081133771715,1004.522090356804,0,0
8.1,8.858756,-2.9539833,3.0093522,1004.51074,5.653107496348631,1004.5219739496988,0,0
8.12,8.810946000000003,-2.9968822,3.0188198,1004.51794,5.6531153386739,1004.5218565701622,0,0
8.139999999999999,8.777478,-3.08268,3.0566943,1004.50256,5.65312410178124,1004.5216833859507,0,0
8.16,8.806148,-3.1065123,3.1040373,1004.51794,5.653233510410763,1004.5215168841924,0,0
8.18,8.8167715,-2.9921412,2.9999778,1004.50793,5.6533101240209405,1004.5213208504554,0,0
8.2,8.807245,-3.001675,3.0141845000000003,1004.53546,5.653354795070037,1004.5211985359836,0,0
8.219999999999999,8.764258,-3.0684078,2.9715774,1004.52277,5.653306663116631,1004.521096116187,0,0
8.24,8.692594,-3.211405,3.0425963,1004.5428,5.653184599221857,1004.5210837520365,0,0
8.26,8.812123,-3.0445766,3.1088812000000003,1004.52026,5.653152236569885,1004.5210698615656,0,0
8.28,8.726116000000001,-3.0874763,3.0236647,1004.525,5.653011440217898,1004.5210717364439,0,0
8.299999999999999,8.745268,-3.049345,3.052074,1004.5275,5.652804476243657,1004.5210965348352,0,0
8.32,8.826558,-3.0302794,3.0047330000000003,1004.5451,5.652648814822459,1004.5212048591684,0,0
8.34,8.831369,-2.9587817000000003,3.1136272000000003,1004.5046,5.652573254313321,1004.521240797056,0,0
8.36,8.860082,-2.7776535,3.0426142000000005,1004.5299,5.652466024039618,1004.521303724904,0,0
8.379999999999999,8.797977000000003,-2.9015846,3.0189452,1004.4971,5.652274077358004,1004.5212721945413,0,0
8.4,8.707191,-3.0207493,3.0994332,1004.53265,5.6519662162910365,1004.5212852944119,0,0
8.42,8.826723,-2.9730847,3.1609836,1004.5145,5.651790346058184,1004.5212724423981,0,0
8.44,8.702478999999999,-3.0636501,3.1420486,1004.5346,5.651545933799951,1004.5213090655658,0,0
8.459999999999999,8.649931,-3.1399155,3.0047538,1004.5171,5.651104608025775,1004.5213262731608,0,0
8.48,8.669085,-3.1208503,2.9384754,1004.50684,5.650471379386366,1004.5212893272084,0,0
8.5,8.616541,-3.0398195,2.9290093999999995,1004.5321,5.649513032768178,1004.5212956001868,0,0
8.52,8.678709,-3.187584,3.0521069,1004.5194,5.6485645637341175,1004.52129431883,0,0
8.54,8.803018,-2.8777583,3.1041882000000003,1004.5294,5.647693728135858,1004.5213223670752,0,0
8.559999999999999,8.721795,-3.2352507,3.1041913,1004.53955,5.6469755300792,1004.5214127699833,0,0
8.58,8.803083,-3.0112233,3.0331783,1004.5244,5.6463512243771055,1004.5215034040207,0,0
8.6,8.626261999999999,-3.2352524,3.0331812,1004.5268,5.6456326637055,1004.521602556002,0,0
8.62,8.975219000000003,-2.892061,2.8296046,1004.51166,5.645136041886063,1004.5216543734912,0,0
8.639999999999999,8.917895,-2.9826264,3.113672,1004.52625,5.644963030272107,1004.5217167036797,0,0
8.66,8.655038000000001,-3.0350595,3.1089406000000004,1004.53674,5.644616849420128,1004.521825862501,0,0
8.68,8.827047,-2.882528,2.6970417,1004.5014,5.644088078673617,1004.5218487821306,0,0
8.7,8.860534,-3.0779574,3.2272973,1004.5193,5.643919627382119,1004.5218598582995,0,0
8.719999999999999,8.898805,-2.9683273,3.0663307,1004.5034,5.643965522584892,1004.5218031897127,0,0
8.74,8.994428,-2.9206626,2.9858482000000004,1004.52374,5.644299730046879,1004.5217600898663,0,0
8.76,8.707667,-2.9158967,3.009523,1004.521,5.64436075512122,1004.5217192705188,0,0
8.78,9.0040455,-2.6871026,2.981119,1004.5083,5.644584474037132,1004.521634893169,0,0
8.799999999999997,8.774642,-2.9826298,2.843824,1004.52606,5.6446106904541695,1004.5215762677277,0,0
8.82,8.841589,-3.2495577,3.2746575,1004.5381,5.6450413285115495,1004.5215839517236,0,0
8.84,8.659986,-3.449754,3.189441,1004.5084,5.6455774052168275,1004.5215432790762,0,0
8.86,8.688692,-3.0922627,3.255725,1004.5387,5.646055075044156,1004.5215691049203,0,0
8.879999999999997,8.856013,-2.882535,3.2746654,1004.49835,5.646670441367633,1004.5215083358586,0,0
8.9,8.889499,-2.901602,3.2083862,1004.51556,5.647434170420032,1004.5214332263063,0,0
8.92,8.793933,-3.0588992000000004,3.19892,1004.51794,5.6482406007220245,1004.5213542838916,0,0
8.94,8.875216,-3.1589973,3.1752503,1004.51843,5.649282256349848,1004.5212740029517,0,0
8.959999999999997,8.712734,-3.3115282,2.9953458,1004.5154,5.65021401154199,1004.5211819203024,0,0
8.98,8.631506,-3.3258282999999995,2.7775657,1004.513,5.650770524445822,1004.5210711011607,0,0
9.0,8.722352,-3.1780658,2.9243352,1004.4851,5.651149143195924,1004.5208436854027,0,0
9.02,8.741498,-3.1113346,3.1657925,1004.53284,5.6515165748881016,1004.5206859275715,0,0
9.04,8.669829,-3.220966,3.1231852000000004,1004.4928,5.651785522075808,1004.5204461434128,0,0
9.06,8.7080965,-3.068437,3.2273445,1004.5129,5.652005529601631,1004.5202071040138,0,0
9.08,8.684229,-3.1733022,3.071112,1004.5377,5.652102231975921,1004.5200588632263,0,0
9.1,8.770292,-3.0207727,3.0758490000000003,1004.5152,5.652152101835022,1004.5199103857589,0,0
9.12,8.741642,-3.0446067,3.0947892999999995,1004.5227,5.6521348431180085,1004.5197892336803,0,0
9.14,8.660414,-3.1923702,3.132667,1004.5054,5.652031049889152,1004.5196303824617,0,0
9.16,8.655663,-3.2209704,3.1184666,1004.5122,5.6518524889067985,1004.5194632721484,0,0
9.18,8.674622,-3.1447015,3.123186,1004.5174,5.65159491043717,1004.5193081856958,0,0
9.2,8.8323765,-3.049371,3.2036734,1004.54224,5.651552418124702,1004.5192537058375,0,0
9.22,8.741582000000001,-3.111337,3.0900495,1004.5452,5.65149617240642,1004.5192989740942,0,0
9.24,8.717704,-3.1351702,3.037973,1004.5023,5.651365488765579,1004.5192777768187,0,0
9.26,8.779863,-3.1876028,3.0474436000000003,1004.49713,5.651326307161658,1004.5191793149098,0,0
9.28,8.679507000000001,-3.1590037,3.0805867,1004.5249,5.651184244754912,1004.5191129084333,0,0
9.3,8.784684,-3.1113389,3.2983708,1004.54974,5.651261842398482,1004.5191644892004,0,0
9.32,8.842065,-3.1828380000000003,2.9054174,1004.5247,5.6514303599686535,1004.5192299938047,0,0
9.34,8.861203,-2.9635766,3.05692,1004.53705,5.651667452411085,1004.5193520256958,0,0
9.36,8.741729,-3.0493753,3.1894855,1004.52936,5.6518838784107945,1004.5194958817821,0,0
9.38,8.717853,-3.2162051,3.1563466,1004.54193,5.652125590752098,1004.5197037558456,0,0
9.4,8.756113000000001,-3.0827422,3.127942,1004.52936,5.6523516121465445,1004.5199221958467,0,0
9.42,8.846949,-3.0541432,2.9953809,1004.51935,5.652627754670746,1004.5201131495273,0,0
9.44,8.741814,-3.097043,3.2415717,1004.55194,5.652941919788892,1004.5203964528606,0,0
9.46,8.603222,-3.2686393,3.246308,1004.52405,5.6531526115341535,1004.5206599324556,0,0
9.48,8.593683,-3.182842,3.0853405,1004.52405,5.6530853190428445,1004.5209049472693,0,0
9.5,8.636723,-3.2162082,3.1042798,1004.5317,5.652887561557571,1004.5211603045482,0,0
9.52,8.636744,-3.321073,3.0995474,1004.519,5.652645274981872,1004.5213781611436,0,0
9.54,8.655886,-3.240042,3.142159,1004.539,5.652371470885763,1004.521634097851,0,0
9.56,8.665463,-3.259109,3.1090198,1004.52405,5.652079600061942,1004.5218689407733,0,0
9.58,8.694166000000001,-3.1733115,3.094819,1004.5465,5.6517577308898055,1004.5221651197928,0,0
9.6,8.761104,-3.1971445,3.1658368,1004.5464,5.651597592493838,1004.5225140691432,0,0
9.62,8.703768,-3.1733124,3.1279633,1004.5213,5.651433572426921,1004.5228180301403,0,0
9.64,8.756366,-3.2019124,3.1989815,1004.5289,5.651430791201088,1004.5231085051688,0,0
9.66,8.751609,-3.17808,3.1090298,1004.57135,5.651485680001169,1004.5235388382854,0,0
9.68,8.741091,-3.1399238,3.0521293,1004.5414,5.651509046800928,1004.5239833808093,0,0
9.7,8.784091,-3.1208572,3.232035,1004.5412,5.6516912101022,1004.5244381584123,0,0
9.72,8.712377,-3.187589,2.9669065,1004.51074,5.651750415998667,1004.5247906865325,0,0
9.74,8.750598,-3.125623,3.127875,1004.50354,5.651834473235134,1004.5250256779076,0,0
9.76,8.717122,-3.197121,3.0710604,1004.5406,5.651888726421008,1004.5252893838465,0,0
9.78,8.683646000000001,-3.21142,3.0805278,1004.5161,5.651870423695088,1004.525489312632,0,0
9.8,8.573692999999999,-3.2924514,3.1231358,1004.54865,5.651669920427809,1004.5257493481813,0,0
9.82,8.640592999999999,-3.2543185,3.1136653,1004.55835,5.651399247647627,1004.5260964779393,0,0
9.84,8.640574,-3.263851,3.208352,1004.54584,5.651137861226867,1004.5264742784732,0,0
9.86,8.664456,-3.1828191,3.0663183,1004.54834,5.650779022974249,1004.5268868196221,0,0
9.88,8.755256,-3.0636551,3.071051,1004.5607,5.650427727691215,1004.5273730684306,0,0
9.9,8.803037,-3.1494522000000003,3.0379083,1004.5507,5.65020837576828,1004.5278866948317,0,0
9.92,8.788680000000001,-3.1113195,3.0710478,1004.53564,5.650075839777059,1004.528368447018,0,0
9.94,8.764766,-3.1256187,3.1231246,1004.5637,5.650019642659231,1004.5289213168406,0,0
9.96,8.783864999999999,-3.1017857,3.028435,1004.5282,5.649989157770151,1004.5294072358753,0,0
9.98,8.745609,-3.1875834,3.0994496,1004.57074,5.65001374767009,1004.5299853918852,0,0
10.0,8.697792,-3.1399171000000003,3.0757756,1004.5782,5.649950671599847,1004.5306698231246,0,0
10.02,8.692996,-3.0970178,3.0473678,1004.54565,5.649754307343875,1004.5313285152048,0,0
10.04,8.750338000000001,-3.0684178,3.0047565,1004.5353,5.649501312975349,1004.531924832872,0,0
10.06,8.721641,-3.0779507,3.0615678,1004.55786,5.649188722368617,1004.5325451057643,0,0
10.08,8.688165,-3.1208494,2.9195342,1004.545,5.648699791249036,1004.5331380165112,0,0
10.1,8.764625,-2.9826183,3.0378926,1004.54785,5.648184754173879,1004.5337148755876,1,1
10.12,8.774166000000001,-2.9730852000000003,2.9384685,1004.5724,5.647596856493174,1004.5343638547156,1,1
10.14,8.740688,-2.992151,2.8485131,1004.5726,5.6468402147932295,1004.535074942796,1,1
10.16,8.764572,-2.996917,2.9147933,1004.585,5.646026071147398,1004.5358829904302,1,1
10.18,8.742231,-3.0875196,2.891264,1004.55505,5.64516656814388,1004.5366659825536,1,1
10.2,8.809192,-3.0017228,2.9717526000000003,1004.56506,5.644390077220094,1004.5374600528568,1,1
10.22,8.818796,-3.0493896,2.8723345,1004.56757,5.643676613903655,1004.5382700891864,1,1
10.24,9.0673895,-2.9826589,2.8344631,1004.54456,5.643424838455497,1004.5390084809663,1,1
10.26,8.818893,-3.864473,2.1385107000000003,1004.59283,5.643386057186994,1004.5398546814116,1,1
10.28,8.039825,-4.8130193,1.4993695,1004.56506,5.6427593132584155,1004.5406931232716,1,1
10.3,7.466294299999999,-4.798721,2.1716592,1004.57245,5.640883010826433,1004.5415482952556,1,1
10.32,8.60871,-3.3496883,2.1763976,1004.5698,5.638643282011842,1004.5424056313576,1,1
10.34,9.254029,-2.6728382,2.9812505,1004.54706,5.637322478385888,1004.5431799292646,1,1
10.36,10.143116,-1.729061,2.4888763,1004.56464,5.6378639930125205,1004.54394135515,1,1
10.38,12.733815,0.89731055,3.8807955,1004.5522,5.645777522457671,1004.5446438821834,1,1
10.4,14.339876,3.0184274,4.2879586,1004.5573,5.664180265673393,1004.5453101970944,1,1
10.42,16.309196,4.777285,4.3021655,1004.55707,5.696486490259237,1004.5459412882403,1,1
10.44,17.246088,3.7429416,4.8892365,1004.56464,5.742586402903746,1004.5465662357393,1,1
10.46,14.56944,0.33961904,4.411065,1004.5593,5.794294327214677,1004.5471642809005,1,1
10.48,12.203483,-2.262922,2.967076,1004.56177,5.845647737525512,1004.5477452941935,1,1
10.5,10.846065,-3.4879284,2.1622314,1004.5492,5.8940820802147655,1004.5482639144805,1,1
10.52,9.445628,-4.970329,2.1622355,1004.55414,5.938295098971425,1004.5487433212736,1,1
10.54,7.3903539999999985,-6.671991,2.2995372000000005,1004.56433,5.97722291089784,1004.5492230371595,1,1
10.56,6.099853,-8.154391,2.3989642000000004,1004.5616,6.011846767547734,1004.5496914711827,1,1
10.58,3.5522606,-10.761699,0.21640724,1004.54926,6.044356869010298,1004.5501038261892,1,1
10.6,4.293178,-11.881841,-0.4511394,1004.5766,6.077598428666327,1004.5505635692987,1,1
10.62,8.136184,-11.119193,-0.010835834,1004.5338,6.113728410233687,1004.5509094494607,1,1
10.64,11.238322,-9.307902,1.0733469999999998,1004.5388,6.154055023935214,1004.551171475154,1,1
10.66,12.662749,-7.5109115000000015,1.257993,1004.5463,6.198245160957444,1004.5513854637455,1,1
10.68,14.267577,-7.058059,0.2683939,1004.5388,6.248067346694032,1004.551529236396,1,1
10.7,16.772192,-6.643369,0.9548822,1004.5538,6.307145065386415,1004.5516644486587,1,1
10.72,16.66703,-5.323032,3.4735851,1004.5685,6.373715775416187,1004.5518445301989,1,1
10.74,13.780026,-3.4354756,4.5104194,1004.5587,6.440563124408642,1004.5520283299388,1,1
10.76,12.6902275,-2.1199060000000003,4.5293565000000005,1004.5563,6.504793724881548,1004.5522061134017,1,1
10.78,11.949355,-0.98546535,3.9328215,1004.5584,6.564357584452878,1004.5523855008612,1,1
10.8,10.74006,0.9783562,4.4772778,1004.56085,6.6176266905894,1004.552574479817,1,1
10.82,10.128242,2.9326446,3.2131913,1004.5509,6.6637826692917415,1004.5527354334952,1,1
10.84,9.994404,2.9707773,2.3041852,1004.5509,6.702770593540474,1004.5528710446048,1,1
10.86,11.366203,3.2901363,2.2331688,1004.5384,6.73811855889273,1004.5529387748204,1,1
10.88,13.182525,2.4512224,3.6156144,1004.5234,6.773959231488888,1004.5528922816496,1,1
10.9,16.198576,-0.017853662,5.0122633,1004.5458,6.816484856808588,1004.5528256680701,1,1
10.92,18.301685,-0.9234995,5.1969056,1004.54596,6.869110917241535,1004.552742091906,1,1
10.94,18.61237,-2.734791,4.074851,1004.5257,6.9308897100022575,1004.5525708924763,1,1
10.96,19.176384,-6.915061,3.8570678,1004.55597,7.00364761396106,1004.5524318574478,1,1
10.98,20.61988,-9.1601095,5.2679205,1004.5408,7.090880820206933,1004.5522671314096,1,1
11.0,18.903929,-11.181129,5.192169,1004.5481,7.1893405463442575,1004.5521065778092,1,1
11.02,14.468266,-9.393671,3.1895158,1004.5856,7.2869196606212,1004.5520852889676,1,1
11.04,11.562141,-7.944637299999999,2.5361679,1004.58057,7.37653812028802,1004.552169023107,1,1
11.06,8.34055,-7.2201204,2.5503705,1004.5581,7.452702855537544,1004.5522643621092,1,1
11.08,5.625617,-6.3955064,2.488823,1004.57324,7.511616130190272,1004.5524241159484,1,1
11.1,3.4938214,-5.856885,1.347831,1004.5556,7.551078979326777,1004.552576707623,1,1
11.12,1.6631526,-7.7015424,1.5135348,1004.5557,7.575440231636469,1004.5527227814791,1,1
11.14,1.930818,-8.230630999999999,0.8365146000000001,1004.5305,7.587351518622893,1004.5527718503254,1,1
11.16,4.9086323,-8.526156,1.0164216,1004.5477,7.591119003264834,1004.5527969488963,1,1
11.18,8.437004,-9.889414,2.1101494,1004.5681,7.594492259100883,1004.552874216978,1,1
11.2,12.934833,-8.917036999999997,3.752991,1004.5577,7.6037053672495,1004.5529598638736,1,1
11.22,16.409779999999998,-7.282108999999997,3.7245872,1004.56824,7.622581896860533,1004.5530905499608,1,1
11.24,18.388649,-7.487071,3.5541515,1004.5581,7.653742550843487,1004.5532240582074,1,1
11.26,19.970797,-5.861676,3.289028,1004.5374,7.697518999324039,1004.5532850594847,1,1
11.28,17.700422,-4.6652713,2.6688235,1004.5653,7.746937088114885,1004.553382213999,1,1
11.3,15.712053,-2.8778126,3.9329123,1004.56995,7.7969056135135535,1004.5535277037576,1,1
11.32,13.781043,-2.8492142999999994,5.8882246,1004.53937,7.844695273942863,1004.5536052907744,1,1
11.34,12.638701,-0.9616583,4.761439,1004.5599,7.886823772451061,1004.553696507616,1,1
11.36,11.109196,0.906831,4.29747,1004.5928,7.9204850611253885,1004.5539178793897,1,1
11.38,10.56911,2.6895227000000004,3.1233406,1004.547,7.945293273065594,1004.5540885791232,1,1
11.4,11.310011,3.6476,3.0097177000000004,1004.5497,7.964090322739469,1004.5542236105227,1,1
11.42,13.040332,4.4769793,4.5531362999999985,1004.5699,7.982207512574881,1004.5543993592696,1,1
11.44,13.843374,1.5074141,6.1012897000000015,1004.537,8.001079154961216,1004.5544920131688,1,1
11.46,14.565152,-1.1713915,5.537899,1004.537,8.021429099689076,1004.5545109109066,1,1
11.48,15.076619,-2.067505,5.1118045,1004.50684,8.043899396184674,1004.5543559936689,1,1
11.5,15.927454999999998,-3.8311315,5.116542,1004.53687,8.070467031862217,1004.5541561592204,1,1
11.52,18.006704,-6.514704,6.224396,1004.54224,8.106738719249286,1004.553936687328,1,1
11.54,19.646208,-8.535725999999999,8.814117,1004.5369,8.157747343619251,1004.5536814298899,1,1
11.56,18.283993,-9.6654,9.069778,1004.56195,8.220388251310741,1004.55348565127,1,1
11.58,15.014641,-10.223088,6.0492315,1004.56683,8.285937208663302,1004.5533607009368,1,1
11.6,11.176488,-8.669189999999999,4.6999288,1004.55927,8.345006287586564,1004.5532715682988,1,1
11.62,7.0611076,-7.687281,4.1791472,1004.54944,8.390527110877818,1004.5531790170544,1,1
11.64,4.1502385,-6.772103,3.4831927000000005,1004.5467,8.418569612475594,1004.5530739143132,1,1
11.66,2.271808,-6.0046883,3.0760367000000004,1004.5313,8.427837568092919,1004.5529026594397,1,1
11.68,1.3774801,-7.601472,2.4226425,1004.5444,8.422514227324562,1004.5527207290593,1,1
11.7,1.9893047,-7.2773466,2.346893,1004.52686,8.403911288735896,1004.5524668767504,1,1
11.72,4.8046184,-8.492819,1.6272643,1004.53687,8.377780696996883,1004.5521864240942,1,1
11.74,8.69539,-10.790299,1.811907,1004.5292,8.35357987877698,1004.5518558650003,1,1
11.76,13.79067,-9.03144,1.5657188999999998,1004.5694,8.336540413683583,1004.5516269418712,1,1
11.78,17.557163,-6.800692,2.1906614,1004.5412,8.330870592318734,1004.5513871284033,1,1
11.8,18.603954,-6.767326,0.050711457,1004.53864,8.337016117244394,1004.551129339561,1,1
11.82,17.70536,-5.8759804,-0.631042,1004.54865,8.351228794452366,1004.5508926317177,1,1
11.84,16.218851,-5.2706275,0.8792339,1004.54596,8.369215338924121,1004.5506657191928,1,1
11.86,16.065908,-3.5403678,1.3337378999999998,1004.5565,8.389284792737401,1004.5504862226967,1,1
11.88,15.922523000000002,-1.5431806,2.1196501,1004.55597,8.410356751573245,1004.5503473611913,1,1
11.9,14.56507,1.5360148,3.2038295,1004.559,8.429859288044675,1004.5502558126643,1,1
11.92,13.226734,4.6438093,3.7624903,1004.55853,8.44691184850769,1004.5502047074608,1,1
11.94,12.022235,4.5437117,1.9350108,1004.5412,8.458584502079736,1004.550127133956,1,1
11.96,12.113062,4.2243514000000015,3.3979433,1004.5635,8.466030652958025,1004.5501067323247,1,1
11.98,12.634068,2.5322242000000004,5.376925,1004.5486,8.471152258736893,1004.5500832812073,1,1
12.0,14.923606,-0.7185679,7.7867380000000015,1004.5612,8.480199998679206,1004.5501025799872,1,1
12.02,14.675065,-1.2381228000000002,6.7877793,1004.55084,8.491370554719735,1004.5501222871013,1,1
12.04,14.694193,-4.0074925000000015,6.1296983,1004.55597,8.504796208984017,1004.5501607520738,1,1
12.06,19.16332,-5.933182,9.117108,1004.5386,8.531841488798394,1004.5501531210159,1,1
12.08,20.664188,-6.9198594,10.239163,1004.5657,8.575068539508404,1004.5502023469777,1,1
12.1,20.238796,-8.51189,11.181311,1004.5561,8.633605021283993,1004.5502670745883,1,1
12.12,17.968397,-9.841759,8.804641,1004.5403,8.700594470943619,1004.5502883864364,1,1
12.14,12.567233,-9.21734,5.755685,1004.54584,8.762995609970412,1004.5502912033943,1,1
12.16,8.155484,-8.774052000000001,4.581553,1004.56604,8.813243213093498,1004.550350388126,1,1
12.18,4.699156,-7.66343,3.9281573,1004.5202,8.846304503357777,1004.550294142358,1,1
12.2,2.2901227000000004,-6.934147,3.3174176,1004.523,8.8603415642144,1004.5501461846844,1,1
12.22,1.042583,-7.992322,3.4405112,1004.5356,8.859062355938065,1004.5499630830195,1,1
12.24,1.0234550999999998,-8.488044,1.5088732,1004.5456,8.84408389404296,1004.5497855872894,1,1
12.26,3.9008863,-8.211584,-0.10082534,1004.53815,8.817906758943709,1004.5495868639481,1,1
12.28,8.264835,-9.0552635,-0.8393934999999999,1004.5353,8.788573569242354,1004.5493598392934,1,1
12.3,12.580987,-9.960909,-0.49378312,1004.51526,8.764384406772232,1004.549036480887,1,1
12.32,17.02141,-7.992321,2.5741103,1004.5303,8.750907788340916,1004.5486833100681,1,1
12.34,18.847284,-6.0856980000000025,-0.04401693,1004.54285,8.748661535913902,1004.548350248416,1,1
12.36,19.067146,-5.380247,-0.9009449,1004.53503,8.756401949113645,1004.548008002246,1,1
12.38,17.4659,-5.1705184,1.5751475,1004.5451,8.769719112982617,1004.5476951247224,1,1
12.4,16.031945999999998,-4.6795626,4.1269903,1004.5578,8.785671564810865,1004.5474550436933,1,1
12.42,14.789187,-2.0007572,4.4631324,1004.5704,8.800514900334784,1004.5473255099383,1,1
12.44,13.890576,0.015496373,3.6204076,1004.56537,8.81178417717461,1004.5472760140767,1,1
12.46,12.222412,2.0746493000000004,2.4557428,1004.55536,8.81628713619395,1004.5472613818832,1,1
12.48,10.458652,2.8801978,2.4746792,1004.5854,8.811653684418815,1004.547385751902,1,1
12.5,10.267448,2.9898288,2.5030847,1004.56036,8.798665227804591,1004.5475423525436,1,1
12.52,11.577103,3.1661916000000003,3.431027,1004.55237,8.78145892263629,1004.5476981044015,1,1
12.54,12.65733,2.1938143,4.614627400000002,1004.55035,8.76301264692365,1004.5478452735672,1,1
12.56,14.072138,-1.6623298,5.8266339999999985,1004.5601,8.747011113937264,1004.5480194292574,1,1
12.58,15.171484,-3.2781925000000003,5.7792892,1004.56506,8.735807695865022,1004.5482346592796,1,1
12.6,15.290964,-3.8549454,6.0491486,1004.555,8.729564301946178,1004.548449191754,1,1
12.62,17.169418,-4.3792667000000005,6.5225887,1004.5678,8.731865669062037,1004.5487084155583,1,1
12.64,20.281057,-7.1772356,9.098103,1004.54254,8.751013723600229,1004.5489152594156,1,1
12.66,19.086096,-8.578603,7.8434854,1004.5601,8.782876817979295,1004.5491382917136,1,1
12.68,15.874881,-8.430860000000001,8.354875,1004.555,8.820611079850703,1004.5493564652023,1,1
12.7,12.8445015,-7.8922386,6.371161,1004.56036,8.856215879423631,1004.5495888560222,1,1
12.72,8.729118,-6.757799,2.995533,1004.54956,8.87956831391168,1004.5497940926688,1,1
12.74,6.167163,-6.052349,2.3137803,1004.55237,8.886828537753098,1004.5499847130363,1,1
12.76,4.303058999999998,-5.1085715,2.1670158,1004.54736,8.875846233087234,1004.5501436962261,1,1
12.78,3.6386847,-4.1552606,2.091267,1004.545,8.846464397818595,1004.5502656564661,1,1
12.8,2.5441353,-4.579485,1.2816861000000002,1004.54987,8.799864973031706,1004.5503719961708,1,1
12.82,2.6493084,-5.4755980000000015,1.7172529,1004.53705,8.740147324766003,1004.5504179987475,1,1
12.84,4.3079205,-6.309746,1.8734901,1004.5424,8.672266390098441,1004.5504297818293,1,1
12.86,7.945378,-7.720647,1.6746476000000003,1004.545,8.60435485016704,1004.5504206461453,1,1
12.88,10.660322,-8.840788,2.2522464,1004.54456,8.54253584038775,1004.5503914755292,1,1
12.9,14.99085,-8.326001,4.0844635999999985,1004.5621,8.493797620783925,1004.5504078510606,1,1
12.92,17.911333,-7.2010937,3.2748823,1004.5196,8.460852188677249,1004.5503114122164,1,1
12.94,18.599638,-5.990389,2.4889724,1004.5292,8.442224856411231,1004.5501501977698,1,1
12.96,18.465832,-5.4756017,2.6499448,1004.5264,8.435783174773054,1004.5499222479724,1,1
12.98,17.949627,-4.8416495,3.5116076,1004.5264,8.439046728995423,1004.5496361514392,1,1
13.0,15.091332,-2.6347344,3.3743123999999995,1004.5592,8.444154266425883,1004.5494177863973,1,1
13.02,12.376427,-1.1142032,3.672582,1004.55176,8.445200666561668,1004.5492332710147,1,1
13.04,11.148037,-0.33248854,3.0618458,1004.5693,8.439761288003764,1004.5491424734473,1,1
13.06,9.900528,0.12510048,2.3753588,1004.54645,8.425735344045275,1004.5490525518125,1,1
13.08,8.7916355,1.0259793,2.820395,1004.5618,8.402317829477878,1004.5490189878693,1,1
13.1,9.398693,1.2071079,4.3117347000000015,1004.5621,8.373016094990229,1004.5490364224124,1,1
13.12,10.684482,1.0641106000000002,4.3969559999999985,1004.539,8.34109807863987,1004.5490156964543,1,1
13.14,11.908125,1.0545772,5.078711,1004.54425,8.309864076469795,1004.5489802264906,1,1
13.16,12.854549,-0.69474983,5.1734014,1004.55676,8.281186642624604,1004.5489768924153,1,1
13.18,13.88217,-3.3211217000000004,3.947187,1004.5768,8.256816202665737,1004.5490741096137,1,1
13.2,14.847709,-4.660525,4.5389895,1004.5415,8.239250647369921,1004.5491327439353,1,1
13.22,14.302825,-4.6176260000000005,4.662085,1004.55896,8.226775518946281,1004.5492199313437,1,1
13.24,14.212028,-4.9989514,3.8667068,1004.5537,8.218464202251985,1004.5493130983854,1,1
13.26,16.769245,-8.097214,5.2396865,1004.569,8.221741557840454,1004.5494662936287,1,1
13.28,17.443216,-9.083891,5.7462697,1004.5462,8.237624916574733,1004.5495898982887,1,1
13.3,15.086793,-8.621535,5.249159,1004.5562,8.259732269387701,1004.5497229117328,1,1
13.32,12.711249,-6.171526,4.33542,1004.5437,8.280251720300793,1004.5498187599294,1,1
13.34,9.953321,-5.3183126,2.806209,1004.5512,8.292743706630269,1004.5499084238603,1,1
13.36,7.902803,-5.2849474,2.6263037,1004.54065,8.294427995257777,1004.5499543205837,1,1
13.38,6.4879985,-5.094285500000002,2.4085226000000004,1004.5415,8.283917377924464,1004.5499644393744,1,1
13.4,4.4040230000000005,-4.9560556,1.4805809,1004.5362,8.258927871157846,1004.549923828356,1,1
13.42,2.8267074,-5.0418544,0.51002973,1004.511,8.219175575914115,1004.5497478186784,1,1
13.44,1.7847277,-6.123863,0.0034500621000000003,1004.5439,8.167719156135266,1004.5495712443795,1,1
13.46,1.5935509,-6.7721157000000005,0.30171898,1004.49567,8.107322084995054,1004.5492211788496,1,1
13.48,5.0493712,-7.210639,1.191789,1004.5261,8.04323209214682,1004.5488286247032,1,1
13.5,9.743159,-8.669205999999999,2.2712352000000005,1004.5261,7.985161059642388,1004.5483999408107,1,1
13.52,15.000962,-8.483311,3.1518362,1004.5257,7.94151631181692,1004.5479394359364,1,1
13.54,19.809464,-7.830292999999997,2.578975,1004.54596,7.918958758328817,1004.5475254078602,1,1
13.56,21.372478,-6.567156,3.3980289,1004.5385,7.917523908010134,1004.5471270811836,1,1
13.58,20.43565,-2.973172,4.851492,1004.54346,7.931843436991861,1004.54676191824,1,1
13.6,17.687282999999994,-0.11800505,8.582206,1004.5707,7.9568036860588744,1004.5465254373572,1,1
13.62,13.528876,-2.3106217,5.249186,1004.5433,7.980755665751323,1004.5463048712747,1,1
13.64,10.589315,-3.1257033,2.067668,1004.5707,7.996536134863978,1004.5461978015477,1,1
13.66,9.179291,-1.5432069,1.5752913999999998,1004.54834,8.001313869103269,1004.5461109066513,1,1
13.68,8.9966,-0.2943431,2.5031378,1004.56586,7.996149750285329,1004.5461052230568,1,1
13.7,9.254686,0.55887115,2.7209182000000003,1004.55817,7.982883836713886,1004.5461436342298,1,1
13.72,10.817657,0.6351366,2.7824633,1004.5783,7.965677130385027,1004.5462933372587,1,1
13.74,12.600502,0.020251364,3.7198734,1004.55286,7.949103942080914,1004.5464492548413,1,1
13.76,13.360466,0.06791758,2.981304,1004.5253,7.934295615297088,1004.5465108863001,1,1
13.78,12.538317,-0.44210356,1.3716042,1004.55084,7.918879481710426,1004.5465809286659,1,1
13.8,12.079432,-1.9102025,0.53834677,1004.56085,7.902193049116278,1004.5466941867572,1,1
13.82,13.274358,-4.0789857000000005,1.5231007,1004.55084,7.888037541624211,1004.5468091865345,1,1
13.84,13.714079000000002,-6.3430996,2.2711349,1004.54785,7.878891039515325,1004.5469145472659,1,1
13.86,11.902507,-8.330753,1.0780624,1004.55536,7.872724680783437,1004.5470380476384,1,1
13.88,10.105279,-6.6910567,1.0591228,1004.54034,7.864220584805924,1004.5471230595958,1,1
13.9,8.293711,-5.799710299999999,0.15484938,1004.5353,7.849432467979907,1004.547155613147,1,1
13.92,6.066294,-5.442218,-0.61212665,1004.53534,7.825094284265432,1004.5471418412574,1,1
13.94,5.4640164,-4.7748995,0.06962555,1004.53534,7.790501535427072,1004.5470871857872,1,1
13.96,5.5500300000000005,-4.7605987,0.94548833,1004.53033,7.747213922057152,1004.5469785663447,1,1
13.98,6.2000594000000016,-4.527037,1.3289728,1004.51996,7.697268478013282,1004.5467853233667,1,1
14.0,7.739132400000001,-3.6499898,1.3431737,1004.54034,7.643429002335695,1004.5465913707072,0,0
14.02,9.063115,-3.7024217,0.808184,1004.53784,7.58875785739267,1004.5463884892026,0,0
14.04,10.296279,-3.4211940000000003,1.02123,1004.5428,7.535781442520474,1004.5461963045441,0,0
14.06,11.21876,-2.6156454,1.7739981,1004.5425,7.486068043095093,1004.5460131834834,0,0
14.08,11.5867815,-2.1580553,2.5125635,1004.55786,7.440238719955348,1004.5458940262537,0,0
14.1,11.519841,-1.3334403,1.868682,1004.54755,7.397373403631217,1004.5457947004312,0,0
14.12,11.605851,-0.8663171999999999,2.3421204,1004.55,7.3575414538718045,1004.5457220752124,0,0
14.14,11.185207,-0.73761964,2.3563216,1004.56537,7.319666490488185,1004.5457286360986,0,0
14.16,10.343937,-1.3620378,2.2995064,1004.56494,7.282054877484201,1004.5458035942077,0,0
14.18,9.957922,-1.5908607,2.2285955000000004,1004.545,7.244071207600657,1004.5458669342537,0,0
14.2,9.77153,-1.895921,2.1575813,1004.55505,7.205599126650117,1004.5459559605548,0,0
14.22,9.661617,-1.9721863,1.9492695,1004.5525,7.166557037009556,1004.5460581827368,0,0
14.24,9.771578,-2.2009819,2.0771008,1004.542,7.1275214308737995,1004.5461338967987,0,0
14.26,9.74292,-2.7062376,2.2096663,1004.545,7.088883400285742,1004.5461967157154,0,0
14.28,9.728602,-2.9016669,1.7598996,1004.5495,7.050638329447183,1004.5462641143337,0,0
14.3,9.336682,-3.3735564,1.201242,1004.532,7.012247036323264,1004.5462723169412,0,0
14.32,9.088154,-3.6881495,0.955055,1004.55975,6.9735623777837885,1004.546328084424,0,0
14.34,8.801387,-3.821614,0.72780555,1004.5321,6.934276464468473,1004.546326139468,0,0
14.36,8.538521000000001,-3.8216145,0.7609484999999999,1004.542,6.894107709608747,1004.5463088468026,0,0
14.38,8.42861,-3.60712,1.1349686,1004.54755,6.852996665222872,1004.5462980351551,0,0
14.4,8.729759,-3.3878589,1.4143003,1004.5495,6.811683801110205,1004.5463000090567,0,0
14.42,8.954431,-3.0875661,1.6557571,1004.56226,6.770642981783204,1004.5463592091638,0,0
14.44,9.150428,-2.9922357,1.7883227,1004.54974,6.730357144684343,1004.5464236892253,0,0
14.46,9.255605,-2.7539084,1.9208878,1004.5445,6.69099543256734,1004.5464737385263,0,0
14.48,9.39902,-2.5441804,1.9019523,1004.5423,6.6527488393536025,1004.5465029366304,0,0
14.5,9.437282000000002,-2.4107175,1.7315158,1004.55975,6.6155665257408165,1004.546576425503,0,0
14.52,9.575917,-2.3964183,1.9066906000000003,1004.577,6.5797923748533345,1004.546750885139,0,0
14.54,9.623738,-2.3582861,1.7741294,1004.56244,6.545416976573688,1004.5469615184868,0,0
14.56,9.6142025,-2.444085,1.8782885,1004.54175,6.512464050004391,1004.5471288726468,0,0
14.58,9.442151,-2.5155838,1.6510391,1004.54456,6.480499543468209,1004.5472674988406,0,0
14.6,9.360919,-2.6347485,1.7125884999999998,1004.5545,6.449449239871307,1004.5474160259496,0,0
14.62,9.198426,-2.9541082000000003,1.7646689999999998,1004.552,6.419207719613622,1004.54756376681,0,0
14.64,9.064614,-3.0542061,1.7883431,1004.57495,6.389602797640404,1004.5477929010736,0,0
14.66,9.069417,-3.0208411,1.693657,1004.5321,6.360619340426464,1004.5479388696648,0,0
14.68,9.107423,-3.0446682000000003,1.6415572,1004.5696,6.332360047239777,1004.5481458275814,0,0
14.7,9.140895,-2.9684036,1.4900576,1004.54456,6.3048079578248855,1004.5483157866173,0,0
14.72,9.207824,-2.977937,1.6320908,1004.56213,6.278163771917898,1004.5485156935894,0,0
14.74,9.131361,-3.087568,1.6084199,1004.54926,6.252331348870444,1004.5486950108927,0,0
14.76,9.18395,-2.9255056,1.5894834999999998,1004.572,6.2273015523726825,1004.5489373536232,0,0
14.78,9.117045,-2.9445717,1.769392,1004.53174,6.2030169263403785,1004.5490895771867,0,0
14.8,9.284351,-2.8730743,1.6084235,1004.55707,6.1797029363647935,1004.5492528114496,0,0
14.82,9.270023,-2.7443774,1.6084245,1004.56433,6.1572259503237365,1004.549451323123,0,0
14.84,9.260478,-2.7682104,1.6699729,1004.56213,6.1355860237329685,1004.5496723712744,0,0
14.86,9.375204,-2.6919458,1.6936461,1004.5663,6.114953581751584,1004.5499275488844,0,0
14.88,9.246163,-2.8826084,1.6463032,1004.5416,6.095127755379792,1004.5501230446446,0,0
14.9,9.217497,-2.8635423,1.6699761999999998,1004.56177,6.076026666944742,1004.5503377137377,0,0
14.92,9.274866,-2.8444765,1.6557741999999998,1004.5413,6.057730491660607,1004.5504948595784,0,0
14.94,9.145824,-2.9350414,1.5326809,1004.5316,6.039972832691642,1004.5505656921492,0,0
14.96,9.30835,-2.9112089,1.6841830000000002,1004.54663,6.023109461196142,1004.5506141113167,0,0
14.98,9.217546,-2.7491462,1.6273712,1004.5438,6.00680216649233,1004.5506323636928,0,0
15.0,9.212779,-2.8683107000000003,1.6936542,1004.5668,5.99113014882008,1004.5507066949828,0,0
15.02,9.25581,-2.75868,1.6510456000000002,1004.5513,5.976079627452557,1004.5507745100084,0,0
15.04,9.346639,-2.7872798,1.6273746,1004.52625,5.9618193839142695,1004.5507461431292,0,0
15.06,9.169798,-2.8730779,1.6368446,1004.5464,5.9480168437285466,1004.5507054320396,0,0
15.08,9.208048,-2.8635452,1.7078618000000003,1004.5693,5.934762637182586,1004.5507364001654,0,0
15.1,9.260638,-2.8111134,1.603706,1004.5462,5.922075517097943,1004.5507474325607,0,0
15.12,9.217634,-2.8635457000000004,1.6889266,1004.55676,5.909912199499347,1004.550778826028,0,0
15.14,9.155508,-2.8587792000000003,1.6037084,1004.56177,5.89810120763109,1004.550846133522,0,0
15.16,9.19854,-2.825414,1.7173353,1004.55365,5.8867482452704385,1004.550915700343,0,0
15.18,9.112263,-2.7348433,1.774126,1004.5741,5.875639448184701,1004.5510606330647,0,0
15.2,9.222199,-2.7539098,1.783595,1004.5738,5.865016370130148,1004.5512705573387,0,0
15.22,9.298679,-2.6871781,1.7930642,1004.56616,5.854975823107207,1004.5515096484207,0,0
15.24,9.341701,-2.711010700000001,1.7646578999999998,1004.5588,5.845573535388036,1004.5517471545668,0,0
15.26,9.308245,-2.782509,1.7504548999999998,1004.54877,5.836739490561768,1004.5519462972404,0,0
15.28,9.193531,-2.6299796000000004,1.6036887,1004.55145,5.828073924518424,1004.552120473037,0,0
15.3,9.28913,-2.691945,1.6605017,1004.56366,5.8198315629291235,1004.552315917068,0,0
15.32,9.222215,-2.6585789,1.6178923,1004.5438,5.8118272612230495,1004.5524579541122,0,0
15.34,9.250897,-2.7729764,1.7078463,1004.56366,5.80421639478863,1004.5526237854097,0,0
15.36,9.203101,-2.7968092,1.7173153,1004.5258,5.796904464553332,1004.5526737483168,0,0
15.38,9.179204,-2.8540080000000003,1.7078466,1004.55615,5.789867197207356,1004.5527304100476,0,0
15.4,9.140969,-2.8683078,1.6652373,1004.5688,5.7830166438805195,1004.5528383268767,0,0
15.42,9.207888,-2.9255066000000003,1.7267848,1004.5684,5.776543813665178,1004.55298970421,0,0
15.44,9.25091,-2.877841,1.5989561,1004.5561,5.770437822217867,1004.5531346582866,0,0
15.46,9.250912,-2.7491438,1.5752841999999998,1004.5405,5.764593182484296,1004.5532172549388,0,0
15.48,9.279592999999998,-2.8063428,1.6463006000000002,1004.5511,5.759114762513272,1004.5532826152232,0,0
15.5,9.279596000000002,-2.8397086,1.61316,1004.5361,5.753988153937452,1004.5532785101552,0,0
15.52,9.227019,-2.9731724,1.7078483,1004.5609,5.749203243897807,1004.5533023202812,0,0
15.54,9.188785,-2.8540084,1.6415668999999995,1004.571,5.744565677696122,1004.5533870705548,0,0
15.56,9.140989,-3.0351377,1.8498808,1004.56323,5.740172496341301,1004.5534973904428,0,0
15.58,9.150551,-3.0065384,1.8120059,1004.5481,5.7359965919574725,1004.5535754384905,0,0
15.6,9.217471000000002,-2.9207404,1.693646,1004.5835,5.732060097209951,1004.5537521301666,0,0
15.62,9.169675,-2.9112072,1.6273645,1004.5582,5.728226718828013,1004.553924267263,0,0
15.64,9.217476,-2.9159740000000003,1.7031151999999998,1004.5405,5.7246213212914405,1004.5540280402392,0,0
15.66,9.255715,-2.873075,1.6368338,1004.5609,5.721255387282389,1004.5541444730964,0,0
15.68,9.323144,-2.9731853,1.7173655,1004.5684,5.718334862182245,1004.5542986730657,0,0
15.7,9.294486,-2.8254225,1.6416168000000002,1004.55786,5.715645645673728,1004.5544477449353,0,0
15.72,9.23237,-2.8111236,1.5895404,1004.54315,5.7130223172529195,1004.5545387929576,0,0
15.74,9.170254,-2.9970195,1.6842306,1004.5784,5.710492836907508,1004.5547051433356,0,0
15.76,9.194176,-2.9302883,1.6321542,1004.5606,5.708041701137224,1004.5548733520136,0,0
15.78,9.136843,-2.9588885,1.7931259999999998,1004.55286,5.705633418997245,1004.555014733134,0,0
15.8,9.189442,-2.8683243,1.7599872,1004.54785,5.70330551865854,1004.5551138644528,0,0
15.82,9.151226,-2.9350567,1.7079109,1004.5629,5.7010044726400695,1004.5552294869742,0,0
15.84,9.280304,-2.8540256,1.7126471999999997,1004.55286,5.698939492416631,1004.5553231208812,0,0
15.86,9.222965,-2.9302912,1.7552589,1004.53284,5.6970407164766526,1004.5553249165655,0,0
15.88,9.251671,-2.8587933,1.6274322,1004.5429,5.695262219765347,1004.5552817735334,0,0
15.9,9.270811,-2.8730936,1.6226999,1004.5606,5.693640924845077,1004.5552627979648,0,0
15.92,9.184798,-3.025624,1.6747804,1004.57806,5.6921098087856175,1004.55532810108,0,0
15.94,9.089225,-2.9541261000000003,1.7173921000000003,1004.54755,5.690447839717468,1004.5553578017486,0,0
15.96,9.137046,-3.0017922,1.7031909,1004.57043,5.688794352333071,1004.5554383051732,0,0
15.98,9.175305,-2.9302945,1.7789433,1004.5604,5.68721171492152,1004.5555273001004,0,0
16.0,9.12753,-2.982727,1.7931486,1004.5473,5.685642807319766,1004.5555763177381,0,0
16.02,9.223148,-2.9207628,1.6700562,1004.5704,5.684193824726082,1004.5556729949783,0,0
16.04,9.156254,-3.0113277000000003,1.6795269,1004.5348,5.682785986955014,1004.5556832762062,0,0
16.06,9.204075,-2.9302967,1.6842636000000002,1004.55005,5.681463339294058,1004.5556720809047,0,0
16.08,9.218433,-3.0208616000000004,1.7458127,1004.5722,5.680327981437182,1004.5557216892453,0,0
16.099999999999998,9.165881,-2.9779634,1.6227205,1004.557,5.679188752006357,1004.5557701250934,0,0
16.12,9.151563,-2.9922636,1.7789577,1004.5498,5.678087871694213,1004.5557914305583,0,0
16.14,9.189823,-2.8921664,1.6605995999999998,1004.5447,5.676993571585285,1004.5557703269176,0,0
16.16,9.218525,-2.9779649,1.793165,1004.5397,5.676066786634134,1004.5556938265636,0,0
16.18,9.16078,-2.9159900000000003,1.6510973000000002,1004.5447,5.675088252296102,1004.5555866530748,0,0
16.2,9.189465,-2.9922554,1.6984419999999998,1004.547,5.674188137244013,1004.5554610426296,0,0
16.22,9.308966,-2.9493563,1.7031769,1004.57465,5.673568326969031,1004.5554191334863,0,0
16.24,9.304193,-2.8873912999999995,1.5990206,1004.57715,5.673114964276298,1004.5554603336867,0,0
16.259999999999998,9.117785,-3.0208552,1.5753491000000002,1004.5724,5.672521888011287,1004.555557720983,0,0
16.28,9.074773,-3.0828207,1.7031785,1004.54443,5.671809077217128,1004.555603712602,0,0
16.3,9.165597,-2.9970226,1.7694609,1004.55426,5.671138262464964,1004.5556395134314,0,0
16.32,9.184722,-2.9684234,1.6511011999999998,1004.5644,5.670483158178219,1004.5557026847957,0,0
16.34,9.060452,-3.0065563,1.7836651999999995,1004.542,5.669675478212165,1004.555709173348,0,0
16.36,9.199075,-2.977957,1.7552595000000002,1004.53174,5.668976250726353,1004.5556286176088,0,0
16.38,9.184741,-2.9398243,1.6747751,1004.53894,5.668294283072293,1004.5554973595343,0,0
16.4,9.237325,-2.9541245,1.5942909,1004.5413,5.667713713208218,1004.5553302694052,0,0
16.419999999999998,9.151295,-3.0303895,1.6416353,1004.5415,5.667121753053625,1004.5551328395974,0,0
16.44,9.280355,-3.0113235,1.5990262,1004.5538,5.666746505299352,1004.5549535923967,0,0
16.46,9.141747,-3.0780551,1.8262782,1004.5363,5.666419722231063,1004.5547280566374,0,0
16.48,9.093955,-2.9398253,1.5848243,1004.53156,5.665867664585563,1004.5544453682367,0,0
16.5,9.122641,-2.9636583,1.6416377,1004.54895,5.665209150305762,1004.55417580144,0,0
16.52,9.223022,-2.968425,1.6984511999999998,1004.59436,5.664677704895515,1004.5540822753334,0,0
16.54,9.184791,-2.9445922,1.7221236,1004.539,5.664179607246924,1004.553945339474,0,0
16.56,9.261274,-2.968425,1.5516857,1004.5638,5.663817902667963,1004.5538598197273,0,0
16.58,9.170464,-2.973192,1.6416400000000002,1004.5386,5.6634341894778455,1004.5537293191277,0,0
16.599999999999998,9.266067,-2.8826275000000003,1.6605781000000002,1004.5413,5.663169545881213,1004.5535692632487,0,0
16.62,9.208714,-3.0208576000000003,1.6132348,1004.55853,5.662968952872933,1004.5534456965268,0,0
16.64,9.180041,-2.9588928,1.6889857,1004.5486,5.662757056610031,1004.5533190684636,0,0
16.66,9.208726,-2.9827256,1.6227046,1004.53107,5.662583595088433,1004.5531270832604,0,0
16.68,9.098925,-2.9779625,1.6984673,1004.5486,5.662254621959683,1004.5529411476354,0,0
16.7,9.208871,-2.9255304,1.7079371,1004.56366,5.661974079633716,1004.5528154427857,0,0
16.72,9.132405,-2.901698,1.7126724999999998,1004.5511,5.661575162558286,1004.552698194386,0,0
16.74,9.247131,-2.9255311,1.6463918999999998,1004.54846,5.661288118357872,1004.5525793362006,0,0
16.759999999999998,9.1754465,-2.9731970000000003,1.6937368999999998,1004.53577,5.66100764563725,1004.5524137994977,0,0
16.78,9.223255,-2.8873994,1.6558628,1004.57355,5.660760494758126,1004.5523436215884,0,0
16.8,9.213707,-2.9302983,1.6511294,1004.56354,5.66054981063259,1004.5523219193504,0,0
16.82,9.1707,-2.9159992000000003,1.5848488,1004.5507,5.660256423977863,1004.5522969043428,0,0
16.84,9.127694,-2.877867,1.6179906000000002,1004.5456,5.659794703140969,1004.5522506922273,0,0
16.86,9.194621,-2.9684317000000005,1.6700700000000002,1004.54315,5.65939117303308,1004.5521770967093,0,0
16.88,9.170733,-2.9207666000000003,1.7836968,1004.56854,5.659005827524571,1004.5521709741614,0,0
16.9,9.194644,-2.9160001,1.6890098000000002,1004.52576,5.658646693487445,1004.5520704847713,0,0
16.919999999999998,9.156417,-3.006565,1.6511354,1004.58075,5.6582810400475605,1004.5520849386012,0,0
16.94,9.185107,-2.9589,1.6037927,1004.5456,5.657920269650496,1004.5520743642261,0,0
16.96,9.237696,-2.9541335,1.6842785,1004.5585,5.657692757500661,1004.5520881529968,0,0
16.98,9.247267,-2.8492696,1.6227323,1004.55817,5.6575166430764625,1004.5521222314044,0,0
17.0,9.242498,-2.901702,1.5706549,1004.55023,5.657391561317973,1004.5521455310519,0,0
17.02,9.113454,-2.8826358,1.6558751,1004.59576,5.657077274466717,1004.5523231307087,0,0
17.04,9.175603,-2.9875007,1.816846,1004.5707,5.6568430318947085,1004.5525462144948,0,0
17.06,9.194733,-2.87787,1.6416738000000002,1004.5652,5.6565851565837075,1004.5527888849564,0,0
17.08,9.256882,-2.7873056,1.7032221999999997,1004.5804,5.6563964044317325,1004.5531027085899,0,0
17.099999999999998,9.266454,-2.9398358,1.712692,1004.5854,5.656383766110947,1004.553496273402,0,0
17.12,9.228227,-2.801606,1.7505683,1004.5881,5.656382103861843,1004.5539686006854,0,0
17.14,9.261695,-2.8159058,1.6937565,1004.54285,5.656443457065492,1004.5543459221108,0,0
17.16,9.18523,-2.8016064,1.7126951,1004.5453,5.656408873404331,1004.5546467580023,0,0
17.18,9.198667,-2.8397167000000003,1.6557997,1004.5423,5.656318428231312,1004.5548681282677,0,0
17.2,9.184302,-2.8730822,1.7173446,1004.5549,5.656193215082816,1004.555063845772,0,0
17.22,9.227293,-2.9016805,1.7552173999999998,1004.55756,5.6561530932011035,1004.5552457679142,0,0
17.24,9.251167,-2.7634497,1.7126054,1004.58514,5.656136468105191,1004.5555141335544,0,0
17.259999999999998,9.160328,-2.854014,1.7362753,1004.5573,5.656025657323309,1004.5557576905536,0,0
17.28,9.19376,-2.877846,1.6889288,1004.54254,5.655894601648433,1004.555925313832,0,0
17.3,9.145939,-2.839713,1.6652547,1004.56757,5.655620952560781,1004.5561153466307,0,0
17.32,9.117235,-2.9922423,1.9729888,1004.5523,5.655380432201206,1004.556269524364,0,0
17.34,9.09809,-2.91121,1.7930789,1004.5523,5.655009802047165,1004.5563914655216,0,0
17.36,9.160202,-2.873077,1.7125916,1004.58234,5.654592932522433,1004.5565926274522,0,0
17.38,9.145837,-2.9588745,1.6652454,1004.5649,5.654144961105504,1004.5568002806757,0,0
17.4,9.050219,-3.0494385,1.6794466,1004.57214,5.6535484337301884,1004.557038986053,0,0
17.419999999999998,9.155349,-2.8063432999999995,1.7551948,1004.5645,5.652903075113733,1004.5572767657746,0,0
17.44,9.317835,-2.677646,1.8214740000000005,1004.5748,5.652485494504644,1004.5575499515802,0,0
17.46,9.198315,-2.8492413,1.7646587,1004.5723,5.652115397027115,1004.5578444387323,0,0
17.48,9.160052,-2.9827042,1.6841718,1004.5623,5.6517671672381695,1004.5581206876002,0,0
17.5,9.136128,-2.9970036,1.6368253,1004.55457,5.65138530409558,1004.5583519986244,0,0
17.52,9.155224,-2.9636366,1.7315111,1004.57416,5.651025043461993,1004.5586132938507,0,0
17.54,9.179095,-2.9112039000000003,1.8025249,1004.5391,5.6507255797294285,1004.5587739264546,0,0
17.56,9.183852,-2.9016705000000003,1.8451322,1004.5444,5.650500778366653,1004.5588641152882,0,0
17.58,9.274644,-2.8397045,1.7551764,1004.5264,5.6504480617093575,1004.5588269353267,0,0
17.599999999999994,9.317637,-2.868303,1.8072526,1004.5414,5.650668276046579,1004.5587313461454,0,0
17.62,9.37019,-2.7872713,1.6699525000000002,1004.55145,5.651133722119317,1004.5586206706987,0,0
17.64,9.274568,-3.0017655,1.6273406,1004.57416,5.6517426284414505,1004.5585788194593,0,0
17.66,9.1789465,-3.0637302,1.6320727,1004.5641,5.652331189837228,1004.5585617159544,0,0
17.68,9.209932,-2.9779887,1.5944086000000002,1004.5366,5.652892266791014,1004.5584675411197,0,0
17.7,9.190879,-2.9636905,1.6796337,1004.55414,5.65341045104786,1004.558368749088,0,0
17.72,9.133594,-2.9732256,1.850079,1004.5839,5.653847320806446,1004.5583733689516,0,0
17.74,9.133654,-2.9017286,1.8406157,1004.5666,5.654162491587344,1004.5584070669354,0,0
17.759999999999994,9.205423,-3.025661,1.8548255,1004.5386,5.654591756553861,1004.5583655370326,0,0
17.78,9.210271,-3.0304294,1.8358942,1004.57855,5.655125375531367,1004.5584015052773,0,0
17.8,9.21034,-3.0971625,1.8216972,1004.57904,5.655786974176412,1004.5585075853993,0,0
17.82,9.162611,-3.001833,1.7222810000000002,1004.5889,5.6563680525429145,1004.5587107304876,0,0
17.84,9.067079,-2.9732356,1.6512706999999998,1004.5612,5.656646265352203,1004.558899190858,0,0
17.86,9.134065,-2.9446378,1.6702147,1004.5863,5.656774943628334,1004.559164357354,0,0
17.88,9.124573,-2.9970717,1.8974725,1004.5761,5.6568720230665255,1004.5594596267836,0,0
17.9,9.229794,-2.8779092,1.8453997,1004.54114,5.657050542530508,1004.5596545761948,0,0
17.919999999999995,9.201179,-2.9494092,1.7412488000000002,1004.5561,5.657249180738718,1004.5598140370206,0,0
17.94,9.110431,-2.958944,1.7128485,1004.5509,5.657283761450633,1004.5599228460727,0,0
17.96,9.120062,-3.0256777,1.7175897,1004.58093,5.65723629894181,1004.5600946155057,0,0
17.98,9.191828999999998,-2.973247,1.7270648000000002,1004.55304,5.657226122489673,1004.5602209943604,0,0
18.0,9.201456,-2.9255831000000003,1.5992421,1004.5709,5.657192805416567,1004.560371107137,0,0
18.02,9.110704,-2.954184,1.7412801,1004.5609,5.657030645292518,1004.5605056508008,0,0
18.04,9.110773,-3.0495172000000004,1.8265057,1004.5734,5.656848703910396,1004.560670953239,0,0
18.06,9.182533,-3.140083,1.7365580000000005,1004.5609,5.6568142822779794,1004.5608178390418,0,0
18.08,9.048764,-3.1496180000000003,1.8075799,1004.5734,5.656684870596003,1004.5609929231166,0,0
18.1,8.996255,-3.111487,1.8075861,1004.5857,5.656345158815715,1004.561236572882,0,0
18.12,9.068021,-2.968492,1.850202,1004.60114,5.655883268944686,1004.561595514152,0,0
18.14,9.130226,-3.016159,1.7507858,1004.58075,5.655428034495259,1004.5619816308076,0,0
18.16,9.154194,-2.9923282,1.6371664,1004.54785,5.654970760071862,1004.5622719296132,0,0
18.18,9.289472,-2.8635492,1.6984081999999998,1004.5857,5.654719214826407,1004.5626127786916,0,0
18.2,9.303742,-2.9159796,1.641589,1004.5604,5.6546901871351025,1004.5629059869336,0,0
18.22,9.179402,-2.9731767,1.6699896,1004.54816,5.654660665293231,1004.5631119801834,0,0
18.24,9.088517,-3.0113077,1.759937,1004.5581,5.6545112205909875,1004.5632759526904,0,0
18.26,9.260523,-2.9445739,1.7125868000000002,1004.5525,5.654531428184903,1004.5633820453676,0,0
18.28,9.231775,-2.8730743,1.6699708999999998,1004.5832,5.654586160578162,1004.563547133494,0,0
18.3,9.226932,-2.9636369,1.811997,1004.5752,5.654769861152687,1004.5637349556821,0,0
18.32,9.260325,-2.8444717,1.5942086000000002,1004.55505,5.654980597946673,1004.563869649527,0,0
18.34,9.116862,-3.0112994,1.7409689999999998,1004.59296,5.655090231333258,1004.5640933902698,0,0
18.36,9.14547,-2.996998,1.7551655,1004.58795,5.655161845464049,1004.5643769713852,0,0
18.38,9.154961,-2.9397976000000003,1.7030807,1004.5726,5.6551628166939665,1004.564657146562,0,0
18.4,9.145337,-2.9111965,1.7314811999999995,1004.57495,5.655075175415733,1004.5649417636203,0,0
18.42,9.150048,-3.0732577,1.8877103,1004.5777,5.655081605815897,1004.5652391809042,0,0
18.44,9.073506,-2.944559,1.8072196,1004.6052,5.654908803652266,1004.5656458377647,0,0
18.46,9.216837,-2.8301604,1.7219944,1004.5777,5.654755179406884,1004.5660485547513,0,0
18.48,9.154627,-2.9064236,1.7598630000000002,1004.5623,5.654558105166683,1004.5663909006827,0,0
18.5,9.164104,-2.920721,1.6604328999999998,1004.5776,5.654314495581205,1004.5667337503056,0,0
18.52,9.130595,-2.9254863,1.7598508999999998,1004.57495,5.65400452684752,1004.5670662707316,0,0
18.54,9.154426,-2.925485,1.8592671000000005,1004.5749,5.653721674759209,1004.5673882872052,0,0
18.56,9.154361,-2.9254832000000004,1.7314322,1004.56244,5.653414882862375,1004.5676550071272,0,0
18.58,9.125614,-2.9874468,1.7740356,1004.5745,5.653087003158329,1004.5679153228247,0,0
18.6,9.187683,-2.8921137000000003,1.7314197,1004.582,5.652787041412092,1004.5681960426127,0,0
18.62,9.144596,-2.9826767000000003,1.8024294,1004.5645,5.6525120943990315,1004.5684307808642,0,0
18.64,9.192329,-2.9111767000000004,1.7124699,1004.5849,5.652274854408564,1004.5686974847721,0,0
18.66,9.091886,-2.9874400000000003,1.7882142,1004.5795,5.6519524236093215,1004.5689720334,0,0
18.68,9.18606,-2.958923,1.6322863,1004.5621,5.651664294555808,1004.569189885247,0,0
18.7,9.181354,-3.0208902,1.7932628000000002,1004.5796,5.651496033401681,1004.5694198555524,0,0
18.72,9.195763,-2.8206966,1.7127842,1004.5945,5.651308441781534,1004.5697133458342,0,0
18.74,9.210164,-2.916029,1.7127898,1004.5669,5.6511906324011925,1004.5699625458024,0,0
18.76,9.1624365,-2.9350970000000003,1.8832347,1004.5791,5.65111875963852,1004.5702156337288,0,0
18.78,9.167285,-2.977998,1.9069132,1004.5745,5.651133508910824,1004.5704546859396,0,0
18.8,9.100438,-3.0542643,1.8311691000000003,1004.5716,5.651114000025249,1004.5706700356036,0,0
18.82,9.095728,-2.9541683,1.7648938000000003,1004.5691,5.650965635245978,1004.5708546664384,0,0
18.84,9.138815,-3.0590342999999995,1.7317593,1004.5566,5.650842436313157,1004.570966489445,0,0
18.86,9.124546,-3.02567,1.7791098,1004.5916,5.650710331417253,1004.5711395768916,0,0
18.88,9.220212,-3.0304387000000004,1.7459754,1004.57666,5.650747274477742,1004.5713123904824,0,0
18.9,9.158144,-2.9875412,1.783857,1004.5945,5.650799690852217,1004.5715485639656,0,0
18.92,9.206003,-3.0495080000000003,1.7933313999999998,1004.5666,5.6510016450699565,1004.5717394320253,0,0
18.94,9.158276,-2.9684782000000003,1.7459937,1004.5741,5.651172968009736,1004.5719165810872,0,0
18.96,9.167904,-3.097177,1.7838753,1004.5791,5.651432137874835,1004.5720989703066,0,0
18.98,9.206212,-2.8826835,1.8170227,1004.5587,5.65171941938663,1004.5722118931276,0,0
19.0,9.177599,-3.0304487,1.774419,1004.57635,5.652051110781858,1004.5723265689172,0,0
19.02,9.168114,-3.0638163,1.7460194,1004.57886,5.652413376871612,1004.5724514167964,0,0
19.04,9.15384,-3.006619,1.8075726000000003,1004.56885,5.652760051675161,1004.5725487672825,0,0
19.06,9.206483,-3.087652,1.7223592,1004.5688,5.6532142617121925,1004.5726212906096,0,0
19.08,9.139639,-2.992323,1.8075852,1004.5913,5.65360263515075,1004.5727526155753,0,0
19.1,9.201847,-2.978025,1.717638,1004.5662,5.654009720887357,1004.5728450648987,0,0
19.12,9.168458,-3.0161588,1.7460508,1004.57635,5.654401556129107,1004.5729393708873,0,0
19.14,9.101606,-3.0924256000000003,1.7744631999999998,1004.5991,5.654708937039543,1004.5731168779236,0,0
19.16,9.1399145,-3.030462,1.7507976000000005,1004.5937,5.6549656604342085,1004.5733478223804,0,0
19.18,9.177063,-2.9494038,1.7696354,1004.5937,5.6552045049394035,1004.5736251527417,0,0
19.2,9.081481,-3.0209026000000003,1.854856,1004.5687,5.655319369480951,1004.5738524712992,0,0
19.22,9.09107,-3.0733354,1.7743738000000002,1004.5734,5.655345762406799,1004.5740517010801,0,0
19.24,9.114993,-3.1067019,1.7459695,1004.5759,5.655351495401317,1004.5742343943904,0,0
19.26,9.115008,-3.106702,1.769643,1004.54834,5.6553478173426015,1004.5743026023796,0,0
19.28,9.086358,-3.0256715,1.6370822,1004.5734,5.655179211185651,1004.57435962159,0,0
19.3,9.100715,-3.101937,1.7412406000000002,1004.5884,5.654980706839916,1004.5744605491267,0,0
19.32,9.186778,-3.039972,1.774384,1004.5632,5.654895331203394,1004.5745091907216,0,0
19.34,9.138997,-3.0924046,1.8406674,1004.57074,5.6548769777342365,1004.574538601348,0,0
19.36,9.13902,-2.9923077,1.7554502,1004.58124,5.6548208581886925,1004.5745887136128,0,0
19.38,9.177285,-3.0018415000000003,1.6418269,1004.55066,5.654771081149473,1004.5745468494408,0,0
19.4,9.17253,-3.0209080000000004,1.6939075,1004.5708,5.65474843600059,1004.5744963696004,0,0
19.42,9.206004,-3.0304418,1.7081122,1004.58075,5.654826148259678,1004.574474278683,0,0
19.44,9.22515,-3.035209,1.7791308,1004.5934,5.6550586188126415,1004.5745228917453,0,0
19.46,9.120017,-2.9732442000000003,1.7886016,1004.5632,5.6551869534264325,1004.5745250838364,0,0
19.48,9.229974,-2.9827778,1.6134306,1004.5654,5.655379675301503,1004.5744941704668,0,0
19.5,9.167856,-3.0828762000000003,1.8122774,1004.5759,5.65564396920899,1004.5744719163993,0,0
19.52,9.163099,-3.0066116000000003,1.7886074,1004.5909,5.655903187007924,1004.5745113938063,0,0
19.54,9.158348,-2.911281,1.6655155,1004.6033,5.656042618104848,1004.5746499150254,0,0
19.56,9.172709,-3.016146,1.7033927,1004.58075,5.656183296177169,1004.5747942726808,0,0
19.58,9.139266,-3.0304463,1.7696759999999998,1004.5855,5.656293200691272,1004.5749603677233,0,0
19.6,9.163195,-3.0685792000000003,1.7318033,1004.5833,5.656432540592397,1004.5751371519788,0,0
19.62,9.129758,-3.0352137000000003,1.7838837,1004.5605,5.656530353031802,1004.5752406647999,0,0
19.64,9.115436,-3.0447476000000004,1.7602131,1004.5804,5.656560590941237,1004.5753507023356,0,0
19.66,9.144142,-3.0209153,1.7838879,1004.58325,5.656580252593145,1004.5754763689737,0,0
19.68,9.214629,-3.006586,1.8027148,1004.588,5.656725361837647,1004.5756324930863,0,0
19.7,9.27674,-2.901721,1.6985554,1004.5654,5.65699810073125,1004.5757336073776,0,0
19.72,9.224137,-2.854055,1.5233802,1004.6108,5.657190897682987,1004.5759491909787,0,0
19.74,9.09983,-2.8731205,1.7979727,1004.5726,5.657178327754084,1004.5761276235612,0,0
19.76,9.257536,-2.9493847,1.8547829,1004.593,5.657360401092718,1004.576346027146,0,0
19.78,9.185814,-2.9970498,1.8500464,1004.57745,5.657602462313249,1004.576542982856,0,0
19.8,9.161896,-2.9684498,1.7080125,1004.56744,5.657778551918293,1004.5766842421828,0,0
19.82,9.123623,-3.020881,1.764822,1004.5953,5.657875674700861,1004.5768760756523,0,0
19.84,9.118816,-3.0304136,1.7222099999999998,1004.5955,5.6578836694423575,1004.5771126258336,0,0
19.86,9.12835,-3.0876112,1.8405678,1004.58,5.65791329458968,1004.5773320361208,0,0
19.88,9.176128,-2.9350812000000004,1.8831755,1004.58,5.657974058456185,1004.5775355117204,0,0
19.9,9.176099,-2.9732127,1.651187,1004.5748,5.657999011484129,1004.577705454918,0,0
19.92,9.180849,-3.0208776000000004,1.622778,1004.57214,5.6580219337500495,1004.57783558109,0,0
19.94,9.166486,-3.0161104,1.6417133000000002,1004.57745,5.658018523465357,1004.5779491724834,0,0
19.96,9.252496,-3.039942700000001,1.6227733,1004.57495,5.658168046250903,1004.5780387448176,0,0
19.98,9.171213,-2.954144,1.6559118000000002,1004.58,5.658250855211753,1004.5781249514508,0,0
20.0,9.175966,-2.9493768,1.6937846999999997,1004.5723,5.658294171562255,1004.5781801538068,0,0
20.02,9.061224,-2.982742,1.7979391,1004.56213,5.658139199515486,1004.5781711500548,0,0
20.04,9.266729,-2.935076,1.6085604,1004.5953,5.65811128107916,1004.5782248581993,0,0
20.06,9.142427,-3.0304065,1.8074031000000004,1004.5898,5.658085697305357,1004.578313985226,0,0
20.08,9.14719,-2.8969424,1.6890413,1004.58484,5.657943379835878,1004.5784162315204,0,0
20.1,9.166275,-2.9398406,1.6511629,1004.5872,5.6577488612103854,1004.5785381979124,0,0
20.12,9.16625,-2.9970388,1.7411144,1004.5693,5.657577355027852,1004.5786127099041,0,0
20.14,9.137545,-2.9827383,1.7458464,1004.57214,5.657363665149568,1004.578655246944,0,0
20.16,9.214002,-2.9207726000000003,1.7695165000000002,1004.5621,5.657232318506013,1004.5786332337835,0,0
20.18,9.11429,-2.9398553,1.7932491999999998,1004.5923,5.657000960153893,1004.5786629833134,0,0
20.2,9.109511,-3.0018203,1.6796237,1004.59467,5.656669952093407,1004.5787468952581,0,0
20.22,9.152531,-3.0399528,1.6748894,1004.5693,5.6563585467027675,1004.5787870310294,0,0
20.24,9.181211,-2.9589214,1.7553746,1004.57666,5.6560990836138165,1004.5788148376853,0,0
20.26,9.20989,-2.9636880000000003,1.736437,1004.58966,5.6559382733051935,1004.5788784502307,0,0
20.28,9.152535,-2.9779878,1.6701553,1004.58734,5.655738582998345,1004.5789651198552,0,0
20.3,9.142977,-3.0161202,1.6938275,1004.57715,5.655519436890928,1004.5790351667036,0,0
20.32,9.138198,-3.1400504,1.7080308000000002,1004.59717,5.6553606997559775,1004.5791623454988,0,0
20.34,9.1716585,-2.9970543,1.7364374,1004.5892,5.655238208457576,1004.5793108562384,0,0
20.36,9.219458,-2.9160225,1.7648438000000002,1004.61237,5.6552010532792165,1004.5795610932457,0,0
20.38,9.17644,-2.9493885,1.7601097,1004.5718,5.655174591279027,1004.5797542627294,0,0
20.4,9.224238,-2.9446218,1.7601098000000002,1004.5892,5.65524777868141,1004.5799589519394,0,0
20.42,9.233801,-2.9350889,1.8358603,1004.5667,5.655450195539293,1004.5800920830984,0,0
20.44,9.171664,-2.8826568,1.7175003,1004.5793,5.655568125213634,1004.5802068662912,0,0
20.46,9.109528,-3.0018206000000003,1.7743131999999997,1004.5693,5.6555858145107125,1004.5802690240016,0,0
20.48,9.195565,-2.9636881,1.722235,1004.59174,5.655638648675767,1004.5803652420683,0,0
20.5,9.219466,-2.9446220000000003,1.7364383999999995,1004.59174,5.6557621897747365,1004.5804912094808,0,0
20.52,9.171669,-2.9636884,1.7459073,1004.5691,5.655870100489523,1004.5805615059323,0,0
20.54,9.142992,-2.9636884,1.7411729,1004.5791,5.655906257793805,1004.5806183584552,0,0
20.56,9.200351,-2.9970546,1.717501,1004.5716,5.656002897237048,1004.580636127254,0,0
20.58,9.190792,-2.8778903,1.7411731,1004.57404,5.6560684926226745,1004.5806280817067,0,0
20.6,9.252932,-2.9589221,1.7269701000000002,1004.57874,5.656272433712889,1004.580614175567,0,0
20.62,9.181235,-2.8635907000000005,1.7459078999999995,1004.57904,5.656406245492379,1004.58059622107,0,0
20.64,9.262493,-2.8874235,1.6606886000000003,1004.5816,5.656620156876516,1004.5805839700804,0,0
20.66,9.219477,-2.9207897000000003,1.6890951,1004.5891,5.6568505745375575,1004.5806038028136,0,0
20.68,9.134076,-2.9827702,1.7507006,1004.5938,5.656989723526497,1004.5806688333264,0,0
20.7,9.229696,-2.920806,1.7885782,1004.57654,5.6572092623033035,1004.580711430488,0,0
20.72,9.258402,-2.873141,1.7838461,1004.5737,5.657524114357092,1004.58072382819,0,0
20.74,9.17239,-2.8302426,1.61341,1004.58875,5.65766647315275,1004.5807636770178,0,0
20.76,9.158079,-2.9970727000000004,1.6512877,1004.5687,5.657744699025314,1004.580755458205,0,0
20.78,9.205904,-2.9875402,1.7791191000000002,1004.55865,5.6578994444044435,1004.5806686164124,0,0
20.8,9.191588,-2.9684744,1.7175740000000002,1004.57874,5.658058616393832,1004.5805849399852,0,0
20.82,9.158157,-2.9970746,1.6370916000000002,1004.58124,5.658145476927962,1004.5805133617104,0,0
20.84,9.129504,-2.9970753,1.660766,1004.5936,5.658120663107929,1004.5804972270444,0,0
20.86,9.177327,-2.9875429,1.6370963,1004.55084,5.658076014867369,1004.5803762044363,0,0
20.88,9.239491,-3.0304427000000005,1.7507244,1004.5936,5.658202938194775,1004.5803168745239,0,0
20.9,9.196499,-2.9589448,1.6891797,1004.5737,5.658329768444347,1004.580240629865,0,0
20.92,9.196526,-2.9017467,1.641838,1004.6012,5.658403813950707,1004.5802487138167,0,0
20.94,9.158317,-2.9112804,1.6655126,1004.58124,5.6583705626488205,1004.5802594254268,0,0
20.96,9.201359,-2.9255807000000003,1.6465772,1004.58875,5.6583288537512875,1004.5802994562739,0,0
20.98,9.2013855,-2.98278,1.7270646,1004.5561,5.658344439031586,1004.580247709488,0,0
21.0,9.177512,-2.9494147,1.7412701000000002,1004.58356,5.658348368509808,1004.5802139102736,0,0
21.02,9.182318,-2.9732485,1.6655221000000002,1004.5707,5.658338943944628,1004.5801497952107,0,0
21.04,9.153665,-2.9780154,1.6655243999999998,1004.5811,5.658264950472209,1004.5800965638788,0,0
21.06,9.206269,-2.9541833,1.6181827,1004.5932,5.658205212099893,1004.5800967010437,0,0
21.08,9.196737,-2.9684837,1.7270766,1004.59607,5.658187263859688,1004.5801543261186,0,0
21.1,9.163298,-2.9398847000000004,1.6702654,1004.58093,5.6581027323920665,1004.580208036061,0,0
21.12,9.177669,-3.0018508,1.6513307000000002,1004.5858,5.65802011003613,1004.580275625236,0,0
21.14,9.258953,-2.8731546000000003,1.6039894,1004.6034,5.658001796447178,1004.5804185947806,0,0
21.16,9.149043,-2.982786,1.7223517,1004.5604,5.657935663883138,1004.5804728557288,0,0
21.18,9.229376,-2.9446306,1.7222672,1004.5605,5.6579599599682044,1004.580448898422,0,0
21.2,9.267603,-2.830233,1.6701876,1004.5757,5.658050312854476,1004.5804106337114,0,0
21.22,9.186335,-2.9160310000000003,1.6985931,1004.5882,5.65810219824279,1004.5804048647316,0,0
21.24,9.200663,-2.9636962,1.6607168,1004.5857,5.6581640835520375,1004.5804188297484,0,0
21.26,9.200652,-2.9207969,1.5896997,1004.57263,5.658183288514166,1004.5804031294496,0,0
21.28,9.234099,-2.8969638,1.7506683999999997,1004.583,5.6582723137131845,1004.5803986054,0,0
21.3,9.200628,-2.8540647,1.6796513,1004.583,5.658305363628927,1004.58040397297,0,0
21.32,9.17672,-2.9684615,1.6465095,1004.57513,5.658301209993789,1004.5803897294522,0,0
21.34,9.157588,-2.9255624,1.6938525000000002,1004.5882,5.6582168276912785,1004.580405260854,0,0
21.36,9.234054,-2.9255624,1.6559761999999998,1004.57513,5.658197616761668,1004.5803999934616,0,0
21.38,9.243603,-2.9017289,1.6180999,1004.57794,5.658226915854963,1004.5803864832174,0,0
21.4,9.191013,-2.9589274,1.6370364,1004.57263,5.658238299845648,1004.5803466222256,0,0
21.42,9.21968,-2.83023,1.4902688,1004.58264,5.65816192451261,1004.5803196572133,0,0
21.44,9.171872,-2.9970593,1.7317226000000003,1004.58264,5.658100808663192,1004.5803041841624,0,0
21.46,9.181419,-2.925561,1.632299,1004.56744,5.657991530959268,1004.5802442011118,0,0
21.48,9.281785,-2.8731282000000005,1.6275636,1004.55975,5.658002511016271,1004.5801174209644,0,0
21.5,9.214856,-2.9350932000000003,1.6180937,1004.5699,5.6580236194640126,1004.5799686153103,0,0
21.52,9.210065,-2.9493926,1.5991551000000002,1004.5875,5.658046704874255,1004.5798642436197,0,0
21.54,9.238735,-2.9017267,1.6228263,1004.5574,5.658106018975565,1004.5796911495164,0,0
21.56,9.200483,-2.9303257,1.5802153,1004.56726,5.658125559465328,1004.5794934514287,0,0
21.58,9.200472,-2.9207926,1.6370273000000002,1004.5774,5.658123348723202,1004.5793112289732,0,0
21.6,9.181341,-2.9303253,1.5707446000000005,1004.55725,5.658047880158676,1004.5790707967873,0,0
21.62,9.19089,-2.9732242,1.5944155,1004.5747,5.657961479917612,1004.5788426160393,0,0
21.64,9.205218,-2.916025,1.646493,1004.56476,5.65787586567958,1004.5785902981123,0,0
21.66,9.147849,-2.9112582,1.6654296000000002,1004.5543,5.657682967406889,1004.5782799049193,0,0
21.68,9.225168,-2.9351118,1.7128508000000002,1004.5772,5.657578626153359,1004.578001753836,0,0
21.7,9.26343,-2.8779137,1.5566175,1004.5797,5.6575385406085825,1004.5777620932253,0,0
21.72,9.239554,-2.9684787,1.7507302,1004.57214,5.657632419287933,1004.5775300895737,0,0
21.74,9.206118,-2.9255803,1.6607785,1004.5724,5.657719972619349,1004.5773066228247,0,0
21.76,9.182241,-2.8779151,1.6939217,1004.5793,5.657737427132846,1004.5771163437632,0,0
21.78,9.244401,-2.9351144,1.7602051,1004.5796,5.6578736205212286,1004.5769571543468,0,0
21.8,9.225305,-2.9017494,1.7460041000000002,1004.5492,5.658051181007194,1004.5767165688228,0,0
21.82,9.163189,-2.9398823,1.7365373,1004.57935,5.6581636853910435,1004.5765134678064,0,0
21.84,9.187109,-2.9065166,1.6371167,1004.5696,5.6582085703467415,1004.5763091192641,0,0
21.86,9.206251,-2.9017508,1.7176037,1004.5821,5.658256649107436,1004.5761494040623,0,0
21.88,9.254073,-3.0352147,1.7838874,1004.6,5.6585085486136935,1004.5760941418556,0,0
21.9,9.3210125,-2.944651,1.7886238,1004.5797,5.659014941974572,1004.5760582932593,0,0
21.92,9.335372,-2.8111877,1.5803120000000002,1004.5771,5.659618286467067,1004.5760303675836,0,0
21.94,9.201563,-2.868387,1.6181895,1004.57434,5.660089937898638,1004.5759996071332,0,0
21.96,9.1585655,-2.9208195,1.7980988000000002,1004.58685,5.660457210758053,1004.5760114886141,0,0
21.98,9.043874,-2.9732525,1.8359761000000003,1004.5796,5.660555802781099,1004.5760349057307,0,0
22.0,9.115595,-3.0542846000000003,1.8738536,1004.5772,5.660622597262839,1004.5760597914348,0,0
22.02,9.187313,-2.935121,1.8927932,1004.57434,5.660732048235855,1004.576075589194,0,0
22.04,9.177775,-2.9351215,1.7034189,1004.61456,5.660788066447044,1004.5762280919728,0,0
22.06,9.177799,-3.0304534,1.5424514,1004.5846,5.660801625860683,1004.5763929822967,0,0
22.08,9.196938,-2.9732552000000005,1.5471876,1004.5617,5.660780051861416,1004.5764857846507,0,0
22.1,9.282998,-2.916057,1.6844875,1004.5771,5.660906910705215,1004.576569995986,0,0
22.12,9.249563,-2.8826919,1.7223649,1004.57684,5.661092350717123,1004.5766453771367,0,0
22.14,9.187446,-2.9398909,1.7413043999999998,1004.5719,5.661249883882874,1004.5766949005632,0,0
22.16,9.163571,-2.9541912,1.6655561,1004.5592,5.661317213720144,1004.5766756778212,0,0
22.18,9.158308,-2.9541793,1.7270591,1004.57416,5.661316522950858,1004.5766496361659,0,0
22.2,9.196548,-3.0352108,1.722325,1004.5667,5.661379814003477,1004.5765908070694,0,0
22.22,9.325605,-3.0161445,1.7507316000000002,1004.5692,5.66174867556507,1004.5765122187744,0,0
22.24,9.311269,-2.8826811,1.741263,1004.5868,5.662272384518894,1004.5764798141687,0,0
22.26,9.191777,-2.8683815,1.4240582,1004.5967,5.662582004952292,1004.5765239741285,0,0
22.28,9.115302,-3.0352108,1.5424185,1004.5838,5.662694504863625,1004.5765891875619,0,0
22.3,9.086626,-2.9494130000000003,1.6749822,1004.5888,5.662567285383598,1004.5766907690767,0,0
22.32,9.048389,-2.9589465,1.8454207,1004.5917,5.662224733440508,1004.5768345597344,0,0
22.34,9.10097,-2.9351134,1.7412641,1004.574,5.661740274091152,1004.5769514087443,0,0
22.36,9.143991,-2.9208138,1.6797171000000002,1004.55646,5.661184558877919,1004.5769808874584,0,0
22.38,9.177452,-2.9255807000000003,1.8454214,1004.5592,5.660698106520213,1004.5769429236548,0,0
22.4,9.268271,-2.854082,1.6986551,1004.57654,5.660353060481912,1004.5769079283133,0,0
22.42,9.3160715,-2.8588488,1.4714040000000002,1004.5815,5.6601547944173545,1004.5768935378873,0,0
22.44,9.15356,-3.0447447,1.5802954,1004.5942,5.6599205197425775,1004.5769431257704,0,0
22.46,9.249159,-3.0018458,1.5755614,1004.5765,5.6598125312697185,1004.5769853463713,0,0
22.48,9.2635,-2.839783,1.5850303999999995,1004.5908,5.659747693628223,1004.5770723852472,0,0
22.5,9.086651,-2.978013,1.622906,1004.5687,5.659474198329204,1004.5771191522113,0,0
22.52,9.067534,-2.9732466,1.774407,1004.574,5.659032235512606,1004.5771492465526,0,0
22.54,9.134454,-2.9303477000000004,1.665516,1004.5738,5.658506104198562,1004.577163780625,0,0
22.56,9.225272,-2.9065151,1.8170171,1004.5588,5.658125755914518,1004.5771105133213,0,0
22.58,9.282632,-2.882682,1.7744076000000002,1004.5713,5.657956803514054,1004.5770425284836,0,0
22.6,9.220497,-2.9112816,1.6181725,1004.58905,5.657815382326413,1004.5770256839784,0,0
22.62,9.034088,-3.0781112,1.5755633,1004.6042,5.657427775733281,1004.5771086277114,0,0
22.64,9.062768,-3.0638115000000004,1.6513137999999998,1004.576,5.65689648949818,1004.577177925734,0,0
22.66,9.167927,-2.98278,1.60397,1004.55835,5.656375979289791,1004.5771713769342,0,0
22.68,9.1625185,-2.9970644,1.7412101999999998,1004.576,5.655914166718043,1004.5771613734577,0,0
22.7,9.119478,-3.01613,1.7364738999999998,1004.5788,5.65543269053016,1004.5771584334414,0,0
22.72,9.27719,-2.992297,1.6133772,1004.5808,5.655183808017616,1004.5771689452826,0,0
22.74,9.1959095,-2.9970627,1.6891256999999995,1004.5863,5.655012321170823,1004.5772111053424,0,0
22.76,9.253245,-2.9827623,1.7601397,1004.5713,5.655038272085968,1004.5772270779919,0,0
22.78,9.08593,-3.0637937,1.6465118000000003,1004.5282,5.654924252775269,1004.5770646939444,0,0
22.8,9.071568,-3.082859,1.6370409,1004.5584,5.654668297645283,1004.576854018502,0,0
22.82,9.057206,-3.2020226000000003,1.8737593,1004.56586,5.654428452041983,1004.5766282872144,0,0
22.84,9.090641,-3.0208929,1.6985842,1004.5606,5.654081639862302,1004.5763711292143,0,0
22.86,9.124077,-2.8969617000000003,1.7411916,1004.58344,5.653643929695621,1004.5761693523407,0,0
22.88,9.25311,-2.9970589,1.6417671000000005,1004.5938,5.653405917141697,1004.5760545326268,0,0
22.9,9.243528,-3.0065913,1.698578,1004.59125,5.653352562834551,1004.5760077816096,0,0
22.92,9.286524,-2.9922912,1.5518094,1004.5788,5.65348718161149,1004.5759765243974,0,0
22.94,9.257822,-3.0256565,1.6370265,1004.56586,5.653781125120847,1004.5759124860367,0,0
22.96,9.22434,-3.054255,1.6370245,1004.58344,5.654167916637371,1004.5758830007916,0,0
22.98,9.319915,-2.9541574,1.5754752,1004.5529,5.654737740403283,1004.575774208826,0,0
23.0,9.448947,-2.9636896,1.5518012,1004.57574,5.6557180065641655,1004.5756779570936,0,0
23.02,9.262514,-2.8826578,1.5754713,1004.5663,5.656650319433857,1004.5755591484173,0,0
23.04,9.243371,-2.6443293,1.6512196,1004.5681,5.657385438016895,1004.5754273161364,0,0
23.06,8.860966000000003,-3.1209846000000003,1.8405938,1004.56335,5.657565803339102,1004.5752673507953,0,0
23.08,8.956536999999997,-2.8111577000000003,1.632278,1004.5779,5.657161918021897,1004.5751354829567,0,0
23.1,8.865699000000003,-3.426043,1.8547927,1004.5687,5.656566948155699,1004.574995796796,0,0
23.12,9.152466,-2.7348917,1.5612577,1004.576,5.655795203502118,1004.5748759852356,0,0
23.14,9.042508,-2.811156,1.764835,1004.55505,5.654773109188852,1004.5746987461943,0,0
23.16,9.037705,-3.0780828,1.5943944,1004.54,5.6536317043057895,1004.5744172222912,0,0
23.18,9.048471,-3.0542793,1.5282232,1004.58307,5.6523720278937954,1004.57419961777,0,0
23.2,9.177552,-2.8016524,1.4714128,1004.5656,5.651087763840175,1004.5739763837912,0,0
23.22,8.9768305,-3.23541,1.6749948,1004.53723,5.64974516205872,1004.5736468472656,0,0
23.24,9.148929,-2.930351,1.5850434,1004.5859,5.648456989466982,1004.5733997801416,0,0
23.26,9.201532,-2.8588533,1.7696877,1004.5779,5.647346129276126,1004.5731976724223,0,0
23.28,9.201557,-2.9923174,1.6229235,1004.5577,5.646425989734893,1004.5729632984207,0,0
23.3,9.101206,-2.9589522,1.637129,1004.54535,5.6454659044558015,1004.5726567976786,0,0
23.32,9.17771,-3.1019497000000005,2.0158837,1004.56006,5.644860814825705,1004.5723406251517,0,0
23.34,9.598361,-2.52043,1.4666952,1004.5679,5.6448548749787,1004.5720452688556,0,0
23.36,9.368955,-2.7825916,1.9259349,1004.54755,5.645232516419412,1004.5716961090648,0,0
23.38,9.077414,-2.7921255,2.2526114,1004.5427,5.645530427322321,1004.5712832054812,0,0
23.4,9.359448,-2.7015612,2.2147386000000004,1004.5525,5.6462338543614905,1004.5708507443347,0,0
23.42,9.249539,-2.7921267000000003,2.3141634,1004.54004,5.647178582318768,1004.5703577029865,0,0
23.44,9.3834,-2.7253954,2.2573528,1004.5425,5.648527430300272,1004.56982176392,0,0
23.46,9.211351,-2.9446576,1.9401499,1004.5604,5.649885004007695,1004.5693142898108,0,0
23.48,9.048864,-2.9303586,2.1295288,1004.54974,5.651003710541531,1004.5687954182448,0,0
23.5,8.919839,-3.211586,2.1532032,1004.5402,5.651855043082281,1004.5682339998233,0,0
23.52,8.752568,-3.2640188,2.2810342,1004.5397,5.6522467508566265,1004.5676352081067,0,0
23.54,8.87687,-2.9970925,2.17688,1004.5627,5.652236954640156,1004.5670883489968,0,0
23.56,8.728723,-3.2735534,2.6361196,1004.5297,5.652016218879551,1004.5664705462308,0,0
23.58,9.283209,-2.7444663,2.0301185,1004.5779,5.652031930085957,1004.5659658017404,0,0
23.6,9.369269,-2.6968012000000003,2.4751546,1004.5577,5.652605617388878,1004.5654900526222,0,0
23.62,9.354957,-2.4823067,2.5745797,1004.5679,5.653579484108077,1004.565078356512,0,0
23.64,9.4219,-2.3488436000000004,2.5698476,1004.576,5.654964352887943,1004.5647538997456,0,0
23.66,9.211615,-2.634838,2.759226,1004.56226,5.6565533087855435,1004.564458231708,0,0
23.68,9.159126,-2.763537,2.858657,1004.55023,5.658346986706147,1004.5641457577956,0,0
23.7,9.111357,-2.8731685,2.584064,1004.55255,5.660132223212769,1004.5638279111183,0,0
23.72,8.781578,-3.3116925000000004,2.7213643,1004.5752,5.661643611279015,1004.5635880013144,0,0
23.74,8.862864,-3.2068293,2.8870711,1004.55,5.663085478846238,1004.5633271002072,0,0
23.76,9.0349655,-2.9065366000000004,2.8539329,1004.56226,5.664571567303116,1004.5630927264276,0,0
23.78,8.944180000000003,-2.9446695,2.7024345000000003,1004.58093,5.665853984877857,1004.5629498479412,0,0
23.8,8.738674000000001,-3.0114021,2.352091,1004.56006,5.666413527837506,1004.5628131970578,0,0
23.82,8.925116000000003,-2.701577,2.375766,1004.54,5.6665097029009175,1004.562610324828,0,0
23.84,9.2836275,-2.768309,2.3662994,1004.5399,5.666922480478776,1004.5623493097563,0,0
23.86,9.51787,-2.6443796,2.5888197,1004.54974,5.668111496215325,1004.5620732833237,0,0
23.88,9.594377,-2.0914595,2.1390536,1004.5552,5.669645371883799,1004.561804642548,0,0
23.9,8.9634695,-2.7826111,2.4562612,1004.55225,5.670754258749057,1004.5615328748453,0,0
23.92,8.810543,-2.7921447999999995,2.6503744,1004.56757,5.671303541899585,1004.5613144745537,0,0
23.94,8.777113,-3.0924387,2.5746267000000005,1004.5472,5.671440873799875,1004.5610706839476,0,0
23.96,8.896636,-3.106739,2.1437984,1004.5825,5.671231810601347,1004.5609324161064,0,0
23.98,9.279052,-3.1544054,2.5036159,1004.5651,5.671654891540332,1004.5608252459433,0,0
24.0,9.307759,-2.7301824,2.3805242,1004.5627,5.672369918763528,1004.560737299502,0,0
24.02,9.27433,-2.9399116000000003,2.2716355,1004.5525,5.6733467270884255,1004.5606299357482,0,0
24.04,9.565926,-2.2392287,2.0538554,1004.5959,5.674647096349808,1004.5606620413668,0,0
24.06,9.365202,-2.6253204,1.9686387,1004.5571,5.675992875971433,1004.5606775865424,0,0
24.08,9.236177,-2.5204568,2.0917358,1004.54474,5.677116822594902,1004.560633946948,0,0
24.1,9.489534,-2.911315,2.1816921,1004.5529,5.6787957427982505,1004.5605675447932,0,0
24.12,9.045044,-2.9875808,2.333196,1004.5577,5.6802195701181635,1004.5604985486883,0,0
24.14,9.198024,-2.5538247000000003,2.072806,1004.56537,5.6813321703688135,1004.5604551209544,0,0
24.16,9.112018,-2.8255193,1.7840098999999998,1004.57025,5.682034798937732,1004.5604520097736,0,0
24.18,9.020786,-2.801676,1.5235796999999998,1004.57806,5.682086883053168,1004.5605126494987,0,0
24.2,9.2072115,-2.7349448,1.570925,1004.55505,5.681905897406456,1004.560546565222,0,0
24.22,9.154644,-2.8922412,1.6182698999999998,1004.54,5.68152719123199,1004.56050256552,0,0
24.24,9.379306,-2.5681157000000003,1.3200035,1004.55756,5.681136492837802,1004.5604530941476,0,0
24.26,9.427115,-2.6539142000000004,1.395755,1004.54504,5.6809003905418605,1004.560353894104,0,0
24.28,9.255054,-2.6825137000000003,1.357881,1004.5423,5.6804663942423925,1004.5602012469265,0,0
24.3,9.274183,-2.5252175,1.5519923999999998,1004.55505,5.679869791539072,1004.5600478233915,0,0
24.32,9.350672,-2.4298868,1.476243,1004.5373,5.679208664794045,1004.5598303661916,0,0
24.34,9.355463,-2.258291,1.5188537,1004.53973,5.678430366809303,1004.5595658596919,0,0
24.36,9.369815,-2.496619,1.5141203,1004.5425,5.677698806258906,1004.5592707046536,0,0
24.38,9.24555,-2.6014838,1.6230128,1004.55756,5.676858438762529,1004.5590037471252,0,0
24.4,9.226442,-2.6205502,1.5472631,1004.53253,5.6758722302930975,1004.5586725579633,0,0
24.42,9.255134,-2.4918535,1.3294816,1004.57025,5.674679872699753,1004.5584215980114,0,0
24.44,9.3746395,-2.5299861,1.4194365,1004.55756,5.673593874833733,1004.5581967480448,0,0
24.46,9.250375,-2.5204535,1.0359505,1004.5779,5.672252796206664,1004.5580690023213,0,0
24.48,9.202589,-2.8445792,1.5472673,1004.54474,5.670924511192372,1004.557908141792,0,0
24.5,9.212159,-2.8207470000000003,1.3862985,1004.5652,5.669566347711765,1004.5577922561175,0,0
24.52,9.298206,-2.649151,1.4525813,1004.57513,5.668276406322386,1004.5577522754138,0,0
24.54,9.346017,-2.839814,1.3720974,1004.53503,5.667232413803648,1004.5576351482724,0,0
24.56,9.336469,-2.6348522,1.3247545,1004.5656,5.66625847680612,1004.5575603281964,0,0
24.58,9.32692,-2.6729848,1.4052402,1004.55255,5.6653758191347405,1004.5574761799955,0,0
24.6,9.212215,-2.587187,1.1353803,1004.5472,5.664228064203581,1004.5573648323976,0,0
24.62,9.145309,-2.6396196,1.2821479,1004.5705,5.662785454789666,1004.5573137322632,0,0
24.64,9.221798,-2.6491528,1.6324949,1004.53973,5.661353684771645,1004.5572052787484,0,0
24.66,9.508597,-2.36316,1.4478540000000002,1004.54755,5.660293302367452,1004.5570746902192,0,0
24.68,9.598921,-2.4727783,1.5567002,1004.54474,5.65983416357537,1004.55691489731,0,0
24.7,9.684948,-2.3774471,1.4762145,1004.5348,5.6600063522861825,1004.5566940906652,0,0
24.72,9.474628,-2.6968062,1.3531193,1004.54224,5.660449555752609,1004.5564469511872,0,0
24.74,9.340785,-2.7111056,1.2158207,1004.5472,5.6608365599800265,1004.5561952897203,0,0
24.76,9.331217,-2.9017677,1.2110856,1004.52466,5.6612656023774575,1004.5558593946054,0,0
24.78,9.135236,-3.0209312,1.4951489,1004.52716,5.66150264158338,1004.5554592798613,0,0
24.8,9.140007,-2.9303665,1.585102,1004.55975,5.661550518695365,1004.5551211850653,0,0
24.82,9.484143,-2.611007,1.2868336,1004.59033,5.6618312360053755,1004.554949196238,0,0
24.84,9.431558,-2.544275,1.253692,1004.56256,5.662167084920566,1004.5548246258032,0,0
24.86,9.273815,-2.6968048,1.6182404,1004.5606,5.662433585742737,1004.5547353467143,0,0
24.88,9.527136,-2.5395079,1.5898331,1004.5372,5.663042188207562,1004.5545933324634,0,0
24.9,9.455431,-2.6491387000000004,2.0443354,1004.55975,5.664040118319826,1004.5544864126742,0,0
24.92,9.111276,-2.653905,1.6939883999999998,1004.54974,5.664567553314938,1004.554374851263,0,0
24.94,9.312019,-2.5585737,1.4004545,1004.5348,5.664923062013305,1004.5542058061354,0,0
24.96,9.493643,-2.3440783,1.9449102,1004.54974,5.665566320243499,1004.5540403609588,0,0
24.98,9.417157,-2.6777372,1.4998755,1004.5322,5.66632516187347,1004.5538155483008,0,0
25.0,9.2641945,-2.4966078,2.006456,1004.5472,5.666970509542304,1004.5535930878627,0,0
25.02,9.283305,-2.4346423,1.935439,1004.52716,5.667488739403237,1004.5533013627032,0,0
25.04,9.388452,-2.1820145,1.6655772,1004.5448,5.667874220047624,1004.5530129894464,0,0
25.06,9.302406,-2.3250113,2.1390169,1004.5373,5.6682297973993885,1004.5527016160747,0,0
25.08,9.288058,-2.1200490000000003,2.124813,1004.52716,5.668426251830852,1004.5523345367458,0,0
25.1,9.350186,-2.267812,2.0253897000000003,1004.56226,5.66862924229086,1004.5520459171183,0,0
25.12,9.31194,-2.296411,2.0253887,1004.5294,5.668775538877154,1004.5517093675136,0,0
25.14,9.225894,-2.3154771,1.9591062,1004.5323,5.668682554183321,1004.5513421185602,0,0
25.16,9.608271,-1.9246194,2.1295443,1004.52716,5.669035652796824,1004.5509305617584,1,2
25.18,9.287889,-2.072379,2.271564,1004.5399,5.669274039247591,1004.5505272001452,1,2
25.2,9.522086,-1.824518,2.3804540000000003,1004.57495,5.669825114384282,1004.5502587119037,1,2
25.22,9.574649,-1.7387195,2.3520463,1004.55,5.670709086149879,1004.5500205443308,1,2
25.24,9.397783,-1.8721826,2.3615139,1004.5473,5.6715882559845365,1004.5498003055037,1,2
25.26,9.158779,-1.8769491000000005,2.54142,1004.5068,5.672084322370398,1004.5494509013761,1,2
25.28,9.335617999999998,-1.8197501,2.5272155,1004.5373,5.6725579946020686,1004.5490984246441,1,2
25.3,9.077495,-2.0151784,2.3567755,1004.5243,5.6724929804652,1004.5486977018747,1,2
25.32,9.33559,-2.1105092,2.4372592,1004.52136,5.672542738891736,1004.5482452075094,1,2
25.34,9.139605,-2.2249062000000004,2.6076968,1004.5399,5.672453999850853,1004.547815340741,1,2
25.36,9.087014,-2.558565,2.6976492000000003,1004.519,5.672361536925584,1004.5473317752376,1,2
25.38,8.312672000000001,-3.9551656,2.1958008,1004.5268,5.671529680670438,1004.5468305823683,1,2
25.4,8.00675,-5.256435400000001,1.0737456,1004.53925,5.670409357228662,1004.546360438252,1,2
25.42,7.853782000000002,-6.367043,0.051113013,1004.5245,5.6700204026986025,1004.5458663213333,1,2
25.44,7.930244,-7.325121,-0.38445356,1004.54645,5.6717172203596995,1004.5454318208673,1,2
25.46,8.274379,-7.782710000000002,-0.55489326,1004.5372,5.676436564291048,1004.5450182617,1,2
25.48,10.171946,-7.863741,-0.39392486,1004.53424,5.686907077869482,1004.544614039078,1,2
25.5,11.687129,-7.5729804,-1.2650567,1004.53217,5.704750199835111,1004.5442120694285,1,2
25.52,12.805592,-5.85702,-0.27556717,1004.5118,5.729252676539064,1004.543740205596,1,2
25.54,12.920292,-4.7702446,0.18366876,1004.53424,5.7589064644183825,1004.5432890659737,1,2
25.56,11.969097,-2.9589527,0.7754681,1004.517,5.790053350669402,1004.5427957983657,1,2
25.58,10.831491,-1.1905594,1.2962513,1004.53644,5.819538651832781,1004.5423370662332,1,2
25.6,9.889855,0.105944335,1.5235014999999998,1004.5395,5.845440835742261,1004.5419215170826,1,2
25.62,8.455900999999999,-0.19434838,1.8975182,1004.5268,5.865301283535203,1004.5414999003917,1,2
25.64,8.479787,0.40623802,2.9438207000000003,1004.5118,5.8804107497596965,1004.541020440242,1,2
25.66,8.388955000000001,0.62549996,3.303634,1004.5495,5.891376478257612,1004.5406273156692,1,2
25.68,8.523374,0.310893,4.1700835,1004.5243,5.8995895432000705,1004.5402211724596,1,2
25.7,10.674296,0.6397851,3.7013783,1004.53674,5.909127790051423,1004.5398497720993,1,2
25.72,13.26496,-0.12763081,2.8870618,1004.5268,5.9245003256277275,1004.5394746235612,1,2
25.74,15.124313,-0.6185864000000001,3.5546138,1004.547,5.949072709775589,1004.5391702336681,1,2
25.76,15.420672,-1.9103236,2.4751704,1004.5497,5.982071647700112,1004.5389391819174,1,2
25.78,16.754248,-4.7559580000000015,1.8786361,1004.53186,6.026102923590548,1004.5387095395357,1,2
25.8,19.32101,-6.815111,2.9912224,1004.5239,6.08634939992687,1004.5384533131844,1,2
25.82,19.646048,-8.116382000000002,3.5688207000000003,1004.52893,6.162471689607954,1004.5381926276532,1,2
25.84,17.705458,-9.303254,2.896536,1004.52893,6.249553093796184,1004.5379289404584,1,2
25.86,14.373947,-8.712202,1.6655918,1004.5239,6.339105954686162,1004.5376454422673,1,2
25.88,11.166709,-8.388076,1.4336069,1004.54645,6.424594846894451,1004.5374266396736,1,2
25.9,8.251035,-7.8685217,1.4241388,1004.53143,6.500885923235782,1004.5372117177992,1,2
25.92,4.905183,-6.977175,0.51986843,1004.52893,6.562653373424188,1004.5369919986464,1,2
25.94,2.9024553,-6.7817464,-0.16661935,1004.54926,6.608941722379369,1004.536842019608,1,2
25.96,2.0946784,-6.510053,-0.8341695,1004.52374,6.640369337824872,1004.536662330859,1,2
25.98,3.4091372000000004,-6.8818455,0.5104025999999999,1004.52924,6.660231189897862,1004.5364768374893,1,2
