Timestamp,Ax,Ay,Az,P,LPFRMSAcc,LPFPValue,Value,Type
0.0,8.393763,-4.1918263,3.3144147000000004,1000.44293,0.02068167987565479,3.601594548,0,0
0.02,8.164334,-4.5064197,3.9204187,1000.4304,0.05990730990415151,10.372547190239999,0,0
0.04,8.117964,-4.725716,3.7974548,1000.4472,0.11541006605169868,19.919629695038395,0,0
0.06,8.409591,-4.549355,3.5228646,1000.45715,0.1852155598416784,31.88536686937612,0,0
0.08,8.232796,-4.4444919999999986,3.0636327000000003,1000.47705,0.2666907604013033,45.94522229589118,0,0
0.1,8.161128999999999,-4.4158936,3.1109793,1000.47144,0.35806373622047305,61.804804934494676,0,0
0.12,7.960435,-4.454027,2.8553271,1000.4466,0.4573782777168685,79.19744261620053,0,0
0.14,7.855337599999999,-4.697123,3.0305054,1000.4342,0.5635249586029543,97.88202959833751,0,0
0.16,7.831525999999997,-4.5779614,2.9500284,1000.4641,0.6751139888825513,117.64102610919971,0,0
0.18,7.893692999999999,-4.654227,2.9689686,1000.4588,0.7913046298801121,138.27821941220446,0,0
0.2,7.855483500000001,-4.7352595,2.9168928,1000.46356,0.9111270562077468,159.61711064085551,0,0
0.22,8.08981,-4.5445995,2.54762,1000.4709,1.0337216827407714,181.49922857218448,0,0
0.24,8.147226,-4.8019958,2.576032,1000.4731,1.15869724929637,203.7825739134469,0,0
0.26,8.094678,-5.0117245000000015,2.7038634,1000.48083,1.285525031605301,226.340251578898,0,0
0.28,7.932252,-5.2214550000000015,2.7843564,1000.4458,1.4135312538322164,249.0589955384065,0,0
0.30000000000000004,7.980108299999999,-5.1642575,2.5145004,1000.48303,1.5419849199169386,271.8384042250899,0,0
0.32,8.286045,-4.9688295999999985,2.5145032000000005,1000.4582,1.6706857760640732,294.5893210054332,0,0
0.34,8.558552,-4.7829356,2.4008832,1000.4726,1.7993714397641525,317.23321087692483,0,0
0.36000000000000004,8.333960000000001,-5.2071605000000005,2.3062,1000.4524,1.9275802507029585,339.7009410482179,0,0
0.38,8.577817,-5.4407244000000015,2.4435058,1000.4672,2.0556410767323223,361.9321859597989,0,0
0.4,8.549196,-5.3787603,2.533465,1000.4797,2.1830390963163904,383.8744850142166,0,0
0.42,8.549196,-5.3787603,2.533465,1000.46216,2.3093928272548925,405.4824160886489,0,0
0.44,8.166871,-5.621856,2.400907,1000.4692,2.4339282632193804,426.7171364080982,0,0
0.46,8.353371000000001,-5.5074606,1.7428327,1000.51636,2.556314897646986,447.5458124872943,0,0
0.48,8.415536999999999,-5.516995,1.7286322,1000.4995,2.6764743418814674,467.94066394591766,0,0
0.5,8.7310915,-5.250069,1.8091251,1000.48956,2.7945185289757526,487.8787307205522,0,0
0.52,8.726371,-5.1785727,1.5487381000000002,1000.4616,2.9100970553622063,507.34130485202525,0,0
0.54,8.70589,-5.3120027,1.5722857,1000.4889,3.023193552240377,526.3137666971273,0,0
0.56,8.6055155,-5.3501353,1.5770202,1000.47156,3.1335568196654826,544.7848020393501,0,0
0.5800000000000001,8.438227000000001,-5.8029585,1.430254,1000.5009,3.2412850915540967,562.7463868203963,0,0
0.6,8.17534,-5.9840870000000015,1.5060046,1000.4959,3.3460942821407658,580.1931413803752,0,0
0.62,8.117983,-5.8220243,1.3829103,1000.5133,3.4476193141081763,597.1222462806037,0,0
0.64,7.9602523,-5.5407977,1.1887999,1000.4981,3.5452247745636507,613.532956443835,0,0
0.66,7.902897,-5.7076273,1.0988464,1000.461,3.639096292371784,629.4264009008684,0,0
0.68,7.8885603,-5.6170626,0.98995525,1000.4608,3.7291732288656334,644.8055722598599,0,0
0.7000000000000001,7.792967,-5.774359,1.4065833,1000.5155,3.8157103798223084,659.6751638125295,0,0
0.72,7.5539804,-6.0079203,1.6006942,1000.5105,3.8987729986578654,674.0409421187431,0,0
0.74,7.4488273,-6.0889525,1.7095855,1000.4848,3.9784413166706334,687.9097417184862,0,0
0.76,7.640022,-5.798192,1.430256,1000.4902,4.054668988731284,701.2895026946322,0,0
0.78,7.926812599999999,-5.369202,1.1319888,1000.4802,4.127464876815833,714.1889460034545,0,0
0.8,8.008071000000001,-5.2881703,1.0893792,1000.50507,4.197002627290791,726.6176321575173,0,0
0.8200000000000001,8.2231655,-5.407335,1.3450375,1000.5026,4.263982783063523,738.5856051274801,0,0
0.84,8.170591,-5.6504292000000005,1.700118,1000.46686,4.3287638946577385,750.1032785612804,0,0
0.86,8.247067999999999,-5.7791266,1.7900718,1000.47705,4.391679922141772,761.1816403845654,0,0
0.88,8.098897000000001,-5.9411893,1.8800257,1000.50714,4.452701902693887,771.8320526902361,0,0
0.9,8.0989,-5.7409940000000015,1.728525,1000.4591,4.511535133627048,782.0658143738416,0,0
0.92,8.294872999999999,-5.488366,1.2645535,1000.497,4.5681178696566365,791.8947184657296,0,0
0.94,8.376135000000001,-5.5312660000000005,1.3639764,1000.48645,4.622723762779099,801.3304683548453,0,0
0.96,8.466953,-5.6885624,1.6101657,1000.46655,4.675795461477375,810.3847868507903,0,0
0.98,8.462174000000001,-5.6837955,1.671713,1000.4792,4.727327216826644,819.0695225611446,0,0
1.0,8.409599,-5.4025690000000015,1.5154778999999998,1000.4462,4.776854888654252,827.3963110735933,0,0
1.02,8.342685000000001,-5.3215375,1.4633998,1000.4838,4.8242117780537574,835.3769763633283,0,0
1.04,8.237719,-5.3501415,1.3876667,1000.49164,4.869307836123659,843.0231050024298,0,0
1.06,7.960506,-5.740999,1.5770441000000002,1000.4761,4.912286381640454,850.3460550499318,0,0
1.08,7.960511,-5.7838984,1.5723104,1000.4714,4.953289247060259,857.3570649537243,0,0
1.1,7.8314667,-5.836331,1.4681543,1000.4959,4.9922159682674465,864.0672931108818,0,0
1.12,7.711986500000001,-5.8744636,1.4634213,1000.48584,5.029017640863671,870.4875574793474,0,0
1.14,7.673753299999999,-5.8792305,1.4586874,1000.5107,5.063751172536696,876.6285863883977,0,0
1.16,7.8219423,-5.8029660000000005,1.4302823999999998,1000.50323,5.096672435450464,882.5007482494365,0,0
1.18,8.070501,-5.774367,1.4255488,1000.49304,5.128251029111406,888.1141627201523,0,0
1.2,8.041834,-5.7171683,1.368737,1000.4655,5.1583966622881325,893.4786405606842,0,0
1.22,8.089642999999999,-5.6123047,1.311925,1000.4856,5.1871081490729125,898.6039182345597,0,0
1.24,8.089652000000001,-5.6742697,1.2125034,1000.4853,5.214495937853896,903.4993865615518,0,0
1.26,8.060984,-5.4550085,1.1604259,1000.49036,5.240297097443081,908.1741898796604,0,0
1.28,8.14703,-5.4931417,1.2598493,1000.49286,5.2648199104286535,912.6371933039743,0,0
1.3,8.175714,-5.574173,1.2929906999999998,1000.4924,5.28827640818145,916.8969818738036,0,0
1.32,8.142265,-5.617071599999999,1.4018829,1000.48987,5.310729967347382,920.9618654513596,0,0
1.34,8.137501,-5.373978,1.6007293,1000.47504,5.331991388868631,924.8398440088628,0,0
1.36,8.175744,-5.373978,1.5249792,1000.4799,5.352163563159285,928.5387300638408,0,0
1.38,8.018025999999999,-5.60754,1.6386063999999998,1000.4745,5.371339484529844,932.0660345537897,0,0
1.4,7.9081009999999985,-5.7600694,1.7995771,1000.4745,5.38962222499673,935.4290312767143,0,0
1.42,7.8603125,-5.7505374000000025,1.5060448999999998,1000.4745,5.406857483085789,938.6347388684948,0,0
1.44,7.745607400000001,-5.7076379999999975,1.3592793,1000.49426,5.422818180967119,941.6899963726653,0,0
1.46,7.6834755,-5.702872,1.3024669,1000.4914,5.437470316885412,944.6013069564087,0,0
1.48,7.7265034,-5.955499,1.2219828,1000.5017,5.4512766168852425,947.3749824031613,0,0
1.5,7.884252,-5.8697019999999975,1.2598596000000002,1000.4837,5.464448184365041,950.0169934112607,0,0
1.52,7.9711137,-5.9316874,1.3309511,1000.4657,5.477250556009508,952.5330896817368,0,0
1.54,7.9711356,-5.7982244000000005,1.188921,1000.49426,5.489480297496617,954.9289725594748,0,0
1.56,7.9424777,-5.6981273,1.0421565000000002,1000.4765,5.5009565693207225,957.2099457690304,0,0
1.58,8.090695,-5.721960500000002,1.2031301,1000.45526,5.512041524709483,959.3810968282248,0,0
1.6,8.105078,-5.617098,1.4303855,1000.47314,5.5227035432451865,961.4474572595476,0,0
1.62,8.200739,-5.6742983,1.7097213,1000.4631,5.533272535879808,963.4137496505303,0,0
1.64,8.224658999999999,-5.6933646,1.8044113,1000.4826,5.543817854855955,965.2846134684604,0,0
1.66,8.286861,-5.602802,1.719198,1000.45575,5.554273984860693,967.0643248294972,0,0
1.68,8.334723,-5.655236,1.6008439,1000.4677,5.564715084185451,968.7571299387226,0,0
1.7,8.234369000000001,-5.6933684,1.4446104,1000.4532,5.57493077368734,970.3669983854553,0,0
1.72,7.904628,-5.9221650000000015,1.3546627,1000.4745,5.584608756363748,971.8978651508006,0,0
1.74,7.8807716,-6.022263,1.359401,1000.4574,5.5938633172238825,973.3533533501168,0,0
1.76,7.962071400000001,-5.884034,1.2173728,1000.4571,5.602635159118209,974.7369962109719,0,0
1.78,7.852179,-5.993666,1.3025961,1000.4602,5.610925861611106,976.0521865764644,0,0
1.8,7.7422867,-5.90787,1.2647247,1000.4476,5.618464061998665,977.302112271738,0,0
1.82,7.7327704,-5.998435,1.3073382,1000.4445,5.625420039239311,978.4898592119036,0,0
1.84,7.7327704,-5.998435,1.3073382,1000.44476,5.6318365225892775,979.6183900510713,0,0
1.86,7.728055499999999,-6.2224650000000015,1.2552658,1000.44476,5.638017954942051,980.6905348323752,0,0
1.88,7.9288497000000016,-6.0032043,1.3026137,1000.472,5.644030073330478,981.7090952357396,0,0
1.9,8.029268,-5.7410445,1.2884146,1000.4463,5.6497135658299955,982.6765491453034,0,0
1.92,8.158366000000001,-5.421686,1.1747928,1000.4745,5.654902184160262,983.5954640428708,0,0
1.94,8.086713,-5.4455204,1.3783761,1000.42865,5.659594235340881,984.468016715807,0,0
1.96,7.819087,-5.7362814,1.331036,1000.4485,5.6637106045697925,985.2965339974367,0,0
1.98,7.766530499999999,-5.826846,1.3499756,1000.4438,5.667333067132349,986.0831420250937,0,0
2.0,7.6088619999999985,-6.060409,1.6671866000000002,1000.4438,5.670644406302728,986.8298872470414,0,0
2.02,7.541301700000001,-5.931696400000001,1.6103148,1000.45825,5.673376897347296,987.5387734310648,0,0
2.04,7.593887,-5.869731400000001,1.5392995,1000.4463,5.675571083500082,988.211612358916,0,0
2.06,7.7898817,-5.984129,1.520364,1000.4433,5.6777377086987055,988.8501669110733,0,0
2.08,8.028879,-5.874499,1.454083,1000.46326,5.680109551060183,989.4562008484796,0,0
2.1,8.138829,-5.760102,1.3025835,1000.46326,5.6826571863671775,990.0313178485173,0,0
2.12,8.000238000000001,-5.8411339999999985,1.0753342,1000.44293,5.685160256480943,990.576973033496,0,0
2.14,7.9476686,-5.8459005,0.9853811,1000.45044,5.687513724792218,991.0946584360223,0,0
2.16,7.7612714999999985,-5.9364657,1.0279921,1000.4805,5.689539618768643,991.5858742873253,0,0
2.18,7.737387700000001,-6.084229,1.1463536,1000.47015,5.6914439643738435,992.051896006102,0,0
2.2,7.8664575,-6.0651636,1.3215281,1000.45264,5.693465014491844,992.493915475191,0,0
2.22,7.823454400000001,-6.0270314,1.4304208,1000.43726,5.695495011663449,992.9130799183673,0,0
2.24,7.7661195,-6.007965,1.3215315,1000.4625,5.697376882783238,993.310631532652,0,0
2.26,7.723117,-6.0317984,1.4020177,1000.4574,5.699104313358191,993.6876365055164,0,0
2.28,7.8904247,-5.8554363,1.3594096000000002,1000.4472,5.700730817188842,994.0450925281192,0,0
2.3,8.048173,-5.755339,1.3310045,1000.42224,5.70239550485888,994.3838984005904,0,0
2.32,8.029062,-5.807771,1.4209589,1000.45465,5.7041447573226085,994.7051219752632,0,0
2.34,8.072096,-5.836371,1.4256946,1000.4472,5.706070057247341,995.0096266067336,0,0
2.36,8.019532,-5.9841347,1.3026015,1000.4819,5.7082022486792425,995.2983870833162,0,0
2.38,7.6801895999999985,-6.046100599999999,1.4256982,1000.449,5.7100675915417165,995.5720780469247,0,0
2.4,7.7088839999999985,-5.95077,1.127432,1000.457,5.7115358682408965,995.8314971014003,0,0
2.42,7.6802125,-6.0747004,1.3168089,1000.4465,5.712807663748215,996.0773337883701,0,0
2.44,7.699347,-6.1080666,1.510921,1000.4437,5.7140322939752615,996.3102740033383,0,0
2.46,7.7806106,-5.9698367,1.4493744,1000.46674,5.715148689613794,996.5310632548725,0,0
2.48,7.962273599999999,-5.9364715,1.458846,1000.4561,5.716424843129832,996.74028276981,0,0
2.5,7.967061500000002,-5.8697405,1.544066,1000.4484,5.717790337835697,996.9384983552376,0,0
2.52,8.010095,-5.7982416,1.4730513,1000.4462,5.719192371773662,997.1262693724428,0,0
2.54,8.082195,-5.7267537000000015,1.4210097,1000.4583,5.720640943382869,997.3041791535044,0,0
2.56,8.067871,-5.7553535,1.4304799,1000.4561,5.722138300360253,997.4727271510976,0,0
2.58,7.929302000000002,-5.8792844,1.4872968999999998,1000.4586,5.72361006624421,997.6324053040274,0,0
2.6,7.924552999999999,-5.8506860000000005,1.3736739,1000.4657,5.72497717739367,997.7836967808616,0,0
2.62,7.76685,-6.050883,1.4257553,1000.4682,5.726252522729522,997.9270421413812,0,0
2.64,7.8003235,-6.0651827,1.4068191,1000.46075,5.7275090142719804,998.062823450227,0,0
2.66,7.805149,-5.9889183,1.3121351,1000.45013,5.728629316339933,998.1913941183026,0,0
2.68,7.8004,-5.9650865,1.1937778,1000.4697,5.7295564892728725,998.3132010617883,0,0
2.7,7.833889,-5.888822599999999,1.2127181,1000.46234,5.730274465133842,998.4285665772296,0,0
2.72,7.8052254,-5.9126554,1.3026732,1000.46716,5.7308112452661595,998.5378424829958,0,0
2.74,7.8004603,-5.9269557,1.3831595,1000.4519,5.731218693748963,998.641289280392,0,0
2.76,7.747913,-5.8506913,1.4021,1000.4468,5.731335026689718,998.7391947091617,0,0
2.78,7.7622985999999985,-5.941257,1.4873234,1000.46185,5.731355930686295,998.8319055050696,0,0
2.8,7.767109,-6.0175230000000015,1.5062639,1000.4697,5.7314018190311415,998.9197208245157,0,0
2.82,7.7336801999999985,-5.9984574,1.5204699,1000.47675,5.731395856741409,999.0029197458099,0,0
2.84,7.814967599999999,-5.8935943,1.4257845,1000.4842,5.73131658246997,999.0817669215803,0,0
2.86,7.8819156,-5.8602285000000025,1.2884896,1000.4493,5.731202845855401,999.1563594051738,0,0
2.88,7.872386,-5.950794,1.3784459999999998,1000.4716,5.7311803482927,999.2270041898182,0,0
2.9,7.848517399999999,-5.960328,1.4305273,1000.446,5.7312265133674725,999.2938143064467,0,0
2.92,7.9728384,-5.9555626,1.4210627,1000.44653,5.731528777577736,999.3569975019963,0,0
2.94,7.9824275999999985,-5.9650965,1.4826127,1000.4341,5.732102234331214,999.4167037425767,0,0
2.96,7.9967976,-5.8316336,1.3216457,1000.4585,5.732727143149671,999.4732106432804,0,0
2.98,8.06851,-5.7839684,1.283772,1000.4758,5.7334472125217975,999.5267494624263,0,0
3.0,7.762648599999999,-6.0413632,1.3784641000000002,1000.45795,5.734087619452759,999.5774086849588,0,0
3.02,7.729205,-6.103329,1.4778881,1000.46295,5.734709503692727,999.6253591227228,0,0
3.04,7.7579145,-6.0890307,1.4116091999999998,1000.4502,5.7353210023856604,999.6706975566893,0,0
3.06,7.7667966,-6.0365815000000005,1.435219,1000.43744,5.735876128511476,999.713518869738,0,0
3.08,7.742901299999999,-6.0508814000000015,1.3405313,1000.44775,5.736331239229175,999.7539990140166,0,0
3.1,7.7142243000000015,-6.0556480000000015,1.3831413,1000.4524,5.736668079029808,999.7922815130507,0,0
3.12,7.742906599999999,-6.084247,1.4399545,1000.4549,5.736998740162728,999.8284933557504,0,0
3.14,7.7668114,-5.9460177000000005,1.1890315,1000.44714,5.73711791846184,999.862717267879,0,0
3.16,7.7859335,-6.089014,1.3736736,1000.44495,5.737310914960747,999.8950535544716,0,0
3.18,7.8241777,-6.1080804,1.3878773000000002,1000.427,5.7376587201836875,999.9255409045088,0,0
3.2,7.8241777,-6.1080804,1.3878773000000002,1000.44965,5.738142062296381,999.9543663197452,0,0
3.22,7.996256,-5.917418,1.2789865,1000.4716,5.738757847644853,999.981698497897,0,0
3.24,7.953241999999999,-5.674324,1.2931901,1000.4671,5.7391260109928455,1000.0075966559197,0,0
3.26,7.728596,-5.9269514,1.4399571000000002,1000.45886,5.739253907011314,1000.032104816387,0,0
3.28,7.6330023,-6.0699487,1.5583174,1000.449,5.739232480131157,1000.055261049637,0,0
3.3,7.561307000000001,-6.1795792999999986,1.6293336,1000.439,5.739129629498336,1000.077103357558,0,0
3.32,7.494393,-6.2177114,1.6340684,1000.4438,5.73890062499076,1000.0977233287497,0,0
3.34,7.7238293,-6.0842480000000005,1.2458477,1000.4561,5.738637843015777,1000.1172332913112,0,0
3.36,7.78597,-6.0413494000000005,1.1890352,1000.44574,5.738378147719848,1000.135654918382,0,0
3.38,7.87679,-5.9507847,1.3642085,1000.4606,5.738203999487486,1000.1531020703554,0,0
3.4,8.087105000000001,-5.803022,1.3594744,1000.48303,5.738273053456825,1000.169706114386,0,0
3.42,8.053651,-5.779189,1.4494284,1000.4734,5.738498395534536,1000.1854707456796,0,0
3.44,8.053653,-5.779189,1.4873039,1000.4681,5.738872561262203,1000.2004178392059,0,0
3.46,7.819447,-6.003217,1.5725236,1000.4709,5.739291978566404,1000.214598826825,0,0
3.48,7.762091000000002,-5.988917400000001,1.5630548999999998,1000.4482,5.739635576856247,1000.2279701117084,0,0
3.5,7.790774000000001,-5.9460190000000015,1.5583208,1000.478,5.739902498957628,1000.2406850866291,0,0
3.52,7.666502499999999,-5.9746184,1.4352267,1000.4355,5.739895642307702,1000.2526213721576,0,0
3.54,7.590028999999999,-6.117615,1.5346495,1000.4647,5.739737421114378,1000.2639317571104,0,0
3.56,7.619797,-6.122408,1.5536869,1000.4775,5.739505984985063,1000.2746944589293,0,0
3.58,7.638963,-6.0461445,1.3832526000000005,1000.42725,5.739091048532426,1000.2847535822044,0,0
3.6,7.662886,-6.060445,1.3406451,1000.47,5.738560105650644,1000.294308710634,0,0
3.62,7.6629559999999985,-6.089046,1.3879955,1000.4672,5.7379788578468265,1000.3033740307563,0,0
3.64,7.758599,-5.993716,1.250702,1000.4996,5.7373511357436335,1000.3120905611056,0,0
3.66,7.6487107,-6.089048,1.397473,1000.4895,5.736668563960433,1000.3204311613023,0,0
3.68,7.648758,-6.04615,1.5016341999999998,1000.4691,5.735917044263989,1000.3283361234552,0,0
3.7,7.7539606,-6.0223184000000005,1.5489825000000002,1000.5018,5.735262344425914,1000.3359454179697,0,0
3.72,7.7587633,-6.0318522,1.6105319,1000.462,5.734735651022315,1000.3431227870973,0,0
3.74,7.892645,-5.941289,1.596333,1000.461,5.734424478129343,1000.3498890684253,0,0
3.76,7.940537,-5.717263,1.4116998,1000.4338,5.734053170734072,1000.3561698339604,0,0
3.78,7.959678999999999,-5.798295,1.4779836000000002,1000.4734,5.733779742379234,1000.3621415469844,0,0
3.8,7.811552499999999,-6.0080247,1.4732535,1000.46045,5.733606933744048,1000.3677720630436,0,0
3.82,7.811623,-6.1748557,1.6200265,1000.4829,5.7337814944153225,1000.3731616476068,0,0
3.84,7.811623,-6.1748557,1.6200265,1000.50085,5.7342623621873745,1000.3783835625952,0,0
3.86,7.8403254,-6.0080266,1.5963566,1000.42554,5.7348405155955176,1000.3831674098536,0,0
3.88,7.7257276,-6.1176605,1.4590697,1000.47546,5.735411582332056,1000.3877266706157,0,0
3.9,7.716191999999999,-6.003264,1.4401343,1000.4606,5.735807926659162,1000.3920175774107,0,0
3.92,7.725797999999997,-5.9222335999999975,1.5253577,1000.4853,5.7359889275187825,1000.3961448393763,0,0
3.94,7.706725599999999,-6.0556984000000025,1.5442996,1000.47754,5.736122195845032,1000.4000847106273,0,0
3.96,7.926644,-5.7840056,1.4969598999999998,1000.46765,5.736220905838381,1000.4038092159063,0,0
3.98,7.859773599999999,-5.8507385,1.7194811999999997,1000.48737,5.736334374695659,1000.4074010075936,0,0
4.0,7.979315299999999,-5.4408164,1.3359989,1000.4925,5.7360482241217206,1000.4108810711014,0,0
4.02,8.055816,-5.5361476,1.6390028000000003,1000.4596,5.735745602664013,1000.4141314433607,0,0
4.039999999999999,7.735639599999999,-5.912708,2.5290772999999995,1000.4945,5.735738102741808,1000.4172927990927,0,0
4.06,7.701158500000001,-5.8173513,2.3159359,1000.45416,5.735712313610862,1000.4202188949413,0,0
4.079999999999999,7.5768886,-6.022313,2.6047347000000003,1000.4939,5.735873543083573,1000.4230696452112,0,0
4.1,7.6772695,-5.926982,3.1586607000000004,1000.477,5.736567847235851,1000.4257827174263,0,0
4.119999999999999,7.4621863,-5.7124877,3.1113172,1000.4963,5.7371050926924685,1000.4284338502534,0,0
4.14,7.3331339999999985,-5.7792195999999985,3.059239,1000.4864,5.737347373368098,1000.4309850693584,0,0
4.159999999999998,7.294898,-5.836418,3.045036,1000.49164,5.737330094902843,1000.4334576843097,0,0
4.18,7.314022500000001,-5.7649198,3.1349902000000003,1000.48395,5.737084149070633,1000.4358242592174,0,0
4.199999999999998,7.380947,-5.9603486,2.9077396,1000.51373,5.736837179668624,1000.4381958254726,0,0
4.22,7.4000745,-5.783986,3.2060075,1000.4957,5.736593859960783,1000.440498356444,0,0
4.239999999999998,7.452654400000001,-5.660056,3.2580864,1000.5082,5.736323133316456,1000.4427765987268,0,0
4.26,7.294928599999999,-5.80782,3.2864933,1000.5231,5.735982376709553,1000.445078817853,0,0
4.2799999999999985,7.519584700000001,-5.8411856,3.8262160000000014,1000.4728,5.736360396398339,1000.4472128549285,0,0
4.3,7.409651299999997,-5.80782,3.8309505,1000.47546,5.737169300302233,1000.4492001798103,0,0
4.3199999999999985,7.2232413,-5.7982864,3.5563552000000005,1000.49286,5.7378524052726165,1000.4511133554288,0,0
4.34,7.390544999999999,-5.574259,3.7978108,1000.4872,5.738596377561192,1000.4529337493256,0,0
4.3599999999999985,7.366648,-5.6648235,3.8356864,1000.4774,5.7394903385516685,1000.4546303278754,0,0
4.38,7.1276636,-5.6314573,3.3338401,1000.4873,5.73972995442073,1000.4562470355015,0,0
4.4,7.505273,-5.555193,3.6699831,1000.4842,5.740131537150979,1000.4577761890324,0,0
4.42,7.4861584,-5.416963,3.5610924,1000.4842,5.740404693920523,1000.4592224748116,0,0
4.44,7.337986999999999,-5.621924400000001,3.6652496,1000.4842,5.740649128349367,1000.4605903320167,0,0
4.46,7.055983500000001,-5.7553883,4.0913463,1000.4817,5.740947031811153,1000.461874965448,0,0
4.48,7.2663,-5.5361265999999985,3.698391200000001,1000.5066,5.74102659806662,1000.4631710776724,0,0
4.5,7.5817723,-5.3263984,3.433265,1000.4817,5.740967209653032,1000.4643830265538,0,0
4.52,7.2280746,-5.464629,3.6889236,1000.50635,5.7405817175225975,1000.46560498569,0,0
4.539999999999999,7.165942,-5.86502,4.2523184,1000.50885,5.740754040036125,1000.4668403908344,0,0
4.56,7.041640299999999,-5.688657,3.854626,1000.49615,5.740689328130988,1000.4680375094127,0,0
4.579999999999999,7.251953,-5.674357,3.8593605,1000.5012,5.740717391684292,1000.469214668355,0,0
4.6,7.4383698,-5.5885587,3.7078598,1000.4887,5.740892361065724,1000.47032495319,0,0
4.619999999999999,7.213725,-5.8030542999999986,4.086613,1000.4806,5.741413701902803,1000.4713429910388,0,0
4.64,7.1276902999999985,-5.717256,4.0155970000000005,1000.49786,5.741949934659097,1000.4723379905143,0,0
4.659999999999998,7.223292,-5.588559,3.4095933,1000.48987,5.742014608325811,1000.473280287285,0,0
4.68,7.223292,-5.588559,3.4095933,1000.4954,5.741662379555772,1000.4741925316772,0,0
4.699999999999998,7.381031,-5.655291,3.5279540000000003,1000.48254,5.74135202106261,1000.4750286417084,0,0
4.72,7.1755020000000025,-5.788755,3.4995480000000003,1000.5152,5.740905154585969,1000.4759120454216,0,0
4.739999999999998,7.366700999999999,-5.5742598,3.4143293,1000.50037,5.740313332014443,1000.4767806695793,0,0
4.76,7.4814205,-5.5170617,3.3196414,1000.5077,5.73964102089451,1000.477659495474,0,0
4.7799999999999985,7.58658,-5.4455633,3.2865010000000003,1000.50684,5.738961174347991,1000.4785410758512,0,0
4.8,7.5913634,-5.374065,3.423799,1000.4973,5.7383002322250585,1000.4793875723994,0,0
4.8199999999999985,7.538787400000001,-5.4074306,3.4474714,1000.5302,5.737629718636929,1000.4803184614888,0,0
4.84,7.4718738,-5.6028595,3.575300700000001,1000.47723,5.737166780851848,1000.4811298766267,0,0
4.8599999999999985,7.5005565,-5.593327,3.7125988,1000.52216,5.737025994301143,1000.4819945514868,0,0
4.88,7.7491119999999984,-5.378832,3.4285347,1000.49445,5.737109198572409,1000.4828034178081,0,0
4.9,7.720435,-5.3835983,3.3385812999999995,1000.49445,5.737286111250553,1000.483560059785,0,0
4.92,7.796916,-5.335932700000001,3.4048636,1000.48914,5.737661700938332,1000.4842487164208,0,0
4.94,7.691764,-5.3216333,3.253363,1000.50604,5.737920776461476,1000.4849356620447,0,0
4.96,7.663087400000001,-5.335932700000001,3.2202222000000003,1000.49194,5.738023169661592,1000.4855678628153,0,0
4.98,7.7013289999999985,-5.402665,3.3291137,1000.504,5.738197911856832,1000.4861928311096,0,0
5.0,7.677438,-5.3788323,3.125535,1000.50146,5.738233094496884,1000.4868000149023,0,0
5.02,7.677438,-5.3788323,3.125535,1000.50116,5.738144835656472,1000.487388218448,0,0
5.039999999999999,7.5675063,-5.5408955,3.1255355,1000.47614,5.737957682759948,1000.4878674615152,0,0
5.06,7.453015,-5.483702,3.1729,1000.4756,5.737466979775003,1000.4882467578273,0,0
5.079999999999999,7.515165,-5.4598694000000005,3.1350257000000004,1000.5158,5.7367555168205895,1000.4886810957204,0,0
5.1,7.491278,-5.4741693,3.3196688,1000.48114,5.735956194190584,1000.4890377287384,0,0
5.119999999999999,7.639464999999999,-5.355006,3.3812172,1000.5029,5.735225480094154,1000.4894027538494,0,0
5.14,7.59646,-5.3597730000000015,3.2959993,1000.4984,5.73443478893551,1000.4897576801236,0,0
5.159999999999998,7.692075,-5.307341,3.2817976000000004,1000.5029,5.733679016082339,1000.4901186053313,0,0
5.18,7.7685637,-5.259676,3.2581267000000005,1000.50793,5.733011731919183,1000.4905016398656,0,0
5.199999999999998,7.935863499999999,-5.24061,3.442769,1000.50006,5.732804994504933,1000.4908744992764,0,0
5.22,7.9836807,-5.3121085,3.5800686,1000.4876,5.733259233009348,1000.4911921696544,0,0
5.239999999999998,7.81162,-5.273977,3.362287,1000.4702,5.733820144846183,1000.4913972913896,0,0
5.26,7.9120026,-5.207245,3.4191008000000003,1000.50494,5.734604171288919,1000.491627290706,0,0
5.2799999999999985,7.849883599999999,-5.1595798,3.4948528,1000.4999,5.735484299721991,1000.4918602998556,0,0
5.3,7.5822277,-5.2787437000000015,3.2676024,1000.4945,5.735982363843558,1000.4920756896604,0,0
5.3199999999999985,7.5822344,-5.3454760000000014,3.3906977,1000.5123,5.7363025169727715,1000.4923388156093,0,0
5.34,7.491430800000002,-5.3407097000000014,3.3906987,1000.51733,5.736314398968997,1000.4926612819612,0,0
5.3599999999999985,7.630057300000002,-5.2882776,3.4238408,1000.497,5.73624004532277,1000.492961832615,0,0
5.38,7.701767,-5.221546,3.527999,1000.5243,5.736207287921562,1000.4933402165753,0,0
5.4,7.725678999999999,-5.202481,3.3907022000000007,1000.494,5.7361298116172375,1000.4936769318628,0,0
5.42,7.75915,-5.150049,3.6795022,1000.4915,5.736223536649808,1000.4939666165362,0,0
5.44,7.5966496,-5.192948,3.3575637,1000.5163,5.736015215547964,1000.4943029820939,0,0
5.46,7.697037700000001,-5.278746,3.755255000000001,1000.5015,5.736091620518288,1000.4946261039653,0,0
5.48,7.735282400000001,-5.2596803,3.8168027,1000.5059,5.7365075028663135,1000.4949522004766,0,0
5.5,7.568009,-5.1786494,3.6321628,1000.5113,5.736724148373176,1000.4952991914322,0,0
5.52,7.811785,-5.0976186,3.8925555,1000.52124,5.737271427261605,1000.4956991795517,0,0
5.539999999999999,7.591926600000002,-5.073786,3.8404784,1000.50635,5.737690174692032,1000.4960909520073,0,0
5.56,7.577787,-5.154822,3.9067783,1000.51135,5.7381118465808205,1000.496492054722,0,0
5.579999999999999,7.5252395,-5.1881886,3.6747952000000006,1000.51556,5.738303043553383,1000.4969151136836,0,0
5.6,7.4057546,-5.178656,3.6511242,1000.50037,5.7380718273874285,1000.4973013661728,0,0
5.619999999999999,7.4535832,-5.2310886,3.968332,1000.4825,5.73785617057799,1000.4975893739543,0,0
5.64,7.372337,-5.2167897000000005,3.7931597,1000.478,5.737369162373294,1000.4977733358836,0,0
5.6599999999999975,7.444064,-5.240623,3.992008,1000.523,5.736945338453531,1000.4980267006353,0,0
5.68,7.4345145000000015,-5.202491,3.9967432,1000.4954,5.736526272271862,1000.4982411176072,0,0
5.6999999999999975,7.530131,-5.25969,4.261871299999999,1000.485,5.736550461397133,1000.4983829084206,0,0
5.72,7.362878999999999,-5.212025,3.8973262,1000.4951,5.736344909987588,1000.4984963763127,0,0
5.7399999999999975,7.4393754,-5.259691,3.835780600000001,1000.48737,5.736058938461715,1000.4985565815876,0,0
5.76,7.243414,-5.2739910000000005,3.7410936,1000.485,5.735337624510898,1000.4985609752748,0,0
5.7799999999999985,7.147837599999999,-5.431288200000001,3.902065,1000.5224,5.734398267968317,1000.4986506780258,0,0
5.8,7.281692999999999,-5.3693230000000005,3.854723,1000.4974,5.733364428310339,1000.4987254369356,0,0
5.8199999999999985,7.4968038,-5.478955,4.1293206,1000.4946,5.732932755711249,1000.4987766423352,0,0
5.84,7.468146000000001,-5.2310944,4.157728700000002,1000.5097,5.732741425428742,1000.4988612115144,0,0
5.8599999999999985,7.37257,-5.1691294,3.5753987,1000.507,5.732070714584327,1000.4989652364792,0,0
5.88,7.6880570000000015,-5.273994,3.8547306,1000.4822,5.731811415357938,1000.4989967980868,0,0
5.9,7.425188499999999,-5.3454932999999984,4.039374,1000.5045,5.7317349087168825,1000.4990444974504,0,0
5.92,7.506455,-5.550455,4.1719384,1000.51685,5.7322862259069245,1000.4991507444173,0,0
5.94,7.554283,-5.2692294,3.7221727,1000.507,5.732784799075238,1000.499272881557,0,0
5.96,7.444368400000001,-5.302594999999998,3.6653616,1000.499,5.7330547204178135,1000.49937981956,0,0
5.98,7.39658,-5.0738015,3.1493125,1000.51886,5.732412840115607,1000.4995444386293,0,0
6.0,7.640381,-5.3979278,3.9210231,1000.489,5.7322915372575425,1000.4996519360598,0,0
6.02,7.621282000000001,-5.335963,3.7505865,1000.49097,5.7323973929202054,1000.4997156658195,0,0
6.039999999999999,7.621282000000001,-5.335963,3.7505865,1000.4781,5.7327035847713965,1000.4996941610382,0,0
6.06,7.635525,-5.2835283,3.7363746,1000.48834,5.733139441336324,1000.4996342844338,0,0
6.079999999999999,7.678559,-5.1786647000000015,3.4333742,1000.498,5.7334154591261735,1000.499575494042,0,0
6.1,7.5829710000000015,-5.1786647000000015,3.248733,1000.4913,5.733263975715133,1000.4994937550734,0,0
6.119999999999999,7.7550664,-5.2167974,3.6511598,1000.4831,5.733346257062942,1000.4993625130023,0,0
6.14,7.707283500000001,-5.212031400000001,3.419175,1000.4856,5.733381720725875,1000.4991970024618,0,0
6.1599999999999975,7.793328,-5.1453,3.528067,1000.48303,5.7335218500608125,1000.4989925561392,0,0
6.18,7.5925984,-5.2739973,3.5754132000000003,1000.5054,5.733606530568715,1000.4988349741662,0,0
6.1999999999999975,7.702542,-5.183433,3.5564760000000004,1000.5054,5.73370466892046,1000.498719368828,0,0
6.22,7.635648,-5.207267,3.7316513,1000.48505,5.733866368177647,1000.4985680102237,0,0
6.2399999999999975,7.5783124000000015,-5.2311,3.750591000000001,1000.4854,5.734033350194273,1000.4983868649235,0,0
6.26,7.606999000000001,-5.131002400000002,3.5801532,1000.48004,5.734010014914527,1000.498160756223,0,0
6.2799999999999985,7.6213617,-5.131003,3.70325,1000.49963,5.733935939290039,1000.4979662558528,0,0
6.3,7.568799,-5.3264318,3.8121424,1000.47784,5.734032664847352,1000.4977219408045,0,0
6.3199999999999985,7.568799,-5.3264318,3.8121424,1000.48975,5.734279962116895,1000.4974773650407,0,0
6.34,7.6214,-5.188202,3.7742696,1000.4999,5.734561408345534,1000.497269979382,0,0
6.3599999999999985,7.726563,-5.1548370000000014,3.7079883,1000.5126,5.734952496039567,1000.497141921488,0,0
6.38,7.587971,-5.2263355,3.6606462,1000.4795,5.735258599567608,1000.4969652586155,0,0
6.4,7.635777,-5.240636,3.6890533,1000.4745,5.735602059442624,1000.4967282843704,0,0
6.42,7.568883,-5.2025037,3.660649,1000.5295,5.7358072867092735,1000.4966368721035,0,0
6.44,7.525871799999999,-5.2501693,3.7269313,1000.49695,5.735925198076601,1000.4965572274854,0,0
6.46,7.5211070000000015,-5.2740026,3.651182700000001,1000.4889,5.7359256472596325,1000.4964592874817,0,0
6.48,7.5737004,-5.2215705,3.7032623,1000.47644,5.735888075579679,1000.4963006782593,0,0
6.5,7.502026,-5.288303400000001,3.7884839,1000.4914,5.735844196570669,1000.4961428887086,0,0
6.52,7.53072,-5.2454042,3.5896401,1000.4836,5.735638617000138,1000.4959583114623,0,0
6.539999999999999,7.521176,-5.2168055,3.5801728,1000.49084,5.735236966688645,1000.4957767930864,0,0
6.56,7.545272,-5.2501760000000015,3.6228,1000.4931,5.734771015355247,1000.495606766994,0,0
6.579999999999999,7.5548654000000015,-5.2740097000000015,3.76957,1000.48834,5.734405079039547,1000.4954303715781,0,0
6.6,7.5548654000000015,-5.2740097000000015,3.76957,1000.50073,5.734128833364223,1000.4952935872503,0,0
6.619999999999999,7.636145,-5.2311115,3.7032905,1000.49554,5.733962956694713,1000.4951736117044,0,0
6.64,7.6409707,-5.2120457,3.689091200000001,1000.48346,5.733871173128416,1000.4950254323101,0,0
6.6599999999999975,7.6409707,-5.2120457,3.689091200000001,1000.4856,5.7338451886489565,1000.4948605694408,0,0
6.68,7.612337599999999,-5.2263470000000005,3.622814,1000.4928,5.733796704030262,1000.4947074785592,0,0
6.6999999999999975,7.636247999999997,-5.274013,3.7695816,1000.4774,5.733931822303823,1000.4945099005338,0,0
6.72,7.6123834000000015,-5.231115,3.6843655,1000.4923,5.734077729601071,1000.4943273649484,0,0
6.7399999999999975,7.607626,-5.192983,3.4855223,1000.4948,5.734033586494143,1000.4941677779916,0,0
6.76,7.6363277,-5.2787814000000015,3.7317135,1000.4956,5.734147550341897,1000.4940319229556,0,0
6.7799999999999985,7.588552,-5.2883153,3.7033093,1000.4826,5.734313601170293,1000.493870726523,0,0
6.8,7.626802,-5.302615,3.6749039,1000.4774,5.734579647462354,1000.4936689987396,0,0
6.8199999999999985,7.6172767000000015,-5.2549505,3.6133597,1000.5067,5.73481865608446,1000.4935376636753,0,0
6.84,7.6172767000000015,-5.2549505,3.6133597,1000.48724,5.735032913790354,1000.4933989444228,0,0
6.8599999999999985,7.579084,-5.2692510000000015,3.4429252,1000.51984,5.7350530423451875,1000.4933715598912,0,0
6.88,7.841995699999999,-4.91176,3.2440827000000003,1000.4638,5.734804829706584,1000.493240905304,0,0
6.9,7.8850255,-5.0023246,3.3435059000000003,1000.4921,5.7345553500563655,1000.4931213516513,0,0
6.92,8.061891000000001,-5.121489,3.788541,1000.4966,5.7350468137498485,1000.493028237178,0,0
6.94,7.1442017999999985,-5.2120543,3.679653,1000.5786,5.734743149437372,1000.4932540195754,0,0
6.96,7.517038,-5.0738244,3.7554045,1000.4762,5.734231798041858,1000.4933921264313,0,0
6.98,7.684365,-5.2025228,4.0252686,1000.452,5.734160907746329,1000.493365145994,0,0
7.0,7.1633782,-5.3741193,3.0357792000000003,1000.4663,5.7331086853372515,1000.493243871554,0,0
7.02,7.842144,-5.274021599999998,4.143633,1000.5214,5.73298763681458,1000.4932380755214,0,0
7.039999999999999,7.4024253,-5.0499945,3.8785083,1000.506,5.732536598515455,1000.493278897075,0,0
7.06,7.985103,-4.7306237,3.8595288,1000.4536,5.732392991325653,1000.4931721229705,0,0
7.079999999999999,7.545363,-5.1071815,3.4949796,1000.47314,5.731912398558039,1000.4930056617288,0,0
7.1,6.9478908,-5.62197,3.3860888,1000.5159,5.730717701147327,1000.4929409961934,0,0
7.119999999999999,7.703106,-5.3741097,3.9068737,1000.5132,5.730174913351001,1000.49295679014,0,0
7.14,7.535814299999997,-5.3741097,3.6086066,1000.5107,5.729714864793304,1000.4930346212268,0,0
7.1599999999999975,7.554937400000001,-5.183447,3.5233877,1000.48065,5.7290841588367485,1000.4930588081387,0,0
7.18,7.578840299999999,-5.33121,3.7174985,1000.48596,5.728653534994593,1000.4930546239847,0,0
7.1999999999999975,7.741358,-5.221579599999999,3.9731567,1000.47815,5.728741857882872,1000.4929972702199,0,0
7.22,7.497591000000001,-5.269245,3.7032962,1000.4656,5.7287399123267,1000.4928479622604,0,0
7.239999999999997,7.717467999999997,-5.264479,4.091518,1000.4984,5.729312440434562,1000.4927360210837,1,1
7.26,7.416342299999997,-5.340744,3.708031,1000.48553,5.729692283172188,1000.4926111681835,1,1
7.2799999999999985,7.583639,-5.288312,3.8169227,1000.5132,5.7301904847357985,1000.4925749679556,1,1
7.3,7.5645237,-5.288312,3.8074543,1000.5035,5.730753854970122,1000.4925823115497,1,1
7.3199999999999985,7.6075473,-5.474208,3.8974085,1000.48804,5.731718237601802,1000.4925724480277,1,1
7.34,7.435478,-5.38841,3.854799,1000.49786,5.732635478244956,1000.4925827678067,1,1
7.3599999999999985,7.272969199999999,-5.3455114,3.3576870000000003,1000.4979,5.732824878211175,1000.4926110283997,1,1
7.38,7.09612,-5.636271,3.6133451,1000.4699,5.7326314420995175,1000.4925542397568,1,1
7.399999999999999,6.94795,-5.7554349999999985,3.4665790000000003,1000.4753,5.7319118026385585,1000.4924419460492,1,1
7.42,6.5321107000000005,-6.265457,2.6948714,1000.4876,5.7302697699357426,1000.4923252923234,1,1
7.439999999999999,6.689846000000001,-6.2702227,3.1304367,1000.50995,5.728327318108749,1000.4922856660388,1,1
7.46,7.23475,-5.9651637000000015,1.6722407,1000.4996,5.725785844478282,1000.4922769838561,1,1
7.479999999999999,7.23475,-5.9651637000000015,1.6722407,1000.49506,5.722724224487331,1000.4922793311372,1,1
7.5,7.5215416,-5.8984323,1.4544585,1000.4777,5.719512839484202,1000.492228919603,1,1
7.52,7.378151400000001,-6.2606907,1.8379457,1000.4823,5.716556683982558,1000.4921486318608,1,1
7.539999999999999,7.3924966,-5.8269334000000015,1.8994933,1000.5096,5.713323683430861,1000.4921405145373,1,1
7.56,8.368634,-5.24544,1.5681818,1000.50494,5.710684466429808,1000.4921794202176,1,1
7.579999999999999,9.687883,-4.8069177000000005,2.7139099,1000.50006,5.710969234680241,1000.492242167364,1,1
7.6,12.063492,-2.3998072,3.6702638,1000.5001,5.7173400750416254,1000.49232589894,1,1
7.619999999999999,15.72489,-0.81254554,6.837586999999999,1000.49225,5.738066599701713,1000.4923996109244,1,1
7.64,16.322388,-0.9555428,5.5971746,1000.5096,5.771643133924023,1000.4925266642343,1,1
7.659999999999997,17.397913,-3.2911572,5.4740867999999985,1000.522,5.819054269623172,1000.4927450325481,1,1
7.68,16.537569,-4.0156746,5.8481064000000025,1000.5344,5.8773998945574775,1000.4930879406724,1,1
7.699999999999997,12.7185755,-6.0509963,3.604005,1000.527,5.938012981569169,1000.4935130177048,1,1
7.72,8.861342,-6.565785400000001,0.6734149,1000.5472,5.993159338718195,1000.4940818889073,1,1
7.739999999999997,8.00578,-6.7373824,0.35621187,1000.50745,6.0420718616045965,1000.4946326687013,1,1
7.76,6.089124,-7.843225,0.28993434,1000.5121,6.084186240081878,1000.4951822201199,1,1
7.7799999999999985,4.726903,-8.448578,-0.06987832,1000.47705,6.119617573728656,1000.4956025277612,1,1
7.8,1.9594651,-10.660262,-1.788461,1000.5096,6.15172682744862,1000.4960243024933,1,1
7.8199999999999985,2.3131936,-11.394313,-1.3244872,1000.47174,6.182274381885924,1000.4963095591572,1,1
7.84,2.3371607999999995,-14.835769,-1.0546198,1000.48724,6.2183027313538215,1000.4965289615326,1,1
7.8599999999999985,6.0463343,-13.96349,0.45565942,1000.4848,6.25939225114659,1000.4966806012101,1,1
7.88,8.221191000000001,-13.939657999999998,0.053239208,1000.4622,6.306801861015843,1000.4966904598643,1,1
7.899999999999999,10.070998,-13.710864,0.07217892,1000.45996,6.361347885812386,1000.496566941316,1,1
7.92,14.817388,-12.857652,0.9906576,1000.4898,6.427471541225145,1000.496433439338,1,1
7.939999999999999,15.86899,-12.319031,2.1837318,1000.4851,6.504760468312763,1000.4962746766086,1,1
7.96,14.296481,-10.255113,2.8086774,1000.4892,6.5866677593510365,1000.496108925025,1,1
7.979999999999999,11.983124,-8.119698,3.2111082000000004,1000.47925,6.666146101238207,1000.4959017747957,1,1
8.0,11.352213,-7.199753,1.9943682,1000.49725,6.740621214741743,1000.495723590464,1,1
8.02,10.8360405,-6.04148,1.2321332,1000.5019,6.8080743049572074,1000.4955883818624,1,1
8.04,10.974677,-5.0357375,1.440449,1000.47925,6.868441854518025,1000.4954100933676,1,1
8.059999999999999,10.993865,-1.6848495,3.1590443,1000.46185,6.921087711160245,1000.4951317413173,1,1
8.08,11.634403,-0.6505078000000001,2.6240606,1000.49725,6.967515599697949,1000.4948934151773,1,1
8.1,11.87211,-0.8459051,1.8995792,1000.47424,7.008507583388743,1000.4946084779048,1,1
8.12,14.042135,-2.0375443,2.5245202,1000.5071,7.049452295656222,1000.4944016768106,1,1
8.139999999999999,14.190307,-7.0138289999999985,3.627636,1000.499,7.094005989608745,1000.4942355013274,1,1
8.16,14.558349,-8.763156,4.0537324,1000.5245,7.144144156874336,1000.4941976208653,1,1
8.18,15.547763,-10.698378,3.2252111,1000.5543,7.202522670464567,1000.4943805182544,1,1
8.2,15.437825,-12.528735,2.8890681,1000.5413,7.269934896306106,1000.4947110365213,1,1
8.219999999999999,15.184491,-15.893923999999998,2.7470355,1000.5869,7.3493716113159016,1000.4953349627305,1,1
8.24,14.003874,-16.098886,3.6891816,1000.5745,7.438111002936437,1000.4961712580632,1,1
8.26,11.150329,-14.878648000000002,2.728097,1000.55676,7.5288027693587765,1000.4971283280901,1,1
8.28,9.969715,-14.311426999999998,2.131562,1000.52386,7.618355888998692,1000.4980702291846,1,1
8.299999999999999,6.8246,-12.156943,0.99056995,1000.5021,7.699108933617351,1000.4989170001668,1,1
8.32,4.7740602,-8.920451,0.3750971,1000.5244,7.763789042628432,1000.499756945806,1,1
8.34,3.0055294,-7.0471945000000025,0.33248714,1000.4945,7.808929534480681,1000.5004801967681,1,1
8.36,0.06116676,-8.443795,-0.32086104,1000.49725,7.838266751581365,1000.5011076326094,1,1
8.379999999999999,-0.7561815,-9.244577,-0.99314666,1000.437,7.855360217337965,1000.5014312474416,1,1
8.4,-0.4502776,-9.778432,-1.6464949,1000.4445,7.862816133603134,1000.5015122410164,1,1
8.42,4.4107775999999985,-12.237974,-0.7516929,1000.4624,7.868180956536242,1000.5014430028715,1,1
8.44,8.105561999999999,-13.7966385,0.233063,1000.4749,7.877857842289175,1000.5012862692364,1,1
8.459999999999999,9.706795,-14.406757,1.4024608,1000.4519,7.8942719587523795,1000.5009699888273,1,1
8.48,12.40738,-15.741394,2.8369853,1000.4873,7.922430583761638,1000.5006413114978,1,1
8.5,16.302914,-19.459307,1.8332908,1000.4774,7.971692039924285,1000.5002672234883,1,1
8.52,19.53884,-15.607929,-0.09834662,1000.50494,8.038498830180842,1000.4999535013184,1,1
8.54,19.916443,-12.156942,-1.6938411,1000.5096,8.117216264801444,1000.4997110238044,1,1
8.559999999999999,18.18615,-9.25411,2.0984166,1000.5174,8.200184217232717,1000.4995604509868,1,1
8.58,16.833462,-6.665869,6.1084566,1000.5071,8.283689096633681,1000.4994545472224,1,1
8.6,14.348207,-4.006136,4.6692204,1000.4895,8.360100810905612,1000.4993251342858,1,1
8.62,12.890371,-3.7344425,2.9837728,1000.47186,8.426096756071907,1000.4991119105316,1,1
8.639999999999999,11.896178,-2.6715007,0.44613242,1000.4747,8.479435326528591,1000.4988356231444,1,1
8.66,12.675293,-1.074704,0.71599406,1000.4941,8.522520796294575,1000.4985744473656,1,1
8.68,14.563325,-1.131903,3.7270763,1000.4941,8.561243331914621,1000.4983275644372,1,1
8.7,14.281323,-5.846028,3.5092943,1000.522,8.597530833284258,1000.4981946394496,1,1
8.719999999999999,16.121554999999994,-8.834660000000003,3.5708425000000004,1000.522,8.637567037797654,1000.4981628862288,1,1
8.74,16.494385,-10.93671,2.3730383,1000.5518,8.683276872531177,1000.4983279226919,1,1
8.76,16.905457000000002,-14.239935,1.8475202,1000.5715,8.73850800983068,1000.4987371683895,1,1
8.78,17.330864000000002,-15.145581,2.9932466,1000.5785,8.804092822675111,1000.4993859240816,1,1
8.799999999999997,14.754558,-16.685179,5.8244214,1000.5885,8.878199319207466,1000.5002799752842,1,1
8.82,13.124648,-15.641303,5.1331983,1000.59686,8.955477506146341,1000.501417647016,1,1
8.84,10.285451,-13.544019,3.3814695,1000.5441,9.027560688332953,1000.502576550229,1,1
8.86,7.455814,-11.522998,2.235744,1000.5069,9.087656527481256,1000.5036161215272,1,1
8.879999999999997,6.0840135,-10.569687,1.984821,1000.5021,9.13372330311566,1000.5045292286884,1,1
8.9,2.2028253,-7.671621000000001,1.0521443,1000.4965,9.158279496282914,1000.5053071449533,1,1
8.92,1.0939138000000002,-8.100611,0.91958135,1000.4945,9.164104343237657,1000.5059556060428,1,1
8.94,-0.06757221,-8.648766,0.59290797,1000.46686,9.154279263591857,1000.5063878420797,1,1
8.959999999999997,0.26223743,-8.391372,0.79175323,1000.4476,9.130169497139061,1000.5065581296104,1,1
8.98,2.9006956,-9.092054,0.28043813,1000.4469,9.095841970251339,1000.506493826406,1,1
9.0,5.3957596,-10.927179,0.24256349,1000.452,9.058099887520132,1000.5062408303197,1,1
9.02,8.540877,-12.714639,1.7859801,1000.45734,9.024193171035499,1000.5058412399884,1,1
9.04,11.996681,-14.073109,2.1410607999999995,1000.4619,9.000438810570476,1000.505329973508,1,1
9.06,14.443947,-15.555507999999998,1.5587298,1000.48663,8.991286935732942,1000.5048108985408,1,1
9.08,16.547071,-14.2780695,4.044293,1000.4787,8.997028985032332,1000.5042582446654,1,1
9.1,16.303759,-11.532545,3.6371763,1000.4762,9.011903614957896,1000.5036689100205,1,1
9.12,16.547543,-10.307539,4.157962,1000.49164,9.034035547918107,1000.5031048698517,1,1
9.14,15.768458,-9.196933,4.882328500000002,1000.514,9.060343733157163,1000.5026457064273,1,1
9.16,16.088728,-5.154893,3.9733245,1000.4995,9.087044779335741,1000.5022286650824,1,1
9.18,13.120495000000002,-3.0766747000000003,3.2158217,1000.47186,9.10672107424377,1000.5017508401556,1,1
9.2,11.853871,-3.1481736,2.8465407000000003,1000.4965,9.117492322750543,1000.501309731026,1,1
9.22,14.564044,-0.3454388,3.2868423,1000.5071,9.125227235420633,1000.5009408119673,1,1
9.24,16.49989,0.17888182,4.7829165,1000.49164,9.134919082303307,1000.5005813521637,1,1
9.26,15.653889,-3.2578063,4.37576,1000.45874,9.145052231581824,1000.5001131046137,1,1
9.28,15.395815,-8.029131,4.276341,1000.5334,9.158251850997814,1000.4998191939018,1,1
9.3,15.429284,-10.312311,4.0917,1000.5259,9.176444211960886,1000.4996533852988,1,1
9.32,15.993338,-14.892974,4.1059065000000015,1000.56854,9.205700735825072,1000.49975486863,1,1
9.34,16.50479,-15.226632999999998,4.0064855,1000.60583,9.245821622577685,1000.5002264097743,1,1
9.36,16.695992,-15.617491,4.0917059999999985,1000.5785,9.296259897676764,1000.5009248484545,1,1
9.38,13.135076500000002,-16.42304,3.5803933,1000.56995,9.351698910079977,1000.5017904794175,1,1
9.4,10.764317,-14.907275,3.2205806,1000.5408,9.405818038781533,1000.5026957852107,1,1
9.42,6.1088242999999975,-10.946268,1.7150433999999997,1000.5363,9.446074001645432,1000.5036166885827,1,1
9.44,5.081178,-9.602098,1.2984169,1000.51404,9.470378656327693,1000.5044679227237,1,1
9.46,4.2686234,-8.705987,1.2463396,1000.4787,9.478079765459649,1000.5051273086883,1,1
9.48,1.7927095000000002,-9.034879,0.8391829,1000.4687,9.46998740910102,1000.5055788038158,1,1
9.5,-0.9556415,-8.696455,0.90546787,1000.4941,9.447026226483768,1000.5059364212165,1,1
9.52,1.3243489,-8.677389,0.45570162,1000.4686,9.410997457938976,1000.5061180008354,1,1
9.54,3.7764125,-10.703176,0.60247034,1000.4534,9.368906294661107,1000.5060886597836,1,1
9.56,6.515264,-12.04258,1.5966976000000002,1000.4404,9.326637734102217,1000.5058262548552,1,1
9.58,9.961528,-13.553578,2.136422,1000.46576,9.290955102061856,1000.5054501553427,1,1
9.6,11.695722,-14.378171,2.4062028,1000.46075,9.26482467122209,1000.5049569132544,1,1
9.62,15.619925,-16.146564,2.316248,1000.4605,9.255323407181658,1000.5043610396574,1,1
9.64,16.618893,-14.325739000000002,1.6581644,1000.4984,9.259342809490024,1000.5038130660042,1,1
9.66,16.403795000000002,-13.677485999999998,1.9422282,1000.49554,9.274135366452713,1000.5032990934468,1,1
9.68,15.8732195,-10.522026,4.238413,1000.5004,9.294369752131463,1000.5028345105583,1,1
9.7,15.218379999999998,-10.121635,5.403076,1000.5055,9.31840220287667,1000.5024336008804,1,1
9.72,15.409556,-4.601961599999999,2.1268663,1000.4555,9.339807997986027,1000.5019103961258,1,1
9.74,13.722274,-2.0852191,0.19996254,1000.47284,9.353950473043426,1000.5013434389784,1,1
9.76,11.948956,-2.280648,0.7917621,1000.47784,9.358109807771152,1000.5007578632628,1,1
9.78,11.92027,-1.5751972,1.1894516000000002,1000.465,9.353208983497883,1000.5001117202527,1,1
9.8,14.195445,-0.53608745,3.0169308,1000.5172,9.345391291396703,1000.499602306096,1,1
9.82,15.815782999999998,-4.439897,4.0490294,1000.4945,9.34000526757067,1000.4991338194452,1,1
9.84,15.734519,-5.5934040000000005,3.8075742999999993,1000.51917,9.337221460689477,1000.4987919948904,1,1
9.86,15.796645000000002,-8.963359,3.1873662,1000.5277,9.339474596539326,1000.4985940275324,1,1
9.88,15.189599,-14.101707,3.2773187000000004,1000.5565,9.351457517356991,1000.4986275650757,1,1
9.9,16.499254,-16.194225,4.1295104,1000.581,9.377192412686917,1000.4989537396144,1,1
9.92,16.599617000000002,-17.857754,4.849139,1000.56647,9.41784195559388,1000.4994850059744,1,1
9.94,12.880915,-16.451618,2.7802026,1000.56433,9.463666503669245,1000.5001878749088,1,1
9.96,11.284454,-15.288579,2.5766227,1000.5416,9.50994441854934,1000.5009580135494,1,1
9.98,8.101092999999999,-12.61454,2.178932,1000.52466,9.548087066591354,1000.5017238352034,1,1
10.0,6.585889,-11.408601,1.9469454,1000.50934,9.575093961820338,1000.50242793341,1,1
10.02,4.4254065,-9.320848,1.6060671999999998,1000.4671,9.586190854307596,1000.5029228940252,1,1
10.04,2.341395,-7.604888000000001,1.0852811000000002,1000.49945,9.578177555464526,1000.5033477388063,1,1
10.06,1.0938603999999998,-7.93378,1.3362040000000002,1000.4845,9.553491700478409,1000.5036552797952,1,1
10.08,-0.34009793,-8.848958,1.7765021,1000.4469,9.516059214181297,1000.5037227040058,1,1
10.1,0.92214245,-9.59255,1.3693774,1000.442,9.468956919787008,1000.5035600783037,1,1
10.12,5.678053,-12.543051,2.2925868,1000.46686,9.422260141854165,1000.5032842619516,1,1
10.14,7.5469584,-12.852876,2.3588688,1000.4742,9.378443339532824,1000.5029358472797,1,1
10.16,10.658614,-13.56786,1.7860061,1000.4816,9.342017339789232,1000.5025511790254,1,1
10.18,13.440464000000002,-14.063581,0.8770007,1000.4816,9.31667402966784,1000.5021358619116,1,1
10.2,14.778815,-14.54977,2.0842745,1000.519,9.304063149669988,1000.5018295986067,1,1
10.22,15.347615,-13.572626,3.5992844,1000.4861,9.302661549310429,1000.5015023577955,1,1
10.24,14.253046,-13.868153,5.3273425,1000.49115,9.31072435432484,1000.5011759393268,1,1
10.26,14.253046,-13.868153,5.3273425,1000.4836,9.327120881829645,1000.5008242425864,1,1
10.28,14.520722,-6.599154,2.2783866,1000.4737,9.34151903979412,1000.5004158360733,1,1
10.3,14.1765785,-4.7449636,1.6771173,1000.4886,9.3518788271321,1000.500012431068,1,1
10.32,14.18136,-3.515192,1.5256165000000002,1000.4661,9.357898488938778,1000.4995338976537,1,1
10.34,13.932813,-2.6667447,1.6013672,1000.4608,9.359200772823607,1000.4989716234974,1,1
10.36,14.176588,0.388618,1.3315066,1000.458,9.356264533083547,1000.498327300208,1,1
10.38,13.512201,-3.5676242999999994,2.3967483,1000.48285,9.349458594990024,1000.4977022578688,1,1
10.4,13.38793,-5.512379,3.433583,1000.51044,9.340714182563339,1000.4971958263296,1,1
10.42,14.243519,-7.700228999999997,3.2252697999999995,1000.5426,9.333676038033037,1000.496911798447,1,1
10.44,14.434715,-12.400054,4.3520584000000015,1000.5575,9.334429180087547,1000.4968789489352,1,1
10.46,14.616348,-14.044517,4.8870463,1000.5691,9.344828955569062,1000.4971099188904,1,1
10.48,15.806523,-15.879641,5.0527506,1000.61456,9.36811537650751,1000.497736824235,1,1
10.5,16.031181,-16.461163,4.4940915,1000.6015,9.40362891358172,1000.4986643052299,1,1
10.52,15.457606,-16.35153,4.1390114,1000.5895,9.448708396449012,1000.4998108359388,1,1
10.54,12.957772,-15.398219,3.3957102,1000.5616,9.496945227280733,1000.5010463514633,1,1
10.56,7.8672867,-12.867178,2.9270046,1000.55194,9.537309958463236,1000.5023212701157,1,1
10.58,6.1752379999999985,-11.775637,2.624003,1000.52216,9.56681135993808,1000.5035192076642,1,1
10.6,5.072203,-10.479159,2.1127877,1000.532,9.583031300751024,1000.5046802361348,1,1
10.62,2.0466592,-8.029150999999999,1.0380846,1000.4878,9.580220870657099,1000.5056453520414,1,1
10.64,-1.0697247,-8.601139,1.2369341,1000.4744,9.5614461663062,1000.5063856451886,1,1
10.66,-1.8822672,-8.663105,1.2416706,1000.4527,9.52904152170569,1000.5068464998913,1,1
10.68,1.5449245,-10.15504,0.24271786,1000.43536,9.487459900512775,1000.5069963597066,1,1
10.7,3.1605222,-11.175083,0.49364352,1000.4723,9.440723348036805,1000.5070038689447,1,1
10.72,8.246305,-12.757581,3.206464,1000.4723,9.397709316714627,1000.5068855701793,1,1
10.74,11.405805,-13.892024,4.0870676,1000.4971,9.364183163340444,1000.5067458133374,1,1
10.76,16.424670000000006,-17.109451,4.2575129999999985,1000.4892,9.350931520783009,1000.506559159264,1,1
10.78,17.442792999999998,-16.275303,4.783034,1000.5269,9.356130748918428,1000.5064674587512,1,1
10.8,16.897942999999998,-13.162743,4.394817400000001,1000.49396,9.37248990388106,1000.5063414053267,1,1
10.82,16.902770999999998,-11.403885,6.5631785,1000.5116,9.397725065565378,1000.5062489554616,1,1
10.84,16.754622,-10.269445,7.0460906,1000.48895,9.429581935028043,1000.5061049905213,1,1
10.86,15.119977,-7.886168,4.6362830000000015,1000.48846,9.460514784282744,1000.5059142611341,1,1
10.88,13.5904875,-5.3455949999999985,1.4926426000000002,1000.49146,9.484301167805816,1000.5056936973074,1,1
10.9,13.102996,-2.809787,-0.12651938,1000.50385,9.499029765658712,1000.5054921697998,1,1
10.92,14.828577,-0.10238474,2.515285,1000.5207,9.509109037037225,1000.5053688482827,1,1
10.94,15.325726,-0.1595846,3.1449652,1000.5138,9.51630167877699,1000.5052902335367,1,1
10.96,14.627922,-3.6582386,3.159173,1000.50854,9.52041879951667,1000.505232468706,1,1
10.98,14.336378,-4.907076999999999,3.4337707,1000.5557,9.522076465321339,1000.5053631108144,1,1
11.0,13.954067000000002,-8.224603,5.370148,1000.5656,9.524729686605276,1000.5056953989824,1,1
11.02,13.96365,-10.059727,5.65895,1000.56793,9.530439356370422,1000.5062130533714,1,1
11.04,15.268584,-13.177056,7.533778,1000.60254,9.545923204448586,1000.5070172297974,1,1
11.06,16.234151999999998,-15.369674,7.5527205,1000.6274,9.574284841462568,1000.50816117806,1,1
11.08,16.487507,-15.393508,8.087710000000001,1000.5897,9.614683210046184,1000.509465510504,1,1
11.1,13.72737,-14.406776,7.775039,1000.5748,9.660171883866287,1000.5108532228136,1,1
11.12,12.207352,-13.172237,7.0175304,1000.5574,9.705664727877265,1000.5122469738085,1,1
11.14,9.75527,-12.361922,5.308407,1000.5327,9.745461905666183,1000.5135521230817,1,1
11.16,6.954263,-10.431465,4.901244,1000.49554,9.77352126227948,1000.5146405093359,1,1
11.18,4.569078,-7.9242544000000015,2.8985848,1000.48804,9.783073538154518,1000.5155064455972,1,1
11.2,3.6561148,-7.585828299999997,2.429877,1000.4678,9.774511512826868,1000.5160998436733,1,1
11.22,1.6533353,-6.8756104,2.6429214,1000.478,9.747448879162263,1000.516487010776,1,1
11.24,-0.3637838,-6.6277485,1.8096625,1000.45074,9.702745311498386,1000.5165924223892,1,1
11.26,0.40092203,-9.220755,0.9290575,1000.42285,9.647595387712098,1000.5163480913699,1,1
11.28,2.1694286,-9.897605,0.72547615,1000.44763,9.585247637728306,1000.5158848153524,1,1
11.3,7.871672,-11.227472,0.37039,1000.4504,9.524160557351053,1000.515239719328,1,1
11.32,9.969985,-12.681272,-1.0830742,1000.44965,9.469500569162022,1000.5144335894914,1,1
11.34,14.023217,-15.088382,-3.1898882,1000.44226,9.430436886997672,1000.5134614682457,1,1
11.36,15.829941,-16.070293,-0.52442205,1000.4646,9.408868221428722,1000.5124266006272,1,1
11.38,16.910133,-15.274276,2.524531,1000.4918,9.403590283169251,1000.5114379358372,1,1
11.4,15.97325,-12.767066,2.6570902000000003,1000.4965,9.407932565334905,1000.5105105750597,1,1
11.42,15.97325,-12.767066,2.6570902000000003,1000.4965,9.420759642052401,1000.5096407210063,1,1
11.44,14.400654,-11.36093,2.3020058,1000.48914,9.436602275041377,1000.5087983153694,1,1
11.46,12.43607,-8.367531,0.97636503,1000.4965,9.447849222434346,1000.5080096918132,1,1
11.48,12.569884,-6.8660645,1.0615826000000002,1000.4736,9.453625967306612,1000.5071889891484,1,1
11.5,13.903387,-2.2043703,1.3977195,1000.4985,9.454099721771842,1000.5064325359128,1,1
11.52,14.061099,-1.1890932,1.8853611,1000.47925,9.450073954233355,1000.5056662767046,1,1
11.54,13.143334,-0.65523785,2.7375503,1000.5161,9.44043390741515,1000.505026771472,1,1
11.56,12.0057,-2.137636,2.6002486,1000.51044,9.423846034023883,1000.5044811922712,1,1
11.58,12.875562,-8.234060000000001,4.849085,1000.5454,9.408589465914405,1000.5041464261972,1,1
11.6,13.341021,-8.372335000000001,6.236432,1000.56537,9.396447479405477,1000.5040710317598,1,1
11.62,14.88015,-10.340924,6.4258120000000005,1000.56744,9.391852400168482,1000.5042325415207,1,1
11.64,15.38684,-14.616527,9.067612,1000.5699,9.401949376987114,1000.5046116543961,1,1
11.66,15.109643,-18.019848,10.199138,1000.6072,9.430300749850511,1000.5053159565767,1,1
11.68,14.000775,-17.528894,9.072354,1000.5827,9.471699609970514,1000.5062168605396,1,1
11.7,13.040051,-17.514595,8.163349,1000.55756,9.522634378531864,1000.5071977345835,1,1
11.72,11.500986,-14.735694,7.0697044999999985,1000.5151,9.574896579106882,1000.5080928830445,1,1
11.74,9.918903,-12.976835,5.1664767,1000.5079,9.622212201730804,1000.5088831418452,1,1
11.76,6.663904,-9.706978,3.826645,1000.52277,9.655112663504122,1000.5096314072113,1,1
11.78,5.59804,-8.315145,2.8276882000000003,1000.4805,9.671072604590274,1000.5101877014224,1,1
11.8,4.307524,-8.229347,2.7519407000000005,1000.5005,9.670494299162057,1000.5106443672624,1,1
11.82,2.3000386,-8.300844999999999,2.6619902,1000.4706,9.65390802722691,1000.5109037174764,1,1
11.84,1.5926433999999998,-8.219814,2.4394746,1000.4505,9.622624235082492,1000.5109154259427,1,1
11.86,1.2437652,-8.915733,0.67354584,1000.45074,9.579103177687344,1000.51070914001,1,1
11.88,1.3393773000000002,-9.211261,0.40368623,1000.43585,9.525527968065253,1000.510257372856,1,1
11.9,3.1700737,-8.906201,0.50311166,1000.44745,9.463573672164033,1000.5096320848562,1,1
11.92,4.895599,-8.872836,-0.3490798,1000.4378,9.39583721276022,1000.5088209848744,1,1
11.94,9.326525,-11.885301,-1.5752864,1000.4775,9.333731392717944,1000.5079915413844,1,1
11.96,10.932554,-14.1541815,-0.5668565999999999,1000.44745,9.282444522255268,1000.507040695568,1,1
11.98,13.51368,-16.785324,1.383721,1000.4622,9.248591990778797,1000.5060391017006,1,1
12.0,16.668398,-15.288625,1.9565883,1000.5249,9.23257132721865,1000.5052219925932,1,1
12.02,15.908442,-14.916834,3.357975,1000.50745,9.231039558645843,1000.5045080158127,1,1
12.04,15.440052,-13.83006,3.4289940000000003,1000.5196,9.240122991778772,1000.5039314770725,1,1
12.06,14.81393,-10.202711,1.5399694,1000.5366,9.252407617461726,1000.503539654124,1,1
12.08,14.8522,-6.5324626,1.9660687,1000.5145,9.26392401153592,1000.5032328966116,1,1
12.1,14.607205,-3.815496,3.6372015,1000.5143,9.27302671604381,1000.5030016872464,1,1
12.12,12.986834,-2.237765,3.675075,1000.5066,9.276122535739637,1000.502810344577,1,1
12.14,11.251748,-2.8955493,2.5246134,1000.50244,9.270175779002438,1000.5026399409537,1,1
12.16,10.9410515,-3.6915643,2.766067,1000.4845,9.256227669081722,1000.5024240685248,1,1
12.18,10.032871,-6.737393400000001,3.4951637000000004,1000.5242,9.236728625720172,1000.502311717,1,1
12.2,9.851202,-8.029129,3.4620197,1000.5141,9.213624306227024,1000.5022548810114,1,1
12.22,9.851202,-8.029129,3.4620197,1000.5066,9.187417540294172,1000.5022203031599,1,1
12.24,7.198376,-14.597445,3.1022017,1000.4917,9.165624176714763,1000.5021518770793,1,1
12.26,7.198376,-14.597445,3.1022017,1000.4845,9.147808951563745,1000.5020278690373,1,1
12.28,6.376232,-16.856792000000002,2.2216008,1000.4917,9.13687773576305,1000.5018811152023,1,1
12.3,7.528156,-15.93208,3.3531230000000005,1000.4946,9.131608189999893,1000.5017252314992,1,1
12.32,6.113316,-14.483045,3.1732137,1000.517,9.127411489605407,1000.5016424818256,1,1
12.34,4.3638725,-9.811819,1.5398408,1000.5091,9.11339243628848,1000.5015962112795,1,1
12.36,3.8906631,-10.050147,0.6923815,1000.4641,9.090642644577356,1000.5014203402644,1,1
12.38,4.2634615999999985,-7.9480944,0.8722865,1000.4942,9.05664852160973,1000.5012389474106,1,1
12.4,4.889598,-7.204511,2.089027,1000.479,9.012618275143694,1000.500998608474,1,1
12.42,5.252854,-7.3236747000000015,2.605076,1000.5116,8.960767089288579,1000.5008244099993,1,1
12.44,6.094082,-6.394196,4.640868,1000.48114,8.903431581578078,1000.500599624351,1,1
12.46,6.8588324000000025,-4.6591687,5.3746996,1000.49146,8.84125533723042,1000.5003681011044,1,1
12.48,7.2459793,-3.3435984,3.7176564,1000.4766,8.772786000130939,1000.500077962,1,1
12.5,6.5337615,-4.4351397000000015,4.153219,1000.50397,8.69924938379835,1000.499835606424,1,1
12.52,7.623539,-4.6401010000000005,4.9249253,1000.50635,8.624141549668348,1000.499644912854,1,1
12.54,7.623539,-4.6401010000000005,4.9249253,1000.50397,8.547915775695422,1000.4994919863292,1,1
12.56,6.433341,-4.592435,5.5593333,1000.5062,8.469875531338925,1000.499381009301,1,1
12.58,7.293688,-3.8774507000000007,4.7450137,1000.5236,8.390227364629478,1000.4993701383653,1,1
12.6,7.672887299999997,-3.6010296000000004,4.5037055,1000.5386,8.309594751322605,1000.4995017603087,1,1
12.62,8.2465105,-3.4342012000000004,5.5121374,1000.4642,8.230250374854682,1000.4994909751207,1,1
12.64,8.786675,-4.516211,6.388007,1000.4769,8.15496527754613,1000.499400117818,1,1
12.66,6.6119113,-4.806972,4.9392834,1000.48645,8.078936791888884,1000.4992732158812,1,1
12.68,7.1568559999999986,-4.516213400000002,4.981897,1000.4736,8.003084724506547,1000.499068661753,1,1
12.7,7.4245953999999985,-4.4637823,5.0671230000000005,1000.5113,7.9281106235695935,1000.4989319505428,1,1
12.72,7.2955875,-4.578181,4.9156260000000005,1000.4964,7.8539345987497375,1000.4988020374956,1,1
12.74,7.1570199999999975,-4.6306143,4.8682865999999985,1000.48553,7.780521929509728,1000.4986394669916,1,1
12.76,6.9993339999999975,-5.0739055,5.171293,1000.4979,7.708582205372231,1000.4984931576137,1,1
12.78,7.434342999999997,-4.582951,5.15236,1000.4884,7.638340974611371,1000.4983275432795,1,1
12.8,7.4534850000000015,-4.7068825,5.0718765,1000.49554,7.569916174136777,1000.4981711712984,1,1
12.82,7.35318,-4.644919,4.877773,1000.4985,7.502930361283543,1000.4980341847987,1,1
12.84,7.1285524,-5.021477,5.0387444000000015,1000.50085,7.437662852938298,1000.4979232804628,1,1
12.86,7.410630999999999,-4.7974505,4.6978735999999985,1000.49835,7.374001817697425,1000.4978268215816,1,1
12.88,7.477595299999999,-4.3160300000000005,4.295453500000002,1000.4964,7.311247768113624,1000.4977364539566,1,1
12.9,7.554119,-4.4399614000000005,4.6600075,1000.4879,7.250105268191116,1000.4976211938887,1,1
12.92,7.429891599999999,-4.468562,4.3143997,1000.48596,7.1901077851464175,1000.4974773697952,1,1
12.94,7.6689053,-4.1492033,4.5037785,1000.5058,7.131607363985193,1000.4973802482943,1,1
12.96,7.597254799999999,-4.602027,4.873066400000001,1000.50085,7.07530016510758,1000.4973069228424,1,1
12.98,8.247355,-4.3160352999999985,4.9866962,1000.5028,7.022024646942216,1000.4972619075513,1,1
13.0,7.5208955,-3.2292616,4.7973266,1000.5704,6.969389817163623,1000.4974854291723,1,1
13.02,8.008458000000001,-4.2207065,5.9430547,1000.5054,6.9202997644055815,1000.497711425332,1,1
13.04,7.7647119999999985,-4.130142,5.1713486,1000.4502,6.873216280459293,1000.4977400744071,1,1
13.06,7.1577244,-4.964290599999999,5.370198,1000.48553,6.828138823277043,1000.4977214324623,1,1
13.08,7.200813,-3.8965838,4.2434163,1000.4978,6.782894240453711,1000.4977052432828,1,1
13.1,7.3187895,-4.2778707,4.764062,1000.4999,6.738709193228075,1000.497698839648,1,1
13.12,8.3512125,-3.7869153,5.175953400000001,1000.5079,6.697293442588768,1000.4977299055736,1,1
13.14,7.667685,-4.106274,4.6977773,1000.5079,6.657134947428782,1000.4977939677657,1,1
13.16,7.739366499999999,-4.044308999999998,4.972371599999999,1000.5079,6.618571287698291,1000.4978869548345,1,1
13.18,7.629416,-4.26357,4.792463,1000.4924,6.581386918681867,1000.4979493651707,1,1
13.2,7.476447,-4.2159038,4.735648,1000.52277,6.545212827878621,1000.4980938652296,1,1
13.22,7.543349,-4.3350673,5.005508,1000.4978,6.510549044858867,1000.4982204875666,1,1
13.24,7.715407400000001,-4.1587048,4.825599,1000.5048,6.477278057111198,1000.4983560573083,1,1
13.26,7.701052000000002,-4.1396375,4.8682075,1000.50684,6.445360998282843,1000.498506388926,1,1
13.28,7.495497999999999,-4.316,4.839799,1000.47003,6.414556049650158,1000.4985367069432,1,1
13.3,7.395107,-4.387498,4.948689,1000.5102,6.384864914223463,1000.4986054837981,0,0
13.32,7.4667964000000016,-4.3302984,4.920282,1000.5023,6.3562948148888365,1000.4986795552852,0,0
13.34,7.452449,-4.315999,4.8539996,1000.5077,6.328714770085579,1000.4987774784523,0,0
13.36,7.6006002000000015,-4.2730994,4.872935,1000.4726,6.3023227788511935,1000.4987697644406,0,0
13.38,7.3424754,-4.344598,4.830324,1000.49445,6.276691800350879,1000.4987473971877,0,0
13.4,7.309001400000001,-4.392263,4.6598845,1000.4973,6.251645428487843,1000.4987224228528,0,0
13.42,7.428482000000002,-4.2969313,4.858728,1000.53955,6.227505697136652,1000.4988473348088,0,0
13.44,7.3519897,-4.4160949999999985,4.6598816,1000.4998,6.204043711755077,1000.4989611366077,0,0
13.46,7.318523399999999,-4.406562,4.7356305,1000.5019,6.181279587528295,1000.4990722717848,0,0
13.48,7.289829300000001,-4.444693599999999,4.697754,1000.49036,6.159167286178034,1000.4991391066496,0,0
13.5,7.170319,-4.58769,4.498907599999999,1000.52966,6.1374675097971885,1000.499308037152,0,0
13.52,7.179856,-4.9165816,3.9213085,1000.51166,6.116036824074732,1000.49950177121,0,0
13.54,7.337574000000001,-4.6591873,3.7698061,1000.51715,6.094774581827207,1000.4997364882472,0,0
13.56,7.208504,-4.7592845,3.386318,1000.51166,6.0733299456056535,1000.4999868088637,0,0
13.58,7.653011,-4.7020855,3.4478638,1000.50433,6.052514599650568,1000.5002236276488,0,0
13.6,7.653011,-4.7020855,3.4478638,1000.51965,6.032330229820364,1000.5005028156672,0,0
13.62,8.016852,-5.498114599999999,3.2396028,1000.5066,6.014076231448518,1000.5007714560643,0,0
13.64,8.016852,-5.498114599999999,3.2396028,1000.5068,5.9975936236914205,1000.5010305294772,0,0
13.66,8.064662,-5.6887774,2.3258636000000004,1000.47943,5.982512926548426,1000.5011816848387,0,0
13.68,8.332338,-5.6554117,1.691454,1000.4992,5.968874558589008,1000.5013081116507,0,0
13.7,8.255869,-5.5600805,1.5872979,1000.47943,5.956285292717105,1000.5013410611798,0,0
13.72,8.537885000000001,-5.693544,1.7672061,1000.5019,5.945362240731977,1000.5013721875633,0,0
13.74,8.8438,-5.5171824,1.4263295,1000.5218,5.936174329297803,1000.5014732309606,0,0
13.76,8.480542,-5.6697115999999985,0.91501456,1000.5019,5.927973657137227,1000.5015640492752,0,0
13.78,8.294138,-5.917573,0.68776387,1000.4942,5.920611925817089,1000.5016177857608,0,0
13.8,7.9595594,-5.9700050000000005,0.6972333000000001,1000.5218,5.913523571386678,1000.5017379232904,0,0
13.82,7.744476,-5.927107,0.49838907,1000.47406,5.906267859495445,1000.5017444362877,0,0
13.84,7.758823,-5.893741,0.6546251000000001,1000.50684,5.898891258850254,1000.5017685352016,0,0
13.86,8.141214,-5.7221446,0.77298594,1000.5017,5.891882347704188,1000.5017895822753,0,0
13.88,8.270277,-5.693546,0.91501874,1000.5247,5.885434002947366,1000.5018906569733,0,0
13.9,8.858203999999997,-5.412319,0.8866134,1000.49445,5.880203319846842,1000.5019531802112,0,0
13.92,8.858203999999997,-5.412319,0.8866134,1000.49927,5.876067393044987,1000.5019987662956,0,0
13.94,8.365896000000001,-5.331288,0.8061295,1000.5023,5.871945809177843,1000.502040130601,0,0
13.96,8.059996,-5.4361525,1.0049753,1000.5152,5.8674792323886376,1000.5021240556313,0,0
13.98,8.045664,-5.955707,1.0097103,1000.51416,5.86332092714579,1000.5022415411876,0,0
14.0,7.582031,-6.198802,0.9718358,1000.4968,5.858994044629912,1000.5023257618767,0,0
14.02,7.6585155,-6.0224395,0.9339613,1000.5222,5.854421344424293,1000.5024717265352,0,0
14.04,7.7158766,-5.927109,0.92922723,1000.5073,5.849619629028061,1000.5026180826917,0,0
14.06,7.763686,-6.0701056,0.9765722,1000.4998,5.844901756385938,1000.5027372578937,0,0
14.08,7.7445707,-6.1606703000000005,1.0381199,1000.5019,5.840372860118297,1000.502839546974,0,0
14.1,7.649361999999999,-6.0748816,1.1565155,1000.4998,5.835790325656459,1000.5029189872363,0,0
14.12,7.759320699999999,-6.117781,0.8629844999999999,1000.49695,5.831347819837313,1000.502967692298,0,0
14.14,8.055714,-6.174981,0.7398942,1000.4924,5.827582172293978,1000.5029726843981,0,0
14.16,8.055714,-6.174981,0.7398942,1000.49945,5.824428153054308,1000.502964413754,0,0
14.18,8.136982000000001,-6.2178802000000015,0.7683015999999999,1000.49194,5.822018092160089,1000.5029174179233,0,0
14.2,7.9792830000000015,-6.079651,1.0618379,1000.5019,5.819895870834283,1000.5028722297028,0,0
14.22,7.6303800000000015,-5.927122,1.0334334,1000.51715,5.817265602665106,1000.5028837013645,0,0
14.24,7.463121000000001,-6.0891857000000025,0.99556136,1000.5147,5.814125831545094,1000.5029363763992,0,0
14.26,7.510942,-6.194051,0.919813,1000.4973,5.810745705631275,1000.5029626291052,0,0
14.28,7.3532199999999985,-6.3990126,1.0145022,1000.48553,5.807209940262989,1000.5029230685317,0,0
14.3,7.386712599999999,-6.3704142999999975,1.3506479999999998,1000.5077,5.803647077820785,1000.5029053097618,0,0
14.32,7.6544046,-6.1320868,1.2370244,1000.51276,5.800152378264376,1000.5029250949975,0,0
14.34,7.783482000000001,-6.217885,1.0003064,1000.5352,5.796993999451803,1000.5030587668899,0,0
14.36,7.7691655,-6.2750845,1.019246,1000.52014,5.7941991218813165,1000.5032383718136,0,0
14.38,7.769188400000001,-6.1797543,0.96716964,1000.50684,5.791601478616246,1000.5034100365854,0,0
14.4,7.826569,-6.022458,0.6262945,1000.50433,5.789023479407398,1000.5035650314461,0,0
14.42,7.802681,-6.003392,0.63102996,1000.4999,5.786409357719737,1000.5036887907917,0,0
14.44,7.8983,-5.908062,1.0618628,1000.50433,5.7838877733003935,1000.5038004529026,0,0
14.46,7.9747996,-5.836564,1.3222572,1000.5028,5.781561042299689,1000.5038955159134,0,0
14.48,7.993931,-5.8651633,1.4737593,1000.5048,5.779525441824527,1000.5039827697324,0,0
14.5,7.7932130000000015,-5.903297,1.6442009999999998,1000.4974,5.777526259814374,1000.504036169236,0,0
14.52,7.821914,-5.998628599999999,1.7530943,1000.5402,5.7757701437128315,1000.5042135428281,0,0
14.54,7.812366499999999,-6.0272284,1.8193771,1000.4973,5.774279859909518,1000.5043453813797,0,0
14.56,7.850639,-5.9223647,1.4927063,1000.5123,5.772849284360013,1000.5044905105507,0,0
14.58,7.8028520000000015,-5.912832,1.3743472,1000.5222,5.771350836913912,1000.5046825008487,0,0
14.6,7.959205,-5.969997,0.99073404,1000.52026,5.770031579103486,1000.5049082224726,0,0
14.62,7.9304934,-5.9842954000000015,0.9102461,1000.5079,5.7688297968178714,1000.5051184404988,0,0
14.64,7.911341,-6.03196,0.8771023000000001,1000.51526,5.767758016312128,1000.505340698761,0,0
14.66,7.8396277,-6.055793,0.71613103,1000.5104,5.76669040047357,1000.5055552996457,0,0
14.68,8.006855,-6.1129894,1.1848311000000002,1000.52026,5.766068977780659,1000.5057978579088,0,0
14.7,8.006855,-6.1129894,1.1848311000000002,1000.49036,5.765844048472931,1000.5059566061017,0,0
14.72,7.8155966,-5.9842910000000025,1.4736236,1000.5352,5.7655756695405165,1000.5062021522227,0,0
14.74,7.8155966,-5.9842910000000025,1.4736236,1000.50037,5.7652698646838845,1000.5063981210274,0,0
14.76,7.987636599999999,-5.9938235,1.359995,1000.52527,5.765192626390594,1000.5066392178276,0,0
14.78,8.14532,-5.7793269999999985,1.4736161,1000.52026,5.765352714047403,1000.5069012857756,0,0
14.8,8.255222999999999,-5.4790335,1.2274241,1000.48285,5.76548971377012,1000.5070462643864,0,0
14.82,8.135695,-5.4837989999999985,1.2842339,1000.5054,5.765421355752974,1000.5071684409345,0,0
14.84,7.925350999999999,-5.731659,1.355247,1000.51276,5.7651285740987825,1000.5072965257452,0,0
14.86,7.7819405,-5.8222237,1.2605574,1000.5053,5.7644849516306245,1000.5074025139912,0,0
14.88,7.7293296,-6.1415824999999975,1.2652888,1000.4954,5.7638510562642855,1000.5074529561552,0,0
14.9,7.7770944,-6.151114,1.1848008999999995,1000.498,5.763296901578051,1000.5074634962089,0,0
14.92,7.7818413,-6.098681,0.8344520000000001,1000.5028,5.7626819960374105,1000.5074560208141,0,0
14.94,7.614498599999999,-6.0653143,0.90546346,1000.52277,5.76171399157276,1000.5075045458802,0,0
14.96,7.6431613,-5.9985824,0.8581179,1000.5104,5.760389455097227,1000.5075578462636,0,0
14.98,7.609669,-6.0891457,0.8912556999999999,1000.4929,5.758822923852169,1000.5075521742357,0,0
15.0,7.5570583,-6.122511,1.1753169,1000.4804,5.757069065780781,1000.5074494146046,0,0
15.02,7.652622,-5.974747,1.2415956,1000.5079,5.755137548692434,1000.507360238302,0,0
15.04,7.719506,-5.9366136,1.3599527,1000.5048,5.753149421096213,1000.5072722252633,0,0
15.06,7.805509599999999,-5.693518,1.4262313,1000.4998,5.750979783829888,1000.5071675569313,0,0
15.08,7.9871087,-5.712584,1.4735724,1000.5207,5.748997658467452,1000.507123788788,0,0
15.1,8.217371,-5.7316704000000005,1.5588678,1000.4929,5.747624194566224,1000.5070339096167,0,0
15.12,8.236491000000001,-5.669705,1.525727,1000.5023,5.746742783011973,1000.5069374503067,0,0
15.14,8.265172,-5.62204,1.3079447,1000.50543,5.746229128879119,1000.5068467920391,0,0
15.16,8.112219,-5.7507367,1.1753813999999998,1000.48535,5.745900512719048,1000.5066892979428,0,0
15.18,7.987946000000001,-5.8842006,1.2274599,1000.52765,5.745703045711768,1000.5066255946864,0,0
15.2,7.9975070000000015,-6.1606607,1.3032105,1000.5331,5.746000704979041,1000.5066646143484,0,0
15.22,7.868453999999999,-6.046263,1.0759593,1000.5154,5.7463239819291125,1000.5067305395096,0,0
15.24,7.725061,-5.9032664000000015,0.9433961,1000.5079,5.746225407506625,1000.5067930010404,0,0
15.26,7.686822999999999,-5.922333,0.9954745,1000.5077,5.7457264536395085,1000.5068514572447,0,0
15.28,7.6916046,-6.0986953,1.1706476,1000.5053,5.745147816933256,1000.5068975239012,0,0
15.3,7.772863,-6.0891623,1.3884305,1000.4929,5.7446785644931735,1000.5068878373128,0,0
15.32,7.753744599999999,-6.046263,1.2369295,1000.5102,5.74418061179072,1000.5068912020288,0,0
15.34,7.6629295,-5.8985,1.1801169,1000.50287,5.743309820282838,1000.5068796987648,0,0
15.36,7.696389,-5.9366330000000005,1.1895857,1000.52277,5.742217810330107,1000.5069267395648,0,0
15.38,7.715509399999997,-6.008131,1.3363523000000002,1000.4999,5.741094879104963,1000.5069430085533,0,0
15.4,7.6485925,-6.05103,1.4783846,1000.5104,5.739936976507198,1000.5069698290007,0,0
15.42,7.653374,-6.022431,1.3836966,1000.5077,5.738695040819283,1000.5069961561638,0,0
15.44,7.820669,-6.0128980000000025,1.4594473999999995,1000.5127,5.737665507477781,1000.5070399526828,0,0
15.46,8.026202,-5.9509325,1.4121034,1000.50433,5.737073890570677,1000.5070688954573,0,0
15.48,7.978405499999999,-5.8270019999999985,1.3552905000000002,1000.5054,5.736624598939958,1000.5070884612692,0,0
15.5,7.964066499999999,-5.798403,1.3931658000000002,1000.5023,5.736255006091274,1000.5070885111604,0,0
15.52,8.15048,-5.836535,1.3410876,1000.5023,5.736299571278428,1000.5070713166037,0,0
15.54,8.088345,-5.798403,1.3979006,1000.50964,5.736576227202829,1000.5070653707536,0,0
15.56,7.983189599999997,-5.960466,1.5351983,1000.5073,5.737120810592503,1000.5070609616656,0,0
15.58,7.6964035000000015,-6.0367303,1.4026352,1000.50726,5.737486690331918,1000.5070577823337,0,0
15.6,7.7967796,-6.0033645999999985,1.3363537,1000.51215,5.737795308638012,1000.5070733050596,0,0
15.62,7.8636985,-5.998598,1.2037904,1000.5218,5.738120552094432,1000.507140037042,0,0
15.64,7.8398004,-5.903267,1.1706496000000002,1000.50433,5.7382929492790815,1000.5071888852884,0,0
15.66,7.9258380000000015,-5.898501,1.0854305,1000.4744,5.738445840235665,1000.5071140076117,0,0
15.68,7.796785400000001,-6.0128980000000025,1.1327748,1000.52966,5.738522162896974,1000.5071290112692,0,0
15.7,7.672511599999999,-6.1511283,1.0380868,1000.48145,5.738483678597058,1000.5070498240603,0,0
15.72,7.6820726,-6.051031,1.1943222,1000.49945,5.73826746733788,1000.5069524948759,0,0
15.74,7.758550599999999,-5.9699993,1.307948,1000.49445,5.737946735127041,1000.5068214858272,0,0
15.76,7.7967906,-5.9366336,1.2558698999999998,1000.50433,5.737541540591288,1000.5066967568823,0,0
15.78,7.7394333,-5.9318665999999975,1.1895882,1000.5093,5.736946105239433,1000.5065959180624,0,0
15.8,7.830251700000002,-6.046264,1.3316203000000002,1000.4819,5.736514486331563,1000.5064179115758,0,0
15.82,7.8828297,-6.051031,1.2842765,1000.4967,5.736308140206388,1000.5062256405628,0,0
15.84,7.849373299999999,-6.017665,1.2842766,1000.50934,5.7362050108662475,1000.5060669615897,0,0
15.86,7.8159156,-6.0081315,1.1327758,1000.5018,5.736088475450635,1000.5059113917868,0,0
15.88,7.825475999999999,-5.9747660000000025,1.0096813,1000.4843,5.735906613297009,1000.5056961292987,0,0
15.9,7.7681203,-5.993832,1.0996351,1000.5186,5.735617594215343,1000.5055523772992,0,0
15.92,7.753782000000001,-5.9223337,1.0191504,1000.5218,5.735103456231299,1000.5054838494735,0,0
15.94,7.8206997,-5.989065599999999,1.0238849,1000.52405,5.7345869638434905,1000.5054901364293,0,0
15.96,7.9879937,-5.9461665,1.2890116000000005,1000.47833,5.734356402440922,1000.5053979150915,0,0
15.98,7.9784355,-5.989065599999999,1.2558709,1000.52405,5.734407768088044,1000.5053835758238,0,0
16.0,7.901960400000001,-6.017665,1.1753861,1000.51355,5.7345975129875395,1000.5054003047736,0,0
16.02,7.8685026,-6.008132,1.0806981000000002,1000.50336,5.734819722254902,1000.5054077413763,0,0
16.04,7.873284,-6.055797599999999,0.9481349,1000.50085,5.735109574052358,1000.50539790449,0,0
16.06,7.829859,-6.012889,1.0522546999999998,1000.4992,5.735354628087832,1000.5053669001607,0,0
16.08,7.815516499999997,-6.0128884000000005,1.0333167,1000.4932,5.735531574682717,1000.5052957038948,0,0
16.099999999999998,7.782047,-6.0319543,1.1327382,1000.4982,5.735639627520425,1000.5052072503404,0,0
16.12,7.767703999999997,-6.017655,1.1848162,1000.5083,5.735657599213459,1000.505140226678,0,0
16.14,7.7963752999999985,-6.0843862999999985,1.2653006000000002,1000.50085,5.73574771253125,1000.5050655597544,0,0
16.16,7.8776217000000015,-6.108219,1.1895491000000002,1000.4928,5.736044394174939,1000.5049554280452,0,0
16.18,7.7581190000000015,-5.903256400000001,0.85340565,1000.50073,5.735996532457827,1000.5048429041262,0,0
16.2,7.820249,-5.8317585,0.86287385,1000.49835,5.7356598082832155,1000.5047201035367,0,0
16.22,7.8011227,-5.8603578,1.0191087,1000.5132,5.735104007247641,1000.5046421245627,0,0
16.24,7.834578,-5.836524,1.0853899,1000.51074,5.734397248184786,1000.504595174693,0,0
16.259999999999998,7.8441267,-5.9223222999999985,1.449938,1000.50256,5.733778678221582,1000.5045463631592,0,0
16.28,7.8297834,-5.903256,1.4783442,1000.5132,5.733201823486053,1000.5045343863808,0,0
16.3,7.595561999999997,-5.974754,1.3789207,1000.5102,5.732341994508477,1000.504544199908,0,0
16.32,7.605118300000001,-5.9890537,1.4167956,1000.4798,5.731280125436398,1000.5044637920212,0,0
16.34,7.600332000000001,-6.074851,1.3315756,1000.4848,5.73012074732486,1000.504321953961,0,0
16.36,7.7484946,-6.260747,1.2037457,1000.51807,5.729323574596223,1000.5042461188167,0,0
16.38,7.7676067,-6.236914,0.9244152,1000.4852,5.7287875214155255,1000.5041105448556,0,0
16.4,7.767603,-6.2083144,0.85813314,1000.49976,5.728434813027855,1000.5039750897424,0,0
16.419999999999998,7.805830499999999,-6.0128856,0.6876936,1000.49506,5.728030129869378,1000.5038233072808,0,0
16.44,7.8679605,-6.0986834000000005,0.9717572,1000.5224,5.727840726843983,1000.5037560683916,0,0
16.46,7.8201556,-6.1463485,1.1516639,1000.49756,5.727864627494812,1000.5036743502632,0,0
16.48,7.772353999999999,-6.1225157,1.2132108,1000.512,5.727984110135938,1000.5036321164638,0,0
16.5,7.758007000000001,-6.06055,1.3552423999999998,1000.5018,5.728123618238066,1000.5035882030593,0,0
16.52,7.6528444,-6.0510173,1.359976,1000.5068,5.728099313692748,1000.503560963644,0,0
16.54,7.6767364,-6.1129823,1.5351483999999995,1000.48645,5.728101303808592,1000.5034752954275,0,0
16.56,7.7112255,-6.0462756,1.4736955,1000.5015,5.728077781037051,1000.5033924879283,0,0
16.58,7.8068557,-6.1416078,1.4642298,1000.5211,5.728304566101875,1000.5033830662653,0,0
16.599999999999998,7.744753,-6.008145,1.3506073,1000.5012,5.728448600663503,1000.5033668822447,0,0
16.62,7.797347999999999,-5.9700120000000005,1.2464518999999998,1000.48645,5.728528467365737,1000.5032916812686,0,0
16.64,7.8308234,-5.9843129999999976,1.203844,1000.4914,5.7286131643719855,1000.5031824236332,0,0
16.66,7.7639747,-6.04628,1.1517715,1000.5012,5.7286578535485,1000.5030787468618,0,0
16.68,7.7305675,-6.251243,1.3080118,1000.5161,5.728915924613049,1000.5030340145777,0,0
16.7,7.7305675,-6.251243,1.3080118,1000.5062,5.729361610858034,1000.5030058866788,0,0
16.72,7.6111064,-6.1702127,1.1659827,1000.4963,5.729638133213293,1000.5029568916756,0,0
16.74,7.582478999999997,-6.146381,1.255941,1000.5112,5.7297103378117775,1000.5029432748806,0,0
16.759999999999998,7.549038,-6.179747,1.1991298,1000.50336,5.729576999255083,1000.5029327432914,0,0
16.78,7.53475,-6.241714,1.4405892,1000.5306,5.72938812075194,1000.5030230397026,0,0
16.8,7.563445599999999,-6.198815,1.4547939,1000.51605,5.729144614144504,1000.5031497226688,0,0
16.82,7.649516,-6.089185,1.4169219,1000.4963,5.728838309276848,1000.5032370007364,0,0
16.84,7.625652,-6.0701199999999975,1.4500659,1000.50336,5.728424815521492,1000.503314562434,0,0
16.86,7.687823299999999,-6.089187,1.5305539,1000.51544,5.728067711491122,1000.5034267475252,0,0
16.88,7.826489,-6.0558224,1.4737457,1000.47546,5.727926009661537,1000.503425193981,0,0
16.9,7.883863400000001,-6.04629,1.4453408,1000.5152,5.728048051085082,1000.5034662105707,0,0
16.919999999999998,7.936493,-5.965259,1.3364543,1000.49066,5.728356730717688,1000.5034563504717,0,0
16.94,7.9269505,-6.003392,1.3080493,1000.4953,5.728853048875116,1000.503418275226,0,0
16.96,7.8791866,-6.041526,1.3411933,1000.5152,5.7294918309177065,1000.5034270461484,0,0
16.98,7.750166,-6.132091,1.3743373,1000.50244,5.730168548001043,1000.5034312427694,0,0
17.0,7.692842999999999,-6.1463914000000015,1.2086363000000002,1000.4978,5.7307575163116775,1000.5034146784294,0,0
17.02,7.807592,-6.222657,1.156561,1000.52997,5.7315372943500495,1000.5034956413364,0,0
17.04,7.893663,-6.2750900000000005,0.7825460999999999,1000.4974,5.7326149480980675,1000.503545235852,0,0
17.06,7.9988356,-6.3036900000000005,0.7494068,1000.5027,5.734154437426832,1000.5035860147173,0,0
17.08,7.955174,-5.9271164,0.4132052,1000.4924,5.735508938755442,1000.5035817772696,0,0
17.099999999999998,7.773549000000001,-5.5839243,0.5931133000000001,1000.5024,5.735989513147778,1000.5035737786624,0,0
17.12,7.54413,-6.174978,0.68780243,1000.5143,5.7360780015846204,1000.50360532549,0,0
17.14,7.563256699999997,-6.294142,1.0239459,1000.5049,5.736068112962247,1000.5036378610953,0,0
17.16,7.979111,-5.9128175,1.1044317,1000.514,5.7361782743697045,1000.5037039132561,0,0
17.18,7.45334,-6.3513412,1.0381507,1000.5094,5.73609262647396,1000.5037827828577,0,0
17.2,7.45334,-6.3513412,1.0381507,1000.50653,5.735834269810329,1000.5038623620187,0,0
17.22,7.443796000000002,-5.340831,1.3837636999999998,1000.507,5.734214949857148,1000.5039439736627,0,0
17.24,7.443796000000002,-5.340831,1.3837636999999998,1000.4862,5.731398912293153,1000.5039522074063,0,0
17.259999999999998,8.084298,-5.5267267,1.5731407,1000.49615,5.728892705542131,1000.5039313947952,0,0
17.28,8.074749,-5.583926,0.8535120999999999,1000.4836,5.726536307663456,1000.5038398117508,0,0
17.3,7.8166509999999985,-5.7650557,1.2843440000000002,1000.4932,5.724201794665209,1000.5037205856503,0,0
17.32,7.6541414,-5.8794527,1.0476241,1000.501,5.7217102442603585,1000.50360544336,0,0
17.34,7.5920076,-5.8794527,0.7493569999999999,1000.4979,5.718929497043048,1000.5034831640356,0,0
17.36,7.897926299999999,-5.8985195,0.81090534,1000.47046,5.716441862895259,1000.5032562346344,0,0
17.38,8.084348,-6.079649,1.4358474,1000.4936,5.714899561343714,1000.5030209573707,0,0
17.4,8.007878,-6.265545,1.7009747,1000.48785,5.714390100022537,1000.502758450934,0,0
17.419999999999998,7.912285000000002,-6.1511474,1.606287,1000.5057,5.714464363574775,1000.5025370898232,0,0
17.44,7.788013999999999,-6.079649,1.4689896999999998,1000.52094,5.7147189402815695,1000.5024077456222,0,0
17.46,7.850163,-6.008151,1.705711,1000.48535,5.715221121837232,1000.502232049202,0,0
17.48,7.807156,-6.0319843,1.2701467,1000.5052,5.7157652342336425,1000.502087488468,0,0
17.5,7.7402425,-5.9843187,1.3174912,1000.49036,5.716188121001268,1000.501917535645,0,0
17.52,7.663773,-6.022451,1.92823,1000.5175,5.716634813093204,1000.5018234622023,0,0
17.54,7.5012674,-6.0272183,2.3117175,1000.4999,5.717019082228181,1000.5017334144444,0,0
17.56,7.6653337,-5.793695,2.3213284,1000.5123,5.717322896581824,1000.5016918879531,0,0
17.58,8.176807,-5.4123715999999975,2.150893,1000.50494,5.717874525691791,1000.5016668883493,0,0
17.599999999999994,7.756286599999997,-5.6936007,1.9946672,1000.4949,5.7182011352060815,1000.501620437901,0,0
17.62,7.756286599999997,-5.6936007,1.9946672,1000.48425,5.718327741611391,1000.5015168607083,0,0
17.64,7.192338499999999,-6.3990519999999975,3.116727,1000.52966,5.718885313332082,1000.5015266552028,0,0
17.66,8.339594,-5.607807,1.8810571,1000.5118,5.720040641696802,1000.501572293659,0,0
17.68,8.521295,-5.989133,1.900001,1000.5172,5.722474757525247,1000.501668879542,0,0
17.7,7.5654035,-6.0082006,3.2635157,1000.5193,5.725219263259853,1000.5018176948616,0,0
17.72,7.207020299999999,-6.0606356,2.9037104,1000.50903,5.72751495447395,1000.5019751523764,0,0
17.74,7.479503599999997,-5.936706,2.8184943,1000.50433,5.7296185147240015,1000.5021227592882,0,0
17.759999999999994,7.804599,-5.5315504,2.7711565,1000.4688,5.731550763339532,1000.502133222822,0,0
17.78,7.450996000000001,-5.6983824,3.4197793,1000.4911,5.733376238031457,1000.5021027487984,0,0
17.8,7.2741776,-5.9557769999999985,3.3061568999999995,1000.5063,5.735062436998673,1000.5020909320552,0,0
17.82,7.121326400000001,-5.965313,4.5560493,1000.51624,5.737411513782692,1000.5021314274256,0,0
17.84,7.121326400000001,-5.965313,4.5560493,1000.5211,5.740337852729219,1000.5022354959959,0,0
17.86,6.2610984000000025,-5.869985,4.8211879999999985,1000.506,5.74271846541444,1000.5023410031993,0,0
17.88,6.1225185,-6.0987806,4.9537544,1000.48584,5.744851583533023,1000.5023748257527,0,0
17.9,6.213403,-6.2560782,5.3183099999999985,1000.4934,5.747456964975734,1000.5023724019882,0,0
17.919999999999995,6.266049400000001,-6.3847775,5.40827,1000.47046,5.7507956733262136,1000.5022553757028,0,0
17.94,5.802477,-6.389546,4.717053400000001,1000.4781,5.753486499953076,1000.502065011924,0,0
17.96,5.864683,-6.027289,5.436689,1000.4804,5.755965282589459,1000.5018188124466,0,0
17.98,5.955568,-6.1416883,5.2946634,1000.5057,5.758345338471036,1000.5016152428633,0,0
18.0,5.3963995,-5.8985953,5.124231,1000.49304,5.759455189911543,1000.5014044979056,0,0
18.02,5.778852,-6.3704863,5.0958304000000005,1000.485,5.7604807832776785,1000.501159227468,0,0
18.04,5.415655,-6.1655254,6.2084217000000015,1000.47253,5.762036975782223,1000.5008394412906,0,0
18.06,5.4424253,-6.0653815,5.696932,1000.4921,5.7633348977436425,1000.5005254162356,0,0
18.08,5.3754983,-5.9843493,4.8968167000000005,1000.4819,5.7633074132706605,1000.5001808921988,0,0
18.1,6.474843,-5.1597347000000005,4.1961236,1000.5046,5.761827315009643,1000.4998923795478,0,0
18.12,6.9862720000000005,-5.340864,5.2376914,1000.46387,5.761051087856995,1000.499507769203,0,0
18.14,6.0541997000000025,-6.2036104000000005,5.5359583,1000.4925,5.761002777109172,1000.4991426995332,0,0
18.16,6.0255055,-5.5124593,4.0114784,1000.5536,5.7591317201658105,1000.4990161702548,0,0
18.18,6.541714700000001,-5.216933,5.223485,1000.6207,5.757247173559339,1000.4993424307712,0,0
18.2,7.4689913,-4.716444,5.7537379999999985,1000.45996,5.756767271664518,1000.4994889378128,0,0
18.22,7.4642015,-5.188332599999999,4.911013,1000.42487,5.757093619832562,1000.4993497632588,0,0
18.24,6.101947,-5.4361935,3.9783344,1000.46924,5.755547939449983,1000.499118393475,0,0
18.26,6.943182000000001,-5.4647927,4.9062769999999984,1000.48364,5.754468369700775,1000.4988582329172,0,0
18.28,6.6277,-5.1597323,4.068286,1000.4714,5.752196129354704,1000.4985295054103,0,0
18.3,6.8475657000000005,-4.85944,3.5285633,1000.4787,5.748410912586673,1000.4981676555657,0,0
18.32,7.879993400000001,-4.5400800000000014,3.8741736000000007,1000.4979,5.7449178777281835,1000.4978469614824,0,0
18.34,6.8236413,-5.912848,5.294494,1000.48,5.742904723541288,1000.4974993471296,0,0
18.36,6.8236413,-5.912848,5.294494,1000.50775,5.742206439270888,1000.4972290974376,0,0
18.38,6.6945767000000025,-5.5839553,4.1582355,1000.4434,5.740992545619912,1000.4967965200592,0,0
18.4,6.4364524,-6.041544,4.1913753,1000.6393,5.739563502467254,1000.4969273072153,0,0
18.42,7.301587,-5.164498,4.9914885,1000.5399,5.7389261315055276,1000.4971975724402,0,0
18.44,6.9574304000000025,-5.846114599999999,4.7263613,1000.3657,5.7389927291426135,1000.4969629875324,0,0
18.46,5.9680057,-6.5944642999999985,4.5417185,1000.43787,5.739147863442378,1000.4965429735527,1,2
18.48,5.585612,-6.2036066,3.8173537,1000.4825,5.737702421191857,1000.4961212944954,1,2
18.5,6.2595487,-6.122575,4.5795913,1000.49963,5.7363074424934615,1000.4957613302204,1,2
18.52,6.8235600000000005,-5.817515,4.508575,1000.49225,5.735284644156749,1000.495430624998,1,2
18.54,6.632353,-5.7078834,4.8636537,1000.4725,5.734541663740388,1000.4950558636134,1,2
18.56,6.465461,-5.950988,4.958379,1000.48975,5.734211855689487,1000.4947056233452,1,2
18.58,6.173899,-6.0749182999999976,4.4991417,1000.4721,5.733563728443394,1000.4943147708,1,2
18.6,6.532394,-5.998654,4.967849,1000.4946,5.7334786201114225,1000.493970440316,1,2
18.62,6.4941583,-5.927155,4.5701594000000005,1000.457,5.733358714795773,1000.4935330963153,1,2
18.64,6.455923,-5.836591,4.4423309999999985,1000.4773,5.732922019169202,1000.4930882200098,1,2
18.66,6.221722,-6.0224867,4.8163495,1000.4946,5.732491963471347,1000.4927005697141,1,2
18.68,6.8383265,-5.4600334,4.589099,1000.46674,5.7320123040651,1000.4922645838617,1,2
18.7,6.6997156,-5.6363964000000015,4.4944115,1000.47424,5.731408381634581,1000.4918144582608,1,2
18.72,6.5324316,-5.7603264,4.7074604,1000.4594,5.730818890733143,1000.4913000352301,1,2
18.74,6.556333500000001,-5.5934973,4.499146499999998,1000.48474,5.729873626259548,1000.4908218749132,1,2
18.76,6.532441,-5.779393700000001,4.475475,1000.48975,5.728786554358625,1000.4903955137074,1,2
18.78,6.6280437,-5.8747244000000025,5.034136,1000.4892,5.728376780507448,1000.4900144770967,1,2
18.8,6.7140894,-5.5410660000000025,4.712197,1000.4594,5.727966918990698,1000.48956758103,1,2
18.82,6.61372,-5.8556589999999975,4.9299803,1000.46686,5.728009927549013,1000.4890909563736,1,2
18.84,6.3460574,-5.746028,4.745339,1000.48975,5.727771344120081,1000.4886721833844,1,2
18.86,6.5276933,-5.6363974,4.8021525999999986,1000.4795,5.72745744157602,1000.4882691357112,1,2
18.88,6.4751252999999975,-5.769861,4.901575,1000.47675,5.727267123338658,1000.487871533898,1,2
18.9,6.4416695,-5.7507954,4.8731694,1000.487,5.72708950304617,1000.4875170754144,1,2
18.92,6.5802869999999976,-5.612565,4.7974195,1000.46924,5.726871455513213,1000.4871380784264,1,2
18.94,6.675889,-5.6888304000000005,5.1477656,1000.46674,5.727200089036598,1000.4867297636057,1,2
18.96,6.4082294,-5.483868,4.8258269999999985,1000.4791,5.727069674241228,1000.4863415094808,1,2
18.98,6.432132,-5.479101999999999,4.693264,1000.47174,5.726426107984174,1000.485945882702,1,2
19.0,6.4273586,-5.669764,5.1667055999999985,1000.48474,5.726042719796581,1000.4855919657028,1,2
19.02,6.250515,-5.4314365,4.8352976,1000.46185,5.7250206338566585,1000.4851937735657,1,2
19.04,6.346114599999999,-5.6983643,4.835298000000001,1000.46924,5.723885334770433,1000.4847844974084,1,2
19.06,6.3031025000000005,-5.970058,5.5407248,1000.4791,5.723682360045936,1000.484402396805,1,2
19.08,6.136017,-5.674536,4.347674,1000.47174,5.722478725361703,1000.4840191880836,1,2
19.1,6.035648,-5.798467,4.3240027,1000.47424,5.720394681670448,1000.4836453797801,1,2
19.12,6.4037204,-5.8651996,4.186707,1000.47675,5.71799693075897,1000.4832902593961,1,2
19.14,6.0691414,-6.0272627,3.5002190000000004,1000.49695,5.7145025513932275,1000.4830256500908,1,2
19.16,6.174304,-5.9652977,3.561767,1000.457,5.710161552246372,1000.4826981489682,1,2
19.18,6.0691690000000005,-6.5992503,3.0788596,1000.47675,5.705472404351015,1000.4823873556401,1,2
19.2,6.0452843000000005,-6.8995440000000015,2.2314026,1000.4619,5.700411665388101,1000.4820389841752,1,2
19.22,6.1313276,-7.199837,1.9094636000000005,1000.4799,5.695470749510641,1000.4817234628057,1,2
19.24,6.590203,-7.4381647,2.075169,1000.477,5.691701827198933,1000.4814276636572,1,2
19.26,6.7144985,-7.371434,1.2040406,1000.4788,5.688756539911712,1000.4811568359407,1,2
19.28,7.0060735,-7.3523674,0.9957275,1000.48663,5.686884421734012,1000.4809372359607,1,2
19.3,7.622689200000001,-7.719392999999997,1.9568136000000005,1000.4721,5.687669913017937,1000.4807113833693,1,2
19.32,7.971622,-7.576396000000001,1.7911099999999998,1000.48413,5.6910477342524155,1000.4805241270392,1,2
19.34,8.58345,-6.685050500000001,2.3639743,1000.4867,5.696685063299872,1000.4803809004887,1,2
19.36,9.644581,-5.212185,2.7900720000000003,1000.5291,5.704670423957879,1000.4804297342669,1,2
19.38,10.935148,-3.486692,1.9426154,1000.5095,5.715384424703967,1000.48057753675,1,2
19.4,11.891117,-2.8670397000000003,2.0562418,1000.50604,5.730056113938234,1000.4807997998917,1,2
19.42,13.836510999999998,-3.3532288,2.3261042,1000.5041,5.752375295723202,1000.4810800723241,1,2
19.44,15.303931,-5.4981800000000005,3.1214862,1000.47174,5.785804172226862,1000.4812940967848,1,2
19.46,15.084067999999998,-6.584955,2.9226415,1000.51416,5.829257078246878,1000.48160152605,1,2
19.48,14.653892,-7.829026700000001,2.7758756,1000.5016,5.881677284694871,1000.4819451650548,1,2
19.5,12.063259,-9.316192,2.6007044,1000.5145,5.938959164531185,1000.4823660018857,1,2
19.52,10.830076,-9.444891,2.2456248,1000.47174,5.998423131957692,1000.482699599702,1,2
19.54,8.961186999999997,-8.949167999999998,1.611216,1000.4867,6.055906084442418,1000.4830087681739,1,2
19.56,6.681242,-8.095955,0.7069466,1000.49225,6.106763438659339,1000.4833152178703,1,2
19.58,5.840004,-8.191286999999999,0.5554463000000001,1000.4664,6.150657733254841,1000.4835251020377,1,2
19.6,3.9424355,-9.597422,0.6548701,1000.48663,6.188908578714242,1000.4837217333203,1,2
19.62,2.0114088,-10.25044,0.5412456,1000.477,6.222167520735479,1000.4838712784821,1,2
19.64,-1.6260011,-13.610863,-0.8980115,1000.47174,6.257707192149581,1000.4839597439844,1,2
19.66,2.121379,-12.733817,-0.20678712,1000.4748,6.293417243822937,1000.4840049370238,1,2
19.68,3.5648937000000007,-14.854936,-1.7265297,1000.4721,6.334268509022541,1000.4840020118202,1,2
19.7,8.000573,-14.25435,1.6443683,1000.4946,6.381707569198188,1000.4840375798675,1,2
19.72,8.645853,-13.782460999999998,1.9994493,1000.5126,6.434721160313778,1000.4841718325073,1,2
19.74,10.701183,-12.895882,1.7627302,1000.47424,6.493421275429343,1000.484254703542,1,2
19.76,11.781425,-12.96738,1.2703528,1000.4795,6.5584228838403895,1000.4843108114557,1,2
19.78,11.948739,-11.28002,1.4928719,1000.4696,6.626541951328008,1000.4843074294873,1,2
19.8,10.667767,-9.587892,2.2219713,1000.4942,6.6930438987053025,1000.4843400544336,1,2
19.82,10.409663,-9.001605,2.8705854,1000.49194,6.756929278051933,1000.4843962416401,1,2
19.84,10.576978,-5.8318458,2.9226658,1000.46936,6.814882031315428,1000.484391758186,1,2
19.86,11.040626,-4.378046,2.6101959,1000.48474,6.866830468603282,1000.4843890502764,1,2
19.88,10.830328,-2.747884,2.1698976,1000.482,6.911669054137205,1000.4843780569864,1,2
19.9,9.382068,-3.5391328,1.4218634,1000.4622,6.947456453922223,1000.4842885023103,1,2
19.92,11.337022,-3.9156911,0.839533,1000.48914,6.979057816269532,1000.4842268371899,1,2
19.94,12.986069,-5.569687,1.914244,1000.50464,7.01149328579276,1000.484245837276,1,2
19.96,13.401925,-9.087406,2.5344524,1000.507,7.048976844656463,1000.4843445407381,1,2
19.98,13.253032,-10.422025,2.6764185,1000.507,7.092202751009703,1000.4845133147702,1,2
20.0,13.48246,-12.095085,2.0940864,1000.5269,7.142762421681049,1000.4848150355716,1,2
20.02,15.12671,-13.830112,2.453901,1000.53937,7.2046275407561815,1000.4852780339439,1,2
20.04,15.389597,-15.641403,2.4018228,1000.5465,7.2792348699308125,1000.4859075383837,1,2
20.06,12.225364,-20.603388,4.4707575,1000.5589,7.369606881928662,1000.4867265413684,1,2
20.08,8.86994,-16.99034,2.9415443,1000.5314,7.463231869658857,1000.4876110368564,1,2
20.1,6.5756320000000015,-11.918723,1.8242245,1000.47925,7.5476368519794415,1000.4883624773372,1,2
20.12,3.2488866,-10.503056,0.93889064,1000.49963,7.617979510413166,1000.4890670132274,1,2
20.14,2.4028602,-9.483012,1.0998603,1000.457,7.673170624796307,1000.4895740998925,1,2
20.16,1.5138147,-7.3904934,0.42284027,1000.4326,7.710018474429824,1000.48981705491,1,2
20.18,1.2652628,-5.493404,0.23346388,1000.4723,7.726547977052549,1000.489968668566,1,2
20.2,1.4038751,-5.1645117,-0.06480379,1000.4476,7.72446244486256,1000.4899501071857,1,2
20.22,1.1744424,-6.413349,-0.6139949,1000.4674,7.7084231192502415,1000.4898525259638,1,2
20.24,2.1638596000000003,-8.157909,-0.893325,1000.4624,7.684140667970937,1000.4896674741028,1,2
20.26,4.228733,-10.879612,-0.4766976,1000.4599,7.659302925242437,1000.4893967993717,1,2
20.28,7.106172999999999,-14.354432999999998,0.54119927,1000.48944,7.6430927175845405,1000.4891577867016,1,2
20.3,10.4902725,-17.781588,3.4907331,1000.50464,7.644773857319503,1000.4890023310741,1,2
20.32,11.895533,-18.077116,5.782185,1000.50684,7.665293772817209,1000.4889291860898,1,2
20.34,13.453748,-17.433629999999994,6.5112830000000015,1000.4671,7.703559270292518,1000.4887859701117,1,2
20.36,14.902024,-12.423977,3.8079379,1000.4495,7.750732861768893,1000.488517994981,1,2
20.38,14.605675,-11.499265,1.6537836,1000.47925,7.803302361353242,1000.4882478473737,1,2
20.4,12.803687,-11.208505,0.76371527,1000.4597,7.857064843245134,1000.4879063726975,1,2
20.42,10.676673,-10.217061,1.8810346,1000.49194,7.907246587974369,1000.4876191667314,1,2
20.44,8.955942,-9.054022,1.9047064,1000.49194,7.94988502738281,1000.4873809465398,1,2
20.46,8.138594,-7.800416999999999,1.5448915,1000.5146,7.982590502074361,1000.4872684437712,1,2
20.48,8.659589,-6.1416554,0.29500842,1000.5118,8.004826069760743,1000.4872573499267,1,2
20.5,9.534603,-4.6258974,0.47020975,1000.4842,8.017704260914485,1000.4872365409464,1,2
20.52,10.868184,-3.396126,1.8147821,1000.47174,8.024184677371945,1000.487162366584,1,2
20.54,10.528829,-4.5972985999999985,2.0278313000000003,1000.4867,8.025271741330675,1000.4870951615976,1,2
20.56,10.519274,-5.078721,2.3923810000000003,1000.514,8.022124011018873,1000.4871326366896,1,2
20.58,11.900652,-9.702282,3.2493095000000003,1000.50354,8.023083467274493,1000.4872248161893,1,2
20.6,12.359519,-12.166592,4.2056594,1000.5561,8.032139863310261,1000.4875542166568,1,2
20.62,12.306946,-13.734789,6.435565,1000.58545,8.051824105227793,1000.4881976997297,1,2
20.64,12.698899,-13.458329999999998,11.184174,1000.6033,8.085169265549974,1000.4891806496539,1,2
20.66,13.435005,-15.231489000000002,13.234172,1000.5833,8.135911048577395,1000.4903880138684,1,2
20.68,12.502953,-15.731976500000002,13.205767000000002,1000.55145,8.201435927613074,1000.4916746640382,1,2
20.7,9.7020035,-13.362999,11.842259,1000.514,8.272044674233593,1000.4928919193378,1,2
20.72,8.06732,-12.75288,9.527137,1000.51666,8.341747662333058,1000.4940530512108,1,2
20.74,7.431611500000002,-11.632739,8.973212,1000.46674,8.407527009332732,1000.4949807003494,1,2
20.76,5.2329173,-10.769993,7.2925,1000.4419,8.464522293776424,1000.495609280607,1,2
20.78,4.6928043,-10.05501,7.3682504,1000.46924,8.512095706319176,1000.4960697647124,1,2
20.8,4.1287975,-8.953935000000003,6.615481,1000.42896,8.548167029922812,1000.4962350533153,1,2
20.82,3.191966,-8.667942,4.4471245,1000.4371,8.570574153316176,1000.4961682161328,1,2
20.84,1.4903712,-8.334284,2.539161,1000.40686,8.577890644525622,1000.49578764922,1,2
20.86,1.4616975,-8.372416000000001,2.0136425,1000.4292,8.571629071065978,1000.4952116647588,1,2
20.88,2.0305042,-8.300918,1.1188408,1000.4339,8.553151870737196,1000.4944820028957,1,2
20.9,2.5371687,-8.806172,1.1851231000000002,1000.4063,8.52524048951393,1000.493519818463,1,2
20.92,4.6880956,-11.680407,-1.0826554,1000.4366,8.496143469318854,1000.4924647209517,1,2
20.94,5.749217,-13.124675,-2.1999743,1000.42896,8.469977776064713,1000.4913038197957,1,2
20.96,10.242249,-17.018951,-4.6523949999999985,1000.4311,8.458768141332166,1000.4900613137828,1,2
20.98,11.924744,-16.718657999999998,-4.751817,1000.4589,8.462222071891608,1000.48885125474,1,2
21.0,13.358695,-16.189571,-3.0663676,1000.496,8.478898799238213,1000.4878077820528,1,2
21.02,13.339586,-13.873024,-2.2331116,1000.48096,8.503380582219126,1000.4868611175708,1,2
21.04,12.335837,-11.337216,-2.659207,1000.4861,8.529659492341446,1000.4860219048115,1,2
21.06,9.831235,-7.8909965,-3.2226,1000.50824,8.549217219206062,1000.4853603615601,1,2
21.08,9.195527,-7.1521797000000005,-2.8107064,1000.50824,8.560629105174717,1000.4848581886412,1,2
21.1,9.2385645,-6.8185210000000005,1.5023383,1000.498,8.563963312922816,1000.4844617791713,1,2
21.12,9.730895,-5.426687,3.0599582,1000.5179,8.560094379544505,1000.4842318893584,1,2
21.14,9.1860075,-5.569684,4.073122,1000.5108,8.549738645490718,1000.484124403918,1,2
21.16,8.459488,-5.9986744000000005,5.4366309999999975,1000.52014,8.534146252790864,1000.4841590859288,1,2
21.18,8.655465,-5.974842,5.076817,1000.48785,8.513919418754407,1000.4842030182443,1,2
21.2,7.862027,-7.1045156,6.2320127,1000.525,8.490947884548197,1000.4843887059727,1,2
21.22,8.392595,-9.41153,6.4450617,1000.5352,8.469517190680794,1000.4847357003081,1,2
21.24,8.846687,-10.545971,6.1657333,1000.5294,8.45144024639514,1000.4852030959813,1,2
21.26,10.060767,-13.615633,6.108921,1000.5821,8.44245014881702,1000.4859649156527,1,2
21.28,8.980542,-14.173321,7.046334299999999,1000.5871,8.441938469351525,1000.4870021458182,1,2
21.3,8.005472,-13.353473,6.274627,1000.56744,8.445984662564893,1000.4882082186674,1,2
21.32,7.747367999999999,-12.366796,4.877978,1000.535,8.451135224990496,1000.4894423550496,1,2
21.34,6.7627378,-10.550738,3.448189,1000.5018,8.452277586923291,1000.490577325479,1,2
21.36,5.8689300000000015,-9.59266,2.5391846,1000.4646,8.446820731585147,1000.4914866669783,1,2
21.38,5.0085754,-8.348589,2.326137,1000.46265,8.43239543490307,1000.4921863491264,1,2
21.4,3.6559014,-8.072128999999999,1.1378026,1000.4377,8.407861952457447,1000.4926084374154,1,2
21.42,3.5220718,-7.7813690000000015,0.7353786999999999,1000.4352,8.373734406717718,1000.4927747242527,1,2
21.44,3.598559,-7.1569505000000015,0.3518928,1000.4392,8.330099880064438,1000.4927287862953,1,2
21.46,4.4159207,-6.9948883,0.63595855,1000.44965,8.278800173150227,1000.4925331118848,1,2
21.48,5.5580144,-7.261808,0.43235356,1000.4671,8.222696186887967,1000.4922686547733,1,2
21.5,5.5580144,-7.261808,0.43235356,1000.43463,8.162549113744317,1000.4918274813124,1,2
21.52,6.8342214000000014,-8.544012,-1.0069056,1000.4918,8.102854640360905,1000.4914375615094,1,2
21.54,8.263382,-8.143621000000001,1.0478259,1000.51416,8.045150388672372,1000.4911748291504,1,2
21.56,8.588407,-8.810939,2.2503645,1000.48914,7.991198379862008,1000.4909353534523,1,2
21.58,9.420091,-7.3047075,0.6974798000000001,1000.4942,7.939576613109629,1000.4907355054537,1,2
21.6,10.060583,-7.776596499999999,1.1377792,1000.5289,7.891915962904982,1000.4906963119424,1,2
21.62,10.012784,-7.886227000000001,2.0846603,1000.50354,7.848235197196456,1000.4907079178328,1,2
21.64,10.57202,-7.137878,1.9236902,1000.514,7.808197976057537,1000.4908020242932,1,2
21.66,11.862565,-3.510528,3.3298082,1000.514,7.771339562134304,1000.490968689474,1,2
21.68,10.376043,-4.2016788,4.404518,1000.47845,7.73579812044967,1000.4910708875459,1,2
21.7,10.356925,-4.1063476,5.1620225999999985,1000.4415,7.702066304258706,1000.4909827345673,1,2
21.72,8.774808,-5.1835895,4.537081,1000.419,7.6677203356582195,1000.4906457047508,1,2
21.74,8.373303,-5.7412767,4.480268,1000.45874,7.632833486856532,1000.4902330446677,1,2
21.76,8.091294,-6.532525,3.8884673,1000.45856,7.597605154322988,1000.4897543952574,1,2
21.78,7.460358999999999,-7.690798,4.3477044000000005,1000.4859,7.563159705248079,1000.4893175848157,1,2
21.8,6.341883,-8.386716,3.628075,1000.4689,7.528614892580543,1000.488858115804,1,2
21.82,4.1527324,-7.7003317,1.3839669,1000.463,7.489398091921791,1000.4883590397682,1,2
21.84,4.5924726,-7.6621985,3.1120245,1000.4634,7.447445786030013,1000.48782820364,1,2
21.86,4.6354894999999985,-7.647899000000002,3.0410085,1000.49036,7.4031989492675265,1000.4873682713036,1,2
21.88,4.501654,-7.905292999999999,2.5060205,1000.468,7.357063350649059,1000.486892149315,1,2
21.9,4.817119,-7.1426440000000015,4.1867337,1000.4773,7.309721379727324,1000.4864369161882,1,2
21.92,5.1086864,-6.8900166,4.4944706,1000.4426,7.2617019120141135,1000.485876859299,1,2
21.94,5.820876,-6.065402,3.9263418,1000.4798,7.212414480756568,1000.4853601163384,1,2
21.96,5.3285546,-6.909082400000001,5.242506,1000.49207,7.164056144315021,1000.4849276778392,1,2
21.98,5.3428617,-6.5134573,4.939501,1000.4902,7.11583385635007,1000.4845645555414,1,2
22.0,5.811281,-6.2465305,4.7974687000000005,1000.4816,7.067951711501746,1000.4842330282788,1,2
22.02,5.734799400000001,-6.4276589999999985,4.953704,1000.4946,7.020851873226116,1000.4839774118884,1,2
22.04,5.734799400000001,-6.4276589999999985,4.953704,1000.4792,6.974612840455908,1000.4837343505625,1,2
22.06,5.739574,-6.0320354000000025,5.076798,1000.49963,6.928916633225822,1000.4835768059128,1,2
22.08,5.634417,-6.008202,4.9442344,1000.49713,6.883562722800993,1000.4834863909593,1,2
22.1,5.8925242,-6.1130667,5.01525,1000.51385,6.839203395170285,1000.483515809299,1,2
22.12,6.4660993,-5.8699718,5.3087835,1000.631,6.796628414310563,1000.4840727464302,1,2
22.14,5.5483730000000016,-6.2179303,5.4555492,1000.5561,6.7552436588563225,1000.4848241541923,1,2
22.16,6.389616,-6.298962,6.819058,1000.3701,6.717780615468652,1000.485075091136,1,2
22.18,5.361955,-6.7660839999999975,4.6080904,1000.3794,6.680833989450277,1000.4849163886912,1,2
22.2,5.672639,-6.5372895999999985,5.6401906,1000.4371,6.6456092446875665,1000.4846040202117,1,2
22.22,6.0932593,-6.337095,5.143078,1000.44135,6.611729960070486,1000.4841722969502,1,2
22.24,6.0932593,-6.337095,5.143078,1000.4937,6.5791614894627095,1000.4838251260077,1,2
22.26,6.2127504,-6.208397,4.7832623,1000.4711,6.547485909482133,1000.4834725553087,1,2
22.28,5.95464,-6.5611229999999985,4.811669,1000.4861,6.5168826473222365,1000.4831704826407,1,2
22.3,5.620051,-6.5134563,4.750121599999999,1000.47577,6.4868062664607855,1000.4828769294933,1,2
22.32,5.906837,-6.3180275,4.5938854000000005,1000.5058,6.457233610776285,1000.4827000689861,1,2
22.34,6.0072103,-6.1368985,4.8495436,1000.4657,6.42835570439822,1000.4824825947937,1,2
22.36,6.011986,-6.4657907,6.1278324,1000.48846,6.402034591353363,1000.4823119532558,1,2
22.38,5.849472,-6.2417626,5.403468599999999,1000.48566,6.376759745186049,1000.4821732273616,1,2
22.4,5.725194,-5.6983757000000015,4.3145547,1000.49615,6.350504619322102,1000.4821009655425,1,2
22.42,5.4384017,-6.1797967000000025,5.379796,1000.48846,6.324883437833539,1000.4820600075234,0,0
22.44,5.696509,-6.0653996,5.2567010000000005,1000.49304,6.299931957604704,1000.4820633449907,0,0
22.46,5.911597,-5.9653019999999986,5.109934,1000.5024,6.275637861135879,1000.4821395059346,0,0
22.48,5.7402544,-6.0797176,5.318314599999999,1000.4806,6.252175785692628,1000.4822012595233,0,0
22.5,5.668571,-6.175049,5.289909400000001,1000.4974,6.229538497335532,1000.4823105404604,0,0
22.52,5.6877165000000005,-6.0749516,5.2662396,1000.49,6.207579096980967,1000.4824347831503,0,0
22.54,5.740321,-5.993921,5.252039,1000.48004,6.186242135513997,1000.4825359427721,0,0
22.56,5.7785726,-5.9748550000000025,5.1005397000000015,1000.49304,6.165387986999629,1000.4826631420198,0,0
22.58,5.749934,-5.94149,4.9490423,1000.49097,6.144794299329872,1000.4828054399637,0,0
22.6,5.5061903,-6.2513165,5.209437,1000.495,6.124897833417827,1000.4829750748432,0,0
22.62,5.2194157,-6.403847,5.323064,1000.4677,6.1056944793159325,1000.4830699739532,0,0
22.64,5.44412,-5.9796247000000005,3.9074817,1000.49,6.085413063341725,1000.4831787749004,0,0
22.66,5.305532,-6.2751519999999985,3.950094,1000.4776,6.064535357854315,1000.4832548278281,0,0
22.68,6.4335923,-5.9986925000000015,4.281504,1000.5048,6.044589032132637,1000.4833995908143,0,0
22.7,6.5435550000000005,-6.308519,3.9169576,1000.4622,6.025775250984089,1000.4834511848622,0,0
22.72,6.8064703999999985,-6.7422767000000015,3.3204253,1000.4672,6.0085333731171335,1000.4834382690976,0,0
22.74,7.083726,-6.456283999999999,2.9984882,1000.4847,5.992540870834889,1000.483431398959,0,0
22.76,7.1028714000000015,-6.923406599999999,3.0079596,1000.4672,5.978379890050457,1000.4833668954684,0,0
22.78,7.122004,-6.899574799999999,2.927476,1000.4797,5.965834515765407,1000.4832966993604,0,0
22.8,7.3371086,-6.6660137000000015,2.8706641,1000.4644,5.954722862396272,1000.4831666459617,0,0
22.82,7.738652,-6.5516176,2.7617767000000004,1000.4666,5.945310026627578,1000.4829920908528,0,0
22.84,7.652628999999999,-6.384788,2.4540415,1000.4669,5.9369231405331755,1000.482779922432,0,0
22.86,7.590532,-6.4324546,2.3735602000000005,1000.4644,5.929399531856427,1000.4825262826944,0,0
22.88,7.3180960000000015,-6.561152000000001,2.2031229,1000.46936,5.9223413104358125,1000.4822547680043,0,0
22.9,7.2177467,-6.7232156000000005,1.9379985,1000.4722,5.915678025850817,1000.4819786604596,0,0
22.92,7.2846904000000015,-6.599286,1.8527818,1000.4945,5.90928372127758,1000.4817797686557,0,0
22.94,7.1317773,-6.6946176999999985,1.7344253,1000.4872,5.903008145081881,1000.4816235406903,0,0
22.96,7.2465186,-6.980612,2.27415,1000.49207,5.897652902503826,1000.4815231049137,0,0
22.98,6.859368300000001,-7.0521107,2.0800405,1000.5243,5.892589081591175,1000.4815883566837,0,0
23.0,6.6200490000000025,-7.2904304999999985,1.8432901,1000.5016,5.887724720587653,1000.4817180550633,0,0
23.02,6.4671073,-7.280897,1.6586493999999998,1000.4642,5.882762974975102,1000.4817695915538,0,0
23.04,6.4862449999999985,-7.385762700000001,1.4598063,1000.4672,5.877855325840418,1000.481762678667,0,0
23.06,6.4097753,-7.509692699999999,1.6160423000000002,1000.49207,5.873152847110532,1000.481793676797,0,0
23.08,6.065642,-7.719422,1.5592304,1000.4666,5.868515238853762,1000.481766369508,0,0
23.1,6.089554,-7.5954914,1.3698553999999998,1000.4966,5.863724365150378,1000.4817956418576,0,0
23.12,6.0226492999999985,-7.428662299999999,1.1946837,1000.4917,5.858413253115407,1000.4818571625948,0,0
23.14,6.2951174000000005,-7.314265299999999,1.3509207,1000.48175,5.852883276336678,1000.4819111365327,0,0
23.16,6.4767623,-7.176036,1.5213605,1000.4772,5.847265651197094,1000.4819418678128,0,0
23.18,6.6201690000000015,-7.5287614,2.027943,1000.4669,5.84251122069942,1000.481914871248,0,0
23.2,6.624955,-7.481096000000001,2.0516155,1000.50684,5.838480111393138,1000.4819807475467,0,0
23.22,6.897423,-7.1855699999999985,1.9001163,1000.47424,5.834975053538837,1000.4820110891527,0,0
23.24,6.8496375,-7.0473399999999975,1.9474615,1000.48175,5.831695633244713,1000.4820369590753,0,0
23.26,6.892662,-7.018741,1.9900717,1000.4842,5.828664365501393,1000.482067604686,0,0
23.28,6.892681,-7.419131299999999,1.691806,1000.4716,5.82634265653604,1000.4820569997709,0,0
23.3,6.8544493000000015,-7.4095993,1.5261024,1000.47675,5.8245344471375775,1000.4820285240685,0,0
23.32,6.754086,-7.218936999999999,1.7486206000000002,1000.47925,5.822834771391031,1000.4819933602513,0,0
23.34,6.558133,-6.994910000000001,1.5545118,1000.4644,5.820560109316367,1000.4818989534056,0,0
23.36,6.558133,-6.994910000000001,1.5545118,1000.51184,5.817785578105651,1000.4819233232843,0,0
23.38,6.3430605,-7.442966,1.4172158,1000.48175,5.814927930601509,1000.4819442325456,0,0
23.4,6.3669662,-7.447733,1.4692948,1000.48956,5.812062285900638,1000.4819901247314,0,0
23.42,6.405224,-7.5764303,1.6113286,1000.4672,5.809497696238919,1000.4819774306177,0,0
23.44,6.247503,-7.495399000000001,1.6160642,1000.48645,5.806874658647303,1000.4819823153488,0,0
23.46,6.228396400000001,-7.4382009999999985,1.3746108,1000.4697,5.804017856681553,1000.481942415162,0,0
23.48,6.1518373,-7.385766999999999,1.2988528,1000.4716,5.800759301637624,1000.4818699266624,0,0
23.5,6.30002,-7.09024,1.1994311000000002,1000.5019,5.79686813390427,1000.4818779840876,0,0
23.52,6.4960012,-7.2523035999999985,1.3461986,1000.47174,5.7929900430655845,1000.4818486068864,0,0
23.54,6.457771299999999,-7.371467599999999,1.8007021,1000.48645,5.789418651695483,1000.4818392142064,0,0
23.56,6.3526244000000025,-7.2237043,1.8385782,1000.47174,5.785777050873906,1000.4817945576633,0,0
23.58,6.2761607,-7.1236070000000025,1.308326,1000.509,5.781649922714737,1000.481853038734,0,0
23.6,6.2522660000000005,-7.2237043,1.502437,1000.4663,5.777290243070259,1000.4818487216687,0,0
23.62,6.2857385,-7.528764999999999,1.7344241000000002,1000.48956,5.773341197860893,1000.481872667712,0,0
23.64,6.2857385,-7.528764999999999,1.7344241000000002,1000.47925,5.769769205801152,1000.4818843848317,0,0
23.66,6.515182,-7.342869800000001,1.7959724999999995,1000.4741,5.7665838705337675,1000.4818667142937,0,0
23.68,6.3765769999999975,-7.5049324,1.8764583,1000.5094,5.763846718205677,1000.4819502204346,0,0
23.7,6.5008607000000005,-7.1665072,1.7344269,1000.4766,5.761109525038017,1000.4820047456673,0,0
23.72,6.6442633,-7.4668006999999985,1.9569448,1000.4917,5.75911953669789,1000.4820878270782,0,0
23.74,6.4769797,-7.371469999999999,1.8101791,1000.49207,5.757367871574985,1000.4821971736355,0,0
23.76,6.668180499999999,-7.381003,1.9806184,1000.48645,5.756173995339466,1000.4823091024284,0,0
23.78,6.606047,-7.361936599999999,1.8859307,1000.50635,5.755325909414194,1000.4824945499413,0,0
23.8,6.496121,-7.180808,1.6444769,1000.4815,5.754271610241043,1000.4826548309836,0,0
23.82,6.438777,-7.3095050000000015,1.8575263,1000.48145,5.753235727017668,1000.4827921179213,0,0
23.84,6.491363,-7.366703999999999,1.6586821,1000.4737,5.752305625421284,1000.4828806930349,0,0
23.86,6.443569,-7.4715686,1.8433244,1000.48395,5.75163704100746,1000.4829628075099,0,0
23.88,6.352762,-7.495402,1.9900917,1000.4964,5.751176799717463,1000.4830837377536,0,0
23.9,6.414909,-7.4906354,1.7770444,1000.5113,5.750893956643674,1000.4832921702608,0,0
23.92,6.3623400000000006,-7.381005,1.5971377,1000.4991,5.7504649708836135,1000.483533249411,0,0
23.94,6.543986,-7.509701700000001,1.478779,1000.4892,5.7503144771332275,1000.4837666672504,0,0
23.96,6.543986,-7.509701700000001,1.478779,1000.484,5.7504106007000875,1000.4839737552513,0,0
23.98,6.4579306,-7.547834,1.4977148,1000.52185,5.750673831321549,1000.48429309269,0,0
24.0,6.5917726,-7.557367299999999,1.4314339,1000.4815,5.751258535862415,1000.484565204117,0,0
24.02,6.610895599999999,-7.490636,1.3793557,1000.4989,5.7520328527841285,1000.484857247039,0,0
24.04,6.5774484,-7.4858694,1.5403266000000002,1000.4635,5.752967542216122,1000.4850384100757,0,0
24.06,6.5392175,-7.4143715,1.350951,1000.466,5.753821514926245,1000.4851299474583,0,0
24.08,6.333698,-7.385772,1.4219681,1000.4787,5.754299777678585,1000.4851876820793,0,0
24.1,6.314582,-7.438205,1.4693125,1000.4809,5.754515279601398,1000.4852232607344,0,0
24.12,6.180755,-7.543069,1.5876733,1000.479,5.7545252600830485,1000.4852322942958,0,0
24.14,6.24768,-7.457271,1.6823621,1000.4685,5.7543382866716835,1000.4851800400908,0,0
24.16,6.2237887,-7.595501400000002,1.5308620000000002,1000.5138,5.754113923867087,1000.4852369001312,0,0
24.18,6.1520996,-7.657467,1.5687379,1000.4985,5.753875658612051,1000.4853348888223,0,0
24.2,6.223808,-7.381006699999999,1.7060366000000002,1000.4784,5.75332916861861,1000.4853965060299,0,0
24.22,6.25249,-7.3857737,1.5782081,1000.49646,5.752513190907807,1000.4854907795732,0,0
24.24,6.2238193,-7.4954042,1.4787863,1000.49396,5.751564563952409,1000.4856045688693,0,0
24.26,6.262065,-7.538303999999999,1.6302879,1000.48364,5.750669512583808,1000.4856980406433,0,0
24.28,6.343325599999999,-7.485872,1.592413,1000.5159,5.7498369982947395,1000.4858893593566,0,0
24.3,6.3385534,-7.4763384,1.5545383999999998,1000.4859,5.749029010500974,1000.486058446878,0,0
24.32,6.391139,-7.452506,1.4267101,1000.4911,5.748238535605832,1000.486226002203,0,0
24.34,6.3720274,-7.414374,1.4882581,1000.49396,5.747400131575401,1000.4864018964804,0,0
24.36,6.443732,-7.533538,1.606619,1000.5159,5.746842169544541,1000.4866635098364,0,0
24.38,6.4724182999999975,-7.457273,1.587682,1000.48834,5.746447610942679,1000.4869007067624,0,0
24.4,6.5584664,-7.476339999999999,1.5782143,1000.48303,5.746341353686407,1000.487096359422,0,0
24.42,6.510676,-7.3857756,1.5971526000000005,1000.4605,5.746292122870614,1000.487173491218,0,0
24.44,6.5441422,-7.3953085,1.5545437,1000.4605,5.74633961562989,1000.4871456203048,0,0
24.46,6.4485535999999986,-7.4000754,1.5687476,1000.4929,5.746354903091439,1000.4871417093324,0,0
24.48,6.4485535999999986,-7.4000754,1.5687476,1000.5032,5.746341678917055,1000.4871960634438,0,0
24.5,6.4142275,-7.4620194,1.5497303999999998,1000.4879,5.746347150974811,1000.4872466249085,0,0
24.52,6.3233843,-7.452485,1.6728225,1000.50037,5.7462747361766615,1000.4873385451683,0,0
24.54,6.447632,-7.400052499999997,1.705961,1000.4756,5.7462299559051875,1000.4873775071477,0,0
24.56,6.4715050000000005,-7.309488000000001,1.6349425,1000.50073,5.746077787382313,1000.4874600029268,0,0
24.58,6.394988,-7.4191175,1.6396732,1000.47,5.745898955114223,1000.4874700401872,0,0
24.6,6.3567095,-7.5811796,1.6065288,1000.4805,5.745888370544229,1000.4874538169652,0,0
24.62,6.3567095,-7.5811796,1.6065288,1000.5054,5.7460264877447225,1000.4875040883853,0,0
24.64,6.1511383,-7.5907116,1.5023681999999998,1000.48553,5.746008344802491,1000.487541401494,0,0
24.66,6.251500599999999,-7.523979,1.5071013,1000.4929,5.745878499717147,1000.4875936623114,0,0
24.68,6.3614097,-7.361916000000001,1.4171454,1000.5107,5.745514606879479,1000.4877230227852,0,0
24.7,6.3709430000000005,-7.509678,1.5591749,1000.48,5.745232965457027,1000.4878095228185,0,0
24.72,6.3183246,-7.4715447,1.4834208,1000.49475,5.744871285696425,1000.4879109399652,0,0
24.74,6.332651,-7.509677000000001,1.4834197,1000.48,5.744519053687108,1000.4879720727721,0,0
24.76,6.318271,-7.485842999999999,1.5496976,1000.48303,5.7441410196557605,1000.4880082982584,0,0
24.78,6.318271,-7.485842999999999,1.5496976,1000.47504,5.743741547880262,1000.4879936212242,0,0
24.8,6.294333,-7.3523784,1.6491165,1000.4594,5.743117705526795,1000.4878777155606,0,0
24.82,6.394695,-7.328545,1.634912,1000.457,5.74239046870386,1000.4876641415401,0,0
24.84,6.322958,-7.4286423,1.6633148000000002,1000.47253,5.741643760378302,1000.487420944626,0,0
24.86,6.4042015,-7.376209700000001,1.6301727,1000.4923,5.740898133348055,1000.487223620432,0,0
24.88,6.4519730000000015,-7.371442999999997,1.6633111,1000.48193,5.740224555381311,1000.4870302077408,0,0
24.9,6.504524,-7.3285427,1.6159645,1000.4775,5.739606078162862,1000.4868249995387,0,0
24.92,6.471039,-7.385741,1.6585718,1000.5214,5.739095640333716,1000.4867681475732,0,0
24.94,6.3945349999999985,-7.433406,1.701179,1000.5091,5.738668435679345,1000.4867983078453,0,0
24.96,6.2989125,-7.471537599999999,1.6633015,1000.4842,5.738235448445983,1000.4868156035533,0,0
24.98,6.418368,-7.442937400000001,1.4218432,1000.4813,5.737835325254692,1000.486811029868,0,0
25.0,6.4661393,-7.5144353000000015,1.5023255,1000.4868,5.737665670134919,1000.4868069488524,0,0
25.02,6.4613323,-7.4620023,1.5970112,1000.5166,5.737642774306923,1000.4869105978513,0,0
25.04,6.4660993,-7.4763017,1.6727604,1000.4918,5.737803914840957,1000.487019783954,0,0
25.06,6.270100599999999,-7.4810677,1.4313034,1000.4817,5.737795374415902,1000.4870971095725,0,0
25.08,6.423014599999999,-7.400035000000001,1.3271428,1000.4714,5.7376840490954075,1000.4871089248944,0,0
25.1,6.3465110000000005,-7.495365,1.6632831,1000.50653,5.73763395394656,1000.4871892807828,0,0
25.12,6.236562,-7.533498,1.7342978999999998,1000.47424,5.737578681364642,1000.4872136658356,0,0
25.14,6.5041914000000025,-7.3666673,1.7106223000000005,1000.4762,5.7376069882769025,1000.4871955632707,0,0
25.16,6.3623147000000015,-7.428669500000002,1.6066042,1000.4934,5.7375780698527485,1000.487201903817,0,0
25.18,6.324085,-7.381004300000002,1.6492147,1000.48615,5.737388077310298,1000.4872037194698,0,0
25.2,6.285875,-7.4286704,1.7060302,1000.4884,5.737100114266203,1000.4872096303903,0,0
25.22,6.39104,-7.357172999999999,1.6397493000000003,1000.4982,5.736732327601633,1000.4872544186106,0,0
25.24,6.4962144,-7.3238072,1.7155015,1000.48834,5.736412747968612,1000.4872979015753,0,0
25.26,6.5296917,-7.371473299999999,1.58294,1000.48035,5.736209904914444,1000.4873113106764,0,0
25.28,6.462802,-7.357174400000001,1.6113489,1000.47833,5.736007643837315,1000.4872908262404,0,0
25.3,6.5058303,-7.342875,1.5545368999999998,1000.4926,5.735824205234349,1000.4872918392177,0,0
25.32,6.501068599999999,-7.338108,1.4929914,1000.498,5.7356246053486775,1000.4873312836636,0,0
25.34,6.472418,-7.4525065,1.6681669999999995,1000.47546,5.7356069137122585,1000.4873234001548,0,0
25.36,6.41507,-7.428673700000001,1.6776366000000005,1000.48773,5.735639473282747,1000.4873178980458,0,0
25.38,6.376859,-7.4286747,1.6681702,1000.48236,5.735661928776473,1000.4872951879494,0,0
25.4,6.34819,-7.4239087,1.5734831,1000.4828,5.7355975280032725,1000.4872589386316,0,0
