Timestamp,Ax,Ay,Az,P,Value,Type
0.0,7.3154535,4.134224,5.1953874,1001.96783,0,0
0.04,6.5123677,3.705236,4.688799,1001.94507,0,0
0.08,6.6652429999999985,3.814869,4.4946814,1002.00085,0,0
0.12,5.7426677,3.047455,4.7834725,1002.0081,0,0
0.16,5.819065599999999,3.1666207,3.7324278,1001.998,0,0
0.2,5.661253,2.8615632,4.144314,1002.0133,0,0
0.24,4.8533926,1.9606856,3.1690197,1001.9904,0,0
0.28,5.5846195,1.3601016,5.60723,1002.0159,0,0
0.32,4.9249325,0.28762814,5.0059543,1002.01825,0,0
0.36,4.451653,-0.9659745,1.5261593999999998,1001.99304,0,0
0.4,5.316719,-3.4398155,-0.5143761,1001.95306,0,0
0.44,6.7336254,-6.628694,-0.38635635,1002.00574,0,0
0.48,8.937123,-9.583959,0.91560566,1001.98315,0,0
0.52,12.684499,-13.254207999999998,1.4458598,1002.0234,0,0
0.56,15.748362,-13.373372,1.6920497,1002.0685,0,0
0.6,16.96722,-10.499139,2.9324646,1002.05865,0,0
0.64,17.942307999999993,-6.175872,3.618954,1002.04846,0,0
0.68,14.309668,-4.9508667,0.55106056,1002.0133,0,0
0.72,11.126327,-5.7325826,-1.300091,1002.01556,0,0
0.76,8.526122,-6.156806,-2.0623295,1002.0234,0,0
0.8,7.8808570000000016,-5.770715,-2.4505494,1002.0359,0,0
0.84,8.287148,-5.4847220000000005,-2.4032047000000003,1002.0356,0,0
0.88,8.425772,-5.904179,-1.584152,1002.0532,0,0
0.92,8.927661,-5.989977400000001,-1.101242,1002.0786,0,0
0.96,9.047165,-6.1186743,-0.8929273000000001,1002.05817,0,0
1.0,8.550074,-6.5142994000000005,-0.8219103999999999,1002.05066,0,0
1.04,8.449707,-7.1530179999999985,-0.35793790000000003,1002.04596,0,0
1.08,8.158147,-7.5009766,-0.0928105,1002.06323,0,0
1.12,7.5606794000000015,-7.9871655,-0.03126243,1002.05334,0,0
1.16,7.2930199999999985,-8.010997999999999,0.21966185,1002.0659,0,0
1.2,6.5856179999999975,-7.929966999999999,0.0018800236,1002.0609,0,0
1.24,6.121985,-7.786971,-0.050197657,1002.04333,0,0
1.28,5.6631327,-7.8870697,-0.28218263,1002.04047,0,0
1.32,5.027430000000002,-7.582009299999997,-0.6704028000000001,1002.0383,0,0
1.36,5.4862995,-7.081521,-1.1249051,1002.03046,0,0
1.4,5.8304540000000005,-6.8956256,-2.071785,1002.0358,0,0
1.44,6.4851694,-6.7573924,-1.7119810000000002,1002.03033,0,0
1.48,7.417235000000002,-6.4427996,-1.3947756000000002,1002.0383,0,0
1.52,7.6801270000000015,-6.1901727,-1.191196,1002.00323,0,0
1.56,8.191571000000001,-5.8708134,-0.5851917,1002.04333,0,0
1.6,9.506021,-5.027133,-1.5368067,1002.04315,0,0
1.64,8.516605,-5.694451,-1.0207565,1002.0281,0,0
1.68,8.358875999999999,-6.0138099999999985,0.8540683000000001,1002.04816,0,0
1.72,8.411457,-5.6753855,0.67889565,1002.03076,0,0
1.76,8.052976,-5.6467857000000015,-0.4573611,1002.0283,0,0
1.8,8.397125,-5.365558999999998,-1.2338032,1002.0256,0,0
1.84,8.201158,-5.437057,-1.0349579,1002.0334,0,0
1.88,8.23462,-5.6753860000000005,-0.8645188,1002.0557,0,0
1.92,8.368458,-5.5133224,-1.2148646,1002.0358,0,0
1.96,8.220288,-5.5705214000000005,-1.3048178,1002.06854,0,0
2.0,8.196392,-5.7611837,-1.3426927,1002.0359,0,0
2.04,7.7853327,-6.1377416,-1.2148635,1002.0307,0,0
2.08,7.627602599999999,-6.190174,-0.9876116,1002.05347,0,0
2.12,7.627606,-6.156808,-1.101237,1002.0356,0,0
2.16,7.4125185,-6.3141045999999985,-1.162784,1002.0487,0,0
2.2,7.235670599999999,-6.604864599999999,-0.6988119,1002.0613,0,0
2.24,7.1783147,-6.5095334000000005,-0.63253003,1002.0536,0,0
2.28,7.173539999999999,-6.4237356,-0.9450003,1002.0234,0,0
2.32,7.149645,-6.533366,-1.0491569,1002.0663,0,0
2.36,7.178327,-6.2807393,-1.1485791,1002.0713,0,0
2.4,7.068395599999999,-6.442802,-1.0870315000000002,1002.0208,0,0
2.44,7.0817604,-6.4952106,-1.2764969,1002.0234,0,0
2.48,7.081725,-6.5571747,-1.1344681,1002.0537,0,0
2.52,7.0195539999999985,-6.600072999999999,-1.0255796999999998,1002.0387,0,0
2.56,7.067317,-6.40941,-1.1297399,1002.0612,0,0
2.6,7.320613000000002,-6.480907,-0.97824186,1002.04877,0,0
2.64,7.081587299999999,-6.681102,-0.7320561,1002.03613,0,0
2.68,7.3731217,-6.5524044,-0.7036528000000001,1002.07135,0,0
2.72,7.5786266000000015,-6.385574,-0.6184359,1002.0463,0,0
2.76,7.6789556,-6.314074,-0.7225971,1002.0314,0,0
2.8,7.5594254,-6.3093066,-0.67525625,1002.0563,0,0
2.84,7.5020365999999985,-6.480902,-0.73207194,1002.04895,0,0
2.88,7.4255223,-6.495201,-0.75101304,1002.0665,0,0
2.92,7.334672500000001,-6.366503,-0.85990745,1002.0337,0,0
2.96,7.210362400000001,-6.5666976,-0.70840967,1002.04364,0,0
3.0,7.1864257,-6.5857625,-0.7415539000000001,1002.04877,0,0
3.04,7.3250084000000015,-6.5476300000000025,-0.50483656,1002.054,0,0
3.08,7.5591836,-6.2950015,-0.68948156,1002.0563,0,0
3.12,7.649964,-6.1472373,-1.1723941999999998,1002.05426,0,0
3.16,7.4730786999999985,-6.5476269999999985,-0.7841760999999999,1002.04913,0,0
3.2,6.918583,-6.4475284,-0.10242523,1002.0542,0,0
3.24,6.837292999999999,-6.323597,-0.52379024,1002.039,0,0
3.28,6.7990193,-6.461827,0.053803854000000005,1002.05444,0,0
3.32,6.5934525,-6.1662993,-0.064559534,1002.0442,0,0
3.36,6.990140400000001,-6.0471344,-0.06929718,1002.05194,0,0
3.4,7.5015445,-6.161531,-0.6563665,1002.0294,0,0
3.44,7.842263000000001,-6.6000869999999985,-0.13072385,1002.057,0,0
3.48,8.138633,-6.4713907,-0.19226925,1002.0517,0,0
3.52,7.9379,-6.2092304,0.11073451,1002.0322,0,0
3.56,8.109992,-6.066234,0.21015875,1002.04694,0,0
3.6,7.832782300000001,-6.1663322,0.30011418,1002.0473,0,0
3.64,7.698967999999999,-6.037636,0.6173211999999999,1002.04443,0,0
3.68,7.402642,-6.2711973,0.6694015999999999,1002.0599,0,0
3.72,7.2975035,-6.409428,0.7640913,1002.04987,0,0
3.76,7.1636896,-6.662056,0.77829635,1002.0344,0,0
3.8,7.235407,-7.038614999999999,1.1807225,1002.04694,0,0
3.84,7.479197,-6.71449,1.0813019,1002.0273,0,0
3.88,7.536574000000001,-6.7478557,1.1144445,1002.0523,0,0
3.92,7.656090299999999,-6.6000929999999975,1.062368,1002.0344,0,0
3.96,7.4649186,-6.552428,1.2422771,1002.0448,0,0
4.0,7.464939,-6.614393,1.4932026000000005,1002.0093,0,0
4.04,7.1781683,-6.619161,1.3843128999999998,1002.0122,0,0
4.08,6.9678783,-6.5762625,1.5784254,1002.0369,0,0
4.12,6.7097893,-6.790758,1.8956324,1002.0122,0,0
4.16,6.652450999999999,-6.928989,2.00926,1002.0347,0,0
4.2,6.953597500000001,-6.7955256,2.1702313,1002.0495,0,0
4.24,7.049214,-6.4857,2.421157,1002.0398,0,0
4.28,7.1257100000000015,-6.5428989999999985,2.6815507000000003,1002.0172,0,0
4.32,7.0014553,-6.5619655,2.7241623,1002.0347,0,0
4.36,6.695568,-6.69543,2.9088058,1002.042,0,0
4.4,6.5999922999999985,-6.3236384,2.8804014,1002.0498,0,0
4.44,6.2606449999999985,-6.4618697,2.58687,1002.017,0,0
4.48,6.327584,-6.4475703,3.126594,1002.02216,0,0
4.52,6.361062,-6.552435,3.2970345,1001.9993,0,0
4.56,6.361083,-6.78123,3.7278671,1002.042,0,0
4.6,6.6478906,-6.4904704,3.410664,1002.01184,0,0
4.64,6.5236344000000015,-6.3999066,3.2638990000000003,1002.042,0,0
4.68,6.2894444000000025,-6.5095377,2.99404,1002.0322,0,0
4.72,6.461539,-6.56197,3.2733717,1002.0294,0,0
4.76,6.5428133,-6.504772,3.4012022000000006,1002.01465,0,0
4.8,6.657549,-6.5286055,3.3254538,1002.05725,0,0
4.84,6.781845,-6.547672,3.33019,1002.05725,0,0
4.88,7.019656,-6.5381103,3.472114,1002.0373,0,0
4.92,6.9049277,-6.633441,3.2164552000000004,1002.0498,0,0
4.96,6.885795599999999,-6.361747,3.1643755,1002.0219,0,0
5.0,6.8666625,-6.1472516,2.8282316,1002.02936,0,0
5.04,6.833191,-6.2092160000000005,2.8708400000000003,1002.042,0,0
5.08,6.9000949999999985,-6.3712792,3.3726854,1002.0548,0,0
5.12,6.622853,-6.314079799999999,3.509982,1002.0398,0,0
5.16,6.6658583,-6.4475436,3.2353854,1002.0448,0,0
5.2,6.904836,-6.166316,2.9702578,1002.0649,0,0
5.24,6.775767,-6.2902464999999985,2.7477396,1002.0348,0,0
5.28,6.5558830000000015,-6.3236120000000025,2.9655209,1002.05194,0,0
5.32,6.718384,-6.590539,3.145427,1002.0548,0,0
5.36,6.7852883,-6.633437599999999,3.1217537,1002.04193,0,0
5.4,7.043384599999999,-6.51904,3.3584727999999995,1002.03937,0,0
5.44,6.8330600000000015,-6.333143700000001,2.8187497,1002.0394,0,0
5.48,6.914301400000001,-6.1710806,2.8613577,1002.03186,0,0
5.52,7.229757000000001,-5.956585,3.159624,1002.0298,0,0
5.56,7.463955,-6.223512,3.301655,1002.0394,0,0
5.6,7.420923700000001,-6.051915599999999,3.3158572,1002.0699,0,0
5.64,6.646582,-6.3569755999999975,2.8566186,1002.04706,0,0
5.68,6.426697,-6.290243,3.2448387000000003,1002.04944,0,0
5.72,6.665673700000001,-6.213978,3.3821354,1002.052,0,0
5.76,6.8568544000000005,-6.1377120000000005,3.3868685,1002.00684,0,0
5.8,6.856839999999999,-6.142478,3.1501472,1002.0671,0,0
5.84,6.8711667,-6.147245,3.4010692,1002.04443,0,0
5.88,6.8141003,-6.104353,3.2685325,1002.04443,0,0
5.92,7.091328,-6.147252,3.4484398,1002.02875,0,0
5.96,7.2586193,-5.889858,3.3300798,1002.02185,0,0
6.0,7.1439037,-5.9804225,3.3300796000000004,1002.0392,0,0
6.04,7.3154535,4.134224,5.1953874,1001.96783,0,0
6.08,6.5123677,3.705236,4.688799,1001.94507,0,0
6.12,6.6652429999999985,3.814869,4.4946814,1002.00085,0,0
6.16,5.7426677,3.047455,4.7834725,1002.0081,0,0
6.2,5.819065599999999,3.1666207,3.7324278,1001.998,0,0
6.24,5.661253,2.8615632,4.144314,1002.0133,0,0
6.28,4.8533926,1.9606856,3.1690197,1001.9904,0,0
6.32,5.5846195,1.3601016,5.60723,1002.0159,0,0
6.36,4.9249325,0.28762814,5.0059543,1002.01825,0,0
6.4,4.451653,-0.9659745,1.5261593999999998,1001.99304,0,0
6.44,5.316719,-3.4398155,-0.5143761,1001.95306,0,0
6.48,6.7336254,-6.628694,-0.38635635,1002.00574,0,0
6.52,8.937123,-9.583959,0.91560566,1001.98315,0,0
6.56,12.684499,-13.254207999999998,1.4458598,1002.0234,0,0
6.6,15.748362,-13.373372,1.6920497,1002.0685,0,0
6.64,16.96722,-10.499139,2.9324646,1002.05865,0,0
6.68,17.942307999999993,-6.175872,3.618954,1002.04846,0,0
6.72,14.309668,-4.9508667,0.55106056,1002.0133,0,0
6.76,11.126327,-5.7325826,-1.300091,1002.01556,0,0
6.8,8.526122,-6.156806,-2.0623295,1002.0234,0,0
6.84,7.8808570000000016,-5.770715,-2.4505494,1002.0359,0,0
6.88,8.287148,-5.4847220000000005,-2.4032047000000003,1002.0356,0,0
6.92,8.425772,-5.904179,-1.584152,1002.0532,0,0
6.96,8.927661,-5.989977400000001,-1.101242,1002.0786,0,0
7.0,9.047165,-6.1186743,-0.8929273000000001,1002.05817,0,0
7.04,8.550074,-6.5142994000000005,-0.8219103999999999,1002.05066,0,0
7.08,8.449707,-7.1530179999999985,-0.35793790000000003,1002.04596,0,0
7.12,8.158147,-7.5009766,-0.0928105,1002.06323,0,0
7.16,7.5606794000000015,-7.9871655,-0.03126243,1002.05334,0,0
7.2,7.2930199999999985,-8.010997999999999,0.21966185,1002.0659,0,0
7.24,6.5856179999999975,-7.929966999999999,0.0018800236,1002.0609,0,0
7.28,6.121985,-7.786971,-0.050197657,1002.04333,0,0
7.32,5.6631327,-7.8870697,-0.28218263,1002.04047,0,0
7.36,5.027430000000002,-7.582009299999997,-0.6704028000000001,1002.0383,0,0
7.4,5.4862995,-7.081521,-1.1249051,1002.03046,0,0
7.44,5.8304540000000005,-6.8956256,-2.071785,1002.0358,0,0
7.48,6.4851694,-6.7573924,-1.7119810000000002,1002.03033,0,0
7.52,7.417235000000002,-6.4427996,-1.3947756000000002,1002.0383,0,0
7.56,7.6801270000000015,-6.1901727,-1.191196,1002.00323,0,0
7.6,8.191571000000001,-5.8708134,-0.5851917,1002.04333,0,0
7.64,9.506021,-5.027133,-1.5368067,1002.04315,0,0
7.68,8.516605,-5.694451,-1.0207565,1002.0281,0,0
7.72,8.358875999999999,-6.0138099999999985,0.8540683000000001,1002.04816,0,0
7.76,8.411457,-5.6753855,0.67889565,1002.03076,0,0
7.8,8.052976,-5.6467857000000015,-0.4573611,1002.0283,0,0
7.84,8.397125,-5.365558999999998,-1.2338032,1002.0256,0,0
7.88,8.201158,-5.437057,-1.0349579,1002.0334,0,0
7.92,8.23462,-5.6753860000000005,-0.8645188,1002.0557,0,0
7.96,8.368458,-5.5133224,-1.2148646,1002.0358,0,0
8.0,8.220288,-5.5705214000000005,-1.3048178,1002.06854,0,0
8.04,8.196392,-5.7611837,-1.3426927,1002.0359,0,0
8.08,7.7853327,-6.1377416,-1.2148635,1002.0307,0,0
8.12,7.627602599999999,-6.190174,-0.9876116,1002.05347,0,0
8.16,7.627606,-6.156808,-1.101237,1002.0356,0,0
8.2,7.4125185,-6.3141045999999985,-1.162784,1002.0487,0,0
8.24,7.235670599999999,-6.604864599999999,-0.6988119,1002.0613,0,0
8.28,7.1783147,-6.5095334000000005,-0.63253003,1002.0536,0,0
8.32,7.173539999999999,-6.4237356,-0.9450003,1002.0234,0,0
8.36,7.149645,-6.533366,-1.0491569,1002.0663,0,0
8.4,7.178327,-6.2807393,-1.1485791,1002.0713,0,0
8.44,7.068395599999999,-6.442802,-1.0870315000000002,1002.0208,0,0
8.48,7.0817604,-6.4952106,-1.2764969,1002.0234,0,0
8.52,7.081725,-6.5571747,-1.1344681,1002.0537,0,0
8.56,7.0195539999999985,-6.600072999999999,-1.0255796999999998,1002.0387,0,0
8.6,7.067317,-6.40941,-1.1297399,1002.0612,0,0
8.64,7.320613000000002,-6.480907,-0.97824186,1002.04877,0,0
8.68,7.081587299999999,-6.681102,-0.7320561,1002.03613,0,0
8.72,7.3731217,-6.5524044,-0.7036528000000001,1002.07135,0,0
8.76,7.5786266000000015,-6.385574,-0.6184359,1002.0463,0,0
8.8,7.6789556,-6.314074,-0.7225971,1002.0314,0,0
8.84,7.5594254,-6.3093066,-0.67525625,1002.0563,0,0
8.88,7.5020365999999985,-6.480902,-0.73207194,1002.04895,0,0
8.92,7.4255223,-6.495201,-0.75101304,1002.0665,0,0
8.96,7.334672500000001,-6.366503,-0.85990745,1002.0337,0,0
9.0,7.210362400000001,-6.5666976,-0.70840967,1002.04364,0,0
9.04,7.1864257,-6.5857625,-0.7415539000000001,1002.04877,0,0
9.08,7.3250084000000015,-6.5476300000000025,-0.50483656,1002.054,0,0
9.12,7.5591836,-6.2950015,-0.68948156,1002.0563,0,0
9.16,7.649964,-6.1472373,-1.1723941999999998,1002.05426,0,0
9.2,7.4730786999999985,-6.5476269999999985,-0.7841760999999999,1002.04913,0,0
9.24,6.918583,-6.4475284,-0.10242523,1002.0542,0,0
9.28,6.837292999999999,-6.323597,-0.52379024,1002.039,0,0
9.32,6.7990193,-6.461827,0.053803854000000005,1002.05444,0,0
9.36,6.5934525,-6.1662993,-0.064559534,1002.0442,0,0
9.4,6.990140400000001,-6.0471344,-0.06929718,1002.05194,0,0
9.44,7.5015445,-6.161531,-0.6563665,1002.0294,0,0
9.48,7.842263000000001,-6.6000869999999985,-0.13072385,1002.057,0,0
9.52,8.138633,-6.4713907,-0.19226925,1002.0517,0,0
9.56,7.9379,-6.2092304,0.11073451,1002.0322,0,0
9.6,8.109992,-6.066234,0.21015875,1002.04694,0,0
9.64,7.832782300000001,-6.1663322,0.30011418,1002.0473,0,0
9.68,7.698967999999999,-6.037636,0.6173211999999999,1002.04443,0,0
9.72,7.402642,-6.2711973,0.6694015999999999,1002.0599,0,0
9.76,7.2975035,-6.409428,0.7640913,1002.04987,0,0
9.8,7.1636896,-6.662056,0.77829635,1002.0344,0,0
9.84,7.235407,-7.038614999999999,1.1807225,1002.04694,0,0
9.88,7.479197,-6.71449,1.0813019,1002.0273,0,0
9.92,7.536574000000001,-6.7478557,1.1144445,1002.0523,0,0
9.96,7.656090299999999,-6.6000929999999975,1.062368,1002.0344,0,0
10.0,7.4649186,-6.552428,1.2422771,1002.0448,0,0
10.04,7.464939,-6.614393,1.4932026000000005,1002.0093,0,0
10.08,7.1781683,-6.619161,1.3843128999999998,1002.0122,0,0
10.12,6.9678783,-6.5762625,1.5784254,1002.0369,0,0
10.16,6.7097893,-6.790758,1.8956324,1002.0122,0,0
10.2,6.652450999999999,-6.928989,2.00926,1002.0347,0,0
10.24,6.953597500000001,-6.7955256,2.1702313,1002.0495,0,0
10.28,7.049214,-6.4857,2.421157,1002.0398,0,0
10.32,7.1257100000000015,-6.5428989999999985,2.6815507000000003,1002.0172,0,0
10.36,7.0014553,-6.5619655,2.7241623,1002.0347,0,0
10.4,6.695568,-6.69543,2.9088058,1002.042,0,0
10.44,6.5999922999999985,-6.3236384,2.8804014,1002.0498,0,0
10.48,6.2606449999999985,-6.4618697,2.58687,1002.017,0,0
10.52,6.327584,-6.4475703,3.126594,1002.02216,0,0
10.56,6.361062,-6.552435,3.2970345,1001.9993,0,0
10.6,6.361083,-6.78123,3.7278671,1002.042,0,0
10.64,6.6478906,-6.4904704,3.410664,1002.01184,0,0
10.68,6.5236344000000015,-6.3999066,3.2638990000000003,1002.042,0,0
10.72,6.2894444000000025,-6.5095377,2.99404,1002.0322,0,0
10.76,6.461539,-6.56197,3.2733717,1002.0294,0,0
10.8,6.5428133,-6.504772,3.4012022000000006,1002.01465,0,0
10.84,6.657549,-6.5286055,3.3254538,1002.05725,0,0
10.88,6.781845,-6.547672,3.33019,1002.05725,0,0
10.92,7.019656,-6.5381103,3.472114,1002.0373,0,0
10.96,6.9049277,-6.633441,3.2164552000000004,1002.0498,0,0
11.0,6.885795599999999,-6.361747,3.1643755,1002.0219,0,0
11.04,6.8666625,-6.1472516,2.8282316,1002.02936,0,0
11.08,6.833191,-6.2092160000000005,2.8708400000000003,1002.042,0,0
11.12,6.9000949999999985,-6.3712792,3.3726854,1002.0548,0,0
11.16,6.622853,-6.314079799999999,3.509982,1002.0398,0,0
11.2,6.6658583,-6.4475436,3.2353854,1002.0448,0,0
11.24,6.904836,-6.166316,2.9702578,1002.0649,0,0
11.28,6.775767,-6.2902464999999985,2.7477396,1002.0348,0,0
11.32,6.5558830000000015,-6.3236120000000025,2.9655209,1002.05194,0,0
11.36,6.718384,-6.590539,3.145427,1002.0548,0,0
11.4,6.7852883,-6.633437599999999,3.1217537,1002.04193,0,0
11.44,7.043384599999999,-6.51904,3.3584727999999995,1002.03937,0,0
11.48,6.8330600000000015,-6.333143700000001,2.8187497,1002.0394,0,0
11.52,6.914301400000001,-6.1710806,2.8613577,1002.03186,0,0
11.56,7.229757000000001,-5.956585,3.159624,1002.0298,0,0
11.6,7.463955,-6.223512,3.301655,1002.0394,0,0
11.64,7.420923700000001,-6.051915599999999,3.3158572,1002.0699,0,0
11.68,6.646582,-6.3569755999999975,2.8566186,1002.04706,0,0
11.72,6.426697,-6.290243,3.2448387000000003,1002.04944,0,0
11.76,6.665673700000001,-6.213978,3.3821354,1002.052,0,0
11.8,6.8568544000000005,-6.1377120000000005,3.3868685,1002.00684,0,0
11.84,6.856839999999999,-6.142478,3.1501472,1002.0671,0,0
11.88,6.8711667,-6.147245,3.4010692,1002.04443,0,0
11.92,6.8141003,-6.104353,3.2685325,1002.04443,0,0
11.96,7.091328,-6.147252,3.4484398,1002.02875,0,0
12.0,7.2586193,-5.889858,3.3300798,1002.02185,0,0
12.04,7.1439037,-5.9804225,3.3300796000000004,1002.0392,0,0
12.08,7.258617,-5.985189,3.476846,1002.01654,0,0
12.12,7.1247816,-5.9279904000000005,3.282735,1002.02936,0,0
12.16,6.981386,-5.742095,3.2401257,1002.052,0,0
12.2,6.8953485,-5.880325,3.0412803,1002.0695,0,0
12.24,6.952704400000001,-5.875558,3.2211878,1002.02655,0,0
12.28,6.9622636,-5.8993910000000005,3.0412803,1002.0366,0,0
12.32,7.057858,-5.975656,3.0933585,1002.0745,0,0
12.36,7.2920675,-5.8707910000000005,3.1264992,1002.04913,0,0
12.4,7.631432000000001,-5.8421917,3.2448592,1002.0746,0,0
12.44,7.531055,-5.7945265999999975,2.7004025,1002.054,0,0
12.48,7.669668,-5.813592400000001,2.8803098,1002.047,0,0
12.52,7.526273,-5.808826,2.5157607000000004,1001.99603,0,0
12.56,7.4832535,-5.880324400000001,2.9655287,1002.0291,0,0
12.6,9.906613,-5.022343599999999,1.9192252,1002.03656,0,0
12.64,7.3207369999999985,-6.0805197,3.3111403,1002.00885,0,0
12.68,7.621863999999999,-5.627697,2.0091786,1002.0165,0,0
12.72,7.626641800000002,-5.4989996,1.6304261999999998,1002.0492,0,0
12.76,7.640980199999999,-5.7039620000000015,1.0907038,1002.054,0,0
12.8,7.650539,-5.8564916,0.9581405,1002.0341,0,0
12.84,8.439205000000001,-5.6896615,1.3700336000000002,1002.04395,0,0
12.88,7.588399400000001,-5.937523400000001,1.142782,1002.0336,0,0
12.92,8.391405,-5.5037656,0.5841221999999999,1002.07404,0,0
12.96,7.961221000000001,-6.156784,0.7782326999999999,1002.05145,0,0
13.0,7.6505327,-6.1758504,1.3510956,1002.0513,0,0
13.04,7.483238,-5.8278919999999985,0.2148383,1002.0463,0,0
13.08,7.736566499999999,-6.0137873,1.3037513,1002.04913,0,0
13.12,7.932537599999999,-5.985188,1.2895479,1002.01135,0,0
13.16,7.8178205,-5.7516265,0.8729203000000001,1002.0235,0,0
13.2,7.7795809999999985,-5.6467624,0.67407507,1002.04614,0,0
13.24,7.77002,-5.9947214,1.2848132,1002.0336,0,0
13.28,7.903853999999999,-5.8755574,1.5594085,1002.04614,0,0
13.32,7.2920375,-5.9804214999999985,1.0812335,1002.0437,0,0
13.36,7.397191499999999,-6.2378160000000005,1.8008629,1002.0512,0,0
13.4,7.832152400000001,-5.8755574,2.4352732000000006,1002.0643,0,0
13.44,7.268134599999999,-5.970888,1.6682993000000002,1002.0412,0,0
13.48,7.789131599999997,-5.2940373,1.4741886,1002.0361,0,0
13.52,8.018561,-5.255904,1.8292689,1002.05145,0,0
13.56,7.5166807,-5.7039614,1.4647195,1002.0587,0,0
13.6,7.908622999999999,-5.599097,1.7014396,1002.0437,0,0
13.64,7.8703837,-5.88509,1.706174,1002.0336,0,0
13.68,7.3780622,-6.2616477,1.7724556,1002.0362,0,0
13.72,7.6218314,-5.9708877000000005,1.9239564,1002.04645,0,0
13.76,8.644708999999999,-5.765926,2.7430086,1002.0537,0,0
13.8,8.080689999999999,-5.804058,1.7629863,1002.0462,0,0
13.84,7.975498700000001,-5.9661207,1.1238385,1002.03357,0,0
13.88,8.238386,-5.8374233,1.8292646,1002.0612,0,0
13.92,7.11035,-6.3617444,1.3416207,1002.02606,0,0
13.96,7.79386,-6.5905395,2.0186405,1002.0259,0,0
14.0,7.301539,-6.528574,1.7251072,1002.03357,0,0
14.04,7.4305910000000015,-5.9327545,1.4079019,1002.0512,0,0
14.08,7.793854,-5.9089212,1.1096343000000002,1002.0233,0,0
14.12,7.4544864,-6.09005,0.967602,1002.0185,0,0
14.16,7.3397694000000016,-6.3712773,1.2043221000000002,1002.05096,0,0
14.2,7.0434194,-6.4380093,1.370026,1002.0536,0,0
14.24,7.186812,-6.3474445,1.4221042,1002.0434,0,0
14.28,7.2919655,-6.4189425,1.0480862,1002.05347,0,0
14.32,7.1055512,-6.39511,0.7072088000000001,1002.0585,0,0
14.36,6.7948619999999975,-6.028085,0.78769356,1002.0409,0,0
14.4,7.3349776,-6.3522110000000005,0.877647,1002.0458,0,0
14.44,7.1390038,-6.2950125,0.62672347,1002.06104,0,0
14.48,7.3971114,-6.290246,0.64092654,1002.0358,0,0
14.52,7.6599984,-6.2235136,0.35686198,1002.06323,0,0
14.56,7.8942074999999985,-6.1806145,0.4562843,1002.0334,0,0
14.6,8.075838000000001,-6.047151,0.6314571,1002.0458,0,0
14.64,8.228789,-5.861255,0.34265825,1002.0559,0,0
14.68,8.090174000000001,-5.9041543,0.24323556,1002.0253,0,0
14.72,8.166649000000001,-5.575262,0.16275050000000002,1002.04333,0,0
14.76,7.970674000000002,-5.818356,0.20062555,1002.0604,0,0
14.8,7.626525999999999,-5.775457,0.37579834,1002.063,0,0
14.84,7.564723,-5.6992,0.4089698,1002.03784,0,0
14.88,7.5742949999999984,-6.433251,0.48945582,1002.0607,0,0
14.92,7.048527,-6.376052,0.36636224,1002.063,0,0
14.96,7.626894,-5.4370403,0.33322240000000003,1002.02295,0,0
15.0,8.425135000000001,-5.1081486,0.02075278,1002.0655,0,0
15.04,8.721494,-5.222546,0.29061487,1002.03015,0,0
15.08,8.640248,-5.213013,0.5652114,1002.04047,0,0
15.12,8.487304,-5.37031,0.7072444999999999,1002.0605,0,0
15.16,8.353481,-5.446575,0.9202937,1002.0584,0,0
15.2,8.253117,-5.3703103,0.735653,1002.0705,0,0
15.24,8.085836,-5.5609730000000015,0.55574673,1002.0605,0,0
15.28,8.133644,-5.622939,0.6551701,1002.063,0,0
15.32,8.339188,-5.6324716,0.5794208000000001,1002.0605,0,0
15.36,8.124106,-5.699204,0.40424874,1002.0402,0,0
15.4,7.947265,-5.851734,0.26221767,1002.0477,0,0
15.44,7.866020699999999,-5.8279014,0.3332348,1002.0627,0,0
15.48,7.861251400000001,-5.9136996,0.45159596,1002.0477,0,0
15.52,7.808685,-6.0185647000000015,0.44686258,1002.0297,0,0
15.56,7.765678,-6.047164,0.46106684,1002.0377,0,0
15.6,7.8708444,-5.7659373,0.15333147,1002.03253,0,0
15.64,8.329718,-5.5657425000000025,0.54628813,1002.0249,0,0
15.68,8.611737,-5.2702155,0.70252454,1002.0423,0,0
15.72,8.310621000000001,-5.289283,0.89190173,1002.0399,0,0
15.76,8.320191000000001,-5.1367526,1.5310473,1002.06537,0,0
15.8,8.052534,-5.117687,0.94871664,1002.0701,0,0
15.84,8.224459,-5.084317,1.5641757,1002.07526,0,0
15.88,7.8994365,-5.270213,1.7535523999999998,1002.0375,0,0
15.92,7.93768,-5.170116,2.0991645,1002.0599,0,0
15.96,7.870767,-5.165349,2.1749156000000003,1002.04987,0,0
16.0,8.20058,-5.008053,2.4211047000000003,1002.04736,0,0
16.04,8.539951,-4.9699206,2.3169484,1002.0323,0,0
16.08,8.281846,-5.15105,2.1370412999999995,1002.0698,0,0
16.12,7.952044,-5.122451,2.1039011000000003,1002.04224,0,0
16.16,8.238837,-4.9794540000000005,1.8245715,1002.0724,0,0
16.2,8.272300999999999,-5.031886599999999,1.8766505,1002.04956,0,0
16.24,8.468278,-4.988988,2.0849648000000003,1002.0245,0,0
16.28,8.320109,-4.993754,2.1749191000000003,1002.07733,0,0
16.32,8.214959,-5.1367507,2.29328,1002.04956,0,0
16.36,8.06201,-5.1987166,2.061294,1002.03424,0,0
16.4,7.8469234,-5.313114,1.8435119,1002.04224,0,0
16.44,7.6557364,-5.4227447999999985,1.6494018,1002.0522,0,0
16.48,7.9329696,-5.470411,1.7109495,1002.0543,0,0
16.52,8.028571000000001,-5.5562086,1.4836986,1002.0497,0,0
16.56,7.9138600000000014,-5.7182717000000025,1.0197273,1002.0567,0,0
16.6,8.128958,-5.7754703,0.82088286,1002.0419,0,0
16.64,8.1289625,-5.7802377,0.65044475,1002.0571,0,0
16.68,8.320159,-5.746871499999999,0.3521777,1002.05927,0,0
16.72,8.530477000000001,-5.632474,0.21961494,1002.05164,0,0
16.76,8.27237,-5.7802377,0.10125516,1002.05176,0,0
16.8,7.999927,-5.9089345999999985,0.20067813,1002.0543,0,0
16.84,7.961883999999999,-5.9041734,0.2953841,1002.0518,0,0
16.88,8.162649,-5.8517410000000005,0.43268302,1002.0567,0,0
16.92,7.804176299999999,-5.8994074,0.43268418,1002.0366,0,0
16.96,7.7372713000000015,-6.0138044000000015,0.3711381,1002.05164,0,0
17.0,7.550872,-6.1568017,0.34746724,1002.0468,0,0
17.04,7.445729300000001,-6.223534,0.32379636,1002.0465,0,0
17.08,7.4839787,-6.1997013,0.3758758,1002.07416,0,0
17.12,7.421854,-6.1854024,0.13915673,1002.0538,0,0
17.16,7.5604809999999985,-6.090071,-0.04548383,1002.0715,0,0
17.2,7.550934,-6.1425037000000025,0.01606452,1002.0439,0,0
17.24,7.555725999999999,-6.071006,-0.059684765,1002.026,0,0
17.28,7.6991353,-6.0662394,0.15809923,1002.05896,0,0
17.32,7.8425392999999985,-6.047173,0.16756889,1002.0639,0,0
17.36,7.8282156,-6.05194,0.20071116,1002.0436,0,0
17.4,7.6418157,-6.1091394,0.068149015,1002.0436,0,0
17.44,7.689626,-6.1043725,0.35221446,1002.0307,0,0
17.48,7.627500500000001,-6.0948405,0.3048715,1002.04346,0,0
17.52,7.665752,-6.113907,0.29066944,1002.02325,0,0
17.56,7.742237599999997,-5.994743,0.45164,1002.0383,0,0
17.6,7.799608,-6.099608,0.34748426,1002.0484,0,0
17.64,7.7948437,-6.1186743,0.35222012,1002.018,0,0
17.68,7.732717999999997,-6.0185765999999985,0.28120512,1002.04846,0,0
17.72,7.727952,-6.0233436,0.09183018,1002.0433,0,0
17.76,7.713622,-5.9899783,0.08709665,1002.0355,0,0
17.8,7.737533,-6.075776,0.26227072,1002.0355,0,0
17.84,8.033545,-5.999503,0.40900636,1002.0433,0,0
17.88,7.7993317,-6.0185695,0.4563503,1002.05316,0,0
17.92,7.608138,-6.1186666,0.09180099,1002.03314,0,0
17.96,7.651155,-6.0996013,0.13441055,1002.0532,0,0
18.0,7.6559339999999985,-6.147267,0.3237866,1002.0581,0,0
18.04,7.574675599999999,-6.1758657,0.30484885,1002.0532,0,0
18.08,7.7085094,-6.061468,0.33798963,1002.0408,0,0
18.12,7.7037277,-6.099601,0.21489495,1002.0278,0,0
18.16,7.636809299999999,-6.0662346,0.32852057,1002.03033,0,0
18.2,7.641588,-6.1949315,0.18648829,1002.03033,0,0
18.24,7.608128,-6.190165,0.20069137,1002.03284,0,0
18.28,7.6511455,-6.1424994,0.20542566,1002.0273,0,0
18.32,7.708502,-6.1234335999999985,0.2527696,1002.0272,0,0
18.36,7.756297999999999,-6.0567017,0.24803512,1002.0274,0,0
18.4,7.789756,-5.994736,0.20542534,1002.0249,0,0
18.44,7.737177,-6.0185695,0.2575037,1002.0247,0,0
18.48,7.808872,-6.0424023,0.3001132,1002.025,0,0
18.52,7.6845965,-6.032869,0.28117546,1002.0347,0,0
18.56,7.6941547,-6.1281996,0.31431620000000005,1002.0245,0,0
18.6,7.6463556,-6.142499,0.26223764,1002.017,0,0
18.64,7.6941524,-6.0853004,0.13914300000000002,1002.0247,0,0
18.68,7.7371693,-6.071001,0.020782761,1002.03705,0,0
18.72,7.713269,-6.123433,0.110736325,1002.0245,0,0
18.76,7.6750293,-6.175865,0.21962753,1002.01685,0,0
18.8,7.627229700000001,-6.123433,0.13440813,1002.0473,0,0
18.84,7.474692299999999,-6.233074,0.21019667,1002.0573,0,0
18.88,7.584642,-6.11391,0.2196668,1002.01685,0,0
18.92,7.646795699999997,-6.132977,0.23387146,1002.0344,0,0
18.96,7.766305,-6.113911,0.2196696,1002.0372,0,0
19.0,7.8332367,-6.252142,0.46586004,1002.0269,0,0
19.04,7.522565400000001,-6.5476685,0.63629997,1002.0394,0,0
19.08,7.5034614,-6.295041,0.3285651,1002.0445,0,0
19.12,7.274045,-5.9089503,0.120252565,1002.01416,0,0
19.16,7.035069,-5.8803515,0.30963007,1002.0191,0,0
19.2,7.1784786999999985,-5.9613830000000005,0.10131766,1002.0242,0,0
19.24,7.374465499999999,-5.9709167,0.21021034,1002.0087,0,0
19.28,7.7377462,-6.256911,0.40905672,1002.01117,0,0
19.32,8.110586,-6.8527308000000025,0.7262633000000001,1002.0363,0,0
19.36,8.182299,-6.485707,0.9393129,1002.0517,0,0
19.4,8.072372,-6.1091485,0.5842334,1002.0363,0,0
19.44,7.733026,-5.980452,-0.15433192,1002.04926,0,0
19.48,7.51317,-6.3856096,-0.064376935,1002.03925,0,0
19.52,7.0734429999999975,-6.948064,0.2717672,1002.0363,0,0
19.56,7.0925784,-6.9099317,0.52269214,1002.0238,0,0
19.6,7.1451707,-6.6525380000000025,0.17234747,1002.026,0,0
19.64,7.4988914000000015,-6.385611,0.11080159,1002.04865,0,0
19.68,7.9147487,-6.1091514,0.12027183,1002.0388,0,0
19.72,7.924322599999999,-6.0757856,-0.02175901,1002.0288,0,0
19.76,7.5515137,-5.9375563,-0.2679467,1002.01855,0,0
19.8,7.508509599999999,-5.9518559999999985,0.18182309,1002.01855,0,0
19.84,7.608900500000002,-6.013821,0.6457961999999999,1002.0437,1,1
19.88,7.8479056,-6.09962,0.8209705,1002.04114,1,1
19.92,7.503775599999999,-6.0471883,0.63159573,1002.0106,1,1
19.96,7.49423,-6.171119,0.49903372,1002.04095,1,1
20.0,7.389089599999997,-6.3427157,0.51323825,1002.03314,1,1
20.04,7.542723,-6.7049904000000025,0.4044092,1002.0412,1,1
20.08,7.365907000000001,-6.933786,0.5511792,1002.0259,1,1
20.12,5.7551513,-7.6249375,0.054070085,1002.00775,1,1
20.16,5.1003504,-7.815600999999999,-0.9259486,1002.04065,1,1
20.2,4.2878284,-7.977664,-0.6087395,1002.0532,1,1
20.24,4.4455967,-7.977666,-0.38621932,1002.0582,1,1
20.28,5.497191,-8.492455,-0.12108922,1002.0454,1,1
20.32,7.2705307,-8.74985,-0.040601376,1002.0454,1,1
20.36,8.623256,-8.997712,1.2329571,1002.05804,1,1
20.4,8.795366,-8.697419,2.6580164,1002.0278,1,1
20.44,9.564947,-6.8241634000000015,3.0462408,1002.0604,1,1
20.48,10.879429,-5.2416673,0.39497733,1002.0052,1,1
20.52,11.739834,-4.1834927,-1.1152942,1002.05023,1,1
20.56,11.166295,-4.0738629999999985,-0.2915043,1002.00244,1,1
20.6,11.075517,-4.7221160000000015,-0.51401794,1002.0299,1,1
20.64,11.64913,-4.374158,-0.44773284,1002.0655,1,1
20.68,11.7113,-4.4170574999999985,0.14880516,1002.0303,1,1
20.72,11.677881,-4.912781,0.0020422377,1002.06744,1,1
20.76,10.908371,-5.761228,0.2671723,1002.0551,1,1
20.8,9.775592,-6.4380803,0.3808012,1002.0323,1,1
20.84,8.642816,-7.000535,0.64593136,1002.0673,1,1
20.88,8.054936,-7.481958,0.46129292,1002.0626,1,1
20.92,7.194609,-7.996747,0.44709313,1002.0825,1,1
20.96,6.472893,-8.468637,0.6601445,1002.0397,1,1
21.0,5.7941965999999985,-8.964360000000003,0.9347433,1002.0296,1,1
21.04,3.8994806,-10.074921,0.267017,1002.0472,1,1
21.08,3.0534139,-11.724148,-1.5888735,1002.017,1,1
21.12,2.7426894,-13.163648,-3.3169346,1002.004,1,1
21.16,3.7320724,-11.752747,-1.6125523000000002,1002.00653,1,1
21.2,7.273862400000001,-10.041551,-1.7261821,1002.01416,1,1
21.24,8.784244000000001,-9.850887,-3.089694,1002.0193,1,1
21.28,9.18093,-10.480072,-2.4978967,1002.0116,1,1
21.32,8.980137,-10.599236,-0.8929372999999999,1002.01166,1,1
21.36,9.606256,-9.436193,0.7309601,1002.01166,1,1
21.4,10.404446,-8.049126,1.3890389,1002.0138,1,1
21.44,9.921643,-7.9966917,0.88245386,1002.0138,1,1
21.48,11.470261,-5.8183746,1.8103936,1002.01166,1,1
21.52,11.843051,-3.3778968000000003,3.069742,1002.02386,1,1
21.56,11.776093,-2.429351,4.106573,1002.0163,1,1
21.6,12.129757,-2.2529874,3.1170788,1002.04895,1,1
21.64,12.273114,-4.2692404,1.5073777,1002.01605,1,1
21.68,12.813193,-6.5190544,1.1617625,1001.98846,1,1
21.72,13.061704,-8.287446000000001,1.2138374,1001.98346,1,1
21.76,11.957533,-8.220714,1.0007857,1002.011,1,1
21.8,11.441275,-9.931906,0.35690323,1002.04364,1,1
21.84,12.378077,-13.211296,-1.0302811,1002.0311,1,1
21.88,12.669604,-14.669862,-0.2538422,1002.0487,1,1
21.92,10.566454,-13.597384,1.8434956,1002.0512,1,1
21.96,7.7893485999999985,-11.299904,2.2411823,1002.0537,1,1
22.0,6.8142314,-11.118773,0.76404446,1002.0737,1,1
22.04,5.8247733,-9.21215,0.30480359999999995,1002.0459,1,1
22.08,4.734938,-8.115842,1.0859767,1002.0359,1,1
22.12,3.9223354,-7.0910306,1.6209612,1002.0234,1,1
22.16,2.1250873,-7.52002,0.68827957,1002.0409,1,1
22.2,-0.3795695,-9.46954,-0.58527887,1002.00574,1,1
22.24,0.5763543999999999,-11.142601,-2.5926697,1001.98785,1,1
22.28,3.9269578,-12.005346,-1.8635752,1002.0207,1,1
22.32,6.761344,-12.920525,0.6787968000000001,1002.0107,1,1
22.36,11.335575,-11.714585,0.020710725,1001.9979,1,1
22.4,12.783819,-11.590653,-2.1665876,1002.02057,1,1
22.44,13.591566,-11.395224,-3.3407235,1002.04047,1,1
22.48,12.525631,-9.917589,-2.2565484,1002.038,1,1
22.52,11.115553,-9.73646,0.21954177,1002.01276,1,1
22.56,10.193015,-9.698327,1.4078742,1002.04285,1,1
22.6,9.624175,-8.392289,1.114337,1002.023,1,1
22.64,10.121238,-6.0852747,1.5593677,1002.0403,1,1
22.68,11.158418,-3.5589983,1.7913501,1002.03546,1,1
22.72,12.324648,-2.2958598,2.3026621,1002.0302,1,1
22.76,12.348511,-2.6104517000000005,1.4694035,1002.0378,1,1
22.8,12.821671,-5.484685,1.2184764,1002.0227,1,1
22.84,12.711694,-7.987126400000001,2.3641984000000003,1002.0578,1,1
22.88,12.568263,-7.510469400000002,2.9607306,1002.0403,1,1
22.92,12.013766,-9.302693,1.3131536,1002.0274,1,1
22.96,11.373238,-12.329456,0.4325513,1002.02496,1,1
23.0,11.764316,-14.369639,0.47078475,1002.05786,1,1
23.04,11.945992,-14.264776,1.9668605,1002.06995,1,1
23.08,10.014994,-12.915842,2.4213672,1002.0294,1,1
23.12,7.993173,-12.00543,1.6828038,1002.06726,1,1
23.16,7.247563,-10.604064,0.6033629,1002.0701,1,1
23.2,6.516297,-8.845205,0.579695,1002.0425,1,1
23.24,5.789806,-8.130222999999999,0.7927466999999999,1002.022,1,1
23.28,5.0585375,-8.335184,0.7170000000000001,1002.0296,1,1
23.32,3.7154539,-8.478183,0.65545654,1002.0269,1,1
23.36,2.4297252,-8.354254,0.5039591,1001.9892,1,1
23.4,1.7749357,-8.38762,-0.38137054,1002.0043,1,1
23.44,1.5312046,-8.687914,-1.3897953,1001.9968,1,1
23.48,3.5722225,-8.645016,-2.3840163,1002.0067,1,1
23.52,6.6122165,-9.274202,-3.321425,1001.9967,1,1
23.56,8.997378999999997,-11.733747,-3.4492502,1002.0118,1,1
23.6,11.229589,-13.950198,-3.0752282,1002.0043,1,1
23.64,13.041179,-15.527929,-1.8206071,1001.98663,1,1
23.68,14.298303,-14.569851000000002,-0.06887406,1002.0294,1,1
23.72,15.067895000000002,-12.124609,0.200991,1002.05695,1,1
23.76,14.8624,-9.698433,0.21519753,1002.0091,1,1
23.8,15.306967000000002,-4.6268167,0.89222145,1002.04175,1,1
23.84,14.87204,-1.8622146,0.8922247,1002.02435,1,1
23.88,11.655276,-3.2635832,-0.5707023,1002.0292,1,1
23.92,11.803491,-3.9309027,-0.6369802,1002.05707,1,1
23.96,13.734574,-5.5515327,0.5845,1002.0289,1,1
24.0,13.938616,-7.1482925,1.9336691000000004,1002.0317,1,1
24.04,13.097352,-6.476208,3.1882849,1002.05676,1,1
24.08,12.676711,-8.487695,2.9562974,1002.0713,1,1
24.12,14.115414,-13.011156,1.6211931999999998,1002.0991,1,1
24.16,14.722429,-16.738602,0.32869905,1002.1195,1,1
24.2,13.575257999999998,-17.04366,1.7348156000000003,1002.1067,1,1
24.24,10.884211,-15.728091,3.3350427,1002.08887,1,1
24.28,8.575546000000001,-13.816703,3.2782282999999994,1002.10913,1,1
24.32,7.500072,-11.881481,2.1325006,1002.0963,1,1
24.36,6.687486,-10.561143,1.2850403,1002.07886,1,1
24.4,5.3347826,-9.298006,1.2471633,1002.07904,1,1
24.44,4.393142,-8.911914,1.1098638,1002.0337,1,1
24.48,4.0250783,-8.201696,0.6837656999999999,1002.0136,1,1
24.52,3.3893466,-7.877569999999999,0.25293323,1002.0339,1,1
24.56,2.509845,-7.720273,0.09669624,1002.0362,1,1
24.6,1.8788916,-7.806071,0.04935046,1002.0186,1,1
24.64,2.3186147,-8.306559,-0.6986872,1002.00574,1,1
24.68,4.16838,-9.3313675,-2.7960303,1002.0032,1,1
24.72,7.925287,-11.094994,-2.6871407000000005,1002.02094,1,1
24.76,11.122956,-14.402984,-1.4135876,1002.008,1,1
24.8,13.240391,-16.5241,-2.4172828,1002.0158,1,1
24.84,14.315828,-16.953089000000002,-1.8444219,1002.0234,1,1
24.88,15.099697,-14.083623,-0.8312609000000001,1002.0257,1,1
24.92,14.8511305,-10.0558815,-0.70343363,1002.0582,1,1
24.96,13.89037,-7.4104424,-0.21579151,1002.04553,1,1
25.0,14.456069,-4.793644400000002,0.6507584,1002.03296,1,1
25.04,12.62067,-3.5114410000000005,0.115774795,1002.05554,1,1
25.08,10.063526,-4.283625,-0.48548996,1002.0353,1,1
25.12,9.676407,-5.3132024000000015,-0.11146779,1002.04553,1,1
25.16,10.331289,-6.0758524000000005,1.0247937,1002.06036,1,1
25.2,11.239496,-7.496288000000002,1.8959283,1002.04254,1,1
25.24,11.9039345,-9.684139,1.9480108,1002.05554,1,1
25.28,11.454683,-12.372478,1.0248066999999998,1002.06036,1,1
25.32,10.551346,-11.605063,0.9537948,1002.05005,1,1
25.36,10.326747,-10.508756,1.1573788,1002.1027,1,1
25.4,11.115459,-12.248551,0.30519018,1002.08264,1,1
25.44,10.847839,-15.437379,0.6460716999999999,1002.0473,1,1
25.48,7.975224000000001,-15.084654,2.1374137,1002.07495,1,1
25.52,5.475435,-11.624135,2.1942308,1002.0599,1,1
25.56,6.474459,-7.9967869999999985,1.5929656,1002.0626,1,1
25.6,6.866447999999999,-6.5000887,1.1384668,1002.0774,1,1
25.64,6.7231054000000015,-6.2093300000000005,0.95382977,1002.0348,1,1
25.68,5.891465,-6.414293,1.1384755,1002.0272,1,1
25.72,5.2318997000000005,-7.3580723,1.2047616,1002.01746,1,1
25.76,4.6392493,-8.125489,0.5845589,1002.03973,1,1
25.8,3.315289,-8.320919,-0.13506651,1002.00714,1,1
25.84,1.8622829,-7.210313,-1.7494935,1001.99713,1,1
25.88,2.3403053,-7.4105086,-3.2218895,1002.00964,1,1
25.92,3.2724156000000004,-8.945342,-2.8194606,1001.9967,1,1
25.96,6.2455050000000005,-11.59555,-2.0666854,1002.0272,1,1
26.0,9.905855,-14.28863,-0.447609,1002.02435,1,1
26.04,13.624548999999998,-13.931138,-1.5507247,1002.0272,1,1
26.08,16.000118,-9.760401,-1.351879,1002.01184,1,1
26.12,16.951307,-8.301834,3.0795248,1002.0423,1,1
26.16,15.072852,-6.013887,2.9753685,1002.0518,1,1
26.2,9.762498,-5.8947234,0.054241337,1002.0595,1,1
26.24,6.7321095,-6.137818,-1.6974877,1002.05444,1,1
26.28,6.3449519999999975,-6.461944,-2.014692,1002.067,1,1
26.32,7.353497999999999,-6.4810104000000015,-1.4276254,1002.05206,1,1
26.36,10.555975,-7.591617999999999,-0.06411603,1002.0566,1,1
26.4,11.703137,-5.217873,1.4414254,1002.0313,1,1
26.44,11.134347,-4.355127,1.1857681,1002.0695,1,1
26.48,9.174635,-6.1378193,-0.7600714,1002.0615,1,1
26.52,8.2139015,-7.9252787,-1.6217325,1002.0389,0,0
26.56,8.792264999999999,-9.927233,-0.18247274,1002.0766,0,0
26.6,8.127879,-11.228502,0.930113,1002.05414,0,0
26.64,6.7035055,-10.365756,1.3514756,1002.0513,0,0
26.68,6.086918,-9.412445,1.0011305,1002.0438,0,0
26.72,5.7379994000000005,-9.04542,0.33358008,1002.0539,0,0
26.76,5.2648067,-8.883357,-0.1730005,1002.04425,0,0
26.8,4.4474673,-8.115942,-0.36711046,1002.0311,0,0
26.84,3.969495,-7.291327499999999,-0.2582184,1002.0437,0,0
26.88,3.792649,-7.172164,-0.18246733,1002.0338,0,0
26.92,4.4618297,-7.238896,-0.5659534,1002.0464,0,0
26.96,5.5946503,-7.267495599999997,-1.1719565,1002.02356,0,0
27.0,6.656062,-7.348534,-1.4607282,1002.02606,0,0
27.04,7.320475599999999,-7.7965913,-0.86419123,1002.0386,0,0
27.08,7.827152000000001,-7.9205217,-0.6180005999999999,1002.0335,0,0
27.12,8.309932,-7.882389999999999,-0.6748118000000001,1002.05365,0,0
27.16,8.850066,-7.4152675000000015,-0.91626483,1002.0585,0,0
27.2,9.734354,-6.62402,-1.5838137,1002.0359,0,0
27.24,10.446565,-6.061567,-1.5127959,1002.02106,0,0
27.28,11.689327,-5.35135,-0.57538253,1002.0307,0,0
27.32,11.07753,-5.1368550000000015,0.60348594,1002.0429,0,0
27.36,8.3913,-6.0568013,0.22473536,1002.04565,0,0
27.4,5.6333769999999985,-7.949125299999999,-0.2013589,1002.05115,0,0
27.44,5.251012,-7.5964003,0.14898881,1002.04315,0,0
27.48,5.9536557,-7.558267999999999,0.89702594,1002.04565,0,0
27.52,6.508136,-7.6059337,1.5456413999999998,1002.0282,0,0
27.56,6.3886566,-7.896694,1.0106552,1002.0458,0,0
27.6,6.130566,-7.915762,0.5466853,1002.0403,0,0
27.64,6.1831613,-7.739399400000001,0.28156020000000004,1002.03796,0,0
27.68,6.1736255,-7.734633,-0.016705122,1002.0428,0,0
27.72,6.0445895,-7.8156652,0.09218794,1002.01245,0,0
27.76,6.039828,-7.715567999999997,-0.0024985373,1002.0278,0,0
27.8,6.0063877,-7.844264999999999,0.15373856,1002.04535,0,0
27.84,5.9681672999999975,-7.8394995,0.120599374,1002.04504,0,0
27.88,5.88215,-7.97773,0.068522654,1002.0353,0,0
27.92,6.2597723,-7.70127,0.1963532,1002.05505,0,0
27.96,6.259793,-7.7155704,0.18688625,1002.0403,0,0
28.0,6.311969,-7.6440616,0.21999028,1002.04755,0,0
28.04,6.407568,-7.610696000000001,0.28627226,1002.04974,0,0
28.08,6.350212,-7.653595,0.049552165,1002.0297,0,0
28.12,6.5222883000000005,-7.281803599999999,0.23419425,1002.0399,0,0
28.16,6.6609044000000015,-7.3104033,0.29100734,1002.04004,0,0
28.2,6.727824000000001,-7.2627378,0.27680436,1002.0249,0,0
28.24,6.7278266,-7.3199368,0.3904303,1002.0575,0,0
28.28,6.6226735,-7.472466000000002,0.37622732,1002.042,0,0
28.32,6.723052,-7.2341384999999985,0.3762275,1002.03955,0,0
28.36,6.742174,-7.3199368,0.4425094,1002.0646,0,0
28.4,6.560544,-7.343769,0.4709161,1002.047,0,0
28.44,6.5223083,-7.510598700000001,0.4425099,1002.0395,0,0
28.48,6.5701084000000005,-7.472466499999999,0.36202526,1002.04443,0,0
28.52,6.388478299999999,-7.458166999999999,0.37149426,1002.04443,0,0
28.56,6.42194,-7.5582647,0.21999355,1002.0595,0,0
28.6,6.46496,-7.3962016,0.33835390000000004,1002.0495,0,0
28.64,6.245092,-7.6249967,0.2105252,1002.06195,0,0
28.68,6.2642136,-7.6488295,0.33361995,1002.04913,0,0
28.72,6.245097,-7.644063,0.31468257,1002.04694,0,0
28.76,6.2833375999999985,-7.505832700000001,0.25786993,1002.03687,0,0
28.8,6.4028354000000025,-7.567798599999999,0.15371324,1002.067,0,0
28.84,6.637047999999999,-7.4057355,0.0590254,1002.05444,0,0
28.88,6.4936566,-7.486766999999999,0.025884774,1002.0518,0,0
28.92,6.4602003,-7.339003599999999,-0.011990238,1002.04944,0,0
28.96,6.6657350000000015,-7.3580694000000015,0.06849488599999999,1002.0416,0,0
29.0,6.8860917,-7.372381699999999,0.18689957,1002.0316,0,0
29.04,6.972149000000001,-7.353316,0.4662313,1002.0312,0,0
29.08,6.890914,-7.2389193,0.4851709,1002.0341,0,0
29.12,6.8048987000000025,-7.029191,0.3242031,1002.0364,0,0
29.16,6.795361,-7.324717999999999,0.27686104,1002.03357,0,0
29.2,6.628088000000001,-7.205555,0.26739404,1002.0313,0,0
29.24,6.4655957000000015,-7.253220599999999,0.22005197,1002.0234,0,0
29.28,6.3748010000000015,-7.153124000000001,0.04961537,1002.0058,0,0
29.32,6.5373363,-7.0577926999999985,0.1679775,1002.0235,0,0
29.36,7.082255,-7.210323299999999,0.2389955,1002.011,0,0
29.4,7.3260455,-6.776567,0.0638244,1002.01556,0,0
29.44,7.3834240000000015,-6.7336693,0.1206391,1002.0159,0,0
29.48,7.015402000000001,-6.8718996,-0.2865176,1002.02057,0,0
29.52,6.762092,-7.095928,-0.3291254,1002.0031,0,0
29.56,6.60438,-7.138828,-0.14921604,1002.0334,0,0
29.6,6.6665397,-7.0387306,-0.16815170000000002,1002.0205,0,0
29.64,6.8290725000000005,-6.8051695999999975,-0.21549387,1002.04846,0,0
29.68,6.919911999999999,-6.8433027000000015,-0.1208037,1002.02545,0,0
29.72,6.953391000000001,-6.843303,0.120652795,1002.01526,0,0
29.76,6.9390717,-6.7622724000000005,0.06857619400000001,1002.02783,0,0
29.8,6.8626179999999986,-6.919569,0.12065674,1002.02057,0,0
29.84,6.7813797000000005,-7.1245317,0.09698645,1002.0202,0,0
29.88,6.8817782,-7.0578002999999985,-0.040309194,1002.0104,0,0
29.92,6.910479,-6.972003,-0.22021456,1002.0479,0,0
29.96,6.848362,-6.9720035000000005,-0.43326095,1002.01276,0,0
30.0,6.8535175000000015,-6.9148134999999975,-0.4142889,1002.00464,0,0
30.04,6.9156923,-6.705085799999999,-0.6462711999999999,1002.0126,0,0
30.08,7.049558,-6.5525575,-0.6652061,1002.0127,0,0
30.12,6.992236,-6.7575197,-0.45215464,1002.0124,0,0
30.16,6.9827122999999975,-6.852852,-0.13494629,1001.9924,0,0
30.2,6.9349490000000005,-7.091181,0.030761134,1002.0202,0,0
30.24,6.772469,-7.281844,-0.07339272,1002.00964,0,0
30.28,6.6960278,-7.1912804,-0.15860876,1002.0074,0,0
30.32,6.9302716,-7.0625844,-0.27696577,1002.025,0,0
30.36,6.939869,-6.924355,-0.5468234000000001,1002.01746,0,0
30.4,7.0928583,-6.809958,-0.31483436,1002.0046,0,0
30.44,7.0546503,-6.8337917,-0.25328425,1002.01965,0,0
30.48,7.088147,-6.852859,-0.2816872,1002.02466,0,0
30.52,7.0834025999999986,-6.795661,-0.13965183,1002.01215,0,0
30.56,6.9543815,-6.9243584,-0.07810153,1002.01184,0,0
30.6,6.830142,-7.072123,0.13021553,1002.0143,0,0
30.64,6.925773,-6.9624929999999985,0.049733877,1002.01215,0,0
30.68,7.016622999999999,-6.8671630000000015,-0.1869833,1001.9993,0,0
30.72,7.0931377000000015,-6.8623970000000005,-0.40949684,1002.0069,0,0
30.76,7.0071369999999975,-6.9624953,-0.31953993,1002.00934,0,0
30.8,6.8924522,-6.9958625,-0.22484897,1002.0093,0,0
30.84,6.7729955,-7.0482955,-0.21064235,1001.9918,0,0
30.88,6.768248599999999,-6.952965,-0.22484247,1002.01184,0,0
30.92,6.7635039999999975,-6.9910983999999985,-0.11594792,1002.0244,0,0
30.96,6.687062700000001,-6.9625,0.0781659,1002.00433,0,0
31.0,6.691876400000001,-7.024466,0.29121718,1001.9865,0,0
31.04,6.997817,-7.148397,0.1917977,1001.989,0,0
31.08,7.222503,-7.1579313,0.021362407000000003,1002.0268,0,0
31.12,7.0839240000000006,-6.933903999999999,-0.20115139,1002.0016,0,0
31.16,6.8593106,-6.991103,-0.3810553,1002.0191,0,0
31.2,6.7494087,-7.138868,-0.43313068,1001.9862,0,0
31.24,6.8832765,-6.995872,-0.36211157,1002.0291,0,0
31.28,6.9836907,-6.8814754,-0.01649661,1002.0191,0,0
31.32,6.87857,-7.057839,0.002444297,1001.99866,0,0
31.36,6.7208679999999985,-7.215136,0.059259973,1002.0062,0,0
31.4,6.6492085,-7.1865373,0.17762353,1002.0165,0,0
31.44,6.768737,-7.0340085000000006,-0.07329686,1002.0013,0,0
31.48,6.830909299999999,-6.9577446,-0.18218492,1002.01624,0,0
31.52,6.89308,-6.986345,-0.07329056,1002.00366,0,0
31.56,6.9648128,-6.9529796,-0.049615268,1002.00366,0,0
31.6,6.9648485,-7.010178999999999,-0.15850335,1002.01605,0,0
31.64,7.041361,-6.8957825,-0.1727033,1002.0186,0,0
31.68,6.9792585,-6.952982,-0.0022614896,1001.996,0,0
31.72,7.0011915999999985,-6.886202000000001,-0.030847888,1002.0136,0,0
31.76,7.0107393,-6.890969,0.002291888,1002.0285,0,0
31.8,7.0202885,-6.9386334000000005,-0.030849975,1002.01605,0,0
31.84,7.0489570000000015,-6.9005009999999976,-0.016647693,1002.0312,0,0
31.88,7.0632854000000025,-6.905267200000001,-0.13027443,1002.01855,0,0
31.92,6.9820185,-6.905267200000001,-0.23443224,1002.0285,0,0
31.96,7.029804,-6.962465299999999,-0.16815168,1002.0082,0,0
32.0,6.948537,-6.9195660000000005,0.035426747,1002.01825,0,0
32.04,6.986765400000001,-6.714604,-0.0639967,1002.0031,0,0
32.08,7.001094,-6.9100323,0.002283968,1001.9979,0,0
32.12,6.929386,-6.981531,0.11590873,1002.03076,0,0
32.16,7.044090299999999,-6.876666,0.22953337,1002.023,0,0
32.2,7.0584190000000016,-6.9767637,0.049625054,1002.0333,0,0
32.24,6.8528767,-6.9767632,-0.05453283,1002.0132,0,0
32.28,6.766829,-6.995829,-0.15869075,1002.0107,0,0
32.32,6.924553,-6.8766656,-0.2391765,1002.0356,0,0
32.36,7.0249169999999985,-6.881431,-0.25338078,1002.0182,0,0
32.4,7.0727053,-6.8051662,-0.049802307,1002.0057,0,0
32.44,7.0679135,-6.848064999999999,0.035415906000000004,1002.00287,0,0
32.48,6.8958306,-7.0244274,-0.09714837,1002.0529,0,0
32.52,6.795443,-6.9958277,-0.021398947,1002.02795,0,0
32.56,6.852790400000001,-6.962461,-0.06874396,1001.9878,0,0
32.6,6.977055,-6.824231,-0.14449531,1002.04047,0,0
32.64,7.101317999999999,-6.828997599999999,-0.20130934,1002.04535,0,0
32.68,7.134766,-6.8051643,-0.18237261,1001.9999,0,0
32.72,7.077925,-6.8337759999999985,-0.1160437,1002.01794,0,0
32.76,7.0253570000000005,-6.881442,-0.07816759,1002.04553,0,0
32.8,6.9823494,-6.8909759999999975,-0.09710424,1002.00775,0,0
32.84,6.953681,-6.867143,-0.06869686,1002.02496,0,0
32.88,6.8772135,-6.8623767,0.0070545115,1002.01276,0,0
32.92,6.843762400000001,-7.0578055,-0.04502322,1002.0151,0,0
32.96,6.891572,-6.9863076,-0.030818995,1002.0247,0,0
33.0,7.049316,-6.8480773,-0.23439749,1002.0347,0,0
33.04,7.001528,-6.905277000000001,-0.22966208,1002.03534,0,0
33.08,6.877262599999999,-6.9720087,-0.21545805,1002.01965,0,0
33.12,6.824696,-7.0530405,-0.18231618,1002.0199,0,0
33.16,6.9250813,-6.919577,-0.2580658,1002.0048,0,0
33.2,6.95855,-6.9243440000000005,-0.14917354,1002.0525,0,0
33.24,6.9107614,-6.976775999999999,-0.10656308,1002.01965,0,0
33.28,6.8438539999999985,-6.943411,-0.10656212,1002.0222,0,0
33.32,6.9203405,-6.8766789999999975,-0.06868602,1001.9996,0,0
33.36,7.0255065000000005,-6.9148115999999975,-0.14443554,1002.00183,0,0
33.4,7.0924335,-6.9434114000000005,-0.0734186,1002.0196,0,0
33.44,7.044646000000001,-6.8051815000000015,-0.1491681,1002.03973,0,0
33.48,6.977739,-6.943412,-0.29119927,1002.042,0,0
33.52,6.910831,-7.01491,-0.20597918,1002.0094,0,0
33.56,7.0159974,-6.895747,-0.15863413,1002.04205,0,0
33.6,6.9682083,-6.895747,-0.15389891,1002.0245,0,0
33.64,6.8248243,-7.04351,-0.09708512,1002.01154,0,0
33.68,6.882192599999999,-7.0435104000000015,-0.030802477,1002.022,0,0
33.72,6.8828664,-6.9481964000000005,-0.14436655,1002.0042,0,0
33.76,6.992839,-6.8576326000000005,-0.2153792,1002.0445,0,0
33.8,6.9689765,-6.919598599999999,-0.11595337,1002.02167,0,0
33.84,6.9498916,-6.933899,-0.03546535,1002.01184,0,0
33.88,6.9738274,-6.895767,-0.0023211539,1002.02924,0,0
33.92,6.6440578,-7.014932000000001,-0.030724194,1002.0395,0,0
33.96,6.6106353,-7.105498,-0.035455246,1002.0038,0,0
34.0,6.7875232999999975,-6.943436,-0.011780079,1002.03925,0,0
34.04,7.0600085,-6.7909070000000025,-0.10646482,1002.02405,0,0
34.08,6.983567999999999,-7.019703,-0.07805501,1002.0338,0,0
34.12,6.988385000000001,-7.1626997,-0.10172367,1002.00903,0,0
34.16,6.888043400000001,-7.310464,0.016639601,1002.02655,0,0
34.2,7.026695,-6.8433423,-0.34790617,1002.02374,0,0
34.24,7.0554104,-6.5430503,-0.91129696,1002.04913,0,0
34.28,6.7208586,-6.933909,-0.44258776,1002.0263,0,0
34.32,6.6205173,-7.277102,0.13974719,1002.0338,0,0
34.36,6.6635740000000006,-7.200837599999999,0.13028193,1002.00336,0,0
34.4,6.7831035,-7.1865387,-0.040153492,1002.02374,0,0
34.44,6.8691773000000005,-7.0673757,0.10188204,1002.016,0,0
34.48,7.017388,-7.0387774000000025,0.14449504,1002.0385,0,0
34.52,7.0508833,-6.8671823000000005,-0.27686357,1002.0134,0,0
34.56,6.9696565,-7.1817759999999975,0.03087543,1002.0409,0,0
34.6,6.802405,-6.986348,-0.1869034,1002.0263,0,0
34.64,6.8215580000000005,-7.086447,-0.2531819,1002.02356,0,0
34.68,6.869395699999999,-7.0149493000000005,-0.16322467,1002.0284,0,0
34.72,7.0406194000000015,-6.9052978000000005,-0.08755186,1002.0058,0,0
34.76,7.0549603,-6.8957644,-0.0023324639,1002.003,0,0
34.8,6.887668,-6.948197,-0.06387964,1002.00085,0,0
34.84,6.715596700000001,-7.0244617,-0.06387952,1002.0434,0,0
34.88,6.67258,-7.1007266000000016,0.06868392,1002.0131,0,0
34.92,6.782516,-6.9052978000000005,-0.120692134,1002.0082,0,0
34.96,6.873334,-6.8337994,-0.14909846,1002.0157,0,0
35.0,6.945032,-6.7813672999999985,-0.17277035,1002.0105,0,0
35.04,7.1123266,-6.867164999999999,-0.08281654,1001.998,0,0
35.08,7.2127037,-6.8576320000000015,-0.092285246,1002.02576,0,0
35.12,7.217485000000001,-6.8528660000000015,-0.22011404,1002.0082,0,0
35.16,7.093211,-7.014929,-0.22484832,1002.02026,0,0
35.2,6.782525,-7.1865244000000015,-0.09701933,1002.03314,0,0
35.24,6.5913343,-7.229424000000002,-0.28166094,1002.02057,0,0
35.28,6.7108307,-6.8671656,-0.36214572,1002.03534,0,0
35.32,6.8303266,-6.8290334,-0.28639513,1002.02527,0,0
35.36,6.925924,-6.919598,-0.13962848,1002.0331,0,0
35.4,7.078879400000001,-6.7575345,-0.1396284,1002.01276,0,0
35.44,7.260513,-6.7289352,-0.15856591,1002.05316,0,0
35.48,7.313092,-6.743235,-0.03073686,1002.03534,0,0
35.52,7.1744785,-6.995863000000001,-0.040205557,1002.0303,0,0
35.56,6.9546094,-6.862399000000001,-0.021267805,1002.04047,0,0
35.6,6.997628999999999,-6.7575345,-0.15383103,1002.02515,0,0
35.64,7.016749000000001,-6.676503,-0.19644056,1002.0327,0,0
35.68,6.959393,-6.814733500000001,-0.18697163,1002.0124,0,0
35.72,7.045747,-6.87194,-0.09698893,1002.0274,0,0
35.76,7.1748147,-6.790909299999999,-0.23428537,1002.0374,0,0
35.8,7.2226257,-6.6193132,-0.087517634,1002.0175,0,0
35.84,7.2322,-6.652679400000001,-0.13486041,1002.0175,0,0
35.88,7.064919500000001,-6.6717463000000015,-0.096983984,1002.00507,0,0
35.92,7.069713,-6.6479135,0.13500315,1002.0402,0,0
35.96,7.0219297,-6.743245,0.15394203,1002.0402,0,0
36.0,7.203575999999999,-6.686047,0.28650662,1002.0398,0,0
36.04,7.0267367,-6.838577000000001,0.31491438,1002.0271,0,0
36.08,6.8881354,-6.991107,0.5090260999999999,1002.0324,0,0
36.12,6.4053900000000015,-6.671748,0.6984036,1002.0224,0,0
36.16,6.9503007,-7.0483065,0.71260804,1002.0172,0,0
36.2,6.8260384000000025,-7.153171,0.71734357,1002.02466,0,0
36.24,7.0554833,-6.881478,0.94933075,1002.0147,0,0
36.28,6.878644500000001,-6.919610499999999,0.9966761,1002.0171,0,0
36.32,6.854759,-6.8957777,0.712613,1002.0119,0,0
36.36,6.95037,-6.790914,0.6131919,1002.0273,0,0
36.4,7.2180524,-6.8433466,0.41908252,1001.98926,0,0
36.44,7.4905149999999985,-6.6240854,0.1350195,1002.0447,0,0
36.48,7.5192074999999985,-6.6908174,0.23917766,1002.01685,0,0
36.52,7.504881399999999,-6.652685000000001,0.47116473,1002.0295,0,0
36.56,7.743889,-6.5954869999999985,0.6416049,1002.022,0,0
36.6,7.442775200000002,-6.6717520000000015,0.6889502,1002.0294,0,0
36.64,7.1034190000000015,-6.80045,0.688951,1002.0119,0,0
36.68,6.821428,-6.943447,0.9446105,1002.00433,0,0
36.72,6.912226,-6.92438,1.0535002,1002.0294,0,0
36.76,6.9887147,-6.724185,0.8925315,1002.0295,0,0
36.8,6.716278,-7.1484084,0.9256735,1002.01404,0,0
36.84,6.883584,-7.053078,0.930409,1002.0266,0,0
36.88,7.089125,-7.024479,0.8215186,1002.04193,0,0
36.92,6.979206,-6.8528833,0.72683203,1002.01685,0,0
36.96,6.9839945000000005,-6.8004517999999985,0.6605512,1002.004,0,0
37.0,6.821496000000002,-6.781385,0.20604967,1002.0344,0,0
37.04,6.8645277,-6.8671837,0.36702064,1002.0214,0,0
37.08,7.0987515,-6.8957834,0.6132109,1002.014,0,0
37.12,7.0366254,-6.94345,0.7978536999999999,1002.0191,0,0
37.16,7.122675,-6.9005504,0.45697778,1002.03644,0,0
37.2,7.1896048,-7.095979700000001,0.5564015,1002.00104,0,0
37.24,7.1561584000000025,-7.2199106,0.6179498000000001,1002.0239,0,0
37.28,7.242205,-6.748022,0.4143713,1002.0165,0,0
37.32,6.859834700000001,-6.98635,0.55167043,1001.97845,0,0
37.36,6.9076457,-6.9672839999999985,0.3480921,1002.00104,0,0
37.4,7.1370893,-6.886253,0.5706104000000001,1002.0316,0,0
37.44,7.194456,-7.0387830000000005,0.59901756,1002.03644,0,0
37.48,7.060636,-7.091214999999999,0.6037533,1002.0239,0,0
37.52,6.8694572,-7.0149508,0.52326965,1002.03156,0,0
37.56,6.7308520000000005,-6.9911184,0.44752008,1002.02625,0,0
37.6,6.5444555,-7.1388817,0.3149582,1002.039,0,0
37.64,6.597046400000001,-7.2103806,0.32442817,1002.0235,0,0
37.68,6.8981857,-7.005419,0.25341317,1001.99603,0,0
37.72,7.027984599999999,-6.771876,0.116183534,1002.0235,0,0
37.76,6.851171000000001,-6.8243093,0.11145271,1002.00336,0,0
37.8,6.903791,-6.8243103000000005,0.007299658,1002.02356,0,0
37.84,7.1237035,-6.9577746,-0.12052545,1002.02106,0,0
37.88,7.2623570000000015,-6.848144500000001,0.05465111,1002.021,0,0
37.92,7.3149796,-6.66225,0.083061635,1002.0133,0,0
37.96,7.2146454,-6.7766485,-0.17732678,1002.01843,0,0
38.0,7.1812234,-6.914879300000001,-0.2294019,1001.99304,0,0
38.04,6.8992567,-7.148442,-0.35249254,1002.0259,0,0
38.08,6.8897386,-7.110310000000001,-0.3856296,1002.0084,0,0
38.12,6.8611020000000025,-7.019747,-0.13470232,1002.01556,0,0
38.16,6.9901985999999985,-6.6050572,-0.43296596,1002.0131,0,0
38.2,6.732131,-7.2247105,0.06415035599999999,1002.0307,0,0
38.24,6.588775599999999,-7.1389136,-0.08734700000000001,1002.0434,0,0
38.28,6.9281864,-6.795722500000001,-0.0068580694,1002.02606,0,0
38.32,6.8565315999999985,-6.9959190000000016,-0.4850291,1002.0256,0,0
38.36,6.7227364000000005,-6.8958225,-0.3998062,1002.0159,0,0
38.4,6.8231535,-6.8767576,-0.3429895,1002.0131,0,0
38.44,6.942688499999999,-6.857692,-0.28143865,1001.99304,0,0
38.48,7.0956839999999985,-6.6479645000000005,-0.17254356,1002.0104,0,0
38.52,6.937992,-6.771896000000001,-0.1346645,1002.0053,0,0
38.56,6.8663373,-6.9530262999999985,-0.120457456,1002.0131,0,0
38.6,6.8807160000000005,-6.7909646,-0.04470339,1002.0105,0,0
38.64,7.019371499999999,-6.8815300000000015,-0.16305968,1002.0253,0,0
38.68,7.0289707,-6.857697999999999,-0.37136987,1002.04095,0,0
38.72,7.0319824,-6.891021,-0.23896836,1002.0129,0,0
38.76,7.027172599999999,-6.9005527,-0.39047208,1002.0076,0,0
38.8,7.160974499999999,-6.6955899999999975,-0.31472456,1002.04034,0,0
38.84,7.1513867,-6.790920699999999,-0.39047766,1002.01764,0,0
38.88,6.9745035,-7.014948,-0.17743222,1002.04315,0,0
38.92,7.0366106,-6.857651,-0.23424788,1002.02277,0,0
38.96,7.0652610000000005,-6.8004517999999985,-0.1774376,1002.0224,0,0
39.0,7.0078726,-6.8624160000000005,-0.21531563,1002.0204,0,0
39.04,6.950486,-6.929147200000001,-0.19638066,1002.04034,0,0
39.08,7.0125933000000025,-6.829049,-0.18218021,1002.05035,0,0
39.12,7.007784,-6.8719470000000005,-0.0827605,1002.0227,0,0
39.16,6.8882594,-6.9386782999999985,-0.17271678,1002.0277,0,0
39.2,7.0603023,-6.9386773,-0.09696911,1002.0327,0,0
39.24,7.2275667000000015,-6.733714599999999,-0.29581672,1002.0428,0,0
39.28,7.002886,-6.9196095,-0.1869282,1002.01746,0,0
39.32,6.7877645000000015,-7.0054064,0.011914026,1001.9973,0,0
39.36,6.9167905,-6.981573599999999,0.05452103,1002.05255,0,0
39.4,7.0027979999999985,-7.0626039999999985,-0.11592013,1002.045,0,0
39.44,7.1366,-7.08167,-0.2295488,1002.0224,0,0
39.48,7.0122952000000005,-7.0292369999999975,-0.31003645,1002.04,0,0
39.52,6.897550999999999,-6.905306,-0.62724423,1002.0403,0,0
39.56,6.6441913,-7.1865315,-0.34791705,1002.05255,0,0
39.6,6.4434074999999975,-7.6488867,0.021363497,1002.0224,0,0
39.64,6.8544416,-7.315227,0.12078339,1002.05,0,0
39.68,7.294153,-6.6145425000000015,-0.11593962,1002.04,1,2
39.72,7.748903,-6.1426697,-0.53724045,1002.0272,1,2
39.76,8.207761999999999,-6.0521054,-0.035393815,1002.0172,1,2
39.8,8.298575,-5.818544,0.34809276,1002.01465,1,2
39.84,7.572042999999999,-6.1617365,0.23920122,1001.9996,1,2
39.88,7.3904076,-6.581193400000001,0.29127944,1002.0345,1,2
39.92,7.376066000000002,-7.267577,0.3670297,1002.02216,1,2
39.96,6.0424976,-8.2971525,0.63215613,1002.03217,1,2
40.0,4.2548485000000005,-8.606978,-0.5088357,1002.027,1,2
40.04,3.2845464,-9.631789,-0.2389748,1002.01965,1,2
40.08,2.0513544,-11.404948,-0.5514456999999999,1002.01465,1,2
40.12,2.0083337,-11.934036,-1.2142627,1002.022,1,2
40.16,3.9919498,-11.63851,-0.8923233,1002.022,1,2
40.2,7.012783,-11.538411,-1.271076,1002.03955,1,2
40.24,8.905583,-10.952125,-2.0901282,1002.02185,1,2
40.28,10.086192,-9.398228,-1.9765028,1002.0195,1,2
40.32,10.09575,-7.601235400000001,-0.8686521999999999,1002.0344,1,2
40.36,9.51739,-6.719423,0.120838135,1002.06226,1,2
40.4,8.599666000000001,-5.9949059999999985,-0.035397466,1002.0344,1,2
40.44,7.8157754,-5.556382,-0.24844588,1002.0344,1,2
40.48,7.744076,-4.612604,0.88781095,1002.03186,1,2
40.52,7.82533,-3.9691184,0.96356124,1002.0168,1,2
40.56,8.876884,-4.836632,0.9256858,1002.009,1,2
40.6,11.534453,-4.989162,0.58480847,1002.0394,1,2
40.64,13.890894,-4.569705,1.6926588,1002.0214,1,2
40.68,13.723598499999998,-4.655503,2.374413,1002.0267,1,2
40.72,12.458058,-8.220915,0.6133158000000001,1002.00385,1,2
40.76,12.219108,-12.019861,-1.4319435,1002.02893,1,2
40.8,13.237244,-15.037092,-1.3609238,1002.0261,1,2
40.84,13.21339,-15.041861,0.37660682,1002.0311,1,2
40.88,12.214453,-14.898865,0.88792634,1002.07153,1,2
40.92,9.642958,-14.322112,0.24405089,1002.059,1,2
40.96,6.3831725,-12.930279,-0.7549047,1002.0211,1,2
41.0,4.222743,-10.399238,-1.1289189,1002.044,1,2
41.04,3.032614,-8.368687,-0.9348043,1002.0186,1,2
41.08,2.2870066,-7.558372,-1.3230218,1002.03894,1,2
41.12,1.5031577,-7.529773700000002,-1.7112393,1001.99854,1,2
41.16,0.9057242,-8.087461,-1.1147006000000002,1002.00104,1,2
41.2,1.8856231,-8.502153,-1.384558,1002.03143,1,2
41.24,3.6589699,-10.237181,-1.602337,1002.0186,1,2
41.28,6.0823693,-13.726301,-1.1336274,1002.00867,1,2
41.32,8.649171,-15.537594,1.6928166,1002.0211,1,2
41.36,12.052431,-15.408898,3.3593307,1002.04645,1,2
41.4,14.361119,-15.771157999999998,2.6491737,1002.0186,1,2
41.44,13.706325,-12.744395,0.130474,1002.00867,1,2
41.48,13.061092,-8.425895,0.80276334,1002.0186,1,2
41.52,12.850826,-7.043595,3.3120022,1002.0512,1,2
41.56,10.714293,-7.6346493,2.3887966,1002.02374,1,2
41.6,8.912342,-7.6870823,2.1804862000000003,1002.0337,1,2
41.64,8.768993,-5.484934,2.5781803,1002.0108,1,2
41.68,9.304373,-4.8414493,1.6170998,1002.0211,1,2
41.72,10.459323,-5.1798325,0.5848383,1002.0058,1,2
41.76,13.656982,-5.070201,0.33391220000000005,1002.0161,1,2
41.8,15.172149,-5.403859,-0.006967921,1001.9907,1,2
41.84,13.613904000000002,-8.635584,-1.0438052,1002.0186,1,2
41.88,12.395023,-9.88442,-0.5466955,1002.02124,1,2
41.92,11.974372,-12.39163,0.073508956,1002.0309,1,2
41.96,12.849044,-15.232496,0.94937086,1002.0534,1,2
42.0,12.829896000000002,-16.119073999999998,1.9814684,1002.0484,1,2
42.04,10.038459,-14.965567000000002,3.657445,1002.066,1,2
42.08,7.920976,-13.654762,2.8904688,1002.071,1,2
42.12,6.6304016,-12.148531,2.2418525,1002.05585,1,2
42.16,5.5357957,-10.3706045,2.4975078,1002.066,1,2
42.2,4.7040815,-8.883436999999997,2.1803,1002.02795,1,2
42.24,3.8628037,-8.106488,2.0051240000000004,1001.98535,1,2
42.28,2.6487048,-7.429636500000001,1.4653991000000002,1002.013,1,2
42.32,1.7978693,-6.976813000000001,1.0250967,1002.0007,1,2
42.36,1.6544465,-6.914847,0.56585693,1001.98773,1,2
42.4,1.8838485,-7.5678649999999985,0.48063502,1001.98804,1,2
42.44,2.4669561,-10.380134,0.6700086,1002.0082,1,2
42.48,7.643451,-11.872064,-0.8497383,1001.98785,1,2
42.52,12.571399,-11.519339,-6.54523,1001.9928,1,2
42.56,14.306437,-12.544147,-6.1948867,1001.9675,1,2
42.6,14.856085,-12.367784,-2.6772268,1002.0402,1,2
42.64,13.842735,-9.317186,-3.7850802,1002.01794,1,2
42.68,11.347648,-8.826231,-4.864527,1002.0381,1,2
42.72,9.83242,-9.374383,-2.899752,1002.04535,1,2
42.76,9.072402,-10.122732,-1.1622283000000002,1002.05536,1,2
42.8,10.415497,-9.345783,-0.68879056,1002.04803,1,2
42.84,12.704993,-8.125544,-1.3847507,1002.02515,1,2
42.88,14.368335,-7.1293324999999985,-2.3174312,1002.0327,1,2
42.92,14.917983,-4.4028616,-1.6451485,1002.03503,1,2
42.96,14.430412,-6.00919,1.460618,1002.0478,1,2
43.0,13.044241,-10.260958,3.2691581000000003,1002.07025,1,2
43.04,11.744103,-14.760588,4.0077224000000005,1002.0553,1,2
43.08,6.0035295,-16.919838000000002,6.8152222999999985,1002.07806,1,2
43.12,2.33739,-13.859706,6.4790769999999975,1002.0603,1,2
43.16,4.5982084,-9.9987955,4.310716,1002.03,1,2
43.2,5.525458,-9.274278,2.360139,1002.0227,1,2
43.24,4.5981455,-10.027392,1.8724922,1001.9925,1,2
43.28,4.8705635,-9.569801,2.5968533,1002.0352,1,2
43.32,6.7155395,-8.516392999999999,3.2265265,1001.9798,1,2
43.36,9.6264105,-8.058803,3.4963849,1001.9976,1,2
43.4,10.931267,-9.212308,3.1460361,1002.00287,1,2
43.44,9.693269,-10.38488,1.806197,1001.975,1,2
43.48,8.479168,-11.433522,1.1528462,1001.99255,1,2
43.52,7.6355844,-11.252453,0.6133476999999999,1001.9926,1,2
43.56,7.5256743,-10.694767,0.08783112,1002.0127,1,2
43.6,7.975001,-10.971228,-0.5513111999999999,1002.00494,1,2
43.64,7.2006974,-10.127547,-2.2509604,1002.0023,1,2
43.68,5.0211324999999984,-8.807212,-2.8048832000000004,1001.99994,1,2
43.72,4.141673,-7.9111004,-1.4650445,1002.01764,0,0
43.76,4.366348,-7.229483,-1.0010707,1002.00507,0,0
43.8,4.5814633,-7.6203413,-2.0757782,1002.0152,0,0
43.84,5.480092,-8.096997,-2.416653,1001.995,0,0
43.88,7.110029700000001,-8.321026,-1.8769288,1002.02014,0,0
43.92,8.137711,-7.877737,-0.6743879,1002.01746,0,0
43.96,8.763889,-6.8624606,1.2951268,1002.01764,0,0
44.0,8.40065,-6.605067299999999,2.5260744,1002.0199,0,0
44.04,7.4542727,-7.0912570000000015,2.0052922,1002.0275,0,0
44.08,7.798444,-6.8433967,-0.8779581,1002.0451,0,0
44.12,7.4399815,-7.277153500000002,-2.8143275,1002.03503,0,0
44.16,7.1341009999999985,-7.510716,-1.0673298,1002.0302,0,0
44.2,7.186699000000001,-6.871998,0.31511834,1002.03,0,0
44.24,7.444836599999999,-5.851955,0.43821546,1002.0277,0,0
44.28,7.789006,-5.65176,0.3577327,1002.0275,0,0
44.32,8.854928999999998,-5.5325975,-0.17251816,1002.0126,0,0
44.36,8.596841,-6.15225,-0.24826665,1002.03754,0,0
44.4,8.267061,-6.643206,0.7743671999999999,1002.0578,0,0
44.44,7.3971605,-6.376279,-0.30980933,1002.0124,0,0
44.48,7.215551400000002,-6.095053,-0.73116916,1002.0452,0,0
44.52,7.468430499999997,-5.8376480000000015,-1.9621558,1002.0352,0,0
44.56,7.850821000000002,-6.0473766,-2.0757809,1001.9898,0,0
44.6,8.5439,-5.880547,-1.3940259,1002.00995,0,0
44.64,8.022907,-6.0950427000000005,-1.6354802,1002.01514,0,0
44.68,7.645307499999999,-5.966346,-1.4839786,1002.0199,0,0
44.72,7.329848299999999,-6.3381370000000015,-1.7254326,1002.0199,0,0
44.76,6.7849555,-6.662263,-1.5360559,1002.0349,0,0
44.8,7.119548299999999,-6.137942,-0.96319234,1002.0199,0,0
44.84,6.9140229999999985,-6.2714057,-1.0910207,1002.0277,0,0
44.88,6.8996897,-6.385803,-0.66965806,1002.0126,0,0
44.92,7.344217299999999,-6.171309,-0.70279837,1002.0501,0,0
44.96,7.353785,-6.218974,-0.636516,1002.04004,0,0
45.0,7.506745,-6.037845,-1.4366298000000002,1002.025,0,0
45.04,8.199822,-5.932981,-1.6354744,1002.0225,0,0
45.08,8.749507000000001,-5.7995176,-0.9395162,1002.0151,0,0
45.12,8.109019,-6.0950446,-0.94425,1002.0378,0,0
45.16,7.611924,-6.3238387000000005,-0.7454046,1002.0275,0,0
45.2,7.2916856,-6.533568,-0.97738963,1002.03265,0,0
45.24,7.525901299999999,-6.524035,-0.7075279999999999,1002.0049,0,0
45.28,7.487669500000001,-6.9577923,-0.87796605,1002.03,0,0
45.32,7.2725835,-6.986391499999999,-0.87796557,1002.03754,0,0
45.36,7.0766172,-6.5097356,-1.0105284,1001.9975,0,0
45.4,6.8376346,-6.3000073,-1.6260003,1002.02246,0,0
45.44,6.8472004,-6.6241336,-1.337201,1001.99695,0,0
45.48,6.861984,-6.819572999999999,-0.58439004,1002.022,0,0
45.52,6.790313,-6.872006,0.04055376,1002.0478,0,0
45.56,7.0580044000000015,-6.7623754,0.26780725,1002.035,0,0
45.6,7.129726,-6.538348,-0.12041174,1002.0249,0,0
45.64,7.043709,-6.6813455,-0.21983244,1002.03754,0,0
45.68,7.1775720000000005,-6.7099449999999985,-0.0920009,1002.0476,0,0
45.72,7.540858999999997,-6.6527467000000025,-0.17248371,1002.0174,0,0
45.76,7.603014999999999,-6.476385,-0.28137332,1002.0299,0,0
45.8,7.5504656,-6.280957,-0.46127805,1002.01996,0,0
45.84,7.316279400000001,-6.690881299999999,-0.88263786,1002.0121,0,0
45.88,6.9625998,-7.1151056,-0.88263553,1002.03503,0,0
45.92,6.757091,-7.267636,-0.60803807,1002.01965,0,0
45.96,6.666297,-7.2485704,-0.7405991999999999,1002.0124,0,0
46.0,6.623303,-7.143707000000001,-0.7027219,1002.022,0,0
46.04,6.8049592999999975,-6.929212,-0.3760457,1002.0021,0,0
46.08,7.03441,-6.762383,-0.67431146,1002.0349,0,0
46.12,7.330785,-6.652753,-0.34763497,1002.0149,0,0
46.16,7.388166,-6.547889,-0.4375865,1002.0274,0,0
46.2,7.326053,-6.6050887000000005,-0.10144156,1002.04254,0,0
46.24,7.3786554,-6.5812564,0.021655176,1002.03754,0,0
46.28,7.1731462,-6.7147202,0.031126056000000006,1002.01996,0,0
46.32,7.0871353,-6.795752499999999,0.0548004,1002.0269,0,0
46.36,7.001123,-6.6050910000000025,0.18263154,1002.0124,0,0
46.4,7.144539999999999,-6.700423,0.23471206,1002.0495,0,0
46.44,6.9916100000000005,-6.9244514000000015,0.11635417,1002.03754,0,0
46.48,6.856796000000001,-6.986393,-0.18200307,1002.0096,0,0
46.52,6.933256,-6.933960000000001,-0.34297428,1002.012,0,0
46.56,6.9905977,-6.9673257,-0.48500788,1002.0195,0,0
46.6,7.0240399999999985,-6.8910604000000015,-0.60810393,1002.0221,0,0
46.64,7.067042,-6.9244255999999975,-0.70279354,1002.0246,0,0
46.68,6.966649,-6.8862929999999976,-0.7690767,1002.0299,0,0
46.72,6.9331755999999976,-6.829094,-0.48501378,1002.0269,0,0
46.76,6.9713974,-6.767128,-0.34771755,1002.0221,0,0
46.8,7.0813165,-6.8243265,-0.27670300000000003,1002.012,0,0
46.84,7.162556,-6.867225,-0.12520361,1002.0476,0,0
46.88,7.109962,-6.7718935,-0.05418903,1002.0269,0,0
46.92,7.014351,-6.805259,-0.15834735,1002.0395,0,0
46.96,7.004773599999999,-6.790959,-0.08259849,1002.0395,0,0
47.0,7.1529320000000025,-6.8719899999999985,-0.23883526,1002.0069,0,0
47.04,7.219834,-6.910122,-0.3998064,1002.0218,0,0
47.08,7.3106337,-6.824323700000001,-0.29091662,1002.03436,0,0
47.12,7.410992999999999,-6.3810334000000015,-0.5276384,1002.0121,0,0
47.16,7.3297195,-6.3190684,-0.84484506,1002.01965,0,0
47.2,6.8660619999999986,-6.7337584,-0.4329532999999999,1002.0066,0,0
47.24,6.775231,-7.081716,0.42397255,1002.02435,0,0
47.28,6.9568467000000025,-7.0960155,0.80745786,1002.00934,0,0
47.32,7.2388387,-6.7623563,0.31034383,1002.01935,0,0
47.36,7.257942699999999,-6.6622577000000005,-0.20097333,1002.052,0,0
47.4,7.0858526,-6.900585,-0.6223368,1002.0144,0,0
47.44,6.636536,-7.010216000000002,-0.19150746,1002.0269,0,0
47.48,6.770134,-6.981611,-0.35723320000000003,1002.0295,0,0
47.52,6.9899809999999984,-6.848146400000001,-0.14892160000000002,1002.035,0,0
47.56,7.166809,-6.686083,-0.12051749,1002.022,0,0
47.6,7.1381044000000005,-6.7766466,-0.15366063,1002.0319,0,0
47.64,7.1046205,-6.7337475000000016,-0.13472535,1002.0143,0,0
47.68,7.181073700000002,-6.8433776,0.021507833,1002.0141,0,0
47.72,7.200167,-6.6241155,0.20141289,1002.0169,0,0
47.76,7.195364,-6.7480454,0.030972145,1002.02155,0,0
47.8,7.171437700000001,-6.7909436,-0.06371839,1002.0319,0,0
47.84,6.9276443,-7.062637,0.073577166,1002.0067,0,0
47.88,6.975414999999999,-7.310497,0.0877779,1002.02167,0,0
47.92,7.429474400000001,-6.7003770000000005,0.14458872,1002.0246,0,0
47.96,8.007807000000001,-6.328585,0.3292282,1002.04425,0,0
48.0,7.8882850000000015,-6.295219,0.17299052,1002.02936,0,0
48.04,7.276445,-6.700375,0.25347307,1002.0447,0,0
48.08,7.166486,-6.881504,0.6369577,1002.04193,0,0
48.12,6.956152,-7.0054336,0.99677044,1002.02405,0,0
48.16,6.6406546,-7.1007648,1.105659,1001.9941,0,0
48.2,6.7792454,-7.010199000000001,0.74110764,1002.004,0,0
48.24,6.884376,-6.986366,1.0393728000000002,1002.0416,0,0
48.28,6.8891315,-6.790936500000001,0.116161704,1001.9991,0,0
48.32,6.7743910000000005,-6.9100994999999985,-0.7502366,1002.0116,0,0
48.36,7.266686999999999,-7.1007614000000014,-0.42356488,1002.02405,0,0
48.4,7.233202,-6.819534,-0.96802396,1002.00616,0,0
48.44,7.3478937,-6.662236,-0.11109884,1002.0289,0,0
48.48,7.214035000000001,-6.438208,-0.34782124,1002.0268,0,0
48.52,7.314383500000001,-6.385775,-0.016415416999999998,1002.02405,0,0
48.56,7.3048,-6.5955033,-0.1631841,1002.0467,0,0
48.6,7.376474000000001,-6.8242974,0.20609728,1002.0038,0,0
48.64,7.195859,-6.590761,0.10676798,1002.01886,0,0
48.68,6.894742,-6.8624550000000015,-0.06366965,1002.01636,0,0
48.72,6.9329925,-7.110316,0.07836358,1002.03394,0,0
48.76,7.291488,-6.590762,-0.54657686,1001.9964,0,0
48.8,7.143325,-6.705159,-0.72648335,1002.00385,0,0
48.84,7.138555,-6.8767559999999985,-0.9063898,1002.0038,0,0
48.88,7.2485023,-6.681328,-1.2756723,1002.0236,0,0
48.92,7.5018435,-6.538331,-1.2425303,1002.02136,0,0
48.96,7.4540567,-6.147474,-1.578672,1002.0311,0,0
49.0,7.449287400000001,-6.2666373,-1.0058081,1002.04144,0,0
49.04,7.511436,-6.3238363,-1.086292,1002.01666,0,0
49.08,7.4349704,-6.5955305,-1.2141198999999998,1002.04425,0,0
49.12,7.5735955000000015,-6.6288967,-0.7312095000000001,1002.0367,0,0
49.16,7.4541125,-6.438235,-0.5276291,1002.01135,0,0
49.2,7.6214156000000015,-6.3810363,-0.74541086,1002.02386,0,0
49.24,6.9857130000000005,-6.585998,-0.93952036,1002.0016,0,0
49.28,6.7658534,-7.157985000000001,-0.5181573,1002.01636,0,0
49.32,6.799322,-6.8433933000000025,-0.688595,1002.01886,0,0
49.36,6.6798387,-6.4048696,-0.5370929,1002.0342,0,0
49.4,7.0670133,-5.9854129999999985,-0.5465608000000001,1002.0266,0,0
49.44,7.3107953,-6.1856093,-0.77381116,1002.0292,0,0
49.48,7.363384,-6.5574007,-0.854295,1002.00635,0,0
49.52,7.372953999999999,-6.876760000000001,-0.36665034,1002.02637,0,0
49.56,7.2295704,-6.7051644,-0.47080624,1002.0416,0,0
49.6,7.0336094,-6.4859033,-1.0010586,1002.00903,0,0
49.64,6.833324,-6.5907793,-0.8116397,1002.02637,0,0
49.68,6.9146094,-6.895839,-0.41394708,1002.01385,0,0
49.72,7.0819300000000025,-6.7242440000000006,-0.10620831,1002.0412,0,0
49.76,7.3161697,-6.6956453,-0.1866905,1002.00385,0,0
49.8,7.220602499999999,-6.833875999999999,-0.2529695,1002.05176,0,0
49.84,7.0485554000000015,-6.8672429999999975,-0.22929512,1002.0311,0,0
49.88,6.9051943,-7.000707000000001,-0.16774487,1002.0341,0,0
49.92,6.7761664,-7.0912724,-0.3381809,1002.02893,0,0
49.96,6.823993700000001,-6.9959419999999986,-0.63171136,1002.03143,0,0
50.0,6.986534599999999,-6.924444,-0.6648497,1002.01154,0,0
50.04,7.1108403,-6.8386474,-0.6175028,1001.99603,0,0
50.08,7.2112455,-6.810047999999999,-0.6695786,1002.0336,0,0
50.12,7.287748,-6.838648299999999,-0.5180752000000001,1002.02136,0,0
50.16,7.297339,-6.8100495,-0.30502424,1002.001,0,0
50.2,7.1778708,-6.7719179999999985,-0.21506803,1002.03394,0,0
50.24,7.0058246,-6.790984599999999,-0.13931507,1002.03394,0,0
50.28,6.972397999999999,-6.8672504,-0.035155352,1002.0059,0,0
50.32,7.0871415,-6.9435163,-0.03988708,1002.03894,0,0
50.36,7.139746700000001,-6.7909869999999986,-0.20085435,1002.04144,0,0
50.4,7.1063160000000005,-6.8195868000000015,-0.27660227,1002.0214,0,0
50.44,7.2115026,-6.914919,-0.43283483,1002.00616,0,0
50.48,7.2019699999999975,-6.7194910000000005,-0.6127397,1002.0261,0,0
50.52,6.8435144,-6.948286,-0.52751774,1002.0311,0,0
50.56,6.67625,-7.0483847000000015,-0.43282697,1002.0135,0,0
50.6,6.7957725999999985,-6.924453999999999,-0.18190102,1002.0565,0,0
50.64,6.8997392999999985,-6.8958263,0.007366333,1002.03394,0,0
50.68,6.94274,-6.9148917,0.049974337,1002.0465,0,0
50.72,7.033537,-6.876759,0.016831737,1002.03864,0,0
50.76,7.0287380000000015,-6.871992,-0.09679571,1002.0186,0,0
50.8,7.1434345,-6.810026,-0.20568877,1002.03864,0,0
50.84,7.124297,-6.819559,-0.39980093,1002.04144,0,0
50.88,7.2103160000000015,-6.810025,-0.4755531,1002.01105,0,0
50.92,7.2485339999999985,-6.795725,-0.48028934,1002.04395,0,0
50.96,7.2293954,-6.7528257,-0.48975992,1002.04095,0,0
51.0,7.1051035,-6.824323700000001,-0.44715187,1002.03864,0,0
51.04,6.923452,-6.962553,-0.25304303,1002.03143,0,0
51.08,6.9664507,-6.843389,-0.20096633,1002.0236,0,0
51.12,6.961653,-6.8529215,-0.20096797,1002.02637,0,0
51.16,6.975973,-6.881520299999999,-0.17729767,1002.02637,0,0
51.2,7.0141926,-6.967318,-0.2956595,1002.016,0,0
51.24,7.119331,-6.8290877000000005,-0.41875565,1002.026,0,0
51.28,7.219688,-6.743289,-0.3808822,1002.0185,0,0
51.32,7.138413000000001,-6.6956234,-0.2625237,1002.0032,0,0
51.36,7.023678,-6.8243199999999975,-0.39982325,1002.031,0,0
51.4,7.104918,-6.824319,-0.20571426,1002.0185,0,0
51.44,7.128798,-6.7385205999999975,-0.09682466,1002.04095,0,0
51.48,7.157457400000001,-6.743286,-0.20571773,1002.0385,0,0
51.52,7.1430979999999975,-6.686087599999999,-0.17731312,1002.0208,0,0
51.56,7.0235868,-6.7814183,-0.21992426,1002.0239,0,0
51.6,7.0426850000000005,-6.781418,-0.19625412,1002.0258,0,0
51.64,7.091009,-6.767131,-0.2766908,1002.0182,0,0
51.68,7.0288744,-6.748065,-0.29562822,1002.0283,0,0
51.72,7.138812,-6.7432979999999985,-0.30036244,1002.0183,0,0
51.76,7.1435943,-6.7718979999999975,-0.34770623,1002.0133,0,0
51.8,7.1627160000000005,-6.705166,-0.35244040000000004,1002.0285,0,0
51.84,7.1101402999999985,-6.6908660000000015,-0.2956273,1002.0132,0,0
51.88,7.033666,-6.8243303,-0.3477055,1002.0285,0,0
51.92,7.0527883000000005,-6.8529296,-0.29562688,1002.0233,0,0
51.96,7.1436066999999985,-6.6861,-0.21514176,1001.9956,0,0
52.0,7.0336732999999985,-6.709933,-0.23881356,1002.0408,0,0
52.04,6.9380803,-6.786198,-0.2719542,1002.0308,0,0
52.08,6.918963400000001,-6.929195,-0.23407872,1002.02826,0,0
52.12,6.9285254,-6.9339614,-0.17726561,1002.0082,0,0
52.16,7.0050044000000025,-6.7766647,-0.19620302,1002.02026,0,0
52.2,7.0767045,-6.7480660000000015,-0.35717255,1002.0182,0,0
52.24,7.0623679999999975,-6.776665,-0.4376572,1002.04083,0,0
52.28,7.1484065,-6.8195643,-0.28142157,1002.0308,0,0
52.32,7.234445599999999,-6.7004004,-0.32403103,1002.03076,0,0
52.36,7.1866502999999975,-6.7337666,-0.28615552,1002.0283,0,0
52.4,7.129295,-6.7146997000000015,-0.37610903,1002.0258,0,0
52.44,7.028921,-6.924428999999999,-0.26721752,1002.0158,0,0
52.48,7.114960000000001,-6.833864,-0.1015131,1002.0132,0,0
52.52,7.110183,-6.757599400000001,-0.08257525,1002.03076,0,0
52.56,7.0289283,-6.833864,-0.2482792,1002.0107,0,0
52.6,7.1006284,-6.8147984,-0.1867317,1002.03296,0,0
52.64,7.0244100000000005,-6.7671385,-0.17250483,1002.01025,0,0
52.68,7.0817804,-6.8958364,-0.08254996,1002.03314,0,0
52.72,7.0244345999999975,-6.8148054999999985,-0.15356494,1002.03577,0,0
52.76,7.0196667,-6.852937700000001,-0.3097992,1001.9927,0,0
52.8,7.115276299999999,-6.824339,-0.3618764,1002.0232,0,0
52.84,7.1344065999999975,-6.786207000000001,-0.357141,1001.98773,0,0
52.88,7.053162599999999,-6.962569,-0.29085818,1002.02026,0,0
52.92,6.9671397,-6.929204,-0.42342028,1002.01776,0,0
52.96,6.9193544000000005,-6.9959364,-0.31926220000000005,1002.02295,0,0
53.0,6.938485000000001,-7.0436015,-0.2151042,1002.02277,0,0
53.04,7.019754400000001,-6.819574,-0.19616547,1002.02795,0,0
53.08,7.0149880000000016,-6.857707,-0.29558676,1001.99756,0,0
53.12,6.9289637000000015,-6.8863062999999975,-0.27191362,1002.0024,0,0
53.16,6.9911127,-6.910139599999999,-0.18669324,1002.02496,0,0
53.2,6.9767857000000015,-6.8910737000000015,-0.06359762,1002.02295,0,0
53.24,6.943339999999999,-6.9482727,-0.10147172,1002.02795,0,0
53.28,6.8764353000000025,-7.034071400000001,-0.10620496,1002.0454,0,0
53.32,6.8143115000000005,-6.8863077000000015,-0.41867438,1002.0483,0,0
53.36,7.1823710000000025,-6.7099457,-0.5180955,1002.0378,0,0
53.4,7.277976,-6.824343700000001,-0.36659378,1002.0252,0,0
53.44,7.115475999999999,-6.848176,-0.025715426,1002.0278,0,0
53.48,6.857381,-7.1532364,-0.11566779,1002.02795,0,0
53.52,6.905192,-7.038839,-0.3807933,1002.02277,0,0
53.56,7.1346354000000005,-6.724247,-0.43760493,1002.00507,0,0
53.6,7.1442046,-6.838645,-0.413932,1002.03296,0,0
53.64,7.115864,-6.9053845,-0.36655706,1002.0076,0,0
53.68,6.915137,-7.0388484,-0.20558502,1002.01794,0,0
53.72,6.733528,-7.0626826000000005,-0.219786,1002.01514,0,0
53.76,6.7670107,-6.8958535,-0.21031506,1002.01764,0,0
53.8,6.876967,-6.8672547,-0.20084436,1002.03534,0,0
53.84,7.0108333,-6.900621000000001,-0.18190384,1002.0076,0,0
53.88,7.1255655,-6.8291235,-0.23398067,1002.04535,0,0
53.92,7.1160398,-6.833890400000001,-0.4138850000000001,1002.02014,0,0
53.96,6.958322,-6.8910899999999975,-0.4280867999999999,1002.0328,0,0
54.0,6.8770967,-6.914923,-0.39494306,1001.9898,0,0
54.04,6.9870577,-6.8958573,-0.33812782,1002.035,0,0
54.08,7.135257000000001,-6.7719283,-0.2292342,1002.02496,0,0
54.12,6.977541,-6.9673570000000025,-0.22449823,1002.0101,0,0
54.16,6.7816009999999975,-6.976891,-0.24816738,1002.0249,0,0
54.2,6.829426,-6.919693,-0.2528993,1002.03534,0,0
54.24,6.8294435,-6.9482927,-0.2576321,1002.01984,0,0
54.28,6.91073,-7.0340915,-0.29077014,1002.02264,0,0
54.32,6.767361,-7.1198897,-0.29076782,1002.0222,0,0
54.36,6.824738000000001,-7.015026,-0.35231334,1001.9918,0,0
54.4,6.848667999999999,-7.1008253,-0.58903074,1002.0098,0,0
54.44,6.8630333,-6.9959617,-0.40912098,1001.99255,0,0
54.48,6.9490952,-7.1389594,-0.49907243,1002.0199,0,0
54.52,7.025596000000001,-6.886332,-0.45172617,1002.0324,0,0
54.56,6.9539237000000025,-7.0197964000000015,-0.44698942,1002.0224,0,0
54.6,6.9348307,-6.881566499999999,-0.47065914,1002.0095,0,0
54.64,7.0434365,-6.9006004,-0.115700394,1002.0121,0,0
54.68,6.8856807,-7.196126,-0.12043689,1002.0224,0,0
54.72,6.914325999999999,-7.1389270000000025,-0.32401934,1002.0098,0,0
54.76,6.895181,-7.1818247,-0.22459920000000005,1002.03015,0,0
54.8,6.7947755,-7.0817266000000005,-0.32402444,1002.0274,0,0
54.84,6.7182727,-7.1198587,-0.5181374,1002.03015,0,0
54.88,6.6130905,-7.1722899999999985,-0.53234303,1002.0451,0,0
54.92,6.7899156000000005,-7.138922999999999,-0.38084465,1001.9893,0,0
54.96,6.909382300000001,-7.348651400000001,-0.40451917,1002.002,0,0
55.0,6.794639599999999,-7.215186599999999,-0.1441295,1002.0273,0,0
55.04,6.756375,-6.871994,-0.5134155,1002.0427,0,0
55.08,6.761125,-7.0531225000000015,-0.66018474,1001.9867,0,0
55.12,6.608145,-7.348649000000001,-0.35718520000000004,1001.9868,0,0
55.16,6.660695,-7.2676163,-0.030513857,1001.99963,0,0
55.2,6.827962400000001,-7.1198525,-0.039985064,1002.0448,0,0
55.24,6.7992554000000025,-7.0817190000000005,-0.29091105,1001.9895,0,0
55.28,6.737091499999999,-7.072186,-0.24830382,1002.0246,0,0
55.32,6.8326600000000015,-7.0721855,-0.11100863,1001.9943,0,0
55.36,6.7991740000000025,-7.072184599999999,-0.37140343,1002.0324,0,0
55.4,6.598395299999999,-7.2008804999999985,-0.3287962,1002.0195,0,0
55.44,6.4979906,-7.334343400000002,-0.44242463,1001.9842,0,0
55.48,6.450166,-7.2866774,-0.5371151,1002.0146,0,0
55.52,6.6317705999999985,-7.1865783,-0.4661016,1002.01483,0,0
55.56,6.7990355,-7.143679,-0.4187601,1002.0018,0,0
55.6,6.904165299999999,-6.9911485,-0.44716892,1002.00464,0,0
55.64,6.9005160000000005,-7.1246399999999985,-0.09198508,1002.0069,0,0
55.68,6.9053125,-6.9530444000000005,-0.025701907000000003,1002.0042,0,0
55.72,7.1108613,-6.814814599999999,-0.12038836,1002.01184,0,0
55.76,7.1443369999999975,-6.776683,-0.087246016,1002.01416,0,0
55.8,7.144355,-6.9006133,-0.020962726,1002.0268,0,0
55.84,7.106133,-6.9816449999999985,-0.08724287,1002.0169,0,0
55.88,6.9914365000000025,-6.962579700000001,-0.1724604,1002.0093,0,0
55.92,7.015353,-6.995946000000001,-0.2955533,1002.0116,0,0
55.96,6.9245543000000005,-7.0817440000000005,-0.3050205,1002.0193,0,0
56.0,6.8098554999999985,-7.0817447,-0.26240933,1002.0369,0,0
56.04,6.8194337,-7.1437106,-0.2340013,1002.00464,0,0
56.08,6.7142954,-7.162777,-0.21032767,1002.0243,0,0
56.12,6.680852400000001,-7.034081,-0.18665421,1002.0193,0,0
56.16,6.599614,-7.272409,-0.18665248,1002.00714,0,0
56.2,6.590072599999999,-7.25811,-0.15351002,1002.03174,0,0
56.24,6.723924,-7.1532453999999985,-0.17718051,1002.01416,0,0
56.28,6.786078999999999,-7.0865145000000025,-0.25292936,1002.0168,0,0
56.32,6.838674,-7.1103473,-0.26713097,1002.0219,0,0
56.36,6.8004539999999984,-7.14848,-0.2008477,1002.0191,0,0
56.4,6.8578296000000005,-7.0769825,-0.20558049,1002.0116,0,0
56.44,6.8769636,-7.0483837,-0.20557904,1001.9764,0,0
56.48,6.8674225999999985,-7.134182000000001,-0.09195168,1001.999,0,0
56.52,6.88656,-6.9864190000000015,-0.12035638,1002.0091,0,0
56.56,6.8865757,-6.991186,-0.21504302,1001.9965,0,0
56.6,6.8292375,-7.0769844,-0.12982208,1001.9992,0,0
56.64,6.8290944000000025,-7.0293155,-0.26713285,1002.0116,0,0
56.68,6.814765,-7.105581,-0.17717823,1002.0241,0,0
56.72,6.881694,-6.9816504,-0.14877078,1002.0116,0,0
56.76,7.106356,-6.9435186,-0.23872335,1002.0214,0,0
56.8,7.182844,-6.967351400000001,-0.29553520000000005,1002.01416,0,0
56.84,7.201975,-7.067449000000001,-0.14403322,1002.0344,0,0
56.88,6.771804,-7.1389483999999985,-0.10142256,1002.01654,0,0
56.92,6.5615039999999984,-7.1389483999999985,-0.12035911,1002.0165,0,0
56.96,6.571075,-7.1627812,-0.18663976,1002.0193,0,0
57.0,6.6045427,-7.1532483,-0.14402924,1002.019,0,0
57.04,6.877004,-7.1389494,-0.20557536,1002.00397,0,0
57.08,6.929593,-7.119883,-0.13455825,1002.01904,0,0
57.12,6.8292303,-7.010252499999999,-0.23871402,1001.99615,0,0
57.16,6.8770384999999985,-6.98642,-0.35707316,1001.99896,0,0
57.2,6.853151,-7.0197864,-0.20083682,1002.02905,0,0
57.24,6.972657000000001,-7.0102534,-0.025662795,1002.00903,0,0
57.28,6.943989,-6.9387550000000005,-0.10614669,1002.019,0,0
57.32,7.0204763,-7.1389513,-0.044598456,1002.0115,0,0
57.36,6.939231,-7.0245543,0.03588747,1002.0214,0,0
57.4,6.857986,-7.1055856,0.007482104,1002.0165,0,0
57.44,6.9440339999999985,-6.9578229999999985,-0.19609629,1002.0243,0,0
57.48,6.905807000000001,-6.833892999999999,-0.28131446,1002.019,0,0
57.52,6.8914785000000025,-6.9578232999999985,-0.29078224,1002.0091,0,0
57.56,6.858031,-7.1151204,-0.15821795,1002.0367,0,0
57.6,6.8962803,-7.053155,-0.15821692,1002.01874,0,0
57.64,6.9150577,-6.981648,-0.19612348,1002.0442,0,0
57.68,6.8672576,-6.9149160000000025,-0.22453012,1002.03174,0,0
57.72,6.757319,-7.086512599999999,-0.15824871,1002.009,0,0
57.76,6.8385729999999985,-7.153244,-0.054092016,1002.0065,0,0
57.8,6.9771852,-7.057913,-0.10143629,1002.0214,0,0
57.84,6.929384,-6.7909856,-0.25767183,1002.0091,0,0
57.88,6.8194466,-6.972115,-0.21506242,1002.0115,0,0
57.92,6.8146644,-6.9149160000000025,-0.15824986,1002.0214,0,0
57.96,6.8242210000000005,-6.7385535,-0.12984362,1002.014,0,0
58.0,6.8098793,-6.7766857000000025,-0.20085995,1002.0088,0,0
58.04,6.7764187000000025,-6.8910832,-0.058828015,1002.019,0,0
58.08,6.7333979999999976,-6.8481836,0.031125465,1002.01636,0,0
58.12,6.6664777000000015,-6.6289225000000025,-0.13457896,1002.01385,0,0
58.16,6.5230812999999985,-6.6050897,-0.19612645,1001.99615,0,0
58.2,6.5756564,-6.824351299999999,-0.05409452,1002.0088,0,0
58.24,6.494397599999999,-6.981647,-0.09670438,1002.01385,0,0
58.28,6.508734,-6.767152,-0.08250138,1002.019,0,0
58.32,6.5517507,-6.54789,-0.26714340000000003,1001.98834,0,0
58.36,6.49439,-6.624155,-0.26240924,1002.03143,0,0
58.4,6.4370303,-6.8386507,-0.115642905,1002.00146,0,0
58.44,6.523064,-6.810051,0.08793625,1002.01117,0,0
58.48,6.637776400000001,-6.595556,-0.13458101,1002.0059,0,0
58.52,6.6234350000000015,-6.6384544000000005,-0.21033171,1002.0214,0,0
58.56,6.532616,-6.6098550000000005,-0.106175035,1002.009,0,0
58.6,6.589971,-6.5955553,-0.11564405,1001.9988,0,0
58.64,6.590161,-6.543128,-0.14403310000000002,1001.99115,0,0
58.68,6.561487,-6.633692999999999,-0.044610154000000006,1002.00616,0,0
58.72,6.532813,-6.5240626,-0.091953784,1002.0289,0,0
58.76,6.48024,-6.600327,-0.10615653,1002.0314,0,0
58.8,6.3846493,-6.729024000000001,0.04061048,1002.0165,0,0
58.84,6.49937,-6.5812616,-0.058811527,1002.0088,0,0
58.88,6.547173,-6.5383625,-0.16770238,1002.01385,0,0
58.92,6.413344,-6.595561,-0.15349868,1002.0387,0,0
58.96,6.3703303,-6.690892,-0.08248219,1002.01636,0,0
59.0,6.4085736,-6.6670593999999985,-0.001996845,1002.04895,1,3
59.04,6.5280733,-6.562195299999999,-0.0966845,1002.0083,1,3
59.08,6.48984,-6.6098614,-0.12982488,1002.0564,1,3
59.12,6.461167,-6.6193943,-0.115621164,1002.0309,1,3
59.16,6.475511,-6.581262599999999,-0.082479894,1002.02875,1,3
59.2,6.4994154,-6.5955619999999975,-0.11088584,1002.0134,1,3
59.24,6.48986,-6.519297,-0.096682206,1002.0463,1,3
59.28,6.4707456,-6.55743,-0.10615058,1002.0387,1,3
59.32,6.422953,-6.7004266,0.021678824,1002.0387,1,3
59.36,6.4707556,-6.6384615999999985,0.021679265,1002.05347,1,3
59.4,6.5806966000000005,-6.5764966000000005,-0.044601936,1002.0284,1,3
59.44,6.566362,-6.5574303,-0.058804695,1002.0434,1,3
59.48,6.4612110000000005,-6.743326,-0.058804248,1002.04846,1,3
59.52,6.5615916,-6.748092999999999,-0.073007,1002.0585,1,3
59.56,6.6428537,-6.700427,-0.10614738,1002.0863,1,3
59.6,6.6858773000000005,-6.6527615,-0.22924139,1002.0785,1,3
59.64,6.675906,-6.7099504,-0.16773184,1002.0835,1,3
59.68,6.7332516,-6.657518,-0.16299851,1002.076,1,3
59.72,6.742800999999999,-6.6622844,-0.13459300000000002,1002.07855,1,3
59.76,6.6902113,-6.647983999999999,-0.08251564,1002.0986,1,3
59.8,6.628063,-6.7766814,0.007437074599999999,1002.09106,1,3
59.84,6.4272995,-6.905378,-0.04464246,1002.11115,1,3
59.88,6.446408,-6.8624787,-0.058846686,1002.0939,1,3
59.92,6.6089100000000025,-6.695649,-0.1014574,1002.12616,1,3
59.96,6.6614766,-6.8338785,-0.21508406,1002.10864,1,3
60.0,6.6375660000000005,-6.9530425000000005,-0.058849778,1002.11615,1,3
60.04,6.704472,-6.8815436000000005,-0.27189904,1002.1111,1,3
60.08,6.7618194,-6.781446000000001,-0.27190003,1002.11115,1,3
60.12,6.843064,-6.9387417000000005,-0.16774423,1002.13116,1,3
60.16,6.828714,-6.9101424,-0.1677452,1002.1441,1,3
60.2,6.8860592999999986,-6.9435080000000005,-0.17248064,1002.1612,1,3
60.24,6.8764887,-7.0197725,-0.08726239,1002.1436,1,3
60.28,6.9099369999999976,-7.096037,-0.020981692000000003,1002.1562,1,3
60.32,6.895586,-6.962573,-0.03045157,1002.1712,1,3
60.36,6.8955746,-7.076970599999999,-0.14881276,1002.15375,1,3
60.4,6.9003440000000005,-7.1341686,-0.18195456,1002.12866,1,3
60.44,6.9337916,-6.933973,-0.14408028,1002.1737,1,3
60.48,6.92422,-6.9101399999999975,-0.23403509,1002.1782,1,3
60.52,6.9146490000000025,-6.829108,-0.25770816,1002.1812,1,3
60.56,6.8525004,-6.9578050000000005,-0.05886421,1002.1962,1,3
60.6,6.866828999999999,-6.9292054000000025,0.031088505,1002.2289,1,3
60.64,6.943679,-6.8338833,0.0074506216,1002.2289,1,3
60.68,6.8719850000000005,-6.8434167,-0.025689863,1002.2414,1,3
60.72,6.809850999999999,-6.886316000000001,-0.020955097,1002.196,1,3
60.76,6.790736,-6.9244485000000005,-0.035158005,1002.221,1,3
60.8,6.8528776,-6.981647,-0.16298659,1002.18066,1,3
60.84,6.900678599999999,-7.0150130000000015,-0.17718945,1002.2384,1,3
60.88,7.024957700000001,-7.01978,-0.14878269,1002.21576,1,3
60.92,6.9819426999999985,-7.0960445000000005,-0.18665761,1002.2489,1,3
60.96,6.9437084,-6.986414,-0.20086044,1002.2636,1,3
61.0,7.072767,-6.88155,-0.13457845,1002.24854,1,3
61.04,7.0632114,-7.005481,-0.04935879,1002.2736,1,3
61.08,6.900701,-7.091278599999999,0.14475212,1002.26117,1,3
61.12,6.910264999999999,-6.9768815,-0.0304205,1002.269,1,3
61.16,6.9437275,-6.900616,-0.14878027,1002.31616,1,3
61.2,6.8194556,-7.04838,-0.049357433,1002.3009,1,3
61.24,6.833799000000001,-7.0388465,-0.04462273,1002.2835,1,3
61.28,6.8194633,-6.9339824000000005,-0.115638435,1002.32153,1,3
61.32,6.819467,-6.9149165,-0.13931006,1002.30347,1,3
61.36,6.838589999999999,-6.9768820000000025,-0.091965705,1002.31616,1,3
61.4,6.8194747000000016,-7.043613400000001,-0.016214918000000002,1002.3084,1,3
61.44,6.819478,-6.9816484,-0.04935537,1002.30096,1,3
61.48,6.8625007,-7.0912795,-0.03515182,1002.3261,1,3
61.52,6.9198619999999975,-7.010248,-0.011479478,1002.316,1,3
61.56,7.05848,-6.957816,-0.0824952,1002.3438,1,3
61.6,7.0298047000000015,-7.043614,-0.12983891,1002.32623,1,3
61.64,6.9727063,-7.1008196,-0.03986146,1002.3538,1,3
61.68,6.9488206,-7.038854,-0.058797862,1002.3511,1,3
61.72,6.9918537,-7.005489,-0.07773414,1002.3612,1,3
61.76,6.948848700000001,-6.991189500000001,-0.16295224,1002.341,1,3
61.8,6.881945599999999,-6.910158,-0.2244982,1002.38666,1,3
61.84,6.791142999999999,-7.0007234,0.035895333,1002.351,1,3
61.88,6.8437350000000015,-6.924458500000001,0.05483424,1002.3561,1,3
61.92,6.819849499999999,-6.905392599999999,-0.044587005,1002.37885,1,3
61.96,6.8103027,-7.0245570000000015,-0.035116974,1002.3636,1,3
62.0,6.8485556,-6.991191400000001,-0.110866174,1002.3686,1,3
62.04,6.805549000000001,-7.1055894,-0.15347470000000002,1002.4014,1,3
62.08,6.815124000000001,-6.9673595,-0.15347336,1002.37366,1,3
62.12,6.977651,-6.976893,-0.08245601,1002.37854,1,3
62.16,7.0159035,-6.9816600000000015,-0.09665795,1002.4087,1,3
62.2,6.934664,-7.0150256,-0.14873488,1002.4087,1,3
62.24,6.9059954,-7.105591,-0.054045808,1002.4161,1,3
62.28,7.001604,-7.076992,0.01697142,1002.4161,1,3
62.32,6.968159700000001,-6.967362,-0.13926262,1002.4111,1,3
62.36,6.9586130000000015,-7.0388600000000014,-0.14873026,1002.4362,1,3
62.4,6.953848,-7.0197945000000015,-0.016165588,1002.4112,1,3
62.44,6.8726062999999975,-6.9196973,-0.02089861,1002.4162,1,3
62.48,6.8582788,-6.9768953,-0.15819524,1002.4563,1,3
62.52,6.7818165,-7.010261999999999,-0.106115505,1002.45374,1,3
62.56,6.7818303,-7.0245624000000015,-0.044566978,1002.4738,1,3
62.6,6.7244854000000025,-7.143725999999999,-0.11084741,1002.45355,1,3
62.64,6.8109527000000005,-7.0293392999999975,-0.02085429,1002.44855,1,3
62.68,6.9256988,-6.9673753,-0.115539595,1002.4941,1,3
62.72,6.8540300000000025,-7.005508,-0.1013338,1002.4913,1,3
62.76,6.815822,-7.1914053,-0.06819017,1002.4838,1,3
62.8,6.8684287,-7.177106,-0.025577892,1002.4738,1,3
62.84,7.0070710000000025,-7.0579424,-0.09185697,1002.47614,1,3
62.88,6.930626400000001,-7.0770097000000005,-0.035041142000000004,1002.50616,1,3
62.92,6.9306550000000025,-7.0579433000000025,-0.068179354,1002.4987,1,3
62.96,6.9115667,-7.0388784,-0.08237979,1002.5242,1,3
63.0,6.9115973,-7.038879400000001,-0.115517825,1002.52136,1,3
63.04,6.79692,-7.05318,0.007580174,1002.50385,1,3
63.08,6.8017206,-7.000748,-0.035027567,1002.50604,1,3
63.12,6.7969728000000025,-6.967384,-0.15811911,1002.4907,1,3
63.16,6.7587705,-7.0913143,-0.06816213,1002.52637,1,3
63.2,6.8161516,-7.143747,0.007590451999999998,1002.5313,1,3
63.24,6.9500145999999985,-7.0388837,-0.1533767,1002.5388,1,3
63.28,6.8209977,-7.0388845999999985,-0.25279573,1002.5238,1,3
63.32,6.773228,-7.1628156,-0.17704262,1002.5286,1,3
63.36,6.8401774999999985,-7.162816499999999,-0.044476356,1002.5413,1,3
63.4,6.821079300000001,-7.0627193,-0.05867764,1002.5538,1,3
63.44,6.859356,-7.1485179999999975,-0.053939725999999986,1002.5336,1,3
63.48,6.821148,-7.239084,-0.0065929256000000006,1002.57385,1,3
63.52,6.8211784,-7.1723523,-0.06340298,1002.5638,1,3
63.56,6.8785644,-6.981691400000001,-0.21963571,1002.5434,1,3
63.6,6.9502845,-7.029357000000001,-0.22436805,1002.5662,1,3
63.64,6.8332232999999984,-7.062666,-0.08255063,1002.59894,1,3
63.68,6.7518992,-7.134162,-0.21038575,1002.57385,1,3
63.72,6.7661789999999975,-7.1150947,-0.06835903,1002.57874,1,3
63.76,6.8186936000000005,-6.9148974,-0.035224,1002.62146,1,3
63.8,6.8616524000000005,-6.843398,-0.12518314,1002.5734,1,3
63.84,6.722971,-6.9577937000000025,-0.13465811,1002.6014,1,3
63.88,6.727690700000001,-7.0531229999999985,-0.06364748,1002.59143,1,3
63.92,6.7945485,-7.0960207,-0.021043275,1002.61896,1,3
63.96,6.8375034,-7.091253,-0.07786195,1002.6163,1,3
64.0,6.870918799999999,-7.0483527000000015,-0.21042928,1002.6138,1,3
64.04,6.8803990000000015,-7.110315299999999,-0.19149892,1002.65656,1,3
64.08,6.92335,-7.048349000000001,-0.08734815,1002.6263,1,3
64.12,6.985428,-6.967316,-0.1678385,1002.6285,1,3
64.16,6.942362299999999,-7.0054474,-0.18678047,1002.6665,1,3
64.2,6.990081,-7.0340447,-0.12524045,1002.6564,1,3
64.24,6.903985499999999,-7.0960083,-0.09210506,1002.63605,1,3
64.28,6.8752384000000015,-6.905345,-0.044767182,1002.64105,1,3
64.32,6.95644,-6.8862767000000025,-0.12999156,1002.65405,1,3
64.36,6.9372535000000015,-6.9244075,-0.07318486,1002.65106,1,3
64.4,6.817699,-7.005437400000001,-0.0731903,1002.68396,1,3
64.44,6.7793927,-6.995903,-0.030586805,1002.6483,1,3
64.48,6.8032327000000015,-6.948236,-0.13001476,1002.67365,1,3
64.52,6.841408,-6.9625344,-0.12055175,1002.6965,1,3
64.56,6.8604674,-7.0292645,-0.035337914,1002.67395,1,3
64.6,6.8938584,-7.0054297000000005,-0.1584386,1002.70404,1,3
64.64,6.91575,-7.0245643,-0.068231165,1002.71155,1,3
64.68,6.954039999999999,-7.038865,-0.13924253,1002.68896,1,3
64.72,6.9588647,-6.948301299999999,-0.19605127,1002.69617,1,3
64.76,6.9875894,-7.010267999999999,-0.13923426,1002.686,1,3
64.8,6.968520599999999,-7.1198997,-0.06821352,1002.71405,1,3
64.84,7.0211434000000015,-6.9769039999999976,-0.07294378,1002.73413,1,3
64.88,7.073772999999999,-6.8863410000000025,-0.13448636,1002.71625,1,3
64.92,6.8969655,-6.9626074,-0.11081016,1002.7009,1,3
64.96,6.8539925,-6.934009,-0.08239961,1002.73663,1,3
65.0,6.86838,-6.9101777,-0.07766081400000001,1002.7035,1,3
65.04,6.91622,-6.9054117,-0.08239134,1002.7312,1,3
65.08,6.8636966,-6.981678,-0.08238639,1002.7234,1,3
65.12,6.921102499999999,-7.015045,-0.10131961,1002.7234,1,3
65.16,6.902028,-6.9244814,-0.106049865,1002.7541,1,3
65.2,6.916413,-6.9101834,-0.16285859,1002.7234,1,3
65.24,6.8973417,-7.005514999999999,-0.14391653,1002.7563,1,3
65.28,6.992986,-7.0198164000000025,-0.17231855,1002.77856,1,3
65.32,6.9834776,-7.1056156,-0.18178268,1002.7917,1,3
65.36,6.9978595,-7.019819,-0.07762194,1002.7839,1,3
65.4,7.098289500000001,-6.848223700000001,-0.13916422,1002.7685,1,3
65.44,7.107891,-6.9197229999999985,-0.124957174,1002.78357,1,3
65.48,7.002783999999999,-7.034122,-0.09654632,1002.81647,1,3
65.52,6.969372999999999,-6.9530910000000015,-0.082338676,1002.7889,1,3
65.56,6.9216204,-6.867295,-0.09180334,1002.81586,1,3
65.6,6.8260694000000015,-6.900661500000001,-0.13914326,1002.77325,1,3
65.64,6.824223,-6.9387484,-0.120374635,1002.81866,1,3
65.68,6.833756,-6.99118,-0.054095406,1002.81885,1,3
65.72,6.871967999999999,-6.96258,-0.06356667,1002.8188,1,3
65.76,6.805026,-6.986412,-0.21033554,1002.8233,1,3
65.8,6.819336999999999,-6.886314,-0.15825963,1002.85645,1,3
65.84,6.8432125999999975,-7.010244,-0.22927783,1002.8515,1,3
65.88,6.9101032999999985,-7.048375599999999,-0.030435283,1002.8714,1,3
65.92,7.0678100000000015,-7.029309,-0.0967194,1002.8462,1,3
65.96,7.1155815,-6.924444,-0.14880027,1002.8587,1,3
66.0,7.0199604,-6.886311,-0.1866778,1002.864,1,3
66.04,6.967356,-6.991174000000001,-0.1346018,1002.8944,1,3
66.08,6.9960084,-6.9959407,-0.04938491,1002.86127,1,3
66.12,6.9481835000000025,-6.9768734,-0.073059395,1002.8664,1,3
66.16,6.9624963000000015,-6.943507,-0.21982835,1002.8614,1,3
66.2,6.929012299999999,-6.981639,-0.22456507,1002.9013,1,3
66.24,6.9146466,-6.886307,-0.15828584,1002.86597,1,3
66.28,6.986317,-6.9053726,-0.1819603,1002.9014,1,3
66.32,6.909815299999999,-6.8815393,-0.0920089,1002.9164,1,3
66.36,6.87633,-6.991169,-0.058870513,1002.919,1,3
66.4,6.9336615,-7.0483675,-0.11095138,1002.9264,1,3
66.44,6.986214,-6.881537400000001,-0.054140817,1002.9289,1,3
66.48,7.0913434,-6.8434043,-0.17250338,1002.9217,1,3
66.52,6.995719,-6.9625673,-0.23405324,1002.94354,1,3
66.56,6.900098,-7.1103296,-0.11569539,1002.9389,1,3
66.6,6.919192,-7.0578970000000005,-0.09202567,1002.94635,1,3
66.64,6.992628,-6.981675,-0.12974173,1002.9566,1,3
66.68,6.9448732999999985,-7.000742,-0.13447219,1002.94116,1,3
66.72,6.8540974000000014,-6.9721437,-0.14867169,1002.94104,1,3
66.76,6.892378999999999,-7.0198107000000025,-0.07291727,1002.93353,1,3
66.8,6.8972015,-6.9149475,-0.07291332,1002.93353,1,3
66.84,6.906801700000001,-6.934015,-0.12972248,1002.9691,1,3
66.88,6.8877254,-6.862517,-0.06817126,1002.97864,1,3
66.92,6.820852,-7.0960793,-0.106042564,1002.941,1,3
66.96,6.892589,-7.0102825,0.021790057,1002.9661,1,3
67.0,7.026472,-6.781489,-0.21019135,1002.98145,1,3
67.04,6.9691550000000015,-6.867288,-0.28120366,1002.9965,1,3
67.08,6.8353634,-6.995986500000001,-0.20071487,1002.989,1,3
67.12,6.8832016000000005,-7.010287,0.0502123,1002.98663,1,3
67.16,7.055317999999999,-6.953088799999999,-0.0018621981,1003.0012,1,3
67.2,6.9645449999999975,-7.034122,-0.039733496,1002.9965,1,3
67.24,6.945469,-7.0245895,-0.101276815,1003.01373,1,3
67.28,7.026766,-6.92926,-0.1722892,1003.0116,1,3
67.32,7.0889435,-6.9292607,-0.1675511,1003.01654,1,3
67.36,7.0842094,-6.919728299999999,-0.18175012,1003.01654,1,3
67.4,6.9408555,-6.8672976,-0.06338628,1003.0391,1,3
67.44,6.9313364,-6.857765,-0.11072661,1003.0538,1,3
67.48,6.8405633,-7.038895599999999,0.11179434,1003.05426,1,3
67.52,6.9553194000000005,-6.876834,0.12126684,1003.0591,1,3
67.56,7.07486,-6.791036599999999,-0.09651157,1003.0313,1,3
67.6,6.9315089999999975,-6.914967999999999,-0.15332048,1003.0539,1,3
67.64,6.7679462,-7.1056046,0.0028188191,1003.0641,1,3
67.68,6.906561,-6.814845,-0.09186928,1003.0438,1,3
67.72,6.9973774,-6.8339105,-0.15815096,1003.07935,1,3
67.76,6.9543586,-7.0341063,-0.044525247,1003.0864,1,3
67.8,6.968698,-7.048406,-0.01611882,1003.0884,1,3
67.84,7.0021567,-7.010274000000001,-0.068197265,1003.07385,1,3
67.88,6.959139,-6.9483085,-0.025587607,1003.0684,1,3
67.92,7.0069366,-6.9721413,-0.07293168,1003.11676,1,3
67.96,7.0069366,-6.9483085,-0.082400456,1003.09174,1,3
68.0,7.011717,-7.124671,-0.07293168,1003.0835,1,3
68.04,7.0069366,-6.9816747,-0.025587607,1003.07385,1,3
68.08,7.054734700000001,-6.771946400000001,-0.21496378,1003.10645,1,3
68.12,6.9304595,-6.824378,-0.15341654,1003.1294,1,3
68.16,6.844423299999999,-6.9483085,-0.044525247,1003.11646,1,3
68.2,6.853983,-6.9721413,0.059631668,1003.1064,1,3
68.24,6.9209003,-6.8482103,-0.07293168,1003.1039,1,3
68.28,6.8970013,-6.8815765,-0.12501012,1003.101,1,3
68.32,6.8970013,-6.9530745,-0.13447894,1003.14154,1,3
68.36,6.963918,-6.9816747,-0.106072515,1003.1163,1,3
68.4,7.0595145000000015,-6.8768106,-0.12501012,1003.11646,1,3
68.44,7.011717,-6.9578414,-0.17235415,1003.15405,1,3
68.48,6.944799400000001,-6.9673753,-0.04925963,1003.139,1,3
68.52,6.9734783,-6.976907700000001,-0.16288537,1003.1213,1,3
68.56,6.944799400000001,-6.9912076,-0.120275706,1003.15155,1,3
68.6,7.040395299999999,-6.924475,-0.068197265,1003.1335,1,3
68.64,7.1119647,-6.8386745,-0.2007723,1003.14606,1,3
68.68,7.035482400000001,-6.791009,-0.17236632,1003.1916,1,3
68.72,6.9351020000000005,-6.8720399999999975,-0.09661636,1003.18616,1,3
68.76,6.9255369999999985,-6.838674,-0.09188233,1003.1816,1,3
68.8,6.911193400000001,-6.862507000000001,-0.05874196,1003.20416,1,3
68.84,6.9350867,-6.8815727,-0.115555316,1003.2091,1,3
68.88,6.930301700000001,-6.8625064,-0.058742907,1003.16864,1,3
68.92,6.9876547,-6.886339,-0.1108218,1003.2091,1,3
68.96,7.0115485,-6.867273,-0.16763514,1003.1966,1,3
69.0,6.9637449999999985,-6.8863387000000005,-0.18183881,1003.1987,1,3
69.04,7.0402179999999985,-6.938771000000001,-0.18183923,1003.18616,1,3
69.08,6.9589562,-7.1056004,-0.1486989,1003.2089,1,3
69.12,7.0688863,-7.0293354999999975,-0.035073627,1003.20123,1,3
69.16,7.121459,-6.862505400000001,-0.20077828,1003.21906,1,3
69.2,7.011519,-6.934003999999999,-0.18657549,1003.2312,1,3
69.24,6.944597,-7.077000599999999,-0.054012585,1003.2392,1,3
69.28,6.997169500000001,-6.962603,-0.120294735,1003.2242,1,3
69.32,6.992384,-6.8863378,-0.101357594,1003.2518,1,3
69.36,6.9445820000000005,-6.9483027,-0.21498369,1003.22406,1,3
69.4,6.86332,-6.914936999999999,-0.17710897,1003.2413,1,3
69.44,6.9063334,-6.8434386,-0.077686906,1003.2588,1,3
69.48,6.8872085000000025,-6.89587,-0.08242178,1003.2616,1,3
69.52,6.9158826,-6.934003,-0.035078224,1003.2463,1,3
69.56,6.901539,-6.881571000000001,-0.06821944,1003.2716,1,3
69.6,6.9015336,-7.0484004,-0.1581736,1003.27686,1,3
69.64,6.958886,-6.9626017,-0.087158024,1003.2919,1,3
69.68,7.087936,-6.9197025,-0.17237772,1003.28424,1,3
69.72,7.0162334,-6.976901,-0.23392545,1003.2892,1,3
69.76,7.0353475,-7.0198,-0.21025392,1003.28937,1,3
69.8,7.0783615000000015,-6.972134599999999,-0.07295662,1003.2942,1,3
69.84,7.0496774,-6.829138,-0.1865828,1003.30396,1,3
69.88,7.020992999999999,-6.8768034,-0.09189515,1003.2944,1,3
69.92,7.020988000000001,-6.8958693,-0.054020364,1003.3394,1,3
69.96,6.963626,-6.824371000000001,-0.101364896,1003.3167,1,3
70.0,6.877584,-6.8386703,-0.07769336,1003.3042,1,3
70.04,6.8584604,-6.9006352,-0.087162554,1003.31647,1,3
70.08,6.925372,-6.910168,0.02646268,1003.35443,1,3
70.12,6.8584504,-7.0483985,-0.14871076,1003.3338,1,3
70.16,6.8058676999999985,-7.034098599999999,-0.11557037,1003.3665,1,3
70.2,6.9779353,-6.900635,-0.17711811,1003.34906,1,3
70.24,7.035287400000001,-6.9292345,-0.22919701,1003.3389,1,3
70.28,7.011384,-7.024564999999999,-0.15344697,1003.35394,1,3
70.32,7.0257187000000005,-7.186628,0.02645997,1003.3715,1,3
70.36,7.1643276,-7.043631,-0.11083825,1003.359,0,0
70.4,7.178661999999999,-7.105596,-0.068229064,1003.39685,0,0
70.44,7.1069603,-7.134195299999999,-0.077698365,1003.3515,0,0
70.48,7.1929913,-7.1913943,-0.05876119,1003.37897,0,0
70.52,7.1786466,-7.1103625,-0.15818417,1003.4094,0,0
70.56,7.221660000000001,-7.0865297000000025,-0.101371765,1003.39905,0,0
70.6,7.1642975999999985,-7.1294284,-0.07770018,1003.3866,0,0
70.64,7.1546054,-7.196157,-0.19133803,1003.39685,0,0
70.68,7.1784940000000015,-7.1913905,-0.016165998,1003.4341,0,0
70.72,7.2549615,-7.158024,-0.0066980347,1003.42163,0,0
70.76,7.3266478,-7.029327,-0.0729807,1003.4038,0,0
70.8,7.154566,-7.096058,-0.14399764,1003.4192,0,0
70.84,7.178454,-7.2247553,0.031174354,1003.4089,0,0
70.88,7.321839,-7.248587599999999,0.1021896,1003.4289,0,0
70.92,7.4174247000000015,-7.320086,0.021703798,1003.4292,0,0
70.96,7.403075,-7.239053699999999,-0.13453251,1003.40643,0,0
71.0,7.398285400000002,-7.353451299999999,-0.12979901,1003.4389,0,0
71.04,7.393495599999999,-7.348684299999999,-0.14873756,1003.4337,0,0
71.08,7.4890814,-7.377283,-0.18187931,1003.4441,0,0
71.12,7.436495,-7.343917,-0.13453610000000002,1003.47455,0,0
71.16,7.4030255999999985,-7.401115400000001,-0.15820909,1003.4364,0,0
71.2,7.3456573,-7.4678473,-0.05878752,1003.454,0,0
71.24,7.412565,-7.305784,-0.08246039,1003.4617,0,0
71.28,7.4221144,-7.248585,-0.16294624,1003.4591,0,0
71.32,7.383866,-7.3200835999999985,-0.039852653,1003.50934,0,0
71.36,7.3169394,-7.377281699999997,-0.016181491,1003.45374,0,0
71.4,7.407746,-7.382047999999997,-0.04458886,1003.5068,0,0
71.44,7.374275999999999,-7.324849,-0.08246499,1003.5046,0,0
71.48,7.369486999999999,-7.401113499999999,-0.22923248,1003.5018,0,0
71.52,7.393376400000001,-7.362981299999999,-0.19135812,1003.4991,0,0
71.56,7.4602838,-7.2914824,-0.17715582,1003.50433,0,0
71.6,7.4841723,-7.329614599999997,-0.11560948,1003.50903,0,0
71.64,7.4074945,-7.3725085,-0.025674164,1003.4792,0,0
71.68,7.474394,-7.2962437000000016,-0.12983273,1003.4966,0,0
71.72,7.3453217,-7.420173599999999,-0.12983435,1003.5068,0,0
71.76,7.2688265,-7.3248419999999985,-0.13457038,1003.5143,0,0
71.8,7.397864,-7.334375,-0.17718163,1003.53217,0,0
71.84,7.302247,-7.3820395,-0.22926201,1003.5419,0,0
71.88,7.230537400000001,-7.4106383,-0.1203718,1003.5015,0,0
71.92,7.201841,-7.3820386,-0.12037346,1003.53186,0,0
71.96,7.2878593999999985,-7.243808299999999,-0.11564067,1003.51154,0,0
72.0,7.3213005,-7.2676406,-0.18665837,1003.52435,0,0
72.04,7.225687,-7.291473,-0.13458155,1003.52905,0,0
72.08,7.268687,-7.320072,-0.13458316,1003.5242,0,0
72.12,7.235211,-7.1866080000000006,-0.11091277,1003.51666,0,0
72.16,7.2638729999999985,-7.258106,-0.18193035,1003.53186,0,0
72.2,7.259075599999999,-7.1580076,-0.12985353,1003.5422,0,0
72.24,7.1634617,-7.33437,-0.23401205,1003.53156,0,0
72.28,7.091747,-7.2485714,-0.20560728,1003.5422,0,0
72.32,7.172983,-7.262870299999999,-0.26242194,1003.51154,0,0
72.36,7.1108327000000005,-7.1961384000000015,-0.28609514,1003.50885,0,0
72.4,7.024779,-7.229503999999999,-0.25295594,1003.52185,0,0
72.44,7.0247600000000014,-7.1627717,-0.14406638,1003.53143,0,0
72.48,7.024739,-7.0865064,-0.2056156,1003.53156,0,0
72.52,7.010387,-7.1341715,-0.22455429,1003.52386,0,0
72.56,7.0103636,-7.1675366999999985,-0.2719005,1003.51654,0,0
72.6,7.058147999999999,-7.0102406,-0.19141684,1003.52905,0,0
72.64,6.9925,-6.9197063,-0.2717856,1003.52655,0,0
72.68,6.8539186,-6.953073,-0.21496971,1003.55145,0,0
72.72,6.944766,-6.9673743,-0.18182604,1003.52637,0,0
72.76,6.8731,-7.2009354000000005,-0.09660393,1003.5341,0,0
72.8,6.906593300000001,-7.086539299999999,-0.09660071,1003.52905,0,0
72.84,7.01178,-6.938777,-0.3427869,1003.52136,0,0
72.88,6.9114369999999985,-7.0722413,-0.39959675,1003.53143,0,0
72.92,6.8206539999999976,-7.167573,-0.09185745,1003.51636,0,0
72.96,6.796778999999999,-7.1342077,-0.26702815,1003.539,0,0
73.0,6.8207197,-7.0817770000000015,-0.2717588,1003.5065,0,0
73.04,6.854199,-7.1771083,-0.20074084,1003.5442,0,0
73.08,6.8159933000000015,-7.1008444000000015,-0.21967544,1003.51404,0,0
73.12,6.8686146999999975,-6.938782700000001,-0.29542193,1003.5185,0,0
73.16,6.878205,-6.9340167,-0.22440304,1003.5441,0,0
73.2,6.8782380000000005,-7.015049,-0.091836676,1003.53156,0,0
73.24,6.9881964000000005,-6.9721503,-0.039756175,1003.5415,0,0
73.28,6.8352857,-7.3201103,-0.058689807,1003.52155,0,0
73.32,6.648904300000001,-7.1961803,-0.11549984,1003.52386,0,0
73.36,6.787553999999999,-6.9769197,-0.295404,1003.54926,0,0
73.4,6.9357567,-6.9912199999999975,-0.33327663,1003.53174,0,0
73.44,6.950131,-7.029353,-0.20544451,1003.5441,0,0
73.48,6.8736872999999985,-7.096086,-0.14389418,1003.54663,0,0
73.52,6.8163524,-7.1389856,-0.13442333,1003.55194,0,0
73.56,6.792484,-7.096087,-0.04446682,1003.52905,0,0
73.6,6.8116445999999975,-7.234318300000001,-0.053931806,1003.54926,0,0
73.64,6.8149757,-7.1341853,-0.15348691,1003.5267,0,0
73.68,6.7528133000000015,-7.1151185,-0.3475998,1003.53174,0,0
73.72,6.7193303,-7.267647699999999,-0.19136666,1003.52905,0,0
73.76,6.8053417000000005,-7.1341834,-0.17243135,1003.53174,0,0
73.8,6.7718573000000015,-7.13895,-0.32393464,1003.539,0,0
73.84,6.7670527,-7.1532483,-0.28132725,1003.51935,0,0
73.88,6.838725599999999,-6.9768853,-0.12982853,1003.53925,0,0
73.92,6.786123,-6.9530516,-0.17717488,1003.5394,0,0
73.96,6.6666,-7.124647,-0.18191177,1003.54926,0,0
74.0,6.685697599999999,-7.234277199999997,0.040603235,1003.54913,0,0
74.04,6.7000103000000015,-7.2056774999999975,0.035866354,1003.53174,0,0
74.08,6.7286654000000015,-7.034081,-0.4375763,1003.539,0,0
74.12,6.747767,-7.0388465,-0.56067246,1003.54694,0,0
74.16,6.824210000000001,-7.1008115000000025,-0.3050176,1003.51917,0,0
74.2,6.9102229999999984,-7.134176700000001,-0.26241013,1003.5344,0,0
74.24,6.9484363,-7.1580086,-0.23400603,1003.5467,0,0
74.28,6.9579725,-7.0150112999999985,-0.1393201,1003.52386,0,0
74.32,6.9531649999999985,-6.972111999999999,-0.2434795,1003.55695,0,0
74.36,7.005719,-6.900612400000001,-0.21980964,1003.54694,0,0
74.4,6.972237,-6.8434134,-0.09671728,1003.5344,0,0
74.44,6.814477,-6.9482775,0.06898441,1003.55444,0,0
74.48,6.7809944,-7.0293083,0.021638181,1003.5294,0,0
74.52,6.656694,-7.1389384000000025,0.09265193,1003.54175,0,0
74.56,6.656668700000001,-7.1389380000000005,0.031102348,1003.5394,0,0
74.6,6.651864999999999,-7.2867007,-0.22455768,1003.50903,0,0
74.64,6.8055330000000005,-7.2724185,-0.30497718,1003.54926,0,0
74.68,7.0015087,-6.9244595,-0.36652413,1003.53186,0,0
74.72,7.106667999999999,-6.7814630000000005,-0.5180247,1003.54694,0,0
74.76,7.0684333,-6.8529615,-0.3665234000000001,1003.52435,0,0
74.8,7.0540977,-6.8386619999999985,-0.0919276,1003.52716,0,0
74.84,7.0349817,-6.93876,-0.016176809,1003.55676,0,0
74.88,6.9967475000000015,-6.9339933,0.02643317,1003.5422,0,0
74.92,7.0780077000000015,-6.810063,0.031167934,1003.5497,0,0
74.96,6.972856,-6.8863277,-0.101395085,1003.54443,0,0
75.0,6.9059424,-6.9244600000000025,-0.13926995,1003.54474,0,0
75.04,6.81035,-7.057924000000001,-0.115597576,1003.54474,0,0
75.08,6.8629313,-6.9816594,-0.17714451,1003.5419,0,0
75.12,6.9585314,-6.9530597000000025,-0.16767538,1003.5242,0,0
75.16,6.9728746,-6.986426,-0.2434255,1003.5267,0,0
75.2,6.9250803,-6.9482937000000025,-0.31444123,1003.5394,0,0
75.24,7.0015607000000015,-6.867262400000001,-0.4375354,1003.5394,0,0
75.28,7.0589223,-6.924461,-0.20554927,1003.5344,0,0
75.32,7.0445867,-6.862496000000001,-0.13453284,1003.53436,0,0
75.36,6.905976299999999,-6.9768934000000025,-0.12979807,1003.5422,0,0
75.4,6.9967966,-6.881562,0.031172056,1003.52185,0,0
75.44,6.9729009999999985,-6.8005314,0.035906787999999995,1003.55945,0,0
75.48,6.8342899999999975,-6.962594,-0.12506263,1003.5467,0,0
75.52,6.848633,-7.0340924,-0.10139032,1003.5294,0,0
75.56,6.9012145999999985,-7.0626917,-0.22921883,1003.5822,0,0
75.6,6.901218400000001,-6.9149284,-0.29076573,1003.5372,0,0
75.64,6.8300405,-6.929241,-0.5227041,1003.55945,0,0
75.68,6.939997999999999,-6.957841,-0.43274835,1003.55475,0,0
75.72,7.002159599999999,-6.934009,-0.23390116,1003.5419,0,0
75.76,7.078661,-6.843445,-0.14867969,1003.53436,0,0
75.8,6.983088499999999,-6.891111,-0.12973988,1003.5419,0,0
75.84,6.9639935,-6.819613,-0.11080003,1003.5419,0,0
75.88,6.920998,-6.9530773,-0.07765713,1003.5043,0,0
75.92,7.0405172999999985,-6.7338166,0.035970815,1003.5294,0,0
75.96,7.145697,-6.6432524000000015,-0.07765274,1003.52686,0,0
76.0,7.217414999999999,-6.662319,-0.18180768,1003.5347,0,0
76.04,7.112284700000001,-6.8672814,-0.10132046,1003.50433,0,0
76.08,7.0549497999999975,-6.8815823000000025,-0.049239922,1003.53186,0,0
76.12,7.097992,-6.714753,-0.18180107,1003.52936,0,0
76.16,7.0836770000000016,-6.7767186000000015,-0.323831,1003.5493,0,0
76.2,6.983325,-6.9673820000000015,-0.19126546,1003.5394,0,0
76.24,6.959449,-6.9626160000000015,-0.12498173,1003.5143,0,0
76.28,6.930795699999999,-6.962616400000001,-0.15812024,1003.54944,0,0
76.32,6.9212604,-6.8911185,-0.18179005,1003.52167,0,0
76.36,6.935622,-6.953084,-0.24806963,1003.5493,0,0
76.4,6.854388,-7.072249,-0.14391065,1003.51917,0,0
76.44,6.8448524000000015,-6.967386,-0.22439332,1003.5242,0,0
76.48,6.8257575,-6.862521000000001,-0.24332874,1003.51666,0,0
76.52,6.7588644,-7.048417999999999,-0.2007169,1003.5394,0,0
76.56,6.902281,-7.234314,-0.18177721,1003.52936,0,0
76.6,7.1365156,-7.086550999999999,-0.36641678,1003.5369,0,0
76.64,7.044952,-6.9864354,-0.39489165,1003.5415,0,0
76.68,6.8346350000000005,-7.053167299999999,-0.46117374,1003.5497,0,0
76.72,6.8059497,-7.1294317,-0.5321905,1003.5143,0,0
76.76,6.9158792,-7.072233,-0.2386579,1003.5348,0,0
76.8,6.9349922999999984,-6.986435,-0.2481273,1003.51917,0,0
76.84,6.7581334,-7.0198006999999985,-0.07295491,1003.51416,0,0
76.88,6.605173,-7.1389647,-0.07768987,1003.51434,0,0
76.92,6.691203,-7.1246649999999985,0.10221693,1003.55945,0,0
76.96,6.8345910000000005,-7.048399400000001,-0.10136308,1003.52686,0,0
77.0,6.8298054000000015,-6.967368,-0.25759894,1003.54694,0,0
77.04,6.7963405,-7.053166,-0.41856927,1003.54175,0,0
77.08,6.839352000000001,-7.0483990000000025,-0.36649144,1003.51666,0,0
77.12,6.872804,-6.9197016000000025,-0.3759608,1003.54663,0,0
77.16,6.930156,-6.9769,-0.32861733,1003.51416,0,0
77.2,6.786755,-7.1580296,-0.14871053,1003.53156,0,0
77.24,6.719832000000001,-7.2056947000000005,-0.18185192,1003.54694,0,0
77.28,6.786743,-7.215227599999999,-0.21972771,1003.5419,0,0
77.32,6.791517,-7.1437287,-0.27180675,1003.54443,0,0
77.36,6.8297496,-7.057931,-0.37122977,1003.54443,0,0
77.4,6.848862,-7.124663000000001,-0.30968314,1003.54694,0,0
77.44,6.867975,-7.2009273,-0.14871392,1003.5342,0,0
77.48,6.8584093999999975,-7.0579304999999986,-0.077698454,1003.53937,0,0
77.52,6.8297243000000005,-7.1437282999999985,-0.16765270000000002,1003.55444,0,0
77.56,6.7341213,-7.239059399999999,-0.101371646,1003.54443,0,0
77.6,6.676759,-7.2867246,-0.23393546,1003.5419,0,0
77.64,6.5719495,-7.2772,-0.30018540000000005,1003.53937,0,0
77.68,6.701010000000001,-7.324866,-0.27177843,1003.55725,0,0
77.72,6.7870550000000005,-7.115137599999999,-0.38066894,1003.5467,0,0
77.76,6.777503500000001,-7.2057023,-0.34752740000000004,1003.5292,0,0
77.8,6.8014092,-7.1771035,-0.14394741,1003.56195,0,0
77.84,6.787077,-7.1675706,-0.16761874,1003.5419,0,0
77.88,6.8635616,-7.0579395000000025,-0.38540068,1003.53436,0,0
77.92,6.8826885,-7.07224,-0.33805588,1003.51904,0,0
77.96,6.9687324,-6.8625107000000005,-0.08713175,1003.54913,0,0
78.0,6.9974194,-6.843445299999999,-0.13447514,1003.53937,0,0
78.04,6.849252000000001,-6.9387765,-0.16288091,1003.5242,0,0
78.08,6.791902,-7.1532717,-0.091864124,1003.52386,0,0
78.12,6.7680106,-7.1199059999999985,-0.063457,1003.50385,0,0
78.16,6.777578,-7.0531745,-0.17708203,1003.54443,0,0
78.2,6.758466,-7.143739,-0.30964467,1003.55695,0,0
78.24,6.6963363,-7.1628056,-0.30490959999999995,1003.5419,0,0
78.28,6.753701,-7.1532725999999975,-0.39959696,1003.52716,0,0
78.32,6.8158460000000005,-7.038875599999999,-0.36172104,1003.5419,0,0
78.36,6.8110732999999986,-6.9673777,-0.28596985,1003.5493,0,0
78.4,6.839760000000001,-7.043642,-0.2812348,1003.52435,0,0
78.44,6.8015294000000015,-7.010277,0.007564565,1003.54913,0,0
78.48,6.9353704,-6.8720465,-0.04451326,1003.5163,0,0
78.52,6.921039,-6.8911130000000025,-0.06818457,1003.5294,0,0
78.56,6.82545,-7.0055103,-0.12026234,1003.50385,0,0
78.6,6.7824396999999985,-7.053176400000001,-0.06818318,1003.56195,0,0
78.64,6.9403734,-6.9816833,-0.3427603,1003.52136,0,0
78.68,7.0073047000000015,-6.8958855,-0.42324388,1003.51385,0,0
78.72,6.9929795,-7.034116,-0.42324257,1003.51385,0,0
78.76,6.849601,-7.067482000000001,-0.30961550000000004,1003.53174,0,0
78.8,6.9356527,-7.038883,-0.3001453,1003.55695,0,0
78.84,6.859191,-6.9483190000000015,-0.120236516,1003.54175,0,0
78.88,6.9213429999999985,-6.8911204,-0.044484753,1003.5292,0,0
78.92,6.916578,-7.0102850000000005,-0.006608121,1003.53937,0,0
78.96,6.9452715,-6.9292539999999985,0.0028620213,1003.54926,0,0
79.0,6.997864999999999,-6.914953999999999,-0.0776214,1003.5442,0,0
79.04,6.9261823000000025,-6.97692,-0.22912104,1003.5015,0,0
79.08,6.7828026,-7.153283,-0.16283807,1003.54663,0,0
79.12,6.782817999999999,-7.2009487000000005,-0.16283669,1003.53156,0,0
79.16,6.8115125,-7.0579524000000005,-0.4042898,1003.55945,0,0
79.2,6.811527000000001,-7.1103845,-0.30486602,1003.53143,0,0
79.24,6.864121000000001,-7.091319,-0.27172372,1003.5341,0,0
79.28,6.8593554,-6.976922,-0.120221466,1003.5442,0,0
79.32,6.8976083,-6.9912224,-0.0870793,1003.52655,0,0
79.36,6.9215225999999985,-6.881592,0.002875775,1003.5341,0,0
79.4,6.902417999999999,-6.98169,-0.08234212,1003.55164,0,0
79.44,6.9502316,-6.9816904000000015,0.07862905,1003.5242,0,0
79.48,7.036282000000001,-6.9054259999999985,-0.053932983,1003.54663,0,0
79.52,7.026738000000001,-6.8815937000000025,-0.15808852,1003.52936,0,0
79.56,6.9263773,-6.981692,-0.24804081,1003.5214,0,0
79.6,6.8785934000000015,-7.029357000000001,-0.19596106,1003.5442,0,0
79.64,6.8537197,-7.1055984,-0.23865993,1003.51154,0,0
79.68,6.839355499999999,-6.972134599999999,-0.19605252,1003.53687,0,0
79.72,6.8441133,-7.0150323000000006,-0.21025781,1003.53925,0,0
79.76,6.896667,-6.9864326,-0.12504072,1003.54443,0,0
79.8,6.939659,-6.9864320000000015,-0.13451189,1003.55164,0,0
79.84,6.9205165,-7.000731,-0.14871729999999994,1003.53687,0,0
79.88,6.9300528,-6.9578320000000025,-0.12978175,1003.5289,0,0
79.92,6.963488000000001,-7.00073,-0.09664312,1003.5441,0,0
79.96,7.0112634000000025,-6.9482975000000025,-0.07297316,1003.53937,0,0
80.0,7.001679400000001,-6.867265,-0.14872584,1003.5364,0,0
80.04,6.958637,-6.895863499999999,-0.24341615,1003.54663,0,0
80.08,6.901256599999999,-7.0483932000000005,-0.13926129,1003.53156,0,0
80.12,6.886892,-7.048392999999999,-0.09665403,1003.54663,0,0
80.16,6.9824652999999985,-6.910162,-0.16767217,1003.5442,0,0
80.2,6.910744,-6.8481960000000015,-0.18661198,1003.5415,0,0
80.24,6.9489589999999986,-6.900627,-0.18661419,1003.52606,0,0
80.28,6.953717,-6.8720274,-0.11560002,1003.54175,0,0
80.32,6.991928,-6.848194,-0.12980573,1003.5364,0,0
80.36,7.030144,-6.8386607,-0.1061358,1003.55164,0,0
80.4,6.982325,-7.0007234,-0.17241935,1003.54913,0,0
80.44,6.886705,-7.0817536999999975,-0.14401513,1003.5342,0,0
80.48,7.010954400000001,-6.8672580000000005,-0.17242393,1003.53143,0,0
80.52,7.0539503,-6.8148255,-0.2150356,1003.5289,0,0
80.56,7.001347999999999,-6.891090400000001,-0.27658507,1003.5467,0,0
80.6,6.9583059999999985,-6.9911866,-0.23397766,1003.55695,0,0
80.64,7.126534,-6.895878999999999,-0.13446957,1003.5415,0,0
80.68,7.155226,-6.819614,-0.2622973,1003.5339,0,0
80.72,7.0261855,-6.8863463000000005,-0.39012495,1003.5063,0,0
80.76,7.011861,-6.8577476,-0.16760658,1003.54663,0,0
80.8,7.059671400000001,-6.857748,-0.22915263,1003.52905,0,0
80.84,7.0692453,-6.824382300000001,-0.18180731,1003.5289,0,0
80.88,7.002341,-6.752884,-0.2528222,1003.55646,0,0
80.92,7.007135000000001,-6.9244804,-0.3664466,1003.54663,0,0
80.96,7.040610000000001,-6.8291497,-0.1533969,1003.5464,0,0
81.0,7.0836387,-6.7910175000000015,-0.2386152,1003.54645,0,0
81.04,7.0884347000000005,-6.810084,-0.41378665,1003.55194,0,0
81.08,6.959395,-6.914949000000001,-0.29542524,1003.5366,0,0
81.12,7.045445,-6.8100843,-0.26701757,1003.5211,0,0
81.16,7.0741363,-6.7338204,-0.35223562,1003.5364,0,0
81.2,6.9307575,-6.805319,-0.35696867,1003.5364,0,0
81.24,6.9307704,-6.886351,-0.27174824,1003.52655,0,0
81.28,6.9355597000000015,-6.9054174,-0.26701295,1003.5339,0,0
81.32,6.969036599999999,-6.838686,-0.30962092,1003.5361,0,0
81.36,6.9547114,-6.805320299999999,-0.35222924,1003.55945,0,0
81.4,6.806551,-6.953083500000001,-0.30488402,1003.5163,0,0
81.44,6.9165009999999985,-6.905419,-0.12970972,1003.5188,0,0
81.48,7.083807000000001,-6.767189,-0.26700625,1003.5414,0,0
81.52,7.0599174,-6.7957883,-0.4942568,1003.5364,0,0
81.56,7.0647160000000016,-6.8768205999999985,-0.29067567,1003.51605,0,0
81.6,7.165102,-6.8482213000000005,-0.3332844,1003.5289,0,0
81.64,7.2745066,-6.6670789999999975,-0.42328674,1003.55164,0,0
81.68,7.264939,-6.729044,-0.45169386,1003.5185,0,0
81.72,7.083299,-6.7576427,-0.46589768,1003.5336,0,0
81.76,6.8538613,-7.0436363,-0.20077176,1003.5339,0,0
81.8,6.7295785000000015,-7.0245705,-0.18656924,1003.5616,0,0
81.84,6.868185499999999,-6.9340053,-0.30493003,1003.56177,0,0
81.88,7.025912,-6.800542,-0.33807153,1003.5539,0,0
81.92,6.982888000000001,-6.9340053,-0.27179036,1003.52856,0,0
81.96,6.9637613,-6.919705,-0.28599423,1003.5414,0,0
