Timestamp,Ax,Ay,Az,P,LPFRMSAcc,LPFPValue,Value,Type
0.0,7.27652,-6.435615,1.8467835,1010.9780000000001,0.02055213200398022,3.6395208,0,0
0.02,7.27652,-6.435615,1.8467835,1011.0183,0.05919014017146304,10.481964984,0,0
0.04,7.376883999999999,-6.4785137000000015,1.6526718999999996,1010.98535,0.11381064704328175,20.12976085104,0,0
0.06,7.424674499999999,-6.430848,1.5059046999999999,1011.02875,0.18231783760630327,32.221789640092794,0,0
0.08,7.2669296,-6.426081,1.5769198,1011.0033599999999,0.2626215481467183,46.42991993139551,0,0
0.1,7.2956047,-6.4213142,1.6053258,1010.9783,0.3531067545923655,62.45659802503757,0,0
0.12,7.2812576,-6.459447,1.7662948,1010.9887,0.4523494117264668,80.03248635568954,0,0
0.14,7.3194884999999985,-6.4499135,1.7852318,1011.0137300000001,0.5590255878982908,98.91407376177315,0,0
0.16,7.367278999999999,-6.3450489999999995,1.6147924999999999,1011.0108,0.6717578206739715,118.88139260824623,0,0
0.18,7.3720474000000005,-6.4117809999999995,1.6384634999999999,1010.99585,0.7895403696968192,139.73612758760018,0,0
0.2,7.419842,-6.392714,1.6668695,1010.9982,0.9114196793933756,161.29991487604195,0,0
0.22,7.6301417,-6.2163515,1.5437739,1011.02625,1.0365371597532376,183.4126921305553,0,0
0.24,7.6014547000000015,-6.421313,1.4490851,1011.0012,1.1642596172283797,205.93086074097334,0,0
0.26,7.6301303,-6.244951,1.3780688,1011.0089999999999,1.2936165273468057,228.72619582647118,0,0
0.28,7.692260000000001,-6.1448526,1.4443498,1011.0089999999999,1.423941393600252,251.68437200304183,0,0
0.30000000000000004,7.7155559999999985,-6.235402,1.505842,1010.99396,1.5548251657385428,274.7037309894487,0,0
0.32,7.6055894,-5.9875407,1.5673863000000001,1011.0092,1.6852575225117958,297.6943362782758,0,0
0.34,7.78719,-5.8493094,1.5342425,1010.9862,1.8149330967358916,320.5766858208816,0,0
0.36000000000000004,7.7489357000000005,-5.811177,1.5247723,1011.0042,1.943360269691175,343.28106892777294,0,0
0.38,7.562492,-5.901740599999999,1.4442844,1011.0191,2.0700053994653644,365.74651875288214,0,0
0.4,7.6245975,-6.092402,1.5531727,1010.98114,2.1949974480613257,387.91983485483803,0,0
0.42,7.7201619999999975,-6.106701,1.6573269,1011.0065,2.3182855357959897,409.7552889570491,0,0
0.44,7.806166,-5.9637036,1.6431206000000005,1011.01984,2.4395785578106794,431.2136485855174,0,0
0.46,7.939969500000001,-5.7110753,1.4348041,1010.9917,2.558516694706866,452.261456138324,0,0
0.48,7.978175999999999,-5.830239,1.4537388,1010.9941,2.6751590442649644,472.8707364098861,0,0
0.5,7.9112267,-6.0209,1.5294863,1011.0191,2.7895003319415173,493.0184305667626,0,0
0.52,7.820363,-6.1448293,1.3448402,1010.9842,2.901349972472061,512.6856098937384,0,0
0.54,7.6960570000000015,-6.2115602,1.3827126,1011.0068,3.010491431529757,531.8574858314367,0,0
0.56,7.8537740000000005,-5.9684653,1.3022261999999998,1011.00714,3.1167714954526757,550.5226941649938,0,0
0.5800000000000001,7.906320599999999,-5.968465,1.2406760000000001,1010.9917,3.2202106521719536,568.6729606695309,0,0
0.6,7.7915735,-5.968464,1.6478319,1010.99677,3.32070201756793,586.3029018665295,0,0
0.62,8.216944999999999,-5.7396684,1.5010625,1010.9872,3.4186065491349686,603.409581381478,0,0
0.64,8.078298,-5.6157374,1.2548705,1011.01965,3.51342253981775,619.9924396479133,0,0
0.66,7.9300929999999985,-6.082859,1.4063685,1010.9976,3.6055312022234087,636.0526717894028,0,0
0.68,8.111694,-5.85883,1.0891604,1011.0101300000001,3.6948589894605424,651.5933397591809,0,0
0.7000000000000001,8.1737995,-6.1209903,1.5199884,1010.98425,3.781945853794328,666.6188812541442,0,0
0.72,8.168987,-5.7301316,1.1317643999999998,1010.9872,3.8661533159540022,681.1351756665786,0,0
0.74,8.341014,-5.5013356,0.9802591,1010.9975599999999,3.9475082650648665,695.149277993006,0,0
0.76,7.987276,-5.7730284,1.1791011999999998,1011.0328400000001,4.025812145182308,708.6693196318623,0,0
0.78,7.862985000000001,-5.896959,1.3021943999999999,1011.003,4.1011153325284635,721.7040296732813,0,0
0.8,7.7968473,-5.725382,1.1554991000000001,1011.01074,4.173137520803456,734.2630036230553,0,0
0.8200000000000001,8.035838,-5.7158489999999995,0.9282476999999999,1010.9825400000001,4.242340002626671,746.3563033360324,0,0
0.84,7.734712599999999,-5.6634164,0.8714350000000001,1011.003,4.308222112287363,757.9946710704094,0,0
0.86,7.734712599999999,-5.6634164,0.8714350000000001,1010.9936,4.370933165510473,769.1891289446512,0,0
0.88,7.7299333,-5.6681833,1.2454530000000001,1010.9755,4.430699671517865,779.9509828581308,0,0
0.9,7.682138,-5.7158489999999995,1.0134674000000001,1010.99286,4.487571868506267,790.291907733792,0,0
0.92,7.782514,-5.830246400000001,0.9329825999999999,1010.9932,4.541972984503961,800.2236736060844,0,0
0.94,7.729937,-5.887445,1.1791718,1011.01324,4.594034624021948,809.7582243698603,0,0
0.96,8.045406,-5.6205177000000015,0.99453014,1010.9808,4.6440006903315165,818.9073546970012,0,0
0.98,8.236599,-5.6872497000000015,1.1839063,1011.00635,4.692381294168085,827.6830826371535,0,0
1.0,8.389555,-5.36789,0.2843697,1011.0260599999999,4.7389474461033,836.0973505635782,0,0
1.02,8.093208,-5.7158489999999995,0.9803273000000001,1010.99866,4.783727293690001,844.1618424173382,0,0
1.04,8.198366,-5.7110825,0.7388728,1011.0007300000001,4.826896955510248,851.8882474146184,0,0
1.06,8.083652,-5.5823855,0.5589655,1010.9811,4.868116399199672,859.2880331395224,0,0
1.08,7.7251678,-5.7825809999999995,0.60630965,1010.9685,4.907108729741371,866.3725334867453,0,0
1.1,7.6343520000000025,-6.063807499999999,1.0371405999999999,1010.9866300000001,4.944275088566215,873.1530087409991,0,0
1.12,8.169692999999999,-5.6491175,0.50688744,1011.0065,4.9799872658530715,879.6405092441902,0,0
1.14,8.222271000000001,-5.739682,0.8524991,1010.9864,5.014531432621741,885.8457098955307,0,0
1.16,8.222271000000001,-5.739682,0.8524991,1010.956,5.047919186296174,891.7790222354314,0,0
1.18,8.30831,-5.5823855,0.6867951,1011.00885,5.080101465296322,897.4509243989199,0,0
1.2,8.408686999999999,-5.286859,0.7294049,1010.9816,5.110949510613911,902.8713275827423,0,0
1.22,8.322652,-5.224894,0.78621787,1010.99396,5.14029731809618,908.0500373126703,0,0
1.24,8.532964,-5.224894,0.8004211999999999,1010.9695,5.168586549316194,912.9964552957083,0,0
1.26,8.647680000000001,-5.339291,0.74360836,1010.98175,5.196156259218436,917.7198572864568,0,0
1.28,8.485169,-5.4536885999999996,0.9377191999999999,1010.9868,5.2228658332919995,922.2292162792503,0,0
1.3,8.5090685,-5.386957,0.75307745,1010.9993,5.248654563527812,926.5332581866777,0,0
1.32,8.145246,-5.5251730000000014,0.70568234,1010.99457,5.273055858742667,930.6403703386086,0,0
1.34,8.130897000000001,-5.5680723,0.68674374,1010.97455,5.2961661049785445,934.5586176828357,0,0
1.36,8.149995,-5.620504,0.69621074,1010.9918,5.318147962784359,938.2959404925363,0,0
1.38,8.293368,-5.544238,0.72934973,1010.9870599999999,5.339215654616628,941.8599269574147,0,0
1.4,8.326807,-5.4870386,0.7861607,1010.9925,5.359400875784794,945.2579426607347,0,0
1.42,8.403263,-5.3488083,0.66779876,1010.982,5.378693036435799,948.4970359426096,0,0
1.44,8.159463,-5.5585365,0.54470146,1010.9823,5.3969279401649475,951.5840457170807,0,0
1.46,8.159463,-5.5585365,0.54470146,1011.0048,5.414163006024514,954.525642269222,0,0
1.48,8.121194000000001,-5.696766,0.5257609999999999,1011.0129,5.430548250412822,957.3281911105247,0,0
1.5,8.231109,-5.78733,0.54469675,1010.9923,5.446420425474721,959.997714058702,0,0
1.52,8.379273,-5.7015314,0.6251807,1010.98724,5.461943355603694,962.5400668291002,0,0
1.54,8.288426,-5.45367,0.6251779000000001,1011.00775,5.476659225718149,964.9609733964392,0,0
1.56,8.063755,-5.534701,0.6630513000000001,1011.00494,5.490321124309049,967.2658447191127,0,0
1.58,7.8534235999999975,-5.5966654,0.7198623000000001,1010.99,5.502727223621394,969.4598359788382,0,0
1.6,7.9872380000000005,-5.9922889999999995,0.771939,1010.96783,5.5146951347359625,971.5478754344078,0,0
1.62,8.379161,-5.977989,0.8855628000000001,1011.0082,5.526889794787284,973.5349242657852,0,0
1.64,8.589454,-5.444134,0.70565355,1010.9956,5.538955782242672,975.4255390458336,0,0
1.66,8.823642999999997,-4.9531784000000005,0.69144845,1010.9756,5.55075767917122,977.2240664849195,0,0
1.68,8.799724000000003,-4.681483999999998,0.3742415,1010.9953,5.561934804249339,978.9348217707496,0,0
1.7,8.221347,-5.525164,0.53994375,1010.9853,5.572406606650129,980.5618268629347,0,0
1.72,7.862831,-5.877888,1.2169608,1011.0081,5.582159279412458,982.1090551456826,0,0
1.74,7.862831,-5.877888,1.2169608,1010.9631,5.591241419604298,983.5800606177946,0,0
1.76,7.977525999999999,-5.687226,1.2595687,1010.9703400000001,5.599668660862832,984.9784460587283,0,0
1.78,8.082651,-5.558528400000001,0.956564,1010.9931,5.6074415559120405,986.3077121885264,0,0
1.8,8.068292,-5.568061,0.861874,1010.9978,5.614576839092495,987.571136056937,0,0
1.82,8.111032000000002,-5.6204863,0.82397336,1010.9802,5.621250862416923,988.7717700172597,0,0
1.84,8.163594,-5.587119599999999,0.8239719000000001,1010.9653,5.627543756475755,989.9125468925383,0,0
1.86,8.2496,-5.6347847,0.99914217,1011.0006,5.633713098528576,990.9964543307216,0,0
1.88,8.278249,-5.787314,0.91865444,1010.9527,5.639963345564839,992.0260374275101,0,0
1.9,7.8719199999999985,-5.7682459999999995,1.1553705,1010.98315,5.645607732836535,993.0040226570927,0,0
1.92,7.6806974000000015,-5.6443152,0.97072595,1010.9702,5.650184459957657,993.9328486443867,0,0
1.94,7.632869199999999,-5.753945,0.8381599000000001,1010.9881,5.653831389885082,994.81495819164,0,0
1.96,7.613735,-5.9064746,0.89497143,1010.9831,5.656814584747004,995.652595498103,0,0
1.98,7.953056299999999,-6.097136,1.1316875,1011.0157,5.660047247420862,996.4480389983004,0,0
2.0,8.196794500000001,-5.8921733,0.9328396999999999,1010.98315,5.663598515286917,997.2032192746813,0,0
2.02,8.196794500000001,-5.8921733,0.9328396999999999,1010.9856,5.6674185181364765,997.9201131375023,0,0
2.04,8.273242,-5.7110434,0.84761757,1010.9856599999999,5.671360046349095,998.6005965233957,0,0
2.06,8.234958,-5.649076999999999,0.7671286,1011.0082,5.675243213613638,999.2465390156873,0,0
2.08,8.158451,-5.682442,0.82393867,1010.95557,5.678979144712986,999.8594463134193,0,0
2.1,8.024571,-5.8921695,1.0606548,1010.98315,5.6826450500452985,1000.4410565349672,0,0
2.12,8.0866785,-5.8111367,0.9896359,1010.9631,5.686226193230523,1000.9928466832013,0,0
2.14,8.024526,-5.82067,0.98016566,1010.9856,5.689624922555236,1001.516382370121,0,0
2.16,7.981462,-5.8588014,0.88073903,1011.0082,5.692805437499987,1002.013149046551,0,0
2.18,8.0196705,-5.7825356,0.8333921999999999,1010.9856599999999,5.695744265931762,1002.484393121277,0,0
2.2,8.105691,-5.725336599999999,0.9564853999999999,1010.98065,5.698558139902247,1002.931370910468,0,0
2.22,8.13912,-5.7634682999999995,1.008561,1010.9956699999999,5.7013641064617415,1003.3553519617196,0,0
2.24,8.033935000000001,-5.8016,1.0890431,1010.9831,5.704039530732162,1003.7574415115434,0,0
2.26,7.9717660000000015,-5.8015989999999995,1.0369619,1010.97064,5.706474383439107,1004.1386953523262,0,0
2.28,7.9478216,-5.744399,1.0180203,1010.98065,5.708574318815829,1004.5002022827734,0,0
2.3,7.990825,-5.730099,0.9848779000000001,1010.9881,5.710418660831376,1004.8429862382986,0,0
2.32,8.000354,-5.7300987,0.94226557,1010.9962,5.712037907911926,1005.1680217109426,0,0
2.34,8.006896000000001,-5.787340599999999,0.932958,1010.9784,5.713530762652769,1005.476140416412,0,0
2.36,8.040395,-5.84454,0.9850401,1010.9984,5.715042550239965,1005.7682742390652,0,0
2.38,8.126472,-5.758743,0.9850439000000001,1010.9856599999999,5.716606791061237,1006.045186273501,0,0
2.4,8.164752,-5.701545200000001,0.9708443000000001,1010.99316,5.718205553918369,1006.307678452544,0,0
2.42,8.107434,-5.7635117,1.1270833999999998,1010.9631,5.71984002369877,1006.5563760595171,0,0
2.44,8.140953999999999,-5.706314,1.056073,1010.9602,5.7214724838086735,1006.7919790312242,0,0
2.46,7.9689217,-5.868378599999999,1.18864,1010.95557,5.7230350376963735,1007.0151467445122,0,0
2.48,7.897244500000001,-5.9208117,1.1744386,1010.99316,5.7244724967524645,1007.2266585836933,0,0
2.5,7.921203999999999,-5.89698,0.8288327,1011.0082,5.725731947466437,1007.4271639938923,0,0
2.52,7.8782473,-5.9684795999999976,0.98033917,1010.9632,5.726876062125293,1007.6170603039662,0,0
2.54,7.8782473,-5.9684795999999976,0.98033917,1011.0060000000001,5.727914147033074,1007.7970528664532,0,0
2.56,7.9786835000000025,-5.8922167000000005,0.866719,1010.98315,5.728904782833326,1007.9675642443477,0,0
2.58,7.916587,-5.9112835,0.9661451999999999,1010.9902,5.729789323916961,1008.1291095865753,0,0
2.6,8.012222999999999,-5.863619,0.9850865,1010.9805,5.730681260769062,1008.282116056456,0,0
2.62,8.0983,-5.8159540000000005,0.97562146,1010.9705,5.731660872699847,1008.4269907554393,0,0
2.64,8.036203,-5.8350215,1.0608444,1010.9781,5.732651447751717,1008.5641860327416,0,0
2.66,8.069702000000001,-5.7682905,0.9377537,1010.99316,5.733598057723171,1008.694156086048,0,0
2.68,8.036264,-5.8731550000000015,0.9519588,1010.9781,5.734576238583221,1008.8172198232396,0,0
2.7,7.9932865999999985,-5.873156,0.99457204,1010.9756,5.735515720526537,1008.9337291100585,0,0
2.72,8.098503,-5.796893,1.0371873,1010.9956699999999,5.736510170739428,1009.0440997030953,0,0
2.74,8.127203,-5.7682943,0.9188290000000001,1010.9802,5.737539584646613,1009.1485931201717,0,0
2.76,7.8069954,-6.016156,0.9425048,1010.95245,5.738373065826704,1009.2474173882676,0,0
2.78,7.9839100000000025,-5.830262,0.98985445,1010.9703400000001,5.739101980220758,1009.3409410329594,0,0
2.8,8.003069,-5.801664,0.871498,1010.9828,5.739710059331994,1009.4294892176904,0,0
2.82,7.9243526,-5.8683404999999995,1.0748725000000001,1011.0032,5.7402008211090125,1009.5133957525353,0,0
2.84,7.9243526,-5.8683404999999995,1.0748725000000001,1010.9981,5.740586154547116,1009.5928805020147,0,0
2.86,7.9577613,-5.8492727,1.112743,1010.9725,5.740917766386367,1009.6680798568477,0,0
2.88,8.019847,-5.815906,1.0890663,1010.9823,5.741258211028503,1009.7392571992937,0,0
2.9,7.9958982,-5.792072,0.9896391,1010.99036,5.741514641619832,1009.8066534691612,0,0
2.92,8.029305,-5.773004,1.0133065,1010.9777,5.741733816605499,1009.8704205807272,0,0
2.94,8.067492999999999,-5.7396374,1.0464427,1011.01495,5.74195049832813,1009.9308855064163,0,0
2.96,8.033984,-5.8302,0.98015636,1010.97955,5.742203190066067,1009.9880875069321,0,0
2.98,8.0387125,-5.8016,0.9896206,1010.9878,5.742461976723614,1010.0422301595627,0,0
3.0,8.033857000000001,-5.8158980000000025,0.9612072,1010.97974,5.742728621314155,1010.0934456428528,0,0
3.02,7.9812284,-5.8158965,0.9422649,1010.9619,5.7429093795900465,1010.1418260795737,0,0
3.04,7.9907619999999975,-5.834962,0.946997,1010.9794,5.743053716863247,1010.1875902995737,0,0
3.06,7.9381337,-5.9350586,0.9943363000000002,1010.9895,5.743210442977299,1010.2309144392873,0,0
3.08,8.000169999999999,-5.815892,0.8664982,1010.9666,5.743309685111492,1010.2718441171567,0,0
3.1,8.000169999999999,-5.815892,0.8664982,1010.9591,5.743357777129398,1010.3104837017005,0,0
3.12,7.8949122,-5.9588866,1.0321930000000001,1010.9693599999999,5.743394515775057,1010.3469975932773,0,0
3.14,7.8805475000000005,-5.9588857000000015,1.0274563,1010.97687,5.743396374779456,1010.3815288085386,0,0
3.16,7.928321,-5.8540209999999995,0.9043594000000001,1010.9791,5.743291803359082,1010.4141918466327,0,0
3.18,7.899564999999999,-5.9445834,0.8901493,1010.9689300000001,5.7431552039976905,1010.4450499644447,0,0
3.2,7.99033,-5.8349514000000005,0.9611607,1010.9739,5.743020329977478,1010.4742200574716,0,0
3.22,8.061977,-5.787285,0.88067114,1010.9789400000001,5.742934234227581,1010.5018117434632,0,0
3.24,7.9902296,-5.8540160000000006,1.0605738999999998,1010.9811,5.742888874999305,1010.5279171949287,0,0
3.26,8.009297,-5.8301815999999995,1.022694,1011.0014,5.7428742139586655,1010.5526885099423,0,0
3.28,8.052265,-5.811113400000001,0.91853243,1010.98145,5.742914463947169,1010.5761199852524,0,0
3.3,7.990077,-5.8730774000000014,0.9232621999999999,1010.9882,5.742975461813861,1010.5983075248893,0,0
3.32,8.016009,-5.8731275,0.9045107,1010.9710699999999,5.743094331552242,1010.6192543798227,0,0
3.34,8.044721000000001,-5.820696,0.84770083,1010.98315,5.743237695790191,1010.6390730450751,0,0
3.36,7.977836,-5.849296,0.9139855,1010.97815,5.743337313818038,1010.6578054947294,0,0
3.38,7.9396143,-5.892196,1.0323471,1010.97864,5.7434110629137995,1010.6755124914627,0,0
3.4,8.020905,-5.7968655,0.98500615,1010.98004,5.743470845984625,1010.6922546928073,0,0
3.42,8.011377,-5.873131,0.9660715,1010.98004,5.743591124083017,1010.7080841290212,0,0
3.44,8.049648,-5.773034,1.0560281999999999,1010.9930400000001,5.743725946089227,1010.7230968599954,0,0
3.46,8.02102,-5.7921014,0.90926623,1010.98816,5.743817980803968,1010.7373163363883,0,0
3.48,8.035376,-5.7968683,0.8997989,1010.9776,5.743899955817075,1010.7507456869178,0,0
3.5,8.054511999999999,-5.806401999999999,0.88086283,1011.03033,5.744012902911584,1010.7636183645727,0,0
3.52,7.930286,-5.868369,0.9802898000000001,1011.0051,5.744040198526956,1010.7758619964363,0,0
3.54,8.002016000000001,-5.7873383,0.8856048000000001,1010.98004,5.7439939868681495,1010.7874155103641,0,0
3.56,7.97337,-5.858837,0.90454537,1010.9700300000001,5.743925810412481,1010.7982816074327,0,0
3.58,7.930385,-5.9065037,1.0749868999999999,1011.0051,5.743860903847919,1010.8086274370163,0,0
3.6,7.96386,-5.892204799999999,0.9850348,1010.9847,5.74381771462916,1010.8184028732628,0,0
3.62,7.9973683000000015,-5.8207073,0.9376953000000001,1010.9725300000001,5.7437527391205565,1010.8275953063865,0,0
3.64,7.9926205,-5.8588404999999995,0.9424326999999999,1010.9747,5.743708285021068,1010.8362473171916,0,0
3.66,7.9830947,-5.868375,0.94717014,1010.9847,5.743678843664773,1010.8444266635972,0,0
3.68,8.030925,-5.8493085,0.9092978999999999,1011.0042,5.743712021790017,1010.8522291180924,0,0
3.7,8.0213995,-5.8254766,0.93297297,1011.00226,5.743760005569652,1010.8596634780588,0,0
3.72,8.045331,-5.835011,0.9661168,1010.9917,5.743879118937638,1010.8667078100044,0,0
3.74,8.040585,-5.8064127,0.9282446,1011.0042,5.7440105316910754,1010.8734271535952,0,0
3.76,8.0214815,-5.811179599999999,0.9187773000000001,1010.9789,5.744124261504639,1010.8797440678394,0,0
3.78,8.016751,-5.8016477,0.9566571,1011.0017,5.7442098854889725,1010.8857647346213,0,0
3.8,8.016784,-5.830248,0.9519257,1011.0292,5.744304225052058,1010.8916009627452,0,0
3.82,7.9546633,-5.887446400000001,0.9803335999999999,1011.0065,5.744378040101748,1010.8971714904494,0,0
3.84,8.036081,-5.7873529999999995,0.9661450999999999,1010.99396,5.744444500955902,1010.9024420473635,0,0
3.86,7.973981399999999,-5.858852400000001,0.9614143,1011.0191,5.744486394355057,1010.9075190800819,0,0
3.88,8.074415,-5.8064218,0.9330129999999999,1011.0063,5.7446051218169805,1010.9123607575036,0,0
3.9,8.083992,-5.7778230000000015,0.9046083,1011.0137300000001,5.744767501013687,1010.9170037929466,0,0
3.92,8.007553999999999,-5.8445554,0.9756279,1010.9882,5.744934417358893,1010.9213626854092,0,0
3.94,7.9741526,-5.8922224000000005,1.0229772,1011.0031,5.745117286005588,1010.9255084571221,0,0
3.96,7.98375,-5.835025,1.0229807,1011.0031,5.7452595548893655,1010.9294509905617,0,0
3.98,7.945531,-5.839792,1.0324513000000002,1011.0081,5.745309574245689,1010.9332177495427,0,0
4.0,7.9360094,-5.911291,0.99931383,1010.98785,5.7453429584838975,1010.93674273388,0,0
4.02,7.974305,-5.8969927,0.9661781999999999,1010.9801,5.745400703843798,1010.9400134961987,0,0
4.039999999999999,7.9934616,-5.8493276,0.9519785,1011.0154,5.745450415635643,1010.9431749331972,0,0
4.06,7.9695826,-5.9017599999999995,0.9614491,1010.9951,5.745519264040786,1010.9461553091693,0,0
4.079999999999999,7.950500999999999,-5.9208274,0.9851245999999999,1010.98724,5.745601407665002,1010.9489366742656,0,0
4.1,7.979217999999999,-5.8779297,1.0135345,1010.9995,5.745695847789133,1010.9515763164371,0,0
4.119999999999999,7.9935946,-5.863631,0.98986596,1010.9645,5.745802307735437,1010.9539552295206,0,0
4.14,7.9458164999999985,-5.911297,0.9946021,1010.9992699999999,5.745899083588827,1010.956220370295,0,0
4.159999999999998,7.969773,-5.930364,0.92832565,1011.0296,5.746036971235508,1010.9584860153502,0,0
4.18,8.017609,-5.8779335,0.85257864,1011.0093,5.746211809508941,1010.9606708696657,0,0
4.199999999999998,7.8694729999999975,-6.0018644,1.1224432,1011.00726,5.746382371547271,1010.9627691278081,0,0
4.22,7.931648299999999,-5.8398027,0.9188673,1011.0094,5.746406974234836,1010.9647910198423,0,0
4.239999999999998,8.003364999999999,-5.8445697,0.9141345999999999,1011.0088,5.74642713741479,1010.9667359959726,0,0
4.26,7.993861,-5.8731704,1.0703752,1011.0118,5.7464947374795425,1010.9686168072957,0,0
4.279999999999999,7.9938993,-5.8493385,0.95675296,1011.0143,5.746550914198017,1010.9704431516748,0,0
4.3,7.912661999999999,-5.892238,0.94255143,1011.00354,5.746511459776295,1010.9721760582216,0,0
4.319999999999999,7.8696823,-5.944671,0.9614925999999999,1011.01605,5.7463853814216135,1010.9738652006372,0,0
4.34,7.873542,-6.0161467,0.97561157,1011.01855,5.746281877818616,1010.9755185921533,0,0
4.359999999999999,7.940459,-5.9017496,0.94720525,1011.0006,5.746161109526411,1010.9770698219651,0,0
4.38,7.92134,-5.9637150000000005,0.95667404,1010.9956,5.746072522487693,1010.9785071972676,0,0
4.4,7.9261193,-5.925582,0.9945492,1010.9979,5.745980978256588,1010.9798470761748,0,0
4.42,7.964358,-5.8969827000000015,0.9424708,1011.0082,5.745904763363582,1010.9811330637027,0,0
4.44,7.9930369999999975,-5.9065166,0.92353314,1011.0152,5.745898128288218,1010.9823920032536,0,0
4.46,7.9930369999999975,-5.9446487,0.9377363999999999,1010.9875,5.746002741952674,1010.9835227910286,0,0
4.48,8.088633999999999,-5.8302517,0.9614084,1011.00745,5.746229704379048,1010.9846080930589,0,0
4.5,7.9739175000000015,-5.892217,0.9282676,1010.97974,5.746441292127909,1010.9855495407982,0,0
4.52,7.9070005000000005,-5.949415,1.0134869,1011.01025,5.74661557034351,1010.9864703256736,0,0
4.539999999999999,7.9165600000000005,-5.9017496,1.0087525,1011.01715,5.746711992700955,1010.9873943780168,0,0
4.56,7.7827253,-6.044746,1.0229556999999998,1011.0119,5.746701133811222,1010.9882990909067,0,0
4.579999999999999,7.7827253,-6.05428,1.02769,1011.00684,5.746608634293274,1010.9891652424888,0,0
4.6,7.9261193,-5.925582,0.92353314,1011.0119,5.746497465543138,1010.990012419154,0,0
4.619999999999999,7.9978175,-5.88745,0.87145466,1011.0016,5.746432609683852,1010.9908026997463,0,0
4.64,8.026496,-5.8779163,0.9282676,1010.9966,5.7464557277266275,1010.9915218619583,0,0
4.659999999999998,8.031275,-5.815951999999999,0.97087723,1011.0143400000001,5.746497445848193,1010.9922394589861,0,0
4.68,7.859202400000001,-6.0256805,1.0040181000000001,1011.00385,5.746536108112961,1010.9929153256672,0,0
4.699999999999998,7.844863,-5.968481,1.0845029,1011.0032,5.7464941981254425,1010.9935495462944,0,0
4.72,7.9308996,-5.892217,0.9282676,1010.99365,5.746395731786957,1010.9941103052737,0,0
4.739999999999998,7.9739175000000015,-5.88745,0.97087723,1011.0134,5.746321757641335,1010.9946752348089,0,0
4.76,7.964358,-5.9208164000000005,1.0040181000000001,1011.0034,5.746301710130893,1010.9952058157013,0,0
4.779999999999999,7.9070005000000005,-5.854083999999999,0.9519396000000001,1011.0159,5.7461412061211865,1010.9957491360408,0,0
4.8,7.9356794000000015,-5.9065166,0.98508036,1011.00824,5.7459761818986115,1010.9962741810033,0,0
4.819999999999999,7.9595785,-5.892217,0.9992837,1010.9804,5.7458327630395045,1010.9966809636804,0,0
4.84,7.9361095,-5.9208264,1.022995,1010.9851,5.745710293540764,1010.9969987053847,0,0
4.859999999999999,7.9839160000000025,-5.8683944000000015,0.98512053,1010.9921,5.745613758265308,1010.9972618266153,0,0
4.88,8.017389999999999,-5.8302627000000005,0.96145004,1010.99536,5.7455450214640535,1010.9974874739587,0,0
4.9,7.931371,-5.9398937000000025,1.0135299,1011.0129,5.745503320824213,1010.9977423410452,0,0
4.92,7.960066,-5.9017615,1.0466723,1010.98975,5.745493246861797,1010.9979387691748,0,0
4.94,7.9983130000000005,-5.8779287,0.96618813,1011.0002,5.745528628314888,1010.9981204735013,0,0
4.96,7.9361916,-5.887462599999999,0.92831445,1011.00726,5.7455048700343765,1010.9983139297397,0,0
4.98,7.969675,-5.901763,1.0798177,1011.00964,5.745533948367587,1010.9985256415247,0,0
5.0,7.9696836,-5.868397,1.0135368,1010.9864,5.745554181280994,1010.9986690577484,0,0
5.02,7.979259,-5.863631,0.9614599,1010.98175,5.745565893671049,1010.9987348717157,0,0
5.039999999999999,7.907578999999999,-5.930363,1.051415,1010.9964,5.7455522000242665,1010.9987846193993,0,0
5.06,7.907595599999999,-5.930363,0.9993380999999999,1010.9968,5.745504965744529,1010.9988214318223,0,0
5.079999999999999,7.960198399999999,-5.9398975,0.94726187,1010.9683,5.745516624740316,1010.9987440821252,0,0
5.1,7.9363155,-5.9637303,1.0703578999999999,1011.0066,5.745596148165402,1010.9987040172368,0,0
5.119999999999999,8.046259,-5.8255004999999995,1.0277491,1010.9978,5.745739321595737,1010.9986653614396,0,0
5.14,8.065403,-5.7969017,0.99934494,1010.97815,5.745929735645614,1010.9985573498758,0,0
5.159999999999998,7.9937224,-5.8588676,1.0277528,1010.98584,5.746122518165071,1010.9984161283984,0,0
5.18,8.022409,-5.8731675,1.0419568000000001,1010.96045,5.746385070088405,1010.998154667039,0,0
5.199999999999998,8.022418,-5.8350349999999995,1.0182855,1010.98816,5.746656794449036,1010.9978876589804,0,0
5.22,7.8121314,-5.992332,1.0230222,1011.0082,5.746782961248822,1010.9976888550873,0,0
5.239999999999998,7.917304,-5.9399004,1.0893053999999998,1010.9730000000001,5.7469023925388285,1010.9974243120893,0,0
5.26,8.036807000000001,-5.796903599999999,1.0040869000000001,1010.9673,5.747020643643272,1010.9970821143725,0,0
5.279999999999999,8.017713,-5.8207374000000005,1.0040891,1010.9548300000001,5.747134332525199,1010.9966276408583,0,0
5.3,8.041636,-5.7921385999999995,1.0040914,1010.9702,5.747249014871272,1010.996130928554,0,0
5.319999999999999,8.060763,-5.7969055,0.9378105,1010.9848599999999,5.74738861512961,1010.9956514582193,0,0
5.34,8.027329,-5.8112054,1.0467039,1010.9952,5.7475334894194505,1010.9952261729816,0,0
5.359999999999999,8.079922999999999,-5.739708,1.0135646999999999,1010.9799,5.747677601165183,1010.9947952167232,0,0
5.38,8.075152000000001,-5.7635407,1.0088309000000002,1010.9719,5.747840069907433,1010.9943320009927,0,0
5.4,8.02737,-5.7778405999999976,1.0609110000000002,1010.95917,5.74796635935822,1010.99379612037,0,0
5.42,8.046514,-5.8159738,0.94728756,1010.9867,5.7481146534047305,1010.9932970702182,0,0
5.44,7.9796133000000005,-5.8207407,1.0467116,1010.9717,5.748196399677456,1010.9927783600514,0,0
5.46,7.9844017,-5.7921414,1.0798531999999998,1010.9920699999999,5.748199663191391,1010.9923174776518,0,0
5.48,8.075234,-5.7015769999999995,0.9614944999999999,1010.97156,5.748152012771298,1010.9918355150439,0,0
5.5,8.056124,-5.8112082,0.9614953000000002,1010.98645,5.748159117646378,1010.9913902650294,0,0
5.52,8.0418005,-5.8302755,1.0703881000000002,1010.9789400000001,5.748236711009066,1010.9909520211625,0,0
5.539999999999999,8.099182,-5.7301779999999995,0.9804366,1010.98895,5.748333046984782,1010.9905575816057,0,0
5.56,8.089632,-5.7301779999999995,0.93782777,1010.9791,5.748420946587507,1010.9901678075192,0,0
5.579999999999999,8.075308999999999,-5.7587776,0.9899077,1010.97864,5.748521671333572,1010.9897819030293,0,0
5.6,8.032314999999999,-5.7206454,1.0798638,1010.9765,5.748534700915854,1010.9893931029712,0,0
5.619999999999999,8.022763000000001,-5.7063464999999995,1.0467235000000001,1010.9661,5.748429590529724,1010.9889657040694,0,0
5.64,7.869826299999999,-5.930375,1.0656627,1010.9965,5.7482431725939245,1010.988615177865,0,0
5.6599999999999975,8.056263000000001,-5.777846,0.98518,1010.9661,5.748092076916821,1010.9882243982704,0,0
5.68,8.10407,-5.768313,0.98518085,1010.9511,5.748041728025084,1010.9877454575868,0,0
5.6999999999999975,8.113653999999999,-5.777847,0.9662455,1010.9788,5.748104328923192,1010.9872900619516,0,0
5.72,8.132781,-5.7254148,0.93783987,1010.98584,5.748230494910421,1010.9868824541452,0,0
5.7399999999999975,8.137586,-5.6491504,1.0041238000000001,1010.98584,5.7483435417860385,1010.9865185390526,0,0
5.76,8.061117,-5.7349486,1.0277965,1010.9758,5.748422256341375,1010.986158396936,0,0
5.779999999999999,7.9942160000000015,-5.8207474,1.0846108,1010.98615,5.7484742548744725,1010.985840145133,0,0
5.8,8.032478999999999,-5.7921486,1.0798788000000001,1010.9705,5.748530737282372,1010.9855037133174,0,0
5.819999999999999,7.9988174,-5.78261,1.0372504999999999,1010.95294,5.74851360430421,1010.985089212797,0,0
5.84,8.103981,-5.6777463,0.9804383,1010.9709,5.7484709282787945,1010.9846718789712,0,0
5.859999999999999,8.123104,-5.6872796999999995,0.9757041999999999,1010.97046,5.748448579550604,1010.9842519600383,0,0
5.88,8.080097,-5.763545,1.0088462,1010.9755,5.7484695203452265,1010.9838494126133,0,0
5.9,7.998844,-5.863642,1.0135808000000002,1010.9778,5.748514772779432,1010.9834719438228,0,0
5.92,8.151809,-5.6491475,1.0467228000000002,1010.99005,5.748588570578486,1010.9831620934019,0,0
5.94,8.170937,-5.6968136,1.0372546,1010.9828,5.7487739787008945,1010.9828870060338,0,0
5.96,8.132705,-5.71588,1.1035371,1011.0029,5.749029942913835,1010.9827159856136,0,0
5.98,8.08491,-5.720646,1.0325212,1010.9778,5.749256491165652,1010.9825471744223,0,0
6.0,7.9702034,-5.763546,1.1319445,1010.96515,5.749337568820101,1010.9823353830253,0,0
6.02,7.974990400000001,-5.815978,1.0325226,1010.9571,5.74933891051955,1010.9820573967684,0,0
6.039999999999999,7.970215,-5.882709999999999,1.0325229,1010.9727,5.749343436741122,1010.9817780814833,0,0
6.06,8.12796,-5.6968144999999994,1.032524,1011.0055,5.74939108396281,1010.9816166774037,0,0
6.079999999999999,8.080169999999999,-5.701581,1.0325247,1010.9753,5.749401517841494,1010.9814513207208,0,0
6.1,8.027598,-5.763547,0.980447,1011.0053,5.749353807080028,1010.9813910668009,0,0
6.119999999999999,8.089744,-5.7778462999999975,1.1508862,1010.99005,5.74941437665042,1010.9813689985973,0,0
6.14,8.104091,-5.7015815000000005,1.0419956,1010.9772,5.749478619142996,1010.981334490737,0,0
6.1599999999999975,8.0563,-5.7063484,0.9946523000000002,1010.98956,5.749460759236998,1010.9813336114253,0,0
6.18,8.070647,-5.7444809999999995,1.0751378999999999,1010.9971300000001,5.7494576464291764,1010.9813897014644,0,0
6.1999999999999975,8.051537,-5.754014499999999,1.0419976999999998,1011.0024,5.749439539289257,1010.9815148996976,0,0
6.22,8.113678,-5.739715,0.99465406,1010.9973,5.749485776217855,1010.9816823512172,0,0
6.2399999999999975,8.09457,-5.67775,1.0230615,1010.9820599999999,5.749488589677327,1010.981831670916,0,0
6.26,8.051559,-5.744482,1.0609374,1010.99963,5.749468355785365,1010.9820276837863,0,0
6.279999999999999,8.089805,-5.7111163000000005,1.0277973,1010.97156,5.7494451544634595,1010.9821631970967,0,0
6.3,8.089805,-5.7111163000000005,1.0277973,1010.9967,5.749419414645213,1010.9823352691485,0,0
6.319999999999999,8.080257000000001,-5.763548999999999,1.0656736,1010.9842,5.749446415116173,1010.9824940250445,0,0
6.34,8.076029,-5.7015967000000005,1.051521,1010.98956,5.749435570060165,1010.982659739264,0,0
6.359999999999999,8.095177,-5.677765,0.9947107,1010.99176,5.7493831904721695,1010.9828389252871,0,0
6.38,8.047408,-5.75403,1.0467918,1010.99225,5.749315940769193,1010.9830311339258,0,0
6.4,7.942281200000001,-5.8493624,1.1651546,1010.99457,5.749203075412071,1010.983242509397,0,0
6.42,7.96143,-5.7540317000000005,0.9805155000000001,1010.9593,5.748924601615408,1010.9833430877296,0,0
6.44,8.085749,-5.758799,1.0231291999999998,1010.9842,5.748724360268218,1010.9834350436283,0,0
6.46,8.128797,-5.711135,1.0183975,1010.9992699999999,5.748608710777062,1010.9835733017034,0,0
6.48,8.100131,-5.7349677,0.9852579,1011.0018,5.748541271193978,1010.9837610826524,0,0
6.5,8.095396000000001,-5.7588015,1.0515436000000002,1010.9641,5.748551265214817,1010.9838562260013,0,0
6.52,8.109749,-5.734969,1.0562793,1010.97925,5.748626382078752,1010.9839237122508,0,0
6.539999999999999,8.061981,-5.739736,1.0136724,1010.95374,5.748674745590954,1010.9838746817368,0,0
6.56,8.06201,-5.6968384000000025,0.97579974,1010.9912,5.748640138931424,1010.9838577295204,0,0
6.579999999999999,8.124191,-5.701606,1.013679,1010.9735,5.748651032593346,1010.9838054627157,0,0
6.6,8.124191,-5.701606,1.013679,1010.9787,5.748702091122122,1010.9837409001013,0,0
6.619999999999999,8.152913999999999,-5.6825410000000005,0.9852766,1010.9812,5.748808623625744,1010.9836747053348,0,0
6.64,8.162486999999999,-5.673008,1.0373564,1010.9559300000001,5.7489797332954256,1010.9835163347,0,0
6.6599999999999975,8.100379,-5.692075,1.0420934000000002,1010.9834,5.749125655930931,1010.9833759796021,0,0
6.68,8.100423,-5.754041,0.9616126,1010.9909,5.749306001706414,1010.983279048311,0,0
6.6999999999999975,8.066994000000001,-5.758808599999999,1.0705066,1010.95844,5.749488582698983,1010.9831039792483,0,0
6.72,8.081348,-5.720676,1.0231639000000001,1010.9937,5.749640655523419,1010.9829874338992,0,0
6.7399999999999975,8.076597999999999,-5.701611,0.9805569,1010.9909,5.7497255239587615,1010.9829129396664,0,0
6.76,8.052742,-5.7206779999999995,0.97582644,1010.99316,5.749732260563081,1010.9828840059796,0,0
6.779999999999999,8.009768,-5.7349787,1.0563153,1010.98596,5.7496319075871645,1010.9828695137526,0,0
6.8,8.033682,-5.715913,0.96636295,1011.0037,5.74943555016761,1010.9829316981712,0,0
6.819999999999999,8.038333999999999,-5.758808599999999,0.9805545,1010.98364,5.749217350854407,1010.9829891942101,0,0
6.84,8.062267,-5.773109,0.96162015,1010.9909,5.749034268938275,1010.9830684766107,0,0
6.859999999999999,8.110088000000001,-5.7445107,0.9521533999999999,1010.9809,5.748927252786161,1010.9831307240244,0,0
6.88,8.110088000000001,-5.7445107,0.9521533999999999,1010.9812,5.748887833601278,1010.9831787752324,0,0
6.9,8.105331,-5.7588105,0.99476516,1010.97064,5.748926006050555,1010.9831760936893,0,0
6.92,8.148372,-5.658714,0.97109514,1010.9907,5.748981597555094,1010.9832008103402,0,0
6.94,8.148394999999999,-5.673014,0.9710972999999999,1010.9577,5.7490693072299806,1010.9831308470558,0,0
6.96,8.071953,-5.73498,1.0515853000000002,1010.9602,5.7491464796635485,1010.9829864764482,0,0
6.98,8.081522999999999,-5.7206800000000015,1.0468520000000001,1010.99005,5.749212063844327,1010.9828843392643,0,0
7.0,8.100665,-5.706382,0.9947754999999999,1010.98816,5.749271352866013,1010.9828130832268,0,0
7.02,8.09114,-5.7349815,1.0515916,1010.98773,5.749355029582198,1010.9827678222928,0,0
7.039999999999999,8.105491,-5.7063828,1.0373894000000001,1010.9549,5.749446983049062,1010.9826275055713,0,0
7.06,8.062507,-5.7826486,0.9758453000000001,1010.9647,5.749551898003597,1010.9824389826961,0,0
7.079999999999999,7.9956,-5.844614,1.0563312,1010.9876,5.749648036668514,1010.9822909835457,0,0
7.1,8.110351,-5.6301193,0.85748935,1010.9906,5.749632138221682,1010.9821901239557,0,0
7.119999999999999,8.134260000000001,-5.6730194,0.92850643,1010.9324,5.749621914580388,1010.9819217599755,0,0
7.14,8.0960455,-5.720685,1.0326654,1010.96265,5.749630001724719,1010.9816152552271,0,0
7.1599999999999975,8.072168,-5.768351,1.0137298000000001,1010.9725300000001,5.749667042517557,1010.9813117207125,0,0
7.18,8.110431,-5.720686,0.99479437,1011.0002,5.7497330278628835,1010.9811115154207,0,0
7.1999999999999975,8.062644,-5.739753,0.98059225,1010.9851,5.749763583679607,1010.9809489725693,0,0
7.22,8.077005999999999,-5.7445197,0.9427190999999999,1010.9924,5.749785041795525,1010.9808465734047,0,0
7.2399999999999975,8.067480999999999,-5.7683535,1.0137384,1010.9518400000001,5.749825459684888,1010.9806516698384,0,0
7.26,8.038825,-5.7349877000000005,0.9711306999999999,1010.9572,5.749785317662702,1010.980395027036,0,0
7.2799999999999985,8.057955,-5.7302217,0.95219415,1010.9799,5.749696838451313,1010.9801664753584,0,0
7.3,8.081901,-5.787422,1.0184799999999998,1010.95935,5.749688627567114,1010.9798895877848,0,0
7.3199999999999985,8.081911999999999,-5.8064885,1.0137466,1010.94714,5.749773367891982,1010.9795270314087,0,0
7.34,8.067013000000001,-5.768342,0.9805545,1010.9723,5.74986204288729,1010.9791806592816,0,0
7.3599999999999985,8.095692,-5.68731,0.95214814,1010.9518,5.749899614392147,1010.9787760344967,0,0
7.38,7.9857559999999985,-5.806474,0.9805545,1010.98224,5.749855961400992,1010.9784309783126,0,0
7.399999999999999,7.995315,-5.8255405,0.99949217,1010.9543,5.749783807233211,1010.9780392151466,0,0
7.42,7.971416499999999,-5.811241000000001,1.0373673,1010.9647,5.7496374587913825,1010.9776450320384,0,0
7.439999999999999,8.000095,-5.8446074,0.9379449000000001,1010.9669,5.749494126137723,1010.9772580497287,0,0
7.46,8.004875,-5.887506,0.9805545,1010.9644,5.749422940815916,1010.9768698231807,0,0
7.479999999999999,8.090911,-5.787408999999999,0.99949217,1010.98724,5.749442148003576,1010.9765641188395,0,0
7.5,8.12915,-5.768342,0.94267935,1010.97473,5.749571234227719,1010.976287395656,0,0
7.52,8.095692,-5.787408999999999,0.9237417,1010.95917,5.749759767012101,1010.9759812604266,0,0
7.539999999999999,8.067013000000001,-5.768342,0.9379449000000001,1010.9997599999999,5.749931675510626,1010.9757963628003,0,0
7.56,7.9522967000000016,-5.85414,1.0136955,1010.9721699999999,5.750015888171519,1010.9756199323517,0,0
7.579999999999999,7.9283977,-5.9161053,1.0136955,1010.9544,5.750058899701487,1010.9753876466507,0,0
7.6,8.023994,-5.8398404,0.9000697,1010.97675,5.750108255446165,1010.9751873034774,0,0
7.619999999999999,8.019214999999999,-5.8350735,0.94267935,1010.9693599999999,5.750157427223573,1010.9749893019568,0,0
7.64,8.014435,-5.8350735,0.9284761,1010.97473,5.750195489218828,1010.9748134143264,0,0
7.6599999999999975,8.057452,-5.7731080000000015,0.94267935,1010.9968,5.750223455023023,1010.9747371517244,0,0
7.68,7.9522967000000016,-5.85414,0.99475783,1010.9713,5.750175447146812,1010.974657392343,0,0
7.6999999999999975,7.966636,-5.8684397000000015,0.9805545,1010.9714,5.750098962948841,1010.9745751903412,0,0
7.72,8.009655,-5.820774,0.9190073000000001,1010.98926,5.7499989716550495,1010.9745554219674,0,0
7.7399999999999975,8.009655,-5.816008,0.9758200999999999,1010.98425,5.749884023052224,1010.974572855113,0,0
7.76,8.067013000000001,-5.768342,0.9190073000000001,1010.9812,5.7497836590215385,1010.9746121167619,0,0
7.7799999999999985,8.067013000000001,-5.768342,0.9190073000000001,1010.95636,5.749696543229308,1010.9745811007347,0,0
7.8,8.004875,-5.849373,0.95688254,1010.95636,5.749622883948473,1010.9744880990103,0,0
7.8199999999999985,8.057452,-5.7540426,0.985289,1010.9689,5.749539825466287,1010.9743858055303,0,0
7.84,8.052511,-5.7302055,0.947399,1010.93835,5.749404158455263,1010.9741656901117,0,0
7.8599999999999985,7.990368400000001,-5.868436,0.97580475,1010.9757699999999,5.749291563806949,1010.9739769716432,0,0
7.88,8.009481,-5.773104,0.9568667,1010.961,5.74911188029351,1010.9737635029063,0,0
7.899999999999999,8.019033,-5.835069,0.9568661,1010.9735,5.748964761000257,1010.9735739333203,0,0
7.92,8.095500999999999,-5.7969365,0.87638026,1010.98584,5.7489137115396485,1010.9734505874737,0,0
7.939999999999999,8.124177,-5.79217,0.86217684,1010.9881,5.748987742077014,1010.9733943369692,0,0
7.96,8.095495,-5.796936,0.90952057,1010.94574,5.749138159761965,1010.9732450784101,0,0
7.979999999999999,7.932969,-5.9161,0.8621753000000001,1010.98553,5.749220684885003,1010.9731574192647,0,0
8.0,7.9090669999999985,-5.9256334000000015,0.90005034,1010.9657599999999,5.749222091437218,1010.9730533329347,0,0
8.02,7.913842999999999,-5.9160995000000005,0.8811124,1010.9881,5.749144373620153,1010.9730155302552,0,0
8.04,8.052445,-5.8636675,0.85743916,1010.99054,5.7491592003535725,1010.9730452158984,0,0
8.059999999999999,8.052445,-5.8636675,0.85743916,1011.0003,5.749255746075562,1010.9731695633556,0,0
8.08,8.047659,-5.8255343,0.85743856,1010.9881,5.749369737670633,1010.9733331863408,0,0
8.1,7.8946958,-5.987598,0.8290313,1010.9858,5.749439033761057,1010.9735226441394,0,0
8.12,7.9568270000000005,-5.8493676,0.8432339,1011.008,5.749402887128882,1010.9738141675316,0,0
8.139999999999999,7.995058999999999,-5.8112345,0.84796774,1010.9775400000001,5.749291856141302,1010.9740851705977,0,0
8.16,7.980716,-5.8779664,0.89531153,1011.0052,5.7491813086624255,1010.9744366422926,0,0
8.18,7.9568114,-5.9065660000000015,0.918983,1010.9851,5.749071481929178,1010.97478559077,0,0
8.2,8.028501499999999,-5.8303002999999975,0.87637275,1010.96246,5.748980887594051,1010.9750495495178,0,0
8.219999999999999,8.009377,-5.7778683,0.8527001000000001,1011.0175,5.748807600006135,1010.9754356050893,0,0
8.24,7.956795,-5.8303002999999975,0.8905752,1010.9523300000001,5.748544576805316,1010.9756935436136,0,0
8.26,7.952006,-5.9732970000000005,0.81955814,1010.97705,5.748358986613764,1010.975926341337,0,0
8.28,7.985455,-5.9160976,0.8432293,1011.0123,5.748231274547771,1010.9762629865763,0,0
8.299999999999999,8.052366000000001,-5.8112335,0.83849436,1011.00714,5.7481380024028805,1010.9766716035583,0,0
8.32,8.085821000000001,-5.8017005999999975,0.8905725,1011.0098,5.748129574069635,1010.9771519197508,0,0
8.34,8.014984,-5.7826552000000015,0.94746405,1010.9723,5.748065032301528,1010.9775588602273,0,0
8.36,7.909870599999999,-5.8493876,0.94273347,1010.9823,5.747856025075866,1010.9779355009357,0,0
8.379999999999999,7.905104,-5.9351864,0.89539075,1011.0173300000001,5.747609172498404,1010.978410120862,0,0
8.4,7.96727,-5.9494867,0.9237996999999999,1010.9917,5.747455899530944,1010.9788773385941,0,0
8.42,7.9816512999999985,-5.901821599999999,0.70128655,1011.00684,5.7473131910956,1010.9793908377627,0,0
8.44,7.895629,-5.973321,0.72969425,1010.9669,5.747130553556769,1010.9797995986123,0,0
8.459999999999999,7.933895,-6.011453599999999,0.8717289,1011.0067,5.747047914658268,1010.9802576211445,0,0
8.48,7.9817348,-5.9113574,0.8812015,1011.00684,5.74701068135206,1010.9807580264172,0,0
8.5,7.876593,-5.982856,0.8480620000000001,1010.9764,5.746922384854736,1010.9811844956214,0,0
8.52,7.8144839999999975,-6.0305222999999994,0.81965816,1011.0067,5.746742199945091,1010.981653179626,0,0
8.54,7.871869,-6.0305230000000005,0.8528015,1010.9760000000001,5.746581491503613,1010.9820469573656,0,0
8.559999999999999,7.938814,-6.006691,0.8149288,1010.9830300000001,5.7465124079498375,1010.9823984383299,0,0
8.58,7.9818606,-5.92566,0.7723217,1010.9602699999999,5.746488170419704,1010.982629344532,0,0
8.6,7.881512599999999,-5.9399605000000015,0.81966835,1011.0003,5.746362796447087,1010.9828969876116,0,0
8.62,7.833742,-5.973326999999999,0.95696867,1011.0083,5.74613703772905,1010.9832249278817,0,0
8.639999999999999,7.8958936,-5.901829,0.9238290000000001,1010.9602699999999,5.745830345962876,1010.9834320581638,0,0
8.66,7.900715400000001,-5.968561599999999,0.9759113000000001,1010.98035,5.745554521416889,1010.9836039830716,0,0
8.68,7.9294076,-5.91613,1.0232568000000002,1011.0006,5.74529920418961,1010.9838170815813,0,0
8.7,7.91511,-5.9065980000000025,0.86702514,1010.9753,5.74499651688666,1010.9839747139307,0,0
8.719999999999999,7.843441499999999,-5.9685635999999995,0.8717620999999999,1010.9951,5.744612634366317,1010.9841540489044,0,0
8.74,7.9773039999999975,-5.9018326,0.8007485,1010.9927,5.744284763182512,1010.984343274711,0,0
8.76,7.939093,-5.8923005999999996,0.9096424000000001,1010.9826,5.7439517083572325,1010.9845041988448,0,0
8.78,7.9438868000000005,-5.9018334999999995,0.9380501,1011.0127,5.743640488947644,1010.9847478962936,0,0
8.799999999999997,8.006052,-5.8875345999999995,0.8954431,1011.00775,5.7434274051893475,1010.9850460349327,0,0
8.82,8.02042,-5.863703,0.89544564,1011.03015,5.743296616102367,1010.9854718445083,0,0
8.84,7.957477000000001,-5.930414,0.82909024,1011.0123,5.7432042586135985,1010.9859446712096,0,0
8.86,7.9622517,-5.973314,0.7533393,1011.0024,5.743194847509722,1010.9864217000661,0,0
8.879999999999997,7.885772,-6.0209790000000005,0.7959487,1010.97705,5.7431988831026795,1010.9868094646432,0,0
8.9,7.8570886,-6.0209790000000005,0.88116753,1011.0146,5.7431825360342,1010.9872521393512,0,0
8.92,7.9861355,-5.901815,0.81015074,1011.0042,5.743200837330253,1010.9877042990213,0,0
8.94,7.938335,-5.9494805,0.89063543,1011.0091,5.743243490001683,1010.9881808518297,0,0
8.959999999999997,7.971786,-5.911348,0.77700907,1011.0121,5.74329607139564,1010.9886880428243,0,0
8.98,7.947884599999999,-5.920881,0.7533367,1011.0091,5.743325482980447,1010.9892096798328,0,0
9.0,7.857063,-5.968546,0.8385556000000001,1011.0091,5.743257527235746,1010.9897422034463,0,0
9.02,7.923975,-5.8970480000000025,0.8811646999999999,1010.9912,5.74313323538167,1010.9902179893788,0,0
9.04,7.9191904000000015,-5.9447136,0.87169546,1011.0012,5.74300902139421,1010.9906779290668,0,0
9.06,7.9144053,-5.9351797,0.9048358,1011.0110000000001,5.742871712088659,1010.9911574912306,0,0
9.08,8.062574,-5.8017163,0.8148816999999999,1010.9811,5.742790811936353,1010.99154502539,0,0
9.1,7.971753,-5.8684483,0.7675371999999999,1011.0316,5.7426814417730805,1010.9920316484821,0,0
9.12,7.9096103000000015,-5.949479,0.829084,1011.0085,5.742554527222255,1010.9925209147116,0,0
9.14,7.8952656,-5.92088,0.84802115,1010.98914,5.742356571094588,1010.9929410590587,0,0
9.16,7.947839,-5.9018135,0.87169266,1010.99817,5.742164453318912,1010.9933311227916,0,0
9.18,7.9430537,-5.892280599999999,0.85275453,1011.00354,5.7419550483310315,1010.9937125350638,0,0
9.2,7.9860697,-5.8589144,0.85748875,1011.0085,5.74176263225764,1010.9941027858213,0,0
9.22,7.885686,-5.9208794000000005,0.8669568999999999,1010.9730000000001,5.741497191364681,1010.9943716413617,0,0
9.24,7.9048,-5.911346,0.90009725,1010.99316,5.74119415629109,1010.994604840208,0,0
9.26,7.986054400000001,-5.8493805,0.8858938000000001,1011.008,5.74091522940768,1010.9948591172839,0,0
9.28,8.038624,-5.8493805,0.9474404000000001,1011.013,5.7407582530605135,1010.9951491036862,0,0
9.3,8.000383,-5.844614,0.93323696,1011.02075,5.740637064063502,1010.995497498898,0,0
9.32,8.014717999999998,-5.825547,0.8385484000000001,1011.0028,5.740531144110682,1010.9958316299108,0,0
9.34,7.9441814,-5.959039700000001,0.9049363000000001,1011.0077,5.7404978765276375,1010.9961695942064,0,0
9.36,7.9442020000000015,-5.9828725,0.8812661,1011.0255,5.740554197584879,1010.9965738089186,0,0
9.38,7.839127,-5.9876413,0.8623359,1011.01025,5.740518655246532,1010.9969802073264,0,0
9.4,7.8726062999999975,-5.9447436,0.8339314,1011.0252,5.740398497917722,1010.9974408922127,0,0
9.42,7.977823,-5.9304447,0.9049530000000001,1010.98975,5.740373511891341,1010.9978202661667,0,0
9.44,8.011322,-5.844648,0.9617696,1010.9997599999999,5.740394299222789,1010.998162464034,0,0
9.46,8.011322,-5.844648,0.9617696,1010.99725,5.740455457058822,1010.9984615451992,0,0
9.48,8.054381,-5.7826834000000025,0.88128847,1011.0169,5.740533591319744,1010.998792191754,0,0
9.5,7.977945,-5.8589497,0.90022975,1010.98596,5.7405946997108614,1010.9990381551596,0,0
9.52,8.011464,-5.844651,0.92390734,1011.0119,5.740683556455903,1010.9993017910659,0,0
9.54,8.006705,-5.8303523,0.933378,1011.0241,5.7407730609191425,1010.9996240133052,0,0
9.56,7.935048599999999,-5.906618,0.9475849000000001,1011.0039999999999,5.740839771185372,1010.9999244824278,0,0
9.58,7.982887299999999,-5.8875527000000005,0.97126067,1011.02655,5.740946882103869,1011.0002858288077,0,0
9.6,7.954269,-5.868488,0.9286565999999999,1011.00635,5.741009785247711,1011.0006269454857,0,0
9.62,7.93041,-5.830357,0.9333947,1011.01904,5.7409477819905845,1011.0009946431783,0,0
9.64,7.9065312999999975,-5.892322,0.99020946,1011.0089999999999,5.7408236680186375,1011.001348360144,0,0
9.66,7.9639297000000004,-5.916156299999999,0.9428690999999999,1010.9964,5.74076024023803,1011.0016430903582,0,0
9.68,7.98309,-5.8970910000000005,0.9902168,1011.01624,5.740768576503321,1011.0019560628504,0,0
9.7,7.992669999999999,-5.906625,0.99495316,1011.0009,5.740868924910997,1011.0022288035182,0,0
9.72,8.021410000000001,-5.820828,0.9334114,1011.0236,5.7409809473684055,1011.0025467334796,0,0
9.74,8.016689999999999,-5.878028,0.9476203000000001,1011.0110000000001,5.7411675272576055,1011.0028580881531,0,0
9.76,8.01671,-5.8827953,0.96655965,1011.03076,5.741428953416138,1011.003233648025,0,0
9.78,8.021550999999999,-5.916162,0.9618309000000002,1011.0335,5.741803597720177,1011.0036744515953,0,0
9.8,8.021550999999999,-5.916162,0.9618309000000002,1011.01624,5.742276932858094,1011.0041091816037,0,0
9.82,7.9738145000000005,-5.806533,0.80086666,1010.99786,5.742592276713053,1011.0044708119856,0,0
9.84,7.996212,-5.839862999999999,0.8717454,1011.0132,5.742857457850152,1011.004821773668,0,0
9.86,7.8145394,-5.9780917,1.1084618999999998,1011.01825,5.74299669375923,1011.0051802250251,0,0
9.88,7.8718767000000005,-5.930425,0.9380215000000001,1011.033,5.74302235604221,1011.0055971038344,0,0
9.9,7.8718767000000005,-5.930425,0.9380215000000001,1011.02795,5.742947572284949,1011.0060459283764,0,0
9.92,8.000900999999999,-5.8684597,1.0374413,1011.0029,5.742942540480793,1011.0064311843996,0,0
9.94,8.01044,-5.7540617,0.904876,1011.03,5.742849204006017,1011.0068564443576,0,0
9.96,7.828778,-5.9733230000000015,1.0847806,1011.03546,5.74268362526095,1011.0073351768569,0,0
9.98,7.867006,-5.939956,1.1084517,1011.00995,5.742481481017102,1011.0077675982567,0,0
10.0,7.9673715,-5.863691,1.0611066999999998,1011.0043,5.742309087216077,1011.008137202452,0,0
10.02,8.043828,-5.8017254000000005,0.98535436,1011.0350300000001,5.742199740096642,1011.0085605987899,0,0
10.04,7.9816600000000015,-5.9113555,0.9522108,1011.0074,5.7421697981727995,1011.0089305336382,0,0
10.06,8.058117,-5.8636894,0.88592726,1011.0071,5.7422666303769425,1011.0092508181496,0,0
10.08,8.053316,-5.873222,0.9143318000000001,1011.0095,5.7424840280716465,1011.0095347185983,0,0
10.1,8.010288000000001,-5.8779879999999975,0.9237996999999999,1011.0171,5.742742934360173,1011.0098128080476,0,0
10.12,7.9242215,-5.9304190000000006,1.0184851000000001,1011.0166,5.74297830378015,1011.010082961776,0,0
10.14,7.9624395,-5.9065866,0.95693594,1010.9991,5.743213269133898,1011.0102821309483,0,0
10.16,8.053236,-5.8875194,0.99954367,1010.9886,5.743583542097304,1011.0103800611574,0,0
10.18,7.986308599999999,-5.911352,1.0421523000000001,1011.0115400000001,5.743998803537308,1011.0104707680699,0,0
10.2,7.943269,-5.854153,0.8764463,1010.9965,5.744277191609174,1011.0105006219327,0,0
10.22,8.081863,-5.7397550000000015,0.8338349,1010.99615,5.74451966713339,1011.0104753385672,0,0
10.24,7.790265,-6.0495806,1.0705523000000001,1010.9906599999999,5.7446746346209405,1011.0103816629663,0,0
10.26,7.8858504,-5.978082,1.1320987,1010.9959,5.744832639301229,1011.010246757219,0,0
10.28,8.010096,-5.782652400000001,0.99006367,1010.9880400000001,5.744927463701007,1011.0100476101744,0,0
10.3,8.010096,-5.782652400000001,0.99006367,1010.99835,5.7449661206370894,1011.0098295324492,0,0
10.32,8.072202,-5.816018,1.0468737,1010.9934,5.745111576776723,1011.0095776926546,0,0
10.34,8.145294999999999,-5.711188,0.92864144,1010.99316,5.7453242062401735,1011.0092960633183,0,0
10.36,8.197891,-5.6730556,0.9807215,1010.98785,5.7456499515742525,1011.008970009809,0,0
10.38,8.28876,-5.601558,1.0043983,1011.0029,5.746150999526296,1011.0086600568927,0,0
10.4,7.844274499999999,-5.8923190000000005,0.9333855999999999,1011.0258,5.7463910519415595,1011.0084478862912,0,0
10.42,8.269694,-5.7493234000000015,0.9475905000000001,1011.0204,5.746942587838197,1011.0083034399568,0,0
10.44,7.9829774,-5.6396937000000005,1.1843171000000001,1011.0257,5.7472047157094215,1011.008238434792,0,0
10.46,8.35104,-5.3155684,1.5962120000000002,1010.9873,5.747587361460353,1011.0081056178633,0,0
10.48,8.17902,-5.401368,1.0186195,1011.0175,5.747716089032679,1011.0080220806004,0,0
10.5,8.389349000000001,-5.17734,1.14645,1010.977,5.74776623005316,1011.0078365875853,0,0
10.52,8.370266,-5.3918357000000015,1.7524571,1011.0023,5.7481310200766345,1011.0076527542412,0,0
10.54,8.116972,-5.263139700000001,1.8518828,1011.01996,5.748232162387082,1011.0075346251834,0,0
10.56,8.155228,-5.1010776,1.8471501000000001,1010.992,5.747986280549686,1011.0073743216973,0,0
10.58,7.806338,-5.2583747,1.9276381999999999,1011.0097,5.747045206927747,1011.0072410499788,0,0
10.6,7.9593089999999975,-5.2154765,2.046,1011.0096,5.745754679174173,1011.0071317833084,0,0
10.62,7.8924445999999975,-5.129679,1.7998157,1011.002,5.7438485992632025,1011.0070167608586,0,0
10.64,8.179267999999999,-5.1153803,2.1785715,1011.0044,5.742042680720512,1011.0069057066827,0,0
10.66,8.52823,-4.915186,2.3442790000000002,1011.0094,5.740806664659418,1011.0068165586688,0,0
10.68,8.504367,-4.8770546999999995,2.3442822,1010.9941,5.73999841886666,1011.0066920078727,0,0
10.7,8.3944845,-4.943787599999999,2.590476,1011.0091,5.739572441231259,1011.0065906235608,0,0
10.72,8.3993,-5.0629525,3.149139,1011.01404,5.739942622952838,1011.0065278581379,0,0
10.74,8.53317,-4.910423799999999,3.0497197999999996,1010.9865,5.741027993542562,1011.0064002983212,0,0
10.76,8.399353,-4.996222,2.9550332999999998,1011.0039999999999,5.742540360486584,1011.0062789453928,0,0
10.78,8.528443,-4.7626615,3.0639277000000003,1011.00104,5.7444816376969765,1011.006152857742,0,0
10.8,8.107856,-5.1821194,3.0923374,1010.9861,5.746524108437077,1011.0059692564059,0,0
10.82,8.174808500000001,-4.705465,2.5668217999999996,1010.9984,5.747959032376503,1011.0057797769424,0,0
10.84,7.801603,-5.062947,2.8461168,1010.99585,5.7487497903541245,1011.0055766056912,0,0
10.86,7.9498053,-5.096314,3.0354955,1010.98334,5.7493692060516,1011.0053170317933,0,0
10.88,7.9498053,-5.096314,3.0354955,1011.0158,5.749834993813827,1011.0051254109828,0,0
10.9,7.945053999999999,-4.9485507,3.1917334,1010.9930400000001,5.750101781239198,1011.0049125873547,0,0
10.92,8.074128,-5.024816,3.115985,1010.99896,5.750437307408607,1011.0047031070828,0,0
10.94,8.007228999999999,-5.139214,3.4994733,1011.0109,5.751103078158738,1011.004540319129,0,0
10.96,8.021597,-4.967619,2.831925,1010.9881,5.751462391334001,1011.004337294544,0,0
10.98,8.155451,-4.943786599999998,3.1917412,1010.9881,5.751977322691221,1011.0040994477603,0,0
11.0,8.17458,-4.972386,3.1159917999999998,1011.0108,5.752640111824876,1011.0039134083304,0,0
11.02,8.040764,-5.0724845,3.0923216,1011.0006,5.753295290476534,1011.00373709562,0,0
11.04,8.002555000000001,-5.1106169999999995,2.9881672999999997,1010.9954,5.753852003640209,1011.0035512921652,0,0
11.06,8.107719,-5.0391192,2.7893228999999997,1011.0133,5.754300878262496,1011.0034222115803,0,0
11.08,7.849629400000001,-5.148751,2.6472926,1011.0473599999999,5.754254685546508,1011.003466332014,0,0
11.1,8.255932000000001,-4.6387296,2.7751234,1011.045,5.7540090279920975,1011.0036548380341,0,0
11.12,7.3286777,-5.5682089999999995,2.7703915,1010.93207,5.753055590474996,1011.0035636965364,0,0
11.14,7.3286777,-5.5682089999999995,2.7703915,1010.9724,5.751480190957924,1011.0033709746015,0,0
11.16,9.020757000000001,-5.2917495,3.9587296999999997,1010.9799,5.7526252201419785,1011.003116189991,0,0
11.18,9.493978,-4.6673307,4.3090777000000005,1011.0646,5.756670032953696,1011.0031124040254,0,0
11.2,7.5533853,-3.7616851000000002,1.1606992,1011.0296599999999,5.757223713893339,1011.0032046300915,0,0
11.22,7.859311999999999,-4.929492,3.2343702000000003,1010.9473,5.757407735623606,1011.0030848643756,0,0
11.24,7.672919,-5.2011867,3.5326394999999997,1010.95935,5.757461915332488,1011.002821593877,0,0
11.26,7.5821223,-5.105855,2.6094325,1010.9894400000001,5.756541151213497,1011.0025407943264,0,0
11.28,8.595460000000001,-4.8675284,3.7314879999999997,1010.9844400000001,5.7569511040351165,1011.0022275169839,0,0
11.3,7.892856,-4.738832,3.2485812000000003,1010.9794,5.756879351126374,1011.0018685260633,0,0
11.32,8.017141,-4.996226,3.8971956,1010.9993,5.7573306717996875,1011.0015420749916,0,0
11.34,7.7829494000000015,-5.0867915,3.508976,1011.00635,5.7576586898033515,1011.0012709313547,0,0
11.36,7.8929133,-4.9199624,3.5326507000000005,1010.9914,5.757899681480424,1011.0009958134847,0,0
11.38,7.6587130000000005,-4.953328599999999,3.2249155,1011.0244,5.757491767843763,1011.0008369744058,0,0
11.4,8.227528999999999,-4.624437,3.5942006,1011.01385,5.757395372901473,1011.000743471088,0,0
11.42,7.8451633,-4.9962279999999994,3.5326552,1011.0139999999999,5.757262802916478,1011.0007085750605,0,0
11.44,7.955136299999999,-4.9485636,3.5894712999999996,1011.00146,5.757272270498673,1011.0006804460602,0,0
11.46,7.955136299999999,-4.9485636,3.5894712999999996,1010.96826,5.757407208391943,1011.0005388776697,0,0
11.48,7.826100999999999,-4.910432,3.5184572,1010.9909,5.7573481476688215,1011.0003790878804,0,0
11.5,7.7448726,-4.9342656,3.5658038,1010.99896,5.7570447210205,1011.0002327889064,0,0
11.52,7.754442,-4.9676313,3.5089917,1010.9907,5.756534561985767,1011.0000692010924,0,0
11.54,8.2898,-4.653039499999998,3.736245,1010.9808,5.756590199740793,1010.9998552857763,0,0
11.56,8.012589,-4.691172,3.4995267,1011.0237400000001,5.756539098277455,1010.9997522551744,0,0
11.58,8.117774,-4.700705999999999,4.0203133,1010.9827,5.756982705936915,1010.9995998292158,0,0
11.6,8.093884,-4.8484697,3.9492983999999995,1010.9952,5.757908403528882,1010.9994493062532,0,0
11.62,7.658950999999999,-5.1296973,3.6368303,1010.9952,5.7585945636924585,1010.9993010066612,0,0
11.64,7.7258773000000005,-5.001,3.5752839999999995,1011.0087,5.758991160318015,1010.9992038055177,0,0
11.66,7.922067,-4.6768800000000015,3.7220705,1010.9977,5.759235911882015,1010.9991125048876,0,0
11.68,7.8790727,-5.0439057,3.598978,1010.9753,5.759552675303769,1010.9989461066333,0,0
11.7,8.012931,-4.7197795,3.5847769,1011.0177,5.759813459894918,1010.9988665911516,0,0
11.72,7.898239599999999,-4.934275,3.878312,1010.9928,5.760276365312612,1010.998774491544,0,0
11.74,7.831346000000001,-5.0248404,3.7504857000000014,1011.0003,5.760799940880281,1010.9986986041612,0,0
11.76,7.8409295,-4.9771757,3.5232365,1010.9977,5.7611691666139855,1010.9986279550943,0,0
11.78,7.611511,-5.115406,3.6605352999999994,1011.00256,5.761278573294054,1010.998579684941,0,0
11.8,7.8935432,-4.6721167999999995,3.5847870000000004,1010.9702,5.761103778869376,1010.9984348665677,0,0
11.82,7.5494330000000005,-5.0820413,3.6321342000000003,1010.9927,5.760575462061549,1010.9982862595332,0,0
11.84,7.358252499999999,-5.1297073,3.523244,1010.9875,5.759400617807528,1010.9981161198233,0,0
11.86,8.710973,-4.619687,3.8877964,1011.0052,5.759658165354005,1010.9979912863442,0,0
11.88,7.1910195,-4.6292205,3.1918411,1010.99786,5.758124057177839,1010.9978805108515,0,0
11.9,7.5925345,-4.767451,3.5327193999999995,1010.94495,5.756067622252217,1010.9975920797867,0,0
11.92,7.487403,-5.1011105,3.9682867999999996,1010.975,5.754086555086165,1010.9972558906109,0,0
11.94,8.16617,-4.59109,3.7031631000000003,1010.9725,5.752559002333809,1010.9968697126486,0,0
11.96,7.965455,-4.838952,3.9635587,1010.9897,5.751550424412074,1010.9965026748358,0,0
11.98,7.6165410000000024,-4.7817535000000015,3.4569786,1010.99963,5.74997902430627,1010.9961896185949,0,0
12.0,7.9415917,-4.7245550000000005,3.8452019999999996,1010.99255,5.748693490030812,1010.9958998994737,0,0
12.02,7.898597200000001,-4.6625905,3.8404697999999997,1010.9852,5.747529848683404,1010.9956053840199,0,0
12.04,7.9273,-4.6149254,3.6368926,1010.977,5.746319661637712,1010.9952781707826,0,0
12.06,7.912985000000001,-4.6149260000000005,3.7173797999999993,1010.9975599999999,5.745111127543469,1010.9949972597512,1,1
12.08,7.9799137,-4.6530585,3.930429,1011.0028,5.744226197625218,1010.9947771366287,1,1
12.1,7.6883698,-4.7865233,3.5374756,1010.99005,5.742973811265958,1010.9945656181461,1,1
12.12,7.917824,-4.7102585,3.5895562000000005,1010.9671,5.741743356463918,1010.9942798441894,1,1
12.14,8.300232000000001,-4.5529633,4.134015,1010.98004,5.741456805649746,1010.993976070882,1,1
12.16,7.787995,-4.5767760000000015,3.1491857000000003,1010.9702,5.7404178740440175,1010.9936220629324,1,1
12.18,8.108233,-4.6053752999999995,3.7220477999999995,1010.99005,5.7397026316583135,1010.9932964020816,1,1
12.2,7.7927575,-4.724539,3.546874,1010.99506,5.738732963891169,1010.9930149971063,1,1
12.22,7.7688494000000015,-4.8675356,3.485326,1010.9928,5.737602119084926,1010.9927655736806,1,1
12.24,7.701924000000001,-4.8294024,3.2533395,1010.9903,5.7360159337370105,1010.9925363070764,1,1
12.26,7.4677043,-5.091563,3.3006824999999997,1010.9927,5.733963916622073,1010.9923343163994,1,1
12.28,8.06039,-5.1821275,3.5752773,1010.98285,5.7327664704975465,1010.9921216938983,1,1
12.3,7.6923323,-4.7054715,2.6568017000000004,1010.98773,5.730609311255723,1010.991918010558,1,1
12.32,7.5680494000000005,-4.7102379999999995,3.0544906000000003,1010.9903,5.727658245898937,1010.9917322111206,1,1
12.34,7.5680494000000005,-4.7102379999999995,3.0544906000000003,1010.9783,5.724016308934253,1010.9915196827777,1,1
12.36,7.7544520000000015,-5.010530999999999,2.89352,1011.0058,5.720301350585939,1010.9913833018761,1,1
12.38,8.786881,-4.390878,2.339594,1010.9707599999999,5.717413325854842,1010.9911885518244,1,1
12.4,9.900567,-4.843701,3.4095688,1010.9808,5.7182584749536165,1010.9909790718924,1,1
12.42,11.042931,-3.1897054,3.0876281000000003,1010.99835,5.723157045333476,1010.9908205107657,1,1
12.44,13.863002,-1.5595427,3.916148,1011.0107,5.736998318815915,1010.990751972315,1,1
12.46,14.321854,-1.4356118,2.150214,1010.9903,5.758823837439313,1010.99068978464,1,1
12.48,13.753044000000001,-2.7654810000000003,2.9976711,1010.99817,5.7871927030011605,1010.9906617643853,1,1
12.5,12.749281,-3.3613004999999996,2.3585265,1010.9778,5.819264904294911,1010.9905907033368,1,1
12.52,10.588796,-3.6234605,2.7514806,1011.0108,5.850608547718822,1010.9906006672622,1,1
12.54,8.342279,-3.9761858,2.2306952,1010.9932,5.8770011597234815,1010.9906188289847,1,1
12.56,6.3777714,-4.314611,1.0612966000000001,1011.0037,5.89532016515,1010.990681968898,1,1
12.58,5.4696035000000025,-4.3193779999999995,0.71568465,1010.9733,5.90484564396125,1010.9906751842377,1,1
12.6,4.743069599999999,-4.4766736,0.6257305000000001,1010.98834,5.905623012846958,1010.9906607826483,1,1
12.62,4.116902,-5.258389,0.25171134,1010.9837,5.898940071024589,1010.9906229985868,1,1
12.64,3.7249489999999996,-6.1831007000000024,0.45528996,1010.9812,5.8868319135417,1010.9905556897947,1,1
12.66,3.9212017,-7.069687400000001,0.43637803,1010.9712,5.871767964854184,1010.9904265352627,1,1
12.68,5.431622,-7.8943014000000025,-0.41108018,1010.9814,5.857254071316452,1010.9902799187918,1,1
12.7,8.873085000000003,-9.991586999999999,-1.0691621,1010.98895,5.851206221060375,1010.99014558077,1,1
12.72,9.317608,-10.873401,-0.27851638,1010.9963,5.854566191854371,1010.9900490356033,1,1
12.74,11.353806500000001,-9.662694,2.0602798,1010.9862,5.86774076157743,1010.989949871766,1,1
12.76,12.190275,-9.17174,0.9334916999999999,1011.00385,5.890024759279315,1010.9899122910608,1,1
12.78,14.188236999999999,-10.034486,1.1844155,1010.97144,5.924714224940531,1010.9898125845018,1,1
12.8,14.326853,-9.023976,1.5442301999999999,1011.01385,5.969375317574004,1010.9898110184821,1,1
12.82,12.324119,-6.731261999999999,3.1870692000000003,1010.9993,6.017277311273034,1010.9898437950806,1,1
12.84,11.774444,-4.6721096,3.5658216,1010.9894400000001,6.0652935153132725,1010.9898713028207,1,1
12.86,11.726647,-3.2135432,3.0024278,1010.9894400000001,6.1119166454505836,1010.9898940559697,1,1
12.88,10.01548,-2.107702,1.6862633000000002,1010.9996,6.152669478540371,1010.9899491020507,1,1
12.9,8.949586,-1.5309486,2.0934227,1010.9870599999999,6.185895745867492,1010.9899873400003,1,1
12.92,9.14078,-1.3974853,2.2827990000000002,1010.96185,6.212781759278898,1010.9899198326286,1,1
12.94,9.303295,-1.6882453000000002,1.8945778999999998,1010.99695,6.234215196944781,1010.9898854917177,1,1
12.96,10.756359,-2.627257,3.2770245000000005,1010.9848599999999,6.254711264255282,1010.9898370563184,1,1
12.98,12.00867,-3.1563451000000002,4.219171,1010.9898699999999,6.2775611758363565,1010.9897943773967,1,1
13.0,15.086867000000002,-7.0029563999999995,3.9540446000000014,1010.97705,6.3106864913749945,1010.9897107865432,1,1
13.02,14.374680499999998,-8.151697,4.2854532999999995,1010.9721699999999,6.352720640593272,1010.9895737788333,1,1
13.04,13.012438000000001,-10.411045,2.6946936000000004,1011.0049,6.4020791272816435,1010.9895078932174,1,1
13.06,12.75433,-11.66465,2.7515066000000004,1011.0173300000001,6.4590212994158005,1010.9895498362712,1,1
13.08,12.773451,-13.609404999999999,3.7125912000000003,1011.0227699999999,6.525637097061592,1010.9897064897431,1,1
13.1,10.7038,-11.330991000000001,3.0024307,1011.0325,6.593999580013128,1010.9899989653876,1,1
13.12,9.159925999999999,-9.615029,3.1634007,1011.0249,6.6590401285456275,1010.9903830405916,1,1
13.14,8.7918825,-9.362402000000001,3.3101672999999994,1011.0325,6.7201041822388605,1010.9908740304961,1,1
13.16,6.9324125999999975,-9.04304,2.9882162,1011.00745,6.774351918209508,1010.9913675426656,1,1
13.18,5.8426165999999995,-8.728447000000001,2.3111962999999998,1011.00995,6.820250776152682,1010.9918705068652,1,1
13.2,4.389553500000001,-7.207915299999999,1.3311743,1010.9749,6.8540117828862925,1010.9922538322072,1,1
13.22,2.9173713,-6.3690014,0.45057467,1010.97455,6.873759043981376,1010.9925288046834,1,1
13.24,1.6316015,-6.531064,-0.7566988,1010.9898699999999,6.8805420598744655,1010.9927621986664,1,1
13.26,2.5349805,-7.7560687,-0.51051,1010.95795,6.878758617068103,1010.9928431016748,1,1
13.28,4.733688,-9.209868,0.048149477999999996,1010.9725,6.873942277789677,1010.9928413524068,1,1
13.3,6.0290136,-9.862886999999999,-0.027601102000000002,1010.9723,6.86896672134533,1010.9927658578847,1,1
13.32,10.483787,-12.022138,0.7535753000000001,1010.9649,6.8730330156635775,1010.9925988338373,1,1
13.34,12.577338000000001,-14.414948999999998,2.6283996,1011.0054,6.892018832285468,1010.9924973355867,1,1
13.36,14.646991,-14.100356,3.3669662000000002,1010.985,6.926816415317313,1010.9923806613243,1,1
13.38,15.760684,-13.418738000000001,3.4663887000000004,1010.9898699999999,6.976248838226723,1010.9922685295654,1,1
13.4,15.7511215,-11.054526,3.8924849999999998,1011.0073,7.035619103266307,1010.9922235632367,1,1
13.42,13.906115,-7.5320406,3.7078428,1011.0081,7.096512463708254,1010.9922409861612,1,1
13.44,12.314437,-5.9638433,3.9824376000000004,1011.0227699999999,7.154389197121802,1010.9923662855067,1,1
13.46,11.3393545,-5.9638433,3.248605,1010.9971300000001,7.207245297427479,1010.992494149381,1,1
13.48,9.967547999999999,-5.4347553,2.150223,1010.9823,7.2520189425541615,1010.9925704309624,1,1
13.5,9.049824000000001,-4.22405,1.0897161,1010.9878,7.2863546389666425,1010.992620659816,1,1
13.52,10.259112,-3.5710316,1.0234343000000001,1010.97,7.313140789574787,1010.9925836076559,1,1
13.54,13.929998000000001,-1.426081,2.756226,1011.0028699999999,7.340144453517961,1010.9925878993796,1,1
13.56,14.5800495,-2.2268624,4.015578,1011.0058,7.369351713777963,1010.9926392551092,1,1
13.58,14.341057000000001,-6.907621400000001,4.115,1010.9649,7.402802058495101,1010.9925847717133,1,1
13.6,12.983588000000001,-11.960171,5.885667,1010.995,7.444384845931586,1010.9925453250064,1,1
13.62,12.338314,-11.7504425,5.677353,1011.00995,7.491655475945502,1010.9925731267264,1,1
13.64,12.993145,-12.942082000000001,5.166036599999999,1011.0049,7.546054239690696,1010.9926420690697,1,1
13.66,12.941005,-14.248129,4.910419,1011.0306,7.608242395203309,1010.9928396350757,1,1
13.68,11.779542999999999,-13.242386999999999,4.763655,1011.00775,7.673946939166562,1010.9930678817121,1,1
13.7,11.779542999999999,-13.242386999999999,4.763655,1011.0049,7.742522027606535,1010.9933121560663,1,1
13.72,11.464084,-12.136545,5.1660805,1011.0129,7.8115650065049556,1010.9935985131236,1,1
13.74,9.700358999999999,-10.973506,3.8451836000000004,1010.9978,7.8759231821587505,1010.9938666635719,1,1
13.76,7.1097283,-9.762802,2.7988825,1011.00543,7.930204150438344,1010.9941452293197,1,1
13.78,5.4511519999999996,-8.3566675,2.9172437,1010.99286,7.971224004319702,1010.9943867431887,1,1
13.8,4.007666,-7.479621400000001,2.5195553,1010.9753,7.997170852057848,1010.9945314325676,1,1
13.82,3.2333457,-7.646451,1.9798337,1010.97,8.009046879874786,1010.9945709669456,1,1
13.84,1.2879806999999999,-8.151707,0.9572038,1010.9602699999999,8.007976147794178,1010.9944824160413,1,1
13.86,1.8854790000000001,-9.071653,0.090809844,1010.93195,7.9974602879230865,1010.9941790557643,1,1
13.88,4.2610564,-8.704628,-0.4962549,1010.9854,7.979547623819705,1010.9938794020227,1,1
13.9,6.015251999999999,-8.752294000000001,-0.7519121,1010.9753400000001,7.957122280803068,1010.9935478861296,1,1
13.92,9.676605,-12.479742,1.3264936,1010.9579,7.941599819256327,1010.9931266262962,1,1
13.94,11.602874,-12.865833,1.1513214,1010.9554,7.935383216444117,1010.9926185852527,1,1
13.96,14.145736999999999,-12.703771000000001,0.21390994,1010.97296,7.940842770951176,1010.9920989092799,1,1
13.98,15.522351,-12.741903,-0.22165251,1010.9979,7.95882265456688,1010.9916606075168,1,1
14.0,14.910542999999999,-12.107951,0.29913270000000003,1011.00745,7.985984728733258,1010.991330165892,1,1
14.02,14.241394,-9.214652000000001,1.3927823000000001,1011.0028699999999,8.01661017731123,1010.9910797310747,1,1
14.04,13.266321,-8.699864,1.241282,1010.9898699999999,8.047885584176107,1010.9908540918386,1,1
14.06,12.788348,-8.204144,1.4637997999999999,1011.00037,8.078273966977356,1010.9906889742787,1,1
14.08,13.925965,-3.2421575000000002,0.8483291999999999,1010.9723,8.105814270994214,1010.9904768760956,1,1
14.1,13.557942,-2.5271742,1.8614939999999998,1011.0131,8.129892898261675,1010.9903709093873,1,1
14.12,13.457582,-2.3222127,3.7268507000000004,1011.0081,8.151323578180419,1010.9903411019296,1,1
14.14,13.155154999999999,-4.943787,4.4037514,1010.9799,8.171524995209284,1010.9902771760933,1,1
14.16,13.021282000000001,-8.161211999999999,4.6167964999999995,1010.9974,8.193308452965967,1010.9902463333902,1,1
14.18,12.562383,-7.5558586,5.4595175000000005,1011.0098,8.215574258913707,1010.9902894739777,1,1
14.2,12.6436205,-8.776096,5.0902314,1011.0073,8.239365863789361,1010.9903888308943,1,1
14.22,13.006828,-14.1480055,4.815631,1010.9974,8.271905852700963,1010.9905018628748,1,1
14.24,13.891054,-15.244311999999999,5.03341,1010.99194,8.31500371806628,1010.9906069152263,1,1
14.26,12.949394,-14.186135,5.947146400000001,1011.0325,8.364943127255767,1010.9908505545892,1,1
14.28,12.041195,-12.365310000000001,5.696219999999999,1011.04486,8.416732254668853,1010.9912602683336,1,1
14.3,11.481937,-11.779023,5.000260400000001,1011.0299,8.467926880581553,1010.9917613944324,1,1
14.32,10.344307,-11.497795,3.4852476,1011.0049,8.515629941138634,1010.9922514884332,1,1
14.34,9.393107,-11.454895,2.9786646,1010.9973,8.558530015768813,1010.9927027101339,1,1
14.36,5.6409035,-9.595938,2.1501384,1010.9946,8.589189082241624,1010.9931082398724,1,1
14.38,4.144787,-7.965773599999999,1.4589119,1010.9546,8.604266777346577,1010.9933279362856,1,1
14.4,2.438359,-7.145925,0.44574586,1010.9613,8.602334782110045,1010.9934067594656,1,1
14.42,0.9613616,-6.7264667000000005,-0.022963703,1010.9419,8.58378211342677,1010.9932909832936,1,1
14.44,0.79404944,-6.531038,-0.5626876000000001,1010.93195,8.550211749205092,1010.992967855928,1,1
14.46,2.8827665000000002,-9.181242,-0.40172306,1010.94147,8.50978703253487,1010.9924969483064,1,1
14.48,5.6454554,-9.872392,-0.3449137,1010.9494,8.467080825757627,1010.9919257053183,1,1
14.5,7.7963476,-9.853325,0.13799384,1010.9519,8.424980891309064,1010.9912768624747,1,1
14.52,11.667950999999999,-11.230858999999999,1.3263258999999998,1010.96686,8.391224524686862,1010.9906156442329,1,1
14.54,16.9161,-11.607415,-0.22183134,1010.93896,8.37383218912853,1010.9898454314757,1,1
14.56,16.600613,-10.64457,0.3889051,1010.9843,8.369314210550943,1010.9891449079297,1,1
14.58,14.100739,-10.554005,1.9275832,1010.9889,8.372019111901329,1010.988525043656,1,1
14.6,13.436326999999999,-9.619759,1.9086436999999998,1011.0194,8.378844738696168,1010.9880884814266,1,1
14.62,12.485107000000001,-8.7474785,1.8707651,1011.01184,8.386634911197008,1010.9877882405078,1,1
14.64,11.772879,-7.6178035999999985,1.5914317,1011.0065,8.392658820941042,1010.987590309966,1,1
14.66,11.325352,-5.649259,1.4448277,1010.9914,8.394244113955393,1010.9874291334233,1,1
14.68,11.755586,-3.2945812000000005,2.6094958999999998,1011.0014,8.391373712835339,1010.9873370129496,1,1
14.7,11.965931,-1.9790123,4.0629610000000005,1011.02386,8.385213909994826,1010.9873870980529,1,1
14.72,12.219277,-1.4165589,4.323355,1011.00385,8.376684852471982,1010.9874906196968,1,1
14.74,12.176294,-2.8322272,3.6131976000000003,1010.9808300000001,8.36603957822342,1010.9875581131903,1,1
14.76,11.196485000000001,-7.126896,3.1729027999999997,1010.9937,8.354878952885924,1010.987639861234,1,1
14.78,9.93465,-9.72467,2.9361854,1010.9708,8.34447212550565,1010.987651470305,1,1
14.8,10.317052,-9.524474,3.3812212999999995,1010.9783,8.335255014858802,1010.9876280627867,1,1
14.82,8.945282,-11.569328,0.32279876,1010.9753,8.327507104311,1010.9875629988777,1,1
14.84,8.247448,-11.030708,1.1655242000000001,1010.98334,8.319411089929744,1010.987490305612,1,1
14.86,7.8698960000000024,-11.345303,-0.917609,1010.9707599999999,8.311069534291606,1010.9873658447418,1,1
14.88,7.802995,-11.550265,-1.1874686,1010.9583,8.302855664913082,1010.9871512340759,1,1
14.9,7.387204,-13.561753,-1.5188721,1010.96277,8.297960535717756,1010.9868738316493,1,1
14.92,8.524830999999999,-9.267087,2.1502944999999998,1010.9882,8.290312829344321,1010.9866334930707,1,1
14.94,8.261959,-8.461538000000001,3.4901326,1011.0003,8.2793384325718,1010.9864703293277,1,1
14.96,6.8232726999999995,-6.7455789999999975,3.3054940000000004,1010.98285,8.260928496719659,1010.9863131246589,1,1
14.98,5.5948972999999995,-6.6931477,1.9183166,1010.9903,8.233486996648809,1010.9861885713646,1,1
15.0,4.8588586,-6.564452,1.6863354,1010.9775400000001,8.196932085871428,1010.9860473812167,1,1
15.02,6.5652833,-5.5205765,3.556428700000001,1010.9927,8.154423586986804,1010.9859465750301,1,1
15.04,7.1388940000000005,-5.6397414,2.1029694,1010.9725300000001,8.106915234133734,1010.9858092030133,1,1
15.06,7.922816,-3.7521858,2.543272,1010.9674699999999,8.054723895420997,1010.9856217999684,1,1
15.08,7.9037130000000015,-3.7140538999999997,3.0498552000000005,1010.985,7.998836610306951,1010.9854539721581,1,1
15.1,8.324405,-2.3937194,4.4843855,1010.9852,7.940931548542764,1010.9853047652048,1,1
15.12,8.936254,-2.7035465,4.214528,1010.9875,7.882469870842758,1010.9851808287863,1,1
15.14,8.936254,-2.7035465,4.214528,1010.985,7.8237268293415845,1010.9850706675836,1,1
15.16,8.868613,-2.9227903,5.3317814000000014,1010.9649699999999,7.7660053542484055,1010.9849009667413,1,1
15.18,8.165986,-3.1658847000000003,5.0287795,1010.9671,7.708035928906307,1010.9846869355969,1,1
15.2,8.424097,-2.8989577,5.1613435999999995,1011.0447,7.6504651723832495,1010.9847138647096,1,1
15.22,8.734788,-2.4699678,4.607418,1011.0921,7.593212011990413,1010.9851242493603,1,1
15.24,8.352409,-2.3222046,4.5648093,1010.9471,7.535651473587273,1010.9853499779402,1,1
15.26,8.209019999999999,-2.9180245,5.1329379999999984,1010.9293,7.478679765103288,1010.9853476517927,1,1
15.28,7.850535400000001,-3.051488,4.5695443,1010.9264,7.421333050784246,1010.9851333848624,1,1
15.3,8.256824,-2.9847562,5.057188,1010.96136,7.365003829637773,1010.9848584744173,1,1
15.32,7.9652604999999985,-3.4661784,4.815734,1010.9716,7.309361263964186,1010.98456783304,1,1
15.34,8.371546,-3.299349,4.5648108,1010.9691,7.2548532456109855,1010.98425533812,1,1
15.36,8.739594,-3.1897182,5.492754,1010.9742,7.2030280596346445,1010.9839430183915,1,1
15.38,7.4442716,-3.7140396,4.938829,1010.9541,7.151413284610226,1010.9835596178133,1,1
15.4,8.237722,-3.2278512000000004,4.6358275,1010.9816,7.100822073511139,1010.9832137904382,1,1
15.42,8.448036,-3.2469172000000004,4.7494535,1010.98596,7.051800695016147,1010.982918103724,1,1
15.44,8.0083,-3.2469175,4.607422,1010.9839,7.0034533788919555,1010.9826603697701,1,1
15.46,8.161255,-3.2945830000000003,4.953034,1010.96136,6.956511955055549,1010.9823559547168,1,1
15.48,8.003525999999999,-3.4375796000000003,4.9672375,1010.98596,6.910832430403342,1010.9820999481391,1,1
15.5,8.080007,-3.265984,4.2996864000000015,1010.9889,6.865789590291553,1010.9818982209136,1,1
15.52,8.051331,-3.2516842,4.309156,1010.97845,6.821420698387668,1010.9817075611418,0,0
15.54,8.161272,-3.5186114,4.716315,1010.9585599999999,6.778571338785614,1010.9814557629472,0,0
15.56,8.003541,-3.556744,4.3659690000000015,1011.0010000000001,6.7366469239339875,1010.9813036333162,0,0
15.58,8.471969999999999,-3.4614133999999996,4.844145,1011.02136,6.696872581127044,1010.981313414494,0,0
15.6,8.309458,-3.690208,4.981443,1010.9858,6.659167117836511,1010.9813382088507,0,0
15.62,8.170848,-3.2564514,4.015625,1010.9505,6.6219745213592835,1010.9812490995924,0,0
15.64,8.290347,-3.1944863999999997,3.826249,1010.9557,6.585377831054333,1010.9810783858929,0,0
15.66,7.9707465,-3.6520915,4.115107,1010.9934,6.549464114879142,1010.9809719010792,0,0
15.68,7.191667599999999,-4.252679,3.6795442000000014,1010.9836,6.513127611028103,1010.9808872722538,0,0
15.7,7.48803,-4.033417,3.8026400000000002,1010.9859,6.476937615368509,1010.9808305400436,0,0
15.72,7.9086967,-4.0381846,3.3765476000000003,1010.9659,6.44138913977574,1010.9807266615184,0,0
15.74,7.9517440000000015,-4.1716489999999995,3.2203147,1010.9652,6.406617120921867,1010.980578978472,0,0
15.76,8.678303,-4.2574477,3.9068065,1010.9728,6.374498823831271,1010.9804204814101,0,0
15.78,8.224250999999999,-4.3241806,3.158773,1010.9728,6.343568926580017,1010.9802529996724,0,0
15.8,8.310303,-4.281282,2.8463037,1010.9828,6.313713138873752,1010.9801141820108,0,0
15.82,9.275851,-4.4767113,3.4901852999999994,1010.9680000000001,6.287206281346814,1010.9799479116696,0,0
15.84,8.9986515,-4.786538,3.220327,1010.98065,6.263367787875716,1010.9798035227137,0,0
15.86,8.826608,-4.7341065,3.0309536,1011.0003,6.241506193912309,1010.9797497279508,0,0
15.88,9.132545,-4.92477,3.6843038,1011.0003,6.222604735446312,1010.9797761758776,0,0
15.9,8.568557,-4.7960734,3.0167553,1010.9703,6.204852923430579,1010.9797654310327,0,0
15.92,8.391733,-4.6387777,2.7279596,1010.9977,6.187550154632684,1010.979820501336,0,0
15.94,8.415662,-4.9390717,2.855791,1010.9749,6.171118517246747,1010.9798514476512,0,0
15.96,7.727414,-5.3728294000000005,2.5101836,1010.9803,6.154629161416668,1010.9798804066037,0,0
15.98,7.6031685,-5.730322,2.9978297,1010.995,6.1386488057694875,1010.9799604252704,0,0
16.0,7.6031685,-5.730322,2.9978297,1010.98773,6.123175731964247,1010.9800591002333,0,0
16.02,7.1921634999999995,-5.7732220000000005,2.4959884,1010.98773,6.107318815676776,1010.9801739046693,0,0
16.04,7.2495356,-5.74939,2.5433338,1010.9777,6.0912658380666524,1010.9802664398126,0,0
16.06,7.412064,-5.6159267,2.6474917000000002,1010.99457,6.0752491841989205,1010.9803996966816,0,0
16.08,8.129078,-5.358534,2.9741697,1010.9646,6.060385631478443,1010.9804605635433,0,0
16.099999999999998,7.885337400000001,-5.234604,2.7137804,1010.9898699999999,6.0458993888700565,1010.9805482194732,0,0
16.12,8.052659,-5.1726394,2.9268312,1010.9902,6.032136153606683,1010.9806604186632,0,0
16.14,8.076588000000001,-5.120208,3.1304133,1011.0071,6.019173099070069,1010.98085474036,0,0
16.16,7.7797246,-5.220293,2.8936458,1010.9621,6.006430368482604,1010.9809589259461,0,0
16.18,7.7414937,-5.2822585,3.0262097999999997,1010.9646,5.994017251376937,1010.9809920921964,0,0
16.2,8.0569725,-5.0248647,2.8368349999999998,1010.9717400000001,5.982068485131003,1010.9809880903633,0,0
16.22,8.224269,-5.110663,2.765819,1010.9695,5.970905451312072,1010.9809431972183,0,0
16.24,8.530185000000001,-5.2441263,3.073556,1010.9795,5.961317028461112,1010.9808983341254,0,0
16.259999999999998,8.530192,-5.0820637,3.1824481,1011.01276,5.953055789575759,1010.9809733950937,0,0
16.28,8.281653,-5.10113,2.5622418,1010.98456,5.9452312507230225,1010.9810526307429,0,0
16.3,8.281653,-5.10113,2.5622418,1010.9895,5.937820748358974,1010.9811530538916,0,0
16.32,7.7941246,-5.158329,2.7279472,1010.9925,5.930133502268719,1010.981282636792,0,0
16.34,7.7367744000000025,-5.310859,2.6569319,1010.9721,5.922263926533772,1010.9813640787503,0,0
16.36,8.014011,-5.5587206,3.0072787,1010.97705,5.91520350473605,1010.9814205101812,0,0
16.38,7.97578,-5.401424,3.0688264,1010.9716,5.908682811504931,1010.9814350191568,0,0
16.4,8.143077,-5.263193599999999,2.9930763,1010.99457,5.902740811818912,1010.9814951252188,0,0
16.419999999999998,7.880195,-5.3489923,2.5575118,1010.9996,5.896737429158608,1010.9816134124843,0,0
16.44,7.894541999999999,-5.477689700000001,2.3681362,1011.00494,5.890773679072789,1010.9818019068273,0,0
16.46,7.8754306,-5.673119,2.3349962000000004,1010.9691,5.8850464548426435,1010.9819227335637,0,0
16.48,7.8467636,-5.4300239999999995,2.1408867999999996,1010.9971,5.879126195138882,1010.9820841342276,0,0
16.5,7.8467674,-5.4157248,2.1929654999999997,1010.977,5.873064191192281,1010.982208444971,0,0
16.52,7.7941970000000005,-5.4586239999999995,2.4675617,1011.007,5.86699668366313,1010.9824075355417,0,0
16.54,7.8133235,-5.4300246,2.6190634,1011.0146,5.861026105846788,1010.9826993448423,0,0
16.56,7.961508999999999,-5.3156276,2.4912353,1010.9893,5.855210536709268,1010.9829809498987,0,0
16.58,8.100127,-5.3871264000000005,2.5480485,1010.9845,5.849894414439656,1010.9832352447072,0,0
16.599999999999998,8.205287,-5.4395584999999995,2.633268,1011.0016,5.845318366183974,1010.9835260527186,0,0
16.62,8.124042,-5.2584300000000015,2.2497826,1011.00635,5.840882216513653,1010.983865176888,0,0
16.64,8.057132000000001,-5.1201989999999995,2.2024392999999995,1010.9614,5.836298295487912,1010.9840839523672,0,0
16.66,8.267099,-5.0486927,2.2592206000000004,1010.9893,5.831911249338607,1010.984296040152,0,0
16.68,8.123699,-5.3489857,2.4864717,1010.9791,5.827906385093731,1010.9844647351739,0,0
16.7,8.056776,-5.420484,2.6427062,1011.0039999999999,5.82430414132463,1010.984684121049,0,0
16.72,7.975513499999999,-5.1821556,2.4154544,1011.00684,5.820549959358868,1010.9849577315723,0,0
16.74,7.9324850000000025,-5.082058,2.188202,1010.98914,5.8163808288496845,1010.985214549997,0,0
16.759999999999998,8.051977,-5.1297235,2.4438592999999997,1011.0066,5.812241228024551,1010.9855184623773,0,0
16.78,8.104546000000001,-5.2774863,2.7089849999999998,1010.9966,5.8085346623175775,1010.9858268928917,0,0
16.8,8.200135000000001,-5.248887,2.5480148999999996,1010.9689,5.805266582817932,1010.9860384852797,0,0
16.82,8.23359,-5.2155213,2.5006707,1010.9864,5.802393750437144,1010.986226749767,0,0
16.84,8.252704,-5.225054,2.2876217,1010.98914,5.799817870653089,1010.9864035879688,0,0
16.86,8.295715,-5.310852,2.2781525,1010.99646,5.797675916199801,1010.986596045287,0,0
16.88,8.424764,-5.1773887,2.5196064,1011.01385,5.7961211641622485,1010.9868642148107,0,0
16.9,8.305264999999999,-5.1249557,2.4675279,1010.9963,5.794803853214624,1010.9871351382283,0,0
16.919999999999998,8.03759,-5.182154,2.349167,1010.9939,5.793246534081116,1010.9873988796624,0,0
16.94,7.793811,-5.3203845,2.699512,1010.9941,5.791415224256188,1010.9876560456266,0,0
16.96,7.712548299999999,-5.3918824,2.680574,1010.9988,5.789285198841789,1010.9879233957088,0,0
16.98,7.97065,-5.3871160000000025,2.66637,1010.9864,5.787311115776067,1010.9881541420166,0,0
17.0,8.176176,-5.2107529999999995,2.6048222,1011.0038,5.785598722402643,1010.9884143545427,0,0
17.02,8.271769,-5.163088,2.5385404,1010.9705,5.784199867968625,1010.9885797866548,0,0
17.04,8.271763,-5.1440209999999995,2.3018196,1010.99866,5.78294417227767,1010.9887622512367,0,0
17.06,8.185718,-5.282251400000002,2.3681002,1010.98615,5.781854211500418,1010.9889140728372,0,0
17.08,8.099677,-5.315617,2.4533193,1010.9906599999999,5.7808485122144475,1010.9890545077408,0,0
17.099999999999998,7.913258,-5.3966484,2.3680992,1011.0031,5.779656329452423,1010.989229159794,0,0
17.12,8.176138,-5.263184,2.5669436,1011.0083,5.778698852453153,1010.9894521373727,0,0
17.14,8.157391,-5.28226,2.5385711,1010.98816,5.777926369174754,1010.989644508667,0,0
17.16,8.143055,-5.2679599999999995,2.5338373,1011.0059,5.777277812897947,1010.9898730077114,0,0
17.18,8.12394,-5.2679605,2.4770248,1010.9827,5.776679251464242,1010.9900490866393,0,0
17.2,8.157408,-5.3442254,2.4202125,1010.9906,5.77623860776116,1010.9902066532678,0,0
17.22,7.951885000000001,-5.3728247000000025,2.3918068,1011.0277,5.775611653430643,1010.9904808551892,0,0
17.24,8.037935000000001,-5.2870274,2.3302607999999996,1010.9906,5.774840261828191,1010.9907235689283,0,0
17.259999999999998,8.004485,-5.248895,2.3870744999999998,1010.998,5.77387352435701,1010.9909642259398,0,0
17.28,7.937577,-5.377592,2.5101697,1011.0205,5.772832646385702,1010.9912831992619,0,0
17.3,8.147898,-5.3060946,2.6711404,1010.9751,5.7720889830735,1010.991506784572,0,0
17.32,8.028411,-5.2965612,2.3255298,1010.9927,5.771219364062282,1010.9917086401274,0,0
17.34,8.171814999999999,-5.210763,2.3207963,1010.98773,5.770388057064851,1010.9918726765917,0,0
17.36,8.224397,-5.1916975999999995,2.4060159,1010.9977,5.769704526901838,1010.992038597576,0,0
17.38,7.9997582,-5.3823595,2.3539388,1010.9776,5.768958487514942,1010.9921332264064,0,0
17.4,7.9949837,-5.4204926,2.4202206000000004,1010.9851,5.7682280595236435,1010.9921915208256,0,0
17.419999999999998,8.066686,-5.372827,2.5338469,1010.9902,5.767638924561093,1010.9922358602997,0,0
17.44,7.9376435,-5.253664,2.2071742999999997,1011.0051,5.766664181971676,1010.9923213495621,0,0
17.46,7.9854455,-5.2917957000000015,2.2545187,1010.9999,5.7654978891588184,1010.9924241710156,0,0
17.48,8.004575,-5.3632946,2.3397386000000004,1010.9799,5.7643200566124975,1010.9924699370364,0,0
17.5,8.124083,-5.3585286,2.4344282,1010.9897,5.76337888890577,1010.9925004041188,0,0
17.52,8.114528,-5.320396,2.3065994,1010.9924,5.762528835155457,1010.9925269633784,0,0
17.54,8.181453999999999,-5.258431,2.3208036,1010.9691,5.761814470618536,1010.9924660940717,0,0
17.56,8.028513,-5.3394628,2.3918209999999998,1010.9772,5.761088506240532,1010.9923573520135,0,0
17.58,7.9998384000000025,-5.3394628,2.4770404999999998,1010.9839999999999,5.760350230649808,1010.992231181064,0,0
17.599999999999994,7.846894,-5.282264700000002,2.3776188,1010.9847,5.75923272539555,1010.9920925841608,0,0
17.62,7.961618400000001,-5.282264700000002,2.510183,1010.98474,5.7580447619682005,1010.9919436506343,0,0
17.64,8.009433999999999,-5.3632965,2.6853572999999997,1011.00964,5.757063933175175,1010.9918757598282,0,0
17.66,8.057236999999999,-5.353763,2.6853578,1011.0046,5.756338699887032,1010.9918615787764,0,0
17.68,8.06202,-5.310865,2.5338572999999998,1010.99,5.7557203421861445,1010.9918423467152,0,0
17.7,8.143286,-5.2917986,2.3208097999999997,1010.9765,5.75520702696938,1010.991770120818,0,0
17.72,8.315368,-5.210767,2.4012957000000004,1011.0015,5.755032692577047,1010.9917413295802,0,0
17.74,8.267579,-5.2679663,2.2355924,1010.9586,5.755059373291156,1010.991596580856,0,0
17.759999999999994,8.066835000000001,-5.353764,2.372891,1010.97614,5.7550834803209,1010.9914130371924,0,0
17.78,7.928235000000001,-5.372831,2.453377,1010.9992,5.754935227140932,1010.9912788910773,0,0
17.8,7.928235000000001,-5.372831,2.453377,1010.9992,5.754635210191113,1010.9911888755616,0,0
17.82,8.0047245,-5.3251657,2.3918310000000003,1010.98865,5.754245287854209,1010.9911001979004,0,0
17.84,8.100328999999999,-5.3251657,2.3302843999999996,1011.00366,5.75390793846649,1010.9910670576063,0,0
17.86,8.143355999999999,-5.3442326,2.4344422999999997,1010.9861,5.7537635338563655,1010.9910198934352,0,0
17.88,8.172044999999999,-5.244135,2.3066142000000003,1010.99854,5.753665777534722,1010.9910052915573,0,0
17.9,8.229412,-5.344233,2.2734742000000003,1010.98096,5.753801241039593,1010.9909562262883,0,0
17.919999999999995,8.105145,-5.3347,2.273475,1010.9934699999999,5.753921187066003,1010.9909219218017,0,0
17.94,8.081255,-5.3394666,2.3018822999999995,1010.99603,5.754005514396253,1010.9909099994393,0,0
17.96,8.129066,-5.2250695,2.4675877,1010.9861,5.754095277537828,1010.9908821488416,0,0
17.98,8.205547,-5.2060037,2.6380267,1011.00354,5.75438868809469,1010.9909031083175,0,0
18.0,8.071722,-5.21077,2.5717456000000003,1010.97833,5.754604078187613,1010.9908763649208,0,0
18.02,7.913997699999999,-5.263202,2.3586981,1011.0133,5.754431475480497,1010.9909334595417,0,0
18.04,8.086079,-5.2203040000000005,2.5291376,1010.9957,5.754246859884603,1010.9910010678943,0,0
18.06,8.062185000000001,-5.167872,2.4628565,1011.00824,5.753920145637664,1010.99112286679,0,0
18.08,8.105246000000001,-5.1392736,2.2403432999999997,1011.0027,5.753401135815762,1010.991272165974,0,0
18.1,8.119596000000001,-5.191706,2.2119377,1011.0027,5.752782303239564,1010.9914452269355,0,0
18.12,8.191298,-5.2060056,2.3492357999999998,1010.9976,5.752280848909906,1010.991620300784,0,0
18.14,8.176967999999999,-5.15834,2.4770658,1010.9981,5.7518732943011965,1010.991798322954,0,0
18.16,8.133964,-5.220306,2.3681755,1011.0157,5.7514890769847975,1010.9920416693803,0,0
18.18,8.167425999999999,-5.3204036,2.3871136,1011.0231,5.751302678352633,1010.9923685002733,0,0
18.2,8.186564,-5.06301,2.1267232999999997,1010.9946,5.750922405998504,1010.992665321449,0,0
18.22,8.138771,-4.962912599999999,2.1077862,1011.0132,5.750174738630836,1010.9930015174828,0,0
18.24,7.871112299999999,-5.0868435,2.2545536,1011.0101300000001,5.748848087664653,1010.9933602428353,0,0
18.26,7.918925,-5.3013387000000005,2.85109,1010.98755,5.74765440167922,1010.9936562956824,0,0
18.28,7.990626299999999,-5.320405,2.7043237999999996,1010.9847,5.746637581500082,1010.9938856453138,0,0
18.3,8.454281,-5.1345095999999995,2.3776512000000003,1011.00964,5.746195545478453,1010.9941450143248,0,0
18.32,8.454281,-5.1345095999999995,2.3776512000000003,1011.0171,5.746262980068077,1010.9944568307317,0,0
18.34,8.272663,-5.1440434,1.8994776000000002,1010.99457,5.746264798713347,1010.994732759118,0,0
18.36,8.148394,-5.158343,1.7621802,1011.01215,5.745956202885558,1010.9950392715073,0,0
18.38,8.129284,-5.272741000000001,2.2119492999999997,1011.03705,5.745655496326535,1010.9954613444768,0,0
18.4,8.076719,-5.1678767,2.5907032,1011.0093400000001,5.7453494869672825,1010.9958842513128,0,0
18.42,8.024147,-5.2060094,2.4770779999999997,1011.0141,5.7449321886801945,1010.9963235084883,0,0
18.44,8.143656,-5.2346087,2.6238458,1011.0116,5.744729078546487,1010.9967666314983,0,0
18.46,8.224917999999999,-5.2346087,2.6049087,1010.9941,5.744843125551813,1010.9971485751163,0,0
18.48,8.124551,-5.1917105,2.259298,1011.00385,5.744845167932046,1010.9975101856267,0,0
18.5,8.191478,-5.267976,2.2498302000000003,1010.9864,5.7449411607377545,1010.9977897080054,0,0
18.52,8.186707499999999,-5.253676400000002,2.3965973999999997,1010.99316,5.7451669036779105,1010.9980200270303,0,0
18.54,8.095901,-5.215544,2.4676144,1011.0141,5.7453469155802654,1010.9982814248236,0,0
18.56,8.100696000000001,-5.2298436,2.5954444,1011.0389,5.745577057867818,1010.9986586227844,0,0
18.58,8.109866,-5.2536674,2.5906746,1011.0009,5.745889520181782,1010.9989999838604,0,0
18.6,8.109866,-5.2536674,2.5906746,1011.0260000000001,5.746273595606754,1010.9993988105651,0,0
18.62,8.128979,-5.2346005,2.567002,1011.0157,5.746718350133665,1010.9998098981237,0,0
18.64,8.033377,-5.2060010000000005,2.2829373,1010.98816,5.746877718028458,1011.000131195457,0,0
18.66,8.090728,-5.239367,2.3728902,1010.9831,5.746962252091677,1011.0003537814772,0,0
18.68,8.095500999999999,-5.215534,2.5291252,1011.0151,5.7470424456335225,1011.0006035448712,0,0
18.7,8.023795,-5.2774987,2.5243897,1011.0282,5.747063165767287,1011.0009235830446,0,0
18.72,8.214981,-5.191701,2.505452,1010.9956,5.747251032156942,1011.0011872038756,0,0
18.74,8.105036,-5.229833599999999,2.4107627999999997,1011.0356,5.7473921548807025,1011.001544025308,0,0
18.76,8.047671000000001,-5.2679653,2.4296997000000005,1011.0028699999999,5.747445986993776,1011.0018640862347,0,0
18.78,8.095467,-5.258432,2.4675746,1011.0281,5.747512044620388,1011.002241341359,0,0
18.8,8.062005000000001,-5.287031,2.4628400000000004,1011.0079,5.747561278632794,1011.0025950551578,0,0
18.82,8.167150999999999,-5.2536654,2.510183,1011.04034,5.747760884698273,1011.003043478472,0,0
18.84,8.324875,-5.1821665999999995,2.4249628,1011.0378400000001,5.748240740375785,1011.0035649727896,0,0
18.86,8.320092,-5.186933,2.3539464,1011.0122,5.7489284413850985,1011.0040568512668,0,0
18.88,8.224492999999999,-5.2012334000000005,2.3539462,1011.0172,5.749649091026658,1011.0045387904248,0,0
18.9,8.1384535,-5.2107654000000005,2.3728835999999998,1011.0197,5.750269329512272,1011.0050192122193,0,0
18.92,7.8946705,-5.277497299999999,2.5811962999999998,1011.0243,5.750570018894112,1011.0055131237527,0,0
18.94,8.1623335,-5.2488980000000005,2.7279623,1011.00385,5.751085573148242,1011.0059435567383,0,0
18.96,7.985474000000001,-5.2727304,2.6143357999999997,1011.02936,5.751455314571478,1011.0064081865199,0,0
18.98,8.033266000000001,-5.2012324,2.4012868,1011.00385,5.751584392000978,1011.0068095239236,0,0
19.0,8.300929,-5.139267,2.4060208999999997,1010.9838,5.751892017363526,1011.0070813113672,0,0
19.02,8.286583,-5.101134,2.44863,1011.01636,5.752312680174736,1011.0073548660316,0,0
19.04,7.9902286999999985,-5.196465,2.5054423999999997,1010.99615,5.7524596245676625,1011.0075562414153,0,0
19.06,7.8898463,-5.287029,2.5575203999999996,1011.0412,5.752323968001669,1011.0078552942352,0,0
19.08,7.9663205,-5.2965620000000015,2.661677,1011.0238,5.75213437741451,1011.0081769382476,0,0
19.1,8.062781,-5.2632174,2.7375064,1010.9934699999999,5.752064953593463,1011.0084081979193,0,0
19.12,8.172759,-5.1869535,2.7848544,1011.0312,5.7522313340522135,1011.0086945894528,0,0
19.14,8.158433,-5.1106896,2.6286204,1011.02875,5.752412149869791,1011.0090198444896,0,0
19.16,8.172787,-5.0916233,2.5576057,1011.0110000000001,5.752570842850507,1011.0093143683999,0,0
19.18,8.053333,-5.1726556,2.6333597,1010.9960000000001,5.752634878643449,1011.0095266780013,0,0
19.2,7.881303,-5.3490195,2.581285,1011.0179,5.752493550097468,1011.0097444187236,0,0
19.22,7.9004498,-5.3633194,2.6949134,1011.0099,5.7522820569744075,1011.0099373745187,0,0
19.24,7.8622394,-5.3585544,2.6475717999999997,1011.0026,5.751914180775065,1011.0100814557112,0,0
19.26,8.110816999999999,-5.2584567,2.723325,1011.03314,5.7517553247225415,1011.0102917766119,0,0
19.28,8.263785,-5.1821923,2.685451,1011.02527,5.75193676048638,1011.0105315377645,0,0
19.3,8.134758,-5.253691000000001,2.4250612,1011.0074,5.752138983984255,1011.0107321171827,0,0
19.32,8.168258,-5.272759,2.5955036,1011.02234,5.75252501461934,1011.0109511375347,0,0
19.34,8.182625999999999,-5.2822924,2.6570535,1011.02527,5.753139999834857,1011.0111962118224,0,0
19.36,8.0679245,-5.248927,2.647586,1011.0473,5.753720546369647,1011.0115427331008,0,0
19.38,7.991476,-5.2060285,2.7138703,1011.0098,5.75413060943634,1011.0118426454628,0,0
19.4,7.991476,-5.2060285,2.7138703,1011.0094,5.7543885570835815,1011.0120988545026,0,0
19.42,7.8624625,-5.3251934,2.6523267999999995,1011.0294,5.754393382531407,1011.0123875249336,0,0
19.44,8.111054,-5.2870620000000015,2.6523306,1010.9992,5.754547039970844,1011.012595119037,0,0
19.46,7.972467999999999,-5.3633275000000005,2.4440193,1010.99646,5.7545734953931955,1011.012720462758,0,0
19.48,7.9533625,-5.3823943,2.4203484,1011.0267,5.75446496105187,1011.0128815428043,0,0
19.5,8.068106,-5.3585625,2.54818,1011.0294,5.754468930870469,1011.0130833395787,0,0
19.52,8.125491,-5.2632318,2.5718548,1011.0014,5.754576227692822,1011.0132195871864,0,0
19.54,8.015597999999999,-5.315665,2.5671241,1011.0338,5.754645034918891,1011.0134140650584,0,0
19.56,7.91525,-5.3728642,2.6144707,1011.0234,5.754601985869695,1011.0136218550721,0,0
19.58,7.9345539999999986,-5.329969999999999,2.6523627999999997,1011.0009,5.754465122092982,1011.0137596596496,0,0
19.6,7.934588400000001,-5.3013715999999995,2.5624123,1011.0234,5.7541647597236345,1011.013916129,0,0
19.62,8.101916000000001,-5.239407,2.5245402,1010.99316,5.7539133789513865,1011.0139796632532,0,0
19.64,8.116272,-5.2870726999999995,2.5576828,1011.0204,5.753800066811648,1011.014058915332,0,0
19.66,8.078085,-5.2727747,2.5576875,1011.0079,5.753729197768906,1011.0141067703734,0,0
19.68,8.087662,-5.2870745999999995,2.5482202000000003,1010.99536,5.753722881655962,1011.0140815667146,0,0
19.7,8.116358,-5.2251096,2.538753,1011.0082,5.753749219635298,1011.0140381231216,0,0
19.72,8.082951,-5.2823095,2.5292888,1011.01544,5.753805553698517,1011.0140047831194,0,0
19.74,7.9491505999999985,-5.3109097,2.5576985,1011.01465,5.7537106853978255,1011.0139776466743,0,0
19.76,7.9444050000000015,-5.35381,2.5150919999999997,1011.0278300000001,5.7534999767919,1011.0140035373836,0,0
19.78,8.092611999999999,-5.2727785,2.5955796,1011.018,5.75338887987459,1011.0140408016794,0,0
19.8,8.063951,-5.248946,2.519831,1010.99963,5.753251448778932,1011.0140218495253,0,0
19.82,8.121361,-5.277547,2.4866947999999995,1011.01715,5.753202156106233,1011.0140163647436,0,0
19.84,8.183549000000001,-5.3299804,2.5387779999999998,1010.9993,5.753420439664134,1011.0139585394774,0,0
19.86,7.9923910000000005,-5.186985,2.2499824,1011.00726,5.753249288037575,1011.01388333033,0,0
19.88,7.9446106,-5.2012854000000015,2.297328,1011.00714,5.752692395319105,1011.0137925995384,0,0
19.9,7.9303054999999985,-5.2727838,2.5151138,1011.02216,5.75196297608265,1011.0137425524524,0,0
19.92,7.973375,-5.353816999999999,2.661885,1011.02435,5.751325601528784,1011.0137365176583,0,0
19.94,7.939951,-5.2823195,2.4299026,1011.0143400000001,5.75051229354513,1011.0137333578508,0,0
19.96,8.1168375,-5.272787,2.4062335,1011.0169,5.749821819218239,1011.0137419657567,0,0
19.98,8.092955,-5.3252196,2.4725167999999997,1011.0165,5.749293560757308,1011.0137595006256,0,0
20.0,8.093005999999999,-5.282322,2.387302,1011.0165,5.748820085670122,1011.0137848602333,0,0
20.02,8.126482000000001,-5.2966223,2.3494284,1011.0089999999999,5.7484503994045735,1011.013790042486,0,0
20.04,8.179095,-5.239424700000002,2.3589002999999997,1011.0060000000001,5.748204949572827,1011.0137665773717,0,0
20.06,8.136111,-5.225125299999998,2.3068252,1011.01355,5.747956115323743,1011.013745063918,0,0
20.08,8.131349,-5.272791000000002,2.420452,1011.01355,5.74780531132316,1011.0137253524,0,0
20.1,8.053977,-5.3347344,2.5008554,1010.99036,5.747720900195964,1011.0136238200341,0,0
20.12,8.063533,-5.3252015,2.3872294,1011.02625,5.7476430064816295,1011.0135795602837,0,0
20.14,8.226045,-5.2298703,2.4109013,1011.02325,5.7477535391341785,1011.0135752659512,0,0
20.16,8.211701,-5.225103400000001,2.3020093,1011.0158,5.747947330424798,1011.0135794805212,0,0
20.18,8.101764999999999,-5.291836,2.2972748,1011.0227699999999,5.748097979904188,1011.0136162903857,0,0
20.2,8.096983,-5.329968,2.439307,1011.01526,5.748314226010429,1011.0136547329364,0,0
20.22,8.025283,-5.2632356,2.429838,1011.00256,5.748388230960994,1011.0136487597357,0,0
20.24,7.972702000000001,-5.2918353,2.4298377,1011.0182,5.748279593500151,1011.0136598662807,0,0
20.26,8.111312,-5.2632356,2.4582436000000003,1010.99005,5.748226335827281,1011.013584684505,0,0
20.28,8.111312,-5.2632356,2.4582436000000003,1011.01245,5.748222203462688,1011.0135141690238,0,0
20.3,8.139986,-5.206037,2.3398833,1011.0101,5.748188371730898,1011.0134395705361,0,0
20.32,8.144765,-5.2346363,2.3635552000000004,1011.02216,5.748179343490853,1011.0134050488583,0,0
20.34,7.987028599999999,-5.3395004,2.377758,1010.9868,5.748049080251306,1011.0132787673282,0,0
20.36,8.087401,-5.225102400000001,2.5434617999999998,1010.99176,5.747939901851522,1011.0130897174057,0,0
20.38,8.087401,-5.225102400000001,2.5434617999999998,1010.99963,5.747849747058392,1011.0128742179116,0,0
20.4,8.178214,-5.148838,2.5529304,1010.9942599999999,5.747853203412348,1011.0126167913741,0,0
20.42,8.159092,-5.20127,2.55293,1011.0068,5.7479632896469255,1011.0123683888364,0,0
20.44,8.14475,-5.206036599999999,2.4203662999999995,1010.9993,5.7480794152472505,1011.0121018541544,0,0
20.46,8.106507,-5.234635400000001,2.344616,1010.9992,5.748129016877947,1011.0118198974344,0,0
20.48,8.130405,-5.206036,2.420366,1010.9717400000001,5.7481667382993225,1011.0114264728461,0,0
20.5,8.159081,-5.21557,2.5245225,1010.9788,5.748306444265648,1011.0109613875773,0,0
20.52,8.039584,-5.1869698,2.4014277,1011.0093,5.748238759248532,1011.0105444572383,0,0
20.54,8.063482,-5.1869698,2.448772,1010.9934699999999,5.7480526997343695,1011.0101145895453,0,0
20.56,8.182972999999999,-5.148837599999999,2.571866,1011.00903,5.747988860301397,1011.0097308539287,0,0
20.58,8.198279,-5.239426,2.4914696,1010.9934699999999,5.748114599964503,1011.0093332460643,0,0
20.6,8.246114,-5.139329,2.5056762999999997,1011.0082,5.74838863379583,1011.0089778400693,0,0
20.62,8.136234,-5.196529,2.3920555,1011.0032,5.748609072415428,1011.0086430031081,0,0
20.64,8.031096,-5.206062999999999,2.44887,1010.9751,5.748642387406892,1011.0082263863576,0,0
20.66,7.9307570000000025,-5.2489624,2.548296,1011.0079300000001,5.748441091861185,1011.0078571968061,0,0
20.68,8.05505,-5.234662999999999,2.6003761,1010.98975,5.748254223566049,1011.0074657950098,0,0
20.7,8.1220045,-5.296629,2.5340977000000002,1011.0207,5.748225976546714,1011.0071675955206,0,0
20.72,8.346711,-5.1012015,2.4252117,1011.0106,5.748454691378274,1011.0069164631083,0,0
20.74,8.365848,-5.0869026,2.4394164000000003,1010.98975,5.7489347023042825,1011.0066327632413,0,0
20.76,8.351545,-4.962973000000002,2.4678264,1010.97675,5.74949602692455,1011.0062745080912,0,0
20.78,7.9261979999999985,-5.268033999999999,2.4346905,1010.9669,5.749711944712835,1011.0058162056114,0,0
20.8,7.926234700000001,-5.382432,2.4867722999999997,1011.0126300000001,5.749777360600093,1011.0054357792,0,0
20.82,7.926234700000001,-5.382432,2.4867722999999997,1011.01166,5.7497095575104105,1011.005122041618,0,0
20.84,8.170078,-5.1774726,2.6098735,1010.99945,5.749773493610608,1011.0048244037404,0,0
20.86,8.06018,-5.3014035,2.5909395,1010.99396,5.7498929893739925,1011.0045222990586,0,0
20.88,8.170134,-5.2251387000000005,2.6051443,1010.9664300000001,5.7501706774431325,1011.0041182270853,0,0
20.9,8.304022999999999,-5.096444,2.2074592,1011.00397,5.7504795981674,1011.0037606554718,0,0
20.92,8.265803,-5.086911,2.1459136,1010.9435,5.750710893653214,1011.0032277668344,0,0
20.94,8.218022999999999,-5.0916777,2.179056,1010.97644,5.750810388393992,1011.002660470474,0,0
20.96,8.041207,-5.220375499999999,2.335295,1011.0139999999999,5.750704532533375,1011.002200029716,0,0
20.98,8.1034,-5.282342400000001,2.6240985,1011.00146,5.750740212339878,1011.0017905201553,0,0
21.0,8.227712,-5.1727123,2.5057419999999997,1010.97064,5.750929507180412,1011.001316535635,0,0
21.02,8.232529,-5.2251453,2.3069002999999997,1010.9634,5.751219400213013,1011.0007612233844,0,0
21.04,8.179988,-5.1917805999999995,2.3258412,1010.99286,5.751480426661567,1011.0002421050757,0,0
21.06,8.175226,-5.1727147,2.2737644,1010.9674,5.751661219390925,1010.99966518056,0,0
21.08,8.012768,-5.3824440000000005,2.4962866000000004,1010.9675,5.751837837581433,1010.9990396154077,0,0
21.1,7.9937830000000005,-5.2775836,2.6288624,1010.97784,5.751932621850389,1010.998410547424,0,0
21.12,7.9555855,-5.20132,2.3779426,1010.99286,5.751674057297193,1010.9978347209824,0,0
21.14,8.008183500000001,-5.206086599999999,2.3116630000000002,1010.9774,5.7511654658812645,1010.9972523557434,0,0
21.16,8.065581,-5.330018,2.4536986,1010.94495,5.7507427246016825,1010.9965494893373,0,0
21.18,8.041744,-5.3729185999999975,2.1933119999999997,1010.9674,5.750278784774782,1010.9958234984193,0,0
21.2,8.041784,-5.3681529999999995,2.1838467,1010.9949,5.749770471554706,1010.99517868825,0,0
21.22,7.9892473,-5.411053,2.2974759999999996,1010.99506,5.749238343990414,1010.9946085067066,0,0
21.24,8.104003,-5.3490887,2.4158401,1010.9868,5.748868379592228,1010.9940765836708,0,0
21.26,8.094464,-5.3919883,2.4253106,1010.97687,5.748679572958668,1010.993544632775,0,0
21.28,7.984589,-5.406289599999999,2.2027992999999997,1010.9714,5.7483757721520625,1010.9929948802853,0,0
21.3,7.9989696,-5.4968553,2.3874447,1011.00183,5.748187273599989,1010.9925409254167,0,0
21.32,8.003810000000001,-5.420592,2.3211687000000003,1010.9769,5.747990073031424,1010.9920835035632,0,0
21.34,8.003810000000001,-5.420592,2.3211687000000003,1011.01184,5.7477858932831385,1010.9917504490004,0,0
21.36,7.951272500000001,-5.41106,2.2785625,1010.9888,5.747457032214027,1010.9914455403723,0,0
21.38,7.9752326,-5.4587264000000015,2.392194,1010.9759,5.747169042937311,1010.9911201591636,0,0
21.4,8.003931,-5.425361,2.4016645,1011.0083,5.746932898935713,1010.9908944997542,0,0
21.42,8.104369,-5.420596,2.4158738,1010.9888,5.746913225361823,1010.9906875669012,0,0
21.44,7.994474,-5.3872313,2.378002,1010.9859,5.746844383347912,1010.9904874857913,0,0
21.46,7.984935000000001,-5.3348,2.3732693,1010.9762,5.7466550528940346,1010.9902592591736,0,0
21.48,7.9849954,-5.3919997,2.3874779999999998,1010.9734,5.746431484028238,1010.9899969048012,0,0
21.5,7.908539,-5.4063,2.38748,1010.9862,5.7460671146601126,1010.9897514196208,0,0
21.52,7.8894606,-5.482566,2.354343,1011.01624,5.7456187572604325,1010.9896298678044,0,0
21.54,8.204988499999999,-5.3205047,2.3732860000000002,1011.00323,5.745453720126353,1010.9895714250956,0,0
21.56,8.17633,-5.3109717000000005,2.2265215,1010.9529,5.745410552127392,1010.9893877679876,0,0
21.58,8.224167999999999,-5.330039,2.3448853,1010.9808,5.745633459677584,1010.9891945726023,0,0
21.6,8.179124,-5.4110208,2.3257623,1010.9858,5.746094963369676,1010.9890116446983,0,0
21.62,8.069148,-5.377654,2.2689457,1010.9978,5.7465158593504855,1010.9888816476815,0,0
21.64,8.021289,-5.372886,2.3588936,1010.9873,5.746857046155204,1010.9887610883858,0,0
21.66,8.006929,-5.377651999999999,2.3825638,1010.9998,5.7471195982299195,1010.988694302274,0,0
21.68,7.9781895,-5.3490515,2.3683549999999998,1010.99286,5.747224332312988,1010.9886502865774,0,0
21.7,8.078525,-5.282318,2.4109612,1011.01025,5.747305014499168,1010.988689153276,0,0
21.72,8.121523,-5.3061504,2.4488343999999995,1010.9927,5.747482165569183,1010.9887379349393,0,0
21.74,8.035425,-5.372881,2.344672,1010.98236,5.747621227832509,1010.9887580778512,0,0
21.76,8.035425,-5.372881,2.344672,1011.0071,5.747726134202098,1010.9888419070476,0,0
21.78,8.040165,-5.363346599999999,2.3257307999999997,1010.9998,5.747788502732602,1010.9889554276604,0,0
21.8,8.064002,-5.363345,2.2215679,1010.9952,5.747803670062586,1010.9890782149344,0,0
21.82,8.0783,-5.310912,2.3730652,1010.9918,5.747815444918627,1010.9891965081958,0,0
21.84,8.121279,-5.2346463,2.3919992000000003,1010.96405,5.747822321365369,1010.9892105046919,0,0
21.86,8.083,-5.2537117,2.3730580000000003,1010.9893,5.747771469266157,1010.9892231941792,0,0
21.88,8.106857000000002,-5.2918434,2.3541167,1010.96405,5.747742811583077,1010.9891437831112,0,0
21.9,8.111597999999999,-5.301375,2.3020343999999997,1011.00183,5.747727124491491,1010.989119285872,0,0
21.92,8.116316000000001,-5.3299723,2.2262783,1010.9938,5.747726871647601,1010.9891144906824,0,0
21.94,8.159314,-5.315673,2.278355,1010.9887,5.7478216947302565,1010.9891087614864,0,0
21.96,8.140155,-5.2632394,2.3162265,1010.9989999999999,5.747928052813898,1010.9891393076275,0,0
21.98,8.087537,-5.310904,2.3777702,1010.9833,5.7480378617489025,1010.9891452766904,0,0
22.0,8.011019000000001,-5.3728685,2.3682972999999996,1010.9956699999999,5.748086100587805,1010.9891740399582,0,0
22.02,8.058776,-5.3442682999999995,2.3824970000000003,1011.0037,5.7481349744088615,1010.9892517486377,0,0
22.04,8.106533,-5.277534999999999,2.2925397999999997,1010.99316,5.7481469072904,1010.989334481732,0,0
22.06,8.125633,-5.291835,2.2546625,1010.95526,5.748156339878645,1010.9892849165597,0,0
22.08,8.139932,-5.2775335,2.3114717000000002,1010.96326,5.748199076120057,1010.9891474310738,0,0
22.1,8.051314999999999,-5.325253,2.3116732000000004,1010.98315,5.74817416138365,1010.9890043581466,0,0
22.12,8.070458,-5.3204875,2.3164096,1010.9852,5.748118834324282,1010.9888642432187,0,0
22.14,8.080065,-5.325255,2.3495545,1010.9778,5.7480744965491954,1010.9887006063933,0,0
22.16,8.060992,-5.315723,2.3542932999999997,1011.0107,5.74799960234799,1010.9886352147107,0,0
22.18,8.147076,-5.220393,2.273813,1010.98004,5.7478998994733645,1010.9885464918474,0,0
22.2,8.080229,-5.3300257,2.354304,1010.9952,5.747825050843668,1010.9884920489546,0,0
22.22,8.108931,-5.268061,2.3401031000000003,1010.9878,5.747745426775218,1010.9884414518384,0,0
22.24,8.156775,-5.248996,2.311701,1010.9870599999999,5.747708361557008,1010.9883917709998,0,0
22.26,8.104268,-5.282364,2.3827236000000003,1011.02,5.747691414137222,1010.9884616626352,0,0
22.28,8.099511999999999,-5.3109636,2.373257,1010.96686,5.74771116244238,1010.9884456528987,0,0
22.3,8.075660000000001,-5.268066,2.359058,1010.97455,5.7476685435153785,1010.9883814823453,0,0
22.32,8.128261,-5.272833,2.3211849,1010.9948,5.747646768874806,1010.9883478879077,0,0
22.34,8.157010000000001,-5.2394685999999995,2.283316,1011.0021,5.747637552582134,1010.9883677114664,0,0
22.36,8.0997,-5.310968,2.3069925,1010.9971,5.747632302916047,1010.9884166638012,0,0
22.38,8.0758705,-5.306204,2.3496083999999997,1010.99677,5.7476057633857724,1010.9884899900948,0,0
22.4,8.075894,-5.3014374,2.3306727,1010.9789400000001,5.747545997029043,1010.9885204012435,0,0
22.42,8.152442,-5.2823730000000015,2.3496167999999997,1010.9892,5.747574830278273,1010.98854971909,0,0
22.44,8.099910000000001,-5.296673999999999,2.2738707000000002,1010.98425,5.747572095637331,1010.9885601453502,0,0
22.46,8.076058,-5.282375,2.2454686,1011.0115,5.747471796749054,1010.9886519414706,0,0
22.48,8.085641,-5.282376,2.3022838,1010.9837,5.7473289527011495,1010.9887152255333,0,0
22.5,8.133486,-5.263310400000001,2.3591007999999998,1010.9909,5.747236742748664,1010.9887790085193,0,0
22.52,8.023598,-5.325277,2.3401674999999997,1010.9806,5.7470632846057645,1010.9888059227346,0,0
22.54,8.047521000000001,-5.325278,2.344904,1010.9705,5.746861261168287,1010.988763802814,0,0
22.56,8.090632000000001,-5.344346,2.24549,1010.98865,5.746681014073224,1010.9887261759616,0,0
22.58,8.090632000000001,-5.344346,2.24549,1011.0111699999999,5.7465206574438605,1010.9887737266417,0,0
22.6,8.085453,-5.4063015,2.2501879000000002,1010.9781,5.7464413614573715,1010.9887773170062,0,0
22.62,8.147619,-5.277605,2.3827540000000003,1010.9778,5.746459810957298,1010.9887409711115,0,0
22.64,8.114203999999999,-5.2442402999999995,2.3401482000000002,1010.9806,5.746450333748513,1010.9886795483827,0,0
22.66,8.138117999999999,-5.2347074000000005,2.3732905,1010.98596,5.746462681372873,1010.9886154848856,0,0
22.68,8.123808,-5.306207,2.4821843999999995,1010.9806,5.746603472362358,1010.9885300226337,0,0
22.7,8.047375,-5.3014410000000005,2.3543594,1010.98816,5.746658658655062,1010.9884531761064,0,0
22.72,8.03305,-5.339574,2.3875017000000005,1010.9852,5.746672817444236,1010.9883735630812,0,0
22.74,8.109555,-5.2633095,2.430114,1010.9975599999999,5.746716628805685,1010.9883362881848,0,0
22.76,8.133498,-5.2680774,2.33543,1010.9700300000001,5.746785221911257,1010.988237449449,0,0
22.78,8.152632,-5.268078,2.3827755,1010.995,5.746931168906338,1010.988174460724,0,0
22.8,8.123969,-5.277611299999999,2.4159174,1010.9646,5.747123409757191,1010.9880339358278,0,0
22.82,8.080994,-5.2633123,2.3496397,1011.01495,5.747234459368186,1010.9880066658608,0,0
22.84,8.042784,-5.2966795,2.3496425,1010.997,5.747245739348713,1010.9880149461203,0,0
22.86,8.081052,-5.315746,2.359114,1010.9975599999999,5.747259200768426,1010.9880566247521,0,0
22.88,8.076300999999999,-5.3109803,2.3543819999999998,1010.9795,5.747258908410699,1010.988062648142,0,0
22.9,8.0667715,-5.320514,2.2928379,1010.9674699999999,5.747211075943442,1010.9879938368756,0,0
22.92,8.143276,-5.315748,2.3638566,1010.9837,5.747279868002512,1010.9879175774283,0,0
22.94,8.105053,-5.3062162000000015,2.3259826,1010.9795,5.747357801352207,1010.9878198913016,0,0
22.96,8.038165,-5.330049,2.3307195,1010.9844400000001,5.747359470167061,1010.9877214082317,0,0
22.98,8.014324,-5.4063153,2.359131,1010.9918,5.747353292227904,1010.9876490715213,0,0
23.0,7.9808949999999985,-5.3586507,2.2455082,1010.9739400000001,5.747175480347023,1010.9875358021463,0,0
23.02,8.0813,-5.339585,2.2644484,1010.95905,5.747003350465223,1010.9873331684391,0,0
23.04,8.114788,-5.315753,2.3402019,1010.9812,5.746903331180087,1010.987132041889,0,0
23.06,8.000102,-5.4349174000000025,2.359142,1010.9708,5.7468175449141885,1010.9868955311183,0,0
23.08,8.061695,-5.3395730000000015,2.3306856,1010.9787,5.7467267383325895,1010.9866570462897,0,0
23.1,8.061695,-5.3395730000000015,2.3306856,1010.9536,5.746631822703731,1010.986327315728,0,0
23.12,8.16208,-5.2585416,2.3401554,1010.9888,5.746618499508807,1010.9860448674672,0,0
23.14,8.123847999999999,-5.3014410000000005,2.3922346,1010.98615,5.746685312544923,1010.9857956746613,0,0
23.16,7.9231024,-5.425371599999999,2.2975469,1010.97815,5.74657827399506,1010.9855479634692,0,0
23.18,8.009143,-5.392005999999999,2.3732977,1010.95575,5.746461041729258,1010.9852218131912,0,0
23.2,8.090408,-5.3062086,2.297548,1010.99615,5.746339053318622,1010.984972968278,0,0
23.22,8.066512,-5.3109746,2.2738764,1010.9708,5.746166880810696,1010.9847020662272,0,0
23.24,8.03306,-5.344341,2.3448932,1010.99054,5.745966164788852,1010.9844837137364,0,0
23.26,8.071308,-5.330041400000002,2.335425,1010.9833,5.74578475835845,1010.984286516106,0,0
23.28,8.061755,-5.330041400000002,2.2833471000000003,1010.9829,5.745579807399559,1010.984107280822,0,0
23.3,8.099999,-5.358641,2.3638327,1010.99255,5.745490162961555,1010.983979302314,0,0
23.32,7.9757314,-5.4110737,2.325958,1010.99054,5.745334590890875,1010.983889839016,0,0
23.34,8.047432,-5.3252754,2.3590991000000003,1010.9725300000001,5.745161428680016,1010.9837698938254,0,0
23.36,8.028325,-5.415840599999999,2.2928188,1011.0028699999999,5.745010689750004,1010.9837326706372,0,0
23.38,8.095245,-5.330042400000001,2.2880845,1010.97504,5.744894433029903,1010.9836684866141,0,0
23.4,8.1621685,-5.315742500000002,2.3070228,1011.00995,5.7449155210506655,1010.9837063870593,0,0
23.42,8.195634,-5.473039,2.3543673,1010.97974,5.745312265517428,1010.9837255968989,0,0
23.44,8.224318499999999,-5.6446357,2.3591025,1010.9693599999999,5.746284354678659,1010.9836908545648,0,0
23.46,8.248221000000001,-5.6112699999999975,2.3070242000000003,1010.97424,5.747738511972928,1010.9836261331618,0,0
23.48,8.162189999999999,-5.2728443,2.1602580000000002,1010.9823,5.749021469190827,1010.9835641712508,0,0
23.5,7.908867999999999,-5.1727467,2.0040236,1010.982,5.749537407785361,1010.9835037906897,0,0
23.52,7.622089,-5.420607599999999,2.3401669999999997,1010.9843,5.7493341238863005,1010.9834533047792,0,0
23.54,7.5599574999999986,-5.6303363,2.43959,1010.9968,5.748694454882827,1010.9834567435316,0,0
23.56,7.6507773,-5.7066016,2.4537935,1010.9864,5.747917152190172,1010.9834703777364,0,0
23.58,8.115286,-5.6303577,2.0987926,1010.9867,5.747525519613022,1010.9834940515599,0,0
23.6,8.330417,-5.425397,1.7531848,1011.0014,5.747469972357121,1010.9835794311647,0,0
23.62,8.27788,-5.3396,1.478593,1010.9862,5.7474334799353075,1010.9836643066316,0,0
23.64,8.27788,-5.3396,1.478593,1010.98334,5.7474139557376125,1010.98373813509,0,0
23.66,7.8812375,-5.5445642,2.2976525000000003,1010.9737,5.747295926786685,1010.9837672326297,0,0
23.68,7.690085400000001,-5.630363,2.3497345000000003,1010.9683,5.746904157687407,1010.983737261178,0,0
23.7,7.680546799999999,-5.7113953,2.36394,1010.9987,5.7463605944045995,1010.9837646442633,0,0
23.72,7.886118400000001,-5.625598,2.3260682,1010.9808300000001,5.745899800277755,1010.983778275238,0,0
23.74,8.258984,-5.3491387,2.1130237999999997,1010.9882,5.745725537908895,1010.9838062377763,0,0
23.76,8.196887,-5.468303,1.8905102999999999,1010.96783,5.745740585244298,1010.9837734310196,0,0
23.78,8.082192,-5.5302690000000005,1.9378563000000002,1010.9808300000001,5.7458185637680685,1010.9837338466173,0,0
23.8,7.934079,-5.5159709999999995,2.1840507999999996,1010.9648,5.745793514214674,1010.9836307079917,0,0
23.82,7.9723377000000015,-5.487372,2.2266624,1010.9830300000001,5.745728000560352,1010.9835374121533,0,0
23.84,8.053636000000001,-5.4587736,2.3639638,1010.9953,5.7457958156616415,1010.9834973212667,0,0
23.86,8.001097999999999,-5.511207,2.406577,1010.9705,5.745974447940638,1010.9834151066028,0,0
23.88,8.072857,-5.4349437000000025,2.1319876,1010.9777,5.746153822137741,1010.9833218873417,0,0
23.9,8.187612,-5.4206448,2.1840694,1010.96783,5.746534131527502,1010.9831837480086,0,0
23.92,8.187673,-5.301482,2.359248200000001,1011.0002,5.747040888962221,1010.9831229466008,0,0
23.94,8.001281,-5.2728834,2.302437,1010.9672,5.74728296603396,1010.9830118998692,0,0
23.96,7.394286599999999,-5.6971083,2.1746117999999997,1010.9802,5.7467275271683285,1010.9829036561378,0,0
23.98,7.3417287,-5.673276,2.2550988,1010.9901,5.745394560925544,1010.9828339188142,0,0
24.0,7.6859155,-5.4301825,2.2740400000000003,1010.962,5.743655950840362,1010.9826972968076,0,0
24.02,8.154417,-5.2252220000000005,2.2361722,1010.977,5.74210186252586,1010.982556067334,0,0
24.04,8.254813,-5.277654599999999,2.2503772,1010.98724,5.74095155768829,1010.9824481391286,0,0
24.06,8.355209,-5.311022,2.3498015,1010.99457,5.740416820328082,1010.9823964124656,0,0
24.08,8.660166,-4.9725730000000015,2.1366662999999995,1010.9868,5.740504614336356,1010.9823665597012,0,0
24.1,8.631487,-4.96304,2.1366662999999995,1010.9893,5.741081972042746,1010.9823651421837,0,0
24.12,8.454634,-5.067903500000001,2.1887448,1010.9616,5.741911034888033,1010.9822891351532,0,0
24.14,8.359036999999999,-5.1727676,2.50595,1010.9893,5.743057655157187,1010.9822472144548,0,0
24.16,8.335139,-5.1870675,2.4586057999999995,1010.9741,5.74443091003346,1010.9821808433536,0,0
24.18,8.143947,-5.082203,2.5154185,1010.9991,5.7455904075423065,1010.9821831068124,0,0
24.2,8.081809,-5.091737,2.5154185,1011.0039999999999,5.7464612064549625,1010.9822636476199,0,0
24.22,7.799801299999999,-5.220433,2.4870121,1010.99115,5.746724271447466,1010.9823668043463,0,0
24.24,7.9192963,-5.315765,2.5959034,1010.9711,5.746813895318108,1010.982417393134,0,0
24.26,7.861938,-5.330064299999999,2.3828554,1010.99115,5.746558373961912,1010.9824935307713,0,0
24.28,8.100928,-5.244267,2.2550263,1010.9656,5.746242996272367,1010.9824999892772,0,0
24.3,8.330359,-5.1012697,2.22662,1010.99115,5.746101467649794,1010.9825368360513,0,0
24.32,8.53111,-4.891541,2.415996,1010.98315,5.746337782108718,1010.9825716012513,0,0
24.34,8.53111,-4.891541,2.415996,1010.9806,5.7469071079823975,1010.9825952220174,0,0
24.36,8.105708,-5.08697,2.5864346,1010.9781,5.747325275312452,1010.982599910527,0,0
24.38,8.019672,-5.110803,2.638513,1010.9906599999999,5.747516732084049,1010.9826330696162,0,0
24.4,7.995773,-5.244267,2.6574507,1010.98773,5.747622640585778,1010.9826807179367,0,0
24.42,8.057910000000001,-5.220433,2.3733864,1010.9557,5.747581147318455,1010.9826256894085,0,0
24.44,8.344699,-5.1632347,2.3402457,1010.9728,5.747820912015339,1010.9825416937188,0,0
24.46,8.53111,-5.0393042999999995,2.3307767000000004,1011.0032,5.7484967468072545,1010.98254184503,0,0
24.48,8.511991499999999,-4.991639,2.34498,1010.99817,5.749480022679192,1010.9825982400864,0,0
24.5,8.206083999999999,-5.1537023,2.4917464,1011.0081,5.750446678602916,1010.982739877094,0,0
24.52,8.206083999999999,-5.1537023,2.4917464,1010.9828,5.751395169179075,1010.9828652439966,0,0
24.54,7.9527545,-5.2871656,2.5154185,1010.9928,5.752054311358532,1010.983011783313,0,0
24.56,7.986213,-5.2776318,2.5296217999999997,1010.98755,5.752508404838147,1010.9831576030333,0,0
24.58,8.220424000000001,-5.1060367,2.4301994,1010.97504,5.7529387000830265,1010.9832572259668,0,0
24.6,8.377895,-4.986866,2.2928777,1010.967,5.753425674803497,1010.9832867267777,0,0
24.62,8.377895,-4.986866,2.2928777,1010.97156,5.753960978399602,1010.9832705774776,0,0
24.64,8.3157425,-5.001165,2.4112365000000002,1010.97705,5.754501962198337,1010.9832339138774,0,0
24.66,8.191458,-5.067897,2.3828292,1010.9945,5.754887866391788,1010.98324207583,0,0
24.68,8.330055999999999,-5.0297637,2.5011878,1010.9946,5.755393768272216,1010.9832901762584,0,0
