Timestamp,Ax,Ay,Az,P,Value,Type
0.0,-2.1546152000000003,5.844628299999999,6.3772,1003.4513,0,0
0.04,-1.6288247,6.1878204000000006,8.441400999999999,1003.5334,0,0
0.08,-2.2071695,5.2488084000000015,8.029509,1003.5414400000001,0,0
0.12,-1.7291778000000002,6.0924883,7.0305505,1003.5049,0,0
0.16,-1.9442582999999998,5.6873309999999995,7.1299740000000025,1003.4839999999999,0,0
0.2,-1.6574587,3.771175,7.972699,1003.4924,0,0
0.24,-1.9633554,4.629155,9.293598,1003.4327,0,0
0.28,-1.872527,3.089557,8.020045,1003.4681,0,0
0.32,-1.5235906000000001,2.560469,8.716004,1003.5227699999999,0,0
0.36,-1.2559109,1.8979172999999998,7.470855999999999,1003.5106,0,0
0.4,-1.4184128,0.14859048,9.894873,1003.4962,0,0
0.44,0.044217914000000004,2.0504463,8.65446,1003.4689300000001,0,0
0.48,1.2678598,1.535658,7.290952000000001,1003.49176,0,0
0.52,1.0671194,-0.1231042,4.8953443,1003.51965,0,0
0.56,0.60826975,-0.6664919,6.0836809999999995,1003.53723,0,0
0.6,1.1531781,-1.0811826,8.3798685,1003.57025,0,0
0.64,2.2907830000000002,-1.4243748999999999,4.5734080000000015,1003.52545,0,0
0.68,3.643478,-0.7427577,5.018443,1003.5509,0,0
0.72,5.526732,-2.2060907000000003,4.024219,1003.54083,0,0
0.76,7.720673,-2.2203908,8.711281,1003.5312,0,0
0.8,7.2092456999999985,-3.5502602999999997,2.0878495999999998,1003.5464,0,0
0.84,11.176495,-3.4787621,4.350896,1003.49646,0,0
0.88,10.940561,-4.9039207000000005,3.4654046999999997,1003.5394,0,0
0.92,13.95178,-4.5082949999999995,4.080872,1003.53723,0,0
0.96,12.2501135,-5.361507,2.78364,1003.5727,0,0
1.0,11.743398,-4.7180204,-0.06647703,1003.5350300000001,0,0
1.04,11.222342999999999,-5.8429269999999995,1.4153867,1003.56036,0,0
1.08,11.112349499999999,-6.1765842000000015,1.5810852,1003.53534,0,0
1.12,10.438343,-6.5293083,0.5489803000000001,1003.5883,0,0
1.16,9.931629,-6.1289163,-0.09490372,1003.58075,0,0
1.2,9.52529,-5.7189913,-0.6488343000000001,1003.5894,0,0
1.24,8.808262,-5.699923,0.004508335,1003.56885,0,0
1.28,8.468839,-5.8905845,0.24595776,1003.5892,0,0
1.32,8.033819,-5.8810496,0.25068694,1003.5994,0,0
1.36,7.7517533,-6.2099404,-0.15647711,1003.6023,0,0
1.4,7.4457884000000005,-7.0679193,-0.17068554,1003.6051,0,0
1.44,6.939079799999999,-7.6256056,0.089702144,1003.5752,0,0
1.48,6.6522307000000005,-7.7257023,-0.3174622,1003.58765,0,0
1.52,6.3319300000000025,-8.230955,-0.19437261,1003.578,0,0
1.56,6.2601795,-7.863929,0.14176525,1003.5905,0,0
1.6,5.944651599999999,-7.1632440000000015,-0.6725579,1003.57385,0,0
1.64,5.887237,-6.996413,-1.1460037,1003.58636,0,0
1.68,6.226546,-7.187073700000001,-1.1176025,1003.5889,0,0
1.72,6.3698864,-7.5826970000000005,-1.1554826,1003.58417,0,0
1.76,6.4032917000000005,-7.8019567,-0.66310936,1003.5641,0,0
1.8,6.1881433,-8.016451,-0.6252393,1003.5971699999999,0,0
1.84,5.9012975999999995,-7.9497175,-0.91877764,1003.55927,0,0
1.88,6.097664,-7.468305,-0.61573976,1003.5927,0,0
1.92,6.3987517,-6.8581850000000015,-0.4453048,1003.57745,0,0
1.96,6.718959299999999,-6.7533197,-0.5968093000000001,1003.5627,0,0
2.0,6.718925,-6.839117,-0.45951468,1003.5681,0,0
2.04,6.699764,-7.0583773,-0.5400035,1003.5556,0,0
2.08,6.1835084,-7.644663,-1.5673727,1003.5884,0,0
2.12,7.129867599999999,-7.5397973,-0.5258074,1003.5685,0,0
2.16,6.7522287,-7.987853,-1.0702673,1003.56635,0,0
2.2,6.73785,-7.663726299999999,-0.9045665999999999,1003.5786,0,0
2.24,6.073418,-7.0726724,-1.0844775,1003.5867,0,0
2.28,5.7865934,-6.9678073000000005,-2.0171587,1003.5891,0,0
2.32,6.5178614,-7.0297713,-1.4016899,1003.57416,0,0
2.36,6.766374000000001,-7.282398,-1.3306772,1003.5921,0,0
2.4,6.5177855000000005,-7.5111919999999985,-1.2738677999999999,1003.5796,0,0
2.44,6.6850385999999995,-7.4968910000000015,-1.3638253,1003.5898,0,0
2.48,6.4985876,-7.6255875,-1.2928127,1003.5903300000001,0,0
2.52,6.5559077000000014,-7.392025,-1.2123313,1003.555,0,0
2.56,6.5845475,-6.948734299999999,-1.4395863000000002,1003.60284,0,0
2.6,6.7900395000000024,-6.624607000000001,-1.3969802,1003.5857,0,0
2.64,6.6800675000000025,-6.5054426,-1.6715790000000001,1003.5732,0,0
2.68,6.7230463,-6.6341386,-1.5484881000000001,1003.55585,0,0
2.72,7.0050178,-6.7962003,-1.6337110000000001,1003.5864,0,0
2.76,7.0097585,-7.36342,-1.2407588,1003.57635,0,0
2.8,6.9810405,-7.706611,-1.0987303,1003.57635,0,0
2.84,6.808925599999999,-7.401550999999999,-1.5295649,1003.58136,0,0
2.88,6.7605495,-6.548322,-1.7047908,1003.5718400000001,0,0
2.92,6.4641410000000015,-6.1145644,-1.5769674999999999,1003.55927,0,0
2.96,6.4354010000000015,-6.8104796,-1.6053795,1003.5768,0,0
3.0,6.502261,-7.3062005,-1.340258,1003.5745,0,0
3.04,6.593013000000001,-7.463495299999999,-1.0467309,1003.5871599999999,0,0
3.08,6.7076706999999995,-7.6303234,-1.0562049,1003.56995,0,0
3.12,6.6215777000000005,-7.5254574000000005,-1.311868,1003.5726,0,0
3.16,6.6167364,-7.3967589999999985,-1.6574851000000002,1003.5905,0,0
3.2,6.6501345999999995,-6.934402,-1.6764282,1003.563,0,0
3.24,6.7026515,-6.6388735999999975,-1.5201985,1003.5783,0,0
3.28,6.6356773,-6.786636,-1.5202036,1003.5755,0,0
3.32,6.4300809999999995,-7.1441255,-1.5912256999999999,1003.586,0,0
3.36,6.4252405,-7.4777837,-1.5912312,1003.60333,0,0
3.4,6.5494580000000004,-7.668443700000001,-1.4160633999999999,1003.5735,0,0
3.44,6.6832350000000025,-7.3967490000000025,-0.87161213,1003.5836,0,0
3.48,6.5206614,-6.85336,-0.6538351,1003.58655,0,0
3.52,6.401109,-6.5911984,-0.8432165999999999,1003.5715,0,0
3.56,6.640034,-6.8628899999999975,-1.5770553,1003.5615,0,0
3.6,6.941105,-7.2537460000000005,-1.5533885,1003.55896,0,0
3.64,6.8263288,-7.372909,-1.1793761,1003.597,0,0
3.68,6.9505467,-7.453939,-1.0278804,1003.5871599999999,0,0
3.72,7.0030637,-7.3633729999999975,-1.4776543,1003.5798300000001,0,0
3.76,6.802250999999999,-7.315706,-1.4587222,1003.56213,0,0
3.8,6.663564,-7.067842999999999,-1.4066503000000001,1003.6152,0,0
3.84,6.634836,-6.834281,-1.406655,1003.5977,0,0
3.88,6.5733690000000005,-6.986827000000001,-1.2266861999999998,1003.5903,0,0
3.92,6.592464,-7.1917887,-1.2740325000000001,1003.5752,0,0
3.96,6.5828729999999975,-7.5111465,-1.0988623,1003.57294,0,0
4.0,6.5446024000000005,-7.8924704,-1.0609901000000002,1003.5779,0,0
4.04,6.7979007,-7.6207759999999976,-1.1130716,1003.5529,0,0
4.08,6.8839073000000015,-7.182252,-1.0420581,1003.6008,0,0
4.12,7.127639299999999,-6.762794,-1.3261258999999999,1003.6084599999999,0,0
4.16,6.836038,-6.8390584,-1.468161,1003.58325,0,0
4.2,6.601798,-7.1584167,-1.4444917,1003.5738,0,0
4.24,6.3723415999999995,-7.2871130000000015,-1.0610073,1003.5885,0,0
4.28,6.3914230000000005,-7.3729105,-1.2077773,1003.5813,0,0
4.32,6.4439774000000005,-7.272812400000001,-0.9947311,1003.58374,0,0
4.36,6.396148999999999,-7.258511500000001,-0.9710619,1003.57916,0,0
4.4,6.6589990000000014,-7.044015400000001,-0.9426591000000001,1003.5567,0,0
4.44,6.5681534,-7.206077599999999,-1.1131004999999998,1003.5816699999999,0,0
4.48,6.410386,-7.0058812999999995,-1.1036347,1003.5741,0,0
4.52,6.362556,-7.029713,-1.1983257999999999,1003.5892,0,0
4.56,6.4485626,-7.129811,-1.0136867,1003.5695,0,0
4.6,6.539349,-7.125043400000001,-0.9284701,1003.5744,0,0
4.64,6.663593,-7.0773773,-0.8385191999999999,1003.5844,0,0
4.68,6.5823045,-7.2489724,-0.96161664,1003.5771,0,0
4.72,6.477115,-7.2013054000000025,-0.7911811,1003.5922,0,0
4.76,6.5392246,-7.2108383,-0.9142781999999999,1003.5622599999999,0,0
4.8,6.62523,-7.0916733999999995,-0.8811403,1003.6023,0,0
4.84,6.7542524,-7.1870036,-0.8527367,1003.5872,0,0
4.88,6.782317999999999,-7.3156857,-1.0469036,1003.5872,0,0
4.92,6.7201295,-7.2155867,-0.91907924,1003.5872,0,0
4.96,6.643601400000001,-7.301383500000001,-1.0658504999999998,1003.59265,0,0
5.0,6.700902,-7.2584834,-1.2126223999999999,1003.5825,0,0
5.04,6.480976,-7.4014789999999975,-1.1936897,1003.5881,0,0
5.08,6.5430589999999995,-7.339512299999999,-1.23157,1003.5881,0,0
5.12,6.461755,-7.3967094,-1.2315743000000001,1003.60345,0,0
5.16,6.5668526,-7.186979300000001,-1.2031733,1003.5780599999999,0,0
5.2,6.705412,-7.1345463,-0.9995988000000001,1003.5961,0,0
5.24,6.7340393,-7.125012,-0.86704016,1003.6010000000001,0,0
5.28,6.7387686,-7.248941,-0.8054975000000001,1003.586,0,0
5.32,6.772169,-7.134542,-0.8433780999999999,1003.57355,0,0
5.36,6.6621823000000004,-7.263238,-0.7439602,1003.57355,0,0
5.4,6.561752,-7.2108045,-0.6634804,1003.5939,0,0
5.44,6.4995666,-7.0058413,-0.8575953000000002,1003.581,0,0
5.48,6.427812,-7.1393036999999975,-0.6019428000000001,1003.566,0,0
5.52,6.260464,-7.277532000000001,-0.82919914,1003.57385,0,0
5.56,6.4563847,-7.2632318,-0.8339383,1003.5685,0,0
5.6,6.4945655,-7.2155643,-0.61142653,1003.5559699999999,0,0
5.64,6.4706182,-7.4109917,-1.0233241,1003.55615,0,0
5.68,6.484904,-7.4157577,-0.9333754000000001,1003.5790400000001,0,0
5.72,6.403592,-7.5873523,-0.45047116,1003.5663,0,0
5.76,6.652083999999999,-7.248925,-1.1653717,1003.5788,0,0
5.8,6.6807117,-7.1964917,-1.3168773999999999,1003.57635,0,0
5.84,6.709339599999999,-7.105925599999999,-1.0091456,1003.5939,0,0
5.88,6.4463925,-7.2298550000000015,-0.7534930000000001,1003.5487699999999,0,0
5.92,6.4367849999999995,-7.3585505000000015,-1.0375617,1003.5668,0,0
5.96,6.522767,-7.2679853,-0.6872206999999999,1003.5543,0,0
6.0,6.603965799999999,-7.124987,-0.6256786999999999,1003.5819,0,0
6.04,-2.1546152000000003,5.844628299999999,6.3772,1003.4513,0,0
6.08,-1.6288247,6.1878204000000006,8.441400999999999,1003.5334,0,0
6.12,-2.2071695,5.2488084000000015,8.029509,1003.5414400000001,0,0
6.16,-1.7291778000000002,6.0924883,7.0305505,1003.5049,0,0
6.2,-1.9442582999999998,5.6873309999999995,7.1299740000000025,1003.4839999999999,0,0
6.24,-1.6574587,3.771175,7.972699,1003.4924,0,0
6.28,-1.9633554,4.629155,9.293598,1003.4327,0,0
6.32,-1.872527,3.089557,8.020045,1003.4681,0,0
6.36,-1.5235906000000001,2.560469,8.716004,1003.5227699999999,0,0
6.4,-1.2559109,1.8979172999999998,7.470855999999999,1003.5106,0,0
6.44,-1.4184128,0.14859048,9.894873,1003.4962,0,0
6.48,0.044217914000000004,2.0504463,8.65446,1003.4689300000001,0,0
6.52,1.2678598,1.535658,7.290952000000001,1003.49176,0,0
6.56,1.0671194,-0.1231042,4.8953443,1003.51965,0,0
6.6,0.60826975,-0.6664919,6.0836809999999995,1003.53723,0,0
6.64,1.1531781,-1.0811826,8.3798685,1003.57025,0,0
6.68,2.2907830000000002,-1.4243748999999999,4.5734080000000015,1003.52545,0,0
6.72,3.643478,-0.7427577,5.018443,1003.5509,0,0
6.76,5.526732,-2.2060907000000003,4.024219,1003.54083,0,0
6.8,7.720673,-2.2203908,8.711281,1003.5312,0,0
6.84,7.2092456999999985,-3.5502602999999997,2.0878495999999998,1003.5464,0,0
6.88,11.176495,-3.4787621,4.350896,1003.49646,0,0
6.92,10.940561,-4.9039207000000005,3.4654046999999997,1003.5394,0,0
6.96,13.95178,-4.5082949999999995,4.080872,1003.53723,0,0
7.0,12.2501135,-5.361507,2.78364,1003.5727,0,0
7.04,11.743398,-4.7180204,-0.06647703,1003.5350300000001,0,0
7.08,11.222342999999999,-5.8429269999999995,1.4153867,1003.56036,0,0
7.12,11.112349499999999,-6.1765842000000015,1.5810852,1003.53534,0,0
7.16,10.438343,-6.5293083,0.5489803000000001,1003.5883,0,0
7.2,9.931629,-6.1289163,-0.09490372,1003.58075,0,0
7.24,9.52529,-5.7189913,-0.6488343000000001,1003.5894,0,0
7.28,8.808262,-5.699923,0.004508335,1003.56885,0,0
7.32,8.468839,-5.8905845,0.24595776,1003.5892,0,0
7.36,8.033819,-5.8810496,0.25068694,1003.5994,0,0
7.4,7.7517533,-6.2099404,-0.15647711,1003.6023,0,0
7.44,7.4457884000000005,-7.0679193,-0.17068554,1003.6051,0,0
7.48,6.939079799999999,-7.6256056,0.089702144,1003.5752,0,0
7.52,6.6522307000000005,-7.7257023,-0.3174622,1003.58765,0,0
7.56,6.3319300000000025,-8.230955,-0.19437261,1003.578,0,0
7.6,6.2601795,-7.863929,0.14176525,1003.5905,0,0
7.64,5.944651599999999,-7.1632440000000015,-0.6725579,1003.57385,0,0
7.68,5.887237,-6.996413,-1.1460037,1003.58636,0,0
7.72,6.226546,-7.187073700000001,-1.1176025,1003.5889,0,0
7.76,6.3698864,-7.5826970000000005,-1.1554826,1003.58417,0,0
7.8,6.4032917000000005,-7.8019567,-0.66310936,1003.5641,0,0
7.84,6.1881433,-8.016451,-0.6252393,1003.5971699999999,0,0
7.88,5.9012975999999995,-7.9497175,-0.91877764,1003.55927,0,0
7.92,6.097664,-7.468305,-0.61573976,1003.5927,0,0
7.96,6.3987517,-6.8581850000000015,-0.4453048,1003.57745,0,0
8.0,6.718959299999999,-6.7533197,-0.5968093000000001,1003.5627,0,0
8.04,6.718925,-6.839117,-0.45951468,1003.5681,0,0
8.08,6.699764,-7.0583773,-0.5400035,1003.5556,0,0
8.12,6.1835084,-7.644663,-1.5673727,1003.5884,0,0
8.16,7.129867599999999,-7.5397973,-0.5258074,1003.5685,0,0
8.2,6.7522287,-7.987853,-1.0702673,1003.56635,0,0
8.24,6.73785,-7.663726299999999,-0.9045665999999999,1003.5786,0,0
8.28,6.073418,-7.0726724,-1.0844775,1003.5867,0,0
8.32,5.7865934,-6.9678073000000005,-2.0171587,1003.5891,0,0
8.36,6.5178614,-7.0297713,-1.4016899,1003.57416,0,0
8.4,6.766374000000001,-7.282398,-1.3306772,1003.5921,0,0
8.44,6.5177855000000005,-7.5111919999999985,-1.2738677999999999,1003.5796,0,0
8.48,6.6850385999999995,-7.4968910000000015,-1.3638253,1003.5898,0,0
8.52,6.4985876,-7.6255875,-1.2928127,1003.5903300000001,0,0
8.56,6.5559077000000014,-7.392025,-1.2123313,1003.555,0,0
8.6,6.5845475,-6.948734299999999,-1.4395863000000002,1003.60284,0,0
8.64,6.7900395000000024,-6.624607000000001,-1.3969802,1003.5857,0,0
8.68,6.6800675000000025,-6.5054426,-1.6715790000000001,1003.5732,0,0
8.72,6.7230463,-6.6341386,-1.5484881000000001,1003.55585,0,0
8.76,7.0050178,-6.7962003,-1.6337110000000001,1003.5864,0,0
8.8,7.0097585,-7.36342,-1.2407588,1003.57635,0,0
8.84,6.9810405,-7.706611,-1.0987303,1003.57635,0,0
8.88,6.808925599999999,-7.401550999999999,-1.5295649,1003.58136,0,0
8.92,6.7605495,-6.548322,-1.7047908,1003.5718400000001,0,0
8.96,6.4641410000000015,-6.1145644,-1.5769674999999999,1003.55927,0,0
9.0,6.4354010000000015,-6.8104796,-1.6053795,1003.5768,0,0
9.04,6.502261,-7.3062005,-1.340258,1003.5745,0,0
9.08,6.593013000000001,-7.463495299999999,-1.0467309,1003.5871599999999,0,0
9.12,6.7076706999999995,-7.6303234,-1.0562049,1003.56995,0,0
9.16,6.6215777000000005,-7.5254574000000005,-1.311868,1003.5726,0,0
9.2,6.6167364,-7.3967589999999985,-1.6574851000000002,1003.5905,0,0
9.24,6.6501345999999995,-6.934402,-1.6764282,1003.563,0,0
9.28,6.7026515,-6.6388735999999975,-1.5201985,1003.5783,0,0
9.32,6.6356773,-6.786636,-1.5202036,1003.5755,0,0
9.36,6.4300809999999995,-7.1441255,-1.5912256999999999,1003.586,0,0
9.4,6.4252405,-7.4777837,-1.5912312,1003.60333,0,0
9.44,6.5494580000000004,-7.668443700000001,-1.4160633999999999,1003.5735,0,0
9.48,6.6832350000000025,-7.3967490000000025,-0.87161213,1003.5836,0,0
9.52,6.5206614,-6.85336,-0.6538351,1003.58655,0,0
9.56,6.401109,-6.5911984,-0.8432165999999999,1003.5715,0,0
9.6,6.640034,-6.8628899999999975,-1.5770553,1003.5615,0,0
9.64,6.941105,-7.2537460000000005,-1.5533885,1003.55896,0,0
9.68,6.8263288,-7.372909,-1.1793761,1003.597,0,0
9.72,6.9505467,-7.453939,-1.0278804,1003.5871599999999,0,0
9.76,7.0030637,-7.3633729999999975,-1.4776543,1003.5798300000001,0,0
9.8,6.802250999999999,-7.315706,-1.4587222,1003.56213,0,0
9.84,6.663564,-7.067842999999999,-1.4066503000000001,1003.6152,0,0
9.88,6.634836,-6.834281,-1.406655,1003.5977,0,0
9.92,6.5733690000000005,-6.986827000000001,-1.2266861999999998,1003.5903,0,0
9.96,6.592464,-7.1917887,-1.2740325000000001,1003.5752,0,0
10.0,6.5828729999999975,-7.5111465,-1.0988623,1003.57294,0,0
10.04,6.5446024000000005,-7.8924704,-1.0609901000000002,1003.5779,0,0
10.08,6.7979007,-7.6207759999999976,-1.1130716,1003.5529,0,0
10.12,6.8839073000000015,-7.182252,-1.0420581,1003.6008,0,0
10.16,7.127639299999999,-6.762794,-1.3261258999999999,1003.6084599999999,0,0
10.2,6.836038,-6.8390584,-1.468161,1003.58325,0,0
10.24,6.601798,-7.1584167,-1.4444917,1003.5738,0,0
10.28,6.3723415999999995,-7.2871130000000015,-1.0610073,1003.5885,0,0
10.32,6.3914230000000005,-7.3729105,-1.2077773,1003.5813,0,0
10.36,6.4439774000000005,-7.272812400000001,-0.9947311,1003.58374,0,0
10.4,6.396148999999999,-7.258511500000001,-0.9710619,1003.57916,0,0
10.44,6.6589990000000014,-7.044015400000001,-0.9426591000000001,1003.5567,0,0
10.48,6.5681534,-7.206077599999999,-1.1131004999999998,1003.5816699999999,0,0
10.52,6.410386,-7.0058812999999995,-1.1036347,1003.5741,0,0
10.56,6.362556,-7.029713,-1.1983257999999999,1003.5892,0,0
10.6,6.4485626,-7.129811,-1.0136867,1003.5695,0,0
10.64,6.539349,-7.125043400000001,-0.9284701,1003.5744,0,0
10.68,6.663593,-7.0773773,-0.8385191999999999,1003.5844,0,0
10.72,6.5823045,-7.2489724,-0.96161664,1003.5771,0,0
10.76,6.477115,-7.2013054000000025,-0.7911811,1003.5922,0,0
10.8,6.5392246,-7.2108383,-0.9142781999999999,1003.5622599999999,0,0
10.84,6.62523,-7.0916733999999995,-0.8811403,1003.6023,0,0
10.88,6.7542524,-7.1870036,-0.8527367,1003.5872,0,0
10.92,6.782317999999999,-7.3156857,-1.0469036,1003.5872,0,0
10.96,6.7201295,-7.2155867,-0.91907924,1003.5872,0,0
11.0,6.643601400000001,-7.301383500000001,-1.0658504999999998,1003.59265,0,0
11.04,6.700902,-7.2584834,-1.2126223999999999,1003.5825,0,0
11.08,6.480976,-7.4014789999999975,-1.1936897,1003.5881,0,0
11.12,6.5430589999999995,-7.339512299999999,-1.23157,1003.5881,0,0
11.16,6.461755,-7.3967094,-1.2315743000000001,1003.60345,0,0
11.2,6.5668526,-7.186979300000001,-1.2031733,1003.5780599999999,0,0
11.24,6.705412,-7.1345463,-0.9995988000000001,1003.5961,0,0
11.28,6.7340393,-7.125012,-0.86704016,1003.6010000000001,0,0
11.32,6.7387686,-7.248941,-0.8054975000000001,1003.586,0,0
11.36,6.772169,-7.134542,-0.8433780999999999,1003.57355,0,0
11.4,6.6621823000000004,-7.263238,-0.7439602,1003.57355,0,0
11.44,6.561752,-7.2108045,-0.6634804,1003.5939,0,0
11.48,6.4995666,-7.0058413,-0.8575953000000002,1003.581,0,0
11.52,6.427812,-7.1393036999999975,-0.6019428000000001,1003.566,0,0
11.56,6.260464,-7.277532000000001,-0.82919914,1003.57385,0,0
11.6,6.4563847,-7.2632318,-0.8339383,1003.5685,0,0
11.64,6.4945655,-7.2155643,-0.61142653,1003.5559699999999,0,0
11.68,6.4706182,-7.4109917,-1.0233241,1003.55615,0,0
11.72,6.484904,-7.4157577,-0.9333754000000001,1003.5790400000001,0,0
11.76,6.403592,-7.5873523,-0.45047116,1003.5663,0,0
11.8,6.652083999999999,-7.248925,-1.1653717,1003.5788,0,0
11.84,6.6807117,-7.1964917,-1.3168773999999999,1003.57635,0,0
11.88,6.709339599999999,-7.105925599999999,-1.0091456,1003.5939,0,0
11.92,6.4463925,-7.2298550000000015,-0.7534930000000001,1003.5487699999999,0,0
11.96,6.4367849999999995,-7.3585505000000015,-1.0375617,1003.5668,0,0
12.0,6.522767,-7.2679853,-0.6872206999999999,1003.5543,0,0
12.04,6.603965799999999,-7.124987,-0.6256786999999999,1003.5819,0,0
12.08,6.5035386,-7.1488185,-0.6067458,1003.58154,0,0
12.12,6.646878699999999,-7.4109774,-0.68723565,1003.5668300000001,0,0
12.16,6.7137413,-7.5968723,-0.6635686,1003.5690300000001,0,0
12.2,6.914442,-7.544439,-0.82927746,1003.5668,0,0
12.24,6.966964999999999,-7.3585410000000016,-0.76773524,1003.57434,0,0
12.28,6.718360400000001,-7.372839999999999,-0.8434908000000001,1003.5592,0,0
12.32,6.5271177000000025,-7.229842,-0.87190175,1003.5695,0,0
12.36,6.699132400000001,-7.215541,-0.7109373999999999,1003.5642,0,0
12.4,6.560467,-7.287038000000001,-0.7204109000000001,1003.5668,0,0
12.44,6.6273300000000015,-7.296570299999999,-0.9997458,1003.5771,0,0
12.48,6.5460214999999975,-7.3633003,-0.819843,1003.5646,0,0
12.52,6.2639556,-7.4967622999999985,-0.6778162,1003.5468,0,0
12.56,6.498118,-7.3394647,-0.79618067,1003.5468,0,0
12.6,6.5601974,-7.358528999999999,-0.56893456,1003.5773300000001,0,0
12.64,6.6127243,-7.1916990000000025,-0.7867218,1003.5796,0,0
12.68,6.507514,-7.144032000000001,-0.7015076,1003.5771,0,0
12.72,6.316268,-7.043933,-0.73938775,1003.56934,0,0
12.76,6.526528,-7.220294,-0.7535957,1003.5696,0,0
12.8,6.6029496,-7.7303143,-0.49320847,1003.5773300000001,0,0
12.84,6.402144,-7.954342,-0.7820121,1003.5771,0,0
12.88,6.6936603,-7.501517,-1.217582,1003.5924,0,0
12.92,6.7672315,-7.191737,-1.245817,1003.61957,0,0
12.96,6.6047024999999975,-7.039207000000001,-1.0848485,1003.5346,0,0
13.0,6.4087152000000005,-7.206036,-1.1842726000000001,1003.5674,0,0
13.04,6.337001,-7.2966003,-0.9712258,1003.60504,0,0
13.08,6.532959,-7.349032000000001,-0.91441417,1003.55255,0,0
13.12,6.6667767000000016,-7.277533,-0.75344604,1003.60004,0,0
13.16,6.6380820000000025,-7.1631350000000005,-0.8102603,1003.58,0,0
13.2,6.542471400000001,-7.182200999999999,-0.68243283,1003.58014,0,0
13.24,6.5042167,-7.3204308000000005,-0.6919031,1003.5799,0,0
13.28,6.5711184000000005,-7.4205284,-0.64929485,1003.58,0,0
13.32,6.7288356,-7.301363999999999,-0.8718133,1003.6053,0,0
13.36,6.824417599999999,-7.1440673,-1.0422533,1003.5875,0,0
13.4,6.6236496,-7.120234,-1.1653494,1003.5676,0,0
13.44,6.4754596,-7.2346315,-1.1842883999999998,1003.5649,0,0
13.48,6.2985907,-7.6159554000000025,-0.92389745,1003.60046,0,0
13.52,6.556685400000001,-7.4634247,-0.7155851,1003.56506,0,0
13.56,6.8195586,-7.134532000000001,-0.9049628000000001,1003.5676,0,0
13.6,6.4897366,-7.3394938,-0.8576200999999999,1003.5701,0,0
13.64,6.265070400000001,-7.5206227,-0.81501186,1003.5975300000001,0,0
13.68,6.2076970000000005,-7.444357000000001,-0.8150133,1003.60046,0,0
13.72,6.346297,-7.229862,-1.0327973,1003.5849,0,0
13.76,6.427536,-7.3966910000000015,-0.9191731,1003.55505,0,0
13.8,6.633053299999999,-7.2441607,-0.9665186,1003.5726,0,0
13.84,6.9007070000000015,-7.2012615,-1.0517391999999999,1003.5824,0,0
13.88,6.924589,-7.1631284,-1.0138655,1003.5600599999999,0,0
13.92,6.4516160000000005,-7.353796000000001,-0.77239007,1003.55505,0,0
13.96,6.3225555,-7.3061304000000025,-0.89075065,1003.5501,0,0
14.0,6.265192,-7.630256,-0.8007975,1003.5928,0,0
14.04,6.432478,-7.520625,-0.71557885,1003.5776,0,0
14.08,6.6858015,-7.3871617,-0.7487202,1003.55505,0,0
14.12,6.82919,-7.1440673,-1.0848636999999999,1003.58777,0,0
14.16,6.4229,-7.349028999999999,-1.1464115,1003.585,0,0
14.2,6.1122065,-7.5206246,-1.0611928,1003.58,0,0
14.24,6.2221355,-7.487259,-1.0185837,1003.5821,0,0
14.28,6.341625,-7.463425,-0.9238959999999999,1003.5825,0,0
14.32,6.4180946,-7.4157600000000015,-0.86708385,1003.58,0,0
14.36,6.308153599999999,-7.544457,-0.95230365,1003.59296,0,0
14.4,6.226891,-7.6254883,-1.0753986999999998,1003.55255,0,0
14.44,6.4467554000000025,-7.3537940000000015,-1.0233209,1003.5221,0,0
14.48,6.4419694000000005,-7.3823934000000015,-1.0327903,1003.5675699999999,0,0
14.52,6.3415870000000005,-7.415759599999999,-0.9617747,1003.5751,0,0
14.56,6.5279937000000015,-7.306128,-1.0233226999999998,1003.5624,0,0
14.6,6.504089,-7.4634240000000025,-0.857619,1003.5875,0,0
14.64,6.6809350000000025,-7.2679954,-0.8008066,1003.59,0,0
14.68,6.661810000000001,-7.239395599999999,-0.9475738000000001,1003.5699,0,0
14.72,6.6044455,-7.1583643,-0.9807152,1003.59,0,0
14.76,6.4849442999999996,-7.2965946,-0.9807157,1003.5854,0,0
14.8,6.561413000000001,-7.306127,-0.87182516,1003.5624,0,0
14.84,6.5422892999999975,-7.201263000000001,-0.69665265,1003.5824,0,0
14.88,6.594640299999999,-7.267989,-0.6730014,1003.5724,0,0
14.92,6.690222,-7.5825815,-0.7960972,1003.5624,0,0
14.96,6.580275,-7.463417,-0.86237985,1003.5545699999999,0,0
15.0,6.6041584,-7.2012563,-1.1322426,1003.58014,0,0
15.04,6.465529,-7.4014516000000015,-0.9618051999999999,1003.5600599999999,0,0
15.08,6.3938136,-7.344252,-0.97127575,1003.5674,0,0
15.12,6.513294,-7.453883,-0.88132334,1003.5773300000001,0,0
15.16,6.604095,-7.3919169999999985,-0.8150430999999999,1003.585,0,0
15.2,6.532385,-7.420516,-0.74876267,1003.5771,0,0
15.24,6.460672,-7.4395820000000015,-0.9902188000000001,1003.6075400000001,0,0
15.28,6.436757,-7.210787,-1.0280955,1003.585,0,0
15.32,6.412848,-7.101155800000001,-0.9097361999999999,1003.61005,0,0
15.36,6.412828,-7.301350599999999,-0.8292531999999999,1003.5696,0,0
15.4,6.3650155,-7.592110000000001,-0.7393008000000001,1003.5799,0,0
15.44,6.2933035,-7.6302423,-0.8339904,1003.5949,0,0
15.48,6.2837305,-7.363314999999999,-1.0328366,1003.5749,0,0
15.52,6.2215776,-7.42528,-0.99022835,1003.5523699999999,0,0
15.56,6.3171577,-7.391913400000001,-1.004433,1003.5846,0,0
15.6,6.3649416,-7.4824777000000005,-0.9286838,1003.5875,0,0
15.64,6.441404,-7.468178,-1.0707171999999998,1003.5771,0,0
15.68,6.479627,-7.6683726,-1.1890787,1003.5595,0,0
15.72,6.6134458,-7.4491105,-1.1370018999999998,1003.5846,0,0
15.76,6.3696613,-7.3680787,-1.2032848999999999,1003.592,0,0
15.8,6.154555,-7.4443436,-1.1559422,1003.5846,0,0
15.84,6.0780625,-7.3823776,-1.0044426,1003.5543,0,0
15.88,6.3648367,-7.3728447,-0.725114,1003.58014,0,0
15.92,6.7566679999999995,-7.2203116,-0.8576876,1003.5268599999999,0,0
15.96,6.8426857000000005,-7.1249804,-0.8434862,1003.59186,0,0
16.0,6.594119,-7.4395723,-0.81508124,1003.5468,0,0
16.04,6.4554860000000005,-7.534903,-0.80087966,1003.59467,0,0
16.08,6.4698057,-7.344239999999999,-0.7156621999999999,1003.58417,0,0
16.12,6.431547599999999,-7.2155429999999985,-0.7630081,1003.58685,0,0
16.16,6.613161999999999,-7.144044,-0.92397946,1003.5819,0,0
16.2,6.766097500000001,-7.272740400000001,-1.0423415,1003.6118,0,0
16.24,6.546207,-7.492002,-0.85296685,1003.5671,0,0
16.28,6.445812999999999,-7.515834299999999,-0.97606295,1003.58655,0,0
16.32,6.5079317,-7.296572,-1.0044712,1003.5617,0,0
16.36,6.417096,-7.4109693,-0.8293,1003.5917,0,0
16.4,6.297583599999999,-7.220306,-0.77248883,1003.58685,0,0
16.44,6.1541705,-7.525365,-0.62572396,1003.5967,0,0
16.48,6.0203169999999995,-7.9543551999999975,-0.69200736,1003.59656,0,0
16.52,6.3740044000000005,-7.339469,-0.7630251,1003.58636,0,0
16.56,6.5795174,-7.3156357000000005,-1.0660287,1003.6042,0,0
16.6,6.7563520000000015,-7.477698299999999,-0.89559186,1003.57935,0,0
16.64,6.780230499999999,-7.3823667,-0.9287344999999999,1003.58655,0,0
16.68,6.694175,-7.225069500000001,-1.1323156,1003.57385,0,0
16.72,6.5794425,-7.272735000000001,-1.1228485000000001,1003.58636,0,0
16.76,6.5459657,-7.2060027,-0.8577234,1003.5989,0,0
16.8,6.5172677000000006,-7.3632984,-0.80091226,1003.5509599999999,0,0
16.84,6.5507073,-7.363297999999999,-0.75830436,1003.58905,0,0
16.88,6.416854,-7.3394647,-0.58313316,1003.57153,0,0
16.92,6.4226813,-7.358556299999999,-0.80555433,1003.5613,0,0
16.96,6.3892455,-7.3585566999999985,-0.90497476,1003.5963,0,0
17.0,6.3510284000000015,-7.3919234,-1.070677,1003.57135,0,0
17.04,6.370172,-7.3204265,-1.3973485,1003.5688,0,0
17.08,6.5613866,-7.2679944,-1.3878778,1003.5964,0,0
17.12,6.700024000000001,-7.2822948000000025,-1.2742499,1003.5788,0,0
17.16,6.7765210000000025,-7.1345315000000005,-1.3121233,1003.5885,0,0
17.2,6.781325,-7.6159544000000015,-0.9333686999999999,1003.5835,0,0
17.24,6.9008410000000024,-7.4634247,-0.62563044,1003.5885,0,0
17.28,6.738351,-7.458659599999999,-0.890755,1003.5885,0,0
17.32,6.633217,-6.610213000000001,-1.2789743,1003.5906,0,0
17.36,5.6438212,-7.487260000000001,-0.9901733,1003.58386,0,0
17.4,5.5243480000000025,-7.039204,-1.0138434,1003.58136,0,0
17.44,5.978452,-8.106914,-0.33208707,1003.5785,0,0
17.48,6.8818564,-7.2679996,-0.30841306,1003.60345,0,0
17.52,7.4650149999999975,-6.629282000000001,-0.9806965,1003.5881,0,0
17.56,6.996615400000001,-6.9152755999999975,-1.3641813,1003.5830699999999,0,0
17.6,6.595136599999999,-7.0868725999999995,-0.85286325,1003.59564,0,0
17.64,6.8676057,-7.134538,-0.47884357,1003.56793,0,0
17.68,6.996683999999999,-7.0010753,-0.7629056,1003.5934,0,0
17.72,6.6764617,-7.377634,-0.6256056999999999,1003.586,0,0
17.76,6.5378685,-7.363334700000001,-0.63980687,1003.6031,0,0
17.8,6.5474510000000015,-7.220339,-0.9475412,1003.5807,0,0
17.84,6.442317,-7.349036,-1.0706338,1003.58765,0,0
17.88,6.318065,-7.4682007,-0.8812553,1003.60065,0,0
17.92,6.3800955,-7.3728675999999975,-0.91914034,1003.59015,0,0
17.96,6.4087925000000014,-7.4634314,-1.0232958,1003.5822,0,0
18.0,6.3896894,-7.482498599999999,-0.8907308,1003.58014,0,0
18.04,6.5235415,-7.387167999999999,-0.75816584,1003.5698,0,0
18.08,6.4518623,-7.3633356,-0.75342983,1003.5976,0,0
18.12,6.3610644,-7.3919353,-0.6966153,1003.5747,0,0
18.16,6.475796,-7.4157686,-0.6587386,1003.5772,0,0
18.2,6.609648,-7.4014697,-0.5167048,1003.5622599999999,0,0
18.24,6.566646,-7.4586678,-0.5403754,1003.5822,0,0
18.28,6.494967,-7.506335000000001,-0.74395317,1003.5945,0,0
18.32,6.394609,-7.558767299999999,-0.9475309000000001,1003.5847,0,0
18.36,6.2416725,-7.620733,-1.2268593,1003.5746,1,1
18.4,6.141312999999999,-8.002057,-1.3830931,1003.5517,1,1
18.44,5.821085,-8.030658,-1.4399042,1003.5846,1,1
18.48,5.36702,-8.27852,-1.7997173999999998,1003.5717,1,1
18.52,5.008552,-8.488248,-1.7381687,1003.5692,1,1
18.56,4.444553400000001,-8.636011,-2.1879353999999998,1003.5668300000001,1,1
18.6,4.1291046,-9.0650015,-2.1737304,1003.5766,1,1
18.64,3.6702576000000002,-9.365295,-2.4057152000000004,1003.5766,1,1
18.68,4.941706,-8.707511,-1.4730353,1003.5917,1,1
18.72,5.6204540000000005,-8.373853,-1.1510947,1003.5866,1,1
18.76,6.801083,-7.8113994999999985,-0.7960125,1003.5638,1,1
18.8,7.7188234,-7.320444,-0.45986809999999995,1003.5691,1,1
18.84,8.3163185,-6.9772525,-0.41252232,1003.5688,1,1
18.88,8.956828,-6.209837,0.11299798,1003.5816,1,1
18.92,10.581625,-6.505356,-0.7534288,1003.5761,1,1
18.96,12.780338,-6.1430974,-1.0422271,1003.5738,1,1
19.0,14.228623,-5.7522397000000005,-0.77236575,1003.5963,1,1
19.04,14.080452,-6.6483526,-0.09061113,1003.57574,1,1
19.08,11.972563000000001,-8.6169405,0.54853386,1003.6112699999999,1,1
19.12,9.797756,-9.370056,1.1545379,1003.6188,1,1
19.16,8.411617,-9.832413,1.3107737,1003.5957599999999,1,1
19.2,7.522576299999999,-10.22327,0.72370785,1003.5830699999999,1,1
19.24,6.643096000000001,-10.962088,-0.6208627,1003.60333,1,1
19.28,5.768396,-12.444486999999999,-0.4456894,1003.5906,1,1
19.32,0.8260825999999999,-14.422607000000001,-1.4872581,1003.58545,1,1
19.36,-2.4767582000000004,-14.136614000000002,-4.086446,1003.5656,1,1
19.4,-0.2828248,-13.359665,-2.0033076000000003,1003.5731,1,1
19.44,0.19515939,-13.383498000000001,-3.101689,1003.5553,1,1
19.48,1.8202966,-12.03933,-4.162195,1003.5377,1,1
19.52,4.4826508,-12.182326,-3.5183157999999994,1003.5479,1,1
19.56,7.8524175000000005,-14.289144,-2.902843,1003.5627,1,1
19.6,10.7728815,-14.923096,-0.23263834,1003.58295,1,1
19.64,11.728846,-13.512197,1.4812163,1003.5727,1,1
19.68,10.935400999999999,-10.685628,1.3297157,1003.5673,1,1
19.72,10.204097,-9.841947,0.18399027,1003.55,1,1
19.76,10.830252999999999,-8.683674,-0.20423071,1003.56,1,1
19.8,11.652384,-4.7464986,0.85627645,1003.5702,1,1
19.84,12.297661999999999,-2.4823835,2.1629725,1003.5798300000001,1,1
19.88,12.479705000000001,-2.048637,0.5911876,1003.5624,1,1
19.92,12.384122,-2.4728606,-0.41250485,1003.56714,1,1
19.96,12.747406,-4.6464114,-0.3840967,1003.5771,1,1
20.0,13.732072,-8.278528,-0.7060339,1003.55975,1,1
20.04,13.932844000000001,-11.043132,-0.02427765,1003.587,1,1
20.08,13.426205,-13.650439000000002,0.35921088,1003.6148,1,1
20.12,13.368862,-16.505606,-0.29413557,1003.5993699999999,1,1
20.16,13.727372,-19.360775,-0.36041492,1003.5989400000001,1,1
20.2,12.336466999999999,-18.178669,0.9699544,1003.6319,1,1
20.24,9.148359,-16.548506,1.6422417,1003.6289999999999,1,1
20.28,7.1169634,-14.332059,0.83266044,1003.61395,1,1
20.32,5.7881975,-11.748585,0.3828939,1003.5863,1,1
20.36,4.425972499999999,-10.013558999999999,0.5864751,1003.5938,1,1
20.4,1.3669186000000002,-9.389141,0.2692718,1003.579,1,1
20.44,-2.4664638,-10.051692999999998,-0.062134694000000004,1003.55927,1,1
20.48,-3.5992596,-10.2852545,-0.9048571,1003.58154,1,1
20.52,-1.577381,-10.323387,-0.611322,1003.52356,1,1
20.56,1.1184486,-11.49596,-0.6633986,1003.5109,1,1
20.6,3.5322687999999998,-14.279631,-0.43141103,1003.5260000000001,1,1
20.64,8.097000999999999,-15.7095995,-0.29884583,1003.53394,1,1
20.68,11.55282,-17.635288,-1.245725,1003.5561,1,1
20.72,14.573676,-19.637241,-2.7465292999999997,1003.5333,1,1
20.76,16.810644,-18.602901,-4.0058794,1003.5431,1,1
20.8,15.720869,-14.522727,-1.5061117,1003.5736699999999,1,1
20.84,14.611973999999998,-11.619895,0.44919914,1003.5734,1,1
20.88,13.828104999999999,-9.965899,1.9594759999999998,1003.57825,1,1
20.92,11.743097,-7.7780255999999985,0.88467336,1003.57324,1,1
20.96,10.662839,-4.980056299999998,0.31180844,1003.57074,1,1
21.0,10.438169,-3.6549528,0.42543230000000004,1003.56036,1,1
21.04,11.41801,-3.388025,0.52958745,1003.5859,1,1
21.08,13.965625,-2.653975,1.1592613,1003.5609,1,1
21.12,14.481825,-4.5558309999999995,1.5569496,1003.56287,1,1
21.16,13.129119000000001,-8.879097,0.52484745,1003.58795,1,1
21.2,13.344191,-11.700899,0.5579866,1003.568,1,1
21.24,13.028704,-15.633307,0.5721879,1003.5905,1,1
21.28,12.918747,-18.297812,-0.100099415,1003.5950300000001,1,1
21.32,13.325010999999998,-20.152002,-0.7818555,1003.5975300000001,1,1
21.36,12.517204,-18.950829000000002,0.67160493,1003.61255,1,1
21.4,9.596724499999999,-16.224358,1.7747194,1003.62494,1,1
21.44,7.006050599999999,-14.069875,1.3249491000000002,1003.5975,1,1
21.48,6.279501,-11.534066000000001,0.30705035,1003.6025400000001,1,1
21.52,5.0415125,-10.418692,-0.5214721999999999,1003.57214,1,1
21.56,2.9622759999999997,-9.393881,-0.7581944,1003.57965,1,1
21.6,1.3227844,-8.65983,-0.6445704000000001,1003.5645,1,1
21.64,-0.1350748,-8.07831,-0.17586613,1003.55,1,1
21.68,-1.3682833,-7.9925117,0.31651023,1003.5274699999999,1,1
21.72,-1.0862951,-8.545430999999999,-0.4694028,1003.54944,1,1
21.76,1.5425754999999999,-9.975397000000001,-0.99492365,1003.5295,1,1
21.8,4.343521,-12.487373,-1.3073963,1003.5216,1,1
21.84,8.994249,-15.409272,-1.5062432,1003.5567599999999,1,1
21.88,12.497828,-17.158598,-1.9607476000000001,1003.5268,1,1
21.92,15.391620000000001,-18.969938,-2.1357365,1003.54926,1,1
21.96,17.346622,-19.727821,-0.21356241,1003.5467,1,1
22.0,17.265425,-13.512234,2.3051465,1003.5894,1,1
22.04,15.573431,-7.334778,3.5692375,1003.57135,1,1
22.08,10.827142,-7.372911999999999,1.1168208999999998,1003.57886,1,1
22.12,7.505237599999999,-7.5206766000000025,-1.368736,1003.57135,1,1
22.16,6.750088000000001,-6.400537,-1.1320105,1003.57385,1,1
22.2,8.141072,-5.423394,1.9216862000000001,1003.57635,1,1
22.24,9.842737,-4.207924,4.1942058,1003.57635,1,1
22.28,12.987907,-2.9352543,3.8485997000000003,1003.58136,1,1
22.32,13.269976000000002,-5.537796,0.9606180000000001,1003.5412,1,1
22.36,11.931686000000001,-6.967764999999999,-0.5259799,1003.5612,1,1
22.4,11.410748,-8.759992,-0.79583555,1003.5559699999999,1,1
22.44,11.052322,-11.581795,-2.4244652,1003.568,1,1
22.48,10.201576,-14.117604,-2.6943207,1003.5632,1,1
22.52,9.025801,-14.355934,-1.771107,1003.5581699999999,1,1
22.56,6.0050235,-16.276854999999998,-0.90943974,1003.5857,1,1
22.6,3.6773190000000002,-16.405554000000002,-1.0846073999999999,1003.5735,1,1
22.64,2.7357535,-13.173832,-1.0561958999999999,1003.59564,1,1
22.68,2.0140665,-9.522651,0.33572504,1003.5732,0,0
22.72,2.253109,-7.1584395999999995,0.84231114,1003.5653699999999,0,0
22.76,3.089638,-5.8333387000000005,0.5251118,1003.5729,0,0
22.8,3.8401232000000003,-5.919137999999999,-0.36968556,1003.5578,0,0
22.84,5.3028064000000015,-7.3252735,-1.2029351000000001,1003.5553,0,0
22.88,6.177569999999999,-9.42256,-0.18503255,1003.555,0,0
22.92,7.597227,-8.779077000000001,0.23633459,1003.5700699999999,0,0
22.96,8.486322999999999,-7.411075,1.1122041999999999,1003.555,0,0
23.0,8.911786,-7.2537804,0.023296599999999997,1003.5854,0,0
23.04,8.995845,-6.6912785,-2.0079439,1003.5700699999999,0,0
23.08,8.742503,-6.967739,-0.7627967,1003.5773300000001,0,0
23.12,8.427024000000001,-7.03447,0.6196484,1003.55707,0,0
23.16,8.570405000000001,-6.533981,0.66225684,1003.6025,0,0
23.2,8.761586,-6.038259,0.046783168,1003.56476,0,0
23.24,8.546484,-6.0525584000000014,-0.32723588,1003.5974,0,0
23.28,7.490129,-6.81044,-0.05737631400000001,1003.5772,0,0
23.32,6.997800999999999,-6.9391375,0.056248598,1003.5617,0,0
23.36,6.8018164999999975,-7.186998,-0.09998788,1003.57416,0,0
23.4,6.610612,-7.6874866,-0.3840533,1003.557,0,0
23.44,6.548464,-7.859082000000001,-0.38405427,1003.5621,0,0
23.48,6.405057,-7.744683999999999,-0.49768108,1003.5796,0,0
23.52,6.338127,-7.682718799999999,-0.6160424,1003.592,0,0
23.56,6.180382700000001,-7.5444884000000005,-0.6539186,1003.602,0,0
23.6,5.9604989999999995,-7.692251700000001,-0.5402941,1003.5917400000001,0,0
23.64,5.6880374000000025,-7.7589827000000025,-0.43613836,1003.5642,0,0
23.68,5.61155,-7.9496449999999985,-0.4124673,1003.5717,0,0
23.72,5.883986,-7.9115114,-0.31778035,1003.57635,0,0
23.76,6.2328997,-7.320459,-0.58764255,1003.5867,0,0
23.8,6.471877,-6.9391336,-0.7580821999999999,1003.58417,0,0
23.84,6.395387599999999,-7.4110227,-0.45981592,1003.57666,0,0
23.88,6.3236794000000005,-7.7542149999999985,-0.21836235,1003.5711699999999,0,0
23.92,6.591336,-7.7589808000000025,0.16038886,1003.5786,0,0
23.96,6.5722059999999995,-7.6350503,0.14145035,1003.5685,0,0
24.0,6.7442649999999995,-7.277558,-0.27991292,1003.5936,0,0
24.04,6.840317,-7.4968309999999985,-0.5402635,1003.576,0,0
24.08,6.668251,-7.4396324000000025,-0.36508986,1003.5659,0,0
24.12,6.7829723,-7.0583076,-0.40296456,1003.5635,0,0
24.16,7.0554276,-6.653150599999999,-0.85273236,1003.5885,0,0
24.2,6.524877,-7.344301,-0.58760506,1003.58344,0,0
24.24,6.596578599999999,-7.6064625,-0.16150826,1003.5856,0,0
24.28,6.630045,-7.758992,0.023134238999999997,1003.5882,0,0
24.32,6.90728,-7.1441064,-0.12836613,1003.5556,0,0
24.36,6.859486599999999,-6.9915767,-0.4787116,1003.5780599999999,0,0
24.4,6.529687,-7.01541,-0.52132064,1003.5581,0,0
24.44,6.190328,-7.3538356,-0.5307888000000001,1003.60345,0,0
24.48,6.2046741999999995,-7.558797999999999,-0.3461464,1003.5755,0,0
24.52,6.300276,-7.6112304,-0.21831696,1003.5902,0,0
24.56,6.5583906,-7.282337700000001,-0.50711524,1003.5581,0,0
24.6,6.5536179999999975,-7.4015017000000025,-0.8195851999999999,1003.59283,0,0
24.64,6.4245696,-7.4062686,-0.6538805,1003.5525,0,0
24.68,6.4389157,-7.272805,-0.5686606,1003.55005,0,0
24.72,6.5297375,-7.282338,-0.69175464,1003.57745,0,0
24.76,6.649238599999999,-7.277572,-0.890599,1003.5950300000001,0,0
24.8,6.711380999999999,-7.2251395999999986,-0.7343632,1003.6,0,0
24.84,6.725727,-6.977278699999999,-0.8858636000000001,1003.5772,0,0
24.88,6.687496,-6.939147,-0.99001986,1003.5618,0,0
24.92,6.7878785000000015,-7.191775,-0.92373747,1003.56714,0,0
24.96,7.0459943,-7.134575999999999,-0.39821799999999996,1003.58,0,0
25.0,6.9360633,-7.034478,-0.5875938,1003.56213,0,0
25.04,6.716775999999999,-6.929628999999999,-0.43130505,1003.58435,0,0
25.08,6.63555,-6.9105630000000025,-0.5543967,1003.5995,0,0
25.12,6.5591006,-7.1536584,-0.365018,1003.5566,0,0
25.16,6.7312007,-7.453952,-0.21824895,1003.5893599999999,0,0
25.2,7.070596000000001,-7.5635834000000015,-0.4360289000000001,1003.5693,0,0
25.24,7.046728,-7.1870259999999995,-0.8384504999999999,1003.5668,0,0
25.28,6.7312884,-7.020198,-1.1840596,1003.5816699999999,0,0
25.32,6.5210047,-7.129828999999999,-1.0372905000000001,1003.57935,0,0
25.36,6.3633003,-7.2203940000000015,-0.8479116,1003.5693,0,0
25.4,6.6548977,-7.0202,-0.94259703,1003.5693,0,0
25.44,7.0038524,-6.8152384999999995,-1.1035641,1003.5815,0,0
25.48,7.0468974,-6.9582357,-0.9331229999999999,1003.57385,0,0
25.52,7.233341,-6.891505,-0.76268166,1003.61176,0,0
25.56,7.328963000000001,-6.4863480000000004,-0.8194921000000001,1003.56604,0,0
25.6,7.0039679999999995,-6.5673804,-0.83842695,1003.57635,0,0
25.64,6.6359496,-7.5540576,-0.4691409000000001,1003.58386,0,0
25.68,6.874967599999999,-7.263299000000001,-0.39812228,1003.5960699999999,0,0
25.72,7.161786599999999,-6.557849000000001,-0.45019794,1003.56854,0,0
25.76,7.008862,-6.5673832999999995,-0.34130390000000005,1003.5858,0,0
25.8,6.7412205,-7.020207000000001,-0.62063134,1003.5484,0,0
25.84,6.774708,-7.172737,-0.5022685,1003.5659,0,0
25.88,6.693478599999999,-7.2299365999999985,-0.39810908,1003.5914300000001,0,0
25.92,6.9229389999999995,-6.9296440000000015,-0.78632766,1003.5908,0,0
25.96,6.985105,-7.048808599999999,-0.98990434,1003.5632,0,0
26.0,6.9182167,-6.967778,-1.0893244,1003.5832,0,0
26.04,6.89377,-6.891499499999999,-1.0609678999999999,1003.5934,0,0
26.08,6.989372299999999,-6.8200009999999995,-1.1651243999999998,1003.56335,0,0
26.12,7.0706353,-6.8486009999999995,-0.8431841999999998,1003.6056,0,0
26.16,7.0945406,-6.796169,-0.6727449999999999,1003.5882,0,0
26.2,7.0563080000000005,-6.643639,-0.66327566,1003.5955,0,0
26.24,6.92726,-6.553075,-0.5259773,1003.578,0,0
26.28,6.8412294000000005,-6.691304700000001,-0.59699285,1003.5826400000001,0,0
26.32,6.9320517000000015,-7.1679606,-0.49283540000000003,1003.5857,0,0
26.36,7.0850115,-7.191794,-0.4123499,1003.5755,0,0
26.4,7.3765864,-6.6293406,-0.677476,1003.563,0,0
26.44,7.118483500000001,-6.6293406,-0.9757429,1003.5830000000001,0,0
26.48,6.793463,-6.901033999999999,-0.8526478000000001,1003.57294,0,0
26.52,6.659634599999999,-7.034497999999999,-0.5401765000000001,1003.5649,0,0
26.56,6.9559880000000005,-6.905801299999999,-0.38394067,1003.5726,0,0
26.6,7.0181320000000005,-6.8295364,-0.9425998,1003.59265,0,0
26.64,6.965560400000001,-7.0011325,-0.60645646,1003.6051,0,0
26.68,6.826952499999999,-7.0297317999999995,-0.47389263,1003.59515,0,0
26.72,6.917775,-6.7485056,-0.46915764,1003.5776400000001,0,0
26.76,7.003817999999999,-6.7199063,-0.55911076,1003.5949,0,0
26.8,6.9990440000000005,-6.7485056,-0.28924912,1003.6002,0,0
26.84,7.152003999999999,-6.677007700000001,-0.26084217,1003.5549,0,0
26.88,7.070753,-6.615042,-0.36973290000000003,1003.6026,0,0
26.92,6.917806,-6.643642,-0.45021720000000004,1003.59973,0,0
26.96,6.8747940000000005,-7.110764,-0.49282628,1003.5975,0,0
27.0,6.8795800000000025,-7.344326,-0.37919995,1003.5872,0,0
27.04,7.142475599999999,-7.1059985,-0.49282515,1003.5643,0,0
27.08,7.199839,-6.929636,-0.65379435,1003.58417,0,0
27.12,7.0707911999999995,-6.858137599999999,-0.9615299999999999,1003.59186,0,0
27.16,6.7505507,-7.158431,-0.6206523,1003.59424,0,0
27.2,6.6406255000000005,-7.0726333,-0.53543204,1003.59686,0,0
27.24,6.721887599999999,-7.105999499999999,-0.3744618,1003.5893,0,0
27.28,6.8796277,-7.24423,-0.22296025,1003.5923,0,0
27.32,7.0421476,-7.063100299999999,-0.07145876,1003.6044,0,0
27.36,7.1138515,-6.948703299999999,-0.2134902,1003.58386,0,0
27.4,7.0565,-7.029734599999999,-0.3981314,1003.61176,0,0
27.44,6.7458186,-6.9391704,-0.06198815,1003.57385,0,0
27.48,6.6932472999999995,-6.977303,-0.5969753000000001,1003.5913,0,0
27.52,6.6741350000000015,-7.139366000000001,-0.3365824,1003.5938,0,0
27.56,6.6837,-7.2918963,-0.39339477,1003.5892,0,0
27.6,6.9800553,-7.1488996,-0.42180052,1003.6192,0,0
27.64,6.9418225000000024,-7.0297356,-0.52595687,1003.6038,0,0
27.68,6.6646004,-7.020203599999999,-0.44547144,1003.6008,0,0
27.72,6.540332,-7.0583353,-0.36025155,1003.5964,0,0
27.76,6.6502740000000005,-6.839074,-0.32237574,1003.6112699999999,0,0
27.8,6.707638,-7.072636,-0.19454625,1003.6112699999999,0,0
27.84,6.6933045,-7.2251654000000025,-0.1187952,1003.5984,0,0
27.88,6.822365799999999,-7.3252634999999975,-0.22768585,1003.5935,0,0
27.92,6.8606105,-7.449194,-0.13773163,1003.5833,0,0
27.96,6.870176299999999,-7.1107683,-0.5022803,1003.6182,0,0
28.0,6.769807000000001,-7.1965666,-0.6537805999999999,1003.5959,0,0
28.04,6.6359787,-7.2728314,-0.33657485,1003.58325,0,0
28.08,6.7124630000000005,-7.2156334000000015,-0.3129022,1003.5732,0,0
28.12,6.769825999999999,-7.0202050000000025,-0.49754345,1003.6007699999999,0,0
28.16,7.004042999999999,-6.91534,-0.5780276999999999,1003.6033,0,0
28.2,6.8756185,-6.8676906,-0.5069541,1003.5804400000001,0,0
28.24,6.6557746,-6.7532935,-0.5258891,1003.5776400000001,0,0
28.28,6.5793333,-7.372947,-0.47854179999999996,1003.6054,0,0
28.32,6.976087,-7.6970735,-0.42646062,1003.59,0,0
28.36,7.353723,-7.406314,-0.43592656,1003.5827,0,0
28.4,7.3919992,-6.8390949999999995,-0.8620194999999999,1003.5878,0,0
28.44,6.8901452999999995,-6.6531997,-0.9472364999999999,1003.61285,0,0
28.48,6.536468,-6.896294999999999,-0.6868416,1003.61285,0,0
28.52,6.3166304,-7.3634186,-0.16131966,1003.60785,0,0
28.56,6.2688627,-7.5111823000000015,-0.042956825,1003.60535,0,0
28.6,6.59392,-7.2966880000000005,0.14168788,1003.6379,0,0
28.64,6.799484,-7.210891,-0.009810191,1003.5925,0,0
28.68,6.8616509999999975,-7.1822919999999995,-0.41696623,1003.62225,0,0
28.72,7.0002966,-7.3157570000000005,-0.5731987,1003.5973,0,0
28.76,7.0529065000000015,-7.206127,-0.71996236,1003.5843,0,0
28.8,7.0385985,-6.724705,-0.94247645,1003.6094400000001,0,0
28.84,7.0625296,-6.6627407000000005,-1.3685701000000001,1003.597,0,0
28.88,6.7709894,-6.6627410000000005,-1.5105996000000002,1003.5845,0,0
28.92,6.4412165,-7.19183,-0.66313803,1003.61194,0,0
28.96,6.608539599999999,-7.187064,-0.23703893,1003.61694,0,0
29.0,6.947937,-7.101267,-0.0760663,1003.62225,0,0
29.04,6.9336294999999994,-7.1394005000000025,-0.13287625,1003.58636,0,0
29.08,6.8237257,-7.0583696,-0.32224953,1003.59155,0,0
29.12,6.5226355000000025,-7.1346354000000005,-0.5352943,1003.5991,0,0
29.16,6.5035476999999995,-7.029772,-0.72466755,1003.5861,0,0
29.2,6.3884854,-7.2108919999999985,-0.7625746,1003.5989,0,0
29.24,6.19731,-7.5302525,-0.5826656,1003.60645,0,0
29.28,6.5223527,-7.3777227,-0.9093380999999999,1003.6015,0,0
29.32,6.785258,-7.3205247,-0.72942924,1003.5939,0,0
29.36,6.947783,-7.2251935,-0.6489433000000001,1003.59155,0,0
29.4,6.957362700000001,-7.1107964999999975,-0.8667242000000001,1003.6139,0,0
29.44,6.876117999999999,-7.0583649999999984,-0.84778535,1003.63635,0,0
29.48,6.694503299999999,-6.9725676,-0.72468925,1003.5914,0,0
29.52,6.7566559999999996,-6.848636999999999,-0.5589837,1003.5964,0,0
29.56,6.780575999999999,-6.700875,-0.72468597,1003.5983,0,0
29.6,6.694553999999999,-6.9249034,-0.56844926,1003.5836,0,0
29.64,6.665892599999999,-7.263329,-0.5305725,1003.5986300000001,0,0
29.68,6.8809996,-7.654186699999999,-0.41221080000000004,1003.6079,0,0
29.72,7.1008863,-7.2394967,-0.8430403000000001,1003.5757,0,0
29.76,7.0196423999999995,-6.9392039999999975,-1.1034313,1003.60333,0,0
29.8,6.766333,-6.996403699999999,-0.923522,1003.5852699999999,0,0
29.84,6.7998075,-7.058368700000001,-0.5826435000000001,1003.6156,0,0
29.88,6.833284,-6.9439725999999995,-0.6820644,1003.5953,0,0
29.92,6.9002149999999975,-6.8581743,-0.7909543000000001,1003.5953,0,0
29.96,6.919351,-6.7533107,-0.6347176,1003.59546,0,0
30.0,6.852450999999999,-6.8581753,-0.36485490000000004,1003.6055,0,0
30.04,6.446182299999999,-7.2252006999999985,-0.123398945,1003.5978,0,0
30.08,6.44142,-7.1632357,-0.06658447,1003.6128,0,0
30.12,6.5035734000000005,-7.263333999999999,-0.26069355,1003.5977,0,0
30.16,6.694781,-7.3681984,-0.60156935,1003.6332,0,0
30.2,7.0048227,-7.1250887,-0.8099420999999999,1003.6055,0,0
30.24,7.1864448,-6.8057284,-0.92356884,1003.6055,0,0
30.28,7.157756,-6.786662599999999,-1.1082115,1003.5777,0,0
30.32,7.004792699999999,-6.7914286,-1.1366188999999998,1003.58734,0,0
30.36,6.9283056,-7.0631223,-0.7673363000000001,1003.6203,0,0
30.4,6.937855,-7.477812299999999,-0.43119445,1003.6024,0,0
30.44,7.191174,-7.258550599999999,-0.18027195,1003.5949,0,0
30.48,7.086009,-6.9058247,-0.35544580000000003,1003.58966,0,0
30.52,6.5458813,-7.001156,-0.21814896,1003.58435,0,0
30.56,6.4215956,-6.929657499999999,-0.39805728,1003.58435,0,0
30.6,6.5697600000000005,-7.1250860000000005,-0.118728355,1003.6047,0,0
30.64,6.703585,-7.0249877000000005,-0.09979157,1003.5849,0,0
30.68,6.6318779999999995,-7.1250860000000005,-0.39332557,1003.5591,0,0
30.72,6.9616737,-7.110785000000001,-0.74367255,1003.5891,0,0
30.76,7.4157452999999975,-7.001154,-0.7957518,1003.5791,0,0
30.8,7.219764,-6.9439554,-0.7531431,1003.60913,0,0
30.84,6.956865,-6.8247914000000005,-0.57323664,1003.6122,0,0
30.88,6.9520740000000005,-6.824791,-0.32231414,1003.5914300000001,0,0
30.92,6.985523,-6.839090299999999,-0.24183016,1003.6069,0,0
30.96,6.7417440000000015,-7.2156477,0.08957733,1003.5941,0,0
31.0,6.8755684000000015,-7.120317,0.13218603,1003.60645,0,0
31.04,7.033292299999999,-7.0774174,-0.34125525,1003.61896,0,0
31.08,6.956804300000001,-7.196581,-0.4454132000000001,1003.5889,0,0
31.12,6.861199000000001,-7.044051,-0.7578848000000001,1003.5815,0,0
31.16,6.7608128,-6.8724546,-1.1839821000000001,1003.58374,0,0
31.2,6.81917,-6.891546000000001,-0.9850456,1003.6064,0,0
31.24,6.8622184000000015,-6.967811599999999,-0.47372717,1003.6216,0,0
31.28,6.8144503,-6.977345,-0.15651931,1003.5984,0,0
31.32,6.7093229999999995,-6.986878999999999,-0.07603185,1003.6034,0,0
31.36,6.733248700000001,-7.3348384000000015,-0.085498184,1003.61597,0,0
31.4,6.675924,-7.520735,-0.061823193,1003.5931,0,0
31.44,6.738093400000001,-7.4301710000000005,-0.18018037,1003.5885599999999,0,0
31.48,6.742902000000001,-7.2442759999999975,-0.31274107,1003.5855,0,0
31.52,6.6664534,-7.044080999999999,-0.6678188,1003.55804,0,0
31.56,6.6569259999999995,-7.010716,-1.0039586,1003.5880000000001,0,0
31.6,6.685633,-7.0011835000000024,-0.9424085999999999,1003.5776400000001,0,0
31.64,6.609184700000001,-7.172780499999999,-0.63940424,1003.6005,0,0
31.68,6.4180236,-7.253813,-0.45475966,1003.5830000000001,0,0
31.72,6.3320174000000025,-7.415876400000001,-0.43581924,1003.5830000000001,0,0
31.76,6.676195599999999,-7.9068327000000025,-0.099673554,1003.59265,0,0
31.8,7.154202499999999,-7.611306699999999,0.08023628599999999,1003.6076,0,0
31.84,7.4362435,-6.8343587,-0.5257645000000001,1003.5751300000001,0,0
31.88,6.977411,-6.696129300000001,-0.7009350000000001,1003.58795,0,0
31.92,6.3799660000000005,-7.091753999999999,-0.22749166,1003.5903300000001,0,0
31.96,6.164905,-7.463546000000001,-0.22275446,1003.57275,0,0
32.0,6.2892084000000015,-7.396814999999999,-0.364784,1003.5852,0,0
32.04,6.4230733,-7.3443837,-0.397922,1003.59015,0,0
32.08,6.5856156000000015,-7.4111160000000025,-0.47840434,1003.60535,0,0
32.12,6.7768397,-7.4158839999999975,-0.64883995,1003.5897,0,0
32.16,6.729068799999999,-7.206156,-0.74352556,1003.5748,0,0
32.2,6.461558,-7.125128299999999,-0.6535574000000001,1003.58734,0,0
32.24,6.3803339999999995,-7.239526299999999,-0.44524056,1003.6102,0,0
32.28,6.514204,-7.144196000000001,-0.4310340999999999,1003.60474,0,0
32.32,6.6337347000000015,-7.101298299999999,-0.43576527,1003.58484,0,0
32.36,6.715027,-7.1918634999999975,-0.46890283,1003.5844,0,0
32.4,6.657705,-7.2776622999999985,-0.23691376,1003.5922,0,0
32.44,6.7150984,-7.6637545,-0.11381596,1003.58734,0,0
32.48,6.724688499999999,-7.530292,-0.05226588,1003.5973,0,0
32.52,6.6100087,-7.1871004,-0.4594214,1003.6044,0,0
32.56,6.437971,-7.2538323,-0.8097641,1003.6198,0,0
32.6,6.423665,-7.41113,-0.8334332,1003.6148699999999,0,0
32.64,6.753507000000001,-7.2204690000000005,-0.4878183,1003.59424,0,0
32.68,6.8634787,-7.110839,-0.44047102,1003.6098,0,0
32.72,6.844394,-7.005975200000001,-0.50201505,1003.57935,0,0
32.76,6.887449,-6.9773765,-0.34577638,1003.6098,0,0
32.8,6.8635826,-7.0631756999999995,-0.31263256,1003.6118,0,0
32.84,6.782357000000001,-7.0107446,-0.24161364,1003.6042,0,0
32.88,6.777617,-7.201407400000001,-0.13271868,1003.6118,0,0
32.92,6.992744,-7.1156106,-0.3883733,1003.6016,0,0
32.96,7.1266117,-6.996448,-0.6392936,1003.5765,0,0
33.0,7.0979686,-6.920183,-0.6203528,1003.6042,0,0
33.04,6.925930999999999,-6.81532,-0.7055688,1003.60895,0,0
33.08,6.8399300000000025,-6.791488,-0.73870635,1003.5914300000001,0,0
33.12,6.792165299999999,-6.8868199999999975,-0.6582185,1003.60895,0,0
33.16,6.7730837,-7.3253445999999975,-0.41202596,1003.58154,0,0
33.2,6.9911976,-7.2347364,-0.5305469,1003.6038,0,0
33.24,7.206252,-7.2109027,-0.9045684000000002,1003.5509,0,0
33.28,6.924208999999999,-7.3395990000000015,-1.0276661,1003.5813,0,0
33.32,6.6995210000000025,-6.8486423,-1.0418726,1003.5962,0,0
33.36,6.4748339999999995,-6.991638000000001,-0.8335621999999999,1003.5809300000001,0,0
33.4,6.670771,-6.9439725999999995,-0.6678611,1003.5909,0,0
33.44,6.8667064,-7.2394977,-0.3838002,1003.58344,0,0
33.48,6.986165,-7.4110928,-0.21809937,1003.5734,0,0
33.52,6.837953999999999,-7.282395399999999,-0.4974326,1003.6009,0,0
33.56,6.665847,-7.1298639999999995,-0.8193753,1003.5958,0,0
33.6,6.579772999999999,-6.84387,-1.0655677,1003.5886,0,0
33.64,6.651436299999999,-6.934433500000001,-0.937742,1003.5707,0,0
33.68,6.713537,-6.753303999999999,-0.8241196,1003.6156599999999,0,0
33.72,6.3550143,-6.934432000000001,-0.61580914,1003.58826,0,0
33.76,6.2689414,-7.4873520000000005,-0.48324925,1003.5937,0,0
33.8,6.565247500000001,-7.6875463,-0.3743617,1003.59827,0,0
33.84,6.761189999999999,-7.272855,-0.7720545,1003.5857,0,0
33.88,6.703798,-6.934428,-1.2691700000000001,1003.5932,0,0
33.92,6.574706,-7.1584554,-1.4064711,1003.5932,0,0
33.96,6.646366,-7.4015493,-0.91409636,1003.60565,0,0
34.0,6.8901,-7.1918197,-0.96617824,1003.5852,0,0
34.04,6.813588,-7.1393869999999975,-1.0277288,1003.57526,0,0
34.08,6.6892767000000015,-7.25855,-0.72473013,1003.5880000000001,0,0
34.12,6.6462216,-7.096486,-0.6253111,1003.60565,0,0
34.16,6.6605240000000006,-7.1536839999999975,-0.667924,1003.6101,0,0
34.2,6.628813,-7.353922,-0.573076,1003.6130400000001,0,0
34.24,6.705325,-7.1966267,-0.68669844,1003.6028,0,0
34.28,6.762718,-7.1632614000000014,-0.9376187,1003.5975,0,0
34.32,6.695836,-7.225227999999999,-0.9612875,1003.6052,0,0
34.36,6.576374499999999,-7.32056,-0.87133074,1003.5804400000001,0,0
34.4,6.805842999999999,-7.0726995,-0.8665927999999999,1003.5927,0,0
34.44,6.753298,-7.1537320000000015,-0.57305676,1003.5899699999999,0,0
34.48,6.58605,-7.2299979999999975,-0.43575493,1003.6022300000001,1,2
34.52,6.5096083,-7.1870994999999995,-0.5493774,1003.5821,1,2
34.56,6.5287604,-7.1918674,-0.5114991,1003.5924699999999,1,2
34.6,6.586145,-7.220467599999999,-0.48782468,1003.5846,1,2
34.64,6.6769967,-7.4540289999999985,-0.68193203,1003.5821,1,2
34.68,6.772628299999999,-7.3205667000000005,-0.84763294,1003.5821,1,2
34.72,6.6961913,-6.982142,-0.5351585999999999,1003.5796,1,2
34.76,7.021253,-6.8343789999999975,-0.5162177,1003.6225,1,2
34.8,6.8205279999999995,-7.053642,-0.27002627,1003.60455,1,2
34.84,7.312889999999999,-6.958311999999999,-0.24635036,1003.6372,1,2
34.88,7.680959,-6.8057823000000015,-0.34103617,1003.6092,1,2
34.92,8.742125,-6.1670647,-1.0559268999999998,1003.5946,1,2
34.96,9.325294,-5.7380757000000004,-1.1884872,1003.61426,1,2
35.0,9.693363,-5.5092816,-0.17058791,1003.597,1,2
35.04,9.134171,-5.966872,1.102971,1003.5867,1,2
35.08,8.245163,-6.495961,0.8851916,1003.61426,1,2
35.12,7.552117,-6.8582199999999975,0.6674114999999999,1003.5766,1,2
35.16,6.6057515,-7.4397410000000015,0.58692986,1003.5941,1,2
35.2,6.178910299999999,-7.8019633000000015,0.35481226,1003.6042,1,2
35.24,6.1167483,-8.188054,-0.44530436,1003.61176,1,2
35.28,5.6722054,-8.62181,-0.9518876000000001,1003.60913,1,2
35.32,5.6243834,-8.764806,-0.005008869,1003.58417,1,2
35.36,4.5871415,-9.413058,0.15595870000000006,1003.6167,1,2
35.4,2.7277756,-10.666661,-2.2349179,1003.5736699999999,1,2
35.44,2.5078788,-11.572306,-4.2659793,1003.5891,1,2
35.48,2.5317540000000003,-12.211025,-4.464827,1003.57416,1,2
35.52,3.9608924,-11.577072,-2.8314592999999997,1003.57416,1,2
35.56,5.4521666,-11.901197,-1.595782,1003.5941,1,2
35.6,6.408105,-12.001294999999999,-0.77673197,1003.58417,1,2
35.64,7.488316499999999,-11.190978999999999,0.19381875,1003.6316,1,2
35.68,8.310419,-9.284355999999999,1.6709508000000002,1003.6241,1,2
35.72,8.157442,-7.8591557,1.9928881999999999,1003.5941,1,2
35.76,6.967245599999999,-7.506429,1.1501617,1003.5989400000001,1,2
35.8,6.804708,-7.9926167,1.0270652,1003.5657,1,2
35.84,6.6134949999999995,-7.8591536999999985,1.8508495999999999,1003.58057,1,2
35.88,6.814221000000001,-6.576948599999999,1.5573139999999999,1003.5812400000001,1,2
35.92,8.219461,-7.2156663,1.462624,1003.5634,1,2
35.96,12.114977,-7.3491297000000015,0.63883543,1003.566,1,2
36.0,17.54959,-6.209922,-0.5779088000000001,1003.5838,1,2
36.04,16.106066000000002,-4.579758999999999,-1.9792949,1003.55865,1,2
36.08,13.075645,-8.068878,-2.4243312,1003.60614,1,2
36.12,13.520144,-13.879310999999998,-3.8919987999999996,1003.5984,1,2
36.16,12.951324000000001,-20.643053,-2.4338040000000003,1003.6182,1,2
36.2,12.047916,-21.148308,-0.042932,1003.6934,1,2
36.24,10.805144,-19.637307999999997,1.7372020000000001,1003.6532,1,2
36.28,7.7699447,-17.76405,0.3168785,1003.628,1,2
36.32,6.8044020000000005,-14.236799,-1.2123363999999999,1003.6307400000001,1,2
36.36,5.7193627000000005,-12.158579,-0.7294292,1003.6407,1,2
36.4,4.2328205,-10.199525,-0.00033297762000000005,1003.6177,1,2
36.44,2.3973505,-8.578895,0.4068235,1003.6134,1,2
36.48,0.45672607,-7.382488,0.35000840000000005,1003.6287,1,2
36.52,-1.3978604,-7.616049,-0.35068554,1003.591,1,2
36.56,-2.0909562,-8.631325,-1.7141963,1003.5682400000001,1,2
36.6,0.65262866,-10.642812,-1.7710113999999997,1003.5459,1,2
36.64,4.0367055,-13.531344,-1.5721686000000001,1003.5632,1,2
36.68,7.105314999999999,-16.195848,0.39260727,1003.5726300000001,1,2
36.72,11.082089999999999,-16.7869,1.9549587,1003.57495,1,2
36.76,14.700376,-16.848866,2.1443326000000003,1003.6055,1,2
36.8,14.714692000000001,-16.767834,3.7540282999999994,1003.5899699999999,1,2
36.84,13.730029,-13.593307000000001,2.3763142000000004,1003.59515,1,2
36.88,13.247245000000001,-9.260505,2.333702,1003.61554,1,2
36.92,11.3592,-8.211863000000001,1.4057567,1003.6177,1,2
36.96,8.634687,-8.569353,0.18427826,1003.5797,1,2
37.0,6.7753186,-8.39299,0.35944903,1003.6051,1,2
37.04,6.665360499999999,-6.6817966,1.0885453,1003.6151,1,2
37.08,8.0467,-6.0049443,1.2021687,1003.57745,1,2
37.12,9.999792999999999,-6.190912,-0.2178842,1003.6080300000001,1,2
37.16,14.038765,-3.5740730000000003,-0.8664941999999999,1003.5922,1,2
37.2,15.372368,-4.789546499999998,-1.9838101000000001,1003.6002,1,2
37.24,12.83911,-10.838307,-1.5151006,1003.61725,1,2
37.28,10.39189,-12.435105,0.85210526,1003.59973,1,2
37.32,8.647297,-11.925085000000001,1.7800517,1003.6422,1,2
37.36,8.350986500000001,-12.454172999999999,0.6248604999999999,1003.6372,1,2
37.4,8.178947,-14.270233,0.023594227000000002,1003.6597,1,2
37.44,7.065293,-14.970918,0.17509888,1003.6422,1,2
37.48,5.5310144,-13.555251,1.4960011999999998,1003.62964,1,2
37.52,6.644747,-10.657186,1.9505075,1003.6422,1,2
37.56,7.9162135,-9.074689,1.2640223999999998,1003.6472,1,2
37.6,7.8684535,-7.749586999999999,1.358714,1003.6372,1,2
37.64,7.863706,-6.453085,2.4618335,1003.6497,1,2
37.68,8.1553135,-6.9821740000000005,3.3140300000000003,1003.60693,1,2
37.72,7.820765,-8.221478999999999,3.6785827000000006,1003.5919,1,2
37.76,7.299807,-8.988895,3.7638056000000004,1003.61475,1,2
37.8,6.095332,-9.465552,3.190946,1003.57935,1,2
37.84,4.3794184000000005,-9.985108,2.163583,1003.6118,1,2
37.88,2.3002447999999998,-9.618084,1.1977681999999998,1003.55176,1,2
37.92,1.4733717,-8.850669,1.2498498,1003.5694,1,2
37.96,2.477169,-7.3778043,-2.1210427000000003,1003.5366,1,2
38.0,6.3679676,-7.921193,-6.239971,1003.5467,1,2
38.04,7.897545299999999,-11.829769,-9.620333,1003.53937,1,2
38.08,11.023574,-15.814612,-8.313633,1003.5692,1,2
38.12,13.736920999999999,-15.595312,-7.3100843,1003.5993699999999,1,2
38.16,14.463426,-10.638092,-6.6283326,1003.5967,1,2
38.2,16.313185,-6.8105464000000016,-4.526259400000002,1003.6323,1,2
38.24,13.966277,-6.0288305,-3.6267245000000004,1003.6243,1,2
38.28,10.467435,-9.422618,-1.0796173,1003.6039400000001,1,2
38.32,9.411074000000001,-9.494117,0.98931545,1003.6315,1,2
38.36,9.573564,-8.397807,0.11344837,1003.61145,1,2
38.4,10.496038,-6.481651,-1.5720023,1003.6365,1,2
38.44,11.303801,-5.151781,-1.0322822,1003.6315300000001,1,2
38.48,11.906033,-5.8333983,-0.38840532,1003.62646,1,2
38.52,12.871528999999999,-7.6399225999999985,0.64369273,1003.62604,1,2
38.56,14.185948000000002,-10.90978,3.3044257000000004,1003.6134,1,2
38.6,13.02443,-14.775457000000001,6.0551129999999995,1003.64624,1,2
38.64,10.362055,-15.857465,6.324971700000001,1003.6637,1,2
38.68,8.4740095,-15.175847000000001,5.539058,1003.6737,1,2
38.72,6.638533,-14.046171,3.3754322999999995,1003.6510599999999,1,2
38.76,5.653870599999999,-13.483717,2.4427526000000004,1003.6188,1,2
38.8,4.65487,-12.654336,1.7278553,1003.586,1,2
38.84,3.4359964999999995,-11.796355,1.083974,1003.58875,1,2
38.88,2.7428977000000003,-11.95365,1.1029091999999998,1003.5459,1,2
38.92,3.3833678,-12.663867,0.7430923,1003.6237,1,2
38.96,4.850741999999999,-13.026125,0.7383556,1003.5631,1,2
39.0,7.7377186,-11.705788,-1.1412053999999998,1003.5936,1,2
39.04,9.080817999999999,-9.789632000000001,-2.6467482999999996,1003.5809300000001,1,2
39.08,9.960278,-8.092737,-2.1307002999999995,1003.5634,1,2
39.12,10.774174,-6.1432476,-0.9375089,1003.5885,1,2
39.16,11.06577,-7.3634872000000025,0.9562555,1003.5959,1,2
39.2,10.191092,-10.118558,1.822654,1003.6308,1,2
39.24,8.847995,-12.072847,1.8842038,1003.6006,1,2
39.28,5.636001,-13.788808,-1.3635947,1003.62335,1,2
39.32,2.8111648999999996,-11.677223,-4.8244419999999995,1003.5757,1,2
39.36,1.9699436000000001,-8.931687,-5.1179724,1003.5759,1,2
39.4,0.9662146,-7.6208854000000015,-4.3888717,1003.568,1,2
39.44,0.23015271,-6.758139,-3.6313646,1003.5531599999999,1,2
39.48,1.8839909,-7.2681619999999985,-2.6324023999999997,1003.5956,1,2
39.52,3.815058,-10.414089,-1.8654268,1003.5632,1,2
39.56,7.9352765,-14.155837,-2.6087255000000003,1003.5782,1,2
39.6,12.48568,-15.590572,-3.5129943,1003.58026,1,2
39.64,14.574481,-13.831714000000002,-2.0027168,1003.5804400000001,1,2
39.68,16.118382999999998,-7.1633,0.028345425,1003.6231,1,2
39.72,14.043978,-4.832455,0.21298976,1003.6156599999999,1,2
39.76,11.276489,-6.0097947,-1.3540965,1003.628,0,0
39.8,7.8016076000000005,-7.2443337,-3.4182937000000004,1003.6231,0,0
39.84,7.5865445000000005,-6.276724,-3.2620556,1003.6079,0,0
39.88,7.596125,-5.976431400000001,-3.3046637000000003,1003.6231,0,0
39.92,8.093259,-6.3196244,-2.234685,1003.6282,0,0
39.96,8.446992,-7.5732293,-0.8096266,1003.6303,0,0
40.0,8.351421,-8.269147,0.74326044,1003.643,0,0
40.04,7.7300744,-8.421678,1.4250171999999999,1003.6355,0,0
40.08,7.3859477,-8.550375,0.88056254,1003.633,0,0
40.12,6.754465,-9.742001,-0.6534348000000001,1003.6228,0,0
40.16,5.7746105000000005,-10.337819999999999,-0.89015454,1003.633,0,0
40.2,4.517526999999999,-10.290156,-0.53507376,1003.61755,0,0
40.24,2.7346656000000005,-9.579939,0.53016776,1003.61053,0,0
40.28,3.3417056000000005,-8.135672,0.6722004,1003.63043,0,0
40.32,4.421946,-7.268159,-0.55401003,1003.6075,0,0
40.36,4.775656,-7.6351833,-1.6003131000000002,1003.59546,0,0
40.4,5.191504,-7.8163133,-1.5198277,1003.5903,0,0
40.44,5.6169124,-8.197638000000001,-0.8664794,1003.6079,0,0
40.48,6.03754,-8.388299,-0.5113985,1003.58746,0,0
40.52,6.558542699999999,-8.292969,-0.44511646,1003.5924699999999,0,0
40.56,7.079547,-8.226237,-0.53980404,1003.5880000000001,0,0
40.6,7.710485,-7.8592119999999985,-0.7623207,1003.595,0,0
40.64,8.331864999999999,-7.2586265,-0.6771009,1003.6326,0,0
40.68,8.532622,-6.896367999999999,-0.7859918,1003.61,0,0
40.72,8.064208,-7.1823619999999995,-0.724444,1003.5772,0,0
40.76,7.595790400000001,-7.1251636,-0.5208640999999999,1003.6,0,0
40.8,7.4476210000000025,-7.0727315000000015,-0.2888779,1003.6128,0,0
40.84,7.265994,-7.1632953,0.07567175,1003.6151,0,0
40.88,7.1943016,-7.296760000000001,0.26978278,1003.6203,0,0
40.92,6.936197,-7.4445229999999984,0.39761215,1003.6329300000001,0,0
40.96,6.821486999999999,-7.644717999999999,0.35026857,1003.6356,0,0
41.0,6.62552,-7.6828509999999985,0.17983043,1003.6101,0,0
41.04,6.4056544,-7.8782797,-0.014279664,1003.6123699999999,0,0
41.08,6.2096870000000015,-8.1356735,-0.13737372,1003.64026,0,0
41.12,5.803312,-8.235769,-0.27467987,1003.61316,0,0
41.16,5.5117449999999995,-8.312035,-0.35516465,1003.6203,0,0
41.2,5.263196,-8.221471000000001,-0.54454076,1003.6278,0,0
41.24,5.162822,-8.140439,-0.6818384,1003.59265,0,0
41.28,5.0481076,-8.121372000000001,-0.7528544,1003.6153,0,0
41.32,5.138925,-7.983142,-0.80966705,1003.5976,0,0
41.36,5.2823205,-7.921178,-0.7055100999999999,1003.6076,0,0
41.4,5.5499906999999995,-7.8353785999999985,-0.6297595,1003.6179,0,0
41.44,5.8081010000000015,-7.878278,-0.48299277,1003.6024,0,0
41.48,6.075772,-7.8735113,-0.41671099999999994,1003.5898,0,0
41.52,6.3530016,-7.7734137,-0.27467877,1003.6228,0,0
41.56,6.5872135,-7.6208844,-0.13264656,1003.58246,0,0
41.6,6.7019296000000015,-7.50172,-0.1468496,1003.6,0,0
41.64,6.6875915999999975,-7.5636854000000024,-0.15158392,1003.6153,0,0
41.68,6.692373,-7.5875179999999975,-0.04269251,1003.5975,0,0
41.72,6.893125500000001,-7.415922,0.047261298,1003.6179,0,0
41.76,6.940925,-7.3158245,0.056730233,1003.6101,0,0
41.8,6.7545133,-7.4588213,0.028323924,1003.6075,0,0
41.84,6.587222,-7.6399503,-0.118442535,1003.6128,0,0
41.88,6.281316,-7.8639793000000004,-0.2699434,1003.6203,0,0
41.92,6.047106299999999,-7.9068774999999984,-0.33622488,1003.6231,0,0
41.96,5.9323926,-7.7781806,-0.43564728,1003.6154,0,0
42.0,5.9754124000000015,-7.6447167,-0.6865705,1003.6278,0,0
42.04,5.9562935999999995,-7.678083,-0.7149769,1003.6276,0,0
42.08,6.0423317,-7.744815299999999,-0.22259872,1003.6047,0,0
42.12,6.1382527,-7.768656,0.08516735,1003.6048,0,0
42.16,6.171725,-7.7114573,0.023621262999999997,1003.6204,0,0
42.2,6.1000404,-7.654259,-0.17995693,1003.59515,0,0
42.24,6.1000547,-7.6685586,-0.20836212,1003.6179,0,0
42.28,6.08573,-7.7162247000000015,-0.12314145,1003.5972,0,0
42.32,6.0953026,-7.7781906,-0.13260907,1003.6123699999999,0,0
42.36,6.1383343,-7.7591243,-0.13734223,1003.6278,0,0
42.4,6.3343196,-7.9164210000000015,-0.26043552,1003.6044300000001,0,0
42.44,6.3677926,-8.097551,-0.46401364,1003.6226,0,0
42.48,6.3104486,-7.616128999999999,-0.7575454,1003.6128,0,0
42.52,6.1718483,-7.659028,-0.7433409000000001,1003.6203,0,0
42.56,5.641304,-7.6590285000000025,-1.0605448,1003.6279,0,0
42.6,5.6747760000000005,-7.649496000000001,-0.90430826,1003.6178,0,0
42.64,6.0189357,-7.740061,-0.40719447,1003.5872,0,0
42.68,6.2005816,-7.759127,-0.047378500000000004,1003.623,0,0
42.72,6.162357,-7.830626,0.10412370000000001,1003.6128,0,0
42.76,5.918601,-7.902124400000001,0.18934429,1003.64276,0,0
42.8,5.8564777,-7.806793700000001,-0.06631231,1003.6276,0,0
42.84,5.9520864,-7.673331,-0.31723455,1003.60974,0,0
42.88,6.028576999999999,-7.73053,-0.64864165,1003.6151,0,0
42.92,6.167206,-7.7448289999999975,-0.5397489999999999,1003.59973,0,0
42.96,6.0859604,-7.6494990000000005,-0.42138785,1003.6048,0,0
43.0,6.0716367,-7.735297,-0.46873045,1003.61,0,0
43.04,6.081208999999999,-7.668565299999999,-0.852216,1003.61224,0,0
43.08,6.3536730000000015,-7.6828656,-0.809605,1003.61975,0,0
43.12,6.4632664,-7.701924000000001,-0.7102139000000001,1003.6047,0,0
43.16,6.577982,-7.687624499999999,-0.60132253,1003.60724,0,0
43.2,6.410689,-7.5493937,-0.7244170999999999,1003.6001,0,0
43.24,6.3628907,-7.468362299999999,-0.89959,1003.61945,0,0
43.28,6.2625150000000005,-7.506495,-0.90432453,1003.6201,0,0
43.32,6.2242765,-7.601825999999999,-0.6391977,1003.6123699999999,0,0
43.36,6.109561,-7.353965,-0.31252384,1003.62726,0,0
43.4,6.037864,-7.5493937,-0.255711,1003.6399,0,0
43.44,5.832332599999999,-7.701924000000001,-0.42141515,1003.60724,0,0
43.48,5.9518275,-7.701924000000001,-0.48296237,1003.6144400000001,0,0
43.52,6.109561,-7.730523,-0.7480891,1003.61945,0,0
43.56,6.458487,-7.6828575,-0.71494824,1003.6143,0,0
43.6,6.3437715,-7.954550699999999,-0.46402472,1003.6249,0,0
43.64,6.166919,-7.825854,-0.79543316,1003.60724,0,0
43.68,6.291193499999999,-7.8210880000000005,-1.1363103,1003.61475,0,0
43.72,6.338992,-7.6161255999999975,-1.5955476999999998,1003.6048,0,0
43.76,6.338992,-7.3777979999999985,-1.4582498,1003.5994,0,0
43.8,6.4632664,-7.320599599999999,-1.2925457,1003.62225,0,0
43.84,6.214717,-7.5636934999999985,-0.9611373,1003.6249,0,0
43.88,5.9566073,-7.573227,-0.5587129,1003.6171,0,0
43.92,5.817993,-7.6637910000000025,-0.118413255,1003.5944,0,0
43.96,5.5025262999999995,-7.7591224,-0.13735087,1003.60187,0,0
44.0,5.5168657,-7.8306203,-0.13261649,1003.59973,0,0
44.04,5.7032776,-7.625659,-0.14681968,1003.6047,0,0
44.08,5.9757266,-7.5446277,-0.35986787,1003.61975,0,0
44.12,5.990323,-7.5636997,-0.47347003,1003.61975,0,0
44.16,6.0046725,-7.5589333,-0.7670022,1003.5866,0,0
44.2,6.004686,-7.8020277,-0.71965706,1003.6144400000001,0,0
44.24,6.377517,-7.6923976,-0.7717349,1003.6147,0,0
44.28,6.793373,-7.5779999999999985,-0.8948282,1003.6093,0,0
44.32,6.7933807,-7.6590314,-0.87115544,1003.6069,0,0
44.36,6.8555307,-7.4731364000000005,-0.7291221,1003.61945,0,0
44.4,6.826861,-7.4826703,-0.71018374,1003.5967,0,0
44.44,6.7790728000000025,-7.301541,-0.63916665,1003.6216,0,0
44.48,6.678706599999999,-7.3539734,-0.44032082,1003.6042,0,0
44.52,6.4110484,-7.5732355,-0.27461565,1003.6142,0,0
44.56,6.348921,-7.6399674,-0.071035355,1003.6118,0,0
44.6,6.334592,-7.6542673,-0.34089547,1003.5838,0,0
44.64,6.124288,-7.763898399999999,-0.5728806,1003.6241,0,0
44.68,5.928328,-7.902128999999999,-0.4355818,1003.6243,0,0
44.72,5.794503700000001,-7.964094,-0.5065969,1003.5938,0,0
44.76,5.9283475999999995,-7.8163314,-0.7433163,1003.6142,0,0
44.8,6.205587,-7.6924009999999985,-0.8095969,1003.6039,0,0
44.84,6.1816974,-7.582770299999999,-1.0747229,1003.6188,0,0
44.88,6.191267,-7.697168,-0.7527823,1003.6241,0,0
44.92,6.1004605000000005,-7.730534599999999,-0.5634053000000001,1003.6212,0,0
44.96,6.1626085999999995,-7.6161369999999975,-0.4355754,1003.5888,0,0
45.0,6.2151957000000015,-7.6685690000000015,-0.44030893,1003.5964,0,0
45.04,6.3824997,-7.5398726,-0.34561983,1003.6288,0,0
45.08,6.401628,-7.5303397,-0.31247815,1003.5935699999999,0,0
45.12,6.3251620000000015,-7.568473,-0.35035244,1003.6112,0,0
45.16,6.396868,-7.6113715,-0.41189882,1003.6313,0,0
45.2,6.306062,-7.4731417,-0.49711722,1003.6212,0,0
45.24,6.286953,-7.539873599999999,-0.8190558000000001,1003.6341,0,0
45.28,5.9906144,-7.7162365999999984,-0.7575076,1003.586,0,0
45.32,5.957166,-7.8163350000000005,-0.6154746,1003.6164,0,0
45.36,6.3347807000000005,-7.759136,-0.44503513,1003.5938,0,0
45.4,6.687916800000001,-7.5732265,-0.47822803,1003.6237,0,0
45.44,6.7261477,-7.477895299999999,-0.84277797,1003.6235,0,0
45.48,6.4536904999999996,-7.5303273,-0.86645067,1003.6114,0,0
45.52,6.315069,-7.5589266,-0.8049041,1003.6337,0,0
45.56,6.1716676,-7.353963999999999,-0.6912791,1003.6063,0,0
45.6,5.846633,-7.825852999999999,-0.41194993,1003.6109,0,0
45.64,5.6793323,-8.030814999999999,-0.46402895,1003.6210000000001,0,0
45.68,6.205103,-7.516027,-0.6676091,1003.6285,0,0
45.72,6.5683603,-7.3920960000000004,-0.73389155,1003.61096,0,0
45.76,6.3006845,-7.430228,-0.72915775,1003.6084,0,0
45.8,6.1716223,-7.4921937000000005,-0.60606396,1003.6084,0,0
45.84,6.291109,-7.663788999999999,-0.64393985,1003.6109,0,0
45.88,6.367579,-7.535092,-0.7812384,1003.62354,0,0
45.92,6.5205245000000005,-7.291997,-0.8191142,1003.6061,0,0
45.96,6.625673299999999,-7.353962400000001,-0.80491173,1003.6136,0,0
46.0,6.6782426999999975,-7.349196000000001,-0.74809957,1003.5932,0,0
46.04,6.697355,-7.2490973,-0.72442824,1003.62885,0,0
46.08,6.649549,-7.2586308000000015,-0.5255839,1003.6333,0,0
46.12,6.5874043,-7.3253619999999975,-0.3835525,1003.6054,0,0
46.16,6.510919599999999,-7.296763,-0.39775637,1003.60333,0,0
46.2,6.357958,-7.3920937,-0.5303204,1003.60535,0,0
46.24,6.3340516,-7.3825603000000015,-0.6628844,1003.60065,0,0
46.28,6.343603599999999,-7.415926,-0.52558744,1003.5699,0,0
46.32,6.4009540000000005,-7.558922999999999,-0.677089,1003.60046,0,0
46.36,6.2001944,-7.5827550000000015,-0.71969944,1003.6028,0,0
46.4,6.061888,-7.506498,-0.8427657,1003.6209,0,0
46.44,5.961518,-7.639961200000001,-0.8759061,1003.61316,0,0
46.48,6.1383753,-7.563697,-0.6817949999999999,1003.6460000000001,0,0
46.52,6.2244167,-7.635195299999999,-0.40246466,1003.60315,0,0
46.56,6.3056790000000005,-7.525564,-0.66759086,1003.6229,0,0
46.6,6.4490776,-7.3682685,-0.54923034,1003.6229,0,0
46.64,6.2817893,-7.5493975,-0.5113547,1003.6156599999999,0,0
46.68,6.267455,-7.7114606,-0.4876821,1003.6054,0,0
46.72,6.3056984000000025,-7.6018300000000005,-0.53029126,1003.6278,0,0
46.76,6.195768,-7.639962,-0.5965725000000001,1003.57745,0,0
46.8,6.195773,-7.597064,-0.47347754,1003.6379400000001,0,0
46.84,6.210117299999999,-7.778192999999999,-0.26042889999999996,1003.6076,0,0
46.88,6.3487363,-7.673328999999999,-0.46874225,1003.61285,0,0
46.92,6.5064745,-7.568465,-0.48294502,1003.6101,0,0
46.96,6.3296269999999994,-7.6971617,-0.37878767,1003.6026,0,0
47.0,6.3630910000000025,-7.5398654999999986,-0.30303672,1003.5976,0,0
47.04,6.296179,-7.673329400000001,-0.5539596999999999,1003.5974,0,0
47.08,6.425237999999999,-7.496967,-0.6297096999999999,1003.6098599999999,0,0
47.12,6.3678856,-7.401636,-0.6628501,1003.6299,0,0
47.16,6.2244964000000005,-7.6780963,-0.49241114,1003.5975,0,0
47.2,6.449152,-7.64473,-0.15626794,1003.62463,0,0
47.24,6.4539366,-7.730529,-0.31723720000000005,1003.59265,0,0
47.28,6.3535660000000025,-7.7019296000000015,-0.27936146,1003.5974,0,0
47.32,6.14804,-7.463601,-0.3977211,1003.6226,0,0
47.36,6.052449,-7.2062078,-0.48767436,1003.6174,0,0
47.4,5.8854413,-7.5446405,-0.28406876,1003.5718400000001,0,0
47.44,5.59389,-8.154759,-0.042612668,1003.5974,0,0
47.48,5.895034,-7.8640003,-0.20358095,1003.6171,0,0
47.52,6.2917742999999975,-7.5875406000000005,-0.6486134,1003.5768400000001,0,0
47.56,6.4399633000000005,-7.5494080000000015,-0.7953786,1003.5997,0,0
47.6,6.6598496,-7.492210000000001,-0.6580794,1003.6069,0,0
47.64,6.4638953,-7.697172,-0.35981032,1003.61975,0,0
47.68,6.521269,-7.5398765,-0.30299607,1003.57434,0,0
47.72,6.597761599999999,-7.3015490000000005,-0.48290193,1003.6093,0,0
47.76,6.3874655,-7.4350130000000005,-0.59179175,1003.6024,0,0
47.8,6.3683634000000024,-7.692407000000001,-0.26511640000000003,1003.5919,0,0
47.84,6.368378599999999,-7.5875435,-0.37874070000000004,1003.6093,0,0
47.88,6.2202215,-7.6876416,-0.63439703,1003.58185,0,0
47.92,5.990807,-7.7686734,-0.43555054,1003.57434,0,0
47.96,6.019501999999999,-7.673342999999999,-0.6675349,1003.59186,0,0
48.0,5.8665648,-7.778208,-0.5681108,1003.5914300000001,0,0
48.04,5.7948832999999995,-7.7925076,-0.46868688,1003.6118,0,0
48.08,5.895276,-7.8258734,-0.37873176,1003.5718400000001,0,0
48.12,5.8761715999999975,-7.8211080000000015,-0.40713674,1003.60913,0,0
48.16,6.0052433,-7.7496095,-0.47815132,1003.5993699999999,0,0
48.2,5.8905454000000015,-7.8497076,-0.36452399999999996,1003.59686,0,0
48.24,5.9001203,-7.7829766000000005,-0.20828728,1003.6039400000001,0,0
48.28,6.1056676,-7.659045699999999,-0.33611473,1003.5916,0,0
48.32,6.2299584999999995,-7.6733465,-0.37398848,1003.59686,0,0
48.36,6.3494699999999975,-7.563716,-0.51601905,1003.60645,0,0
48.4,6.3877239999999995,-7.687647,-0.45920479999999997,1003.57666,0,0
48.44,6.3677790000000005,-7.768658,-0.33618593,1003.5914300000001,0,0
48.48,6.3964419999999995,-7.558929400000001,-0.34565619999999997,1003.5937,0,0
48.52,6.358187,-7.5922947,-0.36459532,1003.5688,0,0
48.56,6.386849,-7.630427,-0.19889268,1003.6038,0,0
48.6,6.4394116,-7.697158,-0.23676933,1003.6087,0,0
48.64,6.4489545999999995,-7.5875270000000015,-0.32199013,1003.59125,0,0
48.68,6.4059205000000015,-7.525561,-0.3882733,1003.5812400000001,0,0
48.72,6.3150887,-7.725756,-0.47349399999999997,1003.61896,0,0
48.76,6.1238794,-7.821086999999999,-0.31252575,1003.61096,0,0
48.8,6.099964,-7.7162223,-0.5492475,1003.5838,0,0
48.84,6.0712699999999975,-7.6637897,-0.8001723000000001,1003.5935699999999,0,0
48.88,6.252886,-7.6208906,-0.5587191999999999,1003.5812400000001,0,0
48.92,6.1763916,-7.5779905,-0.52084553,1003.6112699999999,0,0
48.96,6.1094599999999994,-7.630422999999999,-0.41669002,1003.5859,0,0
49.0,6.119003,-7.620889,-0.1847057,1003.6212,0,0
49.04,6.1620050000000015,-7.5970564,-0.19417603,1003.5984,0,0
49.08,6.1858873,-7.616122,-0.31253764,1003.6112699999999,0,0
49.12,6.2671269999999994,-7.601822,-0.44510249999999996,1003.6109,0,0
49.16,6.2623315,-7.5827550000000015,-0.41669756,1003.6088,0,0
49.2,6.252756,-7.577988,-0.44510543,1003.6262,0,0
49.24,6.2288365,-7.592287,-0.56346744,1003.5931,0,0
49.28,6.22882,-7.516022,-0.5208592000000001,1003.57526,0,0
49.32,6.3052855,-7.535088000000001,-0.459313,1003.5908,0,0
49.36,6.2670293,-7.6018195,-0.24626647,1003.5857,0,0
49.4,6.2056580000000015,-7.6828699999999985,-0.25566518,1003.5984,0,0
49.44,6.272588,-7.597072,-0.21778877,1003.5959,0,0
49.48,6.372978,-7.587539,-0.39769474,1003.5883,0,0
49.52,6.2535032999999975,-7.620906,-0.48291218,1003.58777,0,0
49.56,6.320434,-7.558941,-0.5491925999999999,1003.5857,0,0
49.6,6.4017057,-7.6590380000000025,-0.3740183,1003.5959,0,0
49.64,6.3348,-7.6876383000000015,-0.5018462,1003.60333,0,0
49.68,6.2726808,-7.678106,-0.6438765999999999,1003.5986,0,0
49.72,6.196219999999999,-7.5780080000000005,-0.6533439999999999,1003.5882,0,0
49.76,6.2679300000000016,-7.5017433,-0.38821614,1003.5799599999999,0,0
49.8,6.3635426,-7.6018414000000005,-0.07100952,1003.59796,0,0
49.84,6.3492174000000015,-7.525577,-0.056805003,1003.5776,0,0
49.88,6.2536364,-7.544644,-0.10414769,1003.58545,0,0
49.92,6.301449,-7.4969782999999985,-0.33613217,1003.6081,0,0
49.96,6.2632255999999975,-7.5589447,-0.18462984,1003.6103,0,0
50.0,6.2250032,-7.716241,-0.24617563,1003.6178,0,0
50.04,6.2967143,-7.644742999999999,-0.26037756,1003.60004,0,0
50.08,6.3062897000000016,-7.654277,-0.35506420000000005,1003.6104,0,0
50.12,6.205927,-7.725775200000001,-0.37400064,1003.5924699999999,0,0
50.16,6.119905999999999,-7.773441,-0.38346806,1003.5751300000001,0,0
50.2,6.067344,-7.721009299999999,-0.33138812,1003.5974,0,0
50.24,6.1103764000000025,-7.701944,-0.39766845,1003.6231,0,0
50.28,6.15341,-7.7114762999999975,-0.3929327,1003.5974,0,0
50.32,6.201223400000001,-7.687645,-0.35505602,1003.5824,0,0
50.36,6.1916785,-7.6542788,-0.28403854,1003.5849,0,0
50.4,6.143268,-7.7066965,-0.29829785,1003.5798300000001,0,0
50.44,6.138478299999999,-7.916424,-0.2130795,1003.5799599999999,0,0
50.48,6.2914224,-7.868759,-0.47820705,1003.5923,0,0
50.52,6.4730444,-7.5207996,-0.4640048,1003.6049,0,0
50.56,6.3200803,-7.682862299999999,-0.54922503,1003.5949,0,0
50.6,6.0332828,-7.606597,-0.74807084,1003.60004,0,0
50.64,5.9711356,-7.5779977,-0.7243998,1003.5974,0,0
50.68,6.009364,-7.6256633,-0.42139876,1003.5623,0,0
50.72,6.210106400000001,-7.5922966,-0.028444077999999998,1003.5745,0,0
50.76,6.253114,-7.7114606,0.08044632,1003.5845,0,0
50.8,6.2913427,-7.644728,-0.047383536,1003.5950300000001,0,0
50.84,6.1527176,-7.763892,-0.28883913,1003.5816,0,0
50.88,6.1957264,-7.6780940000000015,-0.44507542,1003.6048,0,0
50.92,6.210056,-7.69716,-0.710203,1003.585,0,0
50.96,6.162247,-7.792491,-0.7622824,1003.587,0,0
51.0,6.2052565,-7.749591400000001,-0.6060478,1003.5923,0,0
51.04,6.248265,-7.773423700000001,-0.5776423,1003.6148,0,0
51.08,6.1908959999999995,-7.668559599999999,-0.40720472,1003.58734,0,0
51.12,6.2243466,-7.7734229999999975,-0.41193995,1003.5796,0,0
51.16,6.3964086,-7.9736185,-0.22256474,1003.5998,0,0
51.2,6.506334,-7.3396664000000005,-0.25570652,1003.5896,0,0
51.24,6.6210394,-7.0584393,-0.37406752,1003.5973,0,0
51.28,6.5493317000000015,-7.091805,-0.47822535,1003.5825,0,0
51.32,6.205176,-7.5636934999999985,-0.23203723,1003.61005,0,0
51.36,5.942277400000001,-7.883053,-0.07106833,1003.5796,0,0
51.4,6.0482984,-7.9116744999999975,-0.009441853,1003.6049,0,0
51.44,6.0435443,-7.582782000000001,-0.41659830000000003,1003.5995,0,0
51.48,6.0005517,-7.649514,-0.5112840999999999,1003.5798300000001,0,0
51.52,6.081832,-7.72578,-0.53968835,1003.60205,0,0
51.56,6.0866365,-7.773445599999999,-0.6580461999999999,1003.5973,0,0
51.6,6.239618,-7.7782135,-0.49233955,1003.5642,0,0
51.64,6.4881910000000005,-7.5017533,-0.40238363,1003.5916,0,0
51.68,6.449978,-7.339691,-0.53494465,1003.5566,0,0
51.72,6.3830849999999995,-7.344458,-0.45919198,1003.6097,0,0
51.76,6.37833,-7.3968906,-0.21300064,1003.57416,0,0
51.8,6.4118123,-7.5494213000000014,-0.089903966,1003.5841,0,0
51.84,6.488315,-7.454091,-0.18932414,1003.5871,0,0
51.88,6.4357624000000015,-7.444558,-0.22719704,1003.6017,0,0
51.92,6.273274400000001,-7.6638207,-0.45444617,1003.5891,0,0
51.96,6.239839599999999,-7.754386,-0.51599115,1003.5716,0,0
52.0,6.302003,-7.6971874000000025,-0.76691234,1003.5916,0,0
52.04,6.3259254,-7.659055,-0.6532845,1003.5841,0,0
52.08,6.2016773,-7.682889,-0.39288977,1003.5891,0,0
52.12,6.2733984000000005,-7.6876564,-0.5396541,1003.6015,0,0
52.16,6.306882,-7.511294,-0.48757333,1003.6097,0,0
52.2,6.273448999999999,-7.5017619999999985,-0.35500768,1003.6066,0,0
52.24,6.182657,-7.5446615,-0.28872383,1003.60205,0,0
52.28,6.1301026,-7.7496240000000025,-0.27925283,1003.5812400000001,0,0
52.32,6.154028,-7.6304607,-0.26031279999999996,1003.5888,0,0
52.36,6.2639894,-7.654294,-0.30292007,1003.57874,0,0
52.4,6.359297,-7.821117,-0.44497862,1003.5941,0,0
52.44,6.2398148,-7.911682000000001,-0.25560126,1003.6191,0,0
52.48,5.957818,-7.568489599999999,-0.33135065,1003.5888,0,0
52.52,6.21594,-7.334928999999999,-0.6580234,1003.5588,0,0
52.56,6.1060176,-7.6590543,-0.27453542,1003.5816,0,0
52.6,6.0486712,-7.539891000000001,-0.31240959999999995,1003.5687,0,0
52.64,6.3020144,-7.463626400000001,-0.6390824,1003.5766,0,0
52.68,6.416742,-7.477927,-0.6627531999999999,1003.5741,0,0
52.72,6.4119754,-7.7019553,-0.18931156,1003.5763,0,0
52.76,6.407208,-7.578025,-0.17984165,1003.5888,0,0
52.8,6.368982,-7.477927999999999,-0.4260295,1003.5791,0,0
52.84,6.144343,-7.744855,-0.28873068,1003.6037,0,0
52.88,6.139575499999999,-7.730556,-0.10882217,1003.5812400000001,0,0
52.92,6.1873865,-7.6209254,-0.27452509999999997,1003.55615,0,0
52.96,6.177839,-7.7067229999999975,-0.5917292,1003.58374,0,0
53.0,6.2782269999999984,-7.668591,-0.35500786,1003.6013,0,0
53.04,6.3116984,-7.601859599999999,-0.5396484,1003.5811,0,0
53.08,6.158757,-7.620927,-0.41181840000000003,1003.5961,0,0
53.12,6.110972,-7.735324,-0.42602038,1003.5863,0,0
53.16,6.1205440000000015,-7.5780277,-0.25084633,1003.56085,0,0
53.2,6.1205554000000015,-7.396899,-0.34079888,1003.58374,0,0
53.24,6.0918884,-7.354,-0.44022042,1003.5662,0,0
53.28,6.0249844,-7.573262,-0.12301405,1003.5908,0,0
53.32,5.915062,-7.5208306,-0.1798257,1003.57874,0,0
53.36,5.919854,-7.277736,-0.4496857,1003.58875,0,0
53.4,6.0059032,-7.401667,-0.38813725,1003.58655,0,0
53.44,5.8807974000000005,-7.3825803,-0.24618118,1003.6112,0,0
53.48,5.9476953,-7.4207125,-0.46869987,1003.5686599999999,0,0
53.52,5.9333363,-7.2062173,-0.5539210999999999,1003.5936,0,0
53.56,5.890297,-7.311081,-0.4308284000000001,1003.5883,0,0
53.6,5.9332967000000005,-7.3349133,-0.26512602,1003.5962,0,0
53.64,5.8233432999999994,-7.482676,-0.17043951,1003.5711699999999,0,0
53.68,5.8042026,-7.439776400000001,-0.19884795,1003.6008,0,0
53.72,5.966695,-7.320612400000001,-0.32667872,1003.5833,0,0
53.76,5.937995,-7.187147599999999,-0.39296237,1003.58826,1,3
53.8,5.875833,-7.2777114,-0.46398056,1003.5908,1,3
53.84,5.880598,-7.292011299999999,-0.53973246,1003.60834,1,3
53.88,5.9044766,-7.1299477,-0.48292148,1003.5908,1,3
53.92,5.842315,-7.344442,-0.3030163,1003.59796,1,3
53.96,5.8470745000000015,-7.2395773000000005,-0.21306445,1003.56573,1,3
54.0,5.885294,-7.0727477,-0.33142635,1003.5858,1,3
54.04,5.8900533,-7.115646000000001,-0.27461532,1003.5933,1,3
54.08,5.8183346,-7.1251789999999975,-0.15152282,1003.61334,1,3
54.12,5.818322,-7.168077499999999,-0.15152396,1003.59296,1,3
54.16,5.832635,-7.053678999999999,-0.32196498,1003.5804400000001,1,3
54.2,5.813495,-7.163309,-0.33617002,1003.61316,1,3
54.24,5.7656784000000005,-7.1108766,-0.2414837,1003.6283599999999,1,3
54.28,5.784778599999999,-7.2634063,-0.26989186,1003.6033,1,3
54.32,5.593565,-7.282472,-0.27936259999999996,1003.6257300000001,1,3
54.36,5.545746299999999,-7.353969599999999,-0.25569248,1003.5905,1,3
54.4,5.6041813,-7.2824984,-0.2603283,1003.5852,1,3
54.44,5.8288593,-7.1442685,-0.46390516,1003.6129,1,3
54.48,5.871903,-7.1824017000000016,-0.3881524,1003.6279,1,3
54.52,5.79545,-7.2110014000000024,-0.38341576,1003.638,1,3
54.56,5.8480506,-7.029872999999999,-0.25085035,1003.6207,1,3
54.6,5.7668123,-7.1013720000000005,-0.18456705,1003.6354,1,3
54.64,5.628225,-7.487463000000001,-0.10881409,1003.62506,1,3
54.68,5.704727,-7.573262,-0.07567093,1003.64575,1,3
54.72,6.0297769999999975,-7.211004300000001,-0.38813958,1003.628,1,3
54.76,6.1636352999999975,-7.0298758,-0.48282546,1003.6479,1,3
54.8,6.1636596,-7.0823083,-0.51596403,1003.6454,1,3
54.84,5.819536,-7.4969993000000015,-0.23663212,1003.6654699999999,1,3
54.88,5.776542,-7.6542964000000016,-0.12773862,1003.6578400000001,1,3
54.92,5.9582,-7.516067,-0.13247071,1003.6175,1,3
54.96,6.01558,-7.4302692,-0.19401588,1003.6524699999999,1,3
55.0,5.943907299999999,-7.525601400000001,-0.28870174,1003.65533,1,3
55.04,5.8483343,-7.587567,-0.33130935,1003.6705300000001,1,3
55.08,6.053891,-7.373072599999999,-0.28869733,1003.7032,1,3
55.12,6.1973066,-7.244375999999999,-0.32183626,1003.68286,1,3
55.16,6.144754,-7.3301744000000015,-0.26028666,1003.6851,1,3
55.2,5.9631443,-7.454105999999999,-0.24608137,1003.6927,1,3
55.24,5.901031,-7.5208383,-0.20820397,1003.6951,1,3
55.28,6.0731277000000015,-7.558971400000001,-0.25081137,1003.6902,1,3
55.32,5.987114,-7.668602499999999,-0.33129418,1003.7054400000001,1,3
55.36,6.058835,-7.601871000000001,-0.33602634,1003.7079,1,3
55.4,6.206499,-7.5303607,-0.41655788,1003.71014,1,3
55.44,6.153924,-7.5398929999999975,-0.39762,1003.7104,1,3
55.48,6.149147,-7.563726400000001,-0.2934629,1003.71765,1,3
55.52,6.1539288,-7.6590570000000024,-0.20350902,1003.7149,1,3
55.56,6.0965739999999995,-7.6113925,-0.17036796,1003.73535,1,3
55.6,6.163493,-7.568493400000001,-0.30293104,1003.7323,1,3
55.64,6.0440010000000015,-7.84972,-0.23664914,1003.71545,1,3
55.68,6.0726824,-7.8783197,-0.21297687,1003.73474,1,3
55.72,6.1539410000000005,-7.840186,-0.21771108,1003.7199,1,3
55.76,6.2304205999999995,-7.6638246,-0.5396504,1003.7274,1,3
55.8,6.1778455,-7.692424000000001,-0.59646297,1003.7423,1,3
55.84,6.1921873,-7.673358,-0.45916498,1003.7775,1,3
55.88,6.3116845999999995,-7.668591,-0.274523,1003.7673300000001,1,3
55.92,6.2925687,-7.4969953999999985,-0.27925715,1003.7649,1,3
55.96,6.2304335,-7.5208282,-0.18456888,1003.7524,1,3
56.0,6.1443996,-7.6542916,-0.15142779999999995,1003.75714,1,3
56.04,6.101383,-7.7162570000000015,-0.29345970000000005,1003.7649,1,3
56.08,6.1396239999999995,-7.659058,-0.33133477,1003.7774,1,3
56.12,6.0918293,-7.721023599999999,-0.47336662,1003.79755,1,3
56.16,6.1683087,-7.7162576000000005,-0.41181913,1003.76965,1,3
56.2,6.240008,-7.630458999999999,-0.42128775,1003.8117699999999,1,3
56.24,6.1444144,-7.673359,-0.51124126,1003.7746599999999,1,3
56.28,5.981903599999999,-7.89262,-0.19403587,1003.8018,1,3
56.32,5.9388875999999975,-8.059449,-0.14669158,1003.81714,1,3
56.36,6.383412,-7.5875607,-0.35500515,1003.79425,1,3
56.4,6.4984730000000015,-7.5208372999999975,-0.45913035,1003.8248,1,3
56.44,6.1639040000000005,-7.749632400000001,-0.37864393,1003.81433,1,3
56.48,6.140020400000001,-7.7877649999999985,-0.3786425,1003.82965,1,3
56.52,6.3168902000000005,-7.582803699999999,-0.31709376,1003.8318,1,3
56.56,6.20697,-7.5399046,-0.33129552,1003.8265,1,3
56.6,6.044473,-7.7210345,-0.307622,1003.8389,1,3
56.64,6.0540485,-7.6733699999999985,-0.25554213,1003.8346,1,3
56.68,6.097082599999999,-7.6781362999999985,-0.37863514,1003.86975,1,3
56.72,6.0779815,-7.663837400000001,-0.35022709999999996,1003.84686,1,3
56.76,6.168813,-7.6733713,-0.37863213,1003.8848,1,3
56.8,6.1879478,-7.6638384,-0.31234902,1003.8742699999999,1,3
56.84,6.216643,-7.7353363,-0.3786292,1003.87683,1,3
56.88,6.2501190000000015,-7.7401037,-0.30761153,1003.8544,1,3
56.92,6.35051,-7.697205,-0.43543905,1003.8564,1,3
56.96,6.3839855000000005,-7.663839999999999,-0.44490632,1003.9092400000001,1,3
57.0,6.1928085999999976,-7.6924395999999975,-0.44490492,1003.8589,1,3
57.04,6.183267,-7.6972065,-0.44016892,1003.8896,1,3
57.08,6.2645383,-7.649541,-0.2791978,1003.8868,1,3
57.12,6.231096,-7.611409,-0.22238345,1003.89185,1,3
57.16,6.1498555999999995,-7.6972074999999975,-0.37861732,1003.9138,1,3
57.2,6.063834,-7.673375,-0.42595994,1003.9142,1,3
57.24,6.016053,-7.6590753,-0.421224,1003.8893400000001,1,3
57.28,6.0782084,-7.630477000000001,-0.28392467,1003.9113,1,3
57.32,6.121241599999999,-7.6018777,-0.3880802,1003.9295,1,3
57.36,6.073459,-7.7353415,-0.37860996,1003.92706,1,3
57.4,5.992219,-7.730575599999999,-0.24131073,1003.93427,1,3
57.44,6.101066,-7.7400823,-0.50180256,1003.9239,1,3
57.48,6.3400316,-7.601851,-0.444992,1003.9313,1,3
57.52,6.335225,-7.678116,-0.19880542,1003.9212,1,3
57.56,6.282622,-7.7925124000000014,-0.17513564,1003.9638,1,3
57.6,6.2395773000000005,-7.6781144,-0.36924866,1003.96924,1,3
57.64,6.316028,-7.6018485999999985,-0.48287684,1003.9543,1,3
57.68,6.3685794,-7.5541825,-0.41659757,1003.9543,1,3
57.72,6.2777376,-7.6352134000000005,-0.3645214000000001,1003.96924,1,3
57.76,6.2729316,-7.635213,-0.39293033,1003.9534,1,3
57.8,6.110391,-7.6876440000000015,-0.30771342,1003.9942,1,3
57.84,6.105585,-7.701943400000001,-0.25563744,1004.00366,1,3
57.88,6.153358,-7.611378,-0.31718698,1004.0063,1,3
57.92,6.1485515,-7.587544999999999,-0.36926788,1003.99677,1,3
57.96,6.0672684,-7.606610000000001,-0.34559825,1003.98834,1,3
58.0,6.0672417,-7.687641,-0.40714794,1003.9937,1,3
58.04,6.172371,-7.6447414999999985,-0.35507196,1003.98065,1,3
58.08,6.368316,-7.4779115,-0.4781689,1003.99585,1,3
58.12,6.1627593,-8.002233,-0.42135835,1003.99585,1,3
58.16,6.177072,-7.6781054000000015,-0.41189197,1004.0286,1,3
58.2,6.1531480000000025,-7.778202499999999,-0.21304923,1004.0087,1,3
58.24,6.1101055,-7.911666,-0.07575382,1004.0336,1,3
58.28,6.334729,-7.3873434000000024,0.009463035,1004.0336,1,3
58.32,6.3490453,-7.435008,-0.35508823,1004.0358,1,3
58.36,6.258198999999999,-7.7067017999999985,-0.2888093,1004.05084,1,3
58.4,6.249767299999999,-7.6590633000000015,-0.17981483,1004.05615,1,3
58.44,6.2593455,-7.4493356,-0.48281497,1004.0565,1,3
58.48,6.101632599999999,-7.6733645999999975,-0.50175077,1004.0557,1,3
58.52,6.1112123,-7.7305636,-0.22715338,1004.0556,1,3
58.56,6.1351304,-7.792528999999999,-0.33130857,1004.0556,1,3
58.6,6.1733947,-7.692432000000001,-0.35497823,1004.0885599999999,1,3
58.64,6.16863,-7.630466999999999,-0.32657045,1004.06085,1,3
58.68,6.197328,-7.6352344,-0.3549751,1004.0582,1,3
58.72,6.2308054,-7.6829,-0.43545824,1004.0980000000001,1,3
58.76,6.2977440000000025,-7.6066356,-0.45439392,1004.0706,1,3
58.8,6.2165065,-7.7544,-0.35970405,1004.0905,1,3
58.84,6.3169045,-7.744867,-0.28395158,1004.12103,1,3
58.88,6.2930245000000005,-7.782999999999999,-0.33602828,1004.09827,1,3
58.92,6.321722,-7.5875716,-0.38810506,1004.1006,1,3
58.96,6.259606,-7.558973299999999,-0.40704066,1004.0958,1,3
59.0,6.197494,-7.678137299999999,-0.30761585,1004.1232,1,3
59.04,6.092353,-7.844968,-0.359693,1004.14105,1,3
59.08,6.207093,-7.5017757,-0.38809714,1004.1405,1,3
59.12,6.1401959999999995,-7.501775999999999,-0.26500076,1004.123,1,3
59.16,6.0589595,-7.673373,-0.19871724,1004.1333,1,3
59.2,6.0972176,-7.6781397,-0.19398110000000002,1004.1029699999999,1,3
59.24,6.1402555,-7.6352414999999985,-0.35021457,1004.1404,1,3
59.28,6.0446800000000005,-7.563743,-0.48751049999999996,1004.1632699999999,1,3
59.32,6.0638127,-7.8306710000000015,-0.42122748,1004.1708,1,3
59.36,6.197668,-7.8068385,-0.4543665,1004.12823,1,3
59.4,6.2788553,-7.7258058000000025,-0.5111857,1004.1711,1,3
59.44,6.307549,-7.7401056,-0.53485626,1004.1654699999999,1,3
59.48,6.2454279999999995,-7.7639384000000025,-0.30760336,1004.18304,1,3
59.52,6.2311044,-7.6733747,-0.43543088,1004.148,1,3
59.56,6.350615,-7.549444,-0.5206487,1004.1904,1,3
59.6,6.317175,-7.6781416,-0.27445796,1004.1578400000001,1,3
59.64,6.2215905,-7.7210410000000005,-0.26498818,1004.1932,1,3
59.68,6.178592,-7.578044999999999,-0.47330004,1004.1832,1,3
59.72,6.059114,-7.659076700000001,-0.30286002,1004.20294,1,3
59.76,6.1212615999999995,-7.640011,-0.31232790000000005,1004.221,1,3
59.8,6.188196,-7.6161785,-0.37860793,1004.22046,1,3
59.84,6.1069593,-7.6638446,-0.45435664,1004.2079,1,3
59.88,6.0974164,-7.6924443,-0.33599496,1004.23596,1,3
59.92,6.1595707000000015,-7.6876783,-0.2886494,1004.2152,1,3
59.96,6.216944,-7.6400130000000015,-0.36439842,1004.22284,1,3
60.0,6.193062,-7.8068433000000015,-0.32178727,1004.2432,1,3
60.04,6.2934527000000005,-7.8068433000000015,-0.30758262,1004.2251,1,3
60.08,6.3125887,-7.7258124000000015,-0.3833316,1004.2451,1,3
60.12,6.2743673,-7.625715,-0.40226766,1004.2579,1,3
60.16,6.188347,-7.711513,-0.36439097,1004.2579300000001,1,3
60.2,6.2313795,-7.725814,-0.30757678,1004.2782,1,3
60.24,6.1979375,-7.7734795,-0.4827482,1004.2732,1,3
60.28,6.1119184,-7.7639460000000025,-0.21761994,1004.2557,1,3
60.32,6.2123099999999996,-7.5494520000000005,-0.48747963,1004.27527,1,3
60.36,6.2075453000000005,-7.5351524,-0.50168145,1004.27515,1,3
60.4,6.116213,-7.582805599999999,-0.411775,1004.2803,1,3
60.44,6.1496660000000025,-7.711502,-0.32655624,1004.2956,1,3
60.48,6.1496615,-7.7591677,-0.23660295,1004.29315,1,3
60.52,6.140096700000001,-7.682903,-0.35022909999999996,1004.2878,1,3
60.56,6.17833,-7.654303599999999,-0.6532315,1004.3028,1,3
60.6,6.273921,-7.6304703,-0.45438698,1004.3101,1,3
60.64,6.2882557,-7.759167,-0.30288646,1004.3178,1,3
60.68,6.29781,-7.716267999999999,-0.44965348,1004.3053,1,3
60.72,6.3217044,-7.5732718,-0.45438829999999997,1004.3282,1,3
60.76,6.2213235000000005,-7.520839,-0.34549743,1004.33,1,3
60.8,6.240438,-7.5160728,-0.41177955,1004.31976,1,3
60.84,6.245212,-7.597103999999999,-0.28395107,1004.33,1,3
60.88,6.336024,-7.5685043000000025,-0.28395149999999997,1004.3352,1,3
60.92,6.269101,-7.558971400000001,-0.42124978,1004.3175699999999,1,3
60.96,6.0683446,-7.654302,-0.2129364,1004.3381,1,3
61.0,6.1304774,-7.721033999999999,-0.113514364,1004.33777,1,3
61.04,6.235628,-7.6161695000000025,-0.4401887,1004.36273,1,3
61.08,6.2738614,-7.4970054999999975,-0.624831,1004.3502,1,3
61.12,6.345553,-7.568503999999999,-0.26975113,1004.3450300000001,1,3
61.16,6.3407693,-7.6304684000000025,-0.33603317,1004.36505,1,3
61.2,6.163911,-7.721033,-0.37864333,1004.36255,1,3
61.24,6.211704,-7.7591652999999985,-0.27922124,1004.35504,1,3
61.28,6.374212,-7.773465,-0.3549722,1004.3777,1,3
61.32,6.355087999999999,-7.701967,-0.47333276,1004.37177,1,3
61.36,6.2738266,-7.8163643,-0.41178596,1004.3622,1,3
61.4,6.31184,-7.878323599999999,-0.43547857,1004.3947,1,3
61.44,6.378743599999999,-7.773459,-0.39287022,1004.4177,1,3
61.48,6.479106400000001,-7.663828,-0.46388745,1004.3869,1,3
61.52,6.4886527,-7.763925,-0.44495103,1004.4227,1,3
61.56,6.3834824999999995,-7.921221000000001,-0.37393636,1004.3897,1,3
61.6,6.459946599999999,-7.7734575,-0.5585793000000001,1004.4151,1,3
61.64,6.51251,-7.573262,-0.52543974,1004.4526400000001,1,3
61.68,6.4407988,-7.754391,-0.24137674,1004.4247,1,3
61.72,6.3643089999999995,-7.9498196,-0.23190914,1004.43713,1,3
61.76,6.4025345,-7.9259863,-0.21770708,1004.43713,1,3
61.8,6.3881803,-7.935519,-0.46389753,1004.43225,1,3
61.84,6.5028825,-7.8640194,-0.5775244,1004.43713,1,3
61.88,6.612804,-7.9736509999999985,-0.62486976,1004.4491,1,3
61.92,6.5554323000000005,-7.983184,-0.38815079999999996,1004.43225,1,3
61.96,6.4263644,-8.0308485,-0.47810559999999996,1004.4696,1,3
62.0,6.4072328,-8.135713,-0.39288762,1004.44714,1,3
62.04,6.6987853,-8.002249,-0.37868574,1004.44965,1,3
62.08,6.8230476,-7.8783179999999975,-0.29346764,1004.4971,1,3
62.12,6.5888224000000015,-8.049913,-0.36448509,1004.4692,1,3
62.16,6.588811,-8.083279,-0.42129895,1004.4769,1,3
62.2,6.7465285999999995,-8.068978999999999,-0.35975313,1004.45917,1,3
62.24,6.6795979999999995,-8.064213,-0.4639113,1004.4897,1,3
62.28,6.5027313,-8.130944,-0.44970933,1004.46686,1,3
62.32,6.5170580000000005,-8.04038,-0.572805,1004.46686,1,3
62.36,6.583961,-8.059444000000001,-0.5065247,1004.4747,1,3
62.4,6.63715,-8.140491,-0.3975774,1004.4971300000001,1,3
62.44,6.5845833,-8.145258,-0.44492048,1004.4819,1,3
62.48,6.665850999999999,-8.049928,-0.40704414,1004.50214,1,3
62.52,6.6419630000000005,-8.035627,-0.48752803,1004.5093400000001,1,3
62.56,6.656314,-7.992729,-0.4591205,1004.5099,1,3
62.6,6.632426299999999,-8.150025,-0.43544754,1004.50726,1,3
62.64,6.6372165999999995,-8.102360000000001,-0.3644305,1004.5249,1,3
62.68,6.665907400000001,-8.011796,-0.4638518,1004.4916400000001,1,3
62.72,6.656358999999999,-7.9641304,-0.43544447,1004.5419999999999,1,3
62.76,6.5320945,-8.088061,-0.33602095,1004.5016,1,3
62.8,6.5368857,-8.116661,-0.22239421,1004.5372,1,3
62.84,6.4795403,-7.9688979999999985,-0.4733165,1004.51904,1,3
62.88,6.479552,-8.002264,-0.5538004,1004.5091,1,3
62.92,6.5655985,-7.902167299999999,-0.57273716,1004.52716,1,3
62.96,6.56083,-8.049930999999999,-0.6153456,1004.51935,1,3
63.0,6.5656214,-8.107128999999999,-0.5206565,1004.5016,1,3
63.04,6.5512934000000005,-7.9736660000000015,-0.52538985,1004.5165400000001,0,0
63.08,6.6182213,-7.8545027,-0.46384156,1004.5314,0,0
63.12,6.6564713000000015,-7.8974020000000005,-0.23658915,1004.5296599999999,0,0
63.16,6.584785000000001,-7.8831024,-0.26026020000000005,1004.5397,0,0
63.2,6.599135,-7.816371000000001,-0.33127528,1004.5241,0,0
63.24,6.6182666,-7.859269999999999,-0.40702465,1004.5266,0,0
63.28,6.5274606,-7.9069357,-0.3265388,1004.55707,0,0
63.32,6.537031,-7.8020716,-0.4212259,1004.5341,0,0
63.36,6.4796853,-7.792539,-0.5064441,1004.5216,0,0
63.4,6.4510174000000005,-7.8402042000000005,-0.36914536,1004.5346699999999,0,0
63.44,6.38808,-7.8640175,-0.28399923,1004.5441,0,0
63.48,6.459758,-7.721020699999999,-0.33134517,1004.5316,0,0
63.52,6.488417,-7.6542883,-0.29347163,1004.51685,0,0
63.56,6.469278,-7.635222,-0.32187995,1004.5366,0,0
63.6,6.4453583,-7.716253,-0.45444515,1004.5165400000001,0,0
63.64,6.421439,-7.792517,-0.31714928,1004.5216,0,0
63.68,6.3831815999999995,-7.735317999999999,-0.41183909999999996,1004.52356,0,0
63.72,6.349702400000001,-7.668586,-0.40710655,1004.5316,0,0
63.76,6.368801599999999,-7.7019515,-0.36449876,1004.5391,0,0
63.8,6.3114204,-7.644752,-0.36450085,1004.53394,0,0
63.84,6.38788,-7.6447515,-0.37870570000000003,1004.5364,0,0
63.88,6.392641,-7.6924167,-0.34556657,1004.5614,0,0
63.92,6.435639,-7.4731545,-0.48286617,1004.52356,0,0
63.96,6.4834194000000025,-7.3492235999999975,-0.5160087000000001,1004.5465,0,0
64.0,6.3113230000000025,-7.5494184,-0.36450982,1004.57715,0,0
64.04,6.1774697,-7.7639130000000005,-0.1088537,1004.5283,0,0
64.08,6.187009,-7.7305470000000005,-0.1467308,1004.5364,0,0
64.12,6.440321,-7.5541835000000015,-0.37871826,1004.5465,0,0
64.16,6.4689746,-7.4445524,-0.47340864,1004.5386,0,0
64.2,6.3494573,-7.5637155,-0.45920740000000004,1004.5566,0,0
64.24,6.2729620000000015,-7.692411999999999,-0.44974038,1004.56885,0,0
64.28,6.287281,-7.6447463,-0.3550541,1004.5690300000001,0,0
64.32,6.2155647000000025,-7.62568,-0.35032147,1004.53156,0,0
64.36,6.2251105,-7.625679499999999,-0.30771309999999996,1004.5566,0,0
64.4,6.0926332,-7.6161794999999985,-0.17029114,1004.5491300000001,0,0
64.44,6.0305285,-7.7258115000000025,-0.30758584,1004.5465,0,0
64.48,6.116603,-7.8211426999999984,-0.25076953,1004.5514,0,0
64.52,6.307828400000001,-7.6161813999999985,-0.41173622,1004.5588,0,0
64.56,6.398678299999999,-7.473186,-0.6011093000000001,1004.5335699999999,0,0
64.6,6.3795857000000025,-7.46842,-0.65791976,1004.5465,0,0
64.64,6.322274,-7.516087,-0.53955543,1004.5559699999999,0,0
64.68,6.4226837,-7.5494537,-0.33123857,1004.54364,0,0
64.72,6.489636,-7.549454700000001,-0.24601604,1004.5491300000001,0,0
64.76,6.4084129999999995,-7.5732880000000025,-0.17973134,1004.5441,0,0
64.8,6.4514685,-7.4636580000000015,-0.29808795,1004.5311,0,0
64.84,6.3320074,-7.5208580000000005,-0.321757,1004.5514,0,0
64.88,6.1599607,-7.5875897,-0.29334807,1004.53864,0,0
64.92,6.0261683,-7.802086,-0.24600019,1004.5564,0,0
64.96,6.0692224999999995,-7.7210554999999985,-0.27913776,1004.53864,0,0
65.0,6.083588,-7.687690700000001,-0.2838697,1004.54364,0,0
65.04,5.992814,-7.859287299999999,-0.26966268,1004.5614,0,0
65.08,5.9450536,-7.840221400000001,-0.21758075,1004.5311,0,0
65.12,6.0550246,-7.706759,-0.3548752,1004.5386,0,0
65.16,6.1649933,-7.7305927,-0.4590291,1004.5233,0,0
65.2,6.2080445,-7.630496000000001,-0.55844855,1004.5559699999999,0,0
65.24,6.2033033,-7.6495633000000005,-0.34539685,1004.5641,0,0
65.28,6.198557,-7.9164914999999985,-0.33119065,1004.5361300000001,0,0
65.32,6.370665,-8.026123,-0.22229604,1004.5559699999999,0,0
65.36,6.456732,-7.6304994000000015,-0.41640379999999994,1004.5639,0,0
65.4,6.4224014,-7.4016833,-0.54431254,1004.5336,0,0
65.44,6.1881900000000005,-7.4970145000000015,-0.26498285,1004.55865,0,0
65.48,6.040015,-7.7210426,-0.15609166,1004.5486,0,0
65.52,5.977876,-7.7639413,-0.13241972,1004.54834,0,0
65.56,6.0543512999999995,-7.849739,-0.15609187,1004.5458,0,0
65.6,5.9061765999999984,-7.8449735999999985,-0.42595303,1004.5564,0,0
65.64,5.848817299999999,-7.9355383,-0.5064380999999999,1004.5356,0,0
65.68,5.906174,-7.82114,-0.71475196,1004.566,0,0
65.72,6.135603400000001,-7.606644599999999,-0.71948653,1004.57605,0,0
65.76,6.207299,-7.6543100000000015,-0.63900167,1004.54364,0,0
65.8,6.226417,-7.644777,-0.54904807,1004.5358,0,0
65.84,6.240755,-7.620944500000001,-0.41175047,1004.55615,0,0
65.88,6.169057,-7.558979499999999,-0.29812488,1004.5491300000001,0,0
65.92,6.1929545,-7.6114115999999985,-0.27918738,1004.5582,0,0
65.96,6.2598705,-7.625711,-0.49697012,1004.5458,0,0
66.0,6.183393,-7.678142999999999,-0.40228212,1004.54364,0,0
66.04,6.0399975999999995,-7.878338999999999,-0.35967259999999995,1004.57605,0,0
66.08,6.360243,-7.640011,-0.59165853,1004.55865,0,0
66.12,6.556214,-7.4398155,-0.8993950000000001,1004.55365,0,0
66.16,6.4510565,-7.482714,-0.9088639000000001,1004.5408,0,0
66.2,6.1308089999999975,-7.8545046,-0.66267496,1004.56104,0,0
66.24,6.1021285,-7.7973065,-0.46383005,1004.5532,0,0
66.28,6.121246299999999,-7.6495433,-0.37861094,1004.55865,0,0
66.32,6.1642637,-7.663842999999999,-0.36914223,1004.56085,0,0
66.36,6.063886,-7.640011,-0.26498547,1004.54083,0,0
66.4,6.116901,-7.606655,-0.24127342,1004.5458,0,0
66.44,6.30333,-7.5542235,-0.50639856,1004.5758,0,0
66.48,6.394163,-7.4970255,-0.49219382,1004.5336,0,0
66.52,6.451536,-7.482725999999999,-0.4685204000000001,1004.5383,0,0
66.56,6.370294599999999,-7.4922595,-0.52059746,1004.55084,0,0
66.6,6.3272934,-7.5875907000000025,-0.4637831,1004.56616,0,0
66.64,6.332089,-7.578058199999999,-0.34542143,1004.5783,0,0
66.68,6.1934915,-7.725822,-0.25546625,1004.5582,0,0
66.72,6.217407,-7.687690299999999,-0.43537214,1004.5532,0,0
66.76,6.4755325,-7.525627,-0.62948126,1004.5705,0,0
66.8,6.4851084000000006,-7.4207635,-0.45904124,1004.5455300000001,0,0
66.84,6.289152,-7.4874953999999985,-0.43063328,1004.5607,0,0
66.88,6.3130665,-7.530394999999999,-0.35961577,1004.57324,0,0
66.92,6.246167,-7.582828,-0.38328624,1004.5408,0,0
66.96,6.207945,-7.649560000000001,-0.34067506,1004.57355,0,0
67.0,6.169722599999999,-7.687692599999999,-0.29806402,1004.5658599999999,0,0
67.04,6.1840787000000015,-7.635261,-0.26492167,1004.5506,0,0
67.08,6.1793137000000025,-7.6543274000000014,-0.3927492,1004.56085,0,0
67.12,6.3514029999999995,-7.516097999999999,-0.41641968,1004.5483,0,0
67.16,6.494813400000001,-7.4350667,-0.39748055,1004.5383,0,0
67.2,6.375335,-7.501798599999999,-0.43535429999999997,1004.5682400000001,0,0
67.24,6.222396,-7.592364,-0.52057225,1004.5506,0,0
67.28,6.188954,-7.5780644,-0.25544408,1004.55304,0,0
67.32,6.069475,-7.663863,-0.24123938,1004.53577,0,0
67.36,6.1220684,-7.821160000000001,-0.18915951,1004.5455300000001,0,0
67.4,6.294158,-7.7639613,-0.20809565,1004.5607,0,0
67.44,6.5229235,-7.578049000000001,-0.49222082,1004.5556,0,0
67.48,6.781022999999999,-7.3158884,-0.7857546999999999,1004.5782,0,0
67.52,6.3364910000000005,-7.458885,-0.90885025,1004.5830000000001,0,0
67.56,5.85372,-7.7448783,-0.47802037,1004.568,0,0
67.6,6.4320674,-7.8640413,0.18479544,1004.5705,0,0
67.64,6.728403999999999,-7.287288,-0.47802216,1004.57074,0,0
67.68,6.3029923,-7.4159856,-0.7573529,1004.5381,0,0
67.72,6.193047,-7.5256157,-0.38333583,1004.55804,0,0
67.76,6.0209637,-7.7925425000000015,-0.18449184,1004.56573,0,0
67.8,6.063972,-7.773476,-0.014054131000000001,1004.533,0,0
67.84,6.4081078,-7.415984,-0.1560872,1004.5655,0,0
67.88,6.1738887,-7.5494475,-0.5253715999999999,1004.5252,0,0
67.92,5.9301075999999995,-7.778242,-0.32179317,1004.5377,0,0
67.96,6.460656,-7.506547999999999,-0.26024684,1004.5377,0,0
68.0,6.675737,-7.349251299999999,-0.7573602,1004.5656,0,0
68.04,6.7856630000000004,-7.220554400000001,-0.97040933,1004.57794,0,0
68.08,6.388929,-7.659076700000001,-0.7999715999999999,1004.5323,0,0
68.12,6.0973510000000015,-7.778241,-0.43542346,1004.5527,0,0
68.16,6.0543227,-7.7782407000000005,-0.21764176,1004.5702,0,0
68.2,6.259844999999999,-7.5351458,-0.35494035,1004.5427,0,0
68.24,6.3745503,-7.4731803,-0.3786133,1004.5606,0,0
68.28,6.5705100000000005,-7.3921485,-0.49224013,1004.5626,0,0
68.32,6.522704,-7.4112144,-0.76683635,1004.5705,0,0
68.36,6.3936386,-7.530378999999999,-0.6626804000000001,1004.5557,0,0
68.4,6.3075304,-7.6161747,-0.41176352,1004.5826400000001,0,0
68.44,6.149783599999999,-7.625707000000001,-0.53012484,1004.5555400000001,0,0
68.48,6.2692666,-7.6638392999999985,-0.41176579999999996,1004.5551,0,0
68.52,6.331392299999999,-7.5685080000000005,-0.55379903,1004.5632,0,0
68.56,6.3791776,-7.477943400000001,-0.6153475,1004.5605,0,0
68.6,6.460421,-7.311114,-0.6248175,1004.5705,0,0
68.64,6.4795284,-7.3158793000000015,-0.89467967,1004.5855,0,0
68.68,6.503415,-7.377845,-0.6721638000000001,1004.5676,0,0
68.72,6.360007,-7.549440400000001,-0.43544486,1004.5705,0,0
68.76,6.3599954000000025,-7.4064429999999986,-0.506462,1004.53723,0,0
68.8,6.316965,-7.4874740000000015,-0.35022762,1004.5755,0,0
68.84,6.111421,-7.6686034,-0.35022882,1004.5980000000001,0,0
68.88,6.2882624000000025,-7.415975599999999,-0.3454955,1004.5451,0,0
68.92,6.66585,-7.296811,-0.814203,1004.5552,0,0
68.96,6.718419,-7.277744999999999,-0.80946946,1004.5601,0,0
69.0,6.6467094,-7.272978,-0.70057935,1004.5652,0,0
69.04,6.51286,-7.444573399999999,-0.62483025,1004.5626,0,0
69.08,6.364675,-7.6304690000000015,-0.5301431,1004.5726300000001,0,0
69.12,6.1400120000000005,-7.873563000000001,-0.3975809,1004.5548,0,0
69.16,6.0061655,-7.802064,-0.2129402,1004.5605,0,0
69.2,6.2116857,-7.4970045,-0.3833799000000001,1004.57965,0,0
69.24,6.4841213,-7.3301744000000015,-0.66744536,1004.5702,0,0
69.28,6.488889,-7.420739,-0.72425926,1004.5601,0,0
69.32,6.4745370000000015,-7.5208364,-0.6911196,1004.5576,0,0
69.36,6.436286,-7.5589685,-0.5964326999999999,1004.5451,0,0
69.4,6.3559265,-7.4970255,-0.5584753,1004.5655,0,0
69.44,6.3224854000000015,-7.5685244,-0.38803512,1004.5701,0,0
69.48,6.4085449999999975,-7.544691999999999,-0.29334491,1004.563,0,0
69.52,6.4276943,-7.4588947,-0.37382704,1004.5930000000001,0,0
69.56,6.3990397,-7.4684285999999975,-0.5347946,1004.5722,0,0
69.6,6.4229629999999975,-7.4827285,-0.43536994,1004.5702,0,0
69.64,6.3130510000000015,-7.516095,-0.40222687,1004.5601,0,0
69.68,6.246158,-7.5780606,-0.53952235,1004.54974,0,0
69.72,6.222282,-7.597128,-0.44956666,1004.54474,0,0
69.76,6.231864,-7.5971284,-0.3974861,1004.5551,0,0
69.8,6.3561587,-7.53993,-0.43062517,1004.5826400000001,0,0
69.84,6.365739,-7.4731983999999985,-0.47796726,1004.56476,0,0
69.88,6.404008999999999,-7.4636664,-0.41641712,1004.5601,0,0
69.92,6.3849125,-7.4827331999999975,-0.5111032,1004.54224,0,0
69.96,6.3897147000000025,-7.5113330000000005,-0.34066248,1004.5847,0,0
70.0,6.399298,-7.5446997000000025,-0.33119149999999997,1004.5622599999999,0,0
70.04,6.3802037,-7.5304002999999975,-0.37379894,1004.5601,0,0
70.08,6.32765,-7.468436200000001,-0.49215686,1004.5675699999999,0,0
70.12,6.3324537,-7.5590009999999985,-0.55843633,1004.56506,0,0
70.16,6.3372498,-7.516103,-0.53949714,1004.5747,0,0
70.2,6.385078,-7.573302,-0.5868384,1004.5772,0,0
70.24,6.356422,-7.6162009999999984,-0.57736754,1004.5726300000001,0,0
70.28,6.375567,-7.525637599999999,-0.49214602,1004.5797,0,0
70.32,6.385149,-7.497039,-0.51581585,1004.5345,0,0
70.36,6.3182573,-7.5161057,-0.32643740000000004,1004.55225,0,0
70.4,6.389443,-7.4684277,-0.49692273,1004.57715,0,0
70.44,6.3320875,-7.520859700000001,-0.41170323,1004.5645,0,0
70.48,6.274732599999999,-7.6447897,-0.5442664,1004.5595,0,0
70.52,6.236496400000001,-7.5351589999999975,-0.6626263000000001,1004.56476,0,0
70.56,6.1217833,-7.716288599999999,-0.71943897,1004.5622599999999,0,0
70.6,6.1600246,-7.682923,-0.6105474,1004.56476,0,0
70.64,6.289082,-7.535159599999999,-0.6862976,1004.5747,0,0
70.68,6.293864,-7.554226,-0.3359514,1004.5548,0,0
70.72,6.3225455,-7.5828257,-0.21285665,1004.577,0,0
70.76,6.418144,-7.5589924,-0.3264822,1004.56476,0,0
70.8,6.384688,-7.535159599999999,-0.34068513,1004.55444,0,0
70.84,6.279535,-7.6018915,-0.4306385999999999,1004.5476,0,0
70.88,6.279537,-7.6495570000000015,-0.55373293,1004.5747,0,0
70.92,6.27954,-7.706755999999999,-0.6436863,1004.59467,0,0
70.96,6.212625,-7.6447906,-0.724171,1004.5392,0,0
71.0,6.2652054,-7.5971255000000015,-0.7289051,1004.552,0,0
71.04,6.3655834,-7.4445960000000015,-0.5868728,1004.552,0,0
71.08,6.413384400000001,-7.482728,-0.46377808,1004.5645,0,0
71.12,6.3177905,-7.5923586,-0.21285439,1004.54205,0,0
71.16,6.1361604000000005,-7.668623399999999,-0.12763493,1004.55695,0,0
71.2,6.1600623,-7.6304913,-0.2649324,1004.5545699999999,0,0
71.24,6.207862,-7.587592,-0.6058093000000001,1004.5542,0,0
71.28,6.351258799999999,-7.544694,-0.6436843000000001,1004.55725,0,0
71.32,6.4133987,-7.592359,-0.6436841,1004.567,0,0
71.36,6.384723,-7.5780597000000025,-0.7194344,1004.5745,0,0
71.4,6.2176504,-7.668628999999999,-0.5016315,1004.5891,0,0
71.44,6.1364064,-7.6829295,-0.36906700000000003,1004.5845,0,0
71.48,6.098178400000001,-7.659097,-0.32172203,1004.5567,0,0
71.52,6.112529299999999,-7.721062700000001,-0.30751774,1004.57135,0,0
71.56,6.1794577,-7.7258296,-0.3406575,1004.577,0,0
71.6,6.236827,-7.6114320000000015,-0.53476715,1004.55725,0,0
71.64,6.3658915,-7.539934,-0.7052046999999999,1004.5616,0,0
71.68,6.4806194,-7.4636693,-0.6767972,1004.5567,0,0
71.72,6.3659153,-7.482736,-0.55843604,1004.5696,0,0
71.76,6.217752,-7.620967,-0.36432445,1004.5442,0,0
71.8,6.2368827000000016,-7.635267,-0.44954273,1004.55164,0,0
71.84,6.2799125,-7.5161032999999975,-0.48268247,1004.5616,0,0
71.88,6.3229413,-7.5637684000000025,-0.51582235,1004.5766,0,0
71.92,6.3133926,-7.568536,-0.5442276999999999,1004.5542,0,0
71.96,6.3181834000000014,-7.6066685,-0.68625885,1004.5794,0,0
72.0,6.389892,-7.559003,-0.74307066,1004.5816699999999,0,0
72.04,6.380344,-7.5447039999999985,-0.70519435,1004.5719,0,0
72.08,6.2704185999999975,-7.659101,-0.5631613,1004.5694,0,0
72.12,6.2321916,-7.5828365999999985,-0.49214423,1004.5545699999999,0,0
72.16,6.2274237,-7.6066694,-0.4400647,1004.5666,0,0
72.2,6.2656730000000005,-7.644802,-0.54422057,1004.5564,0,0
72.24,6.361281,-7.5590043000000025,-0.52528185,1004.5541400000001,0,0
72.28,6.3708519999999975,-7.4160080000000015,-0.68151623,1004.5545699999999,0,0
72.32,6.370863,-7.506572999999999,-0.72412485,1004.55896,0,0
72.36,6.3469752999999995,-7.5494723,-0.6247013000000001,1004.5445,0,0
72.4,6.279725599999999,-7.6066628,-0.615263,1004.5696,0,0
72.44,6.2653837,-7.620962599999999,-0.58685666,1004.5565,0,0
72.48,6.2032433,-7.5685306,-0.5158408,1004.5565,0,0
72.52,6.1554427,-7.620962599999999,-0.4400907,1004.5392,0,0
72.56,6.1028624,-7.6638613,-0.47323167,1004.5495,0,0
72.6,6.1076403,-7.6781607,-0.4684975,1004.5692,0,0
72.64,6.069399,-7.673394,-0.62946755,1004.5819,0,0
72.68,6.1697726,-7.682927,-0.54898286,1004.5741,0,0
72.72,6.341843,-7.516097999999999,-0.6105304,1004.56146,0,0
72.76,6.585610000000001,-7.4017005000000005,-0.861454,1004.5690300000001,0,0
72.8,6.623846,-7.4541326,-0.97507995,1004.5717,0,0
72.84,6.3466153,-7.5542300000000004,-0.8425169,1004.5342,0,0
72.88,5.91643,-7.821157,-0.48270230000000003,1004.54395,0,0
72.92,5.8447309999999995,-7.897422,-0.44009298,1004.55896,0,0
72.96,5.9737835,-7.7734914,-0.44956195,1004.5692,0,0
73.0,6.0359178,-7.864055599999999,-0.5016407,1004.58405,0,0
73.04,6.069374,-7.85929,-0.65787625,1004.5542,0,0
73.08,6.0072339999999995,-7.8259240000000005,-0.80464303,1004.5565,0,0
73.12,6.0932684,-7.749658599999999,-0.95140976,1004.56354,0,0
73.16,6.4278517,-7.6304946,-0.82358116,1004.5741,0,0
73.2,6.6811789999999975,-7.4970307,-0.7099557,1004.54846,0,0
73.24,6.8341303,-7.334967599999999,-0.6673462,1004.5639,0,0
73.28,6.628596300000001,-7.339734,-0.5537207,1004.5766,0,0
73.32,6.0024394999999995,-7.6447935,-0.3832824,1004.5666,0,0
73.36,5.653511,-8.07855,-0.22231282,1004.5741,0,0
73.4,5.4431973,-8.07855,-0.22704746,1004.55853,0,0
73.44,5.8354945,-7.792566000000001,-0.46373528,1004.5894,0,0
73.48,6.3469462,-7.5447054000000024,-0.823549,1004.5591,0,0
73.52,6.485571,-7.4255414,-1.1218156000000001,1004.5690300000001,0,0
73.56,6.4569035,-7.4446077000000015,-1.0602673,1004.54395,0,0
73.6,6.1892457,-7.563772,-0.8850931999999999,1004.57153,0,0
73.64,5.9741664000000005,-7.620971000000001,-0.7383255,1004.5639,0,0
73.68,6.055433799999999,-7.7592015,-0.44952592,1004.5616,0,0
73.72,6.0554457,-7.8878984,-0.22227336,1004.56885,0,0
73.76,5.9837584,-7.8307004000000004,-0.47319585,1004.5888699999999,0,0
73.8,5.9407516,-7.682937,-0.71938396,1004.5564,0,0
73.84,5.959882299999999,-7.763969,-0.9040246999999999,1004.5514,0,0
73.88,6.0937285,-7.754436,-0.908758,1004.54395,0,0
73.92,6.146317,-7.773503,-0.9182259,1004.54895,0,0
73.96,6.0698524,-7.8783664999999985,-0.8708806,1004.55347,0,0
74.0,5.988607,-7.8164024,-0.81880116,1004.6041,0,0
74.04,5.950378400000001,-7.7639704,-0.7193779,1004.56885,0,0
74.08,5.95995,-7.749671,-0.6815014,1004.5489,0,0
74.12,5.9599605,-7.768738000000001,-0.5868123000000001,1004.5461,0,0
74.16,6.03167,-7.7639713000000015,-0.5631392,1004.5514,0,0
74.2,6.2133136,-7.706772999999999,-0.61521673,1004.581,0,0
74.24,6.2993608,-7.625742,-0.68623173,1004.5835,0,0
74.28,6.2659135,-7.7115399999999985,-0.76198125,1004.57886,0,0
74.32,6.1607695,-7.6829410000000005,-0.6530888000000001,1004.5690300000001,0,0
74.36,6.079524,-7.640042,-0.572603,1004.57635,0,0
74.4,6.1942505999999975,-7.559011,-0.6199458999999999,1004.574,0,0
74.44,6.3606476999999995,-7.5685225,-0.492199,1004.57635,0,0
74.48,6.3940825,-7.6161866,-0.42591953,1004.57886,0,0
74.52,6.226765,-7.759183,-0.7715333000000001,1004.54834,0,0
74.56,6.1646004,-7.8259144,-0.75259817,1004.5688,0,0
74.6,6.107217299999999,-7.701983500000001,-0.8425543,1004.58636,0,0
74.64,6.025937,-7.749648,-0.8188844,1004.5514,0,0
74.68,5.906417,-7.849744999999999,-0.66265124,1004.56104,0,0
74.72,5.7677794,-7.906943300000001,-0.44960523,1004.5685,0,0
74.76,5.743859,-7.9212427,-0.35965344,1004.5509599999999,0,0
74.8,5.8155317,-7.8354445,-0.3738589000000001,1004.58636,0,0
74.84,5.8633120000000005,-7.8211436,-0.38332936,1004.5559699999999,0,0
74.88,5.9349804000000015,-7.7258124000000015,-0.54903615,1004.5258,0,0
74.92,6.078349,-7.7687106,-0.60585135,1004.561,0,0
74.96,6.116569,-7.783010000000001,-0.65793145,1004.5635,0,0
75.0,6.1069827000000005,-7.7687089999999985,-0.6579339,1004.55835,0,0
75.04,6.135644999999999,-7.749642999999999,-0.6626698000000001,1004.5685,0,0
75.08,5.9778857000000025,-7.821141000000001,-0.4543584,1004.5835,0,0
75.12,5.9396157,-8.183398,-0.7289566999999999,1004.5685,1,4
75.16,6.1116657,-8.150031,-0.7289587,1004.5733,1,4
75.2,6.0017065999999994,-8.007033999999999,-1.2402767,1004.5635,1,4
75.24,6.1259584,-8.026099,-1.008293,1004.5658599999999,1,4
75.28,6.412721,-7.7687054,-1.4580636999999999,1004.5635,1,4
75.32,4.787567,-8.297792,-1.7326612000000001,1004.5985,1,4
75.36,3.5447940000000004,-8.836412,-3.02989,1004.5785,1,4
75.4,3.8605182,-8.593325,-2.191877,1004.581,1,4
75.44,2.961903,-9.322607000000001,-2.0072362,1004.56085,1,4
75.48,3.8079157,-9.23681,-1.6758292000000001,1004.6014,1,4
75.52,5.523853,-9.050914,-1.1077018,1004.5706,1,4
75.56,6.4845809999999995,-9.012781,-0.9088579,1004.5988,1,4
75.6,7.344932000000001,-8.231065,-0.24604248,1004.5790400000001,1,4
75.64,7.9423966,-7.063258,-0.5111702,1004.6010000000001,1,4
75.68,9.099096000000001,-6.262476,-1.1361128,1004.5559699999999,1,4
75.72,11.106602,-6.562769,-0.6863454000000001,1004.57825,1,4
75.76,13.233602,-6.2863083,0.78605324,1004.576,1,4
75.8,13.69723,-6.0765796,1.9128405,1004.5888699999999,1,4
75.84,12.1724615,-7.477947,2.1495597,1004.6010000000001,1,4
75.88,11.183029,-8.545655,1.1742709999999998,1004.5813,1,4
75.92,10.188817,-9.465601,1.0085657,1004.5957599999999,1,4
75.96,9.31888,-10.380778999999999,1.2642223,1004.5984,1,4
76.0,8.367687,-11.214927000000001,1.131658,1004.60596,1,4
76.04,7.239639299999999,-12.101506,0.6582163000000001,1004.58344,1,4
76.08,3.841187,-12.921352,-0.17977445,1004.5935,1,4
76.12,0.6243673000000001,-13.06435,-1.5385497,1004.59827,1,4
76.16,-0.264689,-12.425631,-1.1882049,1004.5935,1,4
76.2,-0.943433,-13.345575,-0.8710009,1004.571,1,4
76.24,-1.8802873,-14.589645999999998,-0.47331202,1004.5629,1,4
76.28,1.3317275,-12.935651,0.14215933,1004.5559699999999,1,4
76.32,4.538964,-12.954718,-1.1408653999999998,1004.5557,1,4
76.36,7.497650599999999,-13.669701000000002,-2.447562,1004.5436,1,4
76.4,9.582009,-14.270295999999998,-1.6474146,1004.5310699999999,1,4
76.44,10.81042,-12.711632,1.4441518999999998,1004.5685,1,4
76.48,10.456717999999999,-11.281665,1.8939206999999998,1004.5858,1,4
76.52,9.457742,-10.213957,0.8902271,1004.5557,1,4
76.56,10.480621000000001,-8.507528,0.23214498,1004.5559699999999,1,4
76.6,11.532181,-5.008876,0.066441074,1004.5658599999999,1,4
76.64,11.183258,-3.2833822,0.71505475,1004.5713,1,4
76.68,10.743519000000001,-3.1308525,0.29842737,1004.571,1,4
76.72,11.369676,-3.3024483,-0.32177943,1004.56335,1,4
76.76,12.273061,-5.8334904000000005,-0.17974706,1004.56354,1,4
76.8,13.491913,-8.526595,-0.638984,1004.5383,1,4
76.84,15.427736,-10.361719,-0.9372514000000001,1004.60596,1,4
76.88,15.140951000000001,-14.475257999999998,-0.1844808,1004.6559,1,4
76.92,14.414423000000001,-17.988209,0.45466409999999996,1004.6359,1,4
76.96,14.52914,-19.875764999999998,2.3626297000000003,1004.6334,1,4
77.0,12.66502,-18.908154,2.177988,1004.6584,1,4
77.04,7.412017,-18.336166,1.3068576,1004.6558,1,4
77.08,5.380603,-14.236931,1.3068578000000002,1004.5830699999999,1,4
77.12,2.3693292,-11.500928,-1.4959095,1004.5957599999999,1,4
77.16,-1.0482281,-10.552382000000001,-2.6842449,1004.6084,1,4
77.2,-1.8464528000000002,-10.070960000000001,0.047506854,1004.576,1,4
77.24,-3.409446,-11.305499000000001,1.1648265,1004.5785,1,4
77.28,-3.1704533,-11.948984,0.6251047,1004.5283,1,4
77.32,-0.08747739999999997,-12.802197,-1.4864396,1004.5133,1,4
77.36,3.7124696000000004,-16.787039,-1.4012202,1004.4708,1,4
77.4,8.612303,-19.661282999999997,0.30794895,1004.55334,1,4
77.44,13.172257,-20.466832999999998,1.0039084999999999,1004.581,1,4
77.48,16.341291000000002,-17.997759,0.36003179999999996,1004.5333,1,4
77.52,17.469348999999998,-13.245501999999998,-0.8661770000000001,1004.5556,1,4
77.56,15.423619,-9.117664,1.2216978,1004.5681,1,4
77.6,12.488843,-9.07,1.9555327,1004.5755,1,4
77.64,9.377213000000001,-9.894615,0.6772455,1004.60345,1,4
77.68,7.407959,-8.416983,0.42632437,1004.5830699999999,1,4
77.72,8.870602,-5.752477,0.42159203,1004.5635,1,4
77.76,11.609451,-4.0698833,0.033372894,1004.5629,1,4
77.8,14.649432000000001,-2.3539236,-0.28856423,1004.5557,1,4
77.84,16.069056,-3.2405035,0.6062403000000001,1004.5557,1,4
77.88,14.047224,-8.121459,-0.10391824,1004.5733,1,4
77.92,13.220343,-10.509504,1.0465443,1004.60596,1,4
77.96,11.7625265,-13.069147000000001,2.163866,1004.6130400000001,1,4
78.0,10.9691,-15.4571905,1.6572866000000002,1004.61316,1,4
78.04,11.418427000000001,-17.592607,0.83350265,1004.6335,1,4
78.08,10.538966,-16.486769,2.097591,1004.6359,1,4
78.12,8.407199,-15.1855,2.4716112999999997,1004.61554,1,4
78.16,7.035417599999999,-14.551549,2.5899734,1004.64594,1,4
