Timestamp,Ax,Ay,Az,P,Value,Type
0.0,7.55191,-0.55135626,4.3007903,1005.0169,0,0
0.04,9.105189,0.35405886,4.604653,1005.0274699999999,0,0
0.08,9.114711,0.12526509,3.8518790000000003,1004.9898699999999,0,0
0.12,8.722733,-0.34662324,3.3879042,1004.9901,0,0
0.16,9.219793,0.039468832,3.8613410000000004,1005.0127,0,0
0.2,9.444407,0.24443169,3.1227705,1005.04065,0,0
0.24,9.038089999999999,0.25396565,3.1275017000000003,1005.0058,0,0
0.28,9.334402,0.60192525,2.909716,1005.0314300000001,0,0
0.32,9.860142999999999,0.5971595999999999,3.4920440000000004,1005.0039999999999,0,0
0.36,9.052321000000001,0.482763,2.8623652,1005.0115400000001,0,0
0.4,9.199842,0.32548259999999996,3.8186555,1005.01904,0,0
0.44,9.27148,0.55427885,3.5109133999999997,1004.98175,0,0
0.48,9.128028,0.5066148,3.5393147000000003,1005.0347,0,0
0.52,8.783825,0.34455314,3.8328425999999998,1005.0352,0,0
0.56,8.783764,0.30642217,3.8707123,1005.0126300000001,0,0
0.6,8.52559,0.10622838,3.2362962000000004,1004.9976,0,0
0.64,8.879234,0.41605616,3.2362905,1005.01044,0,0
0.68,8.989113,-0.051064998,3.6718504000000003,1005.01324,0,0
0.72,9.247161,0.087166525,3.6671101999999998,1004.9932,0,0
0.76,8.902954,-0.27985679999999996,3.2173363999999998,1005.0136,0,0
0.8,9.600745,-0.06536017,3.0042827,1004.9839,0,0
0.84,9.710627,-0.03675957,3.2125914,1004.9811,0,0
0.88,9.237366,-0.29891872,2.6491919,1004.97845,0,0
0.92,9.208625999999999,-0.7469736,2.9237819,1004.9894400000001,0,0
0.96,9.763023,-0.48004502,2.4124603,1004.9714,0,0
1.0,9.069891,-0.8137024,2.5970967000000003,1004.9945,0,0
1.04,9.361399,-0.7851015,3.364064700000001,1004.967,0,0
1.08,9.270521,-1.0520272,2.2893493,1005.025,0,0
1.12,8.7877,-1.4190506,1.6928086,1004.9921,0,0
1.16,9.930016,-1.8575726000000001,3.6481125,1004.99054,0,0
1.2,9.901277,-0.43237048,1.8300955,1004.99786,0,0
1.24,9.590527999999999,-1.0567878000000002,2.0431385,1005.0083,0,0
1.28,9.332358000000001,-1.2140828000000001,1.858491,1005.00085,0,0
1.32,10.359958,-0.5229307,2.4834273,1005.00104,0,0
1.36,9.418281,-1.5811048,1.7543235000000001,1005.0139999999999,0,0
1.4,10.077926,-0.6849930000000001,2.3934712000000005,1005.0111699999999,0,0
1.44,9.532973,-0.98528486,2.5686392999999996,1005.00397,0,0
1.48,9.403862,-0.98528343,1.9626302,1005.0141,0,0
1.52,9.599776,-1.1282786,2.5402223999999998,1005.0068,0,0
1.56,9.379856,-1.4047377,2.895298,1005.00684,0,0
1.6,9.480167,-1.2903388,2.6964474,1004.98676,0,0
1.64,9.915076,-1.2903373,2.3176901,1004.98724,0,0
1.68,9.336666000000001,-1.4285663,2.1093712000000004,1005.00006,0,0
1.72,9.441761,-1.5238958999999999,2.9473553,1004.9675,0,0
1.76,9.159699,-1.1521032,1.2571678,1004.9772,0,0
1.8,9.618511999999999,-1.1807013000000002,2.7627041,1005.01807,0,0
1.84,9.551528999999999,-1.45716,2.7579637000000004,1004.99084,0,0
1.88,9.10695,-1.3427612,2.4312847,1004.9930400000001,0,0
1.92,9.503625,-1.5238892,2.6443286,1005.0084,0,0
1.96,9.269358,-1.8051146,2.7768865000000003,1004.9859,0,0
2.0,9.297976,-1.4952871,2.3697221,1004.99097,0,0
2.04,9.336160000000001,-1.1139611,2.1566691000000002,1005.0011599999999,0,0
2.08,9.446042,-1.4809847,3.0135913,1005.00146,0,0
2.12,8.729011999999999,-1.5048158999999999,2.9188979,1004.9987,0,0
2.16,8.963167,-1.7669753000000001,3.1934881,1004.9941,0,0
2.2,8.719339999999999,-1.9290368999999998,3.4396720000000003,1004.9941,0,0
2.24,8.771865,-1.9242686999999998,3.6811218,1005.007,0,0
2.28,9.149412,-2.2912924,5.3239550000000015,1004.99994,0,0
2.32,9.048979,-1.7479036000000001,3.2076712000000005,1004.9798,0,0
2.36,8.86251,-1.6239716999999998,2.952008,1004.97455,0,0
2.4,8.862842,-1.7050112000000002,3.1414142000000003,1005.0053,0,0
2.44,9.09223,-1.9481046000000002,3.3639276,1004.98553,0,0
2.48,9.010933999999999,-1.9576368000000002,3.363924,1004.9725300000001,0,0
2.52,9.092148,-2.0243676,3.619578100000002,1005.0058,0,0
2.56,9.149465,-2.0338995,3.7758093,1005.01855,0,0
2.6,8.872197,-1.8194035,3.614836,1004.99585,0,0
2.64,9.2545395,-1.4094787,3.4680660000000003,1004.99084,0,0
2.68,8.6857,-1.7526697,2.7389636000000004,1005.0112,0,0
2.72,8.704781,-1.8003345000000002,3.1650565,1004.99115,0,0
2.76,8.785996,-2.105393,2.9898796,1004.99115,0,0
2.8,9.63198,-2.2579217000000003,3.5485356,1004.9913,0,0
2.84,9.349932,-2.2388546000000003,3.6858296000000004,1005.0011599999999,0,0
2.88,9.287749,-2.0386581,2.4359425999999997,1005.0267,0,0
2.92,9.115635000000001,-2.0291240000000004,3.5816648,1005.01416,0,0
2.96,8.929183,-1.9004259,1.9482915,1005.0066,0,0
3.0,9.086875,-1.6001318000000002,0.44274715,1004.98193,0,0
3.04,9.756007,-2.3055812999999996,3.4585593,1004.99445,0,0
3.08,9.177612,-2.2722142000000005,2.1707978,1004.9946,0,0
3.12,9.937555999999999,-1.6048955,1.8441197,1005.0402,0,0
3.16,9.512112,-1.5238628,1.0440013000000001,1005.0278,0,0
3.2,9.975712,-0.9804744000000001,2.0571601000000004,1005.02765,0,0
3.24,9.445117,-1.8575199,2.923553,1005.01276,0,0
3.28,9.163067,-1.6716231,2.1044972,1005.03296,0,0
3.32,9.258617,-1.6954547999999998,2.6016054,1005.0356400000001,0,0
3.36,9.191659,-1.7049869999999998,2.0050666,1005.00543,0,0
3.4,9.553626,-1.6668227,1.5788513000000002,1005.01605,0,0
3.44,9.653911,-1.7859843999999998,1.9244546000000002,1005.0060000000001,0,0
3.48,9.5916815,-1.7764490000000002,1.6735228,1004.9759,0,0
3.52,9.605935,-1.7240148999999998,1.3563098,1004.99835,0,0
3.56,9.820941,-1.4809183000000001,2.0617282,1005.0060000000001,0,0
3.6,9.443239,-1.5762471000000002,1.8534055,1005.00885,0,0
3.64,9.371457000000001,-1.7287747,1.7634441000000003,1005.0263699999999,0,0
3.68,9.562552,-1.8384032,1.8581232,1005.0013,0,0
3.72,9.724979,-2.0576625,2.1090388,1004.99646,0,0
3.76,9.935205,-1.7573675,1.7350131000000002,1005.0242,0,0
3.8,10.135866,-1.4189398000000002,1.4367372,1005.03217,0,0
3.84,9.786855000000001,-1.5762341,1.6497775000000001,1005.0369999999999,0,0
3.88,9.38048,-1.4570678,1.3562361,1005.02484,0,0
3.92,9.141404,-1.6477278000000002,1.6639646000000001,1005.0422,0,0
3.96,9.375518,-1.5094954,1.5882052,1005.0148300000001,0,0
4.0,9.275051,-1.7907201000000001,1.6450098000000002,1005.0148300000001,0,0
4.04,9.246281,-1.8193172,1.7396895,1004.9996,0,0
4.08,9.647698,-1.6477191000000002,1.3988045,1004.99475,0,0
4.12,9.614149000000001,-1.8955779,1.2662328,1005.0101300000001,0,0
4.16,9.6762,-1.7811784,1.7775406999999999,1005.0201400000001,0,0
4.2,9.695229,-1.523782,1.3561703999999999,1004.9951,0,0
4.24,9.814632000000001,-1.4236821000000002,1.5123973,1005.0054,0,0
4.28,9.699826,-1.2902163,1.4792482,1004.9825,0,0
4.32,9.561126,-1.1519841,1.3088017,1005.0027,0,0
4.36,9.322039,-1.1329154,1.1383543,1005.0028699999999,0,0
4.4,9.1762295,-1.3236357,1.3516188999999998,1005.0055,0,0
4.44,9.448683,-1.223538,1.7682470000000001,1005.0306,0,0
4.48,9.663778,-1.247371,1.7019657,1005.0033599999999,0,0
4.52,9.568189,-1.3856013,1.4273708,1005.00085,0,0
4.56,9.749825999999999,-1.4428,1.4084337,1005.0312,0,0
4.6,10.00794,-1.4285005,1.6735609,1005.0033599999999,0,0
4.64,9.93147,-1.3903681,1.6640925,1005.0213,0,0
4.68,10.084425999999999,-1.0567094,1.5457326999999998,1005.01636,0,0
4.72,9.855002,-0.60865325,1.4321076000000001,1005.0060000000001,0,0
4.76,9.424825,-0.9041799,1.6025466,1005.0417,0,0
4.8,9.290996,-1.0853091000000001,1.3942332,1005.0165,0,0
4.84,9.49653,-1.237839,1.176451,1005.0219999999999,0,0
4.88,9.329243,-1.6954285,1.4368436000000002,1005.0246,0,0
4.92,8.994662,-1.7669271,1.200124,1005.02167,0,0
4.96,9.37705,-1.8479588,1.3516253,1005.0016,0,0
5.0,9.3674965,-1.6334636999999999,1.143312,1005.0222,0,0
5.04,9.396181,-1.1425085,1.2900791,1004.9915,0,0
5.08,9.52046,-1.042411,1.332689,1005.0349,0,0
5.12,9.616062,-1.118676,1.5410033,1005.0273,0,0
5.16,9.711661999999999,-0.9661464,1.6309576000000001,1005.0327,0,0
5.2,9.711668,-0.9470801999999999,1.93396,1005.0274,0,0
5.24,9.472682,-1.1472757,1.7493186,1005.0077,0,0
5.28,9.291056,-1.3188719,1.630959,1005.0023,0,0
5.32,9.338859,-1.2569066999999998,1.5741465000000001,1005.0451,0,0
5.36,9.576474000000001,-1.3617373,1.2994253999999998,1005.0305,0,0
5.4,9.858436,-1.3760357,1.4035779,1005.0501,0,0
5.44,10.068696000000001,-1.1853723999999999,1.2662754999999999,1004.9976,0,0
5.48,10.178581,-1.1710713,1.2425988000000001,1005.0303,0,0
5.52,9.977782000000001,-1.2378018999999998,1.2141881,1005.0302,0,0
5.56,9.652700999999999,-1.2759331,1.3136056999999999,1005.0381,0,0
5.6,9.566614999999999,-1.2902316,1.5408525,1005.0106,0,0
5.64,9.461411,-1.2902303999999998,1.7775683,1005.04584,0,0
5.68,9.590418,-1.1901313999999998,1.7728294999999998,1005.0433300000001,0,0
5.72,9.389615,-1.5571551000000001,1.7349497,1005.0136,0,0
5.76,9.461262,-1.7382830000000002,1.8864459999999998,1005.0562,0,0
5.8,9.671522999999999,-1.423689,1.5408298,1005.0433300000001,0,0
5.84,9.55676,-1.3950886,1.5739664,1005.0411,0,0
5.88,9.50414,-1.4570527,1.5786968000000001,1005.05347,0,0
5.92,9.527979,-1.5333163,1.4413936999999999,1005.0185,0,0
5.96,9.499252,-1.6810783,1.7207192,1005.01855,0,0
6.0,9.355808,-1.7573419,1.9053563000000002,1005.0288,0,0
6.04,7.55191,-0.55135626,4.3007903,1005.0169,0,0
6.08,9.105189,0.35405886,4.604653,1005.0274699999999,0,0
6.12,9.114711,0.12526509,3.8518790000000003,1004.9898699999999,0,0
6.16,8.722733,-0.34662324,3.3879042,1004.9901,0,0
6.2,9.219793,0.039468832,3.8613410000000004,1005.0127,0,0
6.24,9.444407,0.24443169,3.1227705,1005.04065,0,0
6.28,9.038089999999999,0.25396565,3.1275017000000003,1005.0058,0,0
6.32,9.334402,0.60192525,2.909716,1005.0314300000001,0,0
6.36,9.860142999999999,0.5971595999999999,3.4920440000000004,1005.0039999999999,0,0
6.4,9.052321000000001,0.482763,2.8623652,1005.0115400000001,0,0
6.44,9.199842,0.32548259999999996,3.8186555,1005.01904,0,0
6.48,9.27148,0.55427885,3.5109133999999997,1004.98175,0,0
6.52,9.128028,0.5066148,3.5393147000000003,1005.0347,0,0
6.56,8.783825,0.34455314,3.8328425999999998,1005.0352,0,0
6.6,8.783764,0.30642217,3.8707123,1005.0126300000001,0,0
6.64,8.52559,0.10622838,3.2362962000000004,1004.9976,0,0
6.68,8.879234,0.41605616,3.2362905,1005.01044,0,0
6.72,8.989113,-0.051064998,3.6718504000000003,1005.01324,0,0
6.76,9.247161,0.087166525,3.6671101999999998,1004.9932,0,0
6.8,8.902954,-0.27985679999999996,3.2173363999999998,1005.0136,0,0
6.84,9.600745,-0.06536017,3.0042827,1004.9839,0,0
6.88,9.710627,-0.03675957,3.2125914,1004.9811,0,0
6.92,9.237366,-0.29891872,2.6491919,1004.97845,0,0
6.96,9.208625999999999,-0.7469736,2.9237819,1004.9894400000001,0,0
7.0,9.763023,-0.48004502,2.4124603,1004.9714,0,0
7.04,9.069891,-0.8137024,2.5970967000000003,1004.9945,0,0
7.08,9.361399,-0.7851015,3.364064700000001,1004.967,0,0
7.12,9.270521,-1.0520272,2.2893493,1005.025,0,0
7.16,8.7877,-1.4190506,1.6928086,1004.9921,0,0
7.2,9.930016,-1.8575726000000001,3.6481125,1004.99054,0,0
7.24,9.901277,-0.43237048,1.8300955,1004.99786,0,0
7.28,9.590527999999999,-1.0567878000000002,2.0431385,1005.0083,0,0
7.32,9.332358000000001,-1.2140828000000001,1.858491,1005.00085,0,0
7.36,10.359958,-0.5229307,2.4834273,1005.00104,0,0
7.4,9.418281,-1.5811048,1.7543235000000001,1005.0139999999999,0,0
7.44,10.077926,-0.6849930000000001,2.3934712000000005,1005.0111699999999,0,0
7.48,9.532973,-0.98528486,2.5686392999999996,1005.00397,0,0
7.52,9.403862,-0.98528343,1.9626302,1005.0141,0,0
7.56,9.599776,-1.1282786,2.5402223999999998,1005.0068,0,0
7.6,9.379856,-1.4047377,2.895298,1005.00684,0,0
7.64,9.480167,-1.2903388,2.6964474,1004.98676,0,0
7.68,9.915076,-1.2903373,2.3176901,1004.98724,0,0
7.72,9.336666000000001,-1.4285663,2.1093712000000004,1005.00006,0,0
7.76,9.441761,-1.5238958999999999,2.9473553,1004.9675,0,0
7.8,9.159699,-1.1521032,1.2571678,1004.9772,0,0
7.84,9.618511999999999,-1.1807013000000002,2.7627041,1005.01807,0,0
7.88,9.551528999999999,-1.45716,2.7579637000000004,1004.99084,0,0
7.92,9.10695,-1.3427612,2.4312847,1004.9930400000001,0,0
7.96,9.503625,-1.5238892,2.6443286,1005.0084,0,0
8.0,9.269358,-1.8051146,2.7768865000000003,1004.9859,0,0
8.04,9.297976,-1.4952871,2.3697221,1004.99097,0,0
8.08,9.336160000000001,-1.1139611,2.1566691000000002,1005.0011599999999,0,0
8.12,9.446042,-1.4809847,3.0135913,1005.00146,0,0
8.16,8.729011999999999,-1.5048158999999999,2.9188979,1004.9987,0,0
8.2,8.963167,-1.7669753000000001,3.1934881,1004.9941,0,0
8.24,8.719339999999999,-1.9290368999999998,3.4396720000000003,1004.9941,0,0
8.28,8.771865,-1.9242686999999998,3.6811218,1005.007,0,0
8.32,9.149412,-2.2912924,5.3239550000000015,1004.99994,0,0
8.36,9.048979,-1.7479036000000001,3.2076712000000005,1004.9798,0,0
8.4,8.86251,-1.6239716999999998,2.952008,1004.97455,0,0
8.44,8.862842,-1.7050112000000002,3.1414142000000003,1005.0053,0,0
8.48,9.09223,-1.9481046000000002,3.3639276,1004.98553,0,0
8.52,9.010933999999999,-1.9576368000000002,3.363924,1004.9725300000001,0,0
8.56,9.092148,-2.0243676,3.619578100000002,1005.0058,0,0
8.6,9.149465,-2.0338995,3.7758093,1005.01855,0,0
8.64,8.872197,-1.8194035,3.614836,1004.99585,0,0
8.68,9.2545395,-1.4094787,3.4680660000000003,1004.99084,0,0
8.72,8.6857,-1.7526697,2.7389636000000004,1005.0112,0,0
8.76,8.704781,-1.8003345000000002,3.1650565,1004.99115,0,0
8.8,8.785996,-2.105393,2.9898796,1004.99115,0,0
8.84,9.63198,-2.2579217000000003,3.5485356,1004.9913,0,0
8.88,9.349932,-2.2388546000000003,3.6858296000000004,1005.0011599999999,0,0
8.92,9.287749,-2.0386581,2.4359425999999997,1005.0267,0,0
8.96,9.115635000000001,-2.0291240000000004,3.5816648,1005.01416,0,0
9.0,8.929183,-1.9004259,1.9482915,1005.0066,0,0
9.04,9.086875,-1.6001318000000002,0.44274715,1004.98193,0,0
9.08,9.756007,-2.3055812999999996,3.4585593,1004.99445,0,0
9.12,9.177612,-2.2722142000000005,2.1707978,1004.9946,0,0
9.16,9.937555999999999,-1.6048955,1.8441197,1005.0402,0,0
9.2,9.512112,-1.5238628,1.0440013000000001,1005.0278,0,0
9.24,9.975712,-0.9804744000000001,2.0571601000000004,1005.02765,0,0
9.28,9.445117,-1.8575199,2.923553,1005.01276,0,0
9.32,9.163067,-1.6716231,2.1044972,1005.03296,0,0
9.36,9.258617,-1.6954547999999998,2.6016054,1005.0356400000001,0,0
9.4,9.191659,-1.7049869999999998,2.0050666,1005.00543,0,0
9.44,9.553626,-1.6668227,1.5788513000000002,1005.01605,0,0
9.48,9.653911,-1.7859843999999998,1.9244546000000002,1005.0060000000001,0,0
9.52,9.5916815,-1.7764490000000002,1.6735228,1004.9759,0,0
9.56,9.605935,-1.7240148999999998,1.3563098,1004.99835,0,0
9.6,9.820941,-1.4809183000000001,2.0617282,1005.0060000000001,0,0
9.64,9.443239,-1.5762471000000002,1.8534055,1005.00885,0,0
9.68,9.371457000000001,-1.7287747,1.7634441000000003,1005.0263699999999,0,0
9.72,9.562552,-1.8384032,1.8581232,1005.0013,0,0
9.76,9.724979,-2.0576625,2.1090388,1004.99646,0,0
9.8,9.935205,-1.7573675,1.7350131000000002,1005.0242,0,0
9.84,10.135866,-1.4189398000000002,1.4367372,1005.03217,0,0
9.88,9.786855000000001,-1.5762341,1.6497775000000001,1005.0369999999999,0,0
9.92,9.38048,-1.4570678,1.3562361,1005.02484,0,0
9.96,9.141404,-1.6477278000000002,1.6639646000000001,1005.0422,0,0
10.0,9.375518,-1.5094954,1.5882052,1005.0148300000001,0,0
10.04,9.275051,-1.7907201000000001,1.6450098000000002,1005.0148300000001,0,0
10.08,9.246281,-1.8193172,1.7396895,1004.9996,0,0
10.12,9.647698,-1.6477191000000002,1.3988045,1004.99475,0,0
10.16,9.614149000000001,-1.8955779,1.2662328,1005.0101300000001,0,0
10.2,9.6762,-1.7811784,1.7775406999999999,1005.0201400000001,0,0
10.24,9.695229,-1.523782,1.3561703999999999,1004.9951,0,0
10.28,9.814632000000001,-1.4236821000000002,1.5123973,1005.0054,0,0
10.32,9.699826,-1.2902163,1.4792482,1004.9825,0,0
10.36,9.561126,-1.1519841,1.3088017,1005.0027,0,0
10.4,9.322039,-1.1329154,1.1383543,1005.0028699999999,0,0
10.44,9.1762295,-1.3236357,1.3516188999999998,1005.0055,0,0
10.48,9.448683,-1.223538,1.7682470000000001,1005.0306,0,0
10.52,9.663778,-1.247371,1.7019657,1005.0033599999999,0,0
10.56,9.568189,-1.3856013,1.4273708,1005.00085,0,0
10.6,9.749825999999999,-1.4428,1.4084337,1005.0312,0,0
10.64,10.00794,-1.4285005,1.6735609,1005.0033599999999,0,0
10.68,9.93147,-1.3903681,1.6640925,1005.0213,0,0
10.72,10.084425999999999,-1.0567094,1.5457326999999998,1005.01636,0,0
10.76,9.855002,-0.60865325,1.4321076000000001,1005.0060000000001,0,0
10.8,9.424825,-0.9041799,1.6025466,1005.0417,0,0
10.84,9.290996,-1.0853091000000001,1.3942332,1005.0165,0,0
10.88,9.49653,-1.237839,1.176451,1005.0219999999999,0,0
10.92,9.329243,-1.6954285,1.4368436000000002,1005.0246,0,0
10.96,8.994662,-1.7669271,1.200124,1005.02167,0,0
11.0,9.37705,-1.8479588,1.3516253,1005.0016,0,0
11.04,9.3674965,-1.6334636999999999,1.143312,1005.0222,0,0
11.08,9.396181,-1.1425085,1.2900791,1004.9915,0,0
11.12,9.52046,-1.042411,1.332689,1005.0349,0,0
11.16,9.616062,-1.118676,1.5410033,1005.0273,0,0
11.2,9.711661999999999,-0.9661464,1.6309576000000001,1005.0327,0,0
11.24,9.711668,-0.9470801999999999,1.93396,1005.0274,0,0
11.28,9.472682,-1.1472757,1.7493186,1005.0077,0,0
11.32,9.291056,-1.3188719,1.630959,1005.0023,0,0
11.36,9.338859,-1.2569066999999998,1.5741465000000001,1005.0451,0,0
11.4,9.576474000000001,-1.3617373,1.2994253999999998,1005.0305,0,0
11.44,9.858436,-1.3760357,1.4035779,1005.0501,0,0
11.48,10.068696000000001,-1.1853723999999999,1.2662754999999999,1004.9976,0,0
11.52,10.178581,-1.1710713,1.2425988000000001,1005.0303,0,0
11.56,9.977782000000001,-1.2378018999999998,1.2141881,1005.0302,0,0
11.6,9.652700999999999,-1.2759331,1.3136056999999999,1005.0381,0,0
11.64,9.566614999999999,-1.2902316,1.5408525,1005.0106,0,0
11.68,9.461411,-1.2902303999999998,1.7775683,1005.04584,0,0
11.72,9.590418,-1.1901313999999998,1.7728294999999998,1005.0433300000001,0,0
11.76,9.389615,-1.5571551000000001,1.7349497,1005.0136,0,0
11.8,9.461262,-1.7382830000000002,1.8864459999999998,1005.0562,0,0
11.84,9.671522999999999,-1.423689,1.5408298,1005.0433300000001,0,0
11.88,9.55676,-1.3950886,1.5739664,1005.0411,0,0
11.92,9.50414,-1.4570527,1.5786968000000001,1005.05347,0,0
11.96,9.527979,-1.5333163,1.4413936999999999,1005.0185,0,0
12.0,9.499252,-1.6810783,1.7207192,1005.01855,0,0
12.04,9.355808,-1.7573419,1.9053563000000002,1005.0288,0,0
12.08,9.279282,-1.8765048999999998,1.242535,1005.03156,0,0
12.12,9.26967,-1.9432352,1.4745162,1005.0109,0,0
12.16,9.489493,-1.5571428999999999,1.2330573,1005.0313,0,0
12.2,9.642394,-1.3331133999999998,1.2661931999999998,1005.0213,0,0
12.24,9.618447,-1.4522761,1.5502532,1005.0291,0,0
12.28,9.608836,-1.4665745000000001,1.4934355,1005.0341,0,0
12.32,9.785642,-1.5333053,1.8011675,1005.02905,0,0
12.36,9.799928,-1.490405,1.9621325,1005.0313,0,0
12.4,9.88114,-1.5476025,1.8911122,1005.0241,0,0
12.44,9.504653,-1.9384878,1.6308223,1005.0416,0,0
12.48,9.538107,-1.8812887999999999,1.3941014999999999,1005.0291,0,0
12.52,9.605019,-1.7716580000000002,1.3751636,1005.04175,0,0
12.56,9.480739,-1.8431561,1.3798975,1005.01904,0,0
12.6,9.4902935,-1.8336227999999999,1.5976795,1005.0291,0,0
12.64,9.485508,-1.8812883000000002,1.5219287000000001,1005.0213,0,0
12.68,9.380348,-2.0814836,1.7491796000000002,1005.0191,0,0
12.72,9.485498,-2.0338178,1.6971006000000002,1005.0366,0,0
12.76,9.33254,-2.0862498,1.5740056999999998,1005.0491300000001,0,0
12.8,9.279958,-2.0719502,1.7633815,1005.03955,0,0
12.84,9.423346,-1.9146535,1.5029888,1005.0089999999999,0,0
12.88,9.528497,-1.790723,1.5219258999999998,1005.03174,0,0
12.92,9.647986,-1.9623188999999999,1.7823176,1005.03674,0,0
12.96,9.614523,-1.9194198,1.498253,1005.04706,0,0
13.0,9.647977000000001,-1.8908203000000001,1.7018318,1005.02167,0,0
13.04,9.624073,-1.9146531000000002,1.6213466,1005.0089999999999,0,0
13.08,9.518912,-1.8765203999999998,1.6402835999999998,1005.0369999999999,0,0
13.12,9.514128,-2.005217,1.6544863999999997,1005.03705,0,0
13.16,9.432866,-1.9718513,1.6592205000000002,1005.035,0,0
13.2,9.380282000000001,-1.9956839,1.7112985,1005.06,0,0
13.24,9.394617,-2.0528824,1.8154549999999998,1005.0094,0,0
13.28,9.413732000000001,-1.8622198,1.6876255,1005.0169999999999,0,0
13.32,9.408946,-1.9480181,1.7870475,1005.04254,0,0
13.36,9.4424,-1.9289517,1.7775782,1005.0271,0,0
13.4,9.428057,-1.8860526000000002,1.6118736,1005.0523699999999,0,0
13.44,9.279878,-2.009983,1.5976700000000001,1005.0295,0,0
13.48,9.361129,-2.0767145,1.6355448000000001,1005.0219999999999,0,0
13.52,9.47584,-1.8955852999999998,1.6071379,1005.0399,0,0
13.56,9.561871,-1.8193202000000002,1.6923568,1005.0274,0,0
13.6,9.647902499999999,-1.8908183999999997,1.7586379,1005.0245,0,0
13.64,9.600099,-1.9337172999999999,1.7160278999999998,1005.0323,0,0
13.68,9.542736,-1.7811873,1.7965122,1005.035,0,0
13.72,9.480594,-1.7239886999999998,1.7491678,1005.0095,0,0
13.76,9.303737,-1.7764206000000002,1.8864651000000001,1005.04254,0,0
13.8,9.351529,-1.8097863,1.9054022000000002,1005.0375,0,0
13.84,9.46146,-1.8145528000000002,1.8059793000000002,1005.0349,0,0
13.88,9.351519999999999,-1.9337165,1.8817292,1005.05023,0,0
13.92,9.346735,-2.0195146,1.8107127,1005.03754,0,0
13.96,9.427987,-1.9623158,1.5503200000000001,1005.0450400000001,0,0
14.0,9.614394,-1.8860508999999999,1.5361162,1005.0375,0,0
14.04,9.504453999999999,-1.91465,1.8296491000000001,1005.0350300000001,0,0
14.08,9.504449000000001,-2.000448,1.7917733,1005.04254,0,0
14.12,9.389727,-1.9623153000000002,1.7349599999999998,1005.05,0,0
14.16,9.604814,-1.9003501,1.8201787,1005.0325,0,0
14.2,9.518773,-1.9146495,1.7349591,1005.04755,0,0
14.24,9.432732000000001,-2.0433462,1.5455823999999998,1005.0527,0,0
14.28,9.399268,-2.1196113,1.6118636,1005.0349,0,0
14.32,9.513977,-2.0099801999999998,1.6592071,1005.0298,0,0
14.36,9.56177,-1.9003491000000001,1.6213315000000001,1005.0328,0,0
14.4,9.370197000000001,-2.0957689999999998,1.7491255,1005.0376,0,0
14.44,9.398864,-1.9861376,1.6923115000000002,1005.0427,0,0
14.48,9.537466,-1.976604,1.8958898000000002,1005.0375,0,0
14.52,9.351042,-1.9909036,1.7964664000000001,1005.02484,0,0
14.56,9.460963000000001,-1.9861366999999999,1.6970425,1005.0477,0,0
14.6,9.336675999999999,-2.0147357,1.6449629000000001,1005.0123,0,0
14.64,9.427480000000001,-2.1243662999999997,1.8059313999999997,1005.0527,0,0
14.68,9.546963,-1.9146372999999999,1.8343368000000002,1005.0450400000001,0,0
14.72,9.623428,-1.8717380000000001,1.6923037,1005.01495,0,0
14.76,9.499139999999999,-2.0766994999999997,1.5550046999999998,1005.0325,0,0
14.8,9.561264999999999,-1.9861349999999998,1.5313315,1005.0323,0,0
14.84,9.499116,-1.9575353,1.5786744,1005.01996,0,0
14.88,9.384386,-1.9861343,1.8106589,1005.0555400000001,0,0
14.92,9.393934,-2.0052001,1.7964547999999998,1004.99945,0,0
14.96,9.327005,-2.0480988,1.9337512,1005.0172,0,0
15.0,9.551642,-2.0337987,1.8201243999999999,1005.0274699999999,0,0
15.04,9.527732,-1.9098680000000001,1.5928719999999998,1005.0325,0,0
15.08,9.422563,-2.0051992,1.6165426999999999,1005.01245,0,0
15.12,9.42733,-2.0051987000000002,1.6733544999999999,1005.01495,0,0
15.16,9.503795,-1.9098669999999998,1.5976028,1005.0172,0,0
15.2,9.384286999999999,-2.167261,1.7017586,1005.0325300000001,0,0
15.24,9.369935,-2.076696,1.6307415,1005.0274699999999,0,0
15.28,9.393822,-2.0385633000000003,1.5975993999999998,1005.02496,0,0
15.32,9.379469,-2.0528626,1.6828176,1005.0374,0,0
15.36,9.498952000000001,-2.0480956999999997,1.6354723999999998,1005.05756,0,0
15.4,9.513844500000001,-1.9623113,1.6355228000000002,1005.0374,0,0
15.44,9.337000999999999,-2.0576427,1.7018055,1005.0350300000001,0,0
15.48,9.446946,-1.9813781000000004,1.5171645,1005.04755,0,0
15.52,9.475636,-2.0433435,1.6118536,1005.05,0,0
15.56,9.418288,-2.1196086,1.6260579,1005.0424,0,0
15.6,9.537792999999999,-2.1529748,1.5455738,1005.0325300000001,0,0
15.64,9.442207000000002,-2.1243757999999997,1.5408403999999998,1005.0274,0,0
15.68,9.4517765,-2.0338113,1.4461532,1005.05,0,0
15.72,9.451786,-1.919414,1.5834517,1005.0325300000001,0,0
15.76,9.499595,-1.9956793999999998,1.6118591999999998,1005.0450400000001,0,0
15.8,9.504384,-2.0719445,1.5929223999999995,1005.0325300000001,0,0
15.84,9.456596000000001,-2.0767113999999998,1.7396900000000002,1005.0349,0,0
15.88,9.432708,-2.0481122,1.5881896999999998,1005.02496,0,0
15.92,9.408818,-2.1672766,1.5881907,1005.0295,0,0
15.96,9.351471,-2.1291442000000003,1.5219101000000002,1005.04254,0,0
16.0,9.447077,-2.1482107999999998,1.6450055000000001,1005.0298,0,0
16.04,9.447087,-2.0433466,1.5266461,1005.03705,0,0
16.08,9.447097,-2.1577442000000002,1.5503192,1005.0445599999999,0,0
16.12,9.447106,-2.1815773999999997,1.5455856000000001,1005.0145,0,0
16.16,9.466235000000001,-2.1529784,1.5692587,1005.06744,0,0
16.2,9.518825,-2.1434455000000003,1.597666,1005.0246,0,0
16.24,9.552294,-2.1577451,1.517182,1005.0195,0,0
16.28,9.499723,-2.1339127999999996,1.5077142,1005.0445599999999,0,0
16.32,9.494953,-2.0719478,1.5361214,1005.0450400000001,0,0
16.36,9.428048,-2.2054117000000004,1.5029815,1005.0445599999999,0,0
16.4,9.412372999999999,-2.1624799,1.4223743999999998,1005.04706,0,0
16.44,9.397988,-2.2053778,1.4791832,1005.04175,0,0
16.48,9.32625,-2.2911747000000005,1.5786018,1005.02655,0,0
16.52,9.321425,-2.5485678,1.4933786,1005.04706,0,0
16.56,9.397855,-2.4055698,1.384483,1005.03955,0,0
16.6,9.450389,-2.2816384,1.4696981000000002,1005.0441,0,0
16.64,9.617643,-2.090975,1.4791633999999998,1005.0316,0,0
16.68,9.483761,-2.0909739,1.5123,1005.0545699999999,0,0
16.72,9.493277,-2.1052725,1.5217646,1005.0316,0,0
16.76,9.431095,-2.1910696,1.4649477,1005.06213,0,0
16.8,9.421494000000001,-2.3006992000000004,1.4412718999999998,1005.03955,0,0
16.84,9.493148,-2.195834,1.5217530000000001,1005.0089999999999,0,0
16.88,9.435744,-2.0957353,1.5028110000000001,1005.04425,0,0
16.92,9.421363000000001,-2.1719987,1.5312136,1005.0316,0,0
16.96,9.421318,-2.2291965,1.4365215,1005.0416,0,0
17.0,9.36392,-2.3626595,1.3844392,1005.0316,0,0
17.04,9.330416,-2.3388252,1.4412479999999999,1005.0213,0,0
17.08,9.421187,-2.2530259999999998,1.4128375,1005.0037,0,0
17.12,9.554975500000001,-2.133861,1.4175676000000001,1005.0288,0,0
17.16,9.535815,-2.1910586,1.4033606,1005.01074,0,0
17.2,9.483191999999999,-2.2387235,1.3370749,1005.0667,0,0
17.24,9.497488,-2.2482553,1.3228676000000001,1005.01624,0,0
17.28,9.320594,-2.4198503,1.4222863000000001,1005.0035,0,0
17.32,9.2010565,-2.477048,1.4033448,1005.01105,0,0
17.36,9.440005000000001,-2.21012,1.2991841,1005.03314,0,0
17.4,9.512876,-2.1052845000000002,1.2992915,1005.0411,0,0
17.44,9.474644,-2.1481836,1.3845114,1005.0258,0,0
17.48,9.474648,-2.3674452,1.3182302,1005.01105,0,0
17.52,9.235662,-2.4961424,1.2803553,1005.0260599999999,0,0
17.56,9.340823,-2.4770763,1.3466375,1005.018,0,0
17.6,9.350388,-2.4294107000000005,1.2140745000000002,1005.0205,0,0
17.64,9.431649,-2.524742,1.29456,1005.0309,0,0
17.68,9.579828,-2.4151113,1.1335906,1005.0155,0,0
17.72,9.479457,-2.3197803,0.95841813,1005.018,0,0
17.76,9.383867,-2.5247424,1.1004508,1005.05566,0,0
17.8,9.431669,-2.443711,1.1572639999999998,1005.0155599999999,0,0
17.84,9.508152,-2.3197807999999998,1.03417,1005.0257,1,1
17.88,9.517714999999999,-2.3197807999999998,1.0436391999999999,1005.0532,1,1
17.92,9.383887,-2.2339827999999997,0.9915613000000001,1005.0356400000001,1,1
17.96,9.374331,-2.2816486,1.2140787,1005.0305,1,1
18.0,9.460374,-2.2339830000000003,1.0767813999999998,1005.0351,1,1
18.04,9.522515,-2.3150147999999997,0.9678905999999999,1005.0101,1,1
18.08,9.493841999999999,-2.186318,0.9678911,1005.0327,1,1
18.12,9.579883,-2.3102486,0.9868290999999999,1005.0405,1,1
18.16,9.685044,-2.0909869999999997,1.1383305000000001,1005.04315,1,1
18.2,9.651589999999999,-1.6667634999999998,1.2188158000000002,1004.9895,1,1
18.24,9.76631,-1.6810633000000001,1.5596934999999998,1005.0378,1,1
18.28,9.230977000000001,-1.7287289000000001,1.3750521,1005.0277,1,1
18.32,9.603807000000002,-1.7668616000000001,2.0615413,1005.0427,1,1
18.36,9.493876,-1.4427358000000001,2.1136205,1005.045,1,1
18.4,9.312813,-1.5237813,1.7727950000000001,1005.0252,1,1
18.44,9.958114,-2.3007307,2.5634432,1005.0224,1,1
18.48,9.972481,-1.9575393,3.1031678,1005.0146,1,1
18.52,9.843453,-1.6381806,2.7054806,1005.0296,1,1
18.56,10.173287,-2.0433388,3.0652977999999997,1005.0244,1,1
18.6,10.039479,-1.6000495000000001,3.344630200000001,1005.0169,1,1
18.64,9.733603,-0.9517985000000001,3.0605686000000003,1005.0146,1,1
18.68,9.222187,-0.651506,2.5681927000000004,1005.0169,1,1
18.72,8.342731,-0.92320055,2.6723522999999996,1004.9989,1,1
18.76,7.9651523,-1.1853617,2.748105,1005.0171,1,1
18.8,7.979518400000001,-1.457056,2.3977616000000004,1005.0141,1,1
18.84,9.021545,-1.7811826000000002,2.3693576000000003,1005.0091,1,1
18.88,9.834142,-2.2673721000000002,2.8238632999999997,1005.0442,1,1
18.92,10.799686999999999,-3.0681543,2.9895697,1005.0266,1,1
18.96,9.188922999999999,-7.205527,1.1194823999999999,1005.0165,1,1
19.0,8.806564999999997,-8.354268,0.082650356,1005.0138,1,1
19.04,7.2340339999999985,-8.425766000000001,-0.8216187,1005.0392,1,1
19.08,7.879336,-6.9910336,0.42353230000000003,1004.9836,1,1
19.12,10.125874000000001,-4.9223485,-1.2903196000000001,1004.9736300000001,1,1
19.16,11.234813,-4.7459865,-0.8358144000000001,1005.0165,1,1
19.2,11.894453,-3.888007,2.037972,1004.9633,1,1
19.24,10.546578,-2.2959774,2.6250408,1005.02124,1,1
19.28,9.958692999999998,-1.0614401000000002,2.2841663,1005.00397,1,1
19.32,9.734066,-0.44178832,2.0190418,1005.0260599999999,1,1
19.36,8.911964999999997,0.02056697,1.5882133,1005.0161,1,1
19.4,8.8682575,0.6640691,1.995309,1005.01636,1,1
19.44,9.231521,1.0263275,2.909049,1004.9963,1,1
19.48,9.738178999999999,0.1540476,3.3493487999999996,1005.0339,1,1
19.52,11.258156,-0.3559739,3.680757,1005.0464,1,1
19.56,13.452085,-2.4389591,3.9932277000000003,1005.0386,1,1
19.6,14.202513,-3.0061796000000003,4.0973845,1005.0261,1,1
19.64,14.035217999999999,-2.8631827999999997,3.765976,1005.0260599999999,1,1
19.68,13.834464,-4.4933453000000005,3.0132055,1005.0384,1,1
19.72,14.647029999999999,-5.9757447,2.8238292,1005.008,1,1
19.76,14.814322,-6.9052234,2.5776397999999996,1005.02094,1,1
19.8,13.174848999999998,-6.28557,1.8390724999999999,1005.0055,1,1
19.84,11.391979,-6.056776,1.9716357,1005.0184300000001,1,1
19.88,9.465717,-5.8661129999999995,2.3172474,1005.0306,1,1
19.92,7.9170604,-5.236928,2.3172472,1005.0105,1,1
19.96,6.038596,-4.4075475,2.061589,1004.9929,1,1
20.0,4.8436437,-4.6935405999999995,-0.07836191,1005.0127,1,1
20.04,3.4049214999999995,-7.32468,0.30512480000000003,1005.01025,1,1
20.08,3.4670577000000007,-8.525852,0.39034393,1004.9801,1,1
20.12,7.400834599999999,-8.335189999999999,-0.45711464,1004.9951,1,1
20.16,9.647342,-9.507763,1.048426,1005.0077,1,1
20.2,12.711196000000001,-6.9052229999999994,2.7386084,1004.9999,1,1
20.24,15.177572,-5.7231164,1.8343368999999998,1005.0252,1,1
20.28,17.204206,-5.8232145,0.45189065,1005.0077,1,1
20.32,16.276926,-4.5076447,-0.10203484,1005.0126,1,1
20.36,14.365001999999999,-4.3265150000000006,2.2225577999999997,1005.025,1,1
20.4,13.605013,-3.5495663,3.5055814,1005.0101300000001,1,1
20.44,12.176919,-3.0014383999999996,3.4393973,1005.02765,1,1
20.48,10.915092999999999,-1.5381067,2.93282,1005.0073,1,1
20.52,10.312877,0.8690037,2.7434475,1004.98956,1,1
20.56,10.551908000000001,2.2370048,2.8428736,1005.0024,1,1
20.6,11.479227999999999,2.7851577,2.9091587000000003,1005.0124,1,1
20.64,14.046025,2.4753304,3.6666675000000004,1005.01984,1,1
20.68,15.307929999999999,0.039618865,4.405238,1005.01465,1,1
20.72,15.355770000000001,-1.8622383999999998,4.2679443,1005.0046,1,1
20.76,15.092919,-4.011956,3.624068700000002,1004.9920699999999,1,1
20.8,15.766914000000002,-6.705062400000001,3.3636804,1004.972,1,1
20.84,17.654972,-8.015866,4.0880475,1004.99695,1,1
20.88,17.588095000000006,-8.892914999999997,4.1827393,1004.9920699999999,1,1
20.92,15.518482,-9.074043,2.9470632,1005.0097,1,1
20.96,13.334148999999998,-7.6583770000000015,1.9528418,1005.01685,1,1
21.0,10.408953,-6.719367,2.2179723,1005.0145,1,1
21.04,7.5124335,-6.848064999999999,2.9896842999999995,1005.0044,1,1
21.08,5.3567758,-6.171215,3.1553915,1005.01935,1,1
21.12,3.8894193,-5.6993265,1.910247,1005.0115400000001,1,1
21.16,3.0195355,-5.9138227,0.7881968,1004.9865,1,1
21.2,2.4937975,-6.166451,0.20113431,1004.9737,1,1
21.24,4.630408,-7.70605,-0.30070907,1004.9914,1,1
21.28,6.905632499999999,-8.373368,0.43786153,1005.0116,1,1
21.32,11.274414,-7.472490299999999,0.9633841999999999,1004.96375,1,1
21.36,15.375534,-5.9757934,-0.23915021,1004.9812,1,1
21.4,16.48926,-7.0530353,-0.37171075,1005.0013,1,1
21.44,17.11978,-6.2617769999999995,0.75030535,1004.9888,1,1
21.48,15.451651000000002,-5.6325917,1.8960332999999998,1005.0112,1,1
21.52,15.227022,-5.58016,3.8182037,1005.0013,1,1
21.56,14.964154999999998,-3.5972730000000004,4.589914,1005.02136,1,1
21.6,12.722451,-1.2664274,2.8665926,1005.0161,1,1
21.64,12.483483999999999,1.3218123,0.6177524999999999,1005.0263699999999,1,1
21.68,13.477704999999998,2.7279463,0.76925546,1005.01636,1,1
21.72,13.783635999999998,4.6012025,1.8297641,1005.0061599999999,1,1
21.76,13.888814000000002,4.3914733,3.841888200000001,1005.0210599999999,1,1
21.8,14.309463000000001,-1.6048558000000002,4.3579407,1004.99585,1,1
21.84,15.155504999999998,-2.1720764999999997,5.1343846,1005.0106,1,1
21.88,14.558057999999999,-4.574422,6.1901593,1005.0234,1,1
21.92,14.247395000000001,-6.981534,6.493164,1005.0260599999999,1,1
21.96,15.404124,-7.5821204,5.3711114,1005.0234,1,1
22.0,16.747273999999994,-8.254206,5.9392424,1004.9960000000001,1,1
22.04,15.600145999999999,-7.663153,5.6078362,1005.0155,1,1
22.08,13.807741,-7.563056,5.546291,1005.0081,1,1
22.12,12.799219,-7.4772587,4.509458,1005.0055,1,1
22.16,10.351989,-6.3809510000000005,3.9271286,1005.0106,1,1
22.2,9.0041,-5.6326017,3.6904097,1005.02094,1,1
22.24,7.264280999999999,-5.91383,2.91397,1004.9880400000001,1,1
22.28,5.968975,-6.047293700000001,2.478407,1005.0028,1,1
22.32,4.515937999999999,-6.3809533,2.0807189999999998,1005.003,1,1
22.36,3.3162284,-6.2617892999999984,1.943423,1004.98535,1,1
22.4,4.5159807,-5.923365,1.2995459999999999,1004.9977,1,1
22.44,6.083774,-6.8337774000000024,-0.27227458,1004.94745,1,1
22.48,8.688796,-6.0520625,-0.32908484,1004.99506,1,1
22.52,12.120716999999999,-4.5696645,-2.7388947,1004.98236,1,1
22.56,14.44372,-5.665973,-2.4832354,1004.98755,1,1
22.6,16.255285,-7.153139,-0.47584570000000004,1004.9898,1,1
22.64,16.967506,-6.762282000000001,0.33373994,1004.9898,1,1
22.68,16.465649,-5.2655835,0.5657279000000001,1005.02765,1,1
22.72,15.237262,-3.5210242,2.0097234,1005.02515,1,1
22.76,14.482076000000001,-2.4771487999999997,2.1564922,1005.0024,1,1
22.8,13.114125,-0.95659465,1.3799647,1004.99506,1,1
22.84,12.16772,0.6306689999999999,1.2284635,1005.02496,1,1
22.88,12.057779,1.3170534,1.6592938999999998,1005.0274699999999,1,1
22.92,12.573994,2.4896264,1.7303095000000002,1005.0274699999999,1,1
22.96,13.228824,1.4981826999999999,3.2642562,1004.9996,1,1
23.0,13.797614000000001,-2.119634,4.6182957,1004.99695,1,1
23.04,13.396107,-3.254074,5.153282599999999,1005.0099,1,1
23.08,12.999379,-4.674508599999999,4.561482,1004.99194,1,1
23.12,13.214464999999999,-6.9290899999999995,4.419449299999999,1005.03,1,1
23.16,13.176223,-7.706038499999999,4.7982010000000015,1005.0373,1,1
23.2,13.104521,-7.629772999999999,5.1248746,1005.0324,1,1
23.24,13.434322,-8.254192,4.2348065,1004.9815,1,1
23.28,12.717348,-8.21606,4.2253375,1004.99445,1,1
23.32,10.776743,-7.601174,4.263212,1005.00714,1,1
23.36,9.304559,-6.1569066,3.7329583,1005.0044,1,1
23.4,8.243438000000001,-5.818480999999999,3.4820344,1005.0095,1,1
23.44,7.201436,-5.828014,3.15536,1004.9995,1,1
23.48,6.7282305,-5.6421185,2.5020119999999997,1004.99445,1,1
23.52,5.208248,-5.4657550000000015,2.2084782000000005,1004.98193,1,1
23.56,4.5295115,-4.488611,1.2237216,1004.9766,1,1
23.6,5.5715046,-4.4933777,0.55617017,1004.9916400000001,1,1
23.64,7.5264397,-3.7021290999999996,-2.7200382000000003,1004.9789999999999,1,1
23.68,9.151568,-3.3732366999999996,-2.421771,1004.9966,1,1
23.72,11.321596000000001,-2.6916189999999998,0.6082474,1004.96606,1,1
23.76,13.013641999999999,-1.3569828000000002,2.3363047000000003,1004.9966,1,1
23.8,12.12439,-1.5524063999999995,1.8581108,1004.9913,1,1
23.84,12.243874,-2.1815915,1.6497958,1004.9938,0,0
23.88,12.8365555,-1.2378129999999998,0.2247388,1005.01666,0,0
23.92,12.487618,-0.8517216999999999,0.4756612,1004.9963,0,0
23.96,12.411128999999999,-0.8278886000000001,1.692402,1005.0037,0,0
24.0,11.775402,-0.799289,1.9954028000000001,1004.98615,0,0
24.04,10.704714,-1.6906346,1.9149168,1005.0061599999999,0,0
24.08,9.935152,-2.2054229,2.2605271,1005.0011599999999,0,0
24.12,9.729609,-2.1386905,1.9527897,1005.01886,0,0
24.16,9.686579,-2.238788,1.4746137,1004.99115,0,0
24.2,9.6578865,-2.6820772,1.3893932,1005.0061599999999,0,0
24.24,9.5097,-3.1587327000000003,1.7492069,1005.0137300000001,0,0
24.28,9.046046,-3.4161265,1.4462038000000002,1005.0112,0,0
24.32,8.959997999999997,-3.6592205,1.204748,1005.0137300000001,0,0
24.36,8.878730000000003,-4.040545,0.74077535,1004.9960000000001,0,0
24.4,8.481993,-4.0834436,0.28153694,1004.98865,0,0
24.44,8.486759,-4.1501756,0.52772474,1005.0012,0,0
24.48,8.520206,-4.5029,0.9064760000000001,1005.01624,0,0
24.52,8.639689,-3.7354841,0.7739116,1004.99097,0,0
24.56,8.998161,-3.3922915000000002,1.3325702,1004.9984,0,0
24.6,9.170222,-3.4351902,1.5882268,1004.9934699999999,0,0
24.64,9.251466,-2.9871335,1.4414591,1004.9833,0,0
24.68,9.318372,-2.9966667,1.8580858,1005.0259,0,0
24.72,9.308799,-2.9394677000000002,1.654505,1005.0084,0,0
24.76,9.370924,-2.896568,1.280486,1005.0134,0,0
24.8,9.281846,-3.21597,1.3279891000000001,1004.9780000000001,0,0
24.84,9.009451,-3.2922366000000003,1.2475091,1005.00085,0,0
24.88,8.909127,-3.3017707,1.0960131000000002,1005.0134,0,0
24.92,8.947424,-3.6401977999999997,1.0723463,1004.99036,0,0
24.96,9.038297,-3.5210352,1.1054924,1005.0360000000001,0,0
25.0,9.095711999999999,-3.2207437000000003,1.1528416000000001,1004.9930400000001,0,0
25.04,9.067089999999999,-3.3971074,1.1197059,1004.9927,0,0
25.08,8.976327000000003,-3.6068373,1.2901493,1005.0005,0,0
25.12,9.019402000000001,-3.5019742999999997,1.2759515,1005.01044,0,0
25.16,9.196309,-3.3875785000000005,1.4227228,1005.0056,0,0
25.2,9.454478,-3.1969173,1.3659158000000002,1005.0028,0,0
25.24,9.583588,-3.1158874,1.3280452,1004.99005,0,0
25.28,9.387672,-3.1301885,1.2191591999999998,1005.0331,0,0
25.32,9.129617,-3.1111232999999996,1.1812888000000001,1005.03033,0,0
25.36,9.057977000000001,-3.4161847,1.4085455,1004.9976,0,0
25.4,9.015011999999999,-3.578249,1.3185966999999998,1005.0050699999999,0,0
25.44,9.067646,-3.516285,1.3186018,1005.0076,0,0
25.48,9.148956,-3.368523,1.0582147,1004.9848599999999,0,0
25.52,9.249397,-3.397124,1.157643,1004.99255,0,0
25.56,9.3068075,-3.3494596,1.0961007,1005.0101300000001,0,0
25.6,9.220829,-3.3017952000000004,1.2428723999999998,1005.00256,0,0
25.64,9.134843,-3.5353582,1.4843316,1004.9924,0,0
25.68,9.297416,-3.6402237,1.6405723,1004.97455,0,0
25.72,9.359611,-3.4781623,1.328107,1004.98474,0,0
25.76,9.244949,-3.3351667000000003,1.2381582,1004.98724,0,0
25.8,8.908199,-3.373246,1.0817249,1005.0325300000001,0,0
25.84,8.654836,-3.5019426,1.29477,1004.9971,0,0
25.88,8.611791,-3.640172,1.4699403999999998,1005.0049,0,0
25.92,8.755151,-3.8070006000000003,1.6356416,1004.99457,0,0
25.96,8.998891,-3.697369,1.50781,1004.99475,0,0
26.0,9.218731,-3.5448387,1.204805,1005.007,0,0
26.04,9.194801,-3.3970747,1.1006453999999999,1004.9815,0,0
26.08,9.185210000000001,-3.2731432999999996,0.9491415999999999,1004.9998,0,0
26.12,9.056125,-3.3827733999999996,1.2047966,1004.99695,0,0
26.16,9.046535,-3.463804,1.4699205,1004.9894400000001,0,0
26.2,9.180337,-3.2588415,1.5314648000000002,1005.0048,0,0
26.24,9.194645,-3.4018373,1.4699148000000002,1004.99396,0,0
26.28,9.094237,-3.449502,1.3704892,1004.99194,0,0
26.32,9.156342500000001,-3.2445395,1.0722188999999998,1005.0045,0,0
26.36,9.141974000000001,-3.282671,0.93965286,1005.0042,0,0
26.4,9.118044,-3.2493045,1.034338,1004.9995,0,0
26.44,9.223168,-3.4065998,1.2663209999999998,1004.98914,0,0
26.48,9.156219,-3.4542648999999996,1.323131,1004.9991,0,0
26.52,9.151406,-3.4161317,1.2757839,1004.9916400000001,0,0
26.56,9.017543,-3.3541653,1.1337491000000002,1004.99146,0,0
26.6,8.9362545,-3.2636,1.2331687,1004.9941,0,0
26.64,9.055717999999999,-3.2397666000000003,1.3941355,1005.002,0,0
26.68,9.070025999999999,-3.3255637000000005,1.2994444,1005.0191699999999,0,0
26.72,8.9744,-3.4828596,1.2805042,1005.0039999999999,0,0
26.76,9.132102,-3.4208937000000006,1.0863906,1005.0092,0,0
26.8,9.189428999999999,-3.5019242999999998,1.1574041000000002,1005.00146,0,0
26.84,9.318453,-3.206397,1.0769163,1005.0089999999999,0,0
26.88,9.232382000000001,-3.2874274,1.2757583000000001,1005.00903,0,0
26.92,9.179772,-3.2874267,1.2662864999999999,1005.0065300000001,0,0
26.96,9.146287,-3.339858,1.2378775,1005.01904,0,0
27.0,9.041099,-3.3636904000000003,1.3562348,1005.02405,0,0
27.04,9.0601845,-3.444721,1.2378716,1004.98865,0,0
27.08,9.1509695,-3.3017232000000005,1.1573838,1005.0087,0,0
27.12,9.141378999999999,-3.3160222000000004,1.0816305,1005.0137300000001,0,0
27.16,9.279963,-3.3398542,1.1384405,1005.0011599999999,0,0
27.2,9.1461,-3.2826547999999995,1.1337036,1005.0110000000001,0,0
27.24,9.25122,-3.3017203999999998,1.2473258999999999,1004.9834599999999,0,0
27.28,9.203394,-3.2874197999999994,1.3136052,1005.0011599999999,0,0
27.32,9.098206,-3.2397537,1.1763043,1005.0312,0,0
27.36,9.031255,-3.2826517,1.1999735,1005.0110000000001,0,0
27.4,9.012107,-3.301717,1.2189083,1005.0037,0,0
27.44,9.119194,-3.3303642,1.2474916,1005.0361300000001,0,0
27.48,9.047514999999999,-3.4113957999999998,1.2853683999999999,1004.99084,0,0
27.52,9.095329,-3.3541974999999997,1.1670098,1005.0288,0,0
27.56,9.143142,-3.3303652,1.0959951,1005.0085,0,0
27.6,9.124039,-3.349432,0.9965742,1005.02856,0,0
27.64,9.195751,-3.521028,1.0723260000000001,1005.0311,0,0
27.68,9.238788000000001,-3.3637322999999997,1.0675931,1004.9808,0,0
27.72,9.277041,-3.18737,1.0675946000000005,1005.0031,0,0
27.76,9.214919,-3.2016702,1.0770648999999999,1005.0031,0,0
27.8,9.13368,-3.2445698,1.143348,1005.0233,0,0
27.84,9.081116999999999,-3.3637339999999996,1.2238343,1005.0284,0,0
27.88,9.124151,-3.3160686000000004,1.2238358,1005.0210599999999,0,0
27.92,9.157625999999999,-3.368501,1.1291492,1005.0031,0,0
27.96,9.262799000000001,-3.3256025,1.0107906,1005.0058,0,0
28.0,9.281934,-3.2255056,0.9776513000000001,1005.0159,0,0
28.04,9.152896,-3.1969066,1.015528,1005.04565,0,0
28.08,9.133795,-3.3637366,1.1054832,1005.0231,0,0
28.12,9.033433,-3.3113046,1.2664545,1004.9977,0,0
28.16,9.062127,-3.3542037000000002,1.2143774,1005.0152,0,0
28.2,9.18164,-3.2684062000000003,1.0912844,1005.0003,0,0
28.24,9.262913000000001,-3.1349432,0.98239464,1005.01025,0,0
28.28,9.20079,-3.2302744,1.0628808,1005.0077,0,0
28.32,9.172129,-3.187376,1.1291639999999998,1004.9902,0,0
28.36,9.100448,-3.2159758,1.2806666000000002,1005.0003,0,0
28.4,9.124363,-3.2112092999999997,1.2522616000000002,1005.01276,0,0
28.44,9.167591,-3.1683156,1.1055143,1005.00006,0,0
28.48,9.138936,-3.3542120000000004,1.0250316,1005.01764,0,0
28.52,9.205879,-3.2255156000000005,1.0060962,1005.01276,0,0
28.56,9.229802000000001,-3.2159832,1.0297705,1005.0073,0,0
28.6,9.1915865,-3.1873846,1.1197262,1005.0298,0,0
28.64,9.244186000000001,-3.2112173999999998,1.1149938999999998,1005.0047599999999,0,0
28.68,9.229874,-3.2159847999999998,1.2191531999999998,1005.02264,0,0
28.72,9.172538000000001,-3.2016857000000005,1.077123,1005.00226,0,0
28.76,9.129542,-3.3160837,1.1007973,1005.0323,0,0
28.8,9.234724,-3.1969202,1.1339403000000001,1005.02765,0,0
28.84,9.249086,-3.3113184,1.1765523,1005.0197,0,0
28.88,9.143956,-3.2493536,1.1150072,1005.0172,0,0
28.92,9.206114999999999,-3.2684205000000004,1.1055403999999998,1004.9996,0,0
28.96,9.077082,-3.3637521,1.0724015,1004.99677,0,0
29.0,9.172705,-3.2827212999999995,1.1292168,1004.9993,0,0
29.04,9.182285,-3.2684221,1.1055468000000002,1005.0071,0,0
29.08,9.177532000000001,-3.1873913,1.0771426000000002,1004.99677,0,0
29.12,9.239692,-3.1587925,1.1955048000000001,1005.0173300000001,0,0
29.16,9.177578,-3.2064586,1.3280703999999999,1004.99445,0,0
29.2,9.206281,-3.1397274,1.0771492,1005.0143,0,0
29.24,9.086808999999999,-3.215993,1.2759962,1005.02185,0,0
29.28,9.105952,-3.2970252,1.2807329,1004.9991,0,0
29.32,9.187231,-3.2779593,1.2570629,1005.01184,0,0
29.36,9.211155,-3.2779599999999998,1.2381276,1005.0094,0,0
29.4,9.239859,-3.2684273999999998,1.0298162,1005.0145,0,0
29.44,9.244176,-3.2827156000000004,1.0534458,1004.99646,0,0
29.48,9.229842,-3.2255173,1.0771182,1005.0165,0,0
29.52,9.210727,-3.2016847,1.2901669,1005.0139999999999,0,0
29.56,9.139035,-3.1587856,1.2380888,1004.99866,0,0
29.6,9.119922,-3.2731833,1.328043,1005.02124,0,0
29.64,9.119927,-3.3446817,1.3469812,1005.0264,0,0
29.68,9.248986,-3.2159847999999998,1.1765430000000001,1005.0165,0,0
29.72,9.234652,-3.2159847999999998,1.1055274,1004.98865,0,0
29.76,9.220317,-3.249351,1.1244653,1005.0309,0,0
29.8,9.210761999999999,-3.13972,1.0960596000000002,1005.02124,0,0
29.84,9.081713,-3.1969187000000003,1.294905,1005.02124,0,0
29.88,8.990901,-3.3542154,1.313843,1005.0033599999999,0,0
29.92,9.115181,-3.282717,1.0960609,1005.00085,0,0
29.96,9.067389,-3.339916000000001,1.091327,1005.0158,0,0
30.0,9.234687,-3.1540205,1.0013736,1005.02094,0,0
30.04,9.196452,-3.2541182,1.3185791999999998,1005.0309,0,0
30.08,9.354191,-3.0253238999999996,1.3659238,1004.9879,0,0
30.12,9.148664,-3.249352,1.399065,1004.99585,0,0
30.16,9.024395,-3.3446834,1.1860173,1005.0334,0,0
30.2,9.158235000000001,-3.3589830000000003,1.0250479,1005.0406,0,0
30.24,9.201258000000001,-3.3589833,1.020314,1005.00543,0,0
30.28,9.210821000000001,-3.3065512000000004,1.01558,1005.0259,0,0
30.32,9.1152315,-3.3208508,1.3185823,1005.0155,0,0
30.36,9.110456,-3.3732830999999996,1.2238947,1005.0079,0,0
30.4,9.091341,-3.3923495000000004,1.209692,1005.01996,0,0
30.44,9.105945,-3.316091000000001,1.2191849,1005.023,0,0
30.48,9.144198,-3.3780565,1.1197636999999998,1005.0152,0,0
30.52,9.244588,-3.4590883000000003,1.2617972,1005.01776,0,0
30.56,9.230265,-3.3065589999999996,1.0392816999999999,1004.99536,0,0
30.6,9.158584,-3.3160927000000004,0.97773594,1005.0403,0,0
30.64,9.196835499999999,-3.4161906,1.2286607,1005.0050699999999,0,0
30.68,9.158612,-3.2684278,1.171849,1005.0325300000001,0,0
30.72,9.063031,-3.2779613,1.1055688,1005.0174,0,0
30.76,8.933991,-3.2922611000000006,1.3091496,1005.0428,0,0
30.8,9.201674,-3.1826307999999996,1.3849014,1005.0154,0,0
30.84,9.163453,-3.2779624,1.3044181000000001,1004.9997599999999,0,0
30.88,9.163468,-3.339928,1.0440271,1005.0101,0,0
30.92,9.244738,-3.2302972999999997,0.9966843000000001,1005.0119,0,0
30.96,9.220856,-3.2922629999999997,1.0298266,1005.0272,0,0
31.0,9.235209,-3.2779638999999996,1.077172,1005.0147,0,0
31.04,9.2161045,-3.3399292999999997,1.1150485,1005.0097,0,0
31.08,9.192222000000001,-3.3351629999999997,1.2144723999999998,1005.0247,0,0
31.12,9.144439,-3.330397,1.0771761,1005.0071,0,0
31.16,9.077535000000001,-3.3303974000000003,1.0629742,1005.0172,0,0
31.2,9.101450999999999,-3.3542303999999996,1.0298349,1005.0319,0,0
31.24,9.120585,-3.3780637000000002,1.0913834999999998,1005.0219,0,0
31.28,9.015444,-3.2827327000000004,1.0535096000000002,1005.0171,0,0
31.32,9.326146000000001,-3.3256326,0.99196374,1005.0219,0,0
31.36,9.240124,-3.3542318,1.0961219,1005.0065,0,0
31.4,9.182782000000001,-3.3542322999999996,1.1766083,1005.0169,0,0
31.44,9.12053,-3.2112327,1.1055816,1005.0039999999999,0,0
31.48,9.067962,-3.2874980000000003,1.1860674999999998,1005.0214,0,0
31.52,9.120549,-3.2255332,1.1529274999999999,1005.03394,0,0
31.56,9.197039,-3.2588995,0.9114741,1004.9839,0,0
31.6,9.177927,-3.3780632000000006,0.98722523,1005.0116,0,0
31.64,9.225736,-3.425729,1.0819142,1004.9989,0,0
31.68,9.230524,-3.2017014,1.0156334999999999,1005.0216,0,0
31.72,9.216194999999999,-3.1302032000000004,1.0629783000000002,1005.0113,0,0
31.76,9.206646000000001,-3.1874022,1.0913858,1005.0289300000001,0,0
31.8,9.163638,-3.2589006,1.1245275,1005.0419999999999,0,0
31.84,9.144527,-3.3494656000000003,1.1103252000000001,1005.0291,0,0
31.88,9.235356,-3.2541347000000003,1.0913887,1005.0165,0,0
31.92,9.240145,-3.2255356,1.0535142,1005.0313,0,0
31.96,9.211475,-3.2303023,1.0298431000000001,1005.0266,0,0
32.0,9.287961,-3.1492709999999997,1.0014375,1005.04614,0,0
32.04,9.1828165,-3.2350693,1.0535169,1004.9861,0,0
32.08,9.096789,-3.3113346,1.19555,1005.0086699999999,0,0
32.12,9.216297,-3.2636689999999997,1.1671447,1005.0062,0,0
32.16,9.149389999999999,-3.2922687999999996,1.0724576000000001,1004.9882,0,0
32.2,9.178078999999999,-3.2303037999999997,1.0203799,1005.0312,0,0
32.24,9.15897,-3.2350707,1.1529443000000001,1005.0285,0,0
32.28,9.101622,-3.268437,1.257102,1005.0283,0,0
32.32,9.12075,-3.3113363,1.1766181,1005.0286,0,0
32.36,9.192457000000001,-3.3113363,0.9777739,1005.02075,0,0
32.4,9.235142999999999,-3.2255301,1.0061498,1005.0308,0,0
32.44,9.192121,-3.2874953999999996,1.025087,1005.0007300000001,0,0
32.48,9.1252,-3.3875926,1.1529158000000002,1005.0310000000001,0,0
32.52,9.158655,-3.2731955000000004,1.1292434,1005.0260000000001,0,0
32.56,9.139532,-3.2541292,1.1623839,1005.023,0,0
32.6,9.182545,-3.3685262000000002,1.1055707000000001,1005.0433300000001,0,0
32.64,9.216000000000001,-3.2541287,1.0345541999999999,1005.0308,0,0
32.68,9.072602999999999,-3.3256273000000003,1.0298194999999999,1005.043,0,0
32.72,9.149077,-3.3065608,1.0724287000000001,1005.0434,0,0
32.76,9.120394000000001,-3.2731947999999997,1.1529132,1005.04785,0,0
32.8,9.077371000000001,-3.4114248999999996,1.3233515,1005.01544,0,0
32.84,9.101267,-3.3828254,1.1529126,1005.0556,0,0
32.88,9.20642,-3.3732919999999997,1.0582243,1005.00543,0,0
32.92,9.201635000000001,-3.3017937999999996,1.1008334,1005.01324,0,0
32.96,9.144274000000001,-3.3160932,1.133974,1005.0358,0,0
33.0,9.106031,-3.263661,1.16238,1005.0154,0,0
33.04,9.091688000000001,-3.487689,1.2097236999999998,1005.0275,0,0
33.08,9.163382,-3.2922602,1.0960976999999998,1005.01776,0,0
33.12,9.182496,-3.3446922,1.0960973999999999,1005.043,0,0
33.16,9.168154,-3.301793,1.0913625,1005.04034,0,0
33.2,9.120352,-3.2588942000000003,1.100831,1005.0554,0,0
33.24,9.1585865,-3.2970266,1.1434402,1005.0556,0,0
33.28,9.172922,-3.325626,1.2854722,1005.04034,0,0
33.32,9.115561,-3.2302945,1.2049869,1005.0202,0,0
33.36,9.177694,-3.268427,1.0440167,1005.0327,0,0
33.4,9.125646000000001,-3.2922726000000004,1.1482221000000001,1005.0529,0,0
33.44,9.077865,-3.3304055,1.2476461,1005.01996,0,0
33.48,9.192597,-3.254141,1.1482253,1005.0704300000001,0,0
33.52,9.163936999999999,-3.3304063999999998,1.1955708,1005.0253,0,0
33.56,9.120936,-3.3542392,1.2239790000000002,1005.01996,0,0
33.6,9.192649000000001,-3.3542397000000004,1.0061978,1005.03754,0,0
33.64,9.144867999999999,-3.4305053,1.0961530000000002,1005.03955,0,0
33.68,9.187905,-3.2684429,1.0488107,1005.0350300000001,0,0
33.72,9.192701,-3.3351748,1.1813756000000002,1005.0422,0,0
33.76,9.082784,-3.3256422999999997,1.1056268,1005.0322,0,0
33.8,9.121039999999999,-3.3733082000000003,1.1293004999999998,1005.0346,0,0
33.84,9.211874,-3.3971415,1.1482396000000001,1005.04706,0,0
33.88,9.207112,-3.420975,1.1577101,1005.0394,0,0
33.92,9.231029,-3.3542433,0.9541324000000001,1005.0622599999999,0,0
33.96,9.207147,-3.339944,1.0346187,1005.0546,0,0
34.0,9.178486,-3.3351781000000003,1.0866988000000002,1005.04443,0,0
34.04,9.121145,-3.2350807,1.1340443,1005.0216,0,0
34.08,9.14506,-3.2779803,1.1151084,1005.03955,0,0
34.12,9.145078999999999,-3.2779808,1.1198443,1005.01404,0,0
34.16,9.192894,-3.2160156000000004,1.1103771999999998,1005.02655,0,0
34.2,9.059078,-3.3542464,1.157723,1005.02655,0,0
34.24,9.044754,-3.3876126,1.27135,1005.01685,0,0
34.28,9.169047,-3.2875154,1.0251627,1005.0319,0,0
34.32,9.178625,-3.382847,1.0251644,1005.04663,0,0
34.36,9.178641,-3.3161154,0.9115401,1005.0444,0,0
34.4,9.160259,-3.3351998,0.99682695,1005.00146,0,0
34.44,9.055150999999999,-3.5115638,1.1435976,1005.03406,0,0
34.48,9.088656,-3.3113694,1.0394450000000002,1005.05945,0,0
34.52,9.079139999999999,-3.401935,1.0773244,1005.0363,0,0
34.56,9.217798,-3.3781035000000004,1.1436101,1005.0589,0,0
34.6,9.275207,-3.392404,0.9589728999999999,1005.02124,0,0
34.64,9.198773,-3.373339,0.85482,1005.0159,0,0
34.68,9.160578999999998,-3.2732427000000004,0.88796484,1005.0210599999999,0,0
34.72,9.241882,-3.2637103,1.1104861000000001,1005.05615,0,0
34.76,9.146334,-3.2541785,1.129428,1004.99335,0,0
34.8,9.203737,-3.4210095000000003,1.2288548000000001,1005.0538,0,0
34.84,9.256363,-3.2923133,1.0489517,1005.0616,0,0
34.88,9.337664,-3.254182,1.0063461,1005.0339,0,0
34.92,9.280353,-3.0682871,0.98741287,1005.0134,0,0
34.96,9.261277,-2.953891,0.88799435,1005.0338,0,0
35.0,9.022337,-3.2255863999999996,1.2004696000000001,1005.0259,0,0
35.04,8.902886,-3.3828834999999997,1.2904273000000002,1005.0131,0,0
35.08,9.108467,-3.196989,1.2052126,1005.0559699999999,0,0
35.12,9.161089,-3.2732549,1.1152628999999998,1005.04346,0,0
35.16,9.271072,-3.3256883999999998,0.81226546,1005.0712,0,0
35.2,9.323692999999999,-3.1540935,0.7507221,1005.04346,0,0
35.24,9.271162,-3.297091200000001,0.91643065,1005.0257,0,0
35.28,9.209072,-3.2589599999999996,0.963779,1005.0105,0,0
35.32,9.175657000000001,-3.344759,1.0963463,1005.05585,0,0
35.36,9.156588000000001,-3.3113945,0.86436504,1005.0607,0,0
35.4,9.097433,-3.4734132000000004,0.8642006,1005.0658599999999,0,0
35.44,9.188222999999999,-3.2064855,0.80265087,1005.0205699999999,0,0
35.48,9.216873,-3.1349864,1.0014933000000001,1005.0231,0,0
35.52,9.054331,-3.3876129999999995,1.4086493999999998,1005.0155,0,0
35.56,9.078204,-3.1826506,1.4086471,1005.03815,0,0
35.6,9.140313,-3.0587193999999998,1.4228476,1005.0231,0,0
35.64,9.168964,-3.1778827,1.2666097,1005.0431,0,0
35.68,9.207175999999999,-3.2493804,0.8783861999999999,1005.0632,0,0
35.72,9.340985,-3.4305089,0.66060114,1005.0127,0,0
35.76,9.350516,-3.3494767999999997,0.38126874,1005.076,0,0
35.8,9.269232,-3.2922773000000003,0.55170476,1005.0353,0,0
35.84,8.968075,-3.4209737999999996,1.1861122,1005.0429,0,0
35.88,8.982388499999997,-3.1731119999999997,1.4275645000000001,1005.0429,0,0
35.92,8.925002000000003,-3.1588112999999995,1.4180931,1005.0227,0,0
35.96,9.097047,-3.406672,1.2334486999999998,1005.04803,0,0
36.0,9.393367,-3.4019046000000004,0.87363154,1005.04535,0,0
36.04,9.47938,-3.4162037000000005,0.6463778,1005.0478,0,0
36.08,9.292939,-3.4448025,0.6653129,1005.06287,0,0
36.12,9.216434,-3.292272,0.9919843,1005.03296,0,0
36.16,8.963075,-3.3637697999999996,1.4180780000000002,1005.0729,0,0
36.2,8.905693,-3.4924660000000003,1.3802003999999999,1005.0707,0,0
36.24,8.967803,-3.3828347,1.2523688999999998,1005.0478,0,0
36.28,9.1446295,-3.3971336,0.963568,1005.0505400000001,0,0
36.32,9.1207,-3.4733977,0.7789233,1005.05255,0,0
36.36,9.2927475,-3.3875987999999997,0.85467154,1005.035,0,0
36.4,9.139766,-3.4733964999999998,1.1529363000000001,1005.05255,0,0
36.44,9.087744,-3.4734101,1.148253,1005.0299,0,0
36.48,9.135537,-3.4162114000000003,1.0725018999999998,1005.0495,0,0
36.52,9.159431,-3.4495769999999997,0.88312536,1005.05756,0,0
36.56,9.164206,-3.3637788,0.9683441999999999,1005.0324,0,0
36.6,9.159421,-3.230315,1.0630318,1005.0575,0,0
36.64,9.183314,-3.2922802000000004,1.3802365,1005.06256,0,0
36.68,9.082933,-3.3113462999999994,1.3612983,1005.0675699999999,0,0
36.72,9.092488000000001,-3.3447123,1.2145313999999998,1005.06,0,0
36.76,9.216759,-3.3637784,0.9872796,1005.0369,0,0
36.8,9.135497,-3.3971437999999994,1.010951,1005.05756,0,0
36.84,9.18329,-3.3542447,0.91152817,1005.0704,0,0
36.88,9.178505,-3.4114435,1.1340445,1005.05707,0,0
36.92,9.135482000000001,-3.41621,1.1766538999999998,1005.0646,0,0
36.96,9.135477,-3.3447112999999997,1.067762,1005.03705,0,0
37.0,9.16415,-3.3447112999999997,1.1387776,1005.0271,0,0
37.04,9.130687,-3.3065789,1.0535579,1005.05756,0,0
37.08,9.082884,-3.3828435,1.1671833,1005.03937,0,0
37.12,9.183255,-3.225547,1.1766516000000002,1005.0696,0,0
37.16,9.173689999999999,-3.201714,1.1577135,1005.0444,0,0
37.2,9.1354475,-3.3161110000000003,1.1009002,1005.0568,0,0
37.24,8.996828,-3.3780766000000004,1.1482438,1005.05695,0,0
37.28,9.044621000000001,-3.435275,1.2192593999999999,1005.0596300000001,0,0
37.32,9.121093,-3.3923757000000005,1.1624461000000001,1005.06476,0,0
37.36,9.1880045,-3.3828425,1.0630231,1005.0444,0,0
37.4,9.054165,-3.2303123,1.0582882,1005.0444,0,0
37.44,9.002392,-3.4734267999999995,1.2288005,1005.05695,0,0
37.48,8.830347999999997,-3.6354904,1.3045535,1005.0517,0,0
37.52,9.227097,-3.4066959999999997,1.0536324,1005.0696,0,0
37.56,9.685985,-3.0968707,0.95894676,1005.07416,0,0
37.6,9.566514,-2.6964808,0.6228063,1005.0392,0,0
37.64,9.442263,-2.5868502,0.78377825,1005.0543,0,0
37.68,9.088585,-2.7679803,1.2572212,1005.0667,0,0
37.72,8.940439999999997,-3.4924974000000004,2.1283543,1005.0718,0,0
37.76,9.064739,-3.6831605000000014,2.3224673,1005.0667,0,0
37.8,9.232059,-3.578297,1.8727011999999998,1005.06433,0,0
37.84,9.37548,-3.3304367,1.1057299999999999,1005.0618,0,0
37.88,8.873627,-3.7355945,1.1578108999999999,1005.059,0,0
37.92,8.496047,-4.3409486,1.1341412,1005.0690300000001,0,0
37.96,8.830658999999997,-4.040655,0.5754838000000001,1005.0667,0,0
38.0,8.964521000000003,-4.1884193,1.1530837,1005.049,0,0
38.04,9.002786,-3.840461,1.2241023000000002,1005.0717,0,0
38.08,9.170105,-3.1445446,1.3329957000000001,1005.0841,0,0
38.12,8.730391000000001,-3.2065105,1.4750303,1005.059,0,0
38.16,8.802112,-3.0587478,1.5933926999999999,1005.0465,0,0
38.2,9.557347,-3.0015497000000004,1.6596768,1005.0687,0,0
38.24,10.236106,-2.663125,1.6502105,1005.04364,0,0
38.28,9.920666,-2.4724633999999996,1.3519453000000001,1005.04395,0,0
38.32,9.108125,-2.9538862999999997,0.7270065,1005.0637,0,0
38.36,8.257347,-3.7737347999999997,1.5271232,1005.064,0,0
38.4,8.30517,-3.6641044999999997,1.7259705,1005.04364,0,0
38.44,9.007887,-3.3018482000000002,1.5886806,1005.0534,0,0
38.48,9.399863999999999,-2.8013605999999998,1.3424945,1005.0637,0,0
38.52,9.777498,-2.7393963,1.1057771,1005.064,0,0
38.56,9.863563000000001,-2.9491252999999995,1.6975803,1005.0662,0,0
38.6,9.63894,-2.9634256000000003,2.0668666,1005.0685,0,0
38.64,9.180108,-3.0110919999999997,2.1331507999999997,1005.0634,0,0
38.68,8.831211,-3.26372,1.6644473000000002,1005.0555400000001,0,0
38.72,8.692625999999999,-3.2446547000000003,1.569762,1005.06104,0,0
38.76,8.525362,-3.7356107000000014,1.7638751,1005.0534,0,0
38.8,8.726141,-3.9167407,1.7591432,1005.0179400000001,0,0
38.84,8.998617,-3.7356122000000003,1.4656126,1005.0708,0,0
38.88,9.299774000000001,-3.5640165999999995,0.85014284,1005.04346,0,0
38.92,8.936539,-3.5878502999999995,0.96377116,1005.0506,0,0
38.96,9.041723,-3.511586,1.1910253,1005.0459,0,0
39.0,9.271181,-3.306625,1.5034986000000001,1005.0659,0,0
39.04,9.28077,-3.2589599999999996,1.7070805,1005.0555400000001,0,0
39.08,9.266458,-3.015866,1.6076605,1005.04803,0,0
39.12,9.280828,-2.9443686000000002,1.380412,1005.0634,0,0
39.16,9.041868,-3.3256937999999994,1.6408068,1005.03296,0,0
39.2,9.013218,-3.2637292999999996,1.5792623,1005.0405,0,0
39.24,9.084944,-2.9682035,1.4798424,1005.0151,0,0
39.28,9.338303999999999,-2.9539046,1.3614852,1005.0605,0,0
39.32,9.519962,-3.1493342,1.3851596000000002,1005.0278,0,0
39.36,9.314461,-3.6402902999999998,1.3614901000000001,1005.03754,0,0
39.4,9.113736,-3.6974897000000007,0.9022555,1005.0378,0,0
39.44,8.960003,-3.7594357000000014,0.982669,1005.0576,0,0
39.48,8.998239,-3.6641044999999997,1.2572643000000001,1005.0555400000001,0,0
39.52,9.084272,-3.6593378,1.2714671,1005.0631,0,0
39.56,9.098609,-3.6831706,1.0678875,1005.0173300000001,0,0
39.6,8.955214,-3.5783063999999998,0.7743543,1005.0501,0,0
39.64,9.031687,-3.535407,0.8027605,1005.05786,0,0
39.68,8.979107,-3.3971772000000002,1.3708886999999998,1005.0325300000001,0,0
39.72,8.998223,-3.4734418,1.7070311999999999,1005.0450400000001,0,0
39.76,9.012561,-3.4496089999999997,1.5934053999999995,1005.0246599999999,0,0
39.8,9.160732000000001,-3.2637131,1.3282783999999999,1005.0348,0,0
39.84,9.241986,-3.1779148999999998,1.0110731,1005.0246599999999,0,0
39.88,9.227644999999999,-3.4925077000000004,1.1673082000000001,1005.04,0,0
39.92,9.117706,-3.4972741999999997,1.0915576,1005.04,0,0
39.96,9.132043,-3.3781102,0.93532205,1005.05255,0,0
40.0,9.031665,-3.3828769999999997,1.1246979,1005.025,0,0
40.04,9.055561,-3.3066117999999998,1.3235427,1005.0296599999999,0,0
40.08,9.0221,-3.3018449999999997,1.4987155,1005.0325300000001,0,0
40.12,9.089015,-3.216047,1.3992927,1005.0498699999999,0,0
40.16,9.213286,-3.1207159,1.2572603,1005.0399,0,0
40.2,9.280202000000001,-3.1779144,1.0868214,1005.0397,0,0
40.24,9.146365,-3.2637124,0.98266447,1005.0245,0,0
40.28,9.026867,-3.3828766000000003,1.0300082,1005.0545,0,0
40.32,8.993406,-3.4162421000000003,1.2288529,1005.0392,0,0
40.36,9.031642999999999,-3.3828763999999993,1.2525249,1005.0296599999999,0,0
40.4,9.045978999999999,-3.2780120000000004,1.3093374,1005.0245,0,0
40.44,9.050982000000001,-3.3399827000000006,1.3377643,1005.0219999999999,0,0
40.48,9.184823,-3.2780175000000003,1.1815294,1005.05505,0,0
40.52,9.223067,-3.3256834000000004,1.1625925,1005.0345,0,0
40.56,9.160936,-3.4114814,1.0915768999999995,1005.0497,0,0
40.6,9.027109,-3.4305480000000004,1.1389216,1005.0395,0,0
40.64,8.993656,-3.4114815999999997,1.1815318000000001,1005.0345,0,0
40.68,9.012782000000001,-3.3733494,1.2951581,1005.05707,0,0
40.72,9.084484,-3.292318,1.2572834,1005.0296,0,0
40.76,9.151408,-3.2827851999999997,1.1673303,1005.04224,0,0
40.8,9.132295,-3.37335,1.1199868,1005.03174,0,0
40.84,9.180099499999999,-3.3352175,1.1247218,1005.0269,0,0
40.88,9.055831,-3.3018517,1.1152536,1005.0392,0,0
40.92,8.99848,-3.38765,1.2241454,1005.0495599999999,0,0
40.96,9.031945,-3.4210162000000004,1.2052083999999998,1005.0291,0,0
41.0,9.117988,-3.4591486000000002,1.2525531,1005.0495599999999,0,0
41.04,9.342645,-3.2780199999999997,1.105787,1005.01904,0,0
41.08,9.213594,-3.1731557999999995,1.1626005,1005.03925,0,0
41.12,9.03197,-3.3685843999999996,1.2052107,1005.0313,0,0
41.16,9.184928999999999,-3.4496163999999996,1.1578671999999999,1005.03925,0,0
41.2,9.318769999999999,-3.2637205000000002,1.3046343,1005.03394,0,0
41.24,9.2566395,-3.196989,1.2525563,1005.0515,0,0
41.28,9.189728,-3.196989,1.1673377,1005.0462,0,0
41.32,9.256652,-3.1731564999999997,1.0063685,1005.03656,0,0
41.36,9.247098,-3.2589547999999997,1.0679163999999999,1005.0442,0,0
41.4,9.170627,-3.3828855000000004,1.186277,1005.0489,0,0
41.44,9.198694999999999,-3.2208072999999997,1.2240963,1005.0389,0,0
41.48,9.155663,-3.1969743,1.3377208,1005.0437,0,0
41.52,9.184325,-3.1445417,1.2288281,1005.04175,0,0
41.56,9.189086,-3.263705,1.3519208,1005.0439,0,0
41.6,9.236867,-3.1302412,1.2051526000000001,1005.0337,0,0
41.64,9.165153,-3.0492093999999996,1.0867908000000002,1005.0113,0,0
41.68,9.045639999999999,-3.0253758,1.1483364999999999,1005.02625,0,0
41.72,9.059961999999999,-3.0158424,1.252492,1005.0613,0,0
41.76,9.112522,-3.2160375,1.4323976,1005.0766,0,0
41.8,9.265459,-3.249403,1.3850521999999998,1005.069,0,0
41.84,9.313239999999999,-3.201737,1.2572216,1005.0439,0,0
41.88,9.394478999999999,-3.1683707,1.0631093,1005.0261,0,0
41.92,9.418361,-3.2589349999999997,1.0915142,1005.0512,0,0
41.96,9.265389,-3.0349061,1.0867783000000002,1005.0487,0,0
42.0,9.045502,-3.0587387,1.2288088,1005.0437,0,0
42.04,8.992906,-3.1350033,1.3519018,1005.0312,0,0
42.08,9.155402,-3.139769,1.2903528,1005.0285,0,0
42.12,9.26532,-3.2541661,1.1861943000000001,1005.0362,0,0
42.16,9.260519,-3.1064022000000002,1.0204883,1005.0412,0,0
42.2,9.002391000000003,-3.2541652,1.0772993999999998,1005.0310699999999,0,0
42.24,9.069295,-3.2112658,1.0252198000000001,1005.0334,0,0
42.28,9.183994,-3.2350984,1.0394214,1005.0307,0,0
42.32,9.198310000000001,-3.3780943999999997,0.9826065999999999,1005.05853,0,0
42.36,9.145714,-3.2398636,0.8973856,1005.0383,0,0
42.4,9.1668215,-3.287578,1.1342877,1005.05853,0,0
42.44,9.324615,-3.3066456,1.2337156999999999,1005.04065,0,0
42.48,9.262544,-3.2208493,0.9922673000000001,1005.0511,0,0
42.52,9.114413,-3.3161814,1.0538185,1005.0405,0,0
42.56,9.100154,-3.2399187,1.1295761,1005.0532,0,0
42.6,9.210137,-3.1159894,1.0727677,1005.06573,0,0
42.64,9.205416,-3.0873914,1.1485237,1005.0328400000001,0,0
42.68,9.258074,-3.2637557999999998,1.1816716,1005.0258,0,0
42.72,9.167305,-3.3686212999999996,1.2384889,1005.043,0,0
42.76,9.138705999999999,-3.306658,1.1958865,1005.05853,0,0
42.8,9.062288,-3.3590915,1.1816886999999998,1005.0454,0,0
42.84,9.00499,-3.3304937000000003,1.1390844999999998,1005.0334,0,0
42.88,9.02416,-3.3543279999999998,1.101214,1005.0559,0,0
42.92,9.0099,-3.4115282999999996,1.1580342,1005.0229,0,0
42.96,9.057758,-3.4067635999999997,1.1201643000000001,1005.0179,0,0
43.0,9.139074,-3.3924654000000003,1.0302162,1005.0529,0,0
43.04,9.206058500000001,-3.3209686,0.94500303,1005.04834,0,0
43.08,9.086622,-3.2351718,1.068103,1005.0334,0,0
43.12,9.058007,-3.2208737999999997,1.1722656,1005.0656,0,0
43.16,9.297041,-3.263774,1.1722696000000001,1005.0204,0,0
43.2,9.693844,-3.5259366,1.4468725,1005.0454,0,0
43.24,9.249382,-3.4592059999999996,1.0491878000000001,1005.0529,0,0
43.28,8.72367,-3.4639742,0.7509265,1005.0604,0,0
43.32,8.628123,-3.5450072,1.0634014999999999,1005.0405,0,0
43.36,9.335613,-3.1064856,1.1912378000000001,1005.0451,0,0
43.4,9.586686,-2.9824998,1.4703611,1005.0350300000001,0,0
43.44,9.185153999999999,-3.3971896,1.077403,1005.04285,0,0
43.48,8.931794,-3.4829866999999997,0.7980703,1005.0400400000001,0,0
43.52,8.860068,-3.5878506000000003,1.0584599,1005.0629,0,0
43.56,8.807458,-3.549717,1.2194266000000002,1005.0525,0,0
43.6,8.816991999999997,-3.4305527000000002,1.2004867000000001,1005.0604,0,0
43.64,8.816967,-3.4591513,1.3945949,1005.05035,0,0
43.68,8.912524000000003,-3.3828855000000004,1.422998,1005.05756,0,0
43.72,8.988973,-3.392418,1.3709168,1005.0451,0,0
43.76,9.366547,-3.3399851000000003,1.276226,1005.0599,0,0
43.8,9.51947,-3.344751,1.2194104,1005.0526,0,0
43.84,9.452525,-3.2732517999999997,1.1010476,1005.0576,0,0
43.88,9.141805,-3.5068126000000004,1.2146704,1005.0601,0,0
43.92,9.08442,-3.5401776,1.2951528,1005.04254,0,0
43.96,9.132189,-3.2875492999999993,1.119977,1005.0299699999999,0,0
44.0,9.227753,-3.38288,1.1720525,1005.0626,0,0
44.04,9.184707000000001,-3.3971786,1.0915651000000002,1005.05005,0,0
44.08,9.132097,-3.3781116,1.2051878999999999,1005.0473599999999,0,0
44.12,9.022133,-3.430543,1.2998733999999998,1005.055,0,0
44.16,9.055558999999999,-3.4305421999999997,1.3424801000000002,1005.0324,0,0
44.2,9.031632,-3.4639075,1.3566808000000001,1005.0473599999999,0,0
44.24,9.0555,-3.5020392,1.2477865,1005.06256,0,0
44.28,9.117607000000001,-3.4686725,1.0678765,1005.055,0,0
44.32,9.194057,-3.4257730000000004,1.1057492,1005.0523699999999,0,0
44.36,9.179686,-3.4210057000000003,1.2241064,1005.0599,0,0
44.4,9.137545,-3.29233,1.1058266,1005.0473599999999,0,0
44.44,9.051514,-3.2970967000000004,1.3756882,1005.0649,0,0
44.48,8.970264,-3.4639263,1.3804232,1005.0674,0,0
44.52,9.0658655,-3.5354247,1.3804238000000002,1005.02716,0,0
44.56,9.237946,-3.4925258,1.2336578,1005.04486,0,0
44.6,9.161475,-3.3304633999999997,1.0442822,1005.0472,0,0
44.64,9.128021,-3.3256967000000004,1.1105644,1005.0271,0,0
44.68,9.118469000000001,-3.2970976999999997,1.2573315,1005.0397300000001,0,0
44.72,9.175833,-3.325697,1.2857385000000001,1005.04443,0,0
44.76,9.252316,-3.3638299,1.2289261999999999,1005.0472,0,0
44.8,9.199743,-3.2398992,1.0774257999999999,1005.0671,0,0
44.84,9.180632000000001,-3.2494326,1.1768489,1005.0242,0,0
44.88,9.022903999999999,-3.2684990000000003,1.2620687,1005.04926,0,0
44.92,9.080267999999998,-3.2017672000000004,1.1910533,1005.05975,0,0
44.96,9.128072,-3.1159694,1.2952107,1005.0596,0,0
45.0,9.094619,-3.2780328,1.3236177,1005.05426,0,0
45.04,9.042048,-3.3209317000000005,1.1768517,1005.0621,0,0
45.08,9.0850725,-3.3828970999999997,1.1437114,1005.01416,0,0
45.12,9.1567745,-3.3828974,1.1484463,1005.0796,0,0
45.16,9.238039,-3.2732667999999996,0.99221176,1005.0693,0,0
45.2,9.152009,-3.2732667999999996,1.2241981000000002,1005.0493,0,0
45.24,9.104217,-3.2113016,1.228933,1005.0696,0,0
45.28,9.0468645,-3.2732673,1.2194648000000001,1005.05176,0,0
45.32,9.132908,-3.2828002,1.1626526000000001,1005.0695,0,0
45.36,9.175932000000001,-3.1970022,1.0774337999999999,1005.0567599999999,0,0
45.4,9.309773,-3.3542989999999997,1.2052633,1005.0519400000001,0,0
45.44,9.343238000000001,-3.2542014,1.0963726,1005.04425,0,0
45.48,9.314565,-3.111205,0.94960666,1005.049,0,0
45.52,9.190296,-3.239902,1.2194682,1005.05426,0,0
45.56,9.161624,-3.0444734,1.3709698000000001,1005.0541400000001,0,0
45.6,9.185528999999999,-3.1016722000000003,1.3993767,1005.0718400000001,0,0
45.64,9.094719,-3.211303,1.3757053999999995,1005.0565,0,0
45.68,9.152083,-3.206537,1.0537664,1005.0289,0,0
45.72,9.209447,-3.239903,1.0064229,1005.04926,0,0
45.76,9.214233,-3.0969064,0.9685483,1005.05426,0,0
45.8,9.137763,-3.2732692,1.2810194,1005.0693,0,0
45.84,9.147328,-3.096907,1.2668169,1005.07935,0,0
45.88,9.180794,-3.1874714,1.3757088,1005.0412,0,0
45.92,9.362432,-3.1922379000000003,1.3046932,1005.0690300000001,0,0
45.96,9.367218,-3.1874719,0.96381676,1005.0565,0,0
46.0,9.276407,-3.2017715,0.9448796,1005.0688,0,0
46.04,9.147359,-3.092141,1.0348339,1005.0613,0,0
46.08,9.051769,-3.2160716000000003,1.2999611,1005.0337,0,0
46.12,9.142591,-3.1779392000000004,1.4467282,1005.0716,0,0
46.16,9.147378,-3.0587752,1.5272136,1005.0314,0,0
46.2,9.118707,-3.0587757,1.4419948999999999,1005.07385,0,0
46.24,9.056575,-3.1588732999999998,1.2478848999999999,1005.0718400000001,0,0
46.28,9.156957,-3.216072,0.85966444,1005.04114,0,0
46.32,9.228660000000001,-3.2494383,0.98749393,1005.0536,0,0
46.36,9.434198,-3.03971,1.110589,1005.0487699999999,0,0
46.4,9.177407,-3.0826414,1.3805708,1005.06396,0,0
46.44,9.144005,-3.2971377,1.323763,1005.05396,0,0
46.48,9.158403,-3.2637732,1.3285029,1005.0663,0,0
46.52,9.129777,-3.1779766,1.0965216999999998,1005.0836,0,0
46.56,9.053363000000001,-3.2208772,1.0018395,1005.0716,0,0
46.6,9.096437,-3.311443,1.205424,1005.06854,0,0
46.64,9.134739,-3.2971451000000003,1.1864921999999998,1005.0536,0,0
46.68,9.182592999999999,-3.2494810000000003,1.3143263,1005.0484,0,0
46.72,9.230455000000001,-3.244716,1.3095976,1005.0334,0,0
46.76,9.24963,-3.3019160000000003,1.1723051000000002,1005.0361,0,0
46.8,9.182773,-3.316217,1.224389,1005.02856,0,0
46.84,9.125475,-3.3066854,1.1060343000000001,1005.0736699999999,0,0
46.88,9.182891,-3.3066866000000004,1.2670095,1005.0609,0,0
46.92,9.259424000000001,-3.1779912,1.2244049,1005.0511,0,0
46.96,9.345521000000002,-3.1255603,1.196004,1005.0406,0,0
47.0,9.264319,-3.2065935000000003,1.2244155,1005.0786,0,0
47.04,9.24526,-3.182762,1.1297328000000002,1005.0411,0,0
47.08,9.178398,-3.1064985000000003,1.2433636000000001,1005.0436,0,0
47.12,9.159343,-3.0350018,1.3001823000000001,1005.0686599999999,0,0
47.16,9.12594,-3.0207033,1.3996098999999995,1005.0711699999999,0,0
47.2,9.274178,-3.1494021,1.3854127,1005.05365,0,0
47.24,9.159517999999998,-3.0588387999999997,1.0398061,1005.07574,0,0
47.28,9.288632000000002,-3.2638017999999995,1.162906,1005.0636599999999,0,0
47.32,9.255229,-3.0493085,1.1676457,1005.0582,0,0
47.36,9.183589,-2.9825778,1.1723852,1005.0458,0,0
47.4,9.068935,-3.1351093999999997,1.3759704,1005.0481,0,0
47.44,9.123986,-3.2589834,1.3615558,1005.0553,0,0
47.48,9.229106,-3.254216,1.2858022,1005.0706,0,0
47.52,9.267311999999999,-3.2351487,1.0112038,1005.0532,0,0
47.56,9.262501,-3.2971133999999997,0.9827945,1005.0582,0,0
47.6,9.262468,-3.2637462999999998,1.0680107,1005.0303,0,0
47.64,9.166841499999999,-3.273279,1.0916798,1005.0706,0,0
47.68,9.123791,-3.2923440000000004,1.210037,1005.07825,0,0
47.72,9.138097,-3.1731799,1.2431748,1005.0532,0,0
47.76,9.161967,-3.1874785,1.2195002000000001,1005.0553,0,0
47.8,9.133253,-3.1827111,1.361529,1005.0404699999999,0,0
47.84,9.099761,-3.2113093999999998,1.2289627,1005.0377,0,0
47.88,9.152308,-3.0778453,1.0585214,1005.0574,0,0
47.92,9.290887,-3.235141,1.1768782,1005.0682,0,0
47.96,9.309974,-3.1207428,1.1342655000000001,1005.0607,0,0
48.0,9.262143,-3.1302748,1.0585122,1005.0378400000001,0,0
48.04,9.137837,-3.16364,1.2384167,1005.0531599999999,0,0
48.08,9.209501,-2.9872766,1.2573513,1005.05,0,0
48.12,9.300288,-3.063541,1.2904893,1005.0402,0,0
48.16,9.185537,-3.0397074,1.2431421999999999,1005.06,0,0
48.2,9.190285000000001,-3.163637,1.1247790000000002,1005.04285,0,0
48.24,9.180695,-3.101671,1.2810116000000005,1005.07825,0,0
48.28,9.2189,-3.039705,1.3046806,1005.0525,0,0
48.32,9.257108,-3.2303665,1.4135691000000001,1005.0574,0,0
48.36,9.0611,-3.1779335,1.1531737,1005.07025,0,0
48.4,8.9559145,-3.1969990000000004,0.9164507,1005.08295,0,0
48.44,9.071373,-3.1970169999999998,1.2668647,1005.0754,0,0
48.48,9.262563,-3.154118,1.2053171,1005.0629,0,0
48.52,9.171744,-3.1684177000000004,1.124832,1005.0525,0,0
48.56,9.037907,-3.3018812999999994,1.1437694,1005.0624,0,0
48.6,8.9662075,-3.3447802,1.1721756,1005.0549,0,0
48.64,9.071361,-3.1445847000000002,1.2384571000000002,1005.0525,0,0
48.68,9.233871,-3.3304806000000005,1.3568168999999999,1005.0602,0,0
48.72,9.286448,-3.2875812000000004,1.2952695,1005.07745,0,0
48.76,9.4202795,-3.3495464,0.9780641999999999,1005.07245,0,0
48.8,9.181286,-3.2542152,1.0301424000000001,1005.04724,0,0
48.84,9.267321,-3.106452,1.2526591,1005.05695,0,0
48.88,9.162162,-3.2351490000000003,1.3378782,1005.05,0,0
48.92,9.224298,-3.0254207,1.3236748,1005.0723,0,0
48.96,9.248194,-2.9348557,1.2952682,1005.03723,0,0
49.0,9.195613999999999,-2.7680264,1.2715958,1005.0324,0,0
49.04,9.382023,-3.006354,1.4230965,1005.055,0,0
49.08,9.2912035,-2.877657,1.2810643,1005.05444,0,0
49.12,9.32944,-3.1207514,1.1674381,1005.05444,0,0
49.16,9.190824000000001,-3.282814,1.3994238,1005.062,0,0
49.2,9.095224,-3.1731832000000004,1.2431883,1005.07745,0,0
49.24,9.119121,-3.2399150000000003,1.2479223999999998,1005.062,0,0
49.28,9.066541,-3.1874827999999997,1.2905318000000001,1005.0795,0,0
49.32,9.095217,-3.2828138,1.1579683,1005.0644,0,0
49.36,9.190811,-3.3447793,1.157968,1005.05695,0,0
49.4,9.248166000000001,-3.2589810000000003,1.1911087,1005.03937,0,0
49.44,9.291571000000001,-3.1064606,1.1769408000000001,1005.0469400000001,0,0
49.48,9.229446000000001,-3.1350599999999997,1.2526925,1005.04944,0,0
49.52,9.296375,-3.2256253,1.3994601,1005.04205,0,0
49.56,9.454122,-3.2589915,1.3521171,1005.0545699999999,0,0
49.6,9.205584,-3.1541276000000003,1.4278688,1005.0369,0,0
49.64,9.133899000000001,-2.9062667,1.2006186,1005.08466,0,0
49.68,9.267747,-2.9062672000000003,1.0680563,1005.0595,0,0
49.72,9.296438,-2.9396331,1.1722145,1005.01935,0,0
49.76,9.286891,-2.9348669999999997,1.1958877,1005.06714,0,0
49.8,9.176967999999999,-2.8776686000000002,1.1390758,1005.0571,0,0
49.84,9.095722,-3.1779618,1.281109,1005.04926,0,0
49.88,9.043159,-3.2828266999999998,1.3900015,1005.0871,0,0
49.92,9.119646000000001,-3.2732937,1.3568618000000001,1005.0695,0,0
49.96,9.009724,-3.2685275000000003,1.4562853999999998,1005.04443,0,0
50.0,9.052755,-3.3114269,1.2527072,1005.072,0,0
50.04,9.172260000000001,-3.2113294999999997,1.1722233999999998,1005.0895,0,0
50.08,9.172275,-3.1350648,1.1722248,1005.0566,0,0
50.12,9.239203999999999,-3.0635667,1.3568676000000002,1005.0669,0,0
50.16,9.253557,-2.9634695,1.3142592,1005.049,0,0
50.2,9.162752000000001,-3.0492675,1.4846986999999998,1005.0666,0,0
50.24,9.129306,-3.116,1.3710742,1005.0491300000001,0,0
50.28,9.08152,-3.1827319,1.4657633999999995,1005.0866,0,0
50.32,9.16757,-3.0302026,1.3805454,1005.092,0,0
50.36,9.158021000000002,-3.0540354,1.3568745,1005.0542,0,0
50.4,9.210613,-3.0969347999999997,1.2527186000000001,1005.0469400000001,0,0
50.44,9.271989,-2.982519,1.1058823,1005.0666,0,0
50.48,9.181152,-2.9062533,1.1390214,1005.0818,0,0
50.52,9.267172,-3.087382,1.2573798999999999,1005.0465,0,0
50.56,9.334074000000001,-3.1636467,1.4136138,1005.0841,0,0
50.6,9.276697,-3.0397157999999997,1.3047209,1005.0916,0,0
50.64,9.166744,-2.9920497000000004,1.2715783,1005.0588,0,0
50.68,9.171505999999999,-3.082614,1.4940938,1005.0766,0,0
50.72,9.224067999999999,-3.0444807999999997,1.3804666,1005.0616,0,0
50.76,9.20015,-2.9300827999999997,1.4183403,1005.04364,0,0
50.8,9.118876,-3.0826127999999997,1.271572,1005.0616,0,0
50.84,9.200114,-3.01588,1.2194918,1005.0688,0,0
50.88,9.443867,-3.1493435,1.3899288,1005.06116,0,0
50.92,9.376934,-3.0349457,1.3236457,1005.05164,0,0
50.96,9.214400999999999,-2.9920464,1.2052839,1005.0713,0,0
51.0,8.980172,-2.9491465,1.2478919,1005.0463,0,0
51.04,8.980157,-3.0015783,1.4135944999999999,1005.0386,0,0
51.08,9.013597500000001,-3.0635432999999996,1.4751401000000002,1005.04114,0,0
51.12,9.094838000000001,-3.0492435,1.3993883,1005.0511,0,0
51.16,9.199974000000001,-3.2685041,1.2857606000000001,1005.0636599999999,0,0
51.2,9.223858,-3.3352358,1.3236344999999998,1005.0487699999999,0,0
51.24,9.142583,-3.4925315,1.1863351,1005.0507,0,0
51.28,8.951373,-3.5544964999999995,1.3283657,1005.0638,0,0
51.32,8.831861,-3.511597,1.3473017,1005.0507,0,0
51.36,9.056494,-3.4782307,1.498801,1005.04114,0,0
51.4,9.190311,-3.1970034,1.1295159,1005.0638,0,0
51.44,9.50269,-3.0731144,0.9876386999999999,1005.04584,0,0
51.48,9.474065,-2.9253526,0.92136186,1005.0836,0,0
51.52,9.402413000000001,-2.8919876,1.0776013,1005.07074,0,0
51.56,9.488497,-2.9491875,1.2385754999999998,1005.0613,0,0
51.6,9.502888,-2.863391,1.5415821,1005.0483,0,0
51.64,9.287844999999999,-2.8681586,1.6078681000000001,1005.0607,0,0
51.68,8.938968,-3.1112542000000003,1.4895126,1005.05585,0,0
51.72,8.800403,-3.2304192000000005,1.4090321000000001,1005.0858,0,0
51.76,8.833911,-3.3257515,1.3001453,1005.0713,0,0
51.8,9.0203705,-3.3591187000000007,1.4279786,1005.05585,0,0
51.84,9.197269,-3.2971546999999997,1.1581217,1005.0613,0,0
51.88,9.431532,-3.2208912,1.1344544,1005.0557,0,0
51.92,9.355103999999999,-3.0588292999999998,1.0539742,1005.05835,0,0
51.96,9.254779,-3.0016317000000003,1.1676044,1005.0458,0,0
52.0,9.250045,-3.239961,1.3806566999999998,1005.0733,0,0
52.04,9.360028999999999,-3.1589305,1.3049108999999999,1005.0332599999999,0,0
52.08,9.082859,-3.3591273,1.2007594,1005.07074,0,0
52.12,9.01598,-3.4020273999999997,1.1865594,1005.0483,0,0
52.16,9.097285000000001,-3.3495962999999995,1.2623146,1005.0607,0,0
52.2,9.183372,-3.2447336,1.2244438,1005.0458,0,0
52.24,9.192978,-3.3162327000000005,1.2528545,1005.0607,0,0
52.28,9.250384,-3.2781013999999997,1.2481246000000001,1005.0780599999999,0,0
52.32,9.064019,-3.3877335,1.2860042,1005.0532,0,0
52.36,9.121429,-3.3210029999999997,1.2386648999999998,1005.0481599999999,0,0
52.4,9.016323,-3.106509,1.0824340000000001,1005.0556,0,0
52.44,8.957592,-3.1493745,1.2764188,1005.0429,0,0
52.48,9.153557000000001,-3.1970397999999998,1.3569031999999999,1005.0278300000001,0,0
52.52,9.19179,-3.2876043,1.1438544,1005.0832,0,0
52.56,9.191783000000001,-3.4830330000000003,1.0349625,1005.07294,0,0
52.6,9.182217999999999,-3.3924682,0.96394587,1005.0655,0,0
52.64,9.191771000000001,-3.2685375,1.0349613000000002,1005.0607,0,0
52.68,9.143966,-3.3448024,1.2716811000000001,1005.0755,0,0
52.72,9.077043,-3.2971367999999996,1.2148676,1005.0780599999999,0,0
52.76,9.053137,-3.2542377,1.2574767,1005.0880000000001,0,0
52.8,9.158286,-3.5020983,1.2669449,1005.0655,0,0
52.84,9.301675,-3.4496663,1.1154433000000001,1005.0505400000001,0,0
52.88,9.268208999999999,-3.3019025,1.0065515,1005.0601,0,0
52.92,9.091351,-3.4067667,1.2006614,1005.05536,0,0
52.96,9.038766,-3.2161042999999996,1.2385362,1005.0556,0,0
53.0,9.105678,-3.3066687999999997,1.3048173,1005.0856,0,0
53.04,9.191709,-3.2923690000000003,1.2764103,1005.0830699999999,0,0
53.08,9.402013,-3.2494695,1.0870335,1005.0855,0,0
53.12,9.206035,-3.1779710999999997,1.2764091,1005.0551,0,0
53.16,9.096093,-3.3019016000000003,1.058626,1005.0726300000001,0,0
53.2,9.091308999999999,-3.2685356,1.1059695,1005.038,0,0
53.24,9.019605,-3.1684377,1.2811419,1005.0702,0,0
53.28,9.062616,-3.2876015,1.4373766000000001,1005.0627,0,0
53.32,8.943114999999997,-3.4544308,1.3805633,1005.0525,0,0
53.36,8.8666315,-3.5497615,1.2337961000000002,1005.06744,0,0
53.4,8.938322,-3.3733988,1.1343731000000001,1005.0726300000001,0,0
53.44,9.058003999999999,-3.3209714999999997,1.2006718,1005.10065,0,0
53.48,9.153603,-3.3114383000000003,1.2622191999999999,1005.0673,0,0
53.52,9.268317999999999,-3.2637727,1.2432816999999998,1005.0627,0,0
53.56,9.25876,-3.3734035,1.1533281000000002,1005.05975,0,0
53.6,9.086689,-3.6689303,1.2906258999999998,1005.0621,0,0
53.64,9.115369,-3.416303,1.0870467,1005.0648,0,0
53.68,9.144048,-3.2161071,1.0586403999999998,1005.0622599999999,0,0
53.72,9.14405,-3.3257382000000004,1.2574854,1005.07526,0,0
53.76,9.110592,-3.3066720000000003,1.3805801000000002,1005.0701,0,0
53.8,9.21097,-3.3448045,1.4563306999999999,1005.0473599999999,0,0
53.84,9.230091,-3.3734038,1.4042523,1005.0978,0,0
53.88,9.335248,-3.2876057999999997,1.1959387,1005.07745,0,0
53.92,9.249211,-3.297139,1.1343915,1005.08026,0,0
53.96,9.2157545,-3.2733061,1.1580638,1005.10815,0,0
54.0,9.258775,-3.4592017999999998,1.1580638,1005.0950300000001,0,0
54.04,9.253995,-3.2161076,1.2196112,1005.0849599999999,0,0
54.08,9.191859,-3.0683444,1.134392,1005.0653,0,0
54.12,9.029347,-3.039745,1.1154544,1005.05475,0,0
54.16,8.928973,-3.225641,1.2385491000000002,1005.0649,0,0
54.2,9.038909,-3.3257387,1.2101427,1005.0797,0,0
54.24,9.383057,-3.2447072999999995,1.2764246000000001,1005.0545699999999,0,0
54.28,9.402177,-3.430603,1.2385495,1005.0621,0,0
54.32,9.287463,-3.6307983,1.0586423,1005.0694,0,0
54.36,9.368721,-3.4735022000000004,0.72723407,1005.05206,0,0
54.4,8.881088,-3.1970394,0.88819534,1005.07965,0,0
54.44,8.584738,-3.1875062,1.1154466,1005.05945,0,0
54.48,8.536938000000001,-3.1589067,1.300088,1005.0573,0,0
54.52,8.665989999999999,-3.3495692999999997,1.5794177,1005.0723,0,0
54.56,9.143969,-3.3543355000000004,1.5557455,1005.08215,0,0
54.6,9.26346,-3.368635,1.4657916000000002,1005.08466,0,0
54.64,9.488109,-3.1017080000000004,0.8645219000000001,1005.077,0,0
54.68,9.13918,-3.4401333,1.0302259,1005.087,0,0
54.72,8.890628999999997,-3.7451928,0.9450064,1005.0819,0,0
54.76,9.177415,-3.4163004999999997,0.76983327,1005.06195,0,0
54.8,9.483319,-2.9825435000000002,0.86925554,1005.0671,0,0
54.84,9.516775,-2.839547,1.0396938,1005.0819,0,0
54.88,9.253884,-3.0016097999999998,1.1107097,1005.0945,0,0
54.92,8.981432,-3.473499,1.3900392,1005.077,0,0
54.96,8.881053999999997,-3.5449972,1.4799927,1005.09467,0,0
55.0,9.053124,-3.3877008,1.1438496999999999,1005.09467,0,0
55.04,8.914507,-3.3352684999999997,0.91186374,1005.0897,0,0
55.08,8.852367,-3.3877006,1.1864588,1005.08734,0,0
55.12,9.029217,-3.2923693999999997,1.3190218999999999,1005.0897,0,0
55.16,9.311223,-3.311436,1.5226011000000002,1005.0694,0,0
55.2,9.459394999999999,-3.1589055,1.394772,1005.0743,0,0
55.24,9.330338000000001,-3.1017072,1.011285,1005.0692,0,0
55.28,9.134363,-3.3209686,0.88345593,1005.07214,0,0
55.32,9.215617,-3.2828362,1.016019,1005.0948,0,0
55.36,9.2347355,-3.0731075,1.0018155999999998,1005.067,0,0
55.4,9.076592,-3.1588955000000003,1.2669048,1005.1045,0,0
55.44,9.081351,-3.1636612,1.3852631000000002,1005.097,0,0
55.48,9.119571,-2.968232,1.3047764,1005.1122,0,0
55.52,9.215149,-3.1922598,1.4278693999999998,1005.1095,0,0
55.56,9.157777000000001,-3.1255279,1.3047736,1005.1095,0,0
55.6,9.305926,-3.1064608,1.1201296,1005.0793,0,0
55.64,9.282009,-3.1588926,1.0017676,1005.0818,0,0
55.68,9.253319,-3.1731922999999997,1.1627363000000002,1005.0818,0,0
55.72,9.205496,-3.1302924,1.1816716,1005.1019,0,0
55.76,9.152901,-3.235156,1.3473742,1005.09424,0,0
55.8,9.052505,-3.278055,1.3331692,1005.03394,0,0
55.84,8.985569,-3.1922562,1.2479482,1005.0743,0,0
55.88,9.167183999999999,-3.220855,1.3142284,1005.0818,0,0
55.92,9.229302,-3.13029,1.3710394,1005.0693,0,0
55.96,9.286642,-3.225621,1.3757722,1005.07886,0,0
56.0,9.191027,-3.187488,1.2716135,1005.0559,0,0
56.04,9.214906,-3.182721,1.1011732,1005.1015,0,0
56.08,9.305703,-3.05879,1.1248434999999999,1005.1064,0,0
56.12,9.262665,-3.2017862999999998,1.3426242,1005.0462,0,0
56.16,9.21007,-3.1731865000000004,1.3426226,1005.0765,0,0
56.2,9.076217999999999,-3.130287,1.3994339,1005.0993699999999,0,0
56.24,9.114436999999999,-3.1493528,1.3662913,1005.0864,0,0
56.28,9.210019,-2.9872894,1.1816481,1005.0459,0,0
56.32,9.147858,-3.1159859,1.4278351,1005.10144,0,0
56.36,9.109601,-3.101686,1.271598,1005.074,0,0
56.4,9.149197000000001,-3.2208831,1.3001287000000001,1005.0761,0,0
56.44,9.187469,-3.1732183,1.3569447000000001,1005.0888,0,0
56.48,9.321341499999999,-2.9777904,1.2101815,1005.09906,0,0
56.52,9.450435,-2.8490942,1.2054505,1005.05835,0,0
56.56,9.546066999999999,-2.6822654999999997,1.1912508,1005.0986300000001,0,0
56.6,9.326231,-2.6393673,1.2243948,1005.08105,0,0
56.64,9.044259,-2.963494,1.5179311000000002,1005.1064,0,0
56.68,9.1685705,-3.0588262000000004,1.4327153,1005.0938,0,0
56.72,9.273761,-3.0683602999999997,1.3522336000000001,1005.0936,0,0
56.76,9.077824,-3.273323,1.342768,1005.0759,0,0
56.8,9.025282,-3.29239,1.0965823000000001,1005.0888,0,0
56.84,9.27865,-2.9063,1.0539762,1005.0684,0,0
56.88,9.575033,-2.7728374,1.3049028999999999,1005.0864,0,0
56.92,9.742364,-2.6107752,0.9592947000000001,1005.0559,0,0
56.96,9.469949,-3.1684632,1.2102213,1005.08344,0,0
57.0,9.0637045,-3.2542622000000003,0.9450982,1005.0835,0,0
57.04,8.982483,-3.2447302000000002,1.0350549999999998,1005.11615,0,0
57.08,9.41748,-2.7299428,1.205497,1005.08075,0,0
57.12,9.37928,-2.8205082000000004,1.3948764999999999,1005.0861,0,0
57.16,9.183342,-2.9635055,1.1013466,1005.0914300000001,0,0
57.2,9.274196,-2.6822798,0.95931786,1005.0988,0,0
57.24,9.04958,-3.1732361,1.2717916999999999,1005.05615,0,0
57.28,9.283828,-3.0016408,0.8599021000000001,1005.096,0,0
57.32,9.102233,-2.9730425,1.3002049999999998,1005.0863,0,0
57.36,8.954092999999997,-3.1875383999999998,1.2670673000000001,1005.091,0,0
57.4,9.129543,-2.9587092,0.98760915,1005.091,0,0
57.44,9.492788000000001,-2.6298163,0.9828728999999999,1005.1012,0,0
57.48,9.793894,-2.5011189999999996,0.902386,1005.10596,0,0
57.52,9.540543,-2.6345818,0.9544625,1005.1235,0,0
57.56,9.296752,-2.839543,1.0065389999999999,1005.1010000000001,0,0
57.6,9.277614,-2.9587069,1.0491469,1005.0885,0,0
57.64,9.277589,-2.9396397999999997,1.1248951,1005.1212,0,0
57.68,9.244111,-2.953939,1.3000662,1005.08325,0,0
57.72,9.21063,-3.0588028,1.1343601,1005.0631,0,0
57.76,9.287086500000001,-3.0778682,0.9544507999999999,1005.0938,0,0
57.8,9.191469999999999,-3.0492685,0.86922985,1005.0836,0,0
57.84,9.095851,-3.2208639999999997,1.1438231,1005.1010000000001,0,0
57.88,9.13407,-3.2542294999999997,1.1722277,1005.07574,0,0
57.92,9.09103,-3.115999,1.2101008999999998,1005.07074,0,0
57.96,9.03843,-3.1350646,1.1674893,1005.0906,0,0
58.0,9.143564999999999,-3.3114269,1.2100971,1005.0906,0,0
58.04,9.205682000000001,-3.173196,1.1580167,1005.08057,0,0
58.08,9.205662,-3.2160945,1.0869988000000002,1005.0732,0,0
58.12,9.191299,-3.3447910000000003,1.1911536,1005.10596,0,0
58.16,9.114802000000001,-3.3257244,1.1911517,1005.09564,0,0
58.2,9.148239,-3.139828,1.2384938,1005.08777,0,0
58.24,9.038283,-3.3018900999999996,1.5888379,1005.0953400000001,1,2
58.28,8.971344,-3.506852,1.730868,1005.0780599999999,1,2
58.32,9.401506,-3.006363,1.5746307,1005.07776,1,2
58.36,9.105136,-2.6679367999999997,1.3852525,1005.07776,1,2
58.4,8.952411,-2.6536427000000002,1.0301931999999998,1005.08777,1,2
58.44,9.578553999999999,-2.4915795,1.9249946,1005.08777,1,2
58.48,10.309854,-2.0721223,1.8776495,1005.07025,1,2
58.52,10.5870695,-1.9481916000000001,1.7450851000000005,1005.1008,1,2
58.56,11.146296000000001,-1.1474096999999999,2.7582470000000003,1005.1028,1,2
58.6,10.730442,-0.97104675,2.2942742999999997,1005.07776,1,2
58.64,10.051699000000001,-1.3094721,2.1048970000000002,1005.0752,1,2
58.68,9.392075,-2.2437169999999997,2.1143648999999995,1005.05756,1,2
58.72,9.181751,-2.701306,2.1096293999999998,1005.0527,1,2
58.76,9.18174,-2.6917727000000005,2.1001594,1005.07745,1,2
58.8,9.243867,-2.6774726,1.7214060000000002,1005.0978,1,2
58.84,9.913028,-3.6689165,2.0007348,1005.07275,1,2
58.88,8.536433,-6.3238883,1.9297178,1005.0752,1,2
58.92,6.815693,-8.111347,0.06436131,1005.1008,1,2
58.96,6.385498,-9.369717999999999,-0.38067383,1005.0903,1,2
59.0,7.0785594,-9.28392,-1.1760547,1005.0928,1,2
59.04,8.541169,-9.498413000000001,-1.6494963,1005.0953,1,2
59.08,10.261887,-8.23051,-1.2139322,1005.0852699999999,1,2
59.12,11.566761999999999,-5.5231056,-0.3901467,1005.09784,1,2
59.16,11.624107,-4.0550056,0.9544231,1005.05475,1,2
59.2,11.031402,-3.344788,2.3368685,1005.0928,1,2
59.24,10.147126,-2.3867097000000004,2.6256664,1005.0577,1,2
59.28,9.248511,-1.8051896,1.6645808000000002,1005.0925,1,2
59.32,8.933033,-1.1950698999999998,1.8634247,1005.0652,1,2
59.36,8.856545,-0.8042121,2.0101902,1005.0924,1,2
59.4,9.344074,-0.12259419,1.7403282,1005.0752,1,2
59.44,10.234661000000001,0.18242754,2.469568,1005.0925,1,2
59.48,11.855066,-0.07020122,3.6579082,1005.0545,1,2
59.52,13.518488,-0.4610601,4.173963,1005.0724,1,2
59.56,14.493614,-0.54685926,3.3927902999999997,1005.07526,1,2
59.6,15.478304000000001,-1.8385973000000002,2.1713185,1005.0627,1,2
59.64,16.615945999999994,-4.927327,1.8493833999999998,1005.0503,1,2
59.68,18.265024,-7.6299663,2.564283,1005.0477,1,2
59.72,18.188597,-9.894083,3.9467335,1005.03754,1,2
59.76,15.033976999999998,-9.979880999999999,1.5274571000000001,1005.0652,1,2
59.8,12.777959,-8.383086,0.10240590599999999,1005.0772,1,2
59.84,10.450241,-7.8587666,0.8078365,1005.08746,1,2
59.88,7.611086,-6.738625999999999,0.78890336,1005.08026,1,2
59.92,5.942981,-5.628019999999999,0.61373466,1005.0953,1,2
59.96,4.437392,-5.322961,-0.030139867,1005.0924,1,2
60.0,2.7979689999999997,-5.3563285,-0.9202034,1005.05255,1,2
60.04,2.2196653,-6.133278400000001,-0.54618067,1005.0776,1,2
60.08,4.040817,-7.2629538,-0.053798307000000004,1005.0646,1,2
60.12,7.812132000000001,-9.631933,1.4044027000000001,1005.0696,1,2
60.16,12.176143,-10.427949,3.0188394,1005.0802,1,2
60.2,15.464694,-7.5394172999999975,4.429696,1005.0672599999999,1,2
60.24,17.543957000000002,-6.009353599999999,4.505451,1005.0798300000001,1,2
60.28,16.936968,-6.338248,4.666425,1005.08514,1,2
60.32,16.368221,-5.2276406,4.311349400000001,1005.067,1,2
60.36,14.6332,-2.7156662999999996,4.268744,1005.0946,1,2
60.4,12.343722999999999,-2.4725732999999996,3.9657466,1005.10004,1,2
60.44,10.511682,-2.8729305,3.0045366000000002,1005.0772,1,2
60.48,9.895081,-2.7299333,2.4790172999999998,1005.0721,1,2
60.52,9.775578999999999,-1.0378056999999998,1.948763,1005.067,1,2
60.56,10.162738000000001,0.12046794,2.3701248,1005.0622599999999,1,2
60.6,11.429378999999999,1.4932365,2.3653896,1005.06195,1,2
60.64,13.331735,1.8268956000000005,2.5689685,1005.0847,1,2
60.68,14.75133,0.9832151,3.1370966,1005.0698,1,2
60.72,14.254225,-1.5621260000000001,3.2838623999999994,1005.0947,1,2
60.76,13.408192999999999,-3.5450137,3.5821292000000002,1005.0894,1,2
60.8,12.509584,-4.984514,3.7336300000000002,1005.0622599999999,1,2
60.84,12.595613499999999,-6.247650599999999,4.6947136,1005.0672599999999,1,2
60.88,14.330677,-8.406901,9.930963499999999,1005.0696,1,2
60.92,14.149037,-9.379278,8.259719,1005.0672599999999,1,2
60.96,13.054458,-7.077031599999999,6.9861636,1005.057,1,2
61.0,12.265782000000002,-6.2142844,6.0913606,1005.0568,1,2
61.04,10.693221000000001,-6.0998874,5.883046599999999,1005.0771,1,2
61.08,9.283173,-6.3763475,5.972999,1005.1023,1,2
61.12,7.3760242,-6.223817299999999,5.5847774,1005.0518,1,2
61.16,5.7174263,-5.7995934,4.2544093,1005.07935,1,2
61.2,4.541588,-5.3563037000000016,2.4032564,1005.0771,1,2
61.24,4.034923,-5.632763400000001,1.6836262,1005.0442,1,2
61.28,3.8819625,-6.424012,1.9250802,1005.0771,1,2
61.32,4.379055999999999,-5.9425898,2.5452867,1005.0542,1,2
61.36,7.4429045,-5.956889599999999,1.5226548,1005.0545,1,2
61.4,12.452132,-7.396389,-1.5026306,1005.03174,1,2
61.44,14.588698999999998,-5.2943373,-4.0023966,1005.0568,1,2
61.48,15.214847,-6.1332517,-2.7619832000000004,1005.0894,1,2
61.52,14.464412,-5.394435,-1.5925858,1005.0690300000001,1,2
61.56,13.054363,-4.531688,-1.6020552,1005.0971699999999,1,2
61.6,12.117515,-4.1312966,-1.4363517,1005.0976,1,2
61.64,11.543933,-3.8500697999999995,-0.8114108,1005.1098,1,2
61.68,11.032487,-2.9682567000000004,0.06918788,1005.11456,1,2
61.72,12.356486,-1.4810907,0.67992556,1005.1171,1,2
61.76,13.647027,-0.20365344,1.1438966,1005.1123,1,2
61.8,14.0580845,0.03467463,2.407982,1005.0894,1,2
61.84,12.561999,-1.4095918,3.6862707,1005.0921,1,2
61.88,10.827187,-2.6012375,4.2307505999999995,1005.082,1,2
61.92,10.846306,-3.230423,5.0782094,1005.0945,1,2
61.96,10.483042,-3.8739078,6.0534973,1005.06635,1,2
62.0,10.631217999999999,-3.9692394999999996,7.7673516000000005,1005.08154,1,2
62.04,11.677996,-5.1227465,6.792064,1005.0945,1,2
62.08,11.663657,-6.7910414,7.3933334,1005.0819,1,2
62.12,12.629178,-8.197175,7.042987299999999,1005.1044300000001,1,2
62.16,11.606301,-8.416437,7.5306315,1005.0941,1,2
62.2,9.641803,-8.120911,6.455922,1005.0846,1,2
62.24,7.758560000000001,-7.1866655,4.5006127000000005,1005.0844,1,2
62.28,7.4191949999999975,-6.085591,3.1797137,1005.0743,1,2
62.32,7.658185499999999,-5.5374370000000015,1.8872212,1005.0869,1,2
62.36,8.231764,-4.893952,1.2575455,1005.05444,1,2
62.4,8.57113,-3.9883053,0.06447569,1005.0667,1,2
62.44,8.308243,-4.369631,-0.35688624,1005.07666,1,2
62.48,7.87328,-4.2933655,-0.40896459999999996,1005.06635,1,2
62.52,7.6103916,-4.426830000000002,-0.25746363,1005.0539,1,2
62.56,7.4383197,-4.7843212999999984,-1.1191252,1005.0489,1,2
62.6,7.69643,-4.9988165,-0.60307497,1005.0542,1,2
62.64,8.8579235,-4.7604885,-0.38529232,1005.11176,1,2
62.68,10.779406,-3.9787729,-1.0528433000000001,1005.0868,1,2
62.72,12.686548,-2.4630077,-1.7109253,1005.0995,0,0
62.76,13.957977,-1.0521068999999998,-0.7451068000000001,1005.0969,0,0
62.8,13.900619500000001,0.2586962,-0.087024495,1005.0818,0,0
62.84,12.495358999999999,-0.26562506,0.09288297599999999,1005.0864,0,0
62.88,10.62653,-1.5478306999999998,0.2633283,1005.0891,0,0
62.92,9.627554,-2.4677762999999997,1.1818031,1005.0843,0,0
62.96,9.79963,-3.1207947999999996,1.7594008,1005.0893,0,0
63.0,9.598883,-3.3877218,1.6079001,1005.06604,0,0
63.04,9.163924,-3.6165165999999997,1.3853836000000002,1005.0866,0,0
63.08,8.824562,-4.026441,1.0161003,1005.0917400000001,0,0
63.12,8.446961,-4.1074724,1.2007424,1005.0995,0,0
63.16,8.274892,-3.8548447999999995,0.92141294,1005.0821,0,0
63.2,8.322694,-3.6975483999999996,0.48584807,1005.0891,0,0
63.24,8.528229,-3.7118483,0.3864259,1005.0868,0,0
63.28,8.714644999999999,-3.9358760999999998,0.39116067,1005.0939300000001,0,0
63.32,8.805466000000003,-3.4735207999999997,0.40062982,1005.08154,0,0
63.36,8.929745,-3.4020226000000005,0.5615998999999999,1005.102,0,0
63.4,9.020565,-3.3781898,0.3154112,1005.092,0,0
63.44,9.159181,-3.3066912000000004,0.5473974,1005.0941,0,0
63.48,9.26912,-3.2542592999999997,0.8219931,1005.0946,0,0
63.52,9.250005,-3.1112627999999996,0.7699151,1005.0617699999999,0,0
63.56,9.379064,-3.034998,0.80779064,1005.092,0,0
63.6,9.5607,-2.992099,0.8693383,1005.0896,0,0
63.64,9.804474,-2.7108722000000003,0.6184151999999999,1005.10693,0,0
63.68,9.742341,-2.7728376,0.84093255,1005.10693,0,0
63.72,9.684986,-2.6965727999999998,0.94508976,1005.0944,0,0
63.76,9.517696,-2.8538692,1.0539813999999998,1005.0893,0,0
63.8,9.398206,-3.030232,0.9356216999999999,1005.0718,0,0
63.84,9.336072999999999,-3.2447274,1.0823884,1005.0894,0,0
63.88,9.288372,-3.4258585,1.0445223,1005.0666,0,0
63.92,9.207123,-3.4067924,0.92616284,1005.0944,0,0
63.96,9.321846,-3.1255658,0.7793971,1005.0844,0,0
64.0,9.321854,-3.3686604,0.76992893,1005.0966,0,0
64.04,9.135449000000001,-3.268563,0.51900613,1005.0743,0,0
64.08,9.068538,-3.4782915,0.6231637,1005.1095,0,0
64.12,8.891693,-3.626055000000002,0.5900234999999999,1005.0868,0,0
64.16,8.7913265,-3.6498883,0.6278994999999999,1005.0944,0,0
64.2,8.910828,-3.4306266000000005,0.6184314000000001,1005.0766,0,0
64.24,9.05901,-3.5593237999999996,0.76046425,1005.0896,0,0
64.28,9.240649000000001,-3.2351982999999995,0.37697813,1005.09686,0,0
64.32,9.341033,-3.249498,0.5190109,1005.0869,0,0
64.36,9.235885000000001,-3.0207036,0.5284804,1005.0841,0,0
64.4,9.450983,-3.201833,0.7652014,1005.0539,0,0
64.44,9.22156,-3.1160349999999997,0.5237473,1005.07935,0,0
64.48,9.374521000000001,-3.1160354999999997,0.7509995,1005.0819,0,0
64.52,9.235914,-3.1827672000000002,0.77467215,1005.0919,0,0
64.56,9.202463,-3.2447329,0.9829867,1005.0844,0,0
64.6,9.0542965,-3.3257644,0.99245626,1005.0744,0,0
64.64,9.082983,-3.3162312999999997,0.8220183000000001,1005.0893,0,0
64.68,9.001735,-3.3686637999999998,0.6279084,1005.06934,0,0
64.72,9.255072,-3.2780992999999996,0.5284866,1005.09424,0,0
64.76,9.350676,-3.316232,0.6373787,1005.0969,0,0
64.8,9.393701,-3.2638,0.67052007,1005.0894,0,0
64.84,9.259872999999999,-3.220901,0.63264555,1005.0642,0,0
64.88,9.116897999999999,-3.3925076,0.6516214,1005.0518,0,0
64.92,9.0978,-3.2638109,0.575873,1005.0869,0,0
64.96,9.131282,-3.3019437999999997,0.7889233,1005.0844,0,0
65.0,9.121746,-3.2685788,0.7321127,1005.0969,0,0
65.04,9.08831,-3.344844,0.817334,1005.0769,0,0
65.08,9.093117999999999,-3.3448447999999997,0.9451654,1005.0718,0,0
65.12,9.155277,-3.3782113,0.8836202,1005.06934,0,0
65.16,9.222217,-3.235215,0.67530847,1005.0896,0,0
65.2,9.179224000000001,-3.1923165,0.8930934000000001,1005.0871599999999,0,0
65.24,9.332201,-3.2542825,0.8220794,1005.0896,0,0
65.28,9.403921,-3.201851,0.7510654,1005.07935,0,0
65.32,9.418284,-3.2685835,0.7842084,1005.0718,0,0
65.36,9.346613,-3.2209184,0.6469130999999999,1005.0793,0,0
65.4,9.313177,-3.2209191,0.5664303,1005.0796,0,0
65.44,9.341878999999999,-3.106522,0.5616981,1005.0794,0,0
65.48,9.165050500000001,-3.3019513999999996,0.6469196,1005.0772,0,0
65.52,9.050359,-3.3734504999999997,0.76054734,1005.0718,0,0
65.56,9.102960000000001,-3.382984200000001,0.85523766,1005.0894,0,0
65.6,9.1029825,-3.3496192000000002,0.99253744,1005.0995,0,0
65.64,9.146027,-3.2447553,0.9783366,1005.0769,0,0
65.68,9.14127,-3.3305540000000002,0.7274151999999999,1005.05444,0,0
65.72,9.227328,-3.2733557,0.7747613,1005.072,0,0
65.76,9.227352999999999,-3.1923246,0.6611378000000001,1005.0798300000001,0,0
65.8,9.2656145,-3.249524,0.6753432,1005.0821,0,0
65.84,9.265638000000001,-3.1970925,0.58065736,1005.1076,0,0
65.88,9.241764,-3.1827936,0.6753475999999999,1005.0794,0,0
65.92,9.217889,-3.2209267999999995,0.67534983,1005.1153,0,0
65.96,9.179673,-3.3210247,0.8410561,1005.1098,0,0
66.0,9.284853,-3.2304606,0.7984486999999999,1005.0971699999999,0,0
66.04,9.227519000000001,-3.144663,0.7605755999999999,1005.0771,0,0
66.08,9.256221,-3.2352285,0.7889841,1005.1098,0,0
66.12,9.442657,-3.1780303,0.43390596,1005.1048,0,0
66.16,9.084194,-3.4163589999999995,0.66589385,1005.10205,0,0
66.2,9.108119,-3.4497254,0.7463811,1005.0794,0,0
66.24,9.189399,-3.1827986,0.66116387,1005.1025400000001,0,0
66.28,9.194202,-3.1256006000000003,0.8458079,1005.0777,0,0
66.32,9.35674,-3.0684025000000004,0.7842628,1005.1128,0,0
66.36,9.270733,-3.125602,1.002048,1005.0849599999999,0,0
66.4,9.26597,-3.0588706,0.90262717,1005.0896,0,0
66.44,9.231481,-3.1351101000000003,0.79364145,1005.0923,0,0
66.48,9.241035,-3.1684759999999996,0.9498764000000001,1005.0825,0,0
66.52,9.331849,-3.2113747999999998,0.8409848,1005.0923,0,0
66.56,9.231471,-3.111277,0.63267076,1005.0923,0,0
66.6,9.317504,-3.1875422,0.78890586,1005.1003,0,0
66.64,9.31272,-3.054078,0.642139,1005.067,0,0
66.68,9.188441000000001,-3.2685732999999995,0.8173116,1005.0847,0,0
66.72,9.236237,-3.1684756000000003,0.7178889,1005.09515,0,0
66.76,9.245794,-2.9682798,0.75102943,1005.1076,0,0
66.8,9.188433,-3.149409,0.9309366,1005.0825,0,0
66.84,9.18365,-3.2971722999999997,0.79837286,1005.0849599999999,0,0
66.88,9.197987,-3.1208096000000003,0.79363817,1005.11035,0,0
66.92,9.241,-3.1112764,0.83624756,1005.0746,0,0
66.96,9.322254,-3.1303427000000004,0.7226215,1005.1,0,0
67.0,9.1215,-3.2304401,0.7652309,1005.0976,0,0
67.04,9.26489,-3.254273,0.85518426,1005.0923,0,0
67.08,9.303125,-3.0779102000000003,0.6752766,1005.1151,0,0
67.12,9.236203999999999,-3.2113736,0.8930589,1005.1228,0,0
67.16,9.240981,-3.101743,0.74629205,1005.08746,0,0
67.2,9.279217,-3.1065092,0.74629176,1005.1304,0,0
67.24,9.3174515,-3.1446416,0.9546051999999999,1005.1153,0,0
67.28,9.379586,-3.0636103,0.7320879,1005.1025400000001,0,0
67.32,9.20273,-3.2066066,0.84571344,1005.1073,0,0
67.36,9.226625,-3.1494079,0.7699626,1005.1051,0,0
67.4,9.269641,-3.0779097,0.67053986,1005.1053,0,0
67.44,9.254388,-3.3066818999999996,0.8550979999999999,1005.1329,0,0
67.48,9.263910000000001,-3.2018166,0.883501,1005.08765,0,0
67.52,9.211304,-3.0540526000000003,0.7651382,1005.08276,0,0
67.56,9.192144,-3.13985,0.84088504,1005.1078,0,0
67.6,9.25902,-3.1732147,0.7698651999999999,1005.095,0,0
67.64,9.368916,-3.0969488999999997,0.6420326999999999,1005.11035,0,0
67.68,9.2350445,-3.0778816000000004,0.6893734,1005.0772,0,0
67.72,9.182431,-3.268543,0.89294934,1005.0844,0,0
67.76,9.215849,-3.1684444,0.7887888000000001,1005.1003,0,0
67.8,9.16323,-3.2065759,0.7935194000000001,1005.09,0,0
67.84,9.273131,-3.2876062000000004,0.85979795,1005.0772,0,0
67.88,9.249189,-3.154142,0.7745748,1005.0849599999999,0,0
67.92,9.129655999999999,-3.0731094,0.72249275,1005.105,0,0
67.96,9.17264,-3.1684396,0.7603649,1005.09784,0,0
68.0,9.206057000000001,-3.1446056000000002,0.79350185,1005.0776,0,0
68.04,9.158224,-3.1255387999999997,0.78402996,1005.1025,0,0
68.08,9.2824545,-3.2494680000000002,0.8597764000000001,1005.1003,0,0
68.12,9.311096000000001,-3.1017041,0.7650849000000001,1005.0825,0,0
68.16,9.354066,-3.1112359,0.75087714,1005.08234,0,0
68.2,9.268002000000001,-3.068336,0.6230458000000001,1005.0698,0,0
68.24,9.287083,-3.1493669,0.63724536,1005.067,0,0
68.28,9.253574,-3.2399302000000003,0.70825696,1005.08734,0,0
68.32,9.258318,-3.2875947999999995,0.75086325,1005.08765,0,0
68.36,9.177021,-3.1779627999999995,0.66090596,1005.1201,0,0
68.4,9.234352000000001,-3.211328,0.77926356,1005.12036,0,0
68.44,9.188199000000001,-3.206602,0.75574225,1005.0925,0,0
68.48,9.236025,-3.2399685000000003,0.7841511999999999,1005.0726,0,0
68.52,9.240834,-3.2590356,0.81256026,1005.0925,0,0
68.56,9.236077,-3.1303391,0.7557496,1005.0698,0,0
68.6,9.231327,-3.149406,0.7036737,1005.09,0,0
68.64,9.15488,-3.2399714,0.7036764,1005.08234,0,0
68.68,9.207476,-3.3162364999999996,0.7320846,1005.0672599999999,0,0
68.72,9.197952,-3.2542725,0.7983694,1005.0721,0,0
68.76,9.231432,-3.1255758,0.7226209,1005.1003,0,0
68.8,9.221897,-3.1065102,0.6421384,1005.08765,0,0
68.84,9.202805499999998,-3.0826783,0.72736025,1005.1053,0,0
68.88,9.2219515,-3.2161424,0.8267851,1005.0600599999999,0,0
68.92,9.212421,-3.2542756,0.81258464,1005.11035,0,0
68.96,9.2028885,-3.1446455,0.7557742,1005.1103,0,0
69.0,9.1933565,-3.1351127999999995,0.7557767,1005.0824,0,0
69.04,9.255529,-3.163713,0.7652486999999999,1005.0998,0,0
69.08,9.188639,-3.173247,0.83626735,1005.095,0,0
69.12,9.188664,-3.1970804,0.86941063,1005.09,0,0
69.16,9.231707,-3.1970810000000003,0.7084429,1005.1103,0,0
69.2,9.20784,-3.2304475,0.9404318000000002,1005.0898,0,0
69.24,9.408619999999999,-3.125584,0.85994947,1005.0852699999999,0,0
69.28,9.298707,-2.9253892999999995,0.6800440999999999,1005.10205,0,0
69.32,9.375209,-3.0683863,0.76053125,1005.0903,0,0
69.36,9.317884,-2.7299616,0.73212785,1005.0975,0,0
69.4,9.188857,-3.0779212000000005,1.125086,1005.1025400000001,0,0
69.44,9.024999000000001,-3.2256513,0.85036737,1005.1028,0,0
69.48,9.240061,-3.3543475,1.1912416000000001,1005.0976,0,0
69.52,9.125321000000001,-3.421079,0.8882377,1005.0924,0,0
69.56,9.263908,-3.359113,0.7604064,1005.0928,0,0
69.6,9.4216175,-3.1207848,0.7982793,1005.10004,0,0
69.64,9.593663000000001,-2.8061912,0.56155664,1005.1076,0,0
69.68,9.402443,-2.9873197,0.83141506,1005.1003,0,0
69.72,9.29248,-2.977786,0.8740223,1005.0925,0,0
69.76,9.215978999999999,-3.1112490000000004,0.9497705,1005.1101,0,0
69.8,9.220735000000001,-3.058816,0.9971123,1005.09515,0,0
69.84,9.306742,-2.9825504,1.0775945,1005.0746,0,0
69.88,9.120303999999999,-3.0969472000000002,1.0965296999999998,1005.08734,0,0
69.92,9.039026,-2.9873161,0.93555814,1005.1003,0,0
69.96,9.182391,-2.9205832000000003,1.0444466000000001,1005.0847,0,0
70.0,9.49783,-2.8776836,1.0255064,1005.0953,0,0
70.04,9.435667,-2.9253487999999996,0.9308162,1005.10785,0,0
70.08,9.306583999999999,-2.8300169,0.88346946,1005.0771,0,0
70.12,9.244424,-2.9062815,0.7319664,1005.1053,0,0
70.16,9.339991,-2.8776813,0.8550583,1005.11,0,0
70.2,9.253932,-2.958712,1.1154485,1005.0947,0,0
70.24,9.330378999999999,-2.9062792999999996,0.93553835,1005.0871599999999,0,0
70.28,9.406835000000001,-2.7632818,0.80297303,1005.0646,0,0
70.32,9.206056,-3.0826406000000004,1.1059723999999995,1005.0596,0,0
70.36,9.100871000000001,-3.135072,0.85031205,1005.1051,0,0
70.4,9.148643,-3.0492733,0.82663757,1005.0925,0,0
70.44,9.397965,-3.0588255,0.90719324,1005.08734,0,0
70.48,9.4935665,-2.796665,0.8219744000000001,1005.1,0,0
70.52,9.541369,-2.7918985,0.8409125,1005.0824,0,0
70.56,9.374083,-2.9015296000000004,0.9876795,1005.0751300000001,0,0
70.6,9.216353,-3.001627,0.99714875,1005.10785,0,0
70.64,9.163780000000001,-3.2876208,1.0586964,1005.0777,0,0
70.68,9.225924000000001,-3.0874252,0.9213993,1005.0721,0,0
70.72,9.546175,-2.9444287,1.1155103000000002,1005.0825,0,0
70.76,9.235493,-2.9968612,1.0444946,1005.0846,0,0
70.8,9.273736,-2.8967636000000003,0.7036180000000001,1005.0973,0,0
70.84,9.221163,-2.958729,0.85511935,1005.0925,0,0
70.88,9.321544,-3.0302274,0.8551198,1005.1201,0,0
70.92,9.2689705,-2.9920952,0.8977299000000001,1005.1,0,0
70.96,9.1686,-3.0778933,1.0539658,1005.0847,0,0
71.0,9.168605,-3.2161232999999996,0.9450748,1005.1,0,0
71.04,9.087353,-3.1160259999999997,0.9308721,1005.1025400000001,0,0
71.08,9.326347,-2.9825625,0.94034135,1005.1076,0,0
71.12,9.268995,-3.1541586,1.200734,1005.0694,0,0
71.16,9.316799000000001,-2.977796,0.9214046999999999,1005.0847,0,0
71.2,9.350263,-2.94443,0.803045,1005.0925,0,0
71.24,9.651396,-2.9396641,0.902468,1005.0969,0,0
71.28,9.622722,-2.8729324,0.7746395,1005.1103,0,0
71.32,9.28814,-3.2828559999999998,1.1439235,1005.0921,0,0
71.36,9.273806,-3.1493927999999998,0.6846867,1005.072,0,0
71.4,9.04916,-3.3162222000000003,0.6894216,1005.0794,0,0
71.44,8.782263,-3.4401717000000005,0.6942267,1005.0947,0,0
71.48,8.791858,-3.5498035000000003,0.84099644,1005.0896,0,0
71.52,8.973524000000003,-3.3925080000000003,0.9877661,1005.0998,0,0
71.56,9.1790905,-3.0111845,0.5380008000000001,1005.0998,0,0
71.6,9.217364,-3.120816,1.2671024,1005.0746,0,0
71.64,9.379913,-2.7251925,1.3097153,1005.0921,0,0
71.68,9.5568,-2.558364,0.9688412000000001,1005.1,0,0
71.72,9.480358,-2.6298633,0.9404379999999999,1005.0971699999999,0,0
71.76,9.231845,-2.7061287999999997,0.9877853999999999,1005.08734,0,0
71.8,9.423072,-2.5774326000000003,1.0777421999999999,1005.1128,0,0
71.84,9.513922,-2.5774336,1.1582302,1005.06934,0,0
71.88,9.384901,-2.7156646,1.3712816,1005.0669,0,0
71.92,9.303681,-3.1970878,1.3144719999999999,1005.1073,0,0
71.96,9.303714999999999,-3.2161546000000003,0.8599723,1005.1122,0,0
72.0,9.131677,-3.278121,1.1298363999999999,1005.0998,0,0
72.04,9.14127,-3.1589575,0.6848055999999999,1005.11456,0,0
72.08,9.256021,-3.1637251,0.70374644,1005.0769,0,0
72.12,9.552403,-3.2638237,0.83157855,1005.09686,0,0
72.16,9.361245,-3.3353229,0.86472255,1005.0921,0,0
72.2,9.246566,-3.054097,0.703756,1005.0946,0,0
72.24,9.174905,-3.211394,0.7795099,1005.0593,0,0
72.28,9.213175,-3.0636318,0.5948709,1005.0997,0,0
72.32,9.318369,-2.8968031,0.6706249,1005.0894,0,0
72.36,9.189349,-3.1780307,0.91681725,1005.0898,0,0
72.4,9.265861,-3.1923312999999998,0.98783654,1005.0944,0,0
72.44,9.278317,-3.111254,0.8314288000000001,1005.0919,0,0
72.48,9.053628999999999,-3.2876152999999997,0.8077533,1005.112,0,0
72.52,9.096607,-3.2876142999999995,0.79828084,1005.0998,0,0
72.56,9.163484,-3.2161152000000004,0.8456210999999999,1005.12994,0,0
72.6,9.206464,-3.0302186,0.8030079999999999,1005.0694,0,0
72.64,9.297239999999999,-3.0111513,0.869286,1005.0744,0,0
72.68,9.354556,-3.1398473,0.76512533,1005.0869,0,0
72.72,9.30672,-3.1350799,0.77932507,1005.092,0,0
72.76,9.378375,-2.9396497999999998,0.6704298000000001,1005.0843,0,0
72.8,9.273184,-3.0778792,0.6420201,1005.1076,0,0
72.84,9.177547,-3.1303103,0.81245506,1005.0995,0,0
72.88,9.225305,-3.1064765,0.7603728,1005.1095,0,0
72.92,9.273064999999999,-3.1827407,0.8739950999999999,1005.0796,0,0
72.96,9.268244000000001,-3.1255407,0.89292896,1005.0995,0,0
73.0,9.186944,-3.0540414,0.65620476,1005.1048,0,0
73.04,9.225144,-3.0588071,0.7224829,1005.0969,0,0
73.08,9.277681,-3.1303042999999997,0.76035446,1005.0818,0,0
73.12,9.368457000000001,-3.1017041,0.68460023,1005.0693,0,0
73.16,9.215463,-3.1732017999999997,0.6987998000000001,1005.117,0,0
73.2,9.215422,-3.1303015,0.651452,1005.0818,0,0
73.24,9.186705,-3.3161959999999997,0.7082614,1005.0868,0,0
73.28,9.248804,-3.1874986,0.7698052,1005.0919,0,0
73.32,9.30134,-3.1112322999999997,0.6609099,1005.0944,0,0
73.36,9.258284,-3.1207645,0.66564083,1005.1069,0,0
73.4,9.325159,-3.1016974,0.5898866,1005.0944,0,0
73.44,9.278917,-3.211366,0.71312356,1005.0667,0,0
73.48,9.341077,-3.144635,0.7604696999999999,1005.05927,0,0
73.52,9.192926,-3.2352002,0.7131276999999999,1005.0944,0,0
73.56,9.169049000000001,-3.2018347,0.7462705,1005.1045,0,0
73.6,9.250328,-3.2447345000000003,0.7083973000000001,1005.10425,0,0
73.64,9.279028,-3.1017382000000002,0.70366496,1005.107,0,0
73.68,9.312510000000001,-3.0969722,0.6184476999999999,1005.0868,0,0
73.72,9.202597,-3.2161367000000003,0.76521635,1005.07666,0,0
73.76,9.236078,-3.08744,0.6752648,1005.0843,0,0
73.8,9.312577000000001,-3.0779077999999997,0.63265705,1005.1098,0,0
73.84,9.432094000000001,-2.99211,0.89305127,1005.0869,0,0
73.88,9.417779,-2.8300476000000003,0.6705365,1005.0995,0,0
73.92,9.393901,-2.8920135,0.80783623,1005.0743,0,0
73.96,9.145373,-2.7061182999999995,0.47642994,1005.0793,0,0
74.0,9.250552,-3.0874433999999997,0.22077419,1005.0945,0,0
74.04,9.121521000000001,-3.0111792,1.0208906,1005.0888699999999,0,0
74.08,9.370092,-2.7728515,0.17343429,1005.0818,0,0
74.12,9.527849,-3.001647,0.67528325,1005.0944,0,0
74.16,9.169386,-2.9825814,1.1250536,1005.0917400000001,0,0
74.2,9.288902,-2.8443515,0.46223897,1005.0841,0,0
74.24,9.422761,-2.8109865000000003,0.6421486,1005.0969,0,0
74.28,9.164672999999999,-2.7919207000000004,1.2197479,1005.0916,0,0
74.32,9.418025,-2.6822906000000004,1.1913434999999999,1005.0893,0,0
74.36,9.097800999999999,-2.768089,1.1203296,1005.0969,0,0
74.4,9.260338,-2.7823894,1.2623638000000001,1005.07935,0,0
74.44,9.364718,-2.79667,1.5889666999999998,1005.0894,0,0
74.48,9.498544,-2.3343136,0.99243104,1005.1122,0,0
74.52,9.426839,-2.5106761000000004,1.1723375,1005.0868,0,0
74.56,9.5033045,-2.606007,1.5037451000000002,1005.0864,0,0
74.6,9.460278500000001,-2.5869405,1.1202575000000001,1005.07666,0,0
74.64,9.422032000000002,-2.6298394,1.0965848,1005.0893,0,0
74.68,9.278628,-2.7108705,1.3664450000000001,1005.0914300000001,0,0
74.72,9.355097,-2.5583405,1.214943,1005.0715,0,0
74.76,9.369428,-2.6250722,1.1202543,1005.0815,0,0
74.8,9.59885,-2.6250717999999997,1.5605533,1005.07153,0,0
74.84,9.441108,-2.5583400000000003,1.3569729,1005.10925,0,0
74.88,9.292924000000001,-2.6870368,1.181799,1005.0743,0,0
74.92,9.307255,-2.6775036,1.3380337,1005.0966,0,0
74.96,9.398063,-2.6918032000000003,1.4421898000000002,1005.0966,0,0
75.0,9.3359165,-2.5535723999999997,1.3948448999999998,1005.1089999999999,0,0
75.04,9.312009,-2.6441369999999997,1.4043128,1005.06885,0,0
75.08,9.369357,-2.6060042,1.4043121,1005.1016,0,0
75.12,9.307211,-2.7299347000000003,1.3617017,1005.0941,0,0
75.16,9.187708,-2.8347982999999997,1.3948418,1005.0893,0,0
75.2,9.192478,-2.8252652,1.3995753999999998,1005.06116,0,0
75.24,9.407561,-2.586937,1.4137777,1005.0914300000001,0,0
75.28,9.235479,-2.7823658,1.2812136,1005.07385,0,0
75.32,9.240250999999999,-2.8061984,1.5510739,1005.10144,0,0
75.36,9.292819,-2.7156336,1.4469162,1005.07153,0,0
75.4,9.440986,-2.5869362000000002,1.3238211000000002,1005.0864,0,0
75.44,9.451014,-2.6107807000000003,1.4469584,1005.08105,0,0
75.48,9.398446,-2.5154498,1.4232873,1005.0891,0,0
75.52,9.336319999999999,-2.4010525,1.5511172,1005.11426,0,0
75.56,9.259851,-2.5488162,1.4943051,1005.10645,0,0
75.6,9.317219999999999,-2.4582517000000004,1.4895717,1005.0869,0,0
75.64,9.264650999999999,-2.7442455000000003,1.7120895,1005.0888699999999,0,0
75.68,9.302899,-2.6441479,1.5416518,1005.0815,0,0
75.72,9.250332,-2.615549,1.4422305,1005.0919,0,0
75.76,9.29814,-2.6775142999999995,1.3380743,1005.0761,0,0
75.8,9.417645,-2.58695,1.0776831,1005.0812400000001,0,0
75.84,9.408095,-2.5631174999999997,1.1392312,1005.0914300000001,0,0
75.88,9.336409,-2.6822817000000003,1.2244514,1005.0966,0,0
75.92,9.116548,-2.4868531000000003,1.0445449,1005.0587,0,0
75.96,9.130897500000001,-2.8538783,1.1155620000000002,1005.0986300000001,0,0
76.0,9.159583999999999,-3.0016418,1.3238766000000002,1005.1016,0,0
76.04,9.484622,-3.0540738,1.598473,1005.06854,0,0
76.08,9.350799,-2.7919137000000003,1.5369267,1005.0862400000001,0,0
76.12,9.06402,-2.67275,1.3333482,1005.09686,0,0
76.16,8.997112,-2.68705,1.3002083,1005.0917400000001,0,0
76.2,9.111836,-2.753782,1.4185693000000001,1005.07635,0,0
76.24,9.317378999999999,-2.5917192000000004,1.3901639,1005.0939300000001,0,0
76.28,9.231353,-2.4868552999999998,1.3333518999999998,1005.07385,0,0
76.32,9.130985,-2.5249877,1.489588,1005.07855,0,0
76.36,9.159675,-2.4963889999999997,1.4564481000000002,1005.0864,0,0
76.4,9.0449705,-2.60602,1.5369339,1005.09924,0,0
76.44,9.006233,-2.6155407000000004,1.4422003,1005.08154,0,0
76.48,8.996663,-2.6346068,1.4469337,1005.1069,0,0
76.52,8.991873,-2.6441397999999996,1.309635,1005.10175,0,0
76.56,8.905827,-2.7680700000000003,1.5084791000000002,1005.0791,0,0
76.6,8.886697999999997,-2.7823691000000004,1.2622892,1005.08154,0,0
76.64,8.901027000000003,-2.7633026000000003,1.0776465,1005.074,0,0
76.68,8.791081,-2.6822712,1.1723336000000002,1005.0916,0,0
76.72,8.872327,-2.6536715,1.2764895,1005.074,0,0
76.76,8.944016,-2.6536713,1.2480824,1005.07135,0,0
76.8,9.030042,-2.5440402,1.2007374,1005.1045,0,0
76.84,8.872297,-2.6060054,1.1723299999999999,1005.07666,0,0
76.88,8.738453,-2.6441374,1.1675947,1005.0864,0,0
76.92,8.8197,-2.4820743,1.0776398999999999,1005.0894,0,0
76.96,8.724094000000001,-2.6775029999999997,1.3048906,1005.0916,0,0
77.0,8.848359,-2.4868402,1.2338736000000001,1005.06146,0,0
77.04,8.738414,-2.510673,1.41378,1005.0997,0,0
77.08,8.700166000000001,-2.5726378,1.3238254999999999,1005.0995,0,0
77.12,8.700155,-2.6060035,1.3711685,1005.0893,0,0
77.16,8.614108,-2.5297384,1.2386043,1005.1195,0,0
77.2,8.709695,-2.7108672,1.2812132,1005.0818,0,0
77.24,8.709685,-2.6965673,1.2338681999999999,1005.0919,0,0
77.28,8.829169,-2.6727342999999997,1.1723199,1005.07935,0,0
77.32,8.81482,-2.5392706,1.1155062,1005.0969,0,0
77.36,8.666637,-2.5964687,1.1865213,1005.1095,0,0
77.4,8.747883999999999,-2.5011375,1.2007236000000001,1005.1073,0,0
77.44,8.7530985,-2.558347,1.323858,1005.0898,0,0
77.48,8.791345,-2.5392807,1.3806716,1005.10205,0,0
77.52,8.820030000000003,-2.5345144,1.2812496000000002,1005.1276,0,0
77.56,8.652745,-2.6012466,1.2102343,1005.16296,0,0
77.6,8.743568,-2.5488145,1.2717823,1005.1178,0,0
77.64,8.820053,-2.5249817,1.2007669,1005.1251,0,0
77.68,8.686227,-2.5678810000000003,1.2339083999999998,1005.11786,0,0
77.72,8.710133,-2.6203133999999997,1.1912994,1005.1404,0,0
77.76,8.762718,-2.7728436000000003,1.2386441000000001,1005.1101,0,0
77.8,8.786624,-2.6870458,1.2149727,1005.1126,0,0
77.84,8.910907,-2.467784,1.2812552,1005.1379400000001,0,0
77.88,8.800979,-2.524983,1.2433807,1005.1329,0,0
77.92,8.882242999999997,-2.6727467000000003,1.3286008,1005.1454,0,0
77.96,8.944388,-2.6775131,1.3617421,1005.1228,0,0
78.0,8.996972999999997,-2.6536806,1.3475395000000001,1005.1379,0,0
78.04,8.925283,-2.6012487,1.2907274,1005.1228,0,0
78.08,8.96353,-2.6918135,1.3191346000000002,1005.15295,0,0
78.12,9.044792999999999,-2.7299461,1.3617448,1005.1509,0,0
78.16,9.121279,-2.6536815,1.3049327,1005.1711,0,0
78.2,9.078267,-2.7966783,1.3712151000000001,1005.1429400000001,0,0
78.24,9.068715,-2.6632147,1.3806846000000002,1005.1578400000001,1,3
78.28,9.059163,-2.6393821,1.3759508,1005.16296,1,3
78.32,9.078289999999999,-2.7728457000000004,1.4611708,1005.1558,1,3
78.36,9.130875,-2.5535846,1.4374995000000002,1005.16077,1,3
78.4,9.302957000000001,-2.7490134,1.3901561000000002,1005.1632699999999,1,3
78.44,9.321860000000001,-2.644144,1.2244322,1005.18365,1,3
78.48,9.259721,-2.9349039,1.3238546999999998,1005.21375,1,3
78.52,9.2692795,-2.7585416,1.2291664,1005.1986699999999,1,3
78.56,9.3218565,-2.6822765,1.3143857,1005.17365,1,3
78.6,9.312294999999999,-2.6250775,1.3569951,1005.2113,1,3
78.64,9.374432,-2.6775095,1.4374799999999999,1005.20654,1,3
78.68,9.36009,-2.7299417999999998,1.4469486,1005.22925,1,3
78.72,9.369649,-2.6107779,1.4848237,1005.2142,1,3
78.76,9.360088000000001,-2.6727432999999996,1.5132299999999999,1005.20154,1,3
78.8,9.269271,-2.7251754,1.4422138,1005.2217,1,3
78.84,9.25493,-2.7728407,1.2907127,1005.2370599999999,1,3
78.88,9.317066,-2.834806,1.4516824,1005.2219,1,3
78.92,9.374423,-2.66321,1.4374791,1005.2367,1,3
78.96,9.331403,-2.672743,1.3901348999999998,1005.24695,1,3
79.0,9.312283,-2.8300395000000003,1.4327444,1005.2798,1,3
79.04,9.321841000000001,-2.7156422000000005,1.371197,1005.2545,1,3
79.08,9.245363000000001,-2.701342,1.4611506,1005.27496,1,3
79.12,9.2836,-2.6632097000000003,1.3522591999999998,1005.25726,1,3
79.16,9.307497999999999,-2.653676700000001,1.3475246,1005.26984,1,3
79.2,9.293158,-2.6679764,1.3996031,1005.2825300000001,1,3
79.24,9.41265,-2.691809,1.4848222,1005.2725,1,3
79.28,9.431769000000001,-2.6679761,1.5132285,1005.26984,1,3
79.32,9.364851,-2.625077,1.4043371999999998,1005.2952,1,3
79.36,9.321832,-2.6584432000000002,1.4611498,1005.30023,1,3
79.4,9.3552885,-2.725175,1.4516809,1005.3052,1,3
79.44,9.3510475,-2.6489232000000005,1.4422615,1005.2777,1,3
79.48,9.384527,-2.5392928,1.3570441999999998,1005.3132300000001,1,3
79.52,9.374986,-2.6632237,1.4517338,1005.31573,1,3
79.56,9.331988,-2.6203252999999997,1.4138603,1005.3256,1,3
79.6,9.346349,-2.7490227000000003,1.4848784,1005.30566,1,3
79.64,9.403724,-2.6775248,1.4706768999999995,1005.3182,1,3
79.68,9.379847,-2.5726612,1.3523188,1005.3432,1,3
79.72,9.341628,-2.524996,1.3381174,1005.33606,1,3
79.76,9.389445,-2.629861,1.3949319,1005.33057,1,3
79.8,9.461163,-2.6393942999999997,1.5748413,1005.3386,1,3
79.84,9.327347999999999,-2.5917293999999997,1.3665292,1005.36115,1,3
79.88,9.164854,-2.601263,1.4091406000000002,1005.3561,1,3
79.92,9.246132000000001,-2.625096,1.4896274,1005.35114,1,3
79.96,9.394325,-2.6822956000000002,1.5653796999999998,1005.38635,1,3
80.0,9.418242999999999,-2.6584630000000002,1.5511783000000001,1005.38684,1,3
80.04,9.375247,-2.5107005,1.3854761,1005.3664,1,3
80.08,9.27967,-2.5345334999999998,1.3286649,1005.37885,1,3
80.12,9.27491,-2.6155654999999998,1.3996829,1005.38135,1,3
80.16,9.370525,-2.7442632000000002,1.4943728,1005.3943,1,3
80.2,9.427905,-2.6108,1.4896402,1005.3943,1,3
80.24,9.494841000000001,-2.5917342,1.4565011,1005.38684,1,3
80.28,9.341907,-2.5631353999999997,1.4612374,1005.3989,1,3
