Timestamp,Ax,Ay,Az,P,LPFRMSAcc,LPFPValue,Value,Type
0.0,8.734971,-2.8539937,4.002025,999.49976,0.020832484125710416,3.5981991359999994,0,0
0.02,8.734973,-2.9683912,3.7795086,999.50714,0.059886792833294226,10.362840079679998,0,0
0.04,8.715854,-2.9922237000000003,3.8031805,999.51764,0.11490005001693095,19.901034097228795,0,0
0.06,8.625041,-3.0303564,3.746368,999.4991,0.18363082023781624,31.855535368384892,0,0
0.08,8.610702,-3.0112903,3.8268528,999.5298,0.2642609396891814,45.90216004425223,0,0
0.1,8.562905,-2.9779243,4.011494600000002,999.4876,0.3551598237374283,61.7466651916893,0,0
0.12,8.605925,-2.9064262000000003,3.9830885,999.5073,0.454814467031924,79.12280822527461,0,0
0.14,8.629826,-2.8968928,4.020964,999.5048,0.5619159579501262,97.7897433801396,0,0
0.16,8.586807,-2.911193,4.006761,999.48987,0.6751311830073992,117.5299677388098,0,0
0.18,8.586807,-2.911193,4.006761,999.5171,0.7933409287397488,138.14758365827106,0,0
0.2,8.639388,-2.853994,3.8978696,999.50226,0.9155084048087404,159.46618591953725,0,0
0.22,8.644169999999999,-2.8635273,3.9546826,999.5097,1.040794276637657,181.3274595282817,0,0
0.24,8.668069000000001,-2.768196,3.9404793,999.5059,1.1683598911157411,203.58952327466653,0,0
0.26,8.672851,-2.7634296000000003,3.9357452,999.5199,1.2974826696205806,226.1256321571833,0,0
0.28,8.625053999999999,-2.8396945,3.9925582,999.485,1.427521856324304,248.8226316900093,0,0
0.3,8.639393,-2.8921268,4.063574299999999,999.5171,1.558019668036963,271.5802005631304,0,0
0.32,8.529459,-2.9064267000000004,4.0399027,999.49854,1.6882439051835454,294.3092944413928,0,0
0.34,8.663296,-2.7729628,4.120387,999.5127,1.8179878132480136,316.9314540522365,0,0
0.36,8.663296,-2.7729628,4.120387,999.51764,1.9468402244664933,339.37770455378984,0,0
0.38,8.725435000000001,-2.911193,4.054106,999.5002,2.074578417589686,361.58765248056886,0,0
0.4,8.524685,-2.9493252999999995,3.9310117,999.5048,2.2004310390679516,383.5088641997407,0,0
0.42,8.644181,-3.0017576,3.9878244,999.5207,2.3244595231439598,405.0960894836818,0,0
0.44,8.701097,-2.677621,4.144019,999.5076,2.446473012631269,426.31044318243096,0,0
0.46,8.696307000000001,-2.5298576,4.044596,999.5101,2.566092887600305,447.1189648751889,0,0
0.48,8.653255999999999,-3.0637112,4.039859,999.5298,2.6833964556619883,467.4940536493592,0,0
0.5,8.653255999999999,-3.0637112,4.039859,999.5224,2.7982310420953107,487.4127841370784,0,0
0.52,8.839653,-3.2686727,4.1771544999999985,999.4943,2.9110517849882633,506.8564678531335,0,0
0.54,8.758379,-3.0255775000000003,3.9499018,999.4968,3.021196715142024,525.8104119803686,0,0
0.56,8.476346000000001,-2.5918205000000003,3.4575217000000005,999.5145,3.1274194075372685,544.2634517280642,0,0
0.58,8.399861,-2.5727541,3.6042876000000006,999.5096,3.2297554337856047,562.2074437829069,0,0
0.6,8.25645,-2.6251857000000003,3.9877727,999.4702,3.328375638611736,579.6369010849475,0,0
0.62,8.591012,-2.7824817000000004,3.8741448,999.4904,3.42395793508395,596.5490421531248,0,0
0.64,8.791747,-3.0732412,4.224489,999.5027,3.5173440554699904,612.9432431692148,0,0
0.66,8.7535,-3.0541747000000004,4.229223,999.4943,3.6083773112867066,628.8207429916229,0,0
0.68,8.849071499999997,-2.4917204,3.6705608,999.52386,3.696398565995535,644.1846330559329,0,0
0.7,8.815603999999997,-2.3534900000000003,3.6090126,999.5096,3.781261332754303,659.0393361977557,0,0
0.72,8.590938000000001,-2.6537826,3.8409972,999.49725,3.8629557412336006,673.3906003835585,0,0
0.74,8.533563000000001,-3.4259648,3.9688244,999.48737,3.942051132623675,687.245325788753,0,0
0.76,8.705627999999999,-3.7596235,4.167669,999.4924,4.019277539289682,700.6114506239434,0,0
0.78,8.375796000000001,-2.811078,4.1913385000000005,999.5023,4.093370088549937,713.4977655860713,0,0
0.8,8.375772,-2.4345195,3.9356785,999.5219,4.1639913869025085,725.9138003704977,0,0
0.82,8.514378,-2.4631183,4.115585,999.4968,4.231713530244933,737.8695075046833,0,0
0.84,8.50959,-2.6204145,4.314429799999999,999.5052,4.296883230395129,749.3754588214326,0,0
0.86,9.006658,-2.5679815,4.215003500000001,999.4968,4.360344978393656,760.4425542331552,0,0
0.88,9.126137,-2.5107825,3.9830163,999.5145,4.422066501965731,771.0820987437138,0,0
0.9,9.083109,-2.534615,3.9404058,999.4975,4.481926635241268,781.3054957177662,0,0
0.92,8.968378,-2.6537787999999995,3.6563404,999.519,4.539556163774916,791.1244578994548,0,0
0.94,8.525025,-3.197195,3.7511356,999.49725,4.594602421448337,800.5506349347569,0,0
0.96,8.525025,-3.197195,3.7511356,999.5171,4.647167934462037,809.5958842373848,0,0
0.98,8.362574,-3.1733634,4.110956,999.5322,4.697345228875209,818.272037257932,0,0
1.0,8.3721485,-3.1018655,4.1725044,999.4739,4.745255014538314,826.590612772759,0,0
1.02,8.300467,-3.078033,4.2009120000000015,999.4917,4.790871947916572,834.5633500116783,0,0
1.04,8.391328,-3.0828009,4.044681,999.517,4.83432601770305,842.2018937759453,0,0
1.06,8.515618,-3.1876655,4.0683546,999.5159,4.876022734834812,849.5176414684581,0,0
1.08,8.811997,-2.9827044,4.101498,999.4819,4.91644421117469,856.521707460276,0,0
1.1,8.816807,-2.7110112,3.8127022,999.5096,4.955206756146675,863.2252565837895,0,0
1.12,8.850296,-2.7396114,3.9121275,999.4917,4.9925211311072335,869.6390717856242,0,0
1.14,8.563554,-3.0732715,4.3098215999999985,999.485,5.028443886896693,875.7737642395372,0,0
1.16,8.597028,-3.0971048,4.215135,999.5214,5.062998837121827,881.639869980552,0,0
1.18,8.659196000000001,-3.0589726,4.1535907,999.4819,5.096254125511355,887.247392321383,0,0
1.2,8.434575,-3.1638381,4.0541706,999.4942,5.127824424572991,892.6062875693843,0,0
1.22,8.46808,-3.2877696000000003,3.8979397,999.48865,5.157805203635352,897.7261839152684,0,0
1.24,8.46808,-3.2877696000000003,3.8979397,999.4911,5.186273552021726,902.6164780243968,0,0
1.26,8.496803,-3.3545027000000003,3.793787000000001,999.5083,5.2133166332055945,907.2863524583344,0,0
1.28,8.544617,-3.354503,3.7464442,999.49603,5.239051039743812,911.744608347312,0,0
1.3,8.501659,-3.1733751,3.8079972,999.5018,5.263383942544978,915.9998491407621,0,0
1.32,8.458657,-3.240107,3.803264,999.4936,5.286355220951943,920.0603574089481,0,0
1.34,8.415669,-3.3878715,4.0163155,999.5109,5.308242772856441,923.9342444680448,0,0
1.36,8.382226,-3.3688056000000004,3.9831755,999.4909,5.328993597721102,927.6292150333777,0,0
1.38,8.525681,-3.2115107000000003,3.9358373,999.4937,5.348771932616897,931.1528031707857,0,0
1.4,8.420555,-3.3306754,3.855355,999.5108,5.367448486060587,934.5123344375847,0,0
1.42,8.468384,-3.3545089,3.8600922,999.509,5.385189975898796,937.7148042609527,0,0
1.44,8.5583315,-3.3497212,3.8836849,999.48865,5.402217326359818,940.7668924415416,0,0
1.46,8.644363,-3.216257,3.7937307,999.5108,5.418543304674452,943.6751956251204,0,0
1.48,8.620459,-3.2448564,3.699042,999.4985,5.434092865570315,946.44593621388,0,0
1.5,8.639573,-3.1685915,3.8647459,999.5207,5.449014643695994,949.085231747738,0,0
1.52,8.572650999999999,-3.201957,3.822135700000001,999.5213,5.463195664721285,951.5988831271628,0,0
1.54,8.596547,-3.1924240000000004,3.8505418,999.4985,5.4767304598628215,953.9923841067653,0,0
1.56,8.534402,-3.2734551,3.916823,999.4634,5.4896428248623135,956.2709772295574,0,0
1.58,8.477043,-3.3115876,3.926291200000001,999.50323,5.501890645663177,958.4399782228301,0,0
1.6,8.563071,-3.1685908,3.9026186,999.5131,5.513544260943926,960.5043707388837,0,0
1.62,8.558286,-3.21149,3.8363364,999.5133,5.524597241046263,962.4689001114087,0,0
1.64,8.615639999999999,-3.2734547000000003,3.9215553,999.4959,5.535293290726376,964.3380554645703,0,0
1.66,8.6251955,-3.249622,3.907352,999.5159,5.545624874083623,966.1162813749519,0,0
1.68,8.663428999999999,-3.1352243,3.7700536,999.52295,5.555480263838612,967.8077857964153,0,0
1.7,8.543925999999999,-3.1638236,3.8363347,999.5107,5.564735678058889,969.416529594353,0,0
1.72,8.510463,-3.1209245,3.8552718,999.5281,5.573354479522702,970.9464172676712,0,0
1.74,8.553479,-3.1399908,3.9262877,999.49536,5.581527543987961,972.4010022096517,0,0
1.76,8.390957,-3.3735517999999995,3.997303,999.49603,5.589207050467053,973.7838155644307,0,0
1.78,8.462649,-3.3830848,3.9641619,999.5053,5.5965285615293014,975.0982667886814,0,0
1.8,8.558243,-3.3068197,3.8221295,999.5131,5.603508538831964,976.34760928999,0,0
1.82,8.610816,-3.2162552000000004,3.6280184,999.53033,5.6100426667129835,977.5349861187024,0,0
1.84,8.615591,-3.249621,3.7179716,999.50073,5.616259903620289,978.6632289625256,0,0
1.86,8.639482000000001,-3.244854,3.8031902,999.50256,5.622281455655349,979.7351659310623,0,0
1.88,8.653819,-3.2162547000000004,3.8126588,999.4948,5.628122500840097,980.7534641191098,0,0
1.9,8.639474,-3.1828887000000003,3.9073462,999.5082,5.633811032854531,981.7207494472397,0,0
1.92,8.519972000000001,-3.2257876,3.8600016,999.51514,5.6391204135056014,982.6395025691652,0,0
1.94,8.553334,-3.182886,3.8410552,999.48724,5.644091280159185,983.5119646824494,0,0
1.96,8.462503,-3.3258824,3.874194600000001,999.5095,5.648707411042862,984.3404633328906,0,0
1.98,8.433819999999999,-3.2925165,3.940476,999.51245,5.652973754863019,985.127143892422,0,0
2.0,8.519844,-3.173352,3.931006,999.51245,5.656980123734206,985.8740419368114,0,0
2.02,8.562858,-3.163819,3.9073336,999.50507,5.6607935796669775,986.5830727498613,0,0
2.04,8.5963125,-3.1066203,3.8978646,999.48694,5.664437651381202,987.2560262983726,0,0
2.06,8.572399,-3.135219,3.9357386,999.5219,5.667925695125369,987.8948051991632,0,0
2.08,8.624969,-3.2162504000000003,3.8883934,999.49426,5.67137262531139,988.5009882731847,0,0
2.1,8.505465,-3.3544803,3.878924,999.49176,5.674644341384188,989.0761784156064,0,0
2.12,8.438543,-3.3354142,3.9025955,999.48694,5.6776364284679905,989.6218951671542,0,0
2.14,8.40985,-3.1733506,3.8647192,999.4744,5.680176952433902,990.1395595062199,0,0
2.16,8.45764,-3.125685,4.049360299999999,999.51184,5.682517202981175,990.6307079259964,0,0
2.18,8.443292,-3.2448487,4.2860794,999.4971,5.684932197110388,991.0966056811768,0,0
2.2,8.519755,-3.135217700000001,3.9878109,999.4769,5.687209447136174,991.5384419972023,0,0
2.22,8.5484295,-3.130451,3.935732,999.48676,5.689361703877177,991.9574625108523,0,0
2.24,8.581883,-3.1113844,3.9167937999999993,999.4966,5.691427738664293,992.3548499316744,0,0
2.26,8.624898,-3.106618,3.968872,999.5065,5.6935271177136615,992.7317273969587,0,0
2.28,8.763503,-3.073252,3.954668,999.47943,5.695864842526035,993.089028054655,0,0
2.3,8.586637,-3.1781156000000004,3.8836508,999.49365,5.698096731375068,993.4277955547985,0,0
2.32,8.404991,-3.3878437999999997,3.926259,999.50854,5.700082717770539,993.7490211979283,0,0
2.34,8.390642,-3.3878436,3.9215236,999.50366,5.701814983896128,994.0535728758853,0,0
2.36,8.467115,-3.3973765,3.8741794,999.504,5.703420337263519,994.3422962761746,0,0
2.38,8.500565,-3.435509,3.9073193,999.51154,5.705021323406978,994.616021550076,0,0
2.4,8.529235,-3.3211114,3.8078961,999.50885,5.706502723991297,994.8754993845153,0,0
2.42,8.557903999999999,-3.2496127999999995,3.836301600000001,999.499,5.707897977492236,995.1214186012413,0,0
2.44,8.572578,-3.201955,3.8978796,999.5236,5.709256033962351,995.354560674176,0,0
2.46,8.548687,-3.4164505,3.9641619,999.5084,5.7107357515910815,995.575518831394,0,0
2.48,8.500892,-3.4831824,3.9357557,999.5281,5.712257537757735,995.7849867513188,0,0
2.5,8.572592,-3.6643116,3.997303500000001,999.4913,5.714121376010888,995.9834153330597,0,0
2.52,8.873724000000003,-3.5165489,4.006773,999.5004,5.71671359623043,996.1714079726871,0,0
2.54,8.92153,-2.525105,3.2492685000000003,999.5035,5.718844471972622,996.34951380036,0,0
2.56,8.099412,-3.3735523,4.2719007000000015,999.51843,5.72042236328547,996.5182962080104,0,0
2.58,7.932123700000001,-3.897873600000001,4.4518085,999.5035,5.721791495019487,996.6781790770616,0,0
2.6,8.113762,-3.7215111,4.0257125,999.4881,5.722755723838495,996.8295672954775,0,0
2.62,8.238039,-3.6023476000000003,3.8742118,999.5029,5.7233547367053115,996.9729579230064,0,0
2.64,8.414899,-3.34972,3.7889931,999.4887,5.7236856943978935,997.108714552968,0,0
2.66,8.529617,-3.2496223,3.7085085,999.49054,5.723850442226232,997.2372436828115,0,0
2.68,8.730373,-3.2114902,3.6232896,999.50885,5.724139533908618,997.3589898046828,0,0
2.7,8.759058,-3.2496228,3.6469622,999.4805,5.7246330241337295,997.4742021146716,0,0
2.72,8.668249000000001,-3.2114904,3.774792,999.5084,5.725213934327866,997.5833268241647,0,0
2.74,8.634792,-3.1781247,3.8126674,999.51025,5.725817399923716,997.6866863409062,0,0
2.76,8.577437,-3.1495252,3.817402,999.50775,5.7263201625129545,997.7845706390716,0,0
2.78,8.429272000000001,-3.368787,3.9736378,999.5004,5.726745421550628,997.8772381906298,0,0
2.8,8.391035,-3.368787,4.03992,999.52094,5.727088917872406,997.9650365657004,0,0
2.82,8.247649000000001,-3.416453,3.9262948,999.49054,5.727045144314842,998.048107022276,0,0
2.84,8.109036,-3.54515,4.1204057,999.5084,5.726679641198177,998.1267651324263,0,0
2.86,8.864251,-2.996996,3.8410764,999.50714,5.726764019357653,998.2012367880783,0,0
2.88,8.658725,-3.1733587000000005,3.703779,999.5225,5.726877746646143,998.2717964905753,0,0
2.9,8.711310000000001,-3.2400906000000003,3.689576600000001,999.5029,5.727145886815557,998.3385750163357,0,0
2.92,8.739991,-3.1256936,3.4291844,999.5224,5.727332058503968,998.4018422916387,0,0
2.94,8.481887,-3.3020562999999994,3.6280297999999993,999.5127,5.727243750052287,998.4617443438465,0,0
2.96,8.668847,-3.2305715,3.5333922,999.5053,5.7271307420809165,998.5184305975392,0,0
2.98,8.668847,-3.2305715,3.5333922,999.5194,5.726996316442644,998.5721220611513,0,0
3.0,8.664081,-3.3259025,3.9926305,999.5063,5.727258879476903,998.6229268789788,0,0
3.02,8.90311,-2.8254151000000003,3.8269298,999.49054,5.7278532370717326,998.6709414232466,0,0
3.04,8.640244500000001,-2.7777503,4.025777,999.5127,5.728394295475519,998.7163974054379,0,0
3.06,8.664169000000001,-2.9970126,4.030514,999.52686,5.7290653946593455,998.7594799766428,0,0
3.08,8.597278999999999,-2.8111174,4.2056894,999.5121,5.729766680852388,998.8002571686436,0,0
3.1,8.759816,-2.544191,4.0873313,999.48224,5.730534802062727,998.8387430336882,0,0
3.12,9.027523,-2.2391322,4.030522,999.50476,5.731652560316251,998.8751468051204,0,0
3.14,8.458752,-2.4011955,4.219900599999999,999.49677,5.73227778805637,998.9095510210593,0,0
3.16,8.387068,-2.6919558,4.6270604,999.5324,5.732874383686732,998.9421928425872,0,0
3.18,8.339295,-2.6442912,3.7701354,999.5186,5.7325631919479125,998.9731102218559,0,0
3.2,8.645228,-1.6480811999999998,4.5323769999999985,999.51416,5.732226560215177,999.002376597379,0,0
3.22,7.698852499999999,-2.5918603,4.021064,999.50714,5.730132602880938,999.0300535150408,0,0
3.24,8.224642999999999,-2.9350524,3.8269541,999.5186,5.727470791727187,999.0562676068324,0,0
3.26,9.018129,-2.4297984,4.816448,999.51654,5.726341444448326,999.0810873589547,0,0
3.28,8.8412895,-2.6156945,4.9253407,999.4867,5.72645527713409,999.104478297438,0,0
3.3,8.664474,-2.158106,4.622342,999.5219,5.7268388792767135,999.1266492488112,0,0
3.32,8.339459,-2.2582037,4.617609,999.4845,5.72692253066194,999.1475277641484,0,0
3.34,8.009705,-2.6728957,5.0721164000000005,999.53546,5.726852745373446,999.1673725763496,0,0
3.36,8.067086999999999,-2.5727987,5.3372455,999.50574,5.726978071096302,999.186125575136,0,0
3.38,8.272632000000002,-2.3916698,5.327778,999.5029,5.727518785748925,999.2038361127928,0,0
3.4,7.7803497,-2.3964372000000003,5.1099987,999.48816,5.72735547612563,999.2205087098604,0,0
3.42,7.727797,-2.7634625,5.469816000000002,999.4936,5.727092102382652,999.2362237452741,0,0
3.44,7.894819,-2.6204593,5.772793,999.50085,5.727286731730909,999.2510622050822,0,0
3.46,7.608044,-3.001784,6.175218599999999,999.5009,5.728141034984423,999.2650728842307,0,0
3.48,7.9139657,-2.5584948,5.7301855,999.5009,5.729267227996807,999.2783016979428,0,0
3.5,8.090839,-2.425032,5.460326,999.4978,5.730541536630286,999.2907808716265,0,0
3.52,8.090839,-2.425032,5.460326,999.5034,5.731942132715481,999.3025728983553,0,0
3.54,7.8423038,-2.363067,5.0010905,999.4906,5.732491081683273,999.3136692307387,0,0
3.56,7.870996000000001,-2.5537293,5.469798,999.5108,5.732956073270104,999.3241836208023,0,0
3.58,7.5698895,-3.0923512000000004,5.626035,999.4806,5.733358332721061,999.3340372348275,0,0
3.6,7.928382000000001,-2.7634585,5.5076756,999.53864,5.733944411724447,999.3434804581348,0,0
3.62,7.942735000000001,-2.5584972,5.550287,999.5104,5.73465021514004,999.3524254005998,0,0
3.64,7.3978515,-3.1209512000000004,5.431928,999.5052,5.7347778031937295,999.3608791403199,0,0
3.66,7.761131,-2.9159894,5.7538686,999.47296,5.7352208269941976,999.368752355831,0,0
3.68,7.436125,-3.1686175,5.540822,999.48553,5.7353340660338805,999.3761295285757,0,0
3.7,7.254506,-3.2496493,5.8911695,999.48553,5.735351499932091,999.3830418401103,0,0
3.72,7.565214,-2.882625,5.5644975,999.5104,5.735137873324512,999.3896080479577,0,0
3.74,7.5604415,-2.8778586,5.4603415,999.49255,5.734588403564142,999.3957805402392,0,0
3.76,7.4170547,-3.182918,5.692328,999.4929,5.73398640020625,999.4015841844741,0,0
3.78,7.2688947,-3.4689121,5.938518,999.4971,5.733610875840347,999.407056141456,0,0
3.8,7.6847587,-3.0017898,5.4035325,999.5098,5.7331364121203645,999.412261040536,0,0
3.82,7.354965700000001,-3.3831148,5.8485675000000015,999.502,5.732836157099334,999.4171831496174,0,0
3.84,7.3406334000000015,-3.4832125,5.966928500000002,999.52,5.7328851265150345,999.4219024658626,0,0
3.86,7.565305,-3.120955,5.4319425,999.50244,5.732705554014128,999.4263623888197,0,0
3.88,7.512734,-3.2830184,5.7870230000000005,999.497,5.732767306528916,999.4305574721452,0,0
3.9,7.3406754,-3.4927468,5.7728214000000015,999.4897,5.732907140488657,999.4344771608718,0,0
3.92,7.345469,-3.421249,5.725478599999999,999.50494,5.733014290350017,999.4381942640514,0,0
3.94,7.5738754,-3.254394,5.6354313,999.4794,5.7332248533506975,999.4416270370704,0,0
3.96,7.4161134,-3.3735578,5.6401629999999985,999.4815,5.733367059470012,999.4448037779764,0,0
3.98,7.2535729999999985,-3.6357174,5.8153334,999.48224,5.733600886158055,999.44774551664,0,0
4.0,7.277444,-3.4307550000000004,5.464985,999.4941,5.733381884678593,999.4505117130636,0,0
4.02,7.6884785,-3.044663,5.3655599999999986,999.5044,5.733036798110758,999.4531499220565,0,0
4.04,7.6836853,-3.1685932,5.6354194,999.49756,5.7329643544613065,999.4556409198027,0,0
4.06,7.1100807,-3.7596457,5.867403,999.4773,5.73295406335904,999.4579199381004,0,0
4.08,7.559354300000001,-3.3926199999999995,5.625946,999.4667,5.733122615141738,999.4599652868911,0,0
4.1,7.7887435,-2.9540956,5.3513465,999.50635,5.733210971221312,999.4619395420495,0,0
4.12,7.482822,-3.1447575,5.133563,999.51807,5.7326108900615385,999.4638860635564,0,0
4.14,7.205551,-3.6738446,6.1845965,999.4724,5.732605455616974,999.4656366601307,0,0
4.16,6.8374925000000015,-3.816841,5.6306699999999985,999.4713,5.732009814495349,999.4672038752876,0,0
4.18,7.243747999999999,-3.731042,5.5596514,999.46643,5.731350608665254,999.4685858806492,0,0
4.2,7.286724,-3.3878489000000003,5.564382,999.52045,5.730450695995597,999.469993731416,0,0
4.22,8.070584,-2.5918334,5.4649568,999.5155,5.729988266786447,999.4714015309207,0,0
4.24,6.975981,-3.7882383,6.515992,999.4498,5.730297532308312,999.472567697052,0,0
4.26,6.9472747,-3.6595407,5.8815794000000015,999.4535,5.730332885834015,999.4735294777357,0,0
4.28,6.9759392999999985,-3.9169345,5.6637955,999.45935,5.730108581281946,999.4743282610284,0,0
4.3,7.429993,-3.3163474,5.256634,999.4798,5.729415744625598,999.4750537642059,0,0
4.32,7.406066,-3.4736432999999995,5.796354,999.5044,5.729015587271855,999.4758004652624,0,0
4.34,7.4155974,-3.425977,5.488615,999.4861,5.72849253309251,999.476497328641,0,0
4.36,7.358198,-3.564206,5.857895,999.4938,5.728312764988853,999.4771753667392,0,0
4.38,7.45378,-3.3830764,5.630642,999.50006,5.7281819184829255,999.4778568658825,0,0
4.4,7.229100999999999,-3.6357036,5.6495776,999.51105,5.7279570533859845,999.4785785338084,1,1
4.42,7.2529593,-3.4688728,5.1477265,999.50824,5.726979954169555,999.4793229808657,1,1
4.44,7.348541,-3.4831722000000003,5.019896,999.5081,5.725362948692941,999.4800843715548,1,1
4.46,7.57315,-3.4355056000000004,5.8910227,999.4879,5.724504754343449,999.48078527263,1,1
4.48,7.424962,-3.611868,5.7016454,999.48096,5.723993851228268,999.4814052178384,1,1
4.5,7.472746000000001,-3.4879372,5.4459863,999.48364,5.723476703227068,999.4819610466403,1,1
4.52,7.4966035,-3.4641035,5.2187304,999.50616,5.722719812143476,999.4825392932021,1,1
4.54,7.792922999999999,-3.5165348,5.176119,999.4889,5.722222185782912,999.4830731304083,1,1
4.56,7.7690104999999985,-3.5260673,4.882584,999.4963,5.7216139027301525,999.4835924456943,1,1
4.58,7.783308,-4.231517,4.4044056,999.4787,5.72104218942625,999.4840336998764,1,1
4.6,7.659005,-4.913133599999999,4.016182,999.5107,5.7206142756883445,999.4845195907519,1,1
4.62,8.466764,-4.0503860000000005,3.542739,999.5118,5.7204932557461285,999.4850471334033,1,1
4.64,8.543213,-4.2410483,3.703706,999.4938,5.721059013417946,999.4855447804097,1,1
4.66,7.7831964,-4.102817,3.1497781,999.51843,5.720386692589166,999.4861028880948,1,1
4.68,7.8500857,-4.0074854,3.5190592000000005,999.4765,5.718924649581352,999.4865614616484,1,1
4.7,7.8213789999999985,-3.8025227,3.0456161,999.4889,5.716196854276356,999.4869750759784,1,1
4.72,7.711415299999999,-3.8263547,3.9688225,999.5286,5.712910767613764,999.487490395327,1,1
4.74,7.608101,-3.659570200000001,4.750168,999.4889,5.709574945246133,999.48795080608,1,1
4.76,8.865208,-2.753925,4.6460123,999.52094,5.707649074219563,999.4884763861197,1,1
4.78,11.106956,-0.8234700999999999,5.99532,999.5143,5.711689406294187,999.4890337536524,1,1
4.8,12.392742,-1.2238613,5.569225,999.49255,5.723050964127491,999.4895389020912,1,1
4.82,14.471976000000002,-1.2143286,6.729156,999.502,5.745755041475254,999.4900301112044,1,1
4.84,15.160276,-0.15615326,6.298326,999.5177,5.7792543331656825,999.4905637551764,1,1
4.86,15.356268,-1.3096606000000002,6.2746559999999985,999.52466,5.822635324527701,999.4911580294715,1,1
4.88,14.29995,-3.1638515,5.323042,999.499,5.872394166250343,999.4917113613324,1,1
4.9,12.588799,-4.26016,4.688634,999.52045,5.924512023174195,999.4923037444639,1,1
4.92,9.544094,-4.9846773,1.8243215,999.5074,5.9719336713469255,999.492881520719,1,1
4.94,8.5068865,-5.284971,2.0279016,999.4823,6.0135744873073245,999.4933539503434,1,1
4.96,5.466958999999999,-5.766393700000001,0.9484601,999.52246,6.045352134195645,999.4938761709379,1,1
4.98,4.936411,-5.8855580000000005,0.9389921999999998,999.5202,6.067752473308773,999.4944323708403,1,1
5.0,3.9900382,-6.0952873,0.05366116,999.49255,6.080843746489094,999.4949170525388,1,1
5.02,3.7271585,-6.800738000000001,-0.2588087,999.4879,6.08664782714636,999.4953200558984,1,1
5.04,4.7118273,-7.5014224,0.25724408,999.50146,6.088284145605336,999.4956982534658,1,1
5.06,5.7394943,-8.421369,0.66440374,999.46014,6.0890392222296335,999.4959044191237,1,1
5.08,7.818728,-8.979055,-0.08836486,999.4934,6.092532975183777,999.4960775711903,1,1
5.1,10.399841,-9.160186,2.2362297000000004,999.498,6.102864444190668,999.4962374891002,1,1
5.12,12.254434,-9.203085,2.6575942,999.518,6.1223516551558825,999.4964571376044,1,1
5.14,12.60815,-9.417581,2.9227216,999.52264,6.15079835995179,999.4967454773275,1,1
5.16,12.612947,-9.941902,2.9653332000000003,999.5029,6.1877355803658025,999.4970224105883,1,1
5.18,13.463773000000002,-8.898026,3.3109465,999.5131,6.232339145365943,999.4973249881397,1,1
5.2,13.01927,-7.2916979999999985,3.3582926,999.49115,6.281105266530205,999.4975701157064,1,1
5.22,11.770641,-5.0180225,2.7048438,999.5042,6.3287659898991615,999.4978105780079,1,1
5.24,11.230497,-3.3687932000000003,3.2445633,999.48615,6.373381018347724,999.4979810724167,1,1
5.26,10.613889,-2.4726803,3.2492967,999.4845,6.413495339892032,999.4980831894158,1,1
5.28,9.662682,-0.98551404,2.1651156000000005,999.49927,6.446534952552539,999.498177692514,1,1
5.3,9.748704,-0.58512294,2.3450217,999.48785,6.47339695823779,999.4982240157589,1,1
5.32,11.048771,-0.17519805,2.4775815,999.4875,6.497365541944628,999.4982263405209,1,1
5.34,12.052516,0.28715837,3.4765396,999.50934,6.5212325073139015,999.498268403855,1,1
5.36,13.806664,-3.1495283,4.778497,999.51025,6.549909224229957,999.4983487047632,1,1
5.38,13.701469,-6.6672463,6.350316,999.47217,6.5859792091487925,999.4983254153084,1,1
5.4,13.701469,-6.6672463,6.350316,999.48004,6.628452033729179,999.4982390092508,1,1
5.42,14.08858,-10.34226,4.6506596,999.46155,6.679708241083866,999.4980305804253,1,1
5.44,14.160263,-11.424269,4.5843763,999.4854,6.73994906871524,999.4978009426255,1,1
5.46,15.044501,-12.325147,5.105159,999.49304,6.810706564392286,999.4975808952721,1,1
5.48,14.776805,-11.4052,5.493377,999.49304,6.889151822768064,999.4973701142076,1,1
5.5,13.667877,-11.252671,5.289797,999.4954,6.972069723526889,999.4971767756481,1,1
5.52,8.65859,-10.375623,2.7710888,999.4783,7.048909022366239,999.4969379853044,1,1
5.54,7.4731855,-9.417544,1.8573475,999.49554,7.116712730377327,999.4967219574097,1,1
5.56,6.359478,-8.836024,1.8620807,999.4862,7.173959920171338,999.4964931961148,1,1
5.58,2.8892999,-6.900801,0.9578058,999.4764,7.214393686602802,999.4962187271292,1,1
5.6,0.62364644,-7.1629615000000015,-0.67083186,999.4739,7.239158305903932,999.4958958589156,1,1
5.62,0.40376216,-7.7921467,-0.83180285,999.4764,7.251288647613159,999.49554038747,1,1
5.64,1.7659796000000003,-8.178237,-0.746586,999.48315,7.253361405403081,999.4951816875057,1,1
5.66,6.63178,-10.184957,0.6074501,999.4741,7.25437343859848,999.4947888461422,1,1
5.68,9.1937275,-10.728342,2.2171452,999.4889,7.2588773834957445,999.4944205316673,1,1
5.7,11.201232,-10.790308,2.9273047,999.48395,7.269619174193418,999.4940573950836,1,1
5.72,14.250721,-12.291772,3.3533988,999.4769,7.292671554232506,999.4936747609756,1,1
5.74,16.449913000000002,-11.8484955,3.6895854,999.51434,7.329615397411776,999.4934110603384,1,1
5.76,15.976705,-9.755977,4.5228405,999.5188,7.375900426876477,999.493269454638,1,1
5.78,14.49018,-8.5929365,5.1335783,999.5336,7.426849014179192,999.4932895218044,1,1
5.8,13.9882965,-8.397508,5.469720400000001,999.5041,7.48089627254809,999.4933461708744,1,1
5.82,13.429053,-6.614814999999999,5.2945465999999985,999.5016,7.534724091996679,999.4934259397772,1,1
5.84,12.219756,-5.2515793,5.294546,999.51154,7.584915568975156,999.4935616341968,1,1
5.86,12.018995,-1.2190721000000002,4.413946,999.4917,7.628691762607063,999.4936748319026,1,1
5.88,12.635581,0.8877463,4.9678707000000015,999.49207,7.668188848155253,999.4937690760008,1,1
5.9,12.716834,0.8639134,4.7595563,999.48724,7.70376210175437,999.4938288454119,1,1
5.92,12.67859,-0.036965564,5.015214,999.5069,7.735799921522213,999.4939287138203,1,1
5.94,12.6212225,-5.2420454,5.8200617,999.502,7.767133545327092,999.4940460141763,1,1
5.96,12.888888,-6.428918,6.066251,999.51245,7.799341735126347,999.49421591512,1,1
5.98,13.075294,-7.4823265,6.4781427,999.52966,7.833807160479842,999.4944936382992,1,1
6.0,13.840056,-9.398483,5.8247943,999.50995,7.872878197979009,999.4947946774023,1,1
6.02,14.652614000000002,-13.059197,6.231952,999.53217,7.921861120333892,999.4951952267157,1,1
6.04,14.64783,-13.240327,6.4071254999999985,999.5028,7.979769518475349,999.4955765292723,1,1
6.06,14.33236,-12.868535,6.255624,999.5281,8.044303460202679,999.496030532706,1,1
6.08,13.438529999999998,-11.486234,5.275601999999999,999.50256,8.110711349095084,999.4964551962224,1,1
6.1,11.469245,-10.809382,4.4044704,999.518,8.174203063355415,999.496907990199,1,1
6.12,8.152052000000001,-9.9704685,2.9557416,999.4731,8.228341428532504,999.4972223701919,1,1
6.14,5.35586,-8.969491,1.4833415,999.48553,8.26848725050284,999.4974580638212,1,1
6.16,3.964934,-8.402271,0.93415004,999.4913,8.293601462207171,999.4976441536819,1,1
6.18,1.7184166,-6.5194807,0.14350364,999.4363,8.299951883533138,999.49758774373,1,1
6.2,1.7184166,-6.5194807,0.14350364,999.4565,8.289699758164009,999.4973899840187,1,1
6.22,1.2499864,-6.719676,-0.15476474,999.4739,8.265007874676305,999.4971306795953,1,1
6.24,4.280856,-9.655887,0.56964254,999.4839,8.235421300776888,999.4968539277603,1,1
6.26,7.712766999999999,-11.295583,2.1793412999999995,999.4591,8.208418071851122,999.4964734756993,1,1
6.28,12.134099,-11.195485,4.2861524000000015,999.46893,8.190460332965205,999.4960381517453,1,1
6.3,15.413056,-11.505312,3.694353,999.4843,8.185814433904715,999.4956112421534,1,1
6.32,17.191157999999998,-11.777006,4.224608,999.50073,8.1964330357894,999.4952524523662,1,1
6.34,16.732310000000002,-10.509102,5.5975866,999.51843,8.21899261341672,999.4950188648818,1,1
6.36,15.728556,-9.946648,5.9621363,999.5256,8.249954134596663,999.4949225590668,1,1
6.38,13.353012,-6.7578225000000005,5.389274,999.5115,8.280672849489633,999.4948971420363,1,1
6.4,12.779442,-6.009473000000002,4.915835,999.5085,8.309084788999249,999.4949236538366,1,1
6.42,11.020488,-5.8378773,3.7322347,999.48926,8.331333737069288,999.4949266905096,1,1
6.44,9.792096,-3.7215266,4.8968997000000005,999.49615,8.345034389432339,999.494933777628,1,1
6.46,10.121916,-1.2619834,4.7785406,999.5196,8.350510180745287,999.4950288382063,1,1
6.48,10.604683,-0.2705397,4.631775,999.50464,8.349345406589649,999.495147433916,1,1
6.5,11.4555,0.33957922,4.5796980000000005,999.48145,8.343910299408275,999.4952029143228,1,1
6.52,11.608466,-0.81392795,4.110993,999.4967,8.334721643663434,999.4952573263187,1,1
6.54,11.809232000000002,-3.3545032,4.0589156000000015,999.49927,8.323472093904755,999.4953198503833,1,1
6.56,11.814016,-5.0942965,4.039979,999.50073,8.311595464091916,999.4953945731855,1,1
6.58,12.105604,-8.273591,3.8979483,999.5015,8.302714102696491,999.4954825777904,1,1
6.6,12.483222,-9.031473,4.035247,999.55084,8.298081206545428,999.4957596253787,1,1
6.62,12.937309,-9.660659,4.281437,999.54114,8.298833682960014,999.4961677939767,1,1
6.64,12.358966,-10.285078,3.8884823,999.50116,8.304005261791039,999.4965464236916,1,1
6.66,11.207052,-12.878085,4.892178,999.5073,8.315591511272988,999.4969196937822,1,1
6.68,7.9376845,-11.905708,3.026824,999.5495,8.326292171618075,999.4974388043368,1,1
6.7,7.717826400000001,-9.417566,2.6859484,999.5171,8.331688432318384,999.4979682707273,1,1
6.72,6.671056,-8.37369,2.5439167,999.5199,8.329334362539035,999.4985150614552,1,1
6.74,5.1649165,-6.8293133,2.766388,999.46783,8.315971246772962,999.498887739521,1,1
6.76,5.317859,-5.232517,2.8516060000000003,999.485,8.29082655377795,999.4991670419977,1,1
6.78,5.7575974,-5.0609207000000005,3.5238912000000004,999.47284,8.256297417662095,999.499319056315,1,1
6.8,5.967905,-4.865491400000002,3.7558765,999.4605,8.213871221952562,999.4993136275633,1,1
6.82,6.780464,-3.5928206,3.0883248,999.49286,8.164005877120541,999.4992855976587,1,1
6.84,7.7411966,-1.4955355,3.088324,999.4474,8.108154043636457,999.4990740422836,1,1
6.86,7.172393,-1.3334723999999998,4.882663,999.50037,8.047859743790728,999.4988917774016,1,1
6.88,8.047089999999999,-1.6337652,6.7953615,999.4781,7.9877645023846195,999.4986558777535,1,1
6.9,7.6885962,-0.53745705,6.68647,999.4777,7.92711605696438,999.4983719956647,1,1
6.92,8.195248,-0.18949820000000006,6.3408574999999985,999.4856,7.866529837781906,999.4980751782665,1,1
6.94,7.745935,-0.80915034,6.5302324,999.49725,7.805800932012846,999.4978099397714,1,1
6.96,7.4209046,-1.466935,7.174111,999.4876,7.7457088369937335,999.497538819254,1,1
6.98,7.8271804,-0.8282162000000001,6.520763,999.5048,7.685971083698747,999.4973253974156,1,1
7.0,6.770832,-1.6003982,6.402402,999.47943,7.625169065862112,999.4970723944487,1,1
7.02,7.377863400000002,-1.1618749,6.1467433,999.4726,7.5640985694997775,999.4967607404068,1,1
7.04,7.6503043,-1.2619724,6.7574806,999.54175,7.504283102195907,999.49664732423,1,1
7.06,7.745893,-0.9616791,6.0804605,999.55835,7.444979496243036,999.4967692393292,1,1
7.08,8.133045,-0.86634773,8.059441,999.4455,7.389643172424827,999.4966923942488,1,1
7.1,8.20474,-1.023644,7.122028,999.4112,7.336827080096432,999.4963167213167,1,1
7.12,6.603497,-1.7100278999999998,5.6164865,999.4682,7.282111530730594,999.4958835565171,1,1
7.14,6.9763103000000015,-1.6623621,6.885306,999.4583,7.228212955358933,999.4953655112967,1,1
7.16,7.100581,-1.6671287,7.150431599999999,999.4881,7.175796053106343,999.4948816106996,1,1
7.18,7.0384364,-1.4716996,6.9752589999999985,999.4978,7.1244695723127505,999.494464542333,1,1
7.2,7.3825707,-1.0856081,6.648584,999.49976,7.074242013219353,999.494115084372,1,1
7.22,6.989899,-1.6146781,6.885236999999999,999.533,7.025060760624392,999.4939462890139,1,1
7.24,7.219311699999999,-1.3572836,7.1693,999.4776,6.977648307433685,999.4937382947952,1,1
7.26,6.9754863,-1.4573798999999998,6.4070554,999.5097,6.930552786590001,999.4936119732422,1,1
7.28,7.0901833,-1.2142853,6.5774927,999.4918,6.8842484427073884,999.4934938324144,1,1
7.3,7.338696499999998,-1.3286815,6.9231005,999.50226,6.839701069854972,999.493421001382,1,1
7.32,7.1666045,-1.2667159,6.4543934,999.4678,6.7959342872773165,999.4932644122772,1,1
7.34,7.262164,-1.1952167,6.6390314,999.4776,6.753397939509848,999.4930696582596,1,1
7.36,7.3242655,-1.3286793,6.6295595,999.4918,6.712218719106161,999.49289300284,0,0
7.38,7.223834,-1.4192425,6.501725,999.5073,6.672083286160898,999.4927887753012,0,0
7.4,7.285953,-1.3572768,6.568005,999.4975,6.633182759126707,999.4927136402566,0,0
7.42,7.381512,-1.2905441999999998,6.6958303,999.48944,6.5958176599447675,999.4926354658264,0,0
7.44,7.3480163,-1.1999787,6.364419,999.509,6.559415131880042,999.4926253032228,0,0
7.46,7.438796000000001,-1.1189463,6.6674175,999.4697,6.524528599391303,999.4925337924547,0,0
7.48,7.247549,-1.0998787,6.4543643,999.4924,6.490515015398451,999.4924524518872,0,0
7.5,7.151916,-1.0665118999999998,6.3928137000000005,999.48737,6.457155451483594,999.4923622825348,0,0
7.52,7.008485,-1.2524067,6.1134806,999.5101,6.423937743926271,999.492346464678,0,0
7.54,6.860293,-1.4669014,6.17976,999.48737,6.39089205023669,999.4923145727467,0,0
7.56,6.4969725999999985,-2.0388868,5.8294096,999.49725,6.357316574455612,999.4923041605748,0,0
7.58,6.6212106,-2.1389837000000003,5.919359,999.4574,6.3237503982886825,999.4921693054013,0,0
7.6,6.9701185,-2.1151505,5.938296,999.49286,6.2908589088348785,999.4920526338707,0,0
7.62,7.424163,-1.9435534,6.0424495,999.4879,6.2594505552732045,999.491934593424,0,0
7.64,7.2568326,-2.4392745,5.7347097,999.4672,6.229045607061133,999.4917412483493,0,0
7.66,7.6630607,-2.4917052,5.3938274,999.4975,6.199909279912622,999.491591140147,0,0
7.68,8.021527,-2.7062,5.4174976,999.4747,6.172734851677859,999.4913976964348,0,0
7.7,8.580729,-2.7633977,5.2849307,999.4991,6.148220929208484,999.4912544978638,0,0
7.72,8.781443,-2.6489992,4.6173769999999985,999.4845,6.125770420884727,999.491103651414,0,0
7.74,8.921483,-2.8158638,4.499147,999.5096,6.105456792496384,999.491036950346,0,0
7.76,8.754201,-2.9874601000000003,4.466007,999.50464,6.086877186661483,999.4910269842607,0,0
7.78,8.4530945,-3.545148,4.4328685,999.5018,6.069710386837051,999.4910569610847,0,0
7.8,8.553504,-3.7739432,4.432872,999.49725,6.054196180894031,999.4911057435464,0,0
7.82,8.410119,-4.0742364,4.57017,999.4917,6.040314307253188,999.4911509870527,0,0
7.84,8.008649,-4.131436,4.821096400000001,999.4913,6.027545205596267,999.4911915006617,0,0
7.86,7.927403,-4.0790042999999985,4.986801,999.487,6.015795145651588,999.491212209084,0,0
7.88,7.946542999999999,-4.079005,5.1714454000000005,999.48987,6.005208393791452,999.4912256750932,0,0
7.9,7.965706,-3.8454444,4.7737594,999.49927,5.9951264307616,999.4912665332288,0,0
7.92,7.831882000000001,-3.9693751000000006,4.6648693,999.4968,5.985300861739986,999.4913225559576,0,0
7.94,7.793665400000001,-4.0742400000000005,4.6411989999999985,999.4776,5.975739938220099,999.4913226564397,0,0
7.96,7.908413,-4.0456414,4.470763,999.5023,5.966449004577028,999.4913622636619,0,0
7.98,7.784148700000001,-4.193405,4.5938587,999.5052,5.9574700895034125,999.4914470764546,0,0
8.0,7.750711999999999,-4.250604,4.5512510000000015,999.5073,5.948754708953528,999.491579087563,0,0
8.02,7.6264585999999985,-4.4365005,4.5512533,999.4953,5.940272627793753,999.491709127863,0,0
8.04,7.5452228,-4.5508986,4.267191,999.49927,5.93174163691965,999.4918512506121,0,0
8.06,7.8463726,-4.565198400000001,3.907378,999.495,5.9233908672171065,999.4919881657705,0,0
8.08,7.841603299999999,-4.603331,3.907379,999.5101,5.915258280216206,999.492174346608,0,0
8.1,7.707790400000001,-4.7558618,4.1014915,999.5199,5.9074422000197915,999.4924386683482,0,0
8.12,7.645685,-4.8797927,4.1441040000000005,999.4948,5.899995708531391,999.4926807238318,0,0
8.14,7.81778,-4.8702602,4.338217,999.48737,5.893337272958176,999.4928754854512,0,0
8.16,7.803451,-4.832128,4.257733,999.4904,5.887267494364858,999.4930386650703,0,0
8.18,7.7174363,-4.5747347000000005,4.0446870000000015,999.5126,5.881164339576093,999.493253271388,0,0
8.2,7.6218615,-4.503237,3.5759823,999.4876,5.874444029969367,999.4934225457528,0,0
8.22,7.526298,-4.8130636,3.8411121,999.50037,5.867569851086059,999.493597127417,0,0
8.24,7.745642,-5.094278,4.1772065000000005,999.5054,5.861507129603784,999.4937938781168,0,0
8.26,7.7265224,-5.385037400000001,4.5464897,999.50037,5.856785087020133,999.493991401074,0,0
8.28,7.678725,-5.342139,4.451802,999.4978,5.85306013722061,999.4941796433153,0,0
8.3,7.568789,-5.122877,4.3145045999999985,999.51465,5.8497041366357765,999.4944196674433,0,0
8.32,7.984632,-4.3220954,3.8173916,999.5002,5.84615108016461,999.4946525619603,0,0
8.34,7.960733,-4.512758,3.7937198,999.4756,5.8425548712814654,999.4947897583323,0,0
8.36,7.951173299999999,-5.0180125,4.2576914000000015,999.4726,5.839796513854661,999.4948311019167,0,0
8.38,7.712183,-5.0323124,4.1772065000000005,999.50037,5.837353199276397,999.4948875731408,0,0
8.4,7.5305505,-4.8750160000000005,4.125128299999999,999.5108,5.8347020943789225,999.4949947558513,0,0
8.42,8.113686999999999,-4.5985559999999985,4.5891,999.49554,5.8329584974920925,999.4950914253732,0,0
8.44,8.065888000000001,-4.6986537,4.821086,999.50104,5.832255785681045,999.4951982574312,0,0
8.46,8.032430999999999,-4.226764,4.3618484,999.4862,5.831569501133638,999.4952602605114,0,0
8.48,7.669165,-4.059935,3.7227037,999.47314,5.829594974282356,999.4952354134946,0,0
8.5,7.4397345,-4.393594,3.6516876,999.5101,5.8263601186969085,999.4952669711822,0,0
8.52,7.4110556,-4.674821,4.6080375,999.4979,5.823103846560415,999.4953043344588,0,0
8.54,7.664385,-4.555657,4.5843654,999.506,5.8201013068778495,999.495375853046,0,0
8.56,8.314439,-4.360228,4.47074,999.49304,5.818108794284207,999.4954306377983,0,0
8.58,8.8449955,-4.112367,4.3476453,999.52496,5.817599534402354,999.4955853513096,0,0
8.6,8.735061,-4.112367,4.1772065000000005,999.4862,5.818070764450441,999.4956882689037,0,0
8.62,7.955953,-5.4851356,4.366583,999.5034,5.819582689614004,999.4958069691214,0,0
8.64,7.6548257,-5.394571,4.475474,999.5116,5.821540873840061,999.4959687075453,0,0
8.66,7.640486200000002,-4.7653856,3.8221262,999.4808,5.8226458328701085,999.4960570122693,0,0
8.68,7.4397345,-4.670054,4.025706,999.49365,5.822743935417753,999.496126373079,0,0
8.7,7.673944500000001,-4.684354,3.784251,999.5084,5.8221433952226285,999.4962318453476,0,0
8.72,7.707403699999999,-4.9894137,3.4954524,999.4788,5.8210724274736645,999.4962622860008,0,0
8.74,7.042657000000001,-5.261099,3.4622793,999.49603,5.8188076528314205,999.4962883471325,0,0
8.76,6.7988800000000005,-5.2467985,3.3581216,999.5116,5.815024707655324,999.4963664966986,0,0
8.78,6.8944554,-5.3611955999999985,3.19715,999.49115,5.810078555965612,999.4964167702672,0,0
8.8,7.5827327,-5.213432,3.6895268,999.47394,5.805398021708652,999.4963802756197,0,0
8.82,7.945991,-5.060902,3.8362925,999.49115,5.801504877515653,999.4963291999563,0,0
8.84,8.414391,-4.9322047,3.4480696,999.4813,5.79868103372072,999.4962299643807,0,0
8.86,8.404824000000001,-5.0180025000000015,3.2776303,999.50867,5.79676658086479,999.4961870639543,0,0
8.88,8.247069,-5.0990334000000015,2.9036105,999.4895,5.795243802653072,999.4961250837073,0,0
8.9,8.180145,-5.237263,3.0503762,999.4764,5.794195773386271,999.4959993076596,0,0
8.92,7.960260400000001,-5.323061,3.448065,999.506,5.793565021107169,999.4959241744364,0,0
8.94,8.1131935,-5.1085650000000005,3.6516426,999.4943,5.793474672541157,999.4958519396923,0,0
8.96,8.008030999999999,-4.917903,3.6563764,999.50616,5.793497157294966,999.4958252220897,0,0
8.98,7.778579,-4.555644,3.3912477,999.4988,5.792678587223128,999.4958123236162,0,0
9.0,7.654290700000002,-4.7510724,3.7747333,999.5166,5.791403598940136,999.4958757621602,0,0
9.02,7.4535313,-5.046599400000002,4.2434387000000005,999.4856,5.790111531953539,999.4958948237137,0,0
9.04,6.9611907,-4.936968,3.9120283,999.4667,5.787638190044509,999.4958065651372,0,0
9.06,6.7126346,-5.2849260000000005,3.9120278,999.4963,5.784147468028738,999.4957303562244,0,0
9.08,7.004194999999998,-5.2849260000000005,4.167685,999.45416,5.780429983290718,999.4955133647467,0,0
9.1,7.2479444000000015,-5.1133294000000005,3.7889307,999.4993,5.77638337073662,999.4953352629635,0,0
9.12,7.74025,-4.946499299999998,3.3533642,999.47577,5.772337599147189,999.4951074572816,0,0
9.14,7.826273,-5.141928,3.6989744,999.5166,5.768909086056043,999.4949835413347,0,0
9.16,8.122607,-4.3125467,3.7841926,999.4943,5.7657810262466915,999.4948715884557,0,0
9.18,8.509757,-4.546108,3.5285332,999.4968,5.7636121973400725,999.4947796091728,0,0
9.2,8.232514,-4.822568,3.822065,999.4813,5.762309475229347,999.4946498096857,0,0
9.22,8.136905,-4.8082676,3.5190618,999.5169,5.761375893792571,999.4946152195438,0,0
9.24,8.141669,-4.8559327,3.2728715,999.49976,5.7606546750900325,999.4946031769043,0,0
9.26,7.950464,-5.4469852,3.5664036,999.5143,5.760637575677931,999.4946634445911,0,0
9.28,7.673221000000002,-5.5947485,2.931992,999.49365,5.760541198939288,999.4947130487184,0,0
9.3,7.4772425,-5.651947,2.785225,999.5168,5.760041480602631,999.4948363919501,0,0
9.32,7.4294305,-5.871208,2.851505,999.4862,5.7594183406985975,999.4949142870186,0,0
9.34,7.027913000000002,-6.190567,3.424367,999.4772,5.758860260448426,999.4949193436678,0,0
9.36,7.8691372999999984,-6.104769,3.4764435,999.5046,5.759560513301784,999.4949586620858,0,0
9.38,7.725736,-6.0571027000000015,3.3344107000000003,999.5118,5.760994157875262,999.4950540326564,0,0
9.4,7.2142835,-5.6090465,3.6042705,999.4938,5.761938780909211,999.4951337875751,0,0
9.42,7.319417999999999,-5.1895885,2.9745924,999.52094,5.761677579035449,999.4952971613859,0,0
9.44,7.4054475,-5.170522,2.8657007,999.4993,5.760399427982879,999.4954559287042,0,0
9.46,7.9312053,-5.1323895,4.290755,999.512,5.7600981901347,999.4956557741632,0,0
9.48,7.959877,-5.10379,4.6789755999999985,999.52435,5.761023290851883,999.495935656824,0,0
9.5,7.061253,-5.0370574,4.499066,999.5239,5.761409922860488,999.4962836327783,0,0
9.52,7.1138163,-4.8940606,4.740519,999.49115,5.761484184219432,999.4965726232537,0,0
9.54,7.238085000000001,-4.6652656,4.589018,999.4914,5.761089558748492,999.4968093537938,0,0
9.56,7.352792999999999,-4.6509657,4.456454,999.50116,5.760318369460507,999.4970341912256,0,0
9.58,7.4627146999999985,-4.8606940000000005,4.1771226000000015,999.5135,5.759345646496362,999.4972921344915,0,0
9.6,7.625207400000002,-5.165753,3.774696,999.4887,5.758440983230986,999.4974891214777,0,0
9.62,7.261928599999999,-5.637642,3.7320852,999.5239,5.757533828684031,999.4977582583408,0,0
9.64,7.2055554000000015,-5.470836599999998,3.5759401,999.487,5.756224781506888,999.4979573379434,0,0
9.66,7.984677,-4.984648,3.7179732,999.5141,5.755380822716017,999.4981913582635,0,0
9.68,8.022923,-5.2754080000000005,3.7274432,999.5232,5.7553239842780775,999.4984881697287,0,0
9.7,7.7934966,-5.4660707,3.7700531,999.4936,5.755835216159562,999.4987328349283,0,0
9.72,7.454139,-5.8426290000000005,3.8173978,999.52435,5.756789964596732,999.4990412428928,0,0
9.74,7.301193700000002,-5.8902946,3.5333345,999.47144,5.757744342112257,999.4992143876958,0,0
9.76,7.286859,-5.728232,3.547538,999.4808,5.7584874658224185,999.499301086648,0,0
9.78,7.286867599999999,-5.5375695,3.4386475,999.49005,5.758734401668954,999.4993443899305,0,0
9.8,7.439833,-5.3755074,3.3534293,999.49854,5.758531945257977,999.4993797569067,0,0
9.82,7.654933,-5.761598,4.2056227,999.4887,5.759369962618456,999.4993725600424,0,0
9.84,7.664497,-5.723466,4.4612813,999.5052,5.7613146204608485,999.4993871796768,0,0
9.86,7.932183,-4.5222940000000005,3.410245,999.50287,5.762550566150331,999.4994126357386,0,0
9.88,7.932183,-4.5222940000000005,3.410245,999.4975,5.763155844377018,999.4994282432266,0,0
9.9,8.634827,-4.6795907,3.3202922,999.49554,5.764491559865898,999.4994280363272,0,0
9.92,8.692186999999999,-4.474629,2.8989308,999.49304,5.7661138386901785,999.4994048565802,0,0
9.94,7.5450434999999985,-5.809265,3.6280296,999.4854,5.767968969172339,999.4993339574719,0,0
9.96,7.1961308000000015,-5.489906,3.9973142,999.4953,5.769408885738372,999.4992567887732,0,0
9.98,7.9370084,-5.103815,3.3108265,999.50287,5.770696619807862,999.4992016100713,0,0
10.0,7.702802,-5.04185,2.9084024,999.4975,5.771126761395147,999.4991467283737,0,0
10.02,7.6693606,-5.513739599999999,3.1356554,999.50037,5.771416712635177,999.4991026386839,0,0
10.04,7.7793,-5.2992444,2.7900443,999.49286,5.7713011611793945,999.4990412075348,0,0
10.06,7.889240299999999,-5.284945,2.8563266,999.4808,5.77103263593834,999.4989212586239,0,0
10.08,7.9179273,-5.3373775000000006,3.3960493,999.50775,5.771084451270733,999.4988470552356,0,0
10.1,8.2525215,-4.8988543,3.708521,999.5152,5.7717388577894,999.4988403597227,0,0
10.12,7.9036092999999985,-5.0990505,2.6858904,999.5002,5.7718696821736835,999.4988393382724,0,0
10.14,7.9847565,-5.0513816,2.468098,999.4978,5.77150368490001,999.4988346941012,0,0
10.16,7.870044999999998,-5.003716000000002,2.4823012,999.487,5.770461543344903,999.4987879856128,0,0
10.18,7.979984799999999,-5.1753125,2.8610544,999.52997,5.769410845654491,999.4988589692442,0,0
10.2,8.199862,-4.922685,2.3970830000000003,999.48987,5.768205876066644,999.4988893300915,0,0
10.22,8.199862,-4.922685,2.3970830000000003,999.5145,5.766868929720742,999.4989723553481,0,0
10.24,8.276344,-5.1657796,3.1356506,999.5043,5.766226330221789,999.4990648959854,0,0
10.26,8.089935,-5.218212,3.1309166,999.52637,5.765940815779724,999.4992449632671,0,0
10.28,7.946544599999998,-5.222978,2.8468528,999.4943,5.76556259732688,999.4993862688492,0,0
10.3,7.784037599999999,-5.094281700000002,2.856322,999.4943,5.764698860256576,999.4994928158935,0,0
10.32,7.8174977,-5.0990486,3.0504330000000004,999.49927,5.763591783995535,999.4995861587249,0,0
10.34,7.7840414,-5.037083,3.1687932,999.4918,5.762229820731876,999.4996406062794,0,0
10.36,7.908321400000001,-5.0990486,2.9368079,999.4917,5.7607704098263035,999.499660129956,0,0
10.38,7.860529,-5.04185,3.0030901,999.5133,5.759130809038801,999.4997264846086,0,0
10.4,8.013485000000001,-4.917919,2.917871,999.5018,5.7574107711231735,999.4997925802353,0,0
10.42,8.20946,-4.8511877,3.1214507,999.48926,5.756018669437134,999.4998130650418,0,0
10.44,8.247705,-4.9322195,3.2398114,999.5337,5.755145425872482,999.4999531583827,0,0
10.46,8.132992,-4.8178220000000005,3.2066705,999.5188,5.754402437107049,999.5001447934887,0,0
10.48,8.104315,-4.689125,3.1687956,999.48846,5.753575234408867,999.500272057012,0,0
10.5,8.199914,-4.6462264000000015,3.3439689,999.49603,5.752916902594972,999.5003692356556,0,0
10.52,7.865332,-4.8416553,3.6185648,999.49286,5.7522422661975074,999.5004280694568,0,0
10.54,7.6550245,-5.108582,3.310829,999.5155,5.75126651730108,999.5005343139536,0,0
10.56,7.779305,-4.984652,3.3913142999999994,999.47363,5.750156040207715,999.5005313360604,0,0
10.58,7.588116599999998,-5.2086806,3.1830008,999.5057,5.748715670944914,999.5005473119844,0,0
10.6,7.4208255,-5.213446599999998,2.7947798,999.49207,5.7464721099301554,999.5005309099877,0,0
10.62,7.9752884,-4.7129583,2.9131403,999.47815,5.743986341399253,999.5004358459073,0,0
10.64,8.0995655,-4.7129583,3.069376,999.5082,5.741606919775384,999.5003797982408,0,0
10.66,7.8029947,-5.394571,2.993605,999.50507,5.739509858877607,999.5003471592488,0,0
10.68,7.927262299999999,-5.161009,3.34395,999.52783,5.737847695006323,999.5004172576623,0,0
10.7,7.92726,-4.96558,3.0882921000000003,999.51184,5.736197018435184,999.5005203184927,0,0
10.72,7.970267999999999,-5.0847440000000015,3.4765124,999.50256,5.7350245709039775,999.5006187258963,0,0
10.74,7.970267999999999,-5.0847440000000015,3.4765124,999.50464,5.7342789073635645,999.5007201552646,0,0
10.76,8.309626,-4.9322143,3.2587292000000003,999.4971,5.734172447146353,999.5007967456957,0,0
10.78,8.395660000000001,-4.779684,3.211385,999.4971,5.734595425948813,999.5008511127157,0,0
10.8,8.376536,-5.0466113,3.310807,999.4948,5.735783775646478,999.5008773674092,0,0
10.82,8.056283,-5.2086739999999985,3.6848245,999.4795,5.737544836137438,999.5008236075336,0,0
10.84,7.898544999999999,-4.9560466,3.310806,999.5095,5.739012100412379,999.5008073403204,0,0
10.86,7.8268433,-5.008478,3.1119606,999.4995,5.740015842955628,999.5007882601857,0,0
10.88,7.487472,-5.508967,3.253992,999.51154,5.740709097982805,999.5008101072417,0,0
10.9,7.477905000000002,-5.6567297,3.2066474,999.4887,5.741251829477304,999.5007858149144,0,0
10.92,7.487462,-5.570932,2.946255,999.4819,5.741403973055522,999.5006963612803,0,0
10.94,7.6356306,-5.251572,2.5532987,999.514,5.740848671442538,999.5006652131487,0,0
10.96,7.807696000000001,-5.094276,3.0788171,999.5016,5.7400970439369035,999.5006410558923,0,0
10.98,7.874608,-4.9751115,3.362881,999.49304,5.739351633694628,999.5005923467394,0,0
11.0,7.874608,-4.9751115,3.362881,999.4913,5.738614400503127,999.5005158548836,0,0
11.02,8.075353,-5.0609097,3.651679,999.5291,5.738516381250906,999.5005511696021,0,0
11.04,7.8506966,-5.4565334000000005,3.5522559,999.51154,5.738969958954253,999.5006219334767,0,0
11.06,7.6260386,-5.5184989999999985,3.3676136,999.49365,5.739489977391415,999.500659361476,0,0
11.08,7.6260386,-5.5184989999999985,3.3676136,999.51355,5.7400668307946034,999.5007388391548,0,0
11.1,7.951057,-5.0084767,2.9320476,999.50775,5.740372320681383,999.5008343058107,0,0
11.12,8.147026,-4.9560447,3.022001,999.5035,5.740768680129354,999.5009282566472,0,0
11.14,8.089663999999999,-5.032309,3.2776582000000003,999.50287,5.741393065203444,999.5010182618823,0,0
11.16,8.004008,-4.908388,3.6469767,999.51025,5.742211219971758,999.5011310247653,0,0
11.18,7.8749647,-4.956054,3.5333521,999.4748,5.742949093587821,999.5011358703592,0,0
11.2,7.6551037,-5.0752180000000005,3.3581800000000004,999.5004,5.743252473803611,999.501137502793,0,0
11.22,7.6933570000000016,-5.1133513,3.5191510000000004,999.51514,5.7433909757604376,999.5011893542012,0,0
11.24,7.774624,-4.979888,3.2966352,999.53955,5.7432136856519165,999.5013732684306,0,0
11.26,7.846325999999999,-4.956055,3.2445571,999.52014,5.742815436586188,999.5016033352772,0,0
11.28,8.018419,-5.0180206,3.4670758000000004,999.4977,5.742728929022091,999.501792570336,0,0
11.3,8.018419,-5.0180206,3.4670758000000004,999.4881,5.742918187676067,999.5019104851804,0,0
11.32,7.956297,-5.2086835,3.206685,999.50226,5.743269784021736,999.5020159329904,0,0
11.34,7.827252400000001,-5.1181192000000015,3.0267787,999.53955,5.743335268898373,999.5022442293167,0,0
11.36,7.918073700000001,-5.0704536,3.1356704,999.48303,5.743317788945031,999.5023767807253,0,0
11.38,7.8989644,-5.1324190000000005,3.2824379999999995,999.51917,5.743359999750836,999.5025543587387,0,0
11.4,7.894195,-4.975123,3.2303605,999.51904,5.743244926410357,999.5027706149804,0,0
11.42,7.918104,-5.046622,3.254033,999.50433,5.7431222287792885,999.5029673127814,0,0
11.44,7.78428,-5.070455,3.3771286,999.4867,5.742883770984808,999.5030825526325,0,0
11.46,7.8081884000000015,-5.079988,3.3581922,999.4965,5.742579811700536,999.5031606813752,0,0
11.48,7.769961,-4.9941900000000015,3.4670842000000004,999.5084,5.742143720028619,999.5032485774794,0,0
11.5,7.693499,-5.065689,3.6138523,999.51154,5.741653047037362,999.5033560915982,0,0
11.52,7.7652009999999985,-5.041857,3.5333679,999.52264,5.741146588258082,999.5035205131436,0,0
11.54,8.075903,-5.0227904,3.235102,999.52856,5.74091038641233,999.503755938174,0,0
11.56,8.114147,-4.813062,3.291915,999.48816,5.740802548205634,999.5039078143536,0,0
11.58,8.152395,-5.0275574,3.3818696000000004,999.50085,5.7411523520869965,999.504031004014,0,0
11.6,8.042465,-5.1562543,3.3155885,999.50574,5.741811590458848,999.5041460067836,0,0
11.62,8.152416,-5.237286599999999,3.1025417,999.4902,5.7428705023512805,999.5041974176061,0,0
11.64,7.994688000000001,-5.3183184,3.1356828,999.4985,5.7441265479254415,999.5042223335056,0,0
11.66,7.961309399999998,-5.127658,2.9510486,999.4852,5.745173521485371,999.5041758687938,0,0
11.68,7.8848449999999985,-5.2182226,3.093082,999.5104,5.746093063051617,999.5041572194467,0,0
11.7,7.7749224,-5.141958,3.3582098,999.5151,5.7468128436717025,999.504180134894,0,0
11.72,7.9661274,-4.7558669999999985,3.2019752999999995,999.5003,5.747159973498919,999.5041864144972,0,0
11.74,7.6076546,-4.9608292999999986,3.2682583,999.51965,5.746838942148254,999.5042476320624,0,0
11.76,7.6554656,-5.060928,3.6470118,999.4625,5.746391904389122,999.5041514324276,0,0
11.78,7.4260410000000014,-5.0275617,3.3676825,999.5098,5.745220174419061,999.5040867652735,0,0
11.8,7.5359955,-5.5947830000000005,3.5523260000000003,999.5077,5.7443604967991355,999.5040426330212,0,0
11.82,8.047447,-5.423187,3.9784234,999.4827,5.744720291540915,999.5039268042843,0,0
11.84,8.109591499999999,-5.0942945,3.471843,999.5123,5.745530090580248,999.5038546015168,0,0
11.86,8.133509,-4.8178344000000015,2.657527,999.4921,5.7459717361141935,999.503748486586,0,0
11.88,8.04748,-5.0227966,2.884779,999.4966,5.746284955618246,999.5036289888817,0,0
11.9,7.84674,-5.0942955,3.3392832,999.48425,5.7465214370912685,999.5034536363498,0,0
11.92,7.865877999999999,-5.180094,3.6848962,999.5168,5.747063531513872,999.5033467417619,0,0
11.94,7.947141,-5.0609307,3.6706939,999.48425,5.747869623158254,999.5031835414337,0,0
11.96,7.9806127999999985,-4.9512997,3.4339747000000003,999.50635,5.748673929044691,999.5030507368747,0,0
11.98,7.741641,-5.1419625,3.500258,999.4938,5.749330565549141,999.5029000881135,0,0
12.0,7.732094999999998,-5.265893,3.429243,999.48596,5.7499222693305985,999.5027059905507,0,0
12.02,7.751225999999999,-5.2420607000000015,3.3345563,999.5032,5.750392351112403,999.5025362643787,0,0
12.04,7.870727499999999,-5.208695,3.34876,999.50635,5.7509213448181775,999.502400023781,0,0
12.06,7.8086023,-5.189628599999999,3.216198,999.49335,5.751287435070523,999.5022470615033,0,0
12.08,7.69868,-5.2372947,3.310887,999.4608,5.751446362794522,999.5019626946132,0,0
12.1,7.7799497,-5.227762,3.471858,999.4787,5.75165693363566,999.5016276823288,0,0
12.12,7.760849,-5.141965,3.5476103,999.4959,5.751844188190347,999.5013110458176,0,0
12.14,7.7560444,-5.132430599999998,3.4955297,999.4966,5.751953831937692,999.5010143060316,0,0
12.16,7.6986979999999985,-5.165797,3.386639,999.50616,5.751858913884172,999.5007706312547,0,0
12.18,7.7560673,-5.1038322,3.4955318,999.5081,5.751688573316812,999.5005817059496,0,0
12.2,7.698721000000001,-5.127665,3.4150476000000003,999.5058,5.7513262605124975,999.5004335574084,0,0
12.22,7.674833299999999,-5.256363,3.419783,999.5076,5.7509009114880785,999.5003284525508,0,0
12.24,7.7369823,-5.1943974000000015,3.4718628,999.5132,5.750491441321553,999.5002819194693,0,0
12.26,7.789572,-5.118133,3.4481916,999.485,5.7500834942353345,999.5001857879283,0,0
12.28,7.866060000000001,-5.003736,3.4008486,999.5099,5.749648568678608,999.5001358172624,0,0
12.3,7.856505999999999,-5.046635,3.448193,999.5096,5.7492546521041294,999.5001257342398,0,0
12.32,7.7274685,-5.103834,3.5097423,999.4923,5.74879350507391,999.5000886522377,0,0
12.34,7.7083607,-5.1991653,3.5050087,999.5021,5.748343131678675,999.5000631274327,0,0
12.36,7.75139,-5.1562667,3.5002754,999.48975,5.7479235344311,999.5000034464563,0,0
12.38,7.8278785000000015,-5.099068,3.3913853,999.4903,5.7475174444990635,999.4999157799381,0,0
12.4,7.8326697,-5.089535700000001,3.4576678,999.4847,5.747169861886415,999.4997835409947,0,0
12.42,7.8326755000000015,-5.070469,3.462403,999.4936,5.746858437410497,999.4996444339172,0,0
12.44,7.7896743000000015,-5.1372013,3.4718730000000004,999.5015,5.746587920694088,999.499528198941,0,0
12.46,7.741887599999999,-5.103836,3.4766088,999.51733,5.746244527737922,999.4994895802,0,0
12.48,7.789697,-5.0704699999999985,3.4387343,999.4843,5.7458527859297135,999.4994007741916,0,0
12.5,7.674993,-5.1419690000000005,3.5523612,999.4917,5.745393573564828,999.4992945824156,0,0
12.52,7.6750045,-5.1419690000000005,3.4671428,999.48627,5.744813511500712,999.4991538628656,0,0
12.54,7.780172,-5.127669999999998,3.410331,999.4837,5.7442430042637955,999.4989738891647,0,0
12.56,7.832766499999999,-5.108604,3.4908175000000004,999.4942,5.743806363214308,999.4987976784018,0,0
12.58,7.832766499999999,-5.108604,3.4908175000000004,999.50354,5.743489578235807,999.4986590509295,0,0
12.6,7.9474936,-5.0132732,3.405599,999.49585,5.743306660875197,999.4985264471117,0,0
12.62,8.062225999999999,-4.913176,3.3440535,999.5093,5.74328712321116,999.4984480631683,0,0
12.64,7.966635000000001,-4.9656080000000005,3.4671485,999.4913,5.743393767156646,999.4983530700888,0,0
12.66,7.8088527,-5.0466385,3.5286913,999.5003,5.743481591520985,999.4982761431515,0,0
12.68,7.8088570000000015,-5.0514054,3.5381606,999.4904,5.743564497476803,999.4981798163943,0,0
12.7,7.7945266,-4.994207,3.4908173,999.5053,5.743524301859388,999.4981203347327,0,0
12.72,7.9092509999999985,-5.018039,3.4671462,999.4828,5.74357154984195,999.4980126235312,0,0
12.74,7.923595,-4.9894404,3.4434748,999.4806,5.743672710570591,999.4978547644687,0,0
12.76,7.8662505,-5.0323395999999985,3.4482102,999.4884,5.74377495821671,999.4976812430493,0,0
12.78,7.8471354999999985,-5.094305,3.452945,999.50006,5.743915328124891,999.4975364830483,0,0
12.8,7.746773200000002,-4.956075,3.3771956,999.4934,5.743723883910952,999.497393681772,0,0
12.82,7.7611175,-4.9608417000000005,3.4008682,999.49713,5.743285518498008,999.4972665533099,0,0
12.84,7.63208,-5.0704727,3.4482136,999.4948,5.7425709525559725,999.4971453430092,0,0
12.86,7.7850432,-5.08954,3.5050275,999.47296,5.741925365248644,999.4969511743524,0,0
12.88,8.000143,-5.065706700000002,3.4008712999999995,999.49786,5.741595995841831,999.4967828786996,0,0
12.9,8.000143,-5.065706700000002,3.4008712999999995,999.4948,5.741547222301774,999.4966270342976,0,0
12.92,7.8041839999999985,-5.199171,3.3487940000000003,999.49457,5.741530756165518,999.4964819248604,0,0
12.94,7.832872,-5.032342,3.301451,999.4828,5.7413780537145875,999.4963044512323,0,0
12.96,7.832876,-5.013275599999999,3.3487954,999.4766,5.7411184987550055,999.4960766995099,0,0
12.98,7.7516327,-5.1848717,3.552376,999.482,5.740963095133465,999.4958247819699,0,0
13.0,7.8663615999999985,-5.1562730000000006,3.4529548,999.4643,5.740983381740527,999.4954886984166,0,0
13.02,7.9141636,-5.080008,3.4245489,999.48724,5.741135828449607,999.4951620396744,0,0
13.04,7.737319999999999,-5.1181410000000005,3.2967205,999.4745,5.741065504929455,999.494799020667,0,0
13.06,7.708646000000001,-5.137207,3.30619,999.4741,5.740779074203367,999.4944037405977,0,0
13.08,7.761232400000001,-5.232538,3.4150817000000004,999.4913,5.740568721353228,999.4940432976622,0,0
13.1,7.7516820000000015,-5.2754379999999985,3.4576926,999.4864,5.740488365067956,999.4936972944126,0,0
13.12,7.852067,-5.1515074,3.4860995000000004,999.4766,5.740572127124809,999.4933300156821,0,0
13.14,7.852075599999999,-5.103842299999998,3.339334,999.4962,5.7406454017749775,999.4930158201387,0,0
13.16,7.7988615,-5.175325,3.4292295,999.4884,5.740762425314089,999.4927215800043,0,0
13.18,7.770166400000001,-5.203924,3.5286503,999.4786,5.74097409627904,999.4924107517334,0,0
13.2,7.7844887,-5.175324,3.4528985,999.48395,5.741205853257543,999.4921056451668,0,0
13.22,7.774912400000002,-5.1800904,3.4292247,999.4711,5.741427123416302,999.4917604326822,0,0
13.24,7.8083467,-5.1371902999999985,3.4150193,999.4687,5.741636365255243,999.4913723853732,0,0
13.26,7.736625,-5.1848555,3.4150171,999.4938,5.741769068305596,999.4910382461833,0,0
13.28,7.7366166,-5.151489700000001,3.4197507000000007,999.5012,5.741800882558832,999.4907795831093,0,0
13.3,7.803517299999998,-5.175322,3.5191715,999.50604,5.741949708665564,999.4906059659177,0,0
13.32,7.741371000000001,-5.1800885,3.4765613,999.4884,5.7420748008470595,999.4904446162897,0,0
13.34,7.679209700000001,-5.161021,3.5144346,999.4773,5.742085130544019,999.49025472714,0,0
13.36,7.550138499999999,-5.1657877,3.4670887,999.48065,5.741756714178075,999.4900523640697,0,0
13.38,7.54535,-5.1896195,3.467088,999.50287,5.741148691953393,999.4899196995497,0,0
13.4,7.63615,-5.165787,3.5286338,999.48773,5.740460928996846,999.4897945942618,0,0
13.42,7.746069,-5.1133547,3.5617730000000005,999.4951,5.7398506641811515,999.48970315069,0,0
13.44,7.870327,-5.070455,3.5333652,999.4951,5.739446734173763,999.4896417798075,0,0
13.46,7.8942103,-4.970357,3.490754,999.4672,5.7391299908397615,999.489506762088,0,0
13.48,7.846387400000001,-4.9417567,3.4528766,999.48956,5.738755418765904,999.489387652088,0,0
13.5,7.8654899999999985,-5.013255,3.713267,999.4697,5.738631165298754,999.4892115309442,0,0
13.52,7.798564999999999,-5.0752196,3.6895945,999.51483,5.738666500761815,999.4891481367903,0,0
13.54,7.7220710000000015,-5.118119,3.5712328,999.47424,5.738674954128935,999.4890384524234,0,0
13.56,7.7698526,-5.1324177,3.5428247,999.4945,5.738731167220838,999.488961196888,0,0
13.58,7.679011999999998,-5.1991487,3.4197283,999.4872,5.7386648561532585,999.4888865935884,0,0
13.6,7.679011999999998,-5.1991487,3.4197283,999.47925,5.738490521458203,999.4887859823756,0,0
13.62,7.736353,-5.14195,3.4860082,999.48285,5.738300086518129,999.4886757127716,0,0
13.64,7.7036567,-5.184867400000001,3.5381565000000004,999.4943,5.738127997655276,999.4885985259834,0,0
13.66,7.732359,-5.1562686,3.4766114000000004,999.5066,5.73794297288556,999.488595129044,0,0
13.68,7.842302,-5.118137,3.4434712,999.497,5.7378611527685575,999.4886223850436,0,0
13.7,7.784959,-5.146736,3.3393157,999.4912,5.737734026992655,999.4886557478587,0,0
13.72,7.8136606,-5.1372037000000015,3.48135,999.48914,5.737705100869553,999.4886869705499,0,0
13.74,7.8136606,-5.1372037000000015,3.48135,999.51666,5.737763048093708,999.4888152618257,0,0
13.76,7.7133,-5.1562705,3.3629910000000005,999.506,5.737670073303241,999.4889904850546,0,0
13.78,7.703763,-5.2182364,3.6233854,999.4937,5.7376864336391895,999.4891622665533,0,0
13.8,7.86152,-5.0800066,3.4056050000000004,999.49615,5.737747368882622,999.4893392085263,0,0
13.82,7.86152,-5.0800066,3.4056050000000004,999.4911,5.7378474711474325,999.4895018933023,0,0
13.84,7.9284672999999986,-5.1658053,3.5571089,999.4915,5.738291581025321,999.4896528347552,0,0
13.86,7.961933,-5.151506,3.4718902000000003,999.4886,5.7390159696645675,999.4897824164177,0,0
13.88,7.966720599999999,-5.11814,3.353531,999.49316,5.7398745644691775,999.4899090740753,0,0
13.9,7.761211999999999,-5.2659035,3.3535328,999.5003,5.740672261578621,999.4900583961148,0,0
13.92,7.737328,-5.2230053,3.4766288,999.46857,5.7414154314597,999.4901129788433,0,0
13.94,7.780353999999999,-5.1419739999999985,3.438754,999.4851,5.7420624045587685,999.490143161418,0,0
13.96,7.713452,-5.137208,3.4150834000000003,999.4851,5.742491174341287,999.4901516753603,0,0
13.98,7.660889,-5.151508,3.4529602999999995,999.5006,5.742683375200127,999.490196812248,0,0
14.0,7.718261999999998,-5.1944075,3.4292896,999.4851,5.74278813823798,999.490218346678,0,0
14.02,7.8186607000000015,-5.1801080000000015,3.2872596,999.4851,5.742863168168813,999.4902189484523,0,0
14.04,7.852127,-5.1086097000000015,3.3014636,999.4778,5.742899355394249,999.4901747719656,0,0
14.06,7.985977,-4.9227147,3.372481,999.4975,5.742977238583921,999.490162108443,0,0
14.08,7.5844884000000015,-5.2134748,3.2257159,999.48474,5.742641397706323,999.490131399364,0,0
14.1,7.809162,-5.1038446,3.4813757000000005,999.49255,5.74236745770674,999.490112971784,0,0
14.12,7.809162,-5.1038446,3.4813757000000005,999.49457,5.742149199506973,999.4901127344757,0,0
14.14,7.7477589999999985,-5.261158999999998,3.2920668,999.4962,5.741917485030701,999.4901344389464,0,0
14.16,7.7143435,-5.251627,3.2115857999999995,999.49194,5.741554992255669,999.490160117036,0,0
14.18,7.7860837,-5.223029,3.192652,999.487,5.741150901530817,999.4901714297748,0,0
14.2,7.867383500000001,-5.122932,3.3110160000000004,999.4634,5.7408168826098285,999.4900850485637,0,0
14.22,7.8769865,-5.099100599999999,3.4104428,999.49194,5.740606012067477,999.4900153999507,0,0
14.24,7.82443,-5.1515330000000015,3.3441627,999.4691,5.7404280204369424,999.4898785629964,0,0
14.26,7.771895,-5.1706004,3.3062918,999.4716,5.740188164927727,999.4896918510367,0,0
14.28,7.8053966,-5.223033999999998,3.3441708,999.4876,5.740032439302364,999.4895193416857,0,0
14.3,7.767201400000001,-5.232568,3.277893,999.4711,5.739854017898296,999.4893006027928,0,0
14.32,7.8054614,-5.213502,3.1974103,999.4938,5.739643140592103,999.4891235229373,0,0
14.34,7.862862,-5.1944370000000015,3.4104626,999.4589,5.739624175432861,999.4888582504939,0,0
14.36,7.843807000000001,-5.15154,3.263702,999.4861,5.7395954518639085,999.4886139260616,0,0
14.38,7.8581686,-5.1372404000000005,3.287376,999.46716,5.7395826150448075,999.4883208068593,0,0
14.4,7.810413400000002,-5.251638400000001,3.4010055,999.4606,5.739708874047454,999.4879620118272,0,0
14.42,7.7817993,-5.1706085,3.3584018,999.47565,5.739792996827093,999.4876006572944,0,0
14.44,7.800961999999998,-5.18491,3.2968583,999.44507,5.739843470247508,999.487128254063,0,0
14.46,7.786644,-5.180144,3.292126,999.4803,5.739832214660049,999.4866862568532,0,0
14.48,7.829726700000001,-5.170612,3.3820856,999.48315,5.7398892007719216,999.4862829775936,0,0
14.5,7.7341957,-5.208746,3.3489506,999.47015,5.7398689058568895,999.4858685613208,0,0
14.52,7.7342167,-5.237346,3.3915625,999.45734,5.739841805044995,999.485399680281,0,0
14.54,7.805957,-5.142016,3.306347,999.49475,5.739762159014161,999.4850190381457,0,0
14.56,7.8490186,-5.13725,3.2921474,999.4618,5.7396919987148305,999.4845991142172,0,0
14.58,7.7869244,-5.156317700000002,3.4057775,999.44916,5.7396290570742545,999.4841004886232,0,0
14.6,7.7774076,-5.1372523,3.4105158,999.4698,5.739540070199097,999.4836084212891,0,0
14.62,7.75353,-5.108653,3.3537047,999.46234,5.7393183495667275,999.483097064276,0,0
14.64,7.805504300000001,-5.146771,3.3867903,999.4815,5.739129353843571,999.4826394797876,0,0
14.66,7.81508,-5.132472,3.3725886,999.4541,5.738960191018973,999.4821324160067,0,0
14.68,7.7816296,-5.1324725,3.311042,999.4738,5.738711372049687,999.4816543777522,0,0
14.7,7.7912064,-5.1658387,3.3536532,999.4689,5.738474503231352,999.4811860673906,0,0
14.72,7.7482039999999985,-5.1610723,3.3962642999999995,999.4611,5.7382040198105395,999.4806999585126,0,0
14.74,7.843825,-5.1706059999999985,3.448345,999.48596,5.738107869598426,999.4802893688573,0,0
14.76,7.839053,-5.099108,3.4010017,999.4407,5.738048077182414,999.47978405011,0,0
14.78,7.88208,-5.003776599999999,3.3583932,999.46356,5.737960518919972,999.4792791438845,0,0
14.8,7.920343400000001,-5.0371437000000014,3.4767551,999.4687,5.738031097988107,999.4787949238254,0,0
14.82,7.929911,-5.0371437000000014,3.382068,999.48596,5.738189406294197,999.4783928612557,0,0
14.84,7.934707,-5.0848093,3.3583975,999.4761,5.738466150086354,999.4780293444684,0,0
14.86,7.8582550000000015,-5.0609775,3.4341502,999.4632,5.7387492341127935,999.4776547553952,0,0
14.88,7.757903999999999,-5.0800447,3.4104805,999.45294,5.7388760010350754,999.4772347953707,0,0
14.9,7.767472,-5.0705113,3.4862316,999.4657,5.738924497039447,999.4768221934296,0,0
14.92,7.944341,-4.9751806,3.519374,999.47797,5.739117894759282,999.476461750458,0,0
14.94,7.882228,-5.04668,3.4057505,999.4632,5.7393290139695665,999.4760955207466,0,0
14.96,7.820107000000001,-5.056213,3.3726112999999995,999.4597,5.739439540270688,999.475712896299,0,0
14.98,7.7388673,-5.0514474,3.363144,999.4751,5.739315899925238,999.4753726029103,0,0
15.0,7.7388673,-5.0514474,3.363144,999.48004,5.738985795036124,999.4750887223016,0,0
15.02,7.801029700000001,-5.122946,3.4815062999999995,999.46027,5.7387373157512025,999.4747845379956,0,0
15.04,7.810597,-5.0657477,3.5241168,999.48737,5.73854777629908,999.474561068406,0,0
15.06,7.8106217,-5.0037827,3.3631492,999.45294,5.738229357866594,999.4742857748304,0,0
15.08,7.781951400000001,-5.089581,3.3773532,999.45795,5.737852347045712,999.4739837166376,0,0
15.1,7.772417,-5.0276165,3.4152305,999.4394,5.737370442028209,999.4735923166384,0,0
15.12,7.820231,-5.080049,3.3962946000000005,999.4399,5.736917995356464,999.4731251832594,0,0
15.14,7.8252177,-5.103887,3.4910016,999.4721,5.736594847972162,999.472708733546,0,0
15.16,7.954296,-4.994257,3.4199877,999.4645,5.736432801354887,999.4723112071382,0,0
15.18,7.9782076,-4.9751906,3.4199888999999994,999.44965,5.736433524972504,999.4718783724588,0,0
15.2,7.9495524999999985,-4.946592,3.4105225,999.4622,5.736494303656857,999.4714610775951,0,0
15.22,7.7822833,-5.06099,3.4483995000000003,999.4669,5.736479585550972,999.471075935974,0,0
15.24,7.7871,-5.2135205,3.5099502,999.4721,5.736614353205698,999.4707393114684,0,0
15.26,7.7632127,-5.237354,3.4247322,999.4694,5.736806508733686,999.4704370485339,0,0
15.28,7.806255,-5.1944550000000005,3.3773901,999.46655,5.737038318614579,999.4701559756302,0,0
15.3,7.8684287,-5.0037937,3.3442526,999.4458,5.737179599408681,999.4698199381004,0,0
15.32,7.811082400000001,-5.0895925,3.438942,999.43646,5.737304183378563,999.4694029195616,0,0
15.34,7.763309,-5.2325897,3.6046484,999.46155,5.737611239051678,999.4690061714704,0,0
15.36,7.8302502999999986,-5.099126999999998,3.5620408,999.4541,5.738011975776493,999.4686019426396,0,0
15.38,7.6821009999999985,-5.046695,3.3726668,999.473,5.738058904962388,999.4682605990514,0,0
15.4,7.749042,-5.1181936,3.4862947,999.47833,5.738060792258959,999.4679952377004,0,0
15.42,7.835102,-5.203993,3.5336410000000003,999.46155,5.738289266727942,999.4677375615546,0,0
15.44,7.9689727,-5.108662000000002,3.4105496,999.4931,5.738745845765866,999.4676011836908,0,0
15.46,7.949866,-5.0514636,3.4247541,999.4557,5.7393207634161305,999.4674378359488,0,0
15.48,7.868645699999999,-5.070531,3.4152884,999.48535,5.7398779055344376,999.4673579856748,0,0
15.5,7.6870365,-5.256428,3.5904639,999.44073,5.74045088384412,999.4671915692244,0,0
15.52,7.644031,-5.294560400000001,3.5904648,999.4776,5.7410090169820895,999.4670819939992,0,0
15.54,7.8304667000000014,-5.1992292,3.4437008,999.4681,5.741640689447312,999.466988838152,0,0
15.56,7.9643134999999985,-5.0752997,3.4200294,999.4527,5.742405365451658,999.4668550858279,0,0
15.58,7.787485,-5.0228677,3.3490157,999.4483,5.742888337819553,999.4666701039656,0,0
15.6,7.4959526,-5.146799,3.4010975,999.4778,5.742818505198286,999.4665467216178,0,0
15.62,7.472065400000001,-5.2087650000000005,3.396364,999.46747,5.742287420764054,999.4664410247774,0,0
15.64,7.744539,-5.251664,3.6188836,999.44257,5.741998402842602,999.46626169536,0,0
15.66,8.034798,-4.965639,3.3725746,999.43756,5.741917646683366,999.4659999137832,0,0
15.68,8.077802,-4.9465723,3.0743058,999.45764,5.741873646295179,999.4657385078926,0,0
15.7,7.7049210000000015,-5.2182646,3.476725,999.46967,5.741811386088675,999.4655216830192,0,0
15.72,7.523275,-5.0562015,3.457786,999.46655,5.741250257679887,999.465333798502,0,0
15.74,7.6714205999999985,-4.8178730000000005,3.254204,999.48224,5.740092405943718,999.4652286460682,0,0
15.76,7.470639999999999,-5.2182629999999985,3.6850326,999.45166,5.738835346605207,999.4650868862517,0,0
15.78,7.4610534,-5.3946247000000005,3.8554685,999.4625,5.737811333514506,999.4649523144876,0,0
15.8,7.881634,-5.037132,3.3110082000000003,999.4524,5.736873884159082,999.4647882185443,0,0
15.82,7.881634,-5.037132,3.3110082000000003,999.48224,5.736016297337833,999.4647060497824,0,0
15.84,8.163615,-4.727305,3.1784422,999.4521,5.735299170129366,999.4645880636847,0,0
15.86,8.220958,-4.80357,3.2163162,999.4724,5.734907036891823,999.46451193414,0,0
15.88,7.981926,-4.9513316,3.528783,999.46686,5.7347699508568395,999.4644531191112,0,0
15.9,7.762013400000002,-5.0704947,3.6092641,999.46967,5.734682566645372,999.464419930923,0,0
15.92,7.8336825,-4.984696,3.5051045,999.4742,5.734588583970371,999.4644258140885,0,0
15.94,7.881467,-4.9656296,3.552447,999.4709,5.734582650234,999.4644543195227,0,0
15.96,7.8527603,-4.913197,3.4435537000000003,999.4488,5.73447325862504,999.4644231513744,0,0
15.98,7.9148693,-5.01806,3.5098326,999.45654,5.73453217027788,999.4643672318533,0,0
16.0,7.972199400000001,-4.9513273,3.4530172,999.46716,5.734723991916604,999.46432787533,0,0
16.02,8.034309,-4.917961,3.4198737,999.4546,5.735077934965673,999.4642580795547,0,0
16.04,7.843089,-4.989459,3.4908872000000004,999.48846,5.735382483930549,999.4642835349214,0,0
16.06,8.015134,-4.689165,3.3109772000000004,999.4589,5.7354950501035935,999.4642866465576,0,0
16.08,8.005546,-4.7606626,3.642383,999.42615,5.735733380897022,999.4641521040717,0,0
16.1,7.957734599999998,-4.655798,3.7228668,999.4652,5.735961308694823,999.4640369947563,0,0
16.12,8.153651,-4.341204,3.4482663,999.4709,5.7360067665626975,999.4639599909843,0,0
16.14,8.1256485,-4.512817,3.642439,999.47864,5.736146454888153,999.463944798484,0,0
16.16,7.7767234,-4.2935553,3.8980968,999.4176,5.735782670610321,999.463764533116,0,0
16.18,7.896219,-4.050461,3.9549098,999.4455,5.7350064366767155,999.4635394983176,0,0
16.2,7.924897,-4.555715599999999,3.9880502,999.4728,5.734403269583592,999.4633739953757,0,0
16.22,7.6859074,-4.4794507,4.1064105,999.4619,5.733591268133353,999.4632224505928,0,0
16.24,7.618989999999998,-4.3030887,4.362068,999.443,5.7325543388586615,999.4630157448007,0,0
16.26,7.733705499999999,-4.284022,4.3052554,999.44965,5.731439516286487,999.4627849828813,0,0
16.28,7.7862835000000015,-4.3602867,4.1442857,999.4451,5.730272045785861,999.4625174157112,0,0
16.3,7.838861,-4.2029905,4.1348166,999.48236,5.728998381900669,999.4623524266632,0,0
16.32,7.9726954,-3.9551296,4.5372415,999.44476,5.728011714989848,999.462143309604,0,0
16.34,7.848420599999999,-4.23159,4.6792736,999.45776,5.727448615244468,999.4619427538562,0,0
16.36,7.623769800000002,-4.131492,4.475694,999.457,5.726614332288009,999.4617477488837,0,0
16.38,7.8054023,-4.0790606,4.778696,999.4546,5.726087379480108,999.4615497105935,0,0
16.4,7.6859074,-4.131492,4.8781184999999985,999.4349,5.725786060492034,999.4612787850025,0,0
16.42,7.5998706999999985,-4.207757,5.081698,999.42914,5.7258249068001765,999.4609236955243,0,0
16.44,7.451697,-4.3030887,4.9159937000000005,999.494,5.725844151233826,999.4607290131572,0,0
16.46,7.6094303,-4.1600914,5.0059476,999.4622,5.726060694159247,999.4605622873703,0,0
16.48,7.757604,-4.088593,5.124307599999999,999.4664,5.72674820912309,999.4604359842308,0,0
16.5,7.4421372,-4.255422599999998,4.9444003,999.4541,5.727308935793746,999.4603015732332,0,0
16.52,7.509053999999999,-4.198224,4.7360864000000005,999.4685,5.7275975304991285,999.4602123220121,0,0
16.54,7.3847795,-4.2935553,5.048557,999.48083,5.727856868461957,999.4602076832739,0,0
16.56,7.3417616,-4.2744894,5.0959010000000005,999.4263,5.728056237854386,999.4600815168253,0,0
16.58,7.3513207,-4.2601895,5.2474017,999.4689,5.728367550402014,999.4600017826905,0,0
16.6,7.13623,-4.455618,5.1148386,999.4589,5.728484625252843,999.4599273631912,0,0
16.62,7.193587299999999,-4.350754,5.0911665,999.4608,5.728393398483803,999.4598647476145,0,0
16.64,7.117673399999998,-4.5271300000000005,5.0722804,999.4288,5.728148819152173,999.4596975873993,0,0
16.66,7.1607146,-4.493765,5.053344999999998,999.45593,5.727782478342072,999.4595363213184,0,0
16.68,7.2420053,-4.512832,4.9633946,999.43066,5.727356402479317,999.4592898718524,0,0
16.7,7.394971000000001,-4.4127345,5.181178,999.4509,5.7272499640224135,999.459041905566,0,0
16.72,7.3854337,-4.4318013,5.327947,999.44885,5.727588070613887,999.4587861116953,0,0
16.74,7.031751,-4.7273283,5.23326,999.478,5.727966739160317,999.4586292622287,0,0
16.76,7.1082625,-4.803594,5.048622,999.46576,5.728370525709277,999.458516340696,0,0
16.78,7.156083,-4.7130303,5.110171299999998,999.4879,5.728841513986462,999.4585223444034,0,0
16.8,7.156083,-4.7130303,5.110171299999998,999.46326,5.729370186152912,999.4585447048394,0,0
16.82,7.093969,-4.8131285,5.0391574,999.4602,5.729879864013956,999.4585704215832,0,0
16.84,7.180039,-4.7034984,5.114911,999.46246,5.730470433060769,999.4586071473801,0,0
16.86,7.041448,-4.8464956,5.006022,999.4699,5.7309520031242265,999.4586802525639,0,0
16.88,7.1753054,-4.6891994000000015,5.162259,999.4423,5.731543429310879,999.458685879395,0,0
16.9,7.060612700000001,-4.7035,4.991823,999.4643,5.731891678798458,999.4587110620973,0,0
16.92,7.098862599999999,-4.7225660000000005,5.0486364,999.4674,5.7321597295940485,999.4587645937092,0,0
16.94,6.998521,-4.8417315,5.2143440000000005,999.45465,5.7325049530093395,999.4587970817039,0,0
16.96,7.1036990000000015,-4.7607,5.1149235,999.4699,5.732883588880853,999.4588657586024,0,0
16.98,7.0272455,-4.741635,5.077050700000001,999.4799,5.733117839041117,999.4590021647788,0,0
17.0,6.9842386,-4.8131332,5.1054583,999.48914,5.733262523983358,999.459231189483,0,0
17.02,7.01294,-4.827433,5.10546,999.47437,5.733384114830511,999.4594880554297,0,0
17.04,7.0846715,-4.7178035000000005,5.0865254,999.47394,5.733460961556963,999.4597670491803,0,0
17.06,6.917389999999998,-4.898933,5.1670113,999.4699,5.733521548218755,999.4600500466812,0,0
17.08,7.103836,-4.879868,5.1906867,999.4847,5.733845501797295,999.4603888431053,0,0
17.1,7.1755447,-4.870335,5.2711725,999.46936,5.734583350072778,999.4607204997902,0,0
17.12,7.0990906,-4.7988367,5.0107822,999.4815,5.735222494019845,999.4610883578376,0,0
17.14,7.046536,-4.9132347,5.0107846,999.4669,5.7358105763552585,999.4614343191204,0,0
17.16,7.0888314,-4.9227504999999985,4.906561,999.4645,5.73631563700662,999.4617510469608,0,0
17.18,6.974107000000001,-4.9704156,4.94917,999.476,5.7366698183734846,999.4620822039116,0,0
17.2,7.064919500000001,-4.9322834,5.0864677,999.45624,5.737127076125997,999.4623537822594,0,0
17.22,7.060133500000001,-4.917983,5.0201855,999.4684,5.737582334950972,999.4626155152713,0,0
17.24,7.050567599999999,-4.8989167,5.110139,999.4684,5.738095554940731,999.4628676067056,0,0
17.26,6.9501853,-4.9370494,5.058059,999.4634,5.738495248434639,999.4630922713127,0,0
17.28,6.9931974000000015,-4.8893833,5.067528,999.4914,5.738816998983616,999.4633926927827,0,0
17.3,6.9549494,-4.922749,4.9444323,999.4912,5.738917529302776,999.4637582514998,0,0
17.32,6.9549494,-4.922749,4.9444323,999.5031,5.738822227517719,999.4642228894768,0,0
17.34,6.9549365000000005,-4.8750834,5.1196046,999.4634,5.738690465479897,999.4646304811913,0,0
17.36,6.9979515,-4.8893830000000005,5.176416400000001,999.5006,5.738665320383534,999.4651201194977,0,0
17.38,7.0361805,-4.8178844000000005,5.110134,999.4981,5.738646915600441,999.4656714914751,0,0
17.4,7.0074954,-4.875083,5.133805799999998,999.5109,5.738675686048782,999.4663215063847,0,0
17.42,7.0839690000000015,-4.8178844000000005,5.1338053,999.5031,5.738800548557808,999.4670282621364,0,0
17.44,6.907109700000001,-5.013313,5.1006637,999.4606,5.738916809160916,999.4676296097746,0,0
17.46,6.907103500000002,-5.0323787000000015,5.039116,999.48236,5.738979781085978,999.4682139899527,0,0
17.48,7.00747,-4.956114,4.9254894,999.48303,5.738943265393808,999.468783685914,0,0
17.5,7.002687,-4.994246,5.0154432999999985,999.47034,5.738945303449587,999.4692926719963,0,0
17.52,7.0217967,-4.9322805,5.058052,999.5002,5.7389899698109215,999.4698536784794,0,0
17.54,7.0743713,-4.870315,5.020176,999.47284,5.739046246397686,999.4703601345652,0,0
17.56,7.0887074000000005,-4.884615,5.0769887,999.46265,5.739208066262514,999.4707798826782,0,0
17.58,6.978762599999999,-5.008545,5.10066,999.4881,5.73945427589293,999.4712131245333,0,0
17.6,6.9596399999999985,-5.008545,5.110128400000002,999.4501,5.739756489008348,999.4715199297881,0,0
17.62,7.055227,-4.9704127,5.1148615,999.4827,5.740211730292423,999.471831271164,0,0
17.64,6.9563313,-5.046714,5.0297785,999.46515,5.740646197035673,999.4720823198276,0,0
17.66,7.090192299999999,-4.960916,5.0913277,999.49994,5.741231672261912,999.4724044340753,0,0
17.68,7.171502,-4.908485400000001,4.987175499999998,999.47003,5.741906244113865,999.4726805062616,0,0
17.7,6.951685,-5.0800824,5.0724,999.48944,5.7426017386224215,999.4729847778232,0,0
17.72,6.9756637,-4.9656873,4.7930769999999985,999.49927,5.742938483700107,999.4733482589747,0,0
17.74,7.047414,-4.9227896,4.9777239999999985,999.4845,5.7432081815450635,999.473709577188,0,0
17.76,6.9757440000000015,-4.93709,4.935117,999.46924,5.743282645097755,999.4740127474837,0,0
17.78,6.951925,-4.970458,5.214454,999.5172,5.743480628185111,999.4744361028654,0,0
17.8,6.9998016000000005,-4.9132614000000014,5.171852,999.49927,5.743751733840762,999.4748995817107,0,0
17.82,6.9807362999999985,-4.8941965,5.0771685,999.4673,5.743937878664237,999.4752817531239,0,0
17.84,7.0333405,-4.8846636,5.077171,999.4964,5.744115619742763,999.4756954654738,0,0
17.86,6.9282384000000015,-4.9799967,5.0724415999999986,999.4714,5.744225187013015,999.4760455580304,0,0
17.88,7.0525660000000014,-4.8942,5.0819154000000015,999.49896,5.7443772216868245,999.4764373918042,0,0
17.9,7.162555,-4.775037,5.0440445,999.4892,5.744569130379508,999.4768295615164,0,0
17.92,7.110003999999999,-4.808403500000002,5.0298440000000015,999.496,5.744735777057388,999.4772450962528,0,0
17.94,6.890213,-4.999068,5.0535235,999.4808,5.744778091677588,999.4776250603993,0,0
17.96,6.8997993000000015,-5.0324339999999985,5.05826,999.5054,5.7447643651454925,999.4780607865016,0,0
17.98,7.0767050000000005,-4.8608400000000005,5.1198120000000005,999.4758,5.744847378235043,999.4784376552541,0,0
18.0,7.028960700000002,-4.884673599999998,5.029864,999.48895,5.7448743089415455,999.4788085009246,0,0
18.02,6.981242,-4.9514074,5.034605,999.48816,5.744855310892867,999.4791698455564,0,0
18.04,6.9286910000000015,-5.0324397,4.9020443,999.4759,5.744665699500987,999.4794773582288,0,0
18.06,7.1247163,-4.8656115999999985,5.351818,999.47473,5.744919393696378,999.4797319859364,0,0
18.08,7.0434866,-5.0086083,5.418101999999998,999.4611,5.74566344282704,999.4798898998296,0,0
18.1,6.871465700000001,-4.965711,4.920994,999.48535,5.746010875178447,999.4800490889063,0,0
18.12,7.1248493,-4.8370156,5.0725,999.45013,5.746405449440673,999.4800820396539,0,0
18.14,6.9480495,-5.037212,5.0346293,999.4822,5.7467470839848245,999.4801187795924,0,0
18.16,6.9175179999999985,-5.0705323,4.9161,999.46765,5.746908054199087,999.4801063553952,0,0
18.18,7.0369916,-5.442323,4.868754,999.5312,5.74743940013454,999.4802793144952,0,0
18.2,7.1086674,-4.770238,5.2711763,999.5341,5.748114001488367,999.4806258956236,0,0
18.22,7.438452199999999,-4.6653733,6.3790255,999.45575,5.750574466683779,999.4808425814847,0,0
18.24,6.5207086,-4.918,3.6567404,999.44714,5.750645859640406,999.480912715818,0,0
18.26,6.3342743,-6.0619736,5.0770593,999.47504,5.751064523511468,999.480953544738,0,0
18.28,8.227044,-4.00282,3.8887212,999.4764,5.7513931772941795,999.4809732284107,0,0
18.3,7.3140907,-3.9789872,4.797726,999.5362,5.750951957807037,999.4811894372816,0,0
18.32,6.291191,-5.6901803,6.369546400000001,999.4726,5.751906855175196,999.4813495574657,0,0
18.34,6.6783447,-5.180159,5.4936805,999.4279,5.752995496637863,999.4812986212534,0,0
18.36,7.0176786999999985,-5.2182903,4.6509532999999985,999.43726,5.753833866795072,999.4810950749795,0,0
18.38,6.8025656,-4.8655643,4.5089197,999.48285,5.753609396974252,999.4809215392224,0,0
18.4,6.9650683,-5.060993,5.7872076,999.4767,5.7542597875391595,999.480753005486,0,0
18.42,7.0463033,-4.9751945,5.2332800000000015,999.4672,5.755088961791,999.4805552982567,0,0
18.44,6.8885484,-4.6463017,4.499446,999.49365,5.754742857069857,999.4804277450752,0,0
18.46,6.9219740000000005,-5.1372557,5.498402,999.4813,5.754970898591477,999.4803181792016,0,0
18.48,6.8072490000000005,-5.027625,5.266415,999.4742,5.7551715316520085,999.4801993413507,0,0
18.5,6.826346000000001,-4.913227,4.85452,999.47144,5.754814303774738,999.480062802597,1,2
18.52,7.1513515,-4.765463400000002,5.3895054,999.46405,5.7548649778983725,999.4798845108645,1,2
18.54,6.859762,-4.9084597,5.351629,999.4739,5.754954935394868,999.4797054280507,1,2
18.56,6.6972265,-5.032389,5.408439,999.4697,5.755041768152253,999.4795111709353,1,2
18.58,6.745014,-4.9036922,5.148046,999.48645,5.7547696624698945,999.479364505133,1,2
18.6,6.8071084000000015,-4.913224,5.261668,999.4711,5.7544047351404295,999.4792051590117,1,2
18.62,6.8883543000000005,-4.8989244,5.304277,999.4859,5.754107785918894,999.4790884622063,1,2
18.64,6.8032994,-4.9752135000000015,5.3185697,999.49115,5.753844937201756,999.479028770445,1,2
18.66,6.808098299999998,-4.932315,5.190742500000002,999.4764,5.753434808870957,999.4789665632312,1,2
18.68,6.7937784,-4.937081299999999,5.1434,999.4816,5.752828912570129,999.4789210773092,1,2
18.7,7.0758147,-4.956149,5.4037957,999.4739,5.752762414253508,999.4788628100704,1,2
18.72,6.8607335,-5.161110400000001,5.3091073,999.4862,5.752974160896037,999.4788377390221,1,2
18.74,6.7842755000000015,-5.142045,5.290172,999.49115,5.753282180731651,999.4788599103833,1,2
18.76,6.951587700000001,-5.0419480000000005,4.471122,999.5091,5.7529657200777615,999.4789883653206,1,2
18.78,7.224056,-5.041949,4.8593445,999.48413,5.7528865815053445,999.479120377988,1,2
18.8,7.4200463,-5.556737,4.4521875,999.47174,5.7534807241465264,999.4792104550203,1,2
18.82,7.171525,-5.618703,3.3680115,999.471,5.753481454114484,999.4792604894476,1,2
18.84,7.171525,-5.618703,3.3680115,999.47833,5.752957842016497,999.4793013501061,1,2
18.86,7.3436270000000015,-5.9428296,3.3301387000000005,999.4845,5.7526040188251875,999.479356169723,1,2
18.88,7.133325,-5.9809623,2.7525423,999.48645,5.751758362911129,999.4794301461258,1,2
18.9,7.061647,-5.8665650000000005,2.0187113,999.4816,5.749842193832338,999.4795033231493,1,2
18.92,6.7796674,-6.4337870000000015,2.6862652,999.46655,5.747662443550464,999.4795213504036,1,2
18.94,7.0043273,-6.3575215,2.5442338,999.487,5.745404394334285,999.4795642024243,1,2
18.96,7.9172983,-5.366079,3.2354596,999.4968,5.743711659061519,999.4796641153407,1,2
18.98,8.428747,-5.0610194,3.9692934,999.4895,5.743575476392023,999.4797878075788,1,2
19.0,7.874327,-3.8407815,3.9266868,999.4767,5.742733176552062,999.479885985933,1,2
19.02,7.874327,-3.8407815,3.9266868,999.4673,5.741269983859701,999.4799274267773,1,2
19.04,10.737468,-3.8407824,5.900937,999.46765,5.745995996843642,999.479919845171,1,2
19.06,12.759344,-3.0829005,6.502208,999.45746,5.759933027228651,999.4798322906212,1,2
19.08,13.614939,-2.5442796000000003,6.521147,999.4951,5.783331173767752,999.4798098911743,1,2
19.1,14.556579,-3.2544968,6.7957444,999.48737,5.8172540279373255,999.4798173154152,1,2
19.12,14.527909,-3.535724,5.408564,999.4968,5.8593339414103145,999.4798850131388,1,2
19.14,14.279067,-5.204012400000001,4.864081,999.5021,5.908588604064349,999.4800248048002,1,2
19.16,13.275317,-6.019093,4.3575006,999.4968,5.962459822279721,999.4802087154151,1,2
19.18,12.9502945,-6.204989,3.6757464,999.5018,6.019404728386387,999.4804489474584,1,2
19.2,10.684672,-7.7016883,2.1039248,999.473,6.0757740955653485,999.4806344002814,1,2
19.22,8.184842,-8.616867,1.8340642,999.5091,6.128703224375343,999.4809007425546,1,2
19.24,5.847524,-9.1602545,0.58891636,999.4878,6.176029005683408,999.4811609199139,1,2
19.26,3.8256738,-9.322317,-0.4195113,999.48737,6.216574685269286,999.4814131653172,1,2
19.28,2.0571558000000003,-9.608312,-0.012351585,999.4808,6.250444287188418,999.4816338419603,1,2
19.3,2.0571558000000003,-9.608312,-0.012351585,999.455,6.278292976314299,999.481732950011,1,2
19.32,2.7980351000000003,-13.311926,-0.6562298000000001,999.4733,6.308604008779525,999.4817901632643,1,2
19.34,5.704162,-11.924859,1.616285,999.4858,6.340355477644002,999.4818551523076,1,2
19.36,6.5454106,-11.686531,1.4600499,999.5054,6.373591015658215,999.4819973380777,1,2
19.38,11.052775,-11.953458,2.610511,999.4652,6.414283280001321,999.4820625030072,1,2
19.4,12.438925,-12.191786,2.7951536,999.48364,6.4638121729042775,999.4821257617281,1,2
19.42,12.893013,-9.517748,3.66155,999.48865,6.518472958059991,999.4822051443913,1,2
19.44,11.597689,-9.717944,3.6047378,999.48615,6.5756339118121145,999.4822894883932,1,2
19.46,11.908385,-8.264142999999999,3.7799115,999.48364,6.633603909806102,999.4823688765947,1,2
19.48,11.573809,-5.609172,4.6415744000000005,999.50146,6.689364718174807,999.482507752054,1,2
19.5,11.497335,-4.2650027,4.9635143,999.4766,6.74204992210461,999.4826091945024,1,2
19.52,12.429403,-1.5861981,4.5563555,999.4842,6.7920431192567765,999.4827045559496,1,2
19.54,11.721999,-1.8292928,3.287536,999.48364,6.837353580051613,999.4827921849228,1,2
19.56,11.167547,-2.7015727000000003,3.5195222000000004,999.50616,6.877751547599837,999.4829537380177,1,2
19.58,11.325284,-3.063831,3.6142106,999.4759,6.914203443172372,999.4830710928758,1,2
19.6,11.89409,-4.9323215,3.5337267,999.48364,6.949273477571023,999.4831768356939,1,2
19.62,12.764021,-5.9094663,2.7904255,999.4788,6.985048591088369,999.4832545134396,1,2
19.64,13.17031,-6.0905957000000015,0.37114534,999.48895,7.02168252150008,999.4833436532472,1,2
19.66,12.754474,-8.345177,0.7025543000000001,999.53534,7.060487744539054,999.4836096040297,1,2
19.68,13.361513,-9.798977,2.7478173,999.5458,7.1042677963761856,999.4840684835665,1,2
19.7,13.471454,-12.816207,3.2307274,999.54114,7.156602327646693,999.4846794069839,1,2
19.72,13.136758,-14.236639000000002,5.735217,999.56116,7.219071870789177,999.4854945490507,1,2
19.74,12.8069515,-13.068832,6.4737844,999.516,7.288622844317096,999.4863246282043,1,2
19.76,10.866353,-12.439648,5.768358,999.5243,7.360202988047025,999.4871947974831,1,2
19.78,8.681985000000001,-11.8152275,5.129214,999.4689,7.4292399566274465,999.4878978177866,1,2
19.8,5.446062,-9.52728,3.1644363,999.4867,7.487234140441713,999.4885146943827,1,2
19.82,4.676514,-8.540602999999999,2.799887,999.4694,7.532582071108214,999.4889909536437,1,2
19.84,2.9175487,-7.577758999999999,1.6162862,999.463,7.5627424209483936,999.4893182088932,1,2
19.86,0.15960391,-7.3584976,0.47056043,999.4257,7.577495413167008,999.4893783460797,1,2
19.88,-1.3603716,-6.743612,-0.85980713,999.438,7.577662097484024,999.489246521252,1,2
19.9,-0.65773815,-8.068714,-0.49999213,999.4229,7.567387992753386,999.4888911933577,1,2
19.92,3.2186852000000004,-10.037303,-0.81719697,999.4324,7.553041474052732,999.488373857334,1,2
19.94,7.2815210000000015,-12.592177,-0.56153893,999.4328,7.543429565046117,999.4877166733372,1,2
19.96,11.889254,-12.573112,0.944002,999.4476,7.543799849165282,999.4869915655336,1,2
19.98,16.109823000000002,-13.040235,0.84931403,999.45496,7.560084041533222,999.4862355466423,1,2
20.0,16.568686,-14.160375,1.3322235,999.4574,7.5926417964392385,999.485463720382,1,2
20.02,16.315360000000002,-11.834295,3.0034688,999.4624,7.63643116783262,999.484698705305,1,2
20.04,16.119389,-10.0325365,3.4153616,999.5052,7.687728352876401,999.484096542644,1,2
20.06,12.658813,-7.5729933,1.0055503,999.47534,7.736109519656378,999.4835329481633,1,2
20.08,12.658813,-7.5729933,1.0055503,999.48975,7.7817399204980555,999.4830573374664,1,2
20.1,10.670419,-5.7950673,0.5131725,999.47003,7.81930494912288,999.48259018944,1,2
20.12,10.938089,-4.7702575,0.23857714,999.4756,7.849155199202982,999.4821522527617,1,2
20.14,11.812796,-2.7540042,-0.7935229,999.47284,7.8725386697379145,999.4817317678028,1,2
20.16,13.337557,-2.66344,2.7904217,999.49445,7.8937169166349666,999.4814060129293,1,2
20.18,13.557429,-2.105753,3.7088966,999.4873,7.913552675995836,999.4811393942764,1,2
20.2,10.761246,-4.641561,5.545846,999.475,7.929539106866471,999.4808817082152,1,2
20.22,8.973262,-8.712192,7.217059,999.5073,7.945130925364635,999.480749122662,1,2
20.24,7.6874766,-10.347121,11.004581,999.502,7.96553275452711,999.4807084732256,1,2
20.26,9.03059,-10.409086,10.507468,999.495,7.990902338785522,999.48072400488,1,2
20.28,9.15964,-10.3185215,10.521671,999.5695,8.020616184273411,999.4810573222322,1,2
20.3,11.65946,-11.977282,12.169243,999.5094,8.060970966261388,999.4814538750846,1,2
20.32,11.186253,-12.444405,12.022476,999.5172,8.110434099848147,999.4819329552347,1,2
20.34,12.266477,-12.272809,10.540606,999.5052,8.167140175503679,999.4824400318164,1,2
20.36,12.295152,-12.577868,9.001924,999.4879,8.228911747904199,999.4829077405693,1,2
20.38,10.172906,-13.559778,8.258621,999.5101,8.293061130784107,999.4834189001576,1,2
20.4,8.313552,-12.654132,6.852501400000001,999.49036,8.354430937146072,999.4838955487289,1,2
20.42,6.506774,-11.662688,4.759894,999.4783,8.408049568837782,999.4842965714314,1,2
20.44,3.787054,-10.280386,4.2343736,999.47076,8.449570688488409,999.4846021834339,1,2
20.46,2.7785041,-8.240299,3.012896,999.45135,8.474968930135026,999.4847525143393,1,2
20.48,2.1714575000000003,-7.4776506,2.3926883,999.42847,8.483831832469015,999.4846827296753,1,2
20.5,2.0567253,-7.701678299999998,1.9287149,999.429,8.478167961562615,999.4844206101196,1,2
20.52,3.2755637,-8.435727,2.293263,999.4192,8.462045243978809,999.4839542070836,1,2
20.54,3.6531622,-8.702655,2.4116225,999.4264,8.437583271273228,999.4833348982156,1,2
20.56,4.3653474,-8.759853,1.9855257,999.42847,8.406350278001717,999.482590163266,1,2
20.58,8.318228,-9.055379,0.9108143,999.4019,8.374116819076193,999.4816416308772,1,2
20.6,10.387872,-11.233696,1.6777866999999995,999.444,8.347480530788628,999.480667997787,1,2
20.62,12.113371,-10.504412,-0.42902434,999.45184,8.327230922769115,999.4797039147966,1,2
20.64,13.131462,-9.74653,-1.2291393,999.4536,8.313445888915588,999.4787580769728,1,2
20.66,12.409689,-10.375714,-0.86459225,999.45184,8.305005743797807,999.4778254295948,1,2
20.68,11.348561,-11.133596,-0.8551244,999.4536,8.300741174497269,999.4769141308251,1,2
20.7,11.262519,-10.123087,-1.5037383999999998,999.48315,8.298720005619735,999.476131356361,1,2
20.72,11.214615,-7.7588716,-1.958251,999.4684,8.295693416327262,999.4754118639618,1,2
20.74,10.033988,-5.8617816,-0.6278847,999.5031,8.287343093141983,999.4748757977676,1,2
20.76,8.657389,-5.156331,0.78296655,999.4802,8.271137288797652,999.4744212968063,1,2
20.78,8.891575999999997,-4.3698483,4.0070944,999.50287,8.249254310188007,999.4741221150887,1,2
20.8,9.546394,-3.864593,5.531571,999.4979,8.224519372053438,999.4739433585083,1,2
20.82,9.622864,-4.188719,6.3979664000000005,999.4879,8.198602534755283,999.4738356531034,1,2
20.84,9.5081415,-4.937068,6.6914988,999.4661,8.172441590382807,999.4737126362564,1,2
20.86,8.4709015,-8.206926,6.634684,999.49286,8.148031784939622,999.47367286908,1,2
20.88,7.86385,-9.589227,6.161242,999.45605,8.125911934095482,999.4735742884743,1,2
20.9,7.878182400000001,-9.474829,6.208585299999998,999.4848,8.10579214558204,999.4735275952124,1,2
20.92,8.561671,-10.728433,6.331678,999.4756,8.09025133928319,999.4734937977034,1,2
20.94,8.069336,-12.287096,5.815626,999.49554,8.080251911490098,999.4735433005528,1,2
20.96,7.9163747,-12.382427,5.3753257,999.4684,8.074853107652574,999.4735685253886,1,2
20.98,7.6008925,-12.072601,4.513662999999998,999.4758,8.072113476455106,999.473598847362,1,2
21.0,5.7415185,-11.176488,3.1785579,999.48566,8.0675716316983,999.4736690600073,1,2
21.02,5.7415185,-11.176488,3.1785579,999.47034,8.06145370168159,999.4737191152846,1,2
21.04,5.129681,-8.678811,1.6067334,999.44855,8.048244991258349,999.4736727353127,1,2
21.06,4.3553376,-7.4967046,1.3084645,999.4606,8.025824489024501,999.473584692122,1,2
21.08,5.1392097,-5.2754884,2.3310945,999.45807,7.993176960932088,999.4734510442674,1,2
21.1,5.856173,-4.2745120000000005,3.6614616,999.4535,7.952436148666274,999.4732611292636,1,2
21.12,6.549229,-3.6929913,3.0791285,999.436,7.904695779605711,999.4729591803008,1,2
21.14,7.538626,-2.6967807,5.129123,999.44794,7.853818513182723,999.4726023091484,1,2
21.16,7.538626,-2.6967807,5.129123,999.443,7.800352642409426,999.472180409485,1,2
21.18,7.925759299999998,-2.2677896,5.924501,999.46826,7.746129172288643,999.4717935054683,1,2
21.2,7.653295,-3.0066056,6.7009416,999.4184,7.692378147945575,999.4712594204594,1,2
21.22,7.2526655,-2.8064318,6.487973,999.44086,7.638241282761888,999.4706780650321,1,2
21.24,7.3339424,-2.549038,6.3128023,999.46265,7.583706995511567,999.4701354783423,1,2
21.26,8.127419999999999,-2.7635338,6.2891330000000005,999.463,7.530337462395552,999.469630361021,1,2
21.28,8.481136,-2.8969977000000005,6.634746000000002,999.463,7.479247596290013,999.4691601700563,1,2
21.3,8.289953,-2.8254995,6.719966,999.4802,7.430123918500126,999.4687844527077,1,2
21.32,7.730747,-3.3593545,5.0392547,999.53937,7.380381483793021,999.4687065768288,1,2
21.34,6.836944,-3.5929163,6.445375,999.5218,7.3307681973826035,999.4688289020256,1,2
21.36,7.367512700000002,-3.2354248,7.605305,999.3667,7.283551823424928,999.4685693245219,1,2
21.38,7.7021194,-3.1400943,5.6073879999999985,999.44824,7.236460175109101,999.4682667762717,1,2
21.4,7.716479,-3.0495303,5.1670904,999.44794,7.1891148308522475,999.4679262682432,1,2
21.42,7.6017839999999985,-2.9160671,5.6215954,999.45074,7.141964139110234,999.4675635247834,1,2
21.44,7.463189999999999,-3.1400957000000003,5.9624742999999985,999.44794,7.0954904151869025,999.4671723599733,1,2
21.46,6.999579,-3.5023546000000003,5.9814143,999.48303,7.049356933656472,999.4668838142508,1,2
21.48,7.0330586,-3.3402927000000004,6.0145574,999.45276,7.003664672981228,999.4665780095194,1,2
21.5,7.009179,-3.5643213,5.934074,999.47687,6.9585531406436845,999.4663448516244,1,2
21.52,6.9136039999999985,-3.4499242,6.128186,999.46674,6.914139109019339,999.4661402558426,1,2
21.54,7.061808,-3.0257015,6.033501,999.49963,6.870307792873567,999.4660800380886,1,2
21.56,6.961452499999999,-3.1877646,5.7257667,999.4946,6.826716993473989,999.4661295015442,1,2
21.58,6.961452499999999,-3.1877646,5.7257667,999.47034,6.7834956415491865,999.4661883652478,1,2
21.6,7.219582000000001,-3.235431,6.080849,999.45526,6.741624243555554,999.4662010351017,1,2
21.62,7.401235000000002,-3.283097,6.024038,999.4848,6.7013324074210585,999.466279186458,1,2
21.64,6.7942204,-3.9694817,6.132931,999.457,6.662341562934816,999.4663148359253,1,2
21.66,6.717764,-3.8693845,6.0287760000000015,999.47687,6.624316815673296,999.4663843343852,1,2
21.68,7.0906086,-3.5357258000000003,5.896215,999.47253,6.587398337377599,999.4664678676204,1,2
21.7,7.0858493000000005,-3.4832942000000005,5.711575,999.4842,6.551317102121263,999.466605513264,1,2
21.72,6.965809299999999,-3.764508,6.0855427,999.4694,6.516607288807764,999.4667371971067,1,2
21.74,7.1617804000000005,-3.578612,5.7162595000000005,999.44464,6.482924431014564,999.4667740030403,1,2
21.76,6.970585000000002,-3.7883403,5.948245,999.47687,6.45043323954079,999.4668428703526,1,2
21.78,6.717253,-3.936104,6.1328864,999.4766,6.419101961533968,999.4669388471764,1,2
21.8,6.760269,-4.002835299999999,5.867759,999.4566,6.388689935580793,999.4669864324478,1,2
21.82,7.0327163,-3.6167443,5.470069400000002,999.4911,6.358804433163027,999.4671152876372,1,2
21.84,6.679007,-4.379393,6.431153299999999,999.435,6.330818794105874,999.4671135290467,1,2
21.86,7.1426440000000015,-3.683476,5.7020545,999.4365,6.303780623160894,999.4670017664515,1,2
21.88,7.5632652999999985,-3.950403,6.066603700000001,999.45905,6.278956722379077,999.4668743866637,1,2
21.9,6.5069265,-3.7120755,5.034503,999.5501,6.253177939025767,999.4670614460907,1,2
21.92,6.894087,-3.974236,6.360136,999.4892,6.229061580881367,999.4673064305948,1,2
21.94,7.314707799999999,-3.969469,6.999281,999.45905,6.207929664907747,999.4674931757522,1,2
21.96,6.9371,-3.669176,4.8403915999999985,999.4635,6.1860731787982415,999.4676438083408,1,2
21.98,6.521256,-3.8979704,4.5373898,999.4487,6.162883701940593,999.4677087095857,1,2
22.0,6.664647,-4.460424,6.6299963,999.4533,6.141834057322312,999.4677141849717,1,2
22.02,7.0183506,-3.945636,5.7636,999.46155,6.121704360295709,999.4676968319563,1,2
22.04,6.808037,-4.2173295,5.929303599999999,999.45374,6.102590512964111,999.4676312542372,1,2
22.06,6.6741996,-4.4270580000000015,6.0571327,999.4484,6.084603152353253,999.4675040772493,1,2
22.08,6.9275265,-4.2792949999999985,5.986116,999.4763,6.067810424624762,999.4674233689843,1,2
22.1,6.980103,-4.312661,5.990851,999.4381,6.0522439411448765,999.4672464910336,1,2
22.12,6.6837525,-4.35556,5.9151,999.4635,6.037343256733168,999.4670767143083,1,2
22.14,6.5881543,-4.369859,5.4037843,999.4755,6.022345978573212,999.4669570234224,1,2
22.16,6.712426,-4.3889255999999985,5.8251457,999.4635,6.008016053047639,999.4668388192713,1,2
22.18,6.822358,-4.250695,5.5836906,999.45245,5.994067723609843,999.4666825743338,0,0
22.2,6.788898,-4.388925,5.6973166,999.4808,5.980720221918617,999.4665953390396,0,0
22.22,6.8462534,-4.46519,5.9008956,999.45013,5.968349062795682,999.4664589827133,0,0
22.24,6.97059,-4.4032264,5.9435105,999.4529,5.957056913028443,999.4662896859253,0,0
22.26,6.6312240000000005,-4.4699583,5.6594462,999.47015,5.945996635667176,999.466153992414,0,0
22.28,6.798517,-4.4032264,5.9103703,999.4657,5.9356589132030395,999.4660324592551,0,0
22.3,6.683802,-4.465192,5.853557,999.45013,5.925823524214152,999.4658678237024,0,0
22.32,6.722040700000001,-4.4365926,5.7872753,999.4681,5.916413663515472,999.4657303875625,0,0
22.34,6.6790223,-4.489024,5.981386,999.4734,5.907640430828298,999.4656365595944,0,0
22.36,6.6503434000000015,-4.503324,5.86776,999.4976,5.899294804096241,999.4656687215871,0,0
22.38,6.7363796,-4.4318256,5.8724947,999.4767,5.891416363736927,999.465736852526,0,0
22.4,6.640784,-4.5319233,5.9056354,999.4649,5.883980007176187,999.4657940403548,0,0
22.42,6.722040700000001,-4.4318256,5.616837,999.4673,5.876631406996879,999.4658499929747,0,0
22.44,6.636004400000001,-4.503324,5.6121025,999.4657,5.869327054605161,999.4658988927353,0,0
22.46,6.325317,-4.608188,5.361179,999.48486,5.861459969180603,999.4660103605496,0,0
22.48,6.5260687000000015,-4.908481,5.3517103,999.443,5.853700157941207,999.4660260162123,0,0
22.5,6.5929856,-4.8941817,5.23335,999.4459,5.846008163301594,999.4659673958977,0,0
22.52,6.49261,-5.142043,4.9540205,999.48,5.838224587581072,999.4659661163623,0,0
22.54,6.798517,-5.0085793,4.6936282999999985,999.4332,5.830409522550057,999.465847027746,0,0
22.56,6.7268205000000005,-5.3231720000000005,5.252288,999.4681,5.823420792527782,999.4657499117446,0,0
22.58,6.903673,-5.137276,4.7315035000000005,999.5001,5.816692466602095,999.4657877603636,0,0
22.6,7.214360000000001,-5.0657783,4.660487,999.4833,5.8105324345301685,999.465884247466,0,0
22.62,7.477249599999999,-5.0610113,5.020302,999.48285,5.805643788710466,999.4660305801787,0,0
22.64,6.908452499999999,-5.218308,5.077114599999999,999.46075,5.801284670008874,999.4661408696753,0,0
22.66,6.9897100000000005,-5.3088727,5.0960526,999.48035,5.79764341942814,999.4662894743435,0,0
22.68,7.3003964,-5.2040086,5.2144127000000005,999.4927,5.795111210027938,999.4665158593207,0,0
22.7,7.2860575,-5.385136599999999,4.8924727,999.441,5.793412697884767,999.4666240359927,0,0
22.72,6.9849935,-5.4852366,4.7078370000000005,999.48,5.791948191047541,999.4667677743711,0,0
22.74,6.9133005,-5.5948677,4.2059903,999.4561,5.790251078345153,999.466856377614,0,0
22.76,6.9563193,-5.265975,4.049755,999.4709,5.787898913938344,999.4669492244802,0,0
22.78,7.2000923,-5.5519680000000005,4.8072605,999.46643,5.7863604910243165,999.467029394763,0,0
22.8,7.0662600000000015,-5.5281353,4.253335,999.466,5.7848070857858485,999.4670965274037,0,0
22.82,6.9897857000000005,-5.7426309999999985,4.1823190000000015,999.47833,5.783323712278848,999.4671962863063,0,0
22.84,6.9180913,-5.857028,3.9834743,999.4763,5.781772198247948,999.4673172066423,0,0
22.86,7.080606,-5.7759967,3.8651145,999.4984,5.780208358064869,999.4675359499071,0,0
22.88,7.147525999999999,-5.6520667,4.02135,999.48816,5.778719545678908,999.467803478036,0,0
22.9,7.209665299999998,-5.7521644,4.0402879999999985,999.4685,5.777529266429845,999.46804237337,0,0
22.92,7.1762093999999985,-5.6473002,3.727817500000001,999.4763,5.776179116417384,999.4682831887427,0,0
22.94,6.9515615,-5.9189935,3.7278178,999.4709,5.774689268368123,999.4685053937268,0,0
22.96,6.722134599999999,-5.9332933,3.855647,999.46185,5.7728696806092605,999.4686777746332,0,0
22.98,6.6265397,-5.790297,3.7088807,999.46185,5.770327978868473,999.4688055104134,0,0
23.0,6.8894315000000015,-5.7855300000000005,3.4863636,999.4689,5.767362744473518,999.4689187179114,0,0
23.02,7.209682000000001,-5.723565,3.9124606,999.4685,5.764769553192402,999.469017240672,0,0
23.04,7.3244,-5.8760953,4.3432917999999985,999.434,5.7632287759805365,999.468978233317,0,0
23.06,7.281384,-5.327941,4.3716984000000005,999.5094,5.761958016732937,999.469089284778,0,0
23.08,7.238367599999999,-5.4423385,4.1586504,999.49225,5.760804631172582,999.4692707884237,0,0
23.1,7.061516,-5.7187986,3.9882119,999.4697,5.759672173536366,999.4694327102068,0,0
23.12,6.956364,-5.4471050000000005,3.439021,999.4799,5.757642543118823,999.4696134665377,0,0
23.14,7.0376244,-5.895162,4.158651,999.4646,5.756069346058255,999.469755134352,0,0
23.16,6.961148700000002,-6.019092,4.4237776,999.49896,5.755179805540387,999.4699854495492,0,0
23.18,6.875115400000001,-6.0381584,4.3717,999.46155,5.754752673932661,999.4701585884387,0,0
23.2,6.865558999999998,-6.0715246,3.7325554,999.47217,5.754226649417293,999.4703188150436,0,0
23.22,6.6882663,-6.100113,3.6851711,999.4574,5.7533608453061165,999.4704138835373,0,0
23.24,6.6452246,-6.081046,3.8698106,999.45557,5.75226043882452,999.4704444480774,0,0
23.26,6.745593,-6.023847,3.8982165,999.5094,5.751048955421727,999.470611694892,0,0
23.28,7.1805325,-5.718787,3.633087600000001,999.45465,5.749794070042094,999.470702012076,0,0
23.3,7.0084443,-5.685421,3.7561808,999.44543,5.748303011523168,999.470690837096,0,0
23.32,6.912841,-5.790285,3.6472888,999.4845,5.746509127214216,999.4707306758704,0,0
23.34,6.955836,-5.9285145,4.1491337,999.4772,5.745098636206325,999.470789166978,0,0
23.36,6.955836,-5.9285145,4.1491337,999.4799,5.7440319892868805,999.4708736487198,0,0
23.38,6.821986,-6.0810437,4.2106795,999.42755,5.743324930484732,999.4707923316513,0,0
23.4,7.0705132,-5.866548000000001,4.2248807,999.4778,5.743042177982099,999.4707457074958,0,0
23.42,7.056159,-6.0381436,4.1301913,999.48303,5.743242877853279,999.4707487338451,0,0
23.44,7.089609599999998,-5.9571123,4.1065182999999985,999.45807,5.743798976423634,999.4707057644853,0,0
23.46,7.0943747,-5.933279,3.7940462,999.4806,5.744389871478888,999.4707034160068,0,0
23.48,6.4060597,-5.8665466,3.4105575,999.47034,5.743628341415447,999.4707000325936,0,0
23.5,7.0752169999999985,-5.756915599999999,3.0980852000000003,999.46765,5.742300660734979,999.4706860628924,0,0
23.52,7.170805499999998,-5.761682,3.183304,999.4876,5.7406869893864165,999.4707346094381,0,0
23.54,6.630665,-6.1048737,4.3574343,999.451,5.739402389185907,999.4707064605716,0,0
23.56,6.754925,-6.0476747,4.523136599999999,999.4655,5.738664918685111,999.4706628449753,0,0
23.58,6.903091000000001,-5.9142103,4.305353599999999,999.46265,5.738259592729504,999.4705954599924,0,0
23.6,6.9652133,-5.9046774000000015,3.9739437,999.4978,5.737942057163143,999.4706338549656,0,0
23.62,7.0655660000000005,-5.7187805,3.874519,999.4879,5.737542627959086,999.4707299388863,0,0
23.64,7.0225325,-5.918976,4.2438015999999985,999.5097,5.737562986152764,999.4709551308583,0,0
23.66,7.003406,-5.9714074,4.357426599999998,999.4405,5.7380906220097065,999.4710444720135,0,0
23.68,7.1276584000000005,-5.804578,4.0780945,999.4827,5.738801168768663,999.4711653737593,0,0
23.7,7.156329,-5.8141108,4.082828,999.46124,5.739728457888317,999.4712364711963,0,0
23.72,7.017628,-5.714011,3.9644601,999.4781,5.740419937076153,999.4713240015953,0,0
23.74,6.917242999999999,-5.7807426,3.950256,999.4532,5.740822135390122,999.47133609705,0,0
23.76,6.883767,-5.9571047,4.0212703,999.4501,5.741195574554509,999.4712703346444,0,0
23.78,6.86463,-6.0095363,4.115957,999.4932,5.74166042142444,999.4712911737781,0,0
23.8,6.7212095000000005,-5.990469999999998,3.7987492,999.45856,5.741711786149893,999.471263755011,0,0
23.82,6.7164207,-5.8903713,3.6614509,999.4387,5.741153902132412,999.4711222982704,0,0
23.84,6.764209299999999,-5.8474727,3.66145,999.46674,5.740074831044497,999.4709815308207,0,0
23.86,6.7785225,-5.9571023,3.5194154,999.47845,5.7385894025477375,999.4708840351911,0,0
23.88,6.821523,-6.0429,3.727728,999.44855,5.737082699838852,999.4707174855263,0,0
23.9,6.8501925,-6.0238337999999985,4.002322,999.42847,5.7358023444108275,999.4704182312944,0,0
23.92,6.816716,-5.9189687000000015,3.68985,999.4659,5.734292915306716,999.4701375446224,0,0
23.94,7.0222125,-5.9380345000000005,3.8650198,999.46674,5.733049364555045,999.4698772987184,0,0
23.96,6.8835807,-5.7950373,3.7513924,999.4767,5.7315740839947065,999.4696719071624,0,0
23.98,7.0747550000000015,-5.7855034000000005,3.8366098,999.4511,5.730238149181028,999.4694235643176,0,0
24.0,7.103416,-5.880833999999999,4.040188,999.4463,5.729354931064735,999.4691208837484,0,0
24.02,7.103416,-5.880833999999999,4.040188,999.4217,5.728874913007469,999.4686827200155,0,0
24.04,6.936087599999999,-5.9237328,3.789261,999.45386,5.728356124666624,999.4682421967495,0,0
24.06,6.969537,-5.8998995,3.7797916,999.47107,5.727816691983708,999.4678631304836,0,0
24.08,6.902602000000001,-5.9904637,3.8081963,999.47394,5.727299184484061,999.4675500642608,0,0
24.1,6.8595753,-6.0095296,3.8223987,999.4616,5.726776133235091,999.4672520187152,0,0
24.12,6.969492999999999,-5.999996,3.902882,999.4641,5.726462038258817,999.4669773184038,0,0
24.14,6.950347,-5.933264,3.8271291,999.4733,5.7261615198564275,999.4667573548624,0,0
24.16,6.969457000000001,-5.947563,3.9218163,999.44604,5.725996401742255,999.4664884125997,0,0
24.18,6.8833942,-5.856998,3.784516,999.45605,5.72560245102497,999.4662131969307,0,0
24.2,6.945523,-5.8808303,3.7750466,999.50287,5.725120611712709,999.4661019808569,0,0
24.22,6.931164999999999,-5.9999943,4.0117650000000005,999.4684,5.7248830836100915,999.4660119832033,0,0
24.24,6.945487,-5.895129,4.111186,999.4691,5.724837234936218,999.4659435781365,0,0
24.26,6.8785524,-5.8331637,3.8176513,999.47437,5.7245429394551826,999.4659134705383,0,0
24.28,6.8594065,-5.942794,3.9928217,999.4595,5.724282869320045,999.4658637789707,0,0
24.3,6.802030599999998,-6.0333576,4.0685706,999.4568,5.7241492830597505,999.4657872418974,0,0
24.32,6.8211417,-6.004758,4.0685699999999985,999.46185,5.7241191799674835,999.4657054396685,0,0
24.34,6.9023805,-5.9332595,3.7466288,999.4641,5.723943937905634,999.4656273796362,0,0
24.36,6.888032000000001,-5.976158,3.760831,999.45135,5.723685340869352,999.4655070072247,0,0
24.38,6.8115377000000015,-6.02859,3.8886585,999.4915,5.723412862942547,999.4654942209364,0,0
24.4,6.9501339999999985,-5.923725,3.7466247,999.45184,5.723083822871077,999.4654337677763,0,0
24.42,7.0696115000000015,-5.8522263,3.8413112,999.4423,5.722868697089143,999.4652970698004,0,0
24.44,6.8927226,-5.9284906,3.8933864,999.45184,5.7226325771019,999.4651278380172,0,0
24.46,6.911834,-5.9427900000000005,3.9738703,999.4641,5.722490545409174,999.4649746045967,0,0
24.48,6.849678,-5.9761553,3.950197,999.476,5.722364614544707,999.4648788989699,0,0
24.5,6.8018713,-5.947556,3.869711,999.46185,5.722082476689187,999.464783429442,0,0
24.52,6.8305240000000005,-5.895123,3.9880686,999.4815,5.721737173434062,999.4647592522208,0,0
24.54,6.730129700000001,-5.976154,3.9928014,999.4641,5.721299160612085,999.4647355159204,0,0
24.56,6.7970295,-5.942788,4.0543475,999.4666,5.7208863474362905,999.464721254668,0,0
24.58,6.930846000000002,-6.0714846,3.907579,999.45624,5.720728531597697,999.4646781209084,0,0
24.6,6.836292,-5.8713145,4.125457,999.43396,5.720593952816639,999.4645294226833,0,0
24.62,6.6737850000000005,-5.985712,3.8745341,999.4733,5.720179726591298,999.4644296070098,0,0
24.64,6.6833477,-6.004778400000001,3.902941,999.4789,5.719581230819213,999.4643935032956,0,0
24.66,6.4109087,-6.0524445,3.7135656,999.4536,5.7183459912686825,999.4643227454418,0,0
24.68,6.430032,-6.0953436,3.7088315,999.45856,5.716631881804463,999.4642394779187,0,0
24.7,6.912801299999999,-5.9666467,3.680426,999.4463,5.715000839818352,999.4641013206143,0,0
24.72,6.946263,-6.0715113,3.9976313,999.45074,5.713883730797923,999.4639311440664,0,0
24.74,7.209161999999999,-6.028612,4.3527125999999985,999.4412,5.713852774064018,999.46369894395,0,0
24.76,7.147032,-5.8379498,4.049711,999.451,5.714201847194919,999.4634480557288,0,0
24.78,6.8411303,-5.9714136,4.0591807,999.4543,5.714612879708853,999.4631934378959,0,0
24.8,6.888935000000001,-5.9380484,4.1870103,999.4709,5.715213921680187,999.4629962012024,0,0
24.82,6.8220243,-6.033379,4.248558,999.46826,5.716057671211151,999.4628408725356,0,0
24.84,6.8602690000000015,-6.042913,4.0497136,999.48083,5.717007959714457,999.4627683849844,0,0
24.86,6.946308599999999,-6.0572124,4.0970580000000005,999.44855,5.718229713185642,999.4626531487984,0,0
24.88,6.726448,-6.1287107,3.955027,999.45605,5.719346363679308,999.4625275547687,0,0
24.9,6.654754,-6.204975599999999,3.812995200000001,999.4606,5.720248268353295,999.4624096406868,0,0
24.92,6.693002000000001,-6.1239447999999985,3.6899016,999.4783,5.720807886221051,999.4623626570976,0,0
24.94,6.769482000000001,-6.0953455000000005,3.5715415,999.4633,5.7210440079569995,999.4623245168326,0,0
24.96,6.7647122999999985,-6.119179,3.7798564,999.4608,5.72117930745044,999.462285327834,0,0
24.98,6.836412400000001,-6.0572133,3.8319352,999.451,5.72128988072203,999.4622100732544,0,0
25.0,6.965477000000001,-6.000015,3.704107,999.4802,5.721391671252638,999.4622083420442,0,0
25.02,7.0658593,-5.9666489999999985,3.9124212,999.4781,5.721755736733571,999.4622640223157,0,0
25.04,6.927251299999999,-5.9428163,3.7041082,999.47003,5.721952134130981,999.462341178923,0,0
25.06,6.922475,-5.961883,3.7372491,999.49994,5.722042615410718,999.4625447102572,0,0
25.08,6.8125463,-6.066747,3.6614995,999.45557,5.721953836073376,999.4626994415872,0,0
25.1,6.8511796,-5.9523597000000015,3.6568012,999.4778,5.721613589529879,999.4628905242007,0,0
25.12,6.8511796,-5.9523597000000015,3.6568012,999.4648,5.721052371450582,999.4630662389106,0,0
25.14,6.717377000000001,-6.085824,3.8840554,999.45465,5.720457129077787,999.4631912019684,0,0
25.16,6.746077499999998,-6.0619917,3.6994157,999.45465,5.719696153930213,999.4632708709993,0,0
25.18,6.942071,-6.014327,3.7704337,999.4532,5.719069429432004,999.4633050114193,0,0
25.2,6.9181940000000015,-5.8236647,3.8982646,999.45215,5.718394617334211,999.4632950198533,0,0
25.22,6.9516740000000015,-5.890397,3.9124699,999.48206,5.71782245699519,999.463353745234,0,0
25.24,6.7748423,-5.9571295,3.8603933,999.4774,5.717127989410678,999.4634562014977,0,0
25.26,6.626689999999999,-6.042928,3.8603954,999.4624,5.7162264659829525,999.4635429295266,0,0
25.28,6.7796660000000015,-5.9857297,3.879335,999.4599,5.7153052600321885,999.4636064478668,0,0
25.3,6.7557990000000006,-6.1191945,3.7893841,999.46155,5.714433530011103,999.46365516946,0,0
25.32,6.684112,-6.190693,3.8035884,999.45276,5.71361123684214,999.4636589972496,0,0
25.34,6.7558312,-6.023864,3.6284173,999.46155,5.712583967712816,999.4636547870942,0,0
25.36,6.9805036,-5.952366400000002,3.6520915,999.4842,5.711633693255608,999.4637250297676,0,0
25.38,6.8992577000000015,-6.009565,3.7562494,999.47955,5.710789382812347,999.4638440660864,0,0
25.4,6.947088000000001,-6.009566,4.106598399999998,999.4741,5.710397695635577,999.4639861679401,0,0
25.42,6.904080400000002,-5.9571342000000005,4.0308485,999.4791,5.710216488970578,999.4641661389333,0,0
25.44,6.932791,-5.947602,3.9030228,999.4772,5.710145644842433,999.4643720832023,0,0
25.46,6.8611054000000005,-5.980968,3.8178043,999.47174,5.710041508900014,999.4645805800593,0,0
25.48,6.6986240000000015,-5.9809685,3.8840892,999.4833,5.709729330033173,999.4648321977941,0,0
25.5,6.827700599999999,-5.947603,3.964576,999.46924,5.709443641413327,999.4650703953121,0,0
25.52,6.827711,-6.0191016,3.9787803,999.5058,5.709283967201232,999.465427493216,0,0
25.54,6.6843386,-6.066768,4.011923,999.4586,5.709121198967267,999.4657184459484,0,0
25.56,6.8468738,-6.0763016,3.921971,999.4759,5.7091240688245595,999.4660121853774,0,0
25.58,7.009419,-6.033403400000001,3.8983023,999.4763,5.709434163146262,999.4663087696694,0,0
25.6,7.075175,-5.9761763,3.9881496,999.4808,5.710112479146236,999.4666229999788,0,0
25.62,6.979553,-5.809346,4.182258,999.4808,5.710935256995262,999.4669516910803,0,0
25.64,6.8600330000000005,-5.723547,3.675674,999.5182,5.711182338020572,999.4674266164501,0,0
25.66,7.0034018,-5.6234493,3.973939,999.45825,5.711254128248264,999.4678132246872,0,0
25.68,6.9173399999999985,-5.899909,3.9644682,999.48486,5.711372145499978,999.4682162001168,0,0
25.7,6.879063,-5.9571066,4.063887,999.4808,5.711629703999447,999.468617570886,0,0
25.72,6.979426400000001,-5.890374,3.9834013,999.4685,5.712004688598201,999.4689717988423,0,0
25.74,6.9029110000000005,-5.9332724,4.182243,999.48816,5.7125932464163895,999.4693538721888,0,0
25.76,6.9554768,-5.8141084,4.1775074,999.4484,5.713294507951495,999.4696160382581,0,0
25.78,6.974571000000001,-5.5900793,4.2674584000000015,999.4979,5.713932998004027,999.4699495104587,0,0
25.8,6.8980684000000005,-5.737842,4.1348925,999.4898,5.714461058365189,999.4703156282576,0,0
25.82,6.898043,-5.628210500000002,4.409486,999.4627,5.715005007485013,999.4706117136833,0,0
25.84,6.783289999999999,-5.690175,4.1490903,999.4878,5.7152344721374,999.4709352125958,0,0
25.86,7.031827000000002,-5.46138,4.3005896,999.4632,5.715413762524147,999.4711932094696,0,0
25.88,7.0079026,-5.609143,4.5136356,999.4895,5.715879392794693,999.4714870799534,0,0
25.9,6.8023457999999986,-5.509044,4.357398,999.4722,5.716036754386763,999.4717493104248,0,0
25.92,6.826232000000001,-5.342214599999998,4.300584,999.5018,5.715709979733225,999.4720891997521,0,0
25.94,6.7114910000000005,-5.227816000000002,4.7219440000000015,999.487,5.715067900189762,999.4724432048424,0,0
25.96,7.03648,-5.2516484000000005,4.5609712999999985,999.4813,5.714490931117663,999.4727878882028,0,0
25.98,7.0412474000000005,-5.3279133000000005,4.788221,999.48413,5.714286148749085,999.4731332820224,0,0
26.0,6.7018557,-5.5233417000000005,5.053344999999998,999.46436,5.714417752090198,999.4734068881863,0,0
26.02,7.036403699999998,-5.461375,5.3894844000000015,999.49194,5.7156005123997575,999.4737153657953,0,0
26.04,6.9121039999999985,-5.4899735,5.138559,999.46893,5.717298429220466,999.4739707092937,0,0
26.06,6.3862877000000005,-5.6377362999999985,4.6225047,999.46686,5.718361030887558,999.4741707322553,0,0
26.08,6.617112,-5.404209,4.9114312999999985,999.4736,5.719196317328553,999.474345417908,0,0
26.1,6.688825,-5.385143,4.8214793,999.4616,5.719814344140673,999.4744538866464,0,0
26.12,6.6506023,-5.3279448,4.8830276,999.47845,5.720182663397387,999.4745641156316,0,0
26.14,6.8275027,-5.180183,4.797813400000001,999.45135,5.720329717388622,999.4745779431466,0,0
26.16,7.0521850000000015,-4.979988,4.7930813,999.4789,5.720390385054765,999.4746057205437,0,0
26.18,6.822802499999999,-5.1849513,5.0534782,999.4809,5.720528086001512,999.4746529240578,0,0
26.2,6.822802499999999,-5.1849513,5.0534782,999.471,5.72073335783159,999.4746814825563,0,0
26.22,6.765492,-5.289817,4.9398565,999.4734,5.72091220377862,999.4747021035083,0,0
26.24,6.8276453,-5.246918,4.8451695,999.48566,5.7210110004056975,999.4747597726086,0,0
26.26,6.9328327000000005,-5.1325216,4.78836,999.46533,5.721008477732049,999.4747767818443,0,0
26.28,6.770351,-5.4089823,4.987208,999.458,5.721191796651176,999.4747314147903,0,0
26.3,6.822961,-5.2707534,4.963539,999.48083,5.721434816029851,999.4747132833684,0,0
26.32,7.300988,-5.02766,4.7126199999999985,999.48083,5.72191898984923,999.4747192826237,0,0
