Timestamp,Ax,Ay,Az,P,Value,Type
0.0,7.299701,-5.7335059999999975,2.4143305,1010.8542,0,0
0.04,8.002336,-5.681074,3.1434290000000003,1010.90686,0,0
0.08,7.6008415,-5.5666776,2.3859253,1010.94745,0,0
0.12,7.7247114,-5.461803,2.5184515,1010.92206,0,0
0.16,7.949347500000001,-5.5905004,2.5421221000000003,1010.8636,0,0
0.2,7.753365,-5.6810637,2.1728377,1010.897,0,0
0.24,7.739020299999999,-5.8812594,2.1965094,1010.92706,0,0
0.28,7.5860566999999985,-5.7048964999999985,2.3290715,1010.9349,0,0
0.32,8.164403,-5.538067,2.5610566,1010.90186,0,0
0.36,8.140498,-5.4236693,2.433227,1010.9042,0,0
0.4,8.049666,-5.485633999999999,2.329069,1010.9295,0,0
0.44,8.030542,-5.571432,2.3432715,1010.91943,0,0
0.48,8.035308,-5.3474035,2.1728315,1010.92957,0,0
0.52,7.8632293,-5.590498,2.2438471,1010.94745,0,0
0.56,7.724605,-5.4522676,2.2533152000000003,1010.94464,0,0
0.6,8.130878,-5.4284339999999975,2.0023909,1010.94214,0,0
0.64,8.197785000000001,-5.290204,2.5184398,1010.93225,0,0
0.68,8.154757,-5.6572285,2.4048135,1010.9346,0,0
0.72,8.1165085,-5.485632,2.3764062000000004,1010.9419,0,0
0.76,7.968324000000001,-5.499932,2.130216,1010.90137,0,0
0.8,7.8774977,-5.1901054,1.9313701,1010.952,0,0
0.84,8.183394,-5.642928,3.0581577,1010.9396,0,0
0.88,7.925271,-5.285436,1.8982269,1010.91437,0,0
0.92,7.8870273,-5.509464,2.1018060000000003,1010.9421,0,0
0.96,7.614563,-5.356934,2.6178546000000003,1010.89154,0,0
1.0,7.7340527,-5.3140345,2.4947596,1010.94965,0,0
1.04,8.2120285,-5.256836,2.949262,1010.92194,0,0
1.08,7.8057303,-5.199637,2.286444,1010.9066,0,0
1.12,7.796535499999999,-5.30451,2.0402882,1010.91925,0,0
1.16,8.260183,-5.199646,3.2522967,1010.9316,0,0
1.2,8.064214,-5.3521757,2.7930596000000003,1010.91425,0,0
1.24,7.959063499999999,-5.266378,2.2154624,1010.90424,0,0
1.28,8.580445,-5.328343,3.124469,1010.91425,0,0
1.32,8.011654,-5.290211,2.7504516,1010.9398,0,0
1.36,7.9256205999999985,-5.1662807,2.5279348,1010.9016,0,0
1.4,8.403607000000001,-4.9088864,2.4095755000000003,1010.9396,0,0
1.44,8.795554,-4.708691,2.6036863,1010.90137,0,0
1.48,7.619730499999997,-4.9422526,2.182325,1010.8988,0,0
1.52,7.810925,-4.9231862999999985,2.366967,1010.91925,0,0
1.56,8.097716,-5.118615,2.6084218,1010.91925,0,0
1.6,8.527904,-4.942253,3.0439878,1010.91895,0,0
1.64,8.198105,-4.923187,2.7788618,1010.9092,0,0
1.68,8.026033,-4.942253599999999,2.5279384,1010.9116,0,0
1.72,8.035602,-5.023285,2.6226273,1010.90643,0,0
1.76,8.45623,-5.0709505,3.3469913,1010.91174,0,0
1.8,8.222024000000001,-5.0137515,2.9350986,1010.9142,0,0
1.84,8.0977545,-5.0566516,2.4285178,1010.90155,0,0
1.88,8.212472,-5.037585,2.594222,1010.91394,0,0
1.92,8.212477,-4.989919,2.7078483,1010.88873,0,0
1.96,8.1073265,-5.023285400000002,2.7930682,1010.9039,0,0
2.0,8.250725,-4.7992578,2.4427226,1010.9293,0,0
2.04,8.561418,-4.8230906,2.674709,1010.9141,0,0
2.08,7.901812599999999,-4.923188,2.4521925,1010.9116,0,0
2.12,7.930494,-4.861223000000002,2.5894904,1010.93445,0,0
2.16,8.230881,-5.051867,2.7125173,1010.92914,0,0
2.2,8.388602,-5.042333599999999,2.7835324,1010.92926,0,0
2.24,8.183046000000001,-4.980368,2.7219830000000003,1010.91394,0,0
2.28,8.355083,-4.951768,2.5420723,1010.8915,0,0
2.32,8.412416,-4.8326035,2.551539,1010.91895,0,0
2.36,8.087354,-4.956533,2.6651611,1010.9141,0,0
2.4,8.254622999999999,-5.094763,2.5894084,1010.8964,0,0
2.44,8.24982,-4.961298,2.5562654,1010.9138,0,0
2.48,8.383641,-4.780169,2.5373268,1010.9191,0,0
2.52,8.068139,-4.980363400000001,2.437901,1010.92426,0,0
2.56,8.22108,-4.722969,2.5373223,1010.9315,0,0
2.6,8.335759,-5.447485,2.3242707,1010.9417,0,0
2.64,8.005929,-5.266355,2.5751922,1010.89374,0,0
2.68,8.025036,-5.2091556,2.3100643,1010.92426,0,0
2.72,8.139714999999999,-4.5752025000000005,2.366874,1010.9213,0,0
2.76,8.340455,-4.5942693,2.2816534,1010.9342,0,0
2.8,8.789732,-5.023258,2.712482,1010.9013,0,0
2.84,8.593748,-4.9612927,2.6556683,1010.9189,0,0
2.88,8.4455385,-5.166254,2.17749,1010.9493,0,0
2.92,8.426395,-5.0804553,2.6461937,1010.9138,0,0
2.96,8.326007,-5.3473825,2.7645526,1010.9214,0,0
3.0,8.039194,-5.1996183,2.1632812,1010.9187,0,0
3.04,8.54105,-5.118586,2.3005767,1010.92645,0,0
3.08,8.292475999999999,-5.232983,2.1348703,1010.92645,0,0
3.12,8.126886,-5.199659,2.144495,1010.9191,0,0
3.16,7.749328,-5.3617230000000005,1.8178254,1010.9264,0,0
3.2,7.687236,-5.471355,1.9314553,1010.92413,0,0
3.24,7.8163366,-5.4522895999999985,2.2533991,1010.9342,0,0
3.28,7.79246,-5.261628,2.064025,1010.9187,0,0
3.32,8.1462345,-5.1091003,2.120844,1010.92596,0,0
3.36,8.241876,-5.128167,2.319693,1010.93616,0,0
3.4,8.184541000000001,-5.1996665,2.28182,1010.9339,0,0
3.44,8.227582,-5.2377996,2.25815,1010.911,0,0
3.48,8.203729,-5.2664,2.3054984,1010.9034,0,0
3.52,8.332874,-5.161538,1.8888791,1010.9236,0,0
3.56,8.380695,-5.0614405,1.7847241000000005,1010.91846,0,0
3.6,8.557617,-5.1138744,2.059326,1010.8958,0,0
3.64,8.548103,-4.947046,2.0214548,1010.911,0,0
3.68,8.471649000000001,-4.9518127,1.8841592,1010.9059,0,0
3.72,8.027194999999999,-5.237808,1.6758517,1010.92596,0,0
3.76,7.9985394,-5.271175,1.8320891,1010.91595,0,0
3.8,8.175438,-5.1901445,1.8841718,1010.90826,0,0
3.84,7.979511299999999,-5.1758456,1.8841759,1010.90576,0,0
3.88,8.137291000000001,-5.2854776,2.1209004,1010.92346,0,0
3.92,8.11346,-5.2950125,1.8889209,1010.92334,0,0
3.96,8.11346,-5.2950125,1.8889209,1010.9108,0,0
4.0,8.309524,-5.20445,1.827382,1010.91077,0,0
4.04,8.309524,-5.20445,1.827382,1010.92334,0,0
4.08,8.457766000000001,-5.295017,2.1398587000000004,1010.93835,0,0
4.12,8.061086999999999,-5.4189477,1.9031428,1010.92316,0,0
4.16,7.9894133,-5.404649,1.8273945,1010.91565,0,0
4.2,8.347944,-5.2378206,2.1304004,1010.9031,0,0
4.24,8.295411999999999,-5.1949224,1.9315597,1010.89764,0,0
4.28,8.410172,-5.0995927000000005,1.8368757,1010.88257,0,0
4.32,8.558415,-5.13296,1.8652884,1010.9102,0,0
4.36,8.4771805,-5.228292,2.102010700000001,1010.9178,0,0
4.4,8.281255999999999,-5.295025,2.1162183,1010.8949,0,0
4.44,8.1522455,-5.433256,1.9173772,1010.9052,0,0
4.48,8.109274000000001,-5.4523234,2.0215383,1010.938,0,0
4.52,8.420029,-5.395127,1.7800901000000002,1010.91254,0,0
4.56,8.405712,-5.3665276,1.8084985,1010.9153,0,0
4.6,8.458359,-4.9423056,1.8369112,1010.9278,0,0
4.64,8.329327000000001,-5.080536,1.8605855,1010.93036,0,0
4.68,8.133378,-5.218767,1.8132434,1010.9127,0,0
4.72,8.635325,-5.214002,2.0831106,1010.89215,0,0
4.76,8.759646,-5.3570004,2.1825373,1010.9152,0,0
4.8,8.668876,-4.851746,2.1541352,1010.9025,0,0
4.84,8.645022,-4.499022,1.5434011,1010.9046,0,0
4.88,8.463435,-4.8755813,1.8132663,1010.92523,0,0
4.92,8.124138,-5.266441,2.367198,1010.93756,0,0
4.96,8.098192999999998,-5.233024,2.3291354,1010.8922,0,0
5.0,7.9978175,-5.2568574,1.737335,1010.9349,0,0
5.04,7.825744,-5.3664875,1.7704756999999998,1010.9225,0,0
5.08,7.9978175,-5.314056,1.9125079,1010.9018,0,0
5.12,7.9978175,-5.3283559999999985,1.8935703,1010.9071,0,0
5.16,8.370642,-5.075728400000001,1.832023,1010.9245,0,0
5.2,8.370642,-5.075728400000001,1.832023,1010.91943,0,0
5.24,8.858182000000003,-4.9565644,1.7988822,1010.922,0,0
5.28,8.633532,-4.9803967,1.8841015,1010.8968,0,0
5.32,8.270267,-5.1138606,1.7562726000000002,1010.89404,0,0
5.36,7.8687619999999985,-5.2711573,1.6379124,1010.9169,0,0
5.4,7.92134,-5.294989599999999,1.9219768,1010.90924,0,0
5.44,8.131652,-5.2234917,1.9929928,1010.9243,0,0
5.48,8.384981,-5.0042295,1.9172423,1010.8938,0,0
5.52,8.518816000000001,-5.0375953,1.7231317,1010.9215,0,0
5.56,8.647871,-4.947031,1.7136630000000002,1010.9138,0,0
5.6,8.614412,-4.818333999999999,1.8651638,1010.9165,0,0
5.64,8.776925,-4.7325363,1.9172423,1010.89856,0,0
5.68,8.66699,-4.894599,2.021399,1010.9109,0,0
5.72,8.341963,-4.9708643,2.0261338,1010.8933,0,0
5.76,8.289385000000001,-5.075728400000001,2.0592744,1010.9137,0,0
5.8,8.117312,-5.1805925,1.9977272,1010.88824,0,0
5.84,8.122092,-5.1853585,1.9693208,1010.89325,0,0
5.88,8.236808,-5.1472263,1.6710532,1010.8957,0,0
5.92,8.284606,-5.0947948,1.6615843999999995,1010.91327,0,0
5.96,8.370642,-5.0995607000000005,1.7799445,1010.88544,0,0
6.0,8.355806,-5.075716000000001,2.0118852,1010.9183,0,0
6.04,7.299701,-5.7335059999999975,2.4143305,1010.8542,0,0
6.08,8.002336,-5.681074,3.1434290000000003,1010.90686,0,0
6.12,7.6008415,-5.5666776,2.3859253,1010.94745,0,0
6.16,7.7247114,-5.461803,2.5184515,1010.92206,0,0
6.2,7.949347500000001,-5.5905004,2.5421221000000003,1010.8636,0,0
6.24,7.753365,-5.6810637,2.1728377,1010.897,0,0
6.28,7.739020299999999,-5.8812594,2.1965094,1010.92706,0,0
6.32,7.5860566999999985,-5.7048964999999985,2.3290715,1010.9349,0,0
6.36,8.164403,-5.538067,2.5610566,1010.90186,0,0
6.4,8.140498,-5.4236693,2.433227,1010.9042,0,0
6.44,8.049666,-5.485633999999999,2.329069,1010.9295,0,0
6.48,8.030542,-5.571432,2.3432715,1010.91943,0,0
6.52,8.035308,-5.3474035,2.1728315,1010.92957,0,0
6.56,7.8632293,-5.590498,2.2438471,1010.94745,0,0
6.6,7.724605,-5.4522676,2.2533152000000003,1010.94464,0,0
6.64,8.130878,-5.4284339999999975,2.0023909,1010.94214,0,0
6.68,8.197785000000001,-5.290204,2.5184398,1010.93225,0,0
6.72,8.154757,-5.6572285,2.4048135,1010.9346,0,0
6.76,8.1165085,-5.485632,2.3764062000000004,1010.9419,0,0
6.8,7.968324000000001,-5.499932,2.130216,1010.90137,0,0
6.84,7.8774977,-5.1901054,1.9313701,1010.952,0,0
6.88,8.183394,-5.642928,3.0581577,1010.9396,0,0
6.92,7.925271,-5.285436,1.8982269,1010.91437,0,0
6.96,7.8870273,-5.509464,2.1018060000000003,1010.9421,0,0
7.0,7.614563,-5.356934,2.6178546000000003,1010.89154,0,0
7.04,7.7340527,-5.3140345,2.4947596,1010.94965,0,0
7.08,8.2120285,-5.256836,2.949262,1010.92194,0,0
7.12,7.8057303,-5.199637,2.286444,1010.9066,0,0
7.16,7.796535499999999,-5.30451,2.0402882,1010.91925,0,0
7.2,8.260183,-5.199646,3.2522967,1010.9316,0,0
7.24,8.064214,-5.3521757,2.7930596000000003,1010.91425,0,0
7.28,7.959063499999999,-5.266378,2.2154624,1010.90424,0,0
7.32,8.580445,-5.328343,3.124469,1010.91425,0,0
7.36,8.011654,-5.290211,2.7504516,1010.9398,0,0
7.4,7.9256205999999985,-5.1662807,2.5279348,1010.9016,0,0
7.44,8.403607000000001,-4.9088864,2.4095755000000003,1010.9396,0,0
7.48,8.795554,-4.708691,2.6036863,1010.90137,0,0
7.52,7.619730499999997,-4.9422526,2.182325,1010.8988,0,0
7.56,7.810925,-4.9231862999999985,2.366967,1010.91925,0,0
7.6,8.097716,-5.118615,2.6084218,1010.91925,0,0
7.64,8.527904,-4.942253,3.0439878,1010.91895,0,0
7.68,8.198105,-4.923187,2.7788618,1010.9092,0,0
7.72,8.026033,-4.942253599999999,2.5279384,1010.9116,0,0
7.76,8.035602,-5.023285,2.6226273,1010.90643,0,0
7.8,8.45623,-5.0709505,3.3469913,1010.91174,0,0
7.84,8.222024000000001,-5.0137515,2.9350986,1010.9142,0,0
7.88,8.0977545,-5.0566516,2.4285178,1010.90155,0,0
7.92,8.212472,-5.037585,2.594222,1010.91394,0,0
7.96,8.212477,-4.989919,2.7078483,1010.88873,0,0
8.0,8.1073265,-5.023285400000002,2.7930682,1010.9039,0,0
8.04,8.250725,-4.7992578,2.4427226,1010.9293,0,0
8.08,8.561418,-4.8230906,2.674709,1010.9141,0,0
8.12,7.901812599999999,-4.923188,2.4521925,1010.9116,0,0
8.16,7.930494,-4.861223000000002,2.5894904,1010.93445,0,0
8.2,8.230881,-5.051867,2.7125173,1010.92914,0,0
8.24,8.388602,-5.042333599999999,2.7835324,1010.92926,0,0
8.28,8.183046000000001,-4.980368,2.7219830000000003,1010.91394,0,0
8.32,8.355083,-4.951768,2.5420723,1010.8915,0,0
8.36,8.412416,-4.8326035,2.551539,1010.91895,0,0
8.4,8.087354,-4.956533,2.6651611,1010.9141,0,0
8.44,8.254622999999999,-5.094763,2.5894084,1010.8964,0,0
8.48,8.24982,-4.961298,2.5562654,1010.9138,0,0
8.52,8.383641,-4.780169,2.5373268,1010.9191,0,0
8.56,8.068139,-4.980363400000001,2.437901,1010.92426,0,0
8.6,8.22108,-4.722969,2.5373223,1010.9315,0,0
8.64,8.335759,-5.447485,2.3242707,1010.9417,0,0
8.68,8.005929,-5.266355,2.5751922,1010.89374,0,0
8.72,8.025036,-5.2091556,2.3100643,1010.92426,0,0
8.76,8.139714999999999,-4.5752025000000005,2.366874,1010.9213,0,0
8.8,8.340455,-4.5942693,2.2816534,1010.9342,0,0
8.84,8.789732,-5.023258,2.712482,1010.9013,0,0
8.88,8.593748,-4.9612927,2.6556683,1010.9189,0,0
8.92,8.4455385,-5.166254,2.17749,1010.9493,0,0
8.96,8.426395,-5.0804553,2.6461937,1010.9138,0,0
9.0,8.326007,-5.3473825,2.7645526,1010.9214,0,0
9.04,8.039194,-5.1996183,2.1632812,1010.9187,0,0
9.08,8.54105,-5.118586,2.3005767,1010.92645,0,0
9.12,8.292475999999999,-5.232983,2.1348703,1010.92645,0,0
9.16,8.126886,-5.199659,2.144495,1010.9191,0,0
9.2,7.749328,-5.3617230000000005,1.8178254,1010.9264,0,0
9.24,7.687236,-5.471355,1.9314553,1010.92413,0,0
9.28,7.8163366,-5.4522895999999985,2.2533991,1010.9342,0,0
9.32,7.79246,-5.261628,2.064025,1010.9187,0,0
9.36,8.1462345,-5.1091003,2.120844,1010.92596,0,0
9.4,8.241876,-5.128167,2.319693,1010.93616,0,0
9.44,8.184541000000001,-5.1996665,2.28182,1010.9339,0,0
9.48,8.227582,-5.2377996,2.25815,1010.911,0,0
9.52,8.203729,-5.2664,2.3054984,1010.9034,0,0
9.56,8.332874,-5.161538,1.8888791,1010.9236,0,0
9.6,8.380695,-5.0614405,1.7847241000000005,1010.91846,0,0
9.64,8.557617,-5.1138744,2.059326,1010.8958,0,0
9.68,8.548103,-4.947046,2.0214548,1010.911,0,0
9.72,8.471649000000001,-4.9518127,1.8841592,1010.9059,0,0
9.76,8.027194999999999,-5.237808,1.6758517,1010.92596,0,0
9.8,7.9985394,-5.271175,1.8320891,1010.91595,0,0
9.84,8.175438,-5.1901445,1.8841718,1010.90826,0,0
9.88,7.979511299999999,-5.1758456,1.8841759,1010.90576,0,0
9.92,8.137291000000001,-5.2854776,2.1209004,1010.92346,0,0
9.96,8.11346,-5.2950125,1.8889209,1010.92334,0,0
10.0,8.11346,-5.2950125,1.8889209,1010.9108,0,0
10.04,8.309524,-5.20445,1.827382,1010.91077,0,0
10.08,8.309524,-5.20445,1.827382,1010.92334,0,0
10.12,8.457766000000001,-5.295017,2.1398587000000004,1010.93835,0,0
10.16,8.061086999999999,-5.4189477,1.9031428,1010.92316,0,0
10.2,7.9894133,-5.404649,1.8273945,1010.91565,0,0
10.24,8.347944,-5.2378206,2.1304004,1010.9031,0,0
10.28,8.295411999999999,-5.1949224,1.9315597,1010.89764,0,0
10.32,8.410172,-5.0995927000000005,1.8368757,1010.88257,0,0
10.36,8.558415,-5.13296,1.8652884,1010.9102,0,0
10.4,8.4771805,-5.228292,2.102010700000001,1010.9178,0,0
10.44,8.281255999999999,-5.295025,2.1162183,1010.8949,0,0
10.48,8.1522455,-5.433256,1.9173772,1010.9052,0,0
10.52,8.109274000000001,-5.4523234,2.0215383,1010.938,0,0
10.56,8.420029,-5.395127,1.7800901000000002,1010.91254,0,0
10.6,8.405712,-5.3665276,1.8084985,1010.9153,0,0
10.64,8.458359,-4.9423056,1.8369112,1010.9278,0,0
10.68,8.329327000000001,-5.080536,1.8605855,1010.93036,0,0
10.72,8.133378,-5.218767,1.8132434,1010.9127,0,0
10.76,8.635325,-5.214002,2.0831106,1010.89215,0,0
10.8,8.759646,-5.3570004,2.1825373,1010.9152,0,0
10.84,8.668876,-4.851746,2.1541352,1010.9025,0,0
10.88,8.645022,-4.499022,1.5434011,1010.9046,0,0
10.92,8.463435,-4.8755813,1.8132663,1010.92523,0,0
10.96,8.124138,-5.266441,2.367198,1010.93756,0,0
11.0,8.098192999999998,-5.233024,2.3291354,1010.8922,0,0
11.04,7.9978175,-5.2568574,1.737335,1010.9349,0,0
11.08,7.825744,-5.3664875,1.7704756999999998,1010.9225,0,0
11.12,7.9978175,-5.314056,1.9125079,1010.9018,0,0
11.16,7.9978175,-5.3283559999999985,1.8935703,1010.9071,0,0
11.2,8.370642,-5.075728400000001,1.832023,1010.9245,0,0
11.24,8.370642,-5.075728400000001,1.832023,1010.91943,0,0
11.28,8.858182000000003,-4.9565644,1.7988822,1010.922,0,0
11.32,8.633532,-4.9803967,1.8841015,1010.8968,0,0
11.36,8.270267,-5.1138606,1.7562726000000002,1010.89404,0,0
11.4,7.8687619999999985,-5.2711573,1.6379124,1010.9169,0,0
11.44,7.92134,-5.294989599999999,1.9219768,1010.90924,0,0
11.48,8.131652,-5.2234917,1.9929928,1010.9243,0,0
11.52,8.384981,-5.0042295,1.9172423,1010.8938,0,0
11.56,8.518816000000001,-5.0375953,1.7231317,1010.9215,0,0
11.6,8.647871,-4.947031,1.7136630000000002,1010.9138,0,0
11.64,8.614412,-4.818333999999999,1.8651638,1010.9165,0,0
11.68,8.776925,-4.7325363,1.9172423,1010.89856,0,0
11.72,8.66699,-4.894599,2.021399,1010.9109,0,0
11.76,8.341963,-4.9708643,2.0261338,1010.8933,0,0
11.8,8.289385000000001,-5.075728400000001,2.0592744,1010.9137,0,0
11.84,8.117312,-5.1805925,1.9977272,1010.88824,0,0
11.88,8.122092,-5.1853585,1.9693208,1010.89325,0,0
11.92,8.236808,-5.1472263,1.6710532,1010.8957,0,0
11.96,8.284606,-5.0947948,1.6615843999999995,1010.91327,0,0
12.0,8.370642,-5.0995607000000005,1.7799445,1010.88544,0,0
12.04,8.355806,-5.075716000000001,2.0118852,1010.9183,0,0
12.08,8.365347,-5.066182,1.9740081000000005,1010.9311,0,0
12.12,8.403575,-5.056649,1.9976791,1010.90295,0,0
12.16,8.269712,-5.0566487,2.0213487,1010.9181,0,0
12.2,8.322281,-5.0614147,1.9692693,1010.90045,0,0
12.24,8.226656,-5.0995464,1.9503291,1010.90784,0,0
12.28,8.135831,-5.0709467,1.9692657,1010.90515,0,0
12.32,8.154922000000001,-5.228243,1.9219191,1010.8849,0,0
12.36,8.226599,-5.218709,2.0024023,1010.9101,0,0
12.4,8.436892,-5.018513,2.0544791,1010.9024,0,0
12.44,8.542038,-4.999446400000001,2.092353,1010.9126,0,0
12.48,8.470322,-4.7897177000000015,2.016601,1010.91254,0,0
12.52,8.470322,-4.7897177000000015,2.016601,1010.9201,0,0
12.56,8.7044935,-4.8135495000000015,2.3811467,1010.9477,0,0
12.6,8.675805,-4.784950299999998,2.291192,1010.9071,0,0
12.64,8.647108,-4.8755136,2.1491582,1010.88434,0,0
12.68,8.446327,-5.042343,1.9219043,1010.8916,0,0
12.72,8.379401,-5.0375757000000005,1.9550443,1010.91705,0,0
12.76,8.355483,-5.013742400000001,2.0260587,1010.88385,0,0
12.8,8.360244,-5.0518746,1.9929161,1010.9145,0,0
12.84,8.140345,-5.1090727,2.1112735,1010.8911,0,0
12.88,8.1164255,-5.256836,2.1870222000000004,1010.9141,0,0
12.92,8.164214,-5.18057,2.1396773,1010.9217,0,0
12.96,8.364947,-4.942242,2.1254725,1010.9063,0,0
13.0,8.427066,-4.908876,2.0213137,1010.8963,0,0
13.04,8.525001,-4.918466,2.083075,1010.9039,0,0
13.08,8.520294999999999,-5.042399,2.1635666,1010.9163,0,0
13.12,8.128461999999999,-4.8517394,2.0168104,1010.929,0,0
13.16,8.161958,-4.913705,2.0641577,1010.90326,0,0
13.2,8.324581,-4.9995055,2.263013,1010.8985,0,0
13.24,8.425031,-5.118671400000001,2.3908484,1010.8982,0,0
13.28,8.477681,-5.004276,2.3719177000000005,1010.91077,0,0
13.32,8.477681,-5.004276,2.3719177000000005,1010.9055,0,0
13.36,8.382234,-4.9947467,2.0215852,1010.9006,0,0
13.4,8.477902,-5.06148,2.0263262,1010.89526,0,0
13.44,8.506654,-5.128213400000001,2.035802,1010.89526,0,0
13.48,8.358518,-5.1520476,1.9931955,1010.90796,0,0
13.52,8.258252,-5.1949489999999985,2.0263464,1010.8725,0,0
13.56,8.191409,-5.094854,2.0547597,1010.90265,0,0
13.6,8.244023,-5.0519547,2.0594974,1010.8975,0,0
13.64,8.444848,-5.0471900000000005,2.253615,1010.8846,0,0
13.68,8.444848,-5.0471900000000005,2.253615,1010.8769,0,0
13.72,8.249024,-5.147292,2.3009722000000004,1010.8819,0,0
13.76,8.158244,-5.142526,2.2157564,1010.87683,0,0
13.8,8.144015,-5.523853,2.6371286,1010.8945,0,0
13.84,7.9671993,-5.352257700000001,2.5424438,1010.8968,0,0
13.88,8.225418,-5.1091666,1.9885285,1010.9197,0,0
13.92,8.378447,-5.0424365999999985,1.9601288,1010.897,0,0
13.96,8.239905,-5.171135400000002,2.035886,1010.9091,0,0
14.0,8.244722,-5.3760980000000025,2.3957040000000003,1010.9042,0,0
14.04,8.124206,-5.2140102,2.2772505,1010.89154,0,0
14.08,8.172033,-5.2616763,2.064205,1010.8837,0,0
14.12,8.310694,-5.1663465,2.2346478,1010.8884,0,0
14.16,8.215114,-5.252145,2.1778364,1010.8835,0,0
14.2,8.090883999999999,-5.337944,2.1162933999999995,1010.8935,0,0
14.24,8.215174000000001,-5.2473800000000015,2.1447012,1010.92163,0,0
14.28,8.205645,-5.271213,1.9932029,1010.87054,0,0
14.32,8.325185000000001,-5.16635,2.1589115000000003,1010.89075,0,0
14.36,8.306082,-5.204483,2.1305063,1010.8932,0,0
14.4,8.239195,-5.1282187000000015,2.2204627999999995,1010.8881,0,0
14.44,8.239225,-5.0614877,2.1305118,1010.8702,0,0
14.48,8.267934,-5.12822,2.2725465,1010.8829,0,0
14.52,8.330102,-5.2092524,2.300956,1010.89264,0,0
14.56,8.23933,-5.180654,2.1021152,1010.89795,0,0
14.6,8.100747,-5.223554,2.0737114,1010.8872,0,0
14.64,8.076863000000001,-5.2330875,2.1636665,1010.9078,0,0
14.68,8.1438265,-5.204489700000001,2.177874,1010.8723,0,0
14.72,8.196419,-5.209256,2.2583601000000004,1010.8872,0,0
14.76,8.225128,-5.1854239999999985,2.291504,1010.9176,0,0
14.8,8.1773615,-5.152058599999998,2.1494744,1010.89465,0,0
14.84,8.397278,-5.0567293,2.1116035,1010.8714,0,0
14.88,8.2634735,-5.1663604,2.263107,1010.90967,0,0
14.92,8.201366,-5.1425285,2.2252347,1010.87897,0,0
14.96,8.201366,-5.1425285,2.2252347,1010.8916,0,0
15.0,8.067452000000001,-5.2616906,2.0831952,1010.8992,0,0
15.04,8.0483465,-5.2569246,2.2157598,1010.8913,0,0
15.08,8.230017,-5.1568274,2.1826224,1010.8634,0,0
15.12,8.220469,-5.1711273,2.0453258,1010.9141,0,0
15.16,8.339991,-5.23786,2.2347043,1010.889,0,0
15.2,8.301778,-5.128229599999999,2.2063003,1010.88605,0,0
15.24,8.206206,-5.142530000000002,2.0548017,1010.88855,0,0
15.28,8.234911,-5.209262,2.1163514,1010.9086,0,0
15.32,8.301866,-5.285528,2.2678556,1010.87823,0,0
15.36,8.244522,-5.2950616,2.1258247000000003,1010.9085,0,0
15.4,8.206321,-5.2426305,1.9932648,1010.8881,0,0
15.44,8.311502,-5.142534,2.1873777000000003,1010.9057,0,0
15.48,8.311502,-5.142534,2.1873777000000003,1010.90814,0,0
15.52,8.158599,-5.2855315,2.2489297,1010.8981,0,0
15.56,8.263781,-5.194967299999999,2.1779158,1010.89014,0,0
15.6,8.230334,-5.1949677,2.11637,1010.9053,0,0
15.64,8.220813,-5.1949687,2.2678742,1010.91534,0,0
15.68,8.244724,-5.147304,2.1637185000000003,1010.87976,0,0
15.72,8.077456,-5.2712345,2.106908,1010.9075,0,0
15.76,8.077481,-5.2760015,2.244208,1010.8894,0,0
15.8,8.254374,-5.2140374000000005,2.2536805,1010.9201,0,0
15.84,8.158800999999999,-5.2045045,2.1021817000000005,1010.9099,0,0
15.88,8.168374,-5.2664704,2.1921365,1010.88916,0,0
15.92,8.082376,-5.2569385,2.1542647,1010.9144,0,0
15.96,7.996352000000001,-5.3141370000000006,2.1968758,1010.89386,0,0
16.0,8.312591000000001,-5.266491,2.1590712000000005,1010.8712,0,0
16.04,8.283938000000001,-5.2521915,2.1306672000000004,1010.8938,0,0
16.08,8.336571000000001,-5.1949944000000015,2.481018,1010.88354,0,0
16.12,8.508697999999999,-5.004333,2.4336789,1010.9063,0,0
16.16,8.021214,-5.190231,2.0217905,1010.9337,0,0
16.2,7.935204,-5.2426634000000005,2.1543565,1010.9085,0,0
16.24,7.753626,-5.6096897000000014,2.8645222,1010.92346,0,0
16.28,8.064366999999999,-5.0996695,2.4573686,1010.8855,0,0
16.32,8.250862,-4.8041444,2.6372833,1010.9309,0,0
16.36,8.422962,-5.028173000000002,2.6467545,1010.9055,0,0
16.4,8.093210000000001,-5.185471,2.547337,1010.89026,0,0
16.44,8.145843,-4.684984,2.7651246,1010.9003,0,0
16.48,8.451804,-4.794616,2.7367234000000003,1010.95074,0,0
16.52,7.902182000000002,-5.161643,3.072871,1010.91754,0,0
16.56,7.864025,-4.789853,2.6562507,1010.92786,0,0
16.6,7.806722,-4.8232203,3.1675718,1010.915,0,0
16.64,8.189134,-4.7755550000000015,3.612608,1010.9125,0,0
16.68,8.251325999999999,-4.6659255,3.1723132,1010.91223,0,0
16.72,7.983711200000001,-4.937621,3.1817875,1010.9248,0,0
16.76,7.787821000000001,-5.023421,3.2622795,1010.92474,0,0
16.8,8.045957000000001,-4.870892,3.5037367,1010.94226,0,0
16.84,8.098562,-4.894725299999998,3.6505058,1010.89655,0,0
16.88,7.568086,-5.142588,3.6931229,1010.91675,0,0
16.92,8.299451,-4.83753,3.9251137,1010.9013,0,0
16.96,7.7355156,-5.0806260000000005,3.4374774,1010.9192,0,0
17.0,7.912396,-5.1092260000000005,3.693138,1010.92896,0,0
17.04,7.8400089999999985,-5.0996766,3.6125898,1010.8988,0,0
17.08,7.801808999999999,-5.1902423,3.5321085,1010.91364,0,0
17.12,7.887870299999999,-5.080611,3.5179079,1010.9365,0,0
17.16,7.8926630000000015,-5.142576999999998,3.6694098,1010.91364,0,0
17.2,7.5915737,-5.2474422,3.5179121,1010.9135,0,0
17.24,7.644164,-5.328474,3.816181,1010.90326,0,0
17.28,7.54858,-5.3523073,3.7309625,1010.8907,0,0
17.32,7.730251299999999,-5.2522106,3.6646845,1010.91833,0,0
17.36,7.7302637,-5.2331448,3.5321226,1010.9231,0,0
17.4,7.668164699999997,-5.2331457000000015,3.6173453,1010.9179,0,0
17.44,7.548694599999997,-5.3046446,3.470581,1010.8851,0,0
17.48,7.759032,-5.2522129999999985,3.3427546,1010.88983,0,0
17.52,7.7112465,-5.25698,3.4043026,1010.89233,0,0
17.56,7.892917,-5.309413,3.555807,1010.89716,0,0
17.6,7.802125999999999,-5.1854830000000005,3.1912603,1010.9227,0,0
17.64,7.501024,-5.380913,2.8882608,1010.9978,0,0
17.68,7.281165,-5.37138,3.1533885,1010.92725,0,0
17.72,7.8691062999999986,-5.2188506,4.0529275,1010.86206,0,0
17.76,7.013560000000001,-5.447646,2.7462356,1010.88916,0,0
17.8,7.9695589999999985,-4.8613605,3.380649,1010.92957,0,0
17.84,6.894115400000001,-5.052023,2.6704898,1010.9572,0,0
17.88,7.802303999999999,-5.4238153,4.436425,1010.8539,0,0
17.92,6.860707799999999,-5.323718,2.9592931,1010.87396,0,0
17.96,8.356812,-4.8470635,3.574768,1010.9167,0,0
18.0,7.9078827,-5.285595400000001,3.9251482,1010.9163,0,0
18.04,7.2578683,-5.2522306,3.1960535,1010.9167,0,0
18.08,7.439521000000001,-5.2951303,3.3570251000000004,1010.9239,0,0
18.12,7.9127607000000015,-5.1807337,3.8920164,1010.8908,0,0
18.16,7.516096000000001,-5.214101,3.2718148,1010.9035,0,0
18.2,7.6117115,-5.1902685,3.546412,1010.88824,0,0
18.24,7.707367,-5.261769,3.811544,1010.9284,1,1
18.28,7.5401125,-5.1092396,3.1676686000000003,1010.9311,1,1
18.32,7.6213894,-5.0758743,3.0729823,1010.8981,1,1
18.36,7.7887416,-5.080642,3.347583,1010.8905,1,1
18.4,7.855678,-5.161674,3.418601,1010.94855,1,1
18.44,7.812719,-5.314205,3.4990911,1010.91565,1,1
18.48,7.6645837,-5.2188754,3.0256546,1010.91547,1,1
18.52,7.7745395,-5.1140113,2.8883584,1010.91296,1,1
18.56,7.616845,-5.2427096,2.7463298,1010.9053,1,1
18.6,7.5738660000000015,-5.485805,2.845756,1010.8974,1,1
18.64,7.5643262999999985,-5.3904742999999975,2.8552268,1010.90247,1,1
18.68,7.277597,-5.5048733,2.7558095,1010.90247,1,1
18.72,7.244158,-5.705069,2.585373,1010.91504,1,1
18.76,7.3254733,-4.6897936,2.291845,1010.92487,1,1
18.8,8.38183,-3.7126498,3.6316833,1010.9324,1,1
18.84,10.604477,-2.0491228,4.0530486,1010.9095,1,1
18.88,13.329025,-2.5591457,5.1798425,1010.91724,1,1
18.92,14.753427,-2.2111876,6.6049,1010.9047,1,1
18.96,16.789661,-1.9251951,8.243008,1010.91724,1,1
19.0,13.15707,-4.6707335,3.811610700000001,1010.9295,1,1
19.04,11.350343,-5.1998224,3.3476424,1010.9119,1,1
19.08,8.406042,-5.4333844,2.5333304,1010.90686,1,1
19.12,7.4548817,-5.4953504,1.9746723,1010.8893,1,1
19.16,5.5955973,-6.124537,0.9993903,1010.89136,1,1
19.2,5.1606545,-6.358099,0.8668288000000001,1010.9017,1,1
19.24,4.9025645,-6.3485665,0.47387505,1010.914,1,1
19.28,3.698113,-7.587872999999999,-0.27415553,1010.89636,1,1
19.32,3.2201524,-7.892933,-0.7902038,1010.8989,1,1
19.36,3.4113839,-7.931066499999999,-1.4719546,1010.90375,1,1
19.4,6.5469940000000015,-9.708994,-1.5240276,1010.89667,1,1
19.44,8.415936,-10.771936,-0.4019701,1010.90906,1,1
19.48,8.855699000000003,-11.939744,0.68694484,1010.9338,1,1
19.52,10.97319,-11.291493,2.6896017000000003,1010.9418,1,1
19.56,12.20164,-9.923492,1.7332555,1010.9138,1,1
19.6,12.526726,-10.814839,2.973675,1010.9262,1,1
19.64,11.914929,-9.828162,3.5228674,1010.94904,1,1
19.68,10.758256,-6.8347664,2.5665214,1010.93866,1,1
19.72,10.385451,-6.0244517,2.225646,1010.9159,1,1
19.76,11.026005,-4.2798940000000005,3.5134096,1010.9159,1,1
19.8,10.877851,-3.7317398,3.0447056,1010.9614,1,1
19.84,11.546662,-1.7583766,4.2945547,1010.9134,1,1
19.88,11.9434,-1.4533173,4.299291,1010.91815,1,1
19.92,12.755998,-1.9824058,3.0115354,1010.9033,1,1
19.96,13.033257,-3.4028406,2.6138484,1010.9282,1,1
20.0,14.462462,-9.30384,3.3950293,1010.9359,1,1
20.04,14.663245000000002,-9.146543,3.5417986000000004,1010.9509,1,1
20.08,14.505525,-9.1465435,3.4234400000000003,1010.956,1,1
20.12,14.041945000000002,-14.5279875,2.2919226000000004,1010.9406,1,1
20.16,12.220869,-14.480323,1.8563601000000003,1010.9304,1,1
20.2,11.083292,-13.693841,1.8847679,1010.9356,1,1
20.24,8.655180999999999,-11.539358,1.7380041000000002,1010.9406,1,1
20.28,5.720427,-9.527872,1.5628353,1010.9331,1,1
20.32,3.526527,-8.407733,1.1556792,1010.9128,1,1
20.36,2.4558656,-7.8691119999999986,0.9994452,1010.89276,1,1
20.4,1.6385342,-7.335258,0.91422737,1010.9379,1,1
20.44,0.89769477,-6.5630765,-0.32144952,1010.87225,1,1
20.48,2.479855,-7.478256699999997,-1.0931534,1010.9024,1,1
20.52,4.8984656,-8.402969,-0.37352115,1010.89484,1,1
20.56,6.0551934,-9.761438,-0.5250206999999999,1010.8873,1,1
20.6,8.206136,-12.492677,0.01943859,1010.9149,1,1
20.64,12.182977,-12.902601,2.2162066000000005,1010.9301,1,1
20.68,13.578694,-13.1123295,2.7369924,1010.9507,1,1
20.72,16.384485,-12.554645,2.6612458,1010.9527,1,1
20.76,14.979252,-10.352495,2.2919652000000004,1010.94763,1,1
20.8,13.177025,-7.7404160000000015,2.9074156,1010.9122,1,1
20.84,12.001212,-6.191286,3.0920591,1010.91455,1,1
20.88,11.169536,-6.157920400000001,2.893215,1010.9401,1,1
20.92,10.218372,-5.4095716,2.3629634,1010.9423,1,1
20.96,10.562547,-2.826098200000001,3.4992232000000003,1010.95245,1,1
21.0,10.9210415,-1.9776511000000003,3.707538,1010.93225,1,1
21.04,11.44683,-1.5867938,4.2093854,1010.9373,1,1
21.08,13.8367605,-1.7107251,4.261467,1010.94226,1,1
21.12,14.529841,-1.9299868,3.6412609,1010.92694,1,1
21.16,13.626487,-8.193242999999999,2.6754448,1010.95465,1,1
21.2,13.937183,-9.894904,3.0021193,1010.9801,1,1
21.24,13.99934,-10.881582,3.901658,1010.9945,1,1
21.28,13.74603,-12.750073,3.669674,1010.99994,1,1
21.32,14.706789,-14.971289,4.0721,1010.98224,1,1
21.36,11.303607,-12.759607,2.74647,1010.9799,1,1
21.4,9.167053,-11.463103,2.8790355,1010.9848,1,1
21.44,7.9290943,-11.12468,2.8458953,1010.9518,1,1
21.48,5.5535510000000015,-10.252399,2.1357365,1010.9417,1,1
21.52,3.221035,-7.8643556,1.2219989,1010.9169,1,1
21.56,2.647468,-7.068340299999999,0.8337786,1010.90393,1,1
21.6,2.002204,-6.6345844,0.4502927,1010.91644,1,1
21.64,0.18112725,-7.1446066,-0.88007236,1010.9316,1,1
21.68,0.25761363,-7.8357577,-0.98422843,1010.9164,1,1
21.72,3.5748260000000003,-10.281002,-0.43030047,1010.9189,1,1
21.76,7.843209700000001,-11.920698,-0.586534,1010.9088,1,1
21.8,11.165192,-12.96934,0.83852345,1010.9314,1,1
21.84,15.237281,-12.816803,1.5960003,1010.9058,1,1
21.88,17.670208,-11.939757,-0.07524394,1010.9516,1,1
21.92,17.971339999999994,-11.3296385,0.9994665,1010.944,1,1
21.96,14.859695,-9.7328415,3.1867619,1010.9614,1,1
22.0,13.344501,-9.289552,4.323019,1010.95404,1,1
22.04,11.552084,-6.062593,2.7133226,1010.9511,1,1
22.08,10.964171,-5.6431365,1.8753333,1010.95135,1,1
22.12,10.863805,-3.0119972,1.5107852,1010.9591,1,1
22.16,11.313109,-1.8394241,2.5618231,1010.9589,1,1
22.2,13.076866,-0.8575136999999999,4.375101,1010.9766,1,1
22.24,13.076866,-0.8575136999999999,4.375101,1010.96906,1,1
22.28,13.784284,-1.5295982,5.3551235,1010.9658,1,1
22.32,12.001423,-4.480097,5.0994660000000005,1010.9966,1,1
22.36,11.642952,-10.762419,6.055817,1010.9762,1,1
22.4,11.642952,-10.762419,6.055817,1010.9812,1,1
22.44,12.933508,-11.091312,6.6381497000000005,1010.9865,1,1
22.48,14.028089,-13.083733,7.021637400000001,1010.97363,1,1
22.52,14.539531,-14.308739,6.3256803,1010.9711,1,1
22.56,12.049263,-14.289672,6.4108996,1010.9862,1,1
22.6,9.9987335,-12.478381,5.416676,1010.9708,1,1
22.64,7.0878425000000025,-10.833919,3.6980877,1010.9535,1,1
22.68,6.284838,-10.371563,3.3856172999999994,1010.9382,1,1
22.72,4.2438717000000015,-7.645092999999999,2.4576747,1010.92053,1,1
22.76,3.5651426,-6.963475,2.045782,1010.92303,1,1
22.8,2.5566103,-6.310457,1.3734969,1010.92053,1,1
22.84,2.4224913,-6.6631756,1.094141,1010.913,1,1
22.88,2.4224913,-6.6631756,1.094141,1010.898,1,1
22.92,2.3412273,-8.22184,0.48340216,1010.9233,1,1
22.96,5.8304763,-9.728071,0.18513398,1010.92065,1,1
23.0,8.430685,-10.419222,-0.41140148,1010.93585,1,1
23.04,11.169507,-11.582261,0.06677292,1010.9277,1,1
23.08,12.708602,-11.529829,-0.15574433,1010.905,1,1
23.12,14.147315,-11.968352,-0.8706401,1010.915,1,1
23.16,13.721908,-10.833912,-0.9463911,1010.9631,1,1
23.2,13.583291,-9.904433,-0.7049366,1010.9554,1,1
23.24,13.396875,-9.027387,0.2940225,1010.965,1,1
23.28,12.048966,-8.474466,1.0278546999999998,1010.9627,1,1
23.32,12.684672,-5.628831,1.2456367,1010.94507,1,1
23.36,13.16265,-4.2322297,2.0220788,1010.94244,1,1
23.4,12.780258,-2.7831962000000003,2.6233478,1010.94226,1,1
23.44,12.11586,-3.62211,2.7795825,1010.98303,1,1
23.48,12.0537195,-3.946236,3.0305054,1010.97754,1,1
23.52,10.892217,-7.8405128,3.5844302000000003,1010.96234,1,1
23.56,10.892217,-7.8405128,3.5844302000000003,1010.97754,1,1
23.6,11.241138,-10.452586,3.7169929,1010.9697,1,1
23.64,11.56138,-10.228557,4.7538276,1011.00006,1,1
23.68,11.891181,-10.638481,3.7217264,1010.99,1,1
23.72,12.115827,-12.993159,3.3429737,1010.9903,1,1
23.76,11.155079,-13.722444,3.3382385,1010.9494,1,1
23.8,9.491702,-12.001716,3.6412401,1010.9774,1,1
23.84,8.637978,-10.004574,2.3583868,1010.9696,1,1
23.88,7.242343400000001,-9.022666,1.998578,1010.9342,1,1
23.92,5.3448644,-8.155154,1.9370401,1010.92175,1,1
23.96,3.6767812000000006,-7.330541999999999,1.0280406,1010.9192,1,1
24.0,3.6767812000000006,-7.330541999999999,1.0280406,1010.8961,1,1
24.04,2.3337247000000003,-6.72519,0.37469915,1010.8935,1,1
24.08,1.9466976000000005,-6.648928999999999,-0.28810495,1010.9011,1,1
24.12,1.9466976000000005,-6.648928999999999,-0.28810495,1010.91113,1,1
24.16,3.653156,-7.668974,-0.89410245,1010.9189,1,1
24.2,7.0994973,-10.900702,-1.0266564,1010.93896,1,1
24.24,7.993355,-11.944579,0.12854147,1010.93896,1,1
24.28,11.210231,-12.182908,1.0517566,1010.94385,1,1
24.32,13.791394,-12.082812,0.70141697,1010.94403,1,1
24.36,14.556231,-10.96744,2.3205895,1010.97156,1,1
24.4,14.852648,-9.542241,3.28168,1010.96655,1,1
24.44,13.337518,-8.793892999999999,2.8366523,1010.97644,1,1
24.48,10.469739,-5.7814317000000015,2.405831,1010.9359,1,1
24.52,9.265263,-5.5764704000000025,1.435281,1010.96606,1,1
24.56,8.18984,-5.64797,0.64463866,1010.9435,1,1
24.6,9.083767,-5.285714,1.4826376,1010.93304,1,1
24.64,10.9145,-4.5135336,2.3679776,1010.9532,1,1
24.68,11.808358,-3.8986487,2.827218,1010.9611,1,1
24.72,12.305526,-3.5649915,3.3906186000000003,1010.9405,1,1
24.76,9.810572,-7.554601700000001,1.1985985,1010.9405,1,1
24.8,6.804143400000001,-9.527958,-1.5757563,1010.96606,1,1
24.84,6.759682700000001,-9.551756,-1.0124942,1010.9326,1,1
24.88,6.2243580000000005,-10.304871,0.7155646,1010.953,1,1
24.92,6.200468,-10.171409,0.27053145,1010.943,1,1
24.96,6.210041,-9.084634,1.2268823,1010.9604,1,1
25.0,6.0379725,-9.070334,0.8244584999999999,1010.93256,1,1
25.04,5.9662886,-7.1398787,1.1937432,1010.968,1,1
25.08,7.5627521999999985,-6.40583,2.140625,1010.9602,1,1
25.12,7.529298,-5.933941,1.8944364,1010.9628,1,1
25.16,6.869698,-5.9577737,2.5193790000000003,1010.9552,1,1
25.2,7.290325,-5.6050487,2.737162,1010.9349,1,1
25.24,7.672713799999999,-5.1855910000000005,2.860257,1010.92957,1,1
25.28,7.6297092000000015,-5.1236267,2.8791957000000004,1010.9497,1,1
25.32,7.8591440000000015,-4.980630400000001,2.9691498,1010.9368,1,1
25.36,7.4337550000000014,-5.171292299999998,3.3479033,1010.9444,1,1
25.4,7.9977803,-4.9949303,3.873423,1010.9394,1,1
25.44,7.983445599999999,-4.9949303,3.6840475,1010.90656,1,1
25.48,7.940436,-5.018763,3.1632638,1010.97955,1,1
25.52,8.045601,-4.6040730000000005,3.0022945,1011.045,1,1
25.56,8.026489999999999,-4.8662343,3.897098,1010.9363,1,1
25.6,8.203352,-5.1426945,4.6924787000000014,1010.833,1,1
25.64,7.290417999999999,-4.842402,2.7655768,1010.87103,1,1
25.68,8.0791,-4.909134,3.7882094,1010.89343,1,1
25.72,8.055209,-4.8233356,3.5562243,1010.90857,1,1
25.76,8.031315,-4.9663324,3.8166173,1010.90857,1,1
25.8,7.801888000000001,-5.0139985000000005,3.4852092000000003,1010.92096,1,1
25.84,7.787594,-5.1236305,4.077014,1010.93854,1,1
25.88,7.558174,-5.123631,3.7219346,1010.93854,1,1
25.92,7.974027,-5.0092335,3.6272473,1010.93854,1,1
25.96,8.103086,-4.9282026,3.7503424,1010.92096,1,1
26.0,7.9549227,-4.9997004999999985,3.8592346,1010.93616,1,1
26.04,7.6299114,-5.0997987,3.4710147000000005,1010.9181,1,1
26.08,7.787660000000002,-4.937736,3.6177828,1010.9281,1,1
26.12,7.854586999999999,-4.9806356,3.6887999,1010.92834,0,0
26.16,7.864152400000001,-5.0044684,3.8545043,1010.94293,0,0
26.2,8.031461,-4.96157,3.7456145,1010.93036,0,0
26.24,7.926315,-4.9139040000000005,3.8213658,1010.9103,0,0
26.28,7.9836826,-4.7423085999999985,3.4378800000000003,1010.92786,0,0
26.32,8.0314865,-4.6946435,3.3573956,1010.9353,0,0
26.36,7.8403087,-4.7661419999999985,3.7550871,1010.9353,0,0
26.4,7.7303834,-4.85194,3.4236796000000003,1010.9226,0,0
26.44,7.7303834,-4.85194,3.4236796000000003,1010.9351,0,0
26.48,7.634803,-4.6946445,3.3479304,1010.93756,0,0
26.52,7.5248775,-4.9615717,3.1727583,1010.94794,0,0
26.56,7.434066,-5.085502,3.2058997,1010.9301,0,0
26.6,7.376724,-5.095036,2.713523,1010.94763,0,0
26.64,7.357609700000001,-5.176068,2.4247248,1010.9352,0,0
26.68,7.9694343,-5.257099,3.6035926,1010.90674,0,0
26.72,7.548827,-5.6622567,2.808214,1010.9018,0,0
26.76,8.20845,-5.166535,2.865028,1010.9191,0,0
26.8,8.676882,-5.0759706,3.2911253,1010.93475,0,0
26.84,8.6534,-4.96635,3.2580223,1010.95483,0,0
26.88,8.706006,-4.975884400000001,3.2911660000000005,1010.93677,0,0
26.92,8.34278,-5.6003035999999975,3.3953264,1010.9267,0,0
26.96,8.003441,-5.633671,2.902951,1010.9446,0,0
27.0,8.027353,-5.729002,2.7798576,1010.91156,0,0
27.04,7.5207334,-5.9673305,2.3632336,1010.9521,0,0
27.08,7.353453599999999,-5.967331,2.1643896,1010.9647,0,0
27.12,7.3200083,-6.0149965,2.1738598,1010.92413,0,0
27.16,7.1814345999999984,-6.0197644,2.741992,1010.9293,0,0
27.2,7.2149199999999984,-6.196128,2.6141655,1010.95184,0,0
27.24,7.3392344,-5.905369,2.9313743,1010.9292,0,0
27.28,7.2149863,-6.0578995,2.756204,1010.9416,0,0
27.32,6.9521235999999975,-6.1007989999999985,2.192812,1010.90643,0,0
27.36,6.937811,-6.248563,2.6283796,1010.9494,0,0
27.4,6.8231225,-6.4582915000000005,2.6047103,1010.92145,0,0
27.44,6.7849107,-6.5345580000000005,2.2875075,1010.9391,0,0
27.48,6.956997,-6.277164,2.1928205000000003,1010.9391,0,0
27.52,7.411105,-6.2437987,2.4011366,1010.9491,0,0
27.56,7.497167599999999,-6.2771654,2.4200767999999995,1010.9187,0,0
27.6,7.5641117,-6.239033,2.4200792,1010.9441,0,0
27.64,7.4350834,-6.2867,2.1786273,1010.9263,0,0
27.68,7.511574,-6.310533,2.4058797000000003,1010.93396,0,0
27.72,7.5641913,-6.262868,2.1407566000000005,1010.9159,0,0
27.76,7.172260799999999,-6.2676344,1.8756312,1010.94635,0,0
27.8,7.2917957,-6.4296989999999985,2.1502304,1010.9084,0,0
27.84,7.143809299999999,-6.6870975,2.1265757,1010.9335,0,0
27.88,7.4258504,-6.520269,2.0082183,1010.9237,0,0
27.92,7.325508,-6.348674,1.5915939,1010.9363,0,0
27.96,7.387678,-6.1627790000000005,1.6436753,1010.9187,0,0
28.0,7.5454445,-6.191379,1.780976,1010.93604,0,0
28.04,8.090375,-6.167547,2.3254356,1010.9389,0,0
28.08,7.961353999999999,-6.038851,2.751535,1010.92596,0,0
28.12,7.598121000000001,-5.848189,2.600037,1010.9287,0,0
28.16,7.2014303,-5.9339879999999985,2.4438047000000003,1010.9187,0,0
28.2,7.053273,-6.096051,2.3443837000000003,1010.92346,0,0
28.24,6.8860292,-6.6442070000000015,2.140809,1010.92084,0,0
28.28,6.8860292,-6.6442070000000015,2.140809,1010.92834,0,0
28.32,7.125069,-6.6680408,2.6237228,1010.9287,0,0
28.36,7.713017999999999,-6.2485847,1.9751122,1010.91565,0,0
28.4,7.918582000000002,-6.0388565000000005,1.4117211,1010.92847,0,0
28.44,7.4741095999999985,-6.2199874,1.5300858999999998,1010.9309,0,0
28.48,7.345072,-6.2962527,1.7952138,1010.93604,0,0
28.52,7.048774000000001,-6.5536475,2.155033,1010.9536,0,0
28.56,7.1922007,-6.5059834,2.1455674,1010.93604,0,0
28.6,7.2208960000000015,-6.4916839999999985,2.2781324,1010.9133,0,0
28.64,7.263963,-6.27719,2.164511,1010.9335,0,0
28.68,7.464748399999999,-6.396354,2.1597798,1010.91327,0,0
28.72,7.512562299999999,-6.3677554,2.2260628,1010.9484,0,0
28.76,7.383541,-6.3486905,2.0319552,1010.9257,0,0
28.8,7.268859,-6.4487885999999985,1.9372702,1010.9081,0,0
28.84,7.220258999999999,-6.3725038,1.880384,1010.9179,0,0
28.88,7.1055436,-6.396337,1.904056,1010.92316,0,0
28.92,7.177241,-6.382037,2.0839634,1010.93835,0,0
28.96,7.0625253,-6.5584,2.126573,1010.94104,0,0
29.0,7.4688087,-6.1341763,2.3538244,1010.94617,0,0
29.04,7.444909599999999,-6.1103435,2.0602915,1010.91815,0,0
29.08,7.454469,-6.1866083,2.2165267,1010.9309,0,0
29.12,7.4688087,-6.181842,2.2970116000000003,1010.9638,0,0
29.16,7.363653,-6.2819395,2.3254178,1010.936,0,0
29.2,7.2728367,-6.2152075999999985,2.1928546000000004,1010.91077,0,0
29.24,7.1437820000000025,-6.12941,2.0650258000000004,1010.941,0,0
29.28,7.1820207,-6.1151104000000025,2.1691828,1010.9384,0,0
29.32,7.1868,-6.1627755,2.2401986000000003,1010.9561,0,0
29.36,7.2728367,-6.3629713,2.3727622000000004,1010.91534,0,0
29.4,7.6408815,-6.448769,2.2780738,1010.9335,0,0
29.44,7.4688087,-6.1484755999999985,2.0934322,1010.9184,0,0
29.48,7.416231,-6.1532426,2.0034785,1010.9406,0,0
29.52,7.2776165,-6.3153057,2.1786516,1010.92834,0,0
29.56,7.1533419999999985,-6.3391385,2.1218386,1010.946,0,0
29.6,7.4974875,-6.1913753,2.2780738,1010.9409,0,0
29.64,7.3875523,-6.248574,2.3916998,1010.94617,0,0
29.68,7.215479400000001,-6.386804,2.3916998,1010.9279,0,0
29.72,7.2823963,-6.248574,2.1975892000000004,1010.94867,0,0
29.76,7.3493137000000015,-6.277173,2.055557,1010.94604,0,0
29.8,7.3349743,-6.3248386,2.1360419,1010.93585,0,0
29.84,7.3833475,-6.3343862999999985,2.339674,1010.9309,0,0
29.88,7.3738227,-6.119891,2.1124258,1010.9257,0,0
29.92,7.369053999999997,-6.200923,2.1739740000000003,1010.90533,0,0
29.96,7.2065754,-6.3105555,2.2686653,1010.9431,0,0
30.0,7.330872500000001,-6.353454599999999,2.2828705,1010.938,0,0
30.04,7.3165559999999985,-6.2533574,2.192919,1010.9158,0,0
30.08,7.3117994999999985,-6.272424,2.0603576,1010.9334,0,0
30.12,7.378728,-6.301024,2.1266403,1010.9458,0,0
30.16,7.3930902,-6.262892,2.1219082,1010.92584,0,0
30.2,7.369214,-6.3200910000000015,2.178723,1010.9229,0,0
30.24,7.374017,-6.267659,2.1361156,1010.89777,0,0
30.28,7.259324,-6.3820577000000025,2.1124456,1010.9561,0,0
30.32,7.1637397,-6.362992,2.1455872000000005,1010.92584,0,0
30.36,7.2976084,-6.296261,2.1597936,1010.9284,0,0
30.4,7.273720699999997,-6.3343940000000005,2.1219196,1010.9433,0,0
30.44,7.350220699999999,-6.3010283,2.1692657000000004,1010.9229,0,0
30.48,7.3311353000000015,-6.339161,2.0603774,1010.93317,0,0
30.52,7.3263783,-6.334396,2.074583,1010.92035,0,0
30.56,7.3741994,-6.334396400000001,2.1503353,1010.92316,0,0
30.6,7.3359723,-6.343929,2.1171958,1010.9101,0,0
30.64,7.292977,-6.310564,2.1171978,1010.91534,0,0
30.68,7.355137299999999,-6.334398,2.131403,1010.9329,0,0
30.72,7.3025823,-6.2819653,2.1456082000000003,1010.9456,0,0
30.76,7.2834744,-6.2581334,2.188219,1010.9431,0,0
30.8,7.2643895,-6.382065,2.126675,1010.9583,0,0
30.84,7.350448599999999,-6.310567,2.1219425,1010.90784,0,0
30.88,7.541675,-6.2057033,2.2261024,1010.93054,0,0
30.92,7.3361664000000015,-6.258136,2.0746038,1010.9406,0,0
30.96,7.2549324,-6.334402,2.0793402,1010.9302,0,0
31.0,7.307522,-6.3439345000000005,2.1408887,1010.8872,0,0
31.04,7.336235,-6.382068,2.2355797,1010.94293,0,0
31.08,7.168964999999999,-6.3153367,2.1030185,1010.9254,0,0
31.12,7.317161,-6.2772055,2.1124892,1010.9384,0,0
31.16,7.441459,-6.3105717000000014,2.1551013,1010.9176,0,0
31.2,7.3458858,-6.3868375,2.046212,1010.9101,0,0
31.24,7.345897,-6.3773046,2.1124945,1010.9504,0,0
31.28,7.441528,-6.205709,1.9562625,1010.9302,0,0
31.32,7.431978999999999,-6.239075,2.0367484,1010.94543,0,0
31.36,7.2694893,-6.3916054,2.1172354,1010.92755,0,0
31.4,7.197814500000002,-6.3773065,2.1361752,1010.9302,0,0
31.44,7.250404,-6.3820734,2.1551137,1010.9352,0,0
31.48,7.288665299999999,-6.3344083,2.0509589,1010.95325,0,0
31.52,7.307818400000001,-6.453573,2.0793686,1010.9328,0,0
31.56,7.3890867,-6.358242,2.0320253,1010.9376,0,0
31.6,7.556414,-6.215246,1.9799501,1010.9201,0,0
31.64,7.3939238,-6.310578,2.0746405,1010.9024,0,0
31.68,7.2314334,-6.458342,2.09358,1010.96295,0,0
31.72,7.212325,-6.6061053,2.0983155,1010.92505,0,0
31.76,6.9064520000000025,-6.734803,1.9704896,1010.9427,0,0
31.8,6.99728,-6.687138,1.9184122,1010.96277,0,0
31.84,7.210271400000001,-6.6060550000000005,1.7004374,1010.9428,0,0
31.88,7.4587913,-6.5822210000000005,1.7004346999999995,1010.9424,0,0
31.92,7.4587913,-6.5822210000000005,1.7004346999999995,1010.93,0,0
31.96,7.4348725999999985,-6.701385,1.6199479,1010.9326,0,0
32.0,7.554347999999999,-6.391558,1.7667128,1010.9174,0,0
32.04,7.6260357,-6.3152933,1.9040097,1010.92755,0,0
32.08,7.3918050000000015,-6.334359,1.8803358,1010.9399,0,0
32.12,7.157564999999999,-6.3391247,1.9750211,1010.96246,0,0
32.16,7.501681299999999,-6.2676253,1.9182055,1010.9324,0,0
32.2,7.496892,-6.2056603,1.851923,1010.89966,0,0
32.24,7.0188820000000005,-6.31529,1.6672785,1010.9223,0,0
32.28,6.923276,-6.3677220000000005,1.6057304,1010.90466,0,0
32.32,7.143117,-6.41062,1.6341342,1010.9376,0,0
32.36,7.339079400000001,-6.291456,1.6578052,1010.91724,0,0
32.4,7.405987,-6.267623,1.6862108,1010.9346,0,0
32.44,7.463305,-6.2247233,1.814036,1010.9374,0,0
32.48,7.5349917,-6.20089,1.8519104,1010.9324,0,0
32.52,7.778742999999999,-6.1722903,1.8235022,1010.9421,0,0
32.56,7.793062,-6.1293907,1.8092971,1010.965,0,0
32.6,7.793062,-6.1293907,1.8092971,1010.9396,0,0
32.64,7.60183,-6.134156,1.8140279,1010.9374,0,0
32.68,7.4775456999999985,-6.177055,1.8897775,1010.9348,0,0
32.72,7.157269,-6.405849,2.0507445,1010.9673,0,0
32.76,7.2480655,-6.358183,2.0270708,1010.93207,0,0
32.8,7.4547505,-6.196149,1.9372226,1010.9346,0,0
32.84,7.4786777,-6.219982,1.8993499,1010.9346,0,0
32.88,7.5790815,-6.2152157,1.8425395,1010.95215,0,0
32.92,7.636452999999999,-6.2342825,1.7999313,1010.9673,0,0
32.96,7.4978666,-6.2771826,1.6342297,1010.94714,0,0
33.0,7.430977,-6.334382,1.7052482,1010.9371,0,0
33.04,7.349762400000001,-6.3486824,1.8046745,1010.9446,0,0
33.08,7.3688955,-6.362982700000001,1.7810038,1010.9466,0,0
33.12,7.402382000000001,-6.3677497,1.8378192,1010.9165,0,0
33.16,7.435882,-6.3439174000000005,1.6721189,1010.94464,0,0
33.2,7.4072179999999985,-6.3153186,1.6863234,1010.9367,0,0
33.24,7.345108,-6.377285,1.7620765,1010.95917,0,0
33.28,7.2543335,-6.4773836,1.7526113999999997,1010.9288,0,0
33.32,7.259141400000002,-6.4678510000000005,1.8094269,1010.9264,0,0
33.36,7.2639494,-6.463085,1.5963812,1010.9264,0,0
33.4,7.316540700000001,-6.424953,1.5916481000000002,1010.95404,0,0
33.44,7.469522500000001,-6.3343897,1.653198,1010.94904,0,0
33.48,7.3978667,-6.4058886,1.7526243,1010.92096,0,0
33.52,7.307078999999999,-6.4869204000000025,1.76683,1010.9338,0,0
33.56,7.388364,-6.4106565,1.6153316,1010.941,0,0
33.6,7.388364,-6.4106565,1.6153316,1010.9364,0,0
33.64,7.268910400000001,-6.4964557,1.6390074,1010.94385,0,0
33.68,7.2832775,-6.4249578000000005,1.7242292,1010.9236,0,0
33.72,7.464952,-6.3868269999999985,1.7526395,1010.9338,0,0
33.76,7.393269,-6.3963594000000015,1.7289689,1010.9261,0,0
33.8,7.335939,-6.4487925000000015,1.6863618000000002,1010.9565,0,0
33.84,7.3796005,-6.3534775,1.7053583,1010.9511,0,0
33.88,7.3461675999999985,-6.386844,1.6816885,1010.9763,0,0
33.92,7.2554293,-6.448811,1.7527118000000002,1010.9533,0,0
33.96,7.3367385999999986,-6.401147,1.7811229,1010.9663,0,0
34.0,7.375002999999999,-6.3868475,1.7290468,1010.9561,0,0
34.04,7.384614,-6.3820825,1.7195828999999998,1010.94324,0,0
34.08,7.475508,-6.3058190000000005,1.7243243,1010.9406,0,0
34.12,7.346506,-6.401152,1.7290636,1010.95325,0,0
34.16,7.3417783,-6.4154525,1.8521628,1010.9306,0,0
34.2,7.3944077,-6.324889700000001,1.7101353,1010.96075,0,0
34.24,7.4279447,-6.348724400000001,1.7338146,1010.96075,0,0
34.28,7.4136314,-6.391624,1.7196138,1010.9505,0,0
34.32,7.3037477,-6.4774227,1.7859002,1010.9529,0,0
34.36,7.3037477,-6.4774227,1.7859002,1010.9452,0,0
34.4,7.413788,-6.3773284000000015,1.7622378,1010.9377,0,0
34.44,7.375575,-6.405928,1.8143185,1010.9606,0,0
34.48,7.370821,-6.429762,1.8332585,1010.9655,0,0
34.52,7.3661194,-6.3820977,1.7338432,1010.9703,0,0
34.56,7.394875999999999,-6.3487339999999985,1.7385848000000002,1010.9526,0,0
34.6,7.4427004,-6.3106019999999985,1.8001343,1010.955,0,0
34.64,7.433192699999997,-6.324903,1.8758897,1010.9119,0,0
34.68,7.352014,-6.4345355,1.7338645,1010.95483,0,0
34.72,7.4332967,-6.4059370000000015,1.781211,1010.9194,0,0
34.76,7.428569,-6.3058405,1.653387,1010.96796,0,0
34.8,7.414282000000001,-6.401173,1.7717518,1010.9545,0,0
34.84,7.388717999999999,-6.315334,1.8426155,1010.92926,0,0
34.88,7.4460607,-6.3391666,1.7479261,1010.9497,0,0
34.92,7.426933999999997,-6.3391660000000005,1.7526596,1010.9394,0,0
34.96,7.3408820000000015,-6.343932,1.8284088,1010.957,0,0
35.0,7.4938207,-6.2962669999999985,1.7479224999999998,1010.9747,0,0
35.04,7.441235000000002,-6.339165,1.714781,1010.934,0,0
35.08,7.3456235,-6.382064,1.7905301,1010.97424,0,0
35.12,7.4555364,-6.2914987,1.7810591,1010.934,0,0
35.16,7.4220624000000015,-6.362997,1.7053074,1010.9566,0,0
35.2,7.374249499999999,-6.34393,1.7384468000000002,1010.9616,0,0
35.24,7.402920699999999,-6.3153305,1.7195083999999998,1010.94147,0,0
35.28,7.3885584,-6.32963,1.7763193,1010.9239,0,0
35.32,7.326413,-6.339163,1.747912,1010.9563,0,0
35.36,7.412434599999999,-6.3486958,1.8189267,1010.9183,0,0
35.4,7.4124117,-6.339162,1.7431742,1010.94867,0,0
35.44,7.388505,-6.3629947,1.7242358,1010.96375,0,0
35.48,7.436272,-6.3200946,1.7952491000000002,1010.91583,0,0
35.52,7.4267054,-6.343927,1.7621076,1010.9458,0,0
35.56,7.383679400000001,-6.320094,1.7384349,1010.9611,0,0
35.6,7.4314547000000015,-6.3629932,1.7573705000000002,1010.95593,0,0
35.64,7.4171076,-6.3343935,1.6768848000000005,1010.961,0,0
35.68,7.407532700000001,-6.353459,1.7100243999999998,1010.9406,0,0
35.72,7.498326299999999,-6.272427,1.719491,1010.9227,0,0
35.76,7.493539,-6.324859,1.7242247,1010.943,0,0
35.8,7.3420725,-6.329662,1.7006888,1010.9426,0,0
35.84,7.4281320000000015,-6.2867637,1.7622383,1010.95013,0,0
35.88,7.428178,-6.3677964000000005,1.7717111,1010.95544,0,0
35.92,7.4616820000000015,-6.3010654000000015,1.7480433999999998,1010.9552,0,0
35.96,7.4091496,-6.2581677,1.6912346,1010.9299,0,0
36.0,7.418755,-6.334434,1.714911,1010.9423,0,0
36.04,7.366223,-6.372567,1.8001343,1010.9122,0,0
36.08,7.351928999999997,-6.329669,1.7338568,1010.95233,0,0
36.12,7.404553,-6.358269,1.6912513999999998,1010.9272,0,0
36.16,7.4762955,-6.3439713,1.7243963,1010.92975,0,0
36.2,7.4524417,-6.348739,1.6865253,1010.93195,0,0
36.24,7.3855705,-6.3535066,1.7007328000000002,1010.92175,0,0
36.28,7.433414,-6.3535075,1.7244089,1010.9268,0,0
36.32,7.447776299999999,-6.3153760000000005,1.677067,1010.9495,0,0
36.36,7.4334826,-6.3344435999999975,1.7244152,1010.94916,0,0
36.4,7.495666,-6.2343470000000005,1.8096387,1010.9341,0,0
36.44,7.433574,-6.2438807,1.7480956000000003,1010.92896,0,0
36.48,7.342826400000001,-6.3535132,1.8806653,1010.9164,0,0
36.52,7.4767065000000015,-6.2772492999999985,1.7339028000000003,1010.9593,0,0
36.56,7.4002523,-6.3249154,1.6723577,1010.95905,0,0
36.6,7.323821499999997,-6.310617400000001,1.6770962,1010.9488,0,0
36.64,7.429023,-6.2581862999999975,1.7481166,1010.95905,0,0
36.68,7.486449,-6.234355,1.7717948,1010.9388,0,0
36.72,7.448256,-6.258189,1.8286119,1010.9664,0,0
36.76,7.462618400000001,-6.2534227,1.8475515,1010.98145,0,0
36.8,7.4817834,-6.324922,1.8286182,1010.95386,0,0
36.84,7.4714766,-6.277238400000001,1.6249703000000002,1010.92834,0,0
36.88,7.423692699999997,-6.3487377,1.549221,1010.9455,0,0
36.92,7.3950205,-6.363037,1.610769,1010.9304,0,0
36.96,7.4237204,-6.3630375999999975,1.8522257,1010.95306,0,0
37.0,7.4237204,-6.3630375999999975,1.8522257,1010.9508,0,0
37.04,7.466767,-6.2772403,1.7954152,1010.92035,0,0
37.08,7.428542,-6.2581744000000015,1.6912596999999998,1010.9632,0,0
37.12,7.4237766,-6.296307,1.7859490000000002,1010.95026,0,0
37.16,7.375985000000001,-6.32014,1.7528088,1010.9554,0,0
37.2,7.4142447,-6.3153744000000005,1.8285613,1010.9377,0,0
37.24,7.404692,-6.2915416,1.8048898,1010.9401,0,0
37.28,7.4620633,-6.2391095000000005,1.733875,1010.92975,0,0
37.32,7.442958999999999,-6.3725734,1.7244074,1010.92725,0,0
37.36,7.3903947,-6.3296747,1.8427689,1010.9524,0,0
37.4,7.4334335,-6.2867765,1.738614,1010.93463,0,0
37.44,7.4334335,-6.2867765,1.738614,1010.90424,0,0
37.48,7.505144,-6.305843,1.7764904,1010.9218,0,0
37.52,7.3713307,-6.2772440000000005,1.748086,1010.9394,0,0
37.56,7.357005,-6.3725758,1.7480873,1010.9117,0,0
37.6,7.438276299999999,-6.320143700000001,1.7859637,1010.9393,0,0
37.64,7.457402,-6.3344435999999975,1.8096365,1010.91394,0,0
37.68,7.505214,-6.2534122000000005,1.7575592,1010.91394,0,0
37.72,7.4239717,-6.324911,1.7102164,1010.9366,0,0
37.76,7.30927,-6.3678107000000015,1.7433584999999998,1010.924,0,0
37.8,7.4287796,-6.3487453,1.8475168,1010.9061,0,0
37.84,7.343250999999999,-6.296325,1.7718128,1010.929,0,0
37.88,7.362419999999997,-6.3392253,1.8049581,1010.9313,0,0
37.92,7.362419999999997,-6.3392253,1.8049581,1010.93115,0,0
37.96,7.424607000000001,-6.3392267,1.8428378,1010.9136,0,0
38.0,7.372045,-6.3439937,1.7954953000000002,1010.92096,0,0
38.04,7.4055532999999985,-6.286796,1.7528901999999995,1010.92584,0,0
38.08,7.3434490000000014,-6.4059606,1.8144405,1010.9511,0,0
38.12,7.310022999999997,-6.348763,1.890194,1010.9334,0,0
38.16,7.415211999999999,-6.2867989999999985,1.7860401,1010.9435,0,0
38.2,7.4009056,-6.3773637,1.7907776000000002,1010.9359,0,0
38.24,7.43916,-6.363065,1.8097167,1010.9007,0,0
38.28,7.391412,-6.3153996,1.7718459,1010.9356,0,0
38.32,7.348426,-6.3392339999999985,1.7813178,1010.8977,0,0
38.36,7.3914614,-6.3869,1.8191946,1010.91296,0,0
38.4,7.434528999999999,-6.3106365,1.8334023,1010.8869,0,0
38.44,7.401103,-6.3201694,1.8097333,1010.91754,0,0
38.48,7.358101400000002,-6.3392367,1.7955316000000003,1010.9457,0,0
38.52,7.4298315000000015,-6.3440037,1.8428786,1010.9172,0,0
38.56,7.492002,-6.2629730000000015,1.8239441000000003,1010.9046,0,0
38.6,7.410778,-6.305873,1.8428848,1010.9424,0,0
38.64,7.315232000000001,-6.3773727,1.8712957,1010.93475,0,0
38.68,7.315232000000001,-6.3773727,1.8712957,1010.9198,0,0
38.72,7.415657,-6.3106427000000025,1.833425,1010.9197,0,0
38.76,7.358332000000001,-6.3392425,1.8097559,1010.92944,0,0
38.8,7.439622,-6.286811,1.809759,1010.95996,0,0
38.84,7.3767414,-6.367824,1.8617693,1010.9195,0,0
38.88,7.309826400000001,-6.3773575,1.7907535,1010.9648,0,0
38.92,7.3576255,-6.3439918,1.8333633000000005,1010.9443,0,0
38.96,7.4149866,-6.358291,1.8191603,1010.95935,0,0
39.0,7.4054303,-6.3773575,1.7244725,1010.9443,0,0
39.04,7.4675717000000015,-6.2534269999999985,1.7055353,1010.93646,0,0
39.08,7.438894,-6.2677264,1.7765514999999998,1010.92163,0,0
39.12,7.257264599999999,-6.439323,1.9659281,1010.92377,0,0
39.16,7.257264599999999,-6.439323,1.9659281,1010.9614,0,0
39.2,7.348085,-6.4059567,1.7055361,1010.9513,0,0
39.24,7.4484625,-6.339226,1.6913328999999997,1010.9639,0,0
39.28,7.5392823,-6.2867937000000005,1.7907558999999995,1010.94635,0,0
39.32,7.481926400000001,-6.301093,1.8286313000000003,1010.94104,0,0
39.36,7.328975,-6.3487587,1.7812874,1010.9511,0,0
39.4,7.2572800000000015,-6.4250235999999985,1.8475692,1010.9611,0,0
39.44,7.328980400000002,-6.3725915,1.8901793,1010.9434,0,0
39.48,7.4675984,-6.2915597000000005,1.7150066000000002,1010.951,0,0
39.52,7.4389205,-6.339226,1.7481476000000002,1010.9709,0,0
39.56,7.448484,-6.3916583,1.7670856,1010.9558,0,0
39.6,7.295531299999999,-6.486989,1.7670857,1010.94574,0,0
39.64,7.3050933,-6.372592,1.8238986,1010.9709,0,0
39.68,7.314655,-6.3487589999999985,1.7812891,1010.978,0,0
39.72,7.434153599999999,-6.386892,1.7197421999999998,1010.9604,0,0
39.76,7.6205697,-6.2677274,1.6155857,1010.9907,0,0
39.8,7.606231699999999,-6.2629614,1.6155857,1010.9805,0,0
39.84,7.650025,-6.1485825,1.7860953000000002,1010.95795,0,0
39.88,7.329811,-6.1771827,1.6772071,1010.9655,0,0
39.92,7.119517,-6.4488773,1.8145062,1010.9524,0,0
39.96,7.0860906,-6.4870105,2.0086198,1010.95496,0,0
40.0,7.760092699999999,-6.048489,1.9423429,1010.98004,0,0
40.04,7.5450344,-6.177186,1.7671728,1010.95966,0,0
40.08,7.1005454,-6.6586094,1.6630189999999998,1010.94745,0,0
40.12,7.3156867,-6.3964496,1.5920074,1010.95685,0,0
40.16,7.392196,-6.386918,1.7719178,1010.9852,0,0
40.2,7.287074,-6.4441175,1.9092184,1010.9721,0,0
40.24,7.449619999999999,-6.2010236,1.7908613999999998,1010.94684,0,0
40.28,7.3158020000000015,-6.229623,1.7293156000000005,1010.9621,0,0
40.32,7.645657499999999,-6.0341954000000015,1.9849782,1010.97186,0,0
40.36,7.4640584,-6.220093,1.8476833,1010.9996,0,0
40.4,7.4401755,-6.262992,1.9897169,1010.96967,0,0
40.44,7.449768,-6.181961,2.0323296,1010.9589,0,0
40.48,7.373307700000002,-6.2582264,2.018128,1010.96906,0,0
40.52,7.2634053,-6.2582273,1.8760989,1010.96906,0,0
40.56,7.5263276,-6.2677608,1.8524297,1010.977,0,0
40.6,7.7223324999999985,-6.105699,1.9849963,1010.9586,0,0
40.64,7.688923,-6.019902,1.9613286,1010.9561,0,0
40.68,7.4356103,-6.0342015999999985,1.8855798,1010.9507,0,0
40.72,7.230128,-6.210566,1.9802724,1010.96625,0,0
40.76,7.516949,-6.1009364,2.198058,1010.9533,0,0
40.8,7.7177175999999985,-6.0151386,2.1980596,1010.9659,0,0
40.84,7.698182000000001,-6.0484943,2.1222708,1010.9532,0,0
40.88,7.56915,-6.086627,2.4773533,1010.9758,0,0
40.92,7.4735619999999985,-5.981763,2.3447907000000003,1010.9683,0,0
40.96,7.487916499999999,-6.158126,2.122275,1010.96326,0,0
41.0,7.2919674,-6.3440223,2.2359028,1010.93506,0,0
41.04,7.2919674,-6.3440223,2.2359028,1010.9552,0,0
41.08,7.3206687000000015,-6.0389633,2.6288605,1010.94006,0,0
41.12,7.268105999999999,-6.0770965,2.1696248,1010.93756,0,0
41.16,7.248995,-6.1247615999999985,2.1838286,1010.9652,0,0
41.2,7.1247425,-6.3392572,2.633599,1010.9552,0,0
41.24,7.502362299999999,-6.172428,2.4726307,1010.93225,0,0
41.28,7.325532400000001,-6.2200947,2.1648967,1010.94507,0,0
41.32,7.3112005999999985,-6.2868260000000005,2.3211327,1010.9421,0,0
41.36,7.1152515,-6.482256,2.2453842,1010.9371,0,0
41.4,7.1152515,-6.482256,2.2453842,1010.9823,0,0
41.44,7.019678,-6.61572,2.2169797000000004,1010.9698,0,0
41.48,7.034033,-6.33926,2.3211384,1010.9875,0,0
41.52,6.890661200000001,-6.401226,2.1128266,1010.9367,0,0
41.56,7.014951700000001,-6.6395545,2.4489703,1010.9593,0,0
41.6,7.1965995,-6.5823554999999985,2.5389256,1010.98444,0,0
41.64,7.1774955,-6.477491400000001,2.619412,1010.954,0,0
41.68,7.1774955,-6.477491400000001,2.619412,1010.96674,0,0
41.72,7.0484633,-6.739653,2.6856956000000003,1010.9566,0,0
41.76,7.110616,-6.5632906,2.4300394,1010.9744,0,0
41.8,7.2062197,-6.5394583,2.3448205,1010.97174,0,0
41.84,7.097194,-6.725376,2.392248,1010.9893,0,0
41.88,7.0733710000000025,-7.125769,2.2312853,1010.98663,0,0
41.92,7.0782022,-6.920808,2.1602738,1010.9889,0,0
41.96,6.743666,-6.844545,1.9945743,1010.95355,0,0
42.0,5.8785725,-7.3212012999999985,2.3070498,1010.95874,0,0
42.04,6.2657620000000005,-6.97801,2.624257,1010.95874,0,0
42.08,6.4618096,-6.5442557,2.250246,1010.95105,0,0
42.12,6.337586,-6.625288,3.1687253,1010.9888,0,0
42.16,6.433207,-6.911282000000001,3.4906669000000003,1010.9686,0,0
42.2,7.0498775999999985,-6.639589999999999,2.9556862999999995,1010.9837,0,0
42.24,7.0498775999999985,-6.639589999999999,2.9556862999999995,1010.98346,0,0
42.28,6.9209247000000005,-6.515662,2.8231323,1010.9352,0,0
42.32,6.9209247000000005,-6.515662,2.8231323,1010.9628,0,0
42.36,7.1217275,-6.2964015,2.4775255,1010.9759,0,0
42.4,6.9975533,-6.8779244,2.8988967,1010.9628,0,0
42.44,6.9975533,-6.8779244,2.8988967,1010.9628,0,0
42.48,7.2175264000000015,-6.115278,2.9083748,1010.9808,0,0
42.52,6.988121499999999,-6.1105113,2.9036427,1010.9552,0,0
42.56,6.8878210000000015,-6.005649,2.3118489,1010.9628,0,0
42.6,7.313248599999999,-5.7816220000000005,2.752151,1011.018,0,0
42.64,7.8581977,-5.862654,3.7937248,1010.9627,0,0
42.68,7.619258,-6.0104194,3.8600109,1010.9546,0,0
42.72,7.4950337,-6.019953299999999,3.500201,1010.9802,0,0
42.76,7.8009925,-5.424135,3.6801128,1010.9546,0,0
42.8,6.9877067,-6.091435400000001,3.0693088,1011.0003,0,0
42.84,6.9877067,-6.091435400000001,3.0693088,1010.9726,0,0
42.88,6.887339999999999,-6.0676026,3.7794704,1010.96466,0,0
42.92,6.5958004,-6.36313,3.4054550000000003,1010.9391,0,0
42.96,6.901717,-6.0914364,3.244486,1010.96466,0,0
43.0,6.8539476,-6.124803,3.481209,1010.9493,0,0
43.04,6.8635259999999985,-6.086671400000001,3.3959916,1010.9315,0,0
43.08,7.336755,-5.738713,3.4480724,1010.9617,0,0
43.12,6.810995599999999,-5.9246089999999985,3.433871,1010.9287,0,0
43.16,7.2029586,-5.6290827000000005,3.3060439,1010.9566,0,0
43.2,7.1934085,-5.552819,3.192419,1010.9642,0,0
43.24,7.62361,-5.6672163,3.6800644,1010.9667,0,0
43.28,7.6523075,-5.605252,3.3533921,1010.9438,0,0
43.32,7.6905746,-5.671983999999999,3.3297230000000004,1010.96924,0,0
43.36,7.628447,-5.7530160000000015,3.23977,1010.95667,0,0
43.4,7.322567999999999,-5.800682,2.941505,1010.9664,0,0
43.44,7.303458,-5.90078,3.0172565,1010.96106,0,0
43.48,7.528128,-5.5861874,3.1592903,1010.96893,0,0
43.52,7.313055499999999,-6.1534085,3.0267289,1010.96356,0,0
43.56,7.537725999999997,-5.5003905,3.277654,1010.9611,0,0
43.6,7.542525,-5.3764606,2.946247,1010.93567,0,0
43.64,7.098022,-5.857883,2.9746556,1010.9683,0,0
43.68,7.10283,-5.962748,3.3534105000000003,1010.9583,0,0
43.72,7.1793165,-5.853118,3.4386308,1010.9432,0,0
43.76,7.3561883,-5.657689,3.3723507000000006,1010.9787,0,0
43.8,7.7146925999999985,-5.4813269999999985,3.27293,1010.94794,0,0
43.84,7.365862400000001,-5.9770513,3.2255945,1010.9604,0,0
43.88,7.4519199999999985,-5.92462,3.0788302000000005,1010.95557,0,0
43.92,7.528408,-5.872188,3.2019258,1010.9378,0,0
43.96,7.432844,-5.762558,2.8799891,1010.9529,0,0
44.0,7.509342,-5.714893,2.8137095000000003,1010.9454,0,0
44.04,7.8104806,-5.6576943,3.0456963,1011.0157,0,0
44.08,7.6862383,-5.714894,3.675375,1011.00323,0,0
44.12,7.6862383,-5.714894,3.675375,1010.89246,0,0
44.16,7.652800999999997,-5.9198565,4.4092097,1010.91254,0,0
44.2,6.9358524999999975,-5.7720933,2.3734179,1010.97534,0,0
44.24,7.356508,-5.0809436,3.3297703000000003,1011.0584,0,0
44.28,6.7494826,-5.3669376,3.4954755,1010.88934,0,0
44.32,5.932169,-6.034256,3.277696,1010.8966,0,0
44.36,7.528645,-5.438437,3.6138403,1010.9547,0,0
44.4,7.734198599999999,-5.5194693,3.722734,1010.9621,0,0
44.44,7.165423,-5.610034,3.396062,1010.9747,0,0
44.48,7.2753695999999985,-5.5862017,3.571236,1010.9723,0,0
44.52,7.1415563,-5.8769617,3.9168491,1010.94183,0,0
44.56,7.1606975,-5.676767,3.6233184,1010.9594,0,0
44.6,7.4857564,-5.428907,3.9357917,1010.95935,0,0
44.64,7.1511917,-5.610037,3.8600433,1010.9494,1,2
44.68,7.060386,-5.5909714999999975,3.9499981,1010.92596,1,2
44.72,7.3424053,-5.5576053,4.1109686000000005,1010.9289,1,2
44.76,7.0269704,-5.53854,3.632797,1010.91833,1,2
44.8,7.127357000000001,-5.6910696,4.0257535,1010.9515,1,2
44.84,7.165724000000001,-5.552843,3.86953,1010.92084,1,2
44.88,7.16097,-5.3907804000000015,3.5570614000000003,1010.9664,1,2
44.92,7.041513,-5.7864055999999975,3.6943629,1010.9741,1,2
44.96,7.146681299999999,-5.7482739999999986,3.718036,1010.9515,1,2
45.0,7.2279634,-5.7768736,3.822195,1010.93854,1,2
45.04,7.1276255000000015,-5.5719123,3.0788972,1010.9289,1,2
45.08,6.9746842,-5.719676,3.3061497,1010.946,1,2
45.12,7.0416274,-5.9198723,3.6091537,1010.9384,1,2
45.16,7.34278,-5.8436080000000015,3.5144682,1010.9561,1,2
45.2,7.3284660000000015,-6.1200686,2.8658571,1010.95605,1,2
45.24,6.496818,-6.792154300000001,2.122559,1010.92566,1,2
45.28,6.324771,-7.3689084,1.3650563999999998,1010.91833,1,2
45.32,6.0666737999999985,-7.797899,1.1756815,1010.9608,1,2
45.36,5.631737,-8.045761,1.0999333999999998,1010.93567,1,2
45.4,4.9960356,-8.527184,0.403977,1010.94086,1,2
45.44,5.3880053,-8.732145,-0.18308686,1010.93823,1,2
45.48,7.534175,-10.26221,-0.44347563,1010.9306,1,2
45.52,8.380225999999999,-10.224079,-0.05525215,1010.966,1,2
45.56,9.417469,-9.137305,0.27615854,1010.9685,1,2
45.6,9.709049,-8.036230999999999,0.12465872,1010.9458,1,2
45.64,10.258752,-6.3488703,0.32824045,1010.97327,1,2
45.68,9.259811,-5.2811623,2.1888650000000003,1010.9381,1,2
45.72,9.106871,-4.4184155,2.8138077,1010.95557,1,2
45.76,7.711205499999997,-3.3364081,2.0231655,1010.9306,1,2
45.8,7.42443,-3.3650079,2.1509955,1010.9508,1,2
45.84,7.219459,-4.632926,1.6870753,1010.9225,1,2
45.88,7.7739395999999985,-4.995185,1.0337294,1010.9507,1,2
45.92,9.81974,-4.9046216,2.77126,1010.9477,1,2
45.96,11.425824,-6.820778999999999,3.547709,1010.9507,1,2
46.0,12.334009,-8.007652,3.2257714,1010.9231,1,2
46.04,12.5778475,-8.627305999999999,2.6860554,1010.9685,1,2
46.08,12.544413,-8.751238,1.6681606,1010.9682,1,2
46.12,11.82273,-11.406211,1.0811007,1010.95844,1,2
46.16,10.8954935,-12.492987,1.4598573,1010.9778,1,2
46.2,10.08295,-12.121196,1.6445012,1010.96027,1,2
46.24,8.868926,-10.619731,1.5876924,1010.95026,1,2
46.28,5.8290386,-9.499593,1.8812318,1010.96027,1,2
46.32,4.89222,-8.956205,1.6161072,1010.9376,1,2
46.36,3.2097747,-7.7026020000000015,0.48932308,1010.91754,1,2
46.4,1.9718511000000003,-6.4585323,-0.24923989,1010.9275,1,2
46.44,1.7472688000000005,-6.9208894,-1.5369917,1010.9304,1,2
46.48,2.0149608,-7.7598042,-1.7026936999999998,1010.9276,1,2
46.52,3.8408914,-8.88948,-0.8173559,1010.95306,1,2
46.56,5.2939744000000015,-9.523432,0.40885702,1010.97546,1,2
46.6,8.491733,-12.064009,2.8376129,1010.9652,1,2
46.64,9.935256,-12.907689,2.5582852000000003,1010.9826,1,2
46.68,11.569994,-12.998256,4.073299,1010.9602,1,2
46.72,11.354949,-10.977237,5.8060956,1010.9627,1,2
46.76,11.182944,-10.6435795,5.3421297,1010.9298,1,2
46.8,11.421957,-10.595914,5.2000995,1010.9424,1,2
46.84,11.039642,-7.001932000000001,3.7939878,1010.9502,1,2
46.88,10.791115,-5.619631299999999,3.704036,1010.9675,1,2
46.92,9.687048,-4.1372333,3.301618,1010.9349,1,2
46.96,9.433742,-3.9799378,2.8849924,1010.9398,1,2
47.0,10.227234,-3.3698196000000005,3.2211394,1010.9198,1,2
47.04,10.263614,-4.2611203,2.7096536,1010.91205,1,2
47.08,10.263614,-4.2611203,2.7096536,1010.93726,1,2
47.12,11.955639,-5.1476989999999985,0.5981066999999999,1010.9324,1,2
47.16,11.382054,-5.8722153,0.6927941,1010.9399,1,2
47.2,11.434615,-8.10773,1.5402508,1010.9848,1,2
47.24,11.162149,-10.41951,2.6196938,1011.01044,1,2
47.28,10.521639,-11.020096,2.7522554,1010.9949,1,2
47.32,10.282623,-9.785557,3.3203816,1010.98755,1,2
47.36,8.9825,-10.877098,4.617607,1010.9974,1,2
47.4,9.866746,-10.719801,6.5539770000000015,1010.99255,1,2
47.44,10.08661,-10.45764,5.900628599999999,1010.9823,1,2
47.48,9.240567,-9.871353,5.450858599999999,1010.95715,1,2
47.52,7.687114,-9.156369,5.7964683,1010.9672,1,2
47.56,6.7837224,-9.008606,5.753858,1010.91693,1,2
47.6,3.3278904,-7.478540400000001,2.9037433,1010.9069,1,2
47.64,2.4292786,-7.240212400000001,2.4729116,1010.922,1,2
47.68,1.0909082,-7.154413000000001,0.6691011,1010.94214,1,2
47.72,1.0909082,-7.154413000000001,0.6691011,1010.93207,1,2
47.76,2.8163922,-7.349841599999999,0.015750943,1010.91437,1,2
47.8,3.5476935,-8.164923,0.470253,1010.93445,1,2
47.84,7.4049697,-11.039156,-0.39141098,1010.92694,1,2
47.88,8.996635000000003,-11.401413,-0.16889474,1010.93195,1,2
47.92,13.312774,-8.384183,-2.5218964,1010.9243,1,2
47.96,13.680801,-8.78934,-4.0037665,1010.98236,1,2
48.0,13.704788,-9.380396,-2.2046847,1010.9616,1,2
48.04,13.814711,-8.32222,-1.2057264,1010.9823,1,2
48.08,12.892196,-7.0924478,-0.25411218,1010.9616,1,2
48.12,12.079617,-5.643414,1.1141295,1010.96674,1,2
48.16,11.295722,-5.381253,1.3319116000000002,1010.9616,1,2
48.2,8.69549,-5.9961386,1.5070829,1010.9616,1,2
48.24,8.69549,-5.9961386,1.5070829,1010.9516,1,2
48.28,9.015725,-5.3049874,1.3745184,1010.9817,1,2
48.32,10.287139,-4.556638,1.6869880000000002,1010.98676,1,2
48.36,10.53567,-4.8044980000000015,4.461347,1010.9993,1,2
48.4,9.283342,-8.255485,8.1494465,1011.0448,1,2
48.44,7.916312,-9.31366,10.393554,1011.0119,1,2
48.48,7.337936999999997,-9.261228,9.385123,1010.9664,1,2
48.52,8.002316,-9.523387,7.316188,1010.98425,1,2
48.56,7.887595,-10.548197,7.5623765,1011.00684,1,2
48.6,7.1323743,-12.187893,8.253598,1010.9638,1,2
48.64,5.779670200000001,-12.55015,7.770687599999999,1010.9561,1,2
48.68,6.816881,-11.0010195,7.1883554000000025,1010.939,1,2
48.72,7.457362,-8.813169,6.4450526,1010.93896,1,2
48.76,6.5778656,-8.865601,3.4102979,1010.9084,1,2
48.8,6.219374,-8.722605,2.9226537,1010.91833,1,2
48.84,6.219349,-8.593906,3.0646834,1010.92847,1,2
48.88,6.0998473,-8.28408,2.8516347,1010.92346,1,2
48.92,5.8751907,-8.050519,2.4681473,1010.9184,1,2
48.96,7.304332700000002,-6.1915617,2.5723023,1010.9511,1,2
49.0,8.452546,-5.014248,2.657619,1010.92084,1,2
49.04,8.098856,-5.019015,2.2409925,1010.9384,1,2
49.08,8.017614,-5.157245,1.8811792,1010.91327,1,2
49.12,8.639019000000001,-4.38983,1.928526,1010.96124,1,2
49.16,9.179183,-4.1515036,2.9511616000000003,1010.9434,1,2
49.2,8.992801,-3.9465423,2.7996635,1010.93335,1,2
49.24,8.256742,-3.8941112,3.3677947999999995,1010.92804,1,2
49.28,8.256742,-3.8941112,3.3677947999999995,1010.92084,1,2
49.32,8.027357,-3.9751434,3.4766905,1010.92834,1,2
49.36,8.710929,-3.555688,2.7854726000000003,1010.92285,1,2
49.4,8.710929,-3.555688,2.7854726000000003,1010.918,1,2
49.44,8.385949,-3.9656131,4.3383613,1010.9431,1,2
49.48,7.769384,-3.908415,4.0543003,1010.93304,1,2
49.52,7.9366927,-3.7558858,3.8838632,1010.93036,1,2
49.56,8.366905000000001,-3.9703817,4.2342114,1010.9404,1,2
49.6,8.352596,-4.284975,4.4377937,1011.0536,1,2
49.64,8.046735,-3.879819,4.0543118,1011.0763,1,2
49.68,8.539069,-4.1133804,4.750270400000002,1010.97034,1,2
49.72,8.376588,-4.3850746,5.200042,1010.8324,1,2
49.76,7.5449467000000014,-4.4232087,3.9122875,1010.86456,1,2
49.8,8.19025,-4.1848817,4.291043,1010.9404,1,2
49.84,8.477055,-4.194415,4.2389660000000005,1010.9301,1,2
49.88,8.209416000000001,-4.2992797,4.149015,1010.9427,1,2
49.92,7.3347570000000015,-4.957066,4.527771,1010.9325,1,2
49.96,7.4112644,-4.799770400000001,4.3762727,1010.95514,1,2
50.0,7.592911999999999,-4.5757422,4.224774,1010.93463,1,2
50.04,7.989451,-4.5757379999999985,4.4378047,1010.95984,1,2
50.08,7.760031,-4.5757384000000005,4.063788,1010.92456,1,2
50.12,7.6979156,-4.6996694,4.196353,1010.9497,1,2
50.16,7.7266054,-4.7425685,4.4993563,1010.9272,1,2
50.2,7.6644893,-4.6424713,4.1726837,1010.9547,1,2
50.24,8.099484,-4.43751,4.2152967000000015,1010.95483,0,0
50.28,7.999119,-4.5280747,4.603519,1010.94226,0,0
50.32,7.482921000000001,-4.780703,4.1158769999999985,1010.91925,0,0
50.36,7.7793016,-4.623408,4.1442866,1010.9444,0,0
50.4,7.492534599999999,-4.713972599999999,3.8886309,1010.9289,0,0
50.44,7.4590869999999985,-4.790238,3.8081467,1010.9444,0,0
50.48,7.707669,-4.775939,3.8933692,1010.92896,0,0
50.52,7.717261,-4.8998704,4.1490300000000016,1010.9113,0,0
50.56,7.416155000000002,-4.8522053,3.7560763,1010.9465,0,0
50.6,7.3683679999999985,-4.8617387,3.6282485,1010.9287,0,0
50.64,7.1007204,-5.26213,3.311045200000001,1010.9287,0,0
50.68,7.129431200000001,-5.3765283,3.5477686,1010.9265,0,0
50.72,7.129431200000001,-5.3765283,3.5477686,1010.90076,0,0
50.76,7.841655,-5.3240967,3.1879566,1010.944,0,0
50.8,7.803427,-5.357463,3.05066,1010.9262,0,0
50.84,8.200183,-5.4813943,3.4814937000000006,1010.9741,0,0
50.88,8.066371,-5.4718614,3.0838058,1010.9363,0,0
50.92,8.190655,-5.481395,2.9843843,1010.9262,0,0
50.96,8.300612,-5.5957932,2.7666035,1010.9513,0,0
51.0,7.942128,-5.795988,2.7760725,1010.94885,0,0
51.04,7.880000999999999,-5.843654,2.5535564,1010.9388,0,0
51.08,7.918260000000001,-5.7578564000000005,2.3357756000000003,1010.9311,0,0
51.12,7.784446000000001,-5.9580525999999985,2.2174172000000003,1010.9209,0,0
51.16,7.531136,-5.8960876,1.5735401000000002,1010.92096,0,0
51.2,7.946999499999999,-5.781690599999999,2.0801232,1010.9487,0,0
51.24,7.5646453,-6.291713,1.7439832999999998,1010.94116,0,0
51.28,7.564666000000001,-6.234515,2.2032225,1010.93353,0,0
51.32,7.588575,-6.2821803,2.3073804,1010.93585,0,0
51.36,7.3687243,-6.4490104000000015,1.7155817,1010.92834,0,0
51.4,7.593385700000002,-6.2726483,1.6303632,1010.9005,0,0
51.44,7.0389585000000015,-6.5824747000000015,1.2137383,1010.95624,0,0
51.48,7.354446,-6.425179,2.075402,1010.93567,0,0
51.52,7.4213733999999985,-6.3250823,2.3736703,1010.9256,0,0
51.56,7.445302499999999,-6.353682,1.8623574,1010.93835,0,0
51.6,7.344947,-6.410881,1.9949225,1010.95593,0,0
51.64,7.239812,-6.472847,1.8528923,1010.9433,0,0
51.68,7.4358144,-6.606311,1.8197542,1010.93317,0,0
51.72,7.560109,-6.5634127000000015,1.923913,1010.93835,0,0
51.76,7.082149,-6.329852,1.2942389,1010.9231,0,0
51.8,7.1968746,-6.3060193,1.1900831,1010.9429,0,0
51.84,7.397646400000001,-6.2774205,1.6256502,1010.96075,0,0
51.88,7.3546586,-6.325087,1.7156067,1010.9454,0,0
51.92,7.412027,-6.272655,1.6919355,1010.95325,0,0
51.96,7.4024773,-6.420418700000001,1.8955159,1010.9482,0,0
52.0,7.1682872999999985,-6.491918,1.6398598000000002,1010.95074,0,0
52.04,7.2973723,-6.358454,1.9665366,1010.94037,0,0
52.08,7.4503365000000015,-6.272657,2.032819,1010.9353,0,0
52.12,7.593761,-6.387055,1.6635383,1010.93036,0,0
52.16,7.608110400000001,-6.2917239999999985,1.5262415,1010.9382,0,0
52.2,7.885359299999997,-6.2631254,1.7771669999999995,1010.9203,0,0
52.24,7.3165827,-6.5062203,1.4978389,1010.9429,0,0
52.28,7.4647770000000016,-6.3155584000000005,1.5830601,1010.95795,0,0
52.32,7.6082015,-6.28696,1.4126242,1010.95795,0,0
52.36,7.464828,-6.2678933,1.5215173999999998,1010.9454,0,0
52.4,7.307115,-6.4966893,1.5546601,1010.958,0,0
52.44,7.369261999999999,-6.46809,1.7108964,1010.94763,0,0
52.48,7.383611699999999,-6.449024,1.7251005,1010.9377,0,0
52.52,7.288046,-6.2964949999999975,1.5499302,1010.90753,0,0
52.56,7.307175599999999,-6.196398,1.384227,1010.9427,0,0
52.6,7.2020507,-6.3632279999999986,1.5357308,1010.95276,0,0
52.64,7.3167753,-6.401361,1.7535144,1010.9276,0,0
52.68,7.273778,-6.463326,1.8103292,1010.9273,0,0
52.72,7.565376,-6.272665,1.6777686,1010.94257,0,0
52.76,7.46979,-6.3775296,1.5357373,1010.9299,0,0
52.8,7.5462976,-6.396596400000001,1.7771949,1010.95276,0,0
52.84,7.508069,-6.4776278,1.639898,1010.9451,0,0
52.88,7.49375,-6.348932,1.4173827,1010.93207,0,0
52.92,7.584597,-6.2965,1.2990254,1010.93256,0,0
52.96,7.436453999999999,-6.367999,1.587827,1010.9169,0,0
53.0,7.4077845,-6.449031,1.5215461,1010.9394,0,0
53.04,7.336117999999999,-6.415666000000001,1.6493778,1010.95496,0,0
53.08,7.336117999999999,-6.415666000000001,1.6493778,1010.95245,0,0
53.12,7.274020699999999,-6.5395970000000005,1.6825224,1010.9646,0,0
53.16,7.3409586,-6.3966007000000005,1.6115081,1010.9577,0,0
53.2,7.3409586,-6.3966007000000005,1.6115081,1010.9571,0,0
53.24,7.656455999999999,-6.0724754,1.6919959,1010.9445,0,0
53.28,7.140258,-6.5538982999999975,1.5925753,1010.94965,0,0
53.32,7.015992599999999,-6.6349306,1.952391,1010.947,0,0
53.36,7.302811599999999,-6.344171,1.6588606,1010.9371,0,0
53.4,7.321951400000001,-6.4061365,1.6825345,1010.9393,0,0
53.44,7.513163,-6.2393074,1.9239911,1010.9495,0,0
53.48,7.35544,-6.3870716,1.7630221999999998,1010.94214,0,0
53.52,7.527544,-6.286974400000001,1.7440873,1010.9621,0,0
53.56,7.61838,-6.3870726,1.6162603000000002,1010.947,0,0
53.6,7.5371337,-6.353707,1.5594484,1010.97455,0,0
53.64,7.3029537,-6.487171,1.7630305,1010.9569,0,0
53.68,7.408129,-6.4395065,1.8103765,1010.94934,0,0
53.72,7.3699017000000016,-6.42044,1.63047,1010.9442,0,0
53.76,7.3938103,-6.4347400000000015,1.5168451,1010.939,0,0
53.8,7.5563544999999985,-6.286978,1.8956003,1010.97955,0,0
53.84,7.475117999999997,-6.253612,1.63521,1010.9591,0,0
53.88,7.599413,-6.1821145999999985,1.7109624,1010.92145,0,0
53.92,7.551625299999999,-6.329878,1.720432,1010.93896,0,0
53.96,7.593097999999999,-6.329839700000001,1.9901515,1010.9363,0,0
54.0,7.2680526,-6.3918047,1.4456934,1010.9314,0,0
54.04,7.105526400000001,-6.3250732,1.5403802,1010.9264,0,0
54.08,7.2967057,-6.3965707,1.7297553,1010.9591,0,0
54.12,7.440088,-6.239274,1.8197079,1010.9614,0,0
54.16,7.239317,-6.4728346,1.7297525000000002,1010.9388,0,0
54.2,7.119816,-6.477601,1.6918766,1010.9389,0,0
54.24,7.382686,-6.3632035,1.7912974,1010.9338,0,0
54.28,7.382686,-6.3632035,1.7912974,1010.9314,0,0
54.32,7.411352000000001,-6.277405,1.6634673999999998,1010.9287,0,0
54.36,7.516495,-6.286938,1.919124,1010.93353,0,0
54.4,7.707674499999999,-6.18684,1.8291693,1010.93335,0,0
54.44,7.506904,-6.215439,1.6871353,1010.94354,0,0
54.48,7.416081399999999,-6.263104,1.7676196,1010.9509,0,0
54.52,7.525997999999999,-6.148706,1.8765092,1010.92303,0,0
54.56,7.5068727,-6.1201067,1.6634604,1010.9433,0,0
54.6,7.760183,-6.1534724,2.0800862,1010.95593,0,0
54.64,7.631116400000002,-6.3060017,1.9049121,1010.9229,0,0
54.68,7.535507000000001,-6.3203010000000015,1.5592993,1010.9433,0,0
54.72,7.411226299999999,-6.272636,1.4977517,1010.9409,0,0
54.76,7.6980023,-6.1010394,1.8244244,1010.93054,0,0
54.8,7.444659,-6.2488017,1.5545622,1010.938,0,0
54.84,7.325152,-6.3298335,1.8054844,1010.961,0,0
54.88,7.5880284,-6.058139,1.8196867,1010.9557,0,0
54.92,7.5975757,-6.1725364,1.7344661,1010.9354,0,0
54.96,7.7701516,-6.077217,1.9475604,1010.94775,0,0
55.0,7.5120497,-6.329845,1.549871,1010.9126,0,0
55.04,7.5980940000000015,-6.0009527,1.5498717,1010.9474,0,0
55.08,7.6411157,-6.0438523,1.40784,1010.94763,0,0
55.12,7.7367196,-6.1296506,1.5498728000000002,1010.9323,0,0
55.16,7.798872,-6.306013,1.6729686999999998,1010.9348,0,0
55.2,7.7415185,-6.1963825,1.5830154,1010.9602,0,0
55.24,8.047438,-5.8531914,1.7155798999999998,1010.9529,0,0
55.28,7.5981429999999985,-5.8150587,1.346297,1010.92206,0,0
55.32,7.9088383,-5.819825,1.6635026999999998,1010.91925,0,0
55.36,7.426085499999999,-6.010488,1.5782841,1010.9472,0,0
55.4,7.2444606,-5.9771220000000005,1.6066914,1010.92944,0,0
55.44,7.292266400000001,-6.067686599999999,1.933366,1010.9365,0,0
55.48,7.3113933000000015,-6.0104885,2.193759,1010.93933,0,0
55.52,7.497812700000001,-5.967589,1.9333674,1010.91644,0,0
55.56,7.555175,-6.039088,1.8812891,1010.9316,0,0
55.6,7.7272553,-6.205918,1.8339458,1010.92365,0,0
55.64,7.650786,-6.6921062,2.0138540000000003,1010.95135,0,0
55.68,7.6029916,-6.5395765,1.8197436,1010.929,0,0
55.72,8.233938,-5.8245935,1.308429,1010.9338,0,0
55.76,8.291299,-5.7292624000000005,1.3510388999999998,1010.9181,0,0
55.8,7.760747999999999,-6.0057230000000015,1.7629328999999998,1010.9159,0,0
55.84,7.765538999999999,-6.3679814000000015,2.1227486,1010.9078,0,0
55.88,8.042775,-6.1868525000000005,2.165359,1010.93036,0,0
55.92,7.5753097999999985,-6.1106110000000005,2.0328832,1010.9332,0,0
55.96,7.6613693,-6.1773434,1.9808068,1010.918,0,0
56.0,7.613617,-5.9676155999999985,1.9476701,1010.92285,0,0
56.04,7.546745299999999,-6.2774434,1.8009079,1010.8999,0,0
56.08,7.5754466,-6.334643,1.9760828,1010.93036,0,0
56.12,7.379543300000001,-6.239313,1.3464133,1010.9048,0,0
56.16,7.6759369999999985,-5.9056554000000006,0.9581963,1010.92255,0,0
56.2,7.642524000000001,-5.834158,0.98187244,1010.8994,0,0
56.24,7.88156,-5.92949,0.9724078000000002,1010.92706,0,0
56.28,7.977200999999999,-5.9199585999999975,1.1807258,1010.94214,0,0
56.32,7.437129,-6.124921,1.2754181999999998,1010.917,0,0
56.36,7.695284,-5.9771595,0.8682634,1010.92175,0,0
56.4,7.929563000000001,-5.7864985,1.1049899,1010.9117,0,0
56.44,7.929563000000001,-5.7864985,1.1049899,1010.92413,0,0
56.48,8.125604,-6.082027,1.630515,1010.9417,0,0
56.52,8.216465,-6.163059,1.5642377,1010.9215,0,0
56.56,7.576040299999999,-5.7579036,1.7157449,1010.9063,0,0
56.6,7.470907,-5.4814440000000015,1.3654008999999998,1010.91925,0,0
56.64,7.772102999999999,-5.452846,0.79254425,1010.9289,0,0
56.68,7.939419,-5.471913,1.114486,1010.9163,0,0
56.72,7.657478999999999,-6.0248356,1.7631056,1010.92377,0,0
56.76,7.657478999999999,-6.0248356,1.7631056,1010.9359,0,0
56.8,7.647965400000001,-6.1201672999999985,2.2176127,1010.92303,0,0
56.84,7.547635,-6.0534370000000015,1.8483332,1010.92804,0,0
56.88,8.078239,-5.877075,1.7063053,1010.8975,0,0
56.92,7.915165400000001,-5.8150964000000025,1.4174552,1010.93085,0,0
56.96,7.9199557,-5.9390273,1.7867397,1010.90784,0,0
57.0,7.7574725,-6.0772580000000005,1.545288,1010.9279,0,0
57.04,7.996483299999999,-5.5910697,1.5689617,1010.9179,0,0
57.08,8.010842,-5.7054677000000025,2.0850139,1010.93304,0,0
57.12,8.010842,-5.7054677000000025,2.0850139,1010.9448,0,0
57.16,8.015642999999999,-5.867532,1.9855933,1010.92755,0,0
57.2,7.795792,-5.862765,1.7015308,1010.9373,0,0
57.24,8.039593,-5.95333,2.4164286,1010.92505,0,0
57.28,7.528174400000001,-5.9485645,1.8672395,1010.91187,0,0
57.32,7.5281944,-5.8627667,2.3122754,1010.92194,0,0
57.36,7.552113499999999,-5.9437989999999985,2.1371043,1010.92944,0,0
57.4,7.485206,-5.9962316,2.2317934,1010.8964,0,0
57.44,7.4995759999999985,-6.0200644,2.3075469,1010.91187,0,0
57.48,7.4183497,-5.8055706,2.5916138,1010.9445,0,0
57.52,7.442259299999999,-5.796037,2.6342242,1010.92914,0,0
57.56,7.556995,-5.767439,2.4401155,1010.9164,0,0
57.6,7.738647999999999,-5.7293067,2.8283386000000004,1010.9112,0,0
57.64,7.566605,-5.862771,2.8662167000000003,1010.9084,0,0
57.68,7.619192999999999,-5.8627715,3.0887346,1010.90857,0,0
57.72,7.5188375,-5.8341727,2.757328,1010.8983,0,0
57.76,7.3372254,-5.9438043,2.7952054,1010.91595,0,0
57.8,7.437632000000002,-5.9628706,2.9325058,1010.92816,0,0
57.84,7.308586999999997,-6.0105366999999985,2.6863177000000005,1010.9156,0,0
57.88,7.609735499999997,-5.9581050000000015,3.1455567,1010.9131,0,0
57.92,7.332888599999999,-6.053446,2.8094490000000003,1010.92346,0,0
57.96,7.5718960000000015,-6.024846599999999,3.1597965,1010.88525,0,0
58.0,7.4237394,-6.0105476,3.1361258,1010.89514,0,0
58.04,7.4859276,-5.910451,2.8662696,1010.91296,0,0
58.08,7.3090925,-5.9247510000000005,2.8852088,1010.9178,0,0
58.12,7.323466000000002,-6.001017,2.8426023,1010.9002,0,0
58.16,7.624627999999999,-5.8294215,2.9609654,1010.92804,0,0
58.2,7.3761296,-5.9485865,2.9041574,1010.9153,0,0
58.24,7.423945,-5.8580227,2.8899558,1010.93536,0,0
58.28,7.572153,-5.8294244000000015,3.0982728,1010.9098,0,0
58.32,7.299738400000002,-5.9676547,3.0698695,1010.92255,0,0
58.36,7.5196605,-5.8818583,3.1314216,1010.917,0,0
58.4,7.4288615999999985,-5.8198934,2.8947027000000003,1010.92,0,0
58.44,7.419353,-5.8818603,3.0604117000000004,1010.9299,0,0
58.48,7.5340853,-5.8055954000000005,2.9467874,1010.92206,0,0
58.52,7.395505,-5.9342932999999976,2.9325874,1010.9069,0,0
58.56,7.428998,-5.915228,3.0746226,1010.91187,0,0
58.6,7.5294085000000015,-5.762699,2.9610000000000003,1010.91437,0,0
58.64,7.41949,-5.858031,2.975205,1010.9167,0,0
58.68,7.524697,-5.8389654,2.9894128,1010.9067,0,0
58.72,7.3861,-5.8627987,3.0367584,1010.94214,0,0
58.76,7.4196095,-5.872333,2.8710587000000003,1010.901,0,0
58.8,7.811605,-5.695972,3.0841117,1010.9038,0,0
58.84,8.002814,-5.6530733,3.103051,1011.0093,0,0
58.88,6.7027416,-6.124963,2.7432394,1011.0322,0,0
58.92,7.920659,-5.8341804,4.812089,1010.841,0,0
58.96,6.6348863,-5.967643700000001,2.1276808,1010.85834,0,0
59.0,7.939768300000001,-5.6721168,3.150312,1010.9162,0,0
59.04,6.3098474,-5.7197824,2.5727136,1011.0341,0,0
59.08,7.1606493,-5.800814,3.2402644,1010.9236,0,0
59.12,6.7925997,-6.3156019999999975,3.6332197,1010.8556,0,0
59.16,7.39963,-5.5529532,3.197654,1010.8981,0,0
59.2,7.6147156,-5.614917299999999,3.0792935000000003,1010.90076,0,0
59.24,7.0793753,-5.9104443,2.6531968,1010.8985,0,0
59.28,7.07937,-6.105873,3.855735,1010.88794,0,0
59.32,6.845155,-6.124939,3.4864511,1010.9008,0,0
59.36,7.3518089999999985,-5.862778,3.2734027,1010.9307,0,0
59.4,7.117591,-6.0010085,3.3302145,1010.918,0,0
59.44,7.2370806,-5.8675447,3.3775582,1010.9229,0,0
59.48,7.2705350000000015,-5.9628754,3.4911835,1010.95325,0,0
59.52,7.1653759999999975,-5.986708,3.4343703000000003,1010.9052,0,0
59.56,7.174928,-5.9438095,3.3728225,1010.90533,0,0
59.6,7.313537599999999,-5.8913774000000005,3.316009,1010.9254,0,0
59.64,7.217939,-5.9199767,3.2591958,1010.905,0,0
59.68,7.1366777,-6.015307,3.453306,1010.92786,0,0
59.72,7.2513895,-5.962875,3.4580402,1010.9355,0,0
59.76,7.1079880000000015,-5.9676414000000015,3.287601,1010.9276,0,0
59.8,7.0028276,-6.0772724,3.396492,1010.95807,0,0
59.84,6.883327,-5.9914737,2.8946445,1010.9177,0,0
59.88,7.103192999999999,-6.0153065,2.7810185,1010.9677,0,0
59.92,7.4903526,-6.0677385,3.8936028,1010.9248,0,0
59.96,7.303932,-5.8055778,3.0177374,1010.9326,0,0
60.0,7.657634700000001,-5.6435146,2.9893308,1010.89966,0,0
60.04,7.439491999999999,-5.8294525,2.4876418,1010.95996,0,0
60.08,7.6164317,-5.90572,2.9516215,1010.94763,0,0
60.12,7.2675347000000015,-5.943853400000001,2.22726,1010.93256,0,0
60.16,7.8937473,-5.815158,3.5481646,1010.9228,0,0
60.2,7.4206047,-5.9819884000000005,2.587086,1010.912,0,0
60.24,7.678800999999999,-5.962924,2.73386,1010.93506,0,0
60.28,7.392071,-6.0868564,2.482942,1010.9296,0,0
60.32,7.611971,-5.905728,2.4024599,1010.95514,0,0
60.36,7.5690103,-5.9295616,2.303043,1010.99316,0,0
60.4,7.6120577,-5.9152627,2.6912665,1010.94226,0,0
60.44,7.4687505,-5.9200315,2.4214132,1010.9296,0,0
60.48,7.6408809999999985,-5.943866000000001,2.880656,1010.9072,0,0
60.52,7.6026716,-5.8771343,2.6912823,1010.93463,0,0
60.56,7.516692999999999,-5.9295683,2.5255835,1010.9321,0,0
60.6,7.4785132,-5.9534025,2.6250114,1010.9247,0,0
60.64,7.593286,-5.920038,2.5208597000000004,1010.9197,0,0
60.68,7.722427400000001,-5.7103114,2.4971957,1010.9071,0,0
60.72,7.598211,-5.8723764,2.4356537,1010.9147,0,0
60.76,7.531322500000001,-5.934342,2.7670646,1010.91174,0,0
60.8,7.502730400000001,-5.900978,2.2841632,1010.89435,0,0
60.84,7.569677,-5.986777,2.591902,1010.91455,0,0
60.88,7.488536,-6.0773444,2.0995347,1010.897,0,0
60.92,7.488536,-6.0773444,2.0995347,1010.927,0,0
60.96,7.388247,-6.1107125,2.0806053,1010.9296,0,0
61.0,7.555569,-6.063048,1.895966,1010.90924,0,0
61.04,8.320395,-5.7484565000000005,2.535116,1010.9018,0,0
61.08,8.056151,-5.853287,1.5928454,1010.9197,0,0
61.12,7.9987955,-5.958152,1.5881112,1010.957,0,0
61.16,7.793267299999999,-6.0677824000000005,1.441345,1010.9396,0,0
61.2,7.898424,-6.082082,1.616518,1010.932,0,0
61.24,7.587739,-6.16788,1.4839548,1010.894,0,0
61.28,7.5638437,-6.215545,1.6259874,1010.8968,0,0
61.32,7.621204400000001,-6.1774135,1.8485047,1010.90924,0,0
61.36,7.5208309999999985,-6.1583476,1.7632856,1010.91174,0,0
61.4,7.6259875,-6.096382,1.8532393,1010.90924,0,0
61.44,7.453918499999999,-6.2346125,1.5218315,1010.9473,0,0
61.48,7.678572,-6.086849,1.6638636999999998,1010.9119,0,0
61.52,7.817187,-6.0344167,1.8153647,1010.9166,0,0
61.56,7.707254400000001,-6.0916157,1.5739104,1010.91693,0,0
61.6,7.7359357000000015,-6.120215,1.6780676,1010.91943,0,0
61.64,7.716818300000001,-6.110682,1.7443491999999998,1010.932,0,0
61.68,7.559087,-6.148814700000001,1.54077,1010.9116,0,0
61.72,7.6977034,-6.082082700000001,1.782225,1010.9013,0,0
61.76,7.7359456999999985,-6.0868497,1.9289919,1010.9091,0,0
61.8,7.664252,-6.0296507,1.6259903,1010.95465,0,0
61.84,7.6499133000000015,-6.0439506,1.5833807,1010.9345,0,0
61.88,7.6403565,-5.92002,1.5691777,1010.9469,0,0
61.92,7.592561,-6.0916166,2.037884,1010.922,0,0
61.96,7.6164619999999985,-6.0582504,1.9763371,1010.922,0,0
62.0,7.812438,-5.858055,1.6117882,1010.9421,0,0
62.04,7.769074400000001,-5.972444,1.8484768,1010.937,0,0
62.08,7.9746003,-5.877113,2.3219168,1010.9295,0,0
62.12,7.5252814,-5.9867434999999976,1.7064426,1010.91943,0,0
62.16,7.5252814,-5.9867434999999976,1.7064426,1010.91943,0,0
62.2,7.5587173,-6.0201080000000005,1.6401588,1010.9346,0,0
62.24,7.702106,-5.905711,1.7253776,1010.9394,0,0
62.28,7.955417999999999,-5.891411,1.9810339,1010.9443,0,0
62.32,7.883710400000001,-6.039174,2.2793002,1010.9295,0,0
62.36,7.926717,-5.8246784000000025,1.8484684,1010.95483,0,0
62.4,7.9792886,-5.7055144,1.815327,1010.9672,0,0
62.44,7.725948,-5.8485107,2.0236400000000003,1010.9346,0,0
62.48,7.687698399999999,-5.986741,1.9952323,1010.9443,0,0
62.52,7.9027777000000015,-6.0391726,2.0189033,1010.9295,0,0
62.56,8.108293,-5.943841,1.9526203,1010.9471,0,0
62.6,8.089162,-5.996273,2.056776,1010.9493,0,0
62.64,8.060472,-5.8914084,2.1751351000000003,1010.9392,0,0
62.68,7.9361854,-5.834209,1.7916473000000002,1010.9217,0,0
62.72,7.9361854,-5.834209,1.7916473000000002,1010.9496,0,0
62.76,8.003085,-6.058237,2.3124301,1010.92664,0,0
62.8,8.050871,-6.077303400000001,1.9904896,1010.93146,0,0
62.84,8.199029,-5.9724383,1.9715503,1010.9392,0,0
62.88,8.256381,-5.943839,2.170395,1010.9292,0,0
62.92,8.227696,-6.005803599999999,2.1514568,1010.93146,0,0
62.96,8.170327,-6.0153370000000015,1.9526109,1010.9292,0,0
63.0,8.0794935,-6.067768599999999,2.10411,1010.919,0,0
63.04,8.175803,-6.1392846,2.369302,1010.9345,0,0
63.08,8.190151,-6.1059184,2.1089108,1010.9493,0,0
63.12,8.223637,-6.1345186,2.1609914,1010.92395,0,0
63.16,8.2571125,-6.1297526,2.2462125,1010.9265,0,0
63.2,8.252342,-6.101154,2.104181,1010.9139,0,0
63.24,8.3575325,-6.101155,2.004762,1010.92395,0,0
63.28,8.434028,-6.063022599999999,2.175202,1010.934,0,0
63.32,8.367119,-6.1249876,2.2556877,1010.9518,0,0
63.36,8.367119,-6.1249876,2.2556877,1010.9088,0,0
63.4,8.324127,-6.0963892999999985,2.1704707,1010.8808,0,0
63.44,8.175971,-6.1440554,1.9952995,1010.8984,1,3
63.48,8.281145,-6.148822,2.1610055,1010.9389,1,3
63.52,8.34808,-6.13929,2.1278662999999995,1010.9163,1,3
63.56,8.3815565,-6.1345230000000015,2.213087,1010.9039,1,3
63.6,8.348115,-6.067792,2.0189779,1010.91394,1,3
63.64,8.305123,-6.124991400000001,2.0805278,1010.8881,1,3
63.68,8.209545,-6.272755,2.2272959,1010.9059,1,3
63.72,8.223894,-6.167891,2.1704838,1010.9088,1,3
63.76,8.357746,-6.0534940000000015,2.1610167,1010.88116,1,3
63.8,8.4438,-6.024895,2.2130969,1010.89594,1,3
63.84,8.204837,-6.1869583,2.1468177,1010.8862,1,3
63.88,8.266983,-6.1488266,2.2178345,1010.85565,1,3
63.92,8.338706,-6.0725617,2.1042110000000003,1010.86053,1,3
63.96,8.171432000000001,-6.053496400000001,2.1089473,1010.87823,1,3
64.0,8.233577,-6.06303,2.1610265,1010.86304,1,3
64.04,8.276605,-6.120229,2.1989026000000003,1010.8706,1,3
64.08,8.190586,-6.129762,2.1657631,1010.85535,1,3
64.12,8.310099000000001,-6.010599,2.1278899,1010.8706,1,3
64.16,8.1237135,-5.9677,2.0521417,1010.8204,1,3
64.2,8.095052,-6.015366,2.0426743000000003,1010.8452,1,3
64.24,8.080722,-6.0391994,2.0284722,1010.84296,1,3
64.28,8.166775999999999,-6.0201335,2.1563025,1010.83514,1,3
64.32,8.138114999999999,-5.9486356,2.0852880000000003,1010.7952,1,3
64.36,8.109461,-5.9867687000000025,2.137369,1010.8204,1,3
64.4,8.08558,-5.986769000000002,1.94326,1010.80475,1,3
64.44,7.688882,-6.0821010000000015,1.7349485,1010.79724,1,3
64.48,7.827505,-6.010603,1.7444181,1010.8149,1,3
64.52,8.224247,-5.9152718,2.3551579,1010.8123,1,3
64.56,7.985283,-5.9152727,1.7728286,1010.78955,1,3
64.6,7.985283,-5.9152727,1.7728286,1010.7716,1,3
64.64,8.157373,-5.848541,2.0900352,1010.78973,1,3
64.68,7.8801622,-5.9677057,1.9053952,1010.7741,1,3
64.72,7.8323913,-5.9486403,1.8485848000000005,1010.79474,1,3
64.76,7.7941704,-5.97724,1.8391175,1010.744,1,3
64.8,7.870665,-5.9486413,2.0190265,1010.7641,1,3
64.84,7.822885,-5.8914433,1.9858874,1010.7415,1,3
64.88,7.7750949999999985,-5.8151784000000015,1.8627937,1010.7641,1,3
64.92,7.689077,-5.777046,1.6781535,1010.75385,1,3
64.96,7.784699000000002,-5.91051,2.0237672,1010.7591,1,3
65.0,7.832505999999999,-5.9534097,1.9101424,1010.71857,1,3
65.04,7.846853999999999,-5.982009,1.8959401,1010.75635,1,3
65.08,7.8851285,-5.757982,1.7539113000000002,1010.73334,1,3
65.12,7.7704214999999985,-5.7818146,1.7965217,1010.7082,1,3
65.16,7.607925999999999,-5.8533134,1.7491792000000002,1010.7262,1,3
65.2,7.808696,-5.824714,1.9432915,1010.68286,1,3
65.24,7.6892185,-5.9820113,1.8580738,1010.6931,1,3
65.28,7.7800436,-5.934346,2.0521853,1010.72076,1,3
65.32,7.947362400000001,-5.8056498,1.8391393,1010.6906,1,3
65.36,7.9704165,-5.715064,1.8579996,1010.7127,1,3
65.4,7.893923,-5.7674956,1.9100765,1010.6901,1,3
65.44,7.7313933000000015,-5.824694,1.7443708999999998,1010.6649,1,3
65.48,7.9273405,-5.8628263,1.9337448,1010.69293,1,3
65.52,7.9321036,-5.8485260000000014,1.7633047999999998,1010.68506,1,3
65.56,7.8030243000000015,-5.8056264,1.8863971,1010.6496,1,3
65.6,7.7982364,-5.7055287,1.8437866000000005,1010.67206,1,3
65.64,7.8412380000000015,-5.676929,1.7680346999999998,1010.67206,1,3
65.68,7.712158,-5.948622,1.938471,1010.6265,1,3
65.72,7.712158,-5.948622,1.938471,1010.64935,1,3
65.76,7.970242999999999,-5.838991,1.9574063,1010.64154,1,3
65.8,7.975014999999999,-5.7960910000000005,1.8816551,1010.62897,1,3
65.84,7.707321,-5.772258,1.8343087,1010.6163,1,3
65.88,7.707321,-5.772258,1.8343087,1010.6491,1,3
65.92,7.826783,-5.7817903,1.7680241,1010.6064,1,3
65.96,7.9032516,-5.8914212999999975,1.9479307,1010.6441,1,3
66.0,8.013171,-5.800856,2.1278365000000004,1010.6039,1,3
66.04,7.831522,-5.7579565000000015,1.8058956,1010.64685,1,3
66.08,7.731121499999999,-5.7770224,1.7490804,1010.5909,1,3
66.12,7.692874400000001,-5.819921,1.9005805,1010.62885,1,3
66.16,7.6880784,-5.815154,1.9289855,1010.61115,1,3
66.2,7.8218960000000015,-5.8485193,1.952656,1010.5958,1,3
66.24,8.013063,-5.7531877,1.9195129,1010.5855,1,3
66.28,7.946129300000001,-5.6864552,1.8769017,1010.581,1,3
66.32,7.8377880000000015,-5.7770595999999985,1.8344381,1010.5984,1,3
66.36,7.871295,-5.781827,1.9243962,1010.5981,1,3
66.4,7.8426399999999985,-5.7913604,1.9338672,1010.5955,1,3
66.44,7.818764999999999,-5.829494,1.8533845,1010.56793,1,3
66.48,7.9144573,-5.7722974,1.8770653,1010.5701,1,3
66.52,7.9049463000000015,-5.7532324999999975,1.8060536,1010.56793,1,3
66.56,7.8906307,-5.7818327000000025,1.8439311,1010.57275,1,3
66.6,7.986275,-5.729401,2.0096395,1010.57025,1,3
66.64,7.9289656000000015,-5.7627687000000005,1.8107991,1010.535,1,3
66.68,7.9194784,-5.7389374,1.9244314,1010.555,1,3
66.72,7.9194784,-5.7389374,1.9244314,1010.5324,1,3
66.76,7.780961,-5.6579084,1.8439553,1010.5425,1,3
66.8,7.828807,-5.7627739999999985,1.9291791,1010.5321,1,3
66.84,7.694996400000001,-5.853339,1.843962,1010.55255,1,3
66.88,7.795445,-6.0154037,2.0570168,1010.5319,1,3
66.92,7.972321000000001,-5.7913760000000005,1.9433933,1010.51654,1,3
66.96,8.149199000000001,-5.600714,1.843973,1010.51904,1,3
67.0,7.924596000000001,-5.7484794,1.6546013,1010.5018,1,3
67.04,7.824292,-5.848578,1.8723905,1010.50146,1,3
67.08,7.805220599999997,-5.8676457000000015,1.7066907999999998,1010.4912,1,3
67.12,7.814829,-5.9772773,1.9670874,1010.49347,1,3
67.16,7.910448599999999,-5.7866163,1.9481521,1010.4809,1,3
67.2,8.006117999999999,-5.9248476,2.0097058,1010.4839,1,3
67.24,7.967927499999999,-5.6436224,1.6688331000000003,1010.4809,1,3
67.28,7.6525083,-5.9248505,1.872417,1010.4812,1,3
67.32,7.5330377,-5.9868164,1.8298095,1010.4661,1,3
67.36,7.613188,-6.0296884,1.8249738,1010.4809,1,3
67.4,7.656208,-6.148852,1.9054589,1010.44794,1,3
67.44,7.7948255999999985,-6.0058555999999985,1.8486462,1010.4432,1,3
67.48,7.971681599999997,-5.6483636,1.6640047999999998,1010.42535,1,3
67.52,7.6227589999999985,-5.896225,1.6024579,1010.44507,1,3
67.56,7.555842399999999,-6.0153885,1.8344437,1010.45074,1,3
67.6,7.5654035,-6.072587,1.9622728,1010.44037,1,3
67.64,7.9621296,-5.934357,1.962273,1010.42535,1,3
67.68,7.9047747,-5.9009914000000006,1.7871002,1010.43286,1,3
67.72,7.880878,-5.8199596,1.6687404,1010.42,1,3
67.76,7.895221,-5.9057584,1.7018814999999998,1010.39734,1,3
67.8,7.7422705,-5.9486575,1.7918355,1010.4203,1,3
67.84,7.809190299999999,-5.648364,1.8391798,1010.38983,1,3
67.88,7.7422767000000015,-5.9677234000000015,1.8155081,1010.39233,1,3
67.92,7.880892299999997,-5.9534235,1.9149308,1010.4175,1,3
67.96,8.220261,-5.667431,1.9243999,1010.3846,1,3
68.0,8.081649,-5.5339675,1.52671,1010.4228,1,3
68.04,7.737505400000001,-5.8008947,1.6592736,1010.3721,1,3
68.08,7.684930299999999,-5.8866925000000005,1.6119298,1010.37195,1,3
68.12,7.699273,-6.020156,1.9812137,1010.3821,1,3
68.16,7.890467,-5.8914595,2.0664332,1010.37476,1,3
68.2,8.067322,-5.6102324,1.7634313999999998,1010.3567,1,3
68.24,8.086442,-5.548267,1.616665,1010.3466,1,3
68.28,7.6706038,-5.8533269999999975,1.7255566000000002,1010.3567,1,3
68.32,7.713404700000001,-5.9200535000000025,1.8344282,1010.3645,1,3
68.36,7.828114,-5.9295860000000005,1.8628341,1010.3291,1,3
68.4,7.9667225,-5.7961226,1.8865055,1010.3366,1,3
68.44,8.004954,-5.819955,1.8107544,1010.3541,1,3
68.48,8.04797,-5.7341566,1.668722,1010.3316,1,3
68.52,7.8137493,-5.8056555,1.6781898999999998,1010.35175,1,3
68.56,7.7085905,-5.89622,1.6545177,1010.3343,1,3
68.6,7.6799054,-5.9200525,1.7350018,1010.3572,1,3
68.64,7.952344999999997,-5.8962193,1.8912364,1010.32153,1,3
68.68,8.019259,-5.8723865,1.8012824,1010.31396,1,3
68.72,8.06705,-5.7722883000000005,1.8249538,1010.31396,1,3
68.76,7.961888,-5.748456,1.6261083,1010.3191,1,3
68.8,7.6464114,-5.9057517,1.6592481,1010.286,1,3
68.84,7.636849400000001,-5.9534173,1.7113264,1010.304,1,3
68.88,7.7850164999999985,-5.97725,1.9385772,1010.2912,1,3
68.92,7.890166000000002,-5.8914523,1.8344197,1010.28143,1,3
68.96,7.8710429999999985,-5.8580856,1.7255281000000002,1010.27094,1,3
69.0,7.9761929999999985,-5.743688,1.7776061,1010.2659,1,3
69.04,7.847132000000001,-5.7961199999999975,1.6119013,1010.271,1,3
69.08,7.789764999999999,-5.8485518,1.9196366,1010.2609,1,3
69.12,7.703719,-5.9724827000000005,1.7397285,1010.2911,1,3
69.16,7.703719,-5.9724827000000005,1.7397285,1010.2685,1,3
69.2,7.928356599999999,-5.8342519999999976,1.7397273000000002,1010.2634,1,3
69.24,7.899675,-5.796119,1.739727,1010.2432,1,3
69.28,7.799289,-5.8628507,1.8060077,1010.2358,1,3
69.32,7.7228093,-5.90575,1.8344139,1010.25085,1,3
69.36,7.728491,-5.920072,1.8960437,1010.24585,1,3
69.4,7.852794999999999,-5.8342743,1.7114046000000005,1010.24286,1,3
69.44,7.9245214000000015,-5.805676,1.8060954,1010.2128,1,3
69.48,7.790715700000002,-5.8819413,1.806098,1010.2303,1,3
69.52,7.7142534,-5.929607,1.8155682,1010.2227,1,3
69.56,7.7238570000000015,-5.9010086,1.8534474,1010.1827,1,3
69.6,7.728652,-5.8771763,1.7682295,1010.2127,1,3
69.64,7.915093,-5.924843,1.8392482,1010.1751,1,3
69.68,7.776522,-5.853346,1.7208921999999998,1010.19775,1,3
69.72,7.790876,-5.8676457000000015,1.7729718999999995,1010.1726,1,3
69.76,7.805258999999999,-5.9153123,1.6830221,1010.1827,1,3
69.8,7.833953,-5.967745,1.8392588,1010.1928,1,3
69.84,7.843541,-5.915313200000001,1.9008088,1010.1831,1,3
69.88,7.891369,-5.79615,1.5930753,1010.1729,1,3
69.92,7.8340554,-5.729419,1.9150188,1010.1651,1,3
69.96,7.791050999999999,-5.6674542,1.8013943,1010.1956,1,3
70.0,7.709824,-5.624556,1.7256465,1010.13745,1,3
70.04,7.6811595,-5.7818527,1.8156015,1010.1471,1,3
70.08,7.695542999999999,-5.824753,1.9102936,1010.11945,1,3
70.12,7.6143155,-5.8342867,1.8298116,1010.11694,1,3
70.16,7.5713115,-5.781855,1.7351246,1010.122,1,3
70.2,7.6191535,-5.600727,1.6830502,1010.11945,1,3
70.24,7.657420599999999,-5.667459,1.8392882,1010.10693,1,3
70.28,7.466258,-5.8009242999999975,1.8440253,1010.13245,1,3
70.32,7.6760116,-5.581649,1.7918959,1010.122,1,3
70.36,7.5278425,-5.7008123,1.6545986,1010.1199,1,3
70.4,7.484827,-5.715112,1.7114116999999998,1010.10913,1,3
70.44,7.5613117,-5.4815510000000005,1.7871628000000002,1010.10693,1,3
70.48,7.494397,-5.5482830000000005,1.8108351000000005,1010.0667,1,3
70.52,7.4752827,-5.600715,1.8013668,1010.074,1,3
70.56,7.370134399999999,-5.6102485999999985,1.8108363,1010.06903,1,3
70.6,7.3844767,-5.672214,1.9860094,1010.08936,1,3
70.64,7.413158,-5.5911827,1.8203056,1010.07135,1,3
70.68,7.523099,-5.390987,1.7161491999999998,1010.03864,1,3
70.72,7.327134599999999,-5.5578165,1.825041,1010.0413,1,3
70.76,7.3701572,-5.5244513,1.8013697,1010.0667,1,3
70.8,7.312805,-5.538751,1.7776979,1010.0693,1,3
70.84,7.317587400000002,-5.5149183,1.8013703,1010.0643,1,3
70.88,7.269794,-5.4958519999999975,1.7492924,1010.0388,1,3
70.92,7.265022,-5.510152,1.7114177,1010.04913,1,3
70.96,7.460999,-5.491086,1.8629191000000005,1010.0339,1,3
71.0,7.4275455,-5.5578175000000005,1.6924808999999998,1010.0414,1,3
71.04,7.3319545,-5.5578175000000005,1.6309341,1010.0364,1,3
71.08,7.317617999999999,-5.572118,1.6356688999999998,1010.0314,1,3
71.12,7.179008500000001,-5.533985,1.7871702,1010.0188,1,3
71.16,7.0499616,-5.605484,1.938672,1010.02606,1,3
71.2,7.212477000000002,-5.543519,2.0380948,1010.02374,1,3
71.24,7.336757,-5.4577208,1.9292037,1010.0213,1,3
71.28,7.484936,-5.476787,1.92447,1010.039,1,3
71.32,7.441923599999999,-5.362389599999998,1.5125772,1010.0186,1,3
71.36,7.183887,-5.5768867,1.7208977,1010.0413,1,3
71.4,7.284270299999997,-5.576887,1.8629304,1010.0361,1,3
71.44,7.3081727,-5.581654,1.8866028,1010.0362,1,3
71.48,7.398997,-5.5196886,1.7729778000000005,1009.9984,1,3
71.52,7.4515824,-5.5006227,1.7635096,1010.0009,1,3
71.56,7.4372544,-5.6817517,1.7398387,1010.0312,1,3
71.6,7.5185146,-5.676985299999999,1.7635111,1010.0314,1,3
71.64,7.4994035,-5.6960516,1.7635118000000003,1010.0207,1,3
71.68,7.489851,-5.772317,1.9244822,1010.021,1,3
71.72,7.528100999999999,-5.6483870000000005,1.7824512,1010.0337,1,3
71.76,7.4564119999999985,-5.7532510000000014,1.829796,1010.0288,1,3
71.8,7.4994335,-5.7866173,1.9860315,1010.006,1,3
71.84,7.580694,-5.7770844000000015,1.9623599,1010.016,1,3
71.88,7.7240996,-5.7961507,1.9434235,1009.9956,1,3
71.92,7.7193274,-5.68652,1.7871886,1010.0056,1,3
71.96,7.427767299999997,-5.9010153,1.7729862,1010.02606,1,3
72.0,7.379973,-5.896249,1.8392681,1010.0059,1,3
72.04,7.528154400000001,-5.8771825,1.9434258,1010.021,1,3
72.08,7.6476607,-5.862883,2.052318,1010.0106,1,3
72.12,7.7193619999999985,-5.829518,2.0617874,1010.0084,1,3
72.16,7.757608,-5.758019,1.735114,1009.99585,1,3
72.2,7.671578999999999,-5.886717,1.7067084,1010.02075,1,3
72.24,7.5998898,-5.9153160000000025,1.9434294,1010.0135,1,3
72.28,7.5807815,-5.9486823,1.8771486,1010.0031,1,3
72.32,7.676381599999999,-5.953449,1.9528996,1010.016,1,3
72.36,7.810227999999999,-5.848585,1.8250717,1010.0031,1,3
72.4,7.810227999999999,-5.848585,1.8250717,1010.0028,1,3
72.44,7.8006754,-5.8342853,1.7824626,1010.0135,1,3
72.48,7.5617009999999985,-5.9248505,1.8629489,1010.0157,1,3
72.52,7.599943,-5.9391503,1.881887,1010.02075,1,3
72.56,7.752903999999999,-5.9725160000000015,2.0665295,1009.9981,1,3
72.6,7.7481318,-5.9343843000000005,1.8345442,1010.0081,1,3
72.64,7.638208,-5.8247532999999985,1.7824668999999995,1010.0056,1,3
72.68,7.5904136,-5.8342867,1.7256542,1010.0056,1,3
72.72,7.6238837,-6.0487823,1.8913596,1009.9801,1,3
72.76,7.7577257,-5.9868169999999985,2.0333922,1010.03577,1,3
72.8,7.905907000000001,-5.786622,1.8487513,1010.02075,1,3
72.84,7.8676724,-5.8104544,1.7730012,1010.0005,1,3
72.88,7.78642,-5.867653400000001,1.7635328,1009.9827,1,3
72.92,7.6669399999999985,-5.943919,1.9008317,1010.0002,1,3
72.96,7.662167500000002,-5.905787,1.8960981,1010.02606,1,3
73.0,7.8438077,-5.8914870000000015,1.9103019,1009.9774,1,3
73.04,7.872490400000001,-5.8628874,1.9197712,1010.0131,1,3
73.08,7.791237400000001,-5.8628874,1.8629587,1010.0051,1,3
73.12,7.748231,-5.9010205,1.8108813,1010.021,1,3
73.16,7.762574000000001,-5.9343867,1.8676945,1010.0277,1,3
73.2,7.729127,-5.8676553,1.9339772,1009.9951,1,3
73.24,7.690892,-5.8628883,1.9008367,1010.0307,1,3
73.28,7.724362400000001,-5.9296203,1.9387131,1009.9949,1,3
73.32,7.858078999999999,-5.9343843000000005,1.9623742,1009.9927,1,3
73.36,7.939337700000001,-5.867653,1.8771551,1009.9975,1,3
73.4,7.819845699999999,-5.800921400000001,1.8440145,1010.0051,1,3
73.44,7.776828999999997,-5.8199873,1.7824675,1010.0082,1,3
73.48,7.729035400000001,-5.920085,1.9387031000000003,1010.0177,1,3
73.52,7.877210000000002,-5.8724194,2.0428603,1009.98975,1,3
73.56,7.7816167,-5.877186,1.910297,1010.01025,1,3
73.6,7.8341985,-5.84382,1.9197662,1009.99994,1,3
73.64,7.901117,-5.8104544,1.9907823,1010.0179,1,3
73.68,7.862879799999999,-5.8438206,1.915032,1010.03534,1,3
73.72,7.834206,-5.8342870000000016,1.9955175,1010.00256,1,3
73.76,7.7720695000000015,-5.8771863,1.8866262,1010.01025,0,0
73.8,7.738614599999999,-5.905786,1.9055642,1010.0229,0,0
73.84,7.791194,-5.8819532,1.9529084,1009.99475,0,0
73.88,7.7911963,-5.867653400000001,1.9860494,1009.9973,0,0
73.92,7.8007589999999984,-5.824754,1.9623775,1010.0351,0,0
73.96,7.8485594,-5.8104544,1.8913618000000003,1010.0277,0,0
74.0,7.729067,-5.910553,1.9481748,1009.99695,0,0
74.04,7.8485656000000015,-5.843821,1.9765817,1010.0302,0,0
74.08,7.9059243000000015,-5.7866225,1.943441,1010.0249,0,0
74.12,7.805552,-5.8247547,1.9103004,1010.035,0,0
74.16,7.786434700000001,-5.9153194,2.009723,1009.9971,0,0
74.2,7.795995,-5.8914866,1.9718479,1009.9971,0,0
74.24,7.815118300000001,-5.8199883,1.9292387,1009.9973,0,0
74.28,7.8820375999999985,-5.7723227,1.9150357,1010.0199,0,0
74.32,7.853361599999999,-5.9105535000000025,1.986052,1010.01733,0,0
74.36,7.8057284,-5.815226,1.9292542,1010.0249,0,0
74.4,7.863094999999999,-5.772327400000001,1.8724422,1010.0298,0,0
74.44,7.8726587,-5.79616,1.8913802,1009.98724,0,0
74.48,7.800975299999997,-5.8867254,1.8913814,1010.0143,0,0
74.52,7.858341,-5.781861,1.9908047,1010.012,0,0
74.56,7.753195,-5.8628926,1.8298358,1010.0041,0,0
74.6,7.767542999999999,-5.8867254,1.8913839,1010.0071,0,0
74.64,7.7818913,-5.896259,2.0239477,1010.01166,0,0
74.68,7.882275999999999,-5.8199944000000015,1.7777598,1010.0196,0,0
74.72,7.920519,-5.791395,1.8109009,1010.0243,0,0
74.76,7.748455,-5.9105597,1.952934,1010.0067,0,0
74.8,7.7723675,-5.8342943,1.929263,1010.01404,0,0
74.84,7.80105,-5.8247620000000015,1.9245292,1010.00146,0,0
74.88,7.8918757,-5.7961626,2.0097492,1010.0346,0,0
74.92,7.834532,-5.8533620000000015,1.9055935,1009.9764,0,0
74.96,7.715039999999999,-5.872428,1.8251091,1010.0246,0,0
75.0,7.8297690000000015,-5.8533620000000015,2.009752,1010.0087,0,0
75.04,7.805878999999999,-5.824763,1.9529401,1010.039,0,0
75.08,7.8250027,-5.7961636,1.948206,1010.00903,0,0
75.12,7.7963333,-5.7723309999999985,1.8677219,1009.994,0,0
75.16,7.7437687,-5.8771954000000015,2.1375842,1010.00116,0,0
75.2,7.758112400000001,-5.7341989999999985,1.7777699,1010.0317,0,0
75.24,7.786803999999999,-5.8581295,2.0192258,1010.0239,0,0
75.28,7.8011484,-5.7770987,2.0334291,1009.9988,0,0
75.32,7.811196000000002,-5.8819747000000016,2.1092246,1010.0288,0,0
75.36,7.882907,-5.772344,2.1991794,1010.01135,0,0
75.4,7.8877006,-5.6388807,2.0618830000000004,1010.04645,0,0
75.44,7.782586999999999,-5.7675790000000005,2.1707783,1010.01855,0,0
75.48,7.9881325,-5.6484156,2.2275925,1010.02893,0,0
75.52,7.9021240000000015,-5.8343115,2.0098124,1010.00885,0,0
75.56,8.222399000000001,-5.553086,2.1234405,1010.006,0,0
75.6,7.7349005,-5.7580485,1.7967703000000002,1010.0589,0,0
75.64,7.8209643,-5.72945,1.867789,1010.03394,0,0
75.68,8.313312,-5.443457,2.6584373,1010.0717,0,0
75.72,7.754103,-5.8772144,2.5353453,1010.03613,0,0
75.76,7.4243107,-6.0440445,1.9293426,1010.01605,0,0
75.8,8.456791,-5.591223,2.8998995,1010.0487,0,0
75.84,7.280986299999999,-5.982081,2.4738054,1010.0487,0,0
75.88,6.9607673,-5.943949,2.118728,1010.0562,0,0
75.92,7.993233,-5.7389884,3.2407842,1010.04816,0,0
75.96,7.5009413,-5.6102915,2.4738133,1010.01074,0,0
76.0,7.7925366999999985,-5.4339294,2.0903292,1010.0358,0,0
76.04,7.7543125,-5.5340276,2.76735,1010.0358,0,0
76.08,7.630065400000001,-5.7485237,3.4775133,1010.061,0,0
76.12,7.338539599999999,-5.79619,3.5153925000000004,1010.0355,0,0
76.16,7.338539599999999,-5.79619,3.5153925000000004,1010.0458,0,0
76.2,7.47243,-5.5769296,3.3070838,1010.0384,0,0
76.24,7.0566006,-5.862923,3.1177087,1010.04083,0,0
76.28,7.343431,-6.0249877,3.9130929,1010.04333,0,0
76.32,7.476725999999997,-5.7342143,3.8988402,1010.033,0,0
76.36,7.2042823,-5.800946,2.9756317,1010.1281,0,0
76.4,6.941395299999999,-6.020208,2.7389116,1010.2491,0,0
76.44,7.8208866,-5.710382,4.732097,1010.0911,0,0
76.48,6.793234299999999,-6.2251699999999985,3.4348702000000007,1009.84216,0,0
76.52,6.0093489999999985,-5.8629117,1.8109698,1009.9627,0,0
76.56,7.753985000000001,-5.5244860000000005,4.0692816,1009.9953,0,0
76.6,7.4576397,-5.7437477,3.7284048,1010.0052,0,0
76.64,7.338147599999999,-5.805713,3.3827932,1010.01764,0,0
76.68,6.7741380000000015,-6.11554,3.766281,1010.02515,0,0
76.72,7.1469674,-5.953477,3.9319854,1010.0152,0,0
76.76,6.9796770000000015,-5.901045,3.5484989,1010.0427,0,0
76.8,7.146975,-5.772348,3.2881072,1010.0278,0,0
76.84,7.366851299999999,-5.881979,3.879908,1010.0478,0,0
76.88,7.0370526,-5.8629127,3.553235,1010.03284,0,0
76.92,7.3907633000000015,-5.805714,3.562704,1010.04486,0,0
76.96,7.1613374000000025,-5.8533800000000005,3.567439,1010.02484,0,0
77.0,7.0514073,-5.8533800000000005,3.5579708,1010.0399,0,0
77.04,7.1900263,-5.86768,3.496424,1010.03284,0,0
77.08,7.237829700000002,-5.8533807,3.5200965,1010.032,0,0
77.12,7.161358,-5.9534783,3.5485034,1010.02716,0,0
77.16,7.237837299999999,-5.910579,3.6858013,1010.0347,0,0
77.2,7.1183496,-5.705618,3.1508142999999995,1010.0347,0,0
77.24,7.1040177,-5.963012,3.5106297,1010.0347,0,0
77.28,7.027544,-5.920113,3.4964266000000004,1010.0171,0,0
77.32,7.0657845,-5.8486147000000015,3.4206765,1010.055,0,0
77.36,7.343018499999999,-5.815249,3.458552,1010.0246,0,0
77.4,7.1231523,-5.920113,3.3685987,1010.02966,0,0
77.44,7.1661777,-5.8533816,3.2265673,1010.01965,0,0
77.48,7.099266,-6.0059114000000005,3.3401935,1010.04486,0,0
77.52,7.1231675,-5.991612,3.2644432,1010.0397,0,0
77.56,7.3191447,-5.929647,3.2975845,1010.05225,0,0
77.6,7.391008,-5.9630165,3.5485234,1010.032,0,0
77.64,7.5009584,-5.924885,3.141366,1010.0495,0,0
77.68,7.462730400000001,-5.843854,3.3638837,1010.0372,0,0
77.72,7.0516770000000015,-5.9916167,2.8431003,1010.04987,0,0
77.76,7.0516770000000015,-5.9916167,2.8431003,1010.0573,0,0
77.8,7.281123,-6.072649,3.2407916,1010.05225,0,0
77.84,7.285913499999999,-5.991617,3.0608854,1010.0344,0,0
77.88,7.008695,-5.9868517,2.9946046,1010.03705,0,0
77.92,7.0373839999999985,-6.1203156,3.0514183,1010.0146,0,0
77.96,7.0469490000000015,-6.163214,3.1745133,1010.055,0,0
78.0,7.0995417000000005,-6.048817,2.9235914000000003,1010.02484,0,0
78.04,7.0947723,-6.2061142999999985,2.8857172,1010.0575,0,0
78.08,7.1999383,-6.282379,3.2313294,1010.04443,0,0
78.12,7.6110163,-6.063118,2.8289063,1010.0525,0,0
78.16,7.591908,-5.967787,2.7484224,1010.04736,0,0
78.2,7.8882660000000016,-6.134617,3.0040812000000003,1010.0423,0,0
78.24,7.596708,-5.948721400000001,2.8951907,1010.0525,0,0
78.28,7.4342,-6.0202193,3.0893017999999994,1010.06244,0,0
78.32,7.07095,-6.1012515999999986,3.0798347,1010.06244,0,0
78.36,7.113973,-6.053586,2.7484264,1010.0348,0,0
78.4,7.2047944,-6.06312,2.6111293,1010.0345,0,0
78.44,7.271722299999999,-6.0202203,2.8667881,1010.0197,0,0
78.48,7.080539999999999,-6.234716400000001,2.9425395,1010.03217,0,0
78.52,7.118789,-6.3109813,2.9756815,1010.06244,0,0
78.56,7.3241453,-6.02975,2.691601,1010.0399,0,0
78.6,7.453203,-5.991617,2.956728,1010.01495,0,0
78.64,7.290691000000002,-5.963018,2.8715088,1010.04486,0,0
78.68,7.2142167,-6.1012487,2.8004932,1010.0529,0,0
78.72,7.147303599999999,-6.1203146,2.7768214,1010.0427,0,0
78.76,7.1998835,-6.106015,2.7910247000000004,1010.03784,0,0
78.8,7.2668023,-6.067883,2.800494,1010.02997,0,0
78.84,7.352841400000001,-6.1584473,2.767353,1010.0303,0,0
78.88,7.3624043000000015,-5.9916177,2.8715103,1010.0278,0,0
78.92,7.4149837,-6.0106845,3.0892932,1010.0531,0,0
78.96,7.419766,-5.8867536,2.7578852000000005,1010.0428,0,0
79.0,7.300275,-5.958253,2.9709337,1010.0378,0,0
79.04,7.300275,-5.958253,2.9709337,1010.0531,0,0
79.08,7.3193974000000015,-5.986852,2.9377933,1010.0428,0,0
79.12,7.3767580000000015,-5.986852,2.9709343999999995,1010.023,0,0
79.16,7.333742,-5.862921,2.7815583,1010.0506,0,0
79.2,7.3050647,-5.9344196,2.7626207000000003,1010.0355,0,0
79.24,7.472361599999997,-5.929653,3.0845606,1010.0581,0,0
79.28,7.405448,-6.053584,2.7720902,1010.033,0,0
79.32,7.424568700000001,-6.0059185,2.8336377,1010.061,0,0
79.36,7.3528756999999985,-5.9773192,2.5590425,1010.04083,0,0
79.4,7.3480979999999985,-5.9582534,2.5685115,1010.0179,0,0
79.44,7.247725,-6.1012497,2.7862942000000004,1010.04333,0,0
79.48,7.099553,-6.2823787000000015,2.9377956000000003,1010.0557,0,0
79.52,7.118675,-6.172748,2.7247477000000004,1010.0458,0,0
79.56,7.1996210000000005,-6.0869427000000025,2.5779524,1010.0462,0,0
79.6,7.147038,-6.091709,2.4927328,1010.02325,0,0
79.64,7.44815,-5.9963775,2.7673266,1010.0383,0,0
79.68,7.5055027,-5.9868445,2.69631,1010.0509,0,0
79.72,7.438569999999999,-6.0964746,2.7531216,1010.0462,0,0
79.76,7.3859825,-5.996377,2.9046218,1010.0613,0,0
79.8,7.4050965,-5.9010453,2.9424963,1010.05347,0,0
79.84,7.299931,-6.044042,2.8525422,1010.0462,0,0
79.88,7.1995397,-6.177505,2.9472287,1010.0515,0,0
79.92,7.1756353000000015,-6.220404,2.8336027,1010.0688,0,0
79.96,7.1278276,-6.2156367,2.7010384,1010.0336,0,0
80.0,7.5054216,-6.048807599999999,2.8478038,1010.0336,0,0
80.04,7.385916,-6.0535736,2.696302,1010.039,0,0
80.08,7.3237686,-6.077406,2.7105043,1010.0565,0,0
80.12,7.4671474,-5.9344096,2.8620038,1010.0415,0,0
80.16,7.342863,-6.0774055,2.9519565,1010.04144,0,0
80.2,7.223362400000001,-6.148904,2.9424872000000004,1010.044,0,0
80.24,7.256816400000001,-6.2251687,3.0324404,1010.059,0,0
80.28,7.2281270000000015,-6.1012383,2.966158,1010.04895,0,0
80.32,7.204217999999999,-6.034506,2.7389054,1010.05646,0,0
80.36,7.189863000000001,-6.11077,2.8572643,1010.04175,0,0
80.4,7.242431,-6.1250696,2.8951385,1010.04645,0,0
80.44,7.256760000000001,-6.0821705,3.0087633,1010.04175,0,0
80.48,7.256745,-6.091703400000001,2.7815107999999995,1010.0288,0,0
80.52,7.275853999999999,-6.125069,2.9898236,1010.0313,0,0
80.56,7.0799356,-6.134603,2.65842,1010.0188,0,0
80.6,7.156405,-6.15367,2.7767794,1010.01624,0,0
80.64,7.280676,-6.11077,3.0229683,1010.0644,0,0
80.68,7.223307000000001,-6.1775017,2.9614196,1010.01636,0,0
80.72,7.2185190000000015,-6.1012373,2.8193867000000004,1010.0288,0,0
80.76,7.3284473,-6.086937,2.8335898,1010.0191,0,0
80.8,7.3284473,-6.086937,2.8335898,1010.05695,0,0
80.84,7.3953570000000015,-6.106003,2.9188082000000004,1010.0241,0,0
80.88,7.3236485,-6.072636599999999,2.9330103,1010.0444,0,0
80.92,7.2567233999999985,-6.120302,2.7909775000000003,1010.05975,0,0
80.96,7.3092976,-6.1298356,2.8809310000000004,1010.0266,0,0
81.0,7.271051400000001,-6.096469,2.9614148,1010.0744,0,0
81.04,7.266264,-6.1155353,2.899867,1010.01373,0,0
81.08,7.194559599999999,-6.1489005,2.790975,1010.06195,0,0
81.12,7.204111599999999,-6.1632,2.8998656000000005,1010.03925,0,0
81.16,7.094168700000001,-6.115535,2.81938,1010.0442,0,0
81.2,7.290133,-6.1060014,2.8241136000000004,1010.0196,0,0
81.24,7.280565299999999,-6.0631022,2.9330044,1010.05475,0,0
81.28,7.3522553,-6.063102,2.8856597,1010.0497,0,0
81.32,7.3379083,-6.039269,2.885659,1010.0543,0,0
81.36,7.208845599999999,-6.0774016,2.871455,1010.0574,0,0
81.4,7.156256699999999,-6.1250663,2.8809228,1010.0246,0,0
81.44,7.156256699999999,-6.1250663,2.8809228,1010.05695,0,0
81.48,7.309202,-6.077401,2.8477814,1010.0419,0,0
81.52,7.1896996,-6.1393657,2.8241086,1009.99396,0,0
81.56,7.2900643,-6.0631010000000005,2.7814977,1010.0191,0,0
81.6,7.257113499999999,-6.1155453,2.8052163,1010.0422,0,0
81.64,7.333603,-6.0535803,2.8999057,1010.007,0,0
81.68,7.410092999999999,-6.0869465,3.0372045,1010.0196,0,0
81.72,7.0946383,-6.2490096,2.7247348,1010.0398,0,0
81.76,7.324081,-6.0869474000000015,2.899909,1010.0448,0,0
81.8,7.381452,-6.034515,2.7626126,1010.0067,0,0
81.84,7.309767699999999,-6.0821809999999985,2.814692,1010.0397,0,0
81.88,7.1281543,-6.1870456,2.7720842,1010.03217,0,0
81.92,7.4053955,-6.063116,2.9567273,1010.06494,0,0
81.96,7.3623834000000015,-6.1107809999999985,2.899915,1010.0246,0,0
82.0,7.214222,-6.1679807,2.8241656,1010.0372,0,0
82.04,7.214222,-6.1679807,2.8241656,1010.05225,0,0
82.08,7.281158400000002,-6.0678835,2.7247448,1010.01666,0,0
82.12,7.314636,-6.129849,2.951998,1010.01654,0,0
82.16,7.3242083,-6.0726504,2.786295,1010.0419,0,0
82.2,7.410258,-6.0535846,2.8431091,1010.03217,0,0
82.24,7.2716494,-6.0726510000000005,2.7626247000000004,1010.0317,0,0
82.28,7.2477636,-6.1393833,2.7957668,1010.0372,0,0
82.32,7.1187210000000025,-6.1536837,2.8383775,1010.03436,0,0
82.36,7.338611,-6.096485,2.8573167,1010.03705,0,0
82.4,7.329058,-6.0583525,2.8005047000000003,1010.01404,0,0
82.44,7.3338504,-6.1107845,2.6916146,1010.0373,0,0
82.48,7.2287135,-6.1012526,2.6963503,1010.0422,0,0
82.52,7.295637599999999,-6.086953,2.7010853,1010.0218,0,0
82.56,7.3625607,-6.082186,2.74843,1010.0372,0,0
82.6,7.079994,-6.2442355,2.7341757,1010.0271,0,0
82.64,7.2568364,-6.1298385,2.8099253,1010.01154,0,0
82.68,7.328518400000001,-6.125071,2.8193927000000003,1010.03687,0,0
82.72,7.3763065,-6.0583386,2.8288608,1010.0041,0,0
82.76,7.400195,-6.067872,2.7909844,1010.03174,0,0
82.8,7.4766617,-6.00114,2.914078,1010.03687,0,0
82.84,7.4766617,-6.00114,2.914078,1010.03687,0,0
82.88,7.0990424,-6.167969,2.6347468,1010.0518,0,0
82.92,7.194623,-6.187035,2.6584175,1010.0143,0,0
82.96,7.223292,-6.1107693,2.8335898,1010.0062,0,0
83.0,7.290203599999999,-6.058337,2.8288546,1010.0292,0,0
83.04,7.366665400000001,-5.9963717,2.895135,1010.03174,0,0
83.08,7.323642299999999,-5.9963717,2.828853,1010.0216,0,0
83.12,7.3618703,-6.0249705,2.9282744,1010.0341,0,0
83.16,7.414438,-5.958239,2.9992895,1010.0191,0,0
83.2,7.275814,-6.0488032999999986,2.743631,1010.0268,0,0
83.24,7.275814,-6.0488032999999986,2.743631,1010.0263,0,0
83.28,7.2375655,-6.125067700000002,2.9188027,1010.049,0,0
83.32,7.290127799999999,-6.1107674,2.7909725,1010.0518,0,0
83.36,7.3665943,-6.0774016,2.7767682,1010.00635,0,0
83.4,7.3092213,-6.1298337,2.719954,1010.05676,0,0
83.44,7.247074,-6.201331,2.719953,1010.0288,0,0
83.48,7.2279496,-6.1631985,2.715218,1010.0389,0,0
83.52,7.2948565,-6.0726337,2.8714526,1010.05396,0,0
83.56,7.309186,-6.0631010000000005,2.932999,1010.0087,0,0
83.6,7.328486,-6.058338,2.8809369,1010.00885,0,0
83.64,7.328486,-6.058338,2.8809369,1010.0489,0,0
83.68,7.3189225,-6.058338,2.9708905,1010.02893,0,0
83.72,7.280680999999999,-6.0535717,2.8099203,1010.03143,0,0
83.76,7.328477,-6.072638,2.8004515,1010.03143,0,0
83.8,7.285456,-6.086938,2.9046082,1010.054,0,0
83.84,7.299792999999997,-6.096471,2.8099198,1010.0336,0,0
83.88,7.309348599999999,-6.0774040000000005,2.8051848,1010.0462,0,0
83.92,7.361925,-6.039272,2.9756236,1010.02637,0,0
83.96,7.251986,-6.129836599999999,2.880935,1010.01324,0,0
84.0,7.2137446,-6.0726375999999975,2.861997,1010.04364,0,0
84.04,7.2137446,-6.0726375999999975,2.861997,1010.04364,0,0
84.08,7.352355499999999,-6.024972,2.8146527000000003,1010.0336,0,0
84.12,7.409710400000002,-6.0059055999999975,2.8477933,1010.04083,0,0
84.16,7.4479465,-6.0440383,2.9377468,1010.0311,0,0
84.2,7.3380084,-6.09647,2.7909799,1010.04114,0,0
84.24,7.280647,-6.09647,2.7389014,1010.0258,0,0
84.28,7.228067999999999,-6.1679683,2.8051827,1010.0537,0,0
84.32,7.1468086,-6.182268,2.8430576000000003,1010.04083,0,0
84.36,7.395356,-6.0774035,2.8099167,1010.0459,0,0
84.4,7.2567377,-6.048804799999999,2.7436347000000003,1010.0562,0,0
84.44,7.2567377,-6.048804799999999,2.7436347000000003,1010.0308,0,0
84.48,7.318871499999997,-6.0106720000000005,2.9566827,1010.0459,0,0
84.52,7.3379884,-6.0583367,2.97562,1010.0559,0,0
84.56,7.352326400000001,-6.06787,2.9614165,1010.038,0,0
84.6,7.309920299999999,-6.072652,2.800503,1010.0534,0,0
84.64,7.3242707,-6.053586,2.8715198,1010.03046,0,0
84.68,7.4390073,-5.996388,2.9567413,1010.0406,0,0
84.72,7.290866,-6.0488205000000015,2.862056,1010.03046,0,0
84.76,7.200060400000001,-6.0869535999999975,2.8241818,1010.0305,0,0
84.8,7.333927,-6.010689299999999,2.8005128,1010.0481,0,0
84.84,7.3769565,-5.99639,2.942546,1010.043,0,0
84.88,7.458235,-5.9725575,2.80525,1010.0532,0,0
84.92,7.3626704,-6.0392904000000005,2.966223,1010.023,0,0
84.96,7.338783,-6.015458,2.791051,1010.04004,0,0
85.0,7.3196845,-6.0392914000000015,2.8194592000000003,1010.0377,0,0
85.04,7.377053299999999,-6.0583572,2.9141482999999995,1010.038,0,0
85.08,7.367514999999999,-6.024992,2.8904781,1010.01776,0,0
85.12,7.3102,-6.0535927,2.9520295,1010.0453,0,0
85.16,7.2863229999999986,-6.0535927,2.8147337,1010.02234,0,0
