Timestamp,Ax,Ay,Az,P,LPFRMSAcc,LPFPValue,Value,Type
0.0,2.1918599999999997,5.0016110000000005,7.9796869999999975,1004.9511,0.02009730617478085,3.61782396,0,0
0.02,2.1966422000000003,4.7394514,8.741926,1005.0137300000001,0.05894947706009958,10.4195584728,0,0
0.04,1.7569019000000001,4.6488867,8.206939,1004.97864,0.1130086434465952,20.009983781808,0,0
0.06,1.3219428999999998,4.639353,8.292159,1005.0119,0.1803077507710752,32.030090483232954,0,0
0.08,1.1928902,4.634586,8.760864999999999,1004.9888,0.2598728728923761,46.153708118872395,0,0
0.1,0.83440804,4.424857599999998,8.528879,1004.9887,0.3492868968433307,62.08514263249548,0,0
0.12,0.75315404,4.3581257,8.566754,1004.9916400000001,0.4470742341172029,79.55662155925584,0,0
0.14,0.5285055999999999,4.300927,8.566755,1004.9888,0.551823595952089,98.32597618132799,0,0
0.16,0.69102085,4.3819585,8.543083,1005.0088,0.6624012060887428,118.17463609113814,0,0
0.18,0.566749,4.4153247,8.273223,1004.9814,0.777249690653657,138.9054163375183,0,0
0.2,0.28952307,4.272327400000001,8.206941,1004.95105,0.8951718504046897,160.34089804440472,0,0
0.22,0.6193311,4.3485928,8.907634,1005.0061599999999,1.0167880189424727,182.3220846236497,0,0
0.24,0.39468366,4.2389617,8.808211,1004.99896,1.1409214314561542,204.70629783642545,0,0
0.26,0.33254808,4.224662,8.481538,1004.9914,1.2662048870501303,227.3660149990229,0,0
0.28,0.9491459999999999,4.6631849999999995,9.357402,1005.01904,1.3941666090043563,250.18769197389764,0,0
0.30000000000000004,0.99216634,4.4439235,8.722992,1004.9813,1.522666414494131,273.07018273779084,0,0
0.32,1.3315344999999998,4.8490806,8.817680000000003,1004.9813,1.6518252141613994,295.9240315989108,0,0
0.34,1.3228627,4.5439997000000005,9.366953,1004.9762,1.7818160820452722,318.67028025884036,0,0
0.36000000000000004,0.8258109,4.4724994,8.443748,1004.9789999999999,1.91019543221062,341.23957696582227,0,0
0.38,0.8162775,4.401001,8.368,1004.99365,2.0364791465263448,363.5713221990345,0,0
0.4,1.8153039,3.9481769,7.231747,1005.0038,2.1582679173672705,385.6128092071843,0,0
0.42,0.3718413,4.1150055,9.087636999999999,1005.0088,2.278859611189988,407.31849269443967,0,0
0.44,0.53438085,4.4295974000000005,9.224936999999999,1005.0139999999999,2.3985090693479885,428.6493384500785,0,0
0.46,0.79252595,4.5868926,8.869861,1005.0013,2.5164168309220782,449.5721408213407,0,0
0.48,1.0698021999999998,4.543993,9.589494,1004.98615,2.6337086448249103,470.0590194296311,0,0
0.5,1.2227938,4.7060547,8.912478,1004.9712,2.7489680365882125,490.0869092179697,0,0
0.52,1.2323819999999999,4.8824162000000015,7.960864999999999,1004.9765,2.860493580904431,509.63715516176126,0,0
0.54,1.2993469,5.0063457,8.164449000000001,1004.9687,2.968827863907139,528.694946039113,0,0
0.56,1.5766136999999998,4.7537174,8.884083,1004.9816,3.0750615491193427,547.2490420126002,0,0
0.5800000000000001,1.5623097,4.720350700000001,8.8036,1005.0015,3.1788740701956075,565.2913500635282,0,0
0.6,1.7200816000000003,4.6345515,8.514805,1004.9512300000001,3.2796229649671846,582.8163090250993,0,0
0.62,1.8157156000000003,4.472487999999999,8.514809,1004.9739,3.377181703192422,599.8211300910532,0,0
0.64,2.0690835,4.362856,8.808345,1004.9964,3.472104946007673,616.3052209566023,0,0
0.66,1.9687432,4.2532239999999994,8.486409,1004.9862699999999,3.5636293646147013,632.2698154219578,0,0
0.68,1.8875223,4.3104224,8.434334,1004.9611,3.6517454286608833,647.7178197160266,0,0
0.7000000000000001,2.0452964,4.6297803,8.443806,1004.9765,3.736920096487647,662.6538075592882,0,0
0.72,1.8206833999999998,4.5439815999999995,8.609514,1005.0093400000001,3.8193123013392896,677.0837263343807,0,0
0.74,1.8111618000000005,4.582113,9.210788,1005.0013,3.900075711335768,691.0145058292488,0,0
0.76,1.9354726000000002,4.629777400000001,9.419103999999999,1005.01904,3.979580183065766,704.4541589139287,0,0
0.78,2.1792805,4.8585715,8.7704935,1004.9585,4.056829760350244,717.411252007462,0,0
0.8,2.2557932999999997,4.7632394,8.907795,1004.9966,4.1319953085798256,729.8954467176811,0,0
0.8200000000000001,2.1315562999999997,4.772772,8.401216999999999,1004.9562400000001,4.204101967184204,741.9167000194469,0,0
0.84,2.0817554,4.8157195999999995,7.8755145,1004.9789,4.272349144005599,753.4857033568173,0,0
0.86,2.1390727000000003,4.9396515,7.965464999999999,1004.95874,4.337253721807532,764.6133776376331,0,0
0.88,1.7901038,4.920586,7.998601400000001,1004.98645,4.398859452242811,775.3111336926663,0,0
0.9,1.6418866,5.063584,7.993864,1004.9917,4.457419998703875,785.5905209816002,0,0
0.92,1.7565587999999999,5.0349855,7.937046499999999,1004.9536,4.512991785954196,795.4630946745688,0,0
0.94,1.6895984,4.720393700000002,8.154825,1004.9638699999999,4.565744886921269,804.9407035808471,0,0
0.96,1.4075524,4.6679626,7.7192564,1004.9739,4.614897318966769,814.0352383175432,0,0
0.98,1.6369398000000002,4.815726799999998,8.107472999999999,1004.96906,4.661607496660441,822.758530968945,0,0
1.0,1.6416737000000001,4.672731400000001,8.576176,1004.9737,4.706682965175431,831.1224069642354,0,0
1.02,1.8901860000000001,4.934892700000002,8.675595,1004.9839999999999,4.750681308399899,839.1386295286028,0,0
1.04,1.7658623,4.9062943,8.973858,1004.9814,4.794027785689269,846.8187977601747,0,0
1.06,1.8040631,4.8347974,9.272121,1005.0043,4.8371256457895395,854.1744622176552,0,0
1.08,1.9091758,5.0016284,8.277892,1004.9742,4.8782832127359805,861.2168063883013,0,0
1.1,0.19796278,5.2208905,9.115878,1004.9491,4.918926516700224,867.9568579544864,0,0
1.12,1.947328,4.396277400000002,8.651902999999999,1004.9617,4.957703869361624,874.4055849497313,0,0
1.14,1.8325694,4.7299375999999995,8.325225,1004.94934,4.994382399431204,880.5736376409106,0,0
1.16,1.4597016999999999,4.544043,8.609285,1004.93646,5.029271561949347,886.4714351593295,0,0
1.18,1.4309823999999998,4.5059114000000005,8.566672,1004.9438,5.0623312021519284,892.1092295600308,0,0
1.2,1.3449028,4.639376,8.486182000000001,1004.96655,5.0936136952451765,897.4970710460742,0,0
1.22,1.3066238000000001,4.4725475,8.585602,1004.9943,5.12322133391646,902.6447578073764,0,0
1.24,1.9900900000000001,4.7204094,9.016428999999999,1005.0046,5.1524928687856955,907.5617492615567,0,0
1.26,1.5742041000000002,4.2914205,8.77497,1004.9666,5.180372859063437,912.2570603731286,0,0
1.28,1.8991903,4.539282,9.002218,1004.98676,5.2076816988411245,916.7396641899704,0,0
1.3,2.0760026000000003,3.9863633999999997,9.769186999999999,1005.01416,5.235414878373672,921.0182811074477,0,0
1.32,2.0950787,3.7432697,9.253134,1004.99945,5.262270881111067,925.1011992237441,0,0
1.34,1.929588,3.9481876000000002,7.9371342999999985,1004.95685,5.285913431477924,928.9963460140978,0,0
1.36,2.3024411,4.424842,7.544181,1004.9819,5.306572438684287,932.7116457124035,0,0
1.38,2.2403343,4.2341795,7.2269783,1004.9991,5.323744254913254,936.254719361262,0,0
1.4,2.240363,3.88622,7.2269809999999985,1004.9789999999999,5.337431077645975,939.6327866476927,0,0
1.42,2.1543586,3.3714313999999996,6.8387628,1004.954,5.346777984150016,942.8528032700516,0,0
1.44,3.0482104,3.5191936000000004,7.577333,1004.9443,5.354273062299172,945.9215393457953,0,0
1.46,2.7996929,2.7565439,7.122833,1004.9789999999999,5.3585277594303475,948.8456814006777,0,0
1.48,2.9717946,2.7708426,6.0481253,1004.99445,5.358140626577216,951.6315888873293,0,0
1.5,3.4354660000000004,2.3275523,8.770411,1005.0469400000001,5.358675681076873,954.2855120065401,0,0
1.52,3.3876964999999997,1.9748261999999999,8.401131,1005.0596,5.35912708136154,956.8133051914514,0,0
1.54,3.6075997,2.0606236,8.306445,1005.02185,5.359536822937835,959.2204140109498,0,0
1.56,3.7462406,1.4648032,8.159680999999999,1004.99646,5.359512863177905,961.5121291294192,0,0
1.58,3.7510526,1.6649977999999999,7.193866000000001,1005.0045,5.357411610776885,963.6936611432327,0,0
1.6,3.3782585,1.1978745000000002,7.3595724,1004.9992699999999,5.353282574790391,965.7699630225227,0,0
1.62,4.0283403,1.3218043,8.737286,1005.0268599999999,5.350547489084344,967.7459081921824,0,0
1.64,4.3438360000000005,1.4123682,8.751491999999999,1005.0319999999999,5.3493869339253965,969.6260832746016,0,0
1.66,5.26159,1.2836703,10.900914,1005.0469400000001,5.3544030839030485,971.4149210616388,0,0
1.68,5.9929266,1.1454395,11.317544999999999,1005.0596,5.366283211328944,973.116658974443,0,0
1.7,6.0025187,0.8546787,10.70681,1005.0317,5.383035937798695,974.7352087418888,0,0
1.72,5.8304763,0.5782178000000001,9.04977,1004.99677,5.4008673320319875,976.274300936933,0,0
1.74,5.9165410000000005,0.59251666,10.645268,1005.00903,5.422523472545733,977.7376878251014,0,0
1.76,5.2330613,-0.4370603,9.982453999999999,1005.0321,5.445581590293031,979.128996363316,0,0
1.78,5.997861,0.21595721,10.919869,1005.0091,5.4722503500807225,980.4515249607747,0,0
1.8,5.037146599999999,-0.5895915,9.859364999999999,1005.0143,5.499159221619996,981.7085372196308,0,0
1.82,5.309628,-0.041438356,8.888815,1005.0118,5.524659270307735,982.9031249975653,0,0
1.84,5.1275163,0.26839966,7.1749167,1005.0091,5.54564031397092,984.0382442681564,0,0
1.86,5.2852607,-1.2854981,9.092352,1005.0367,5.566236479215932,985.116830096286,0,0
1.88,4.7021337,0.011005089,7.638890299999999,1005.00903,5.583040817700862,986.1414804536743,0,0
1.9,5.1036477,1.5982684,8.311176,1005.0094,5.598331996673199,987.1147860198296,0,0
1.92,5.7441505999999976,0.3637298,10.186002,1005.0119,5.616006587931013,988.0392284284128,0,0
1.94,6.0500693,1.0405806,6.9666076,1004.99615,5.6307056993025935,988.9171106582946,0,0
1.96,6.207813,0.3541962,7.8045982999999985,1004.98895,5.644163600626505,989.7506660182485,0,0
1.98,5.0941277000000005,2.0701563000000003,5.8350870000000015,1004.9189,5.652400543076261,990.5418011766377,0,0
2.0,5.6533747000000005,0.544858,3.581511,1004.8589,5.653285924707915,991.2923897583548,0,0
2.02,5.476532,-1.1091374,7.170191,1004.8709,5.652610329321545,992.00449246603,0,0
2.04,7.068217,0.13016692,8.060260000000001,1004.9337,5.6539476005651395,992.680251565654,0,0
2.06,7.627464,-0.08432834,4.826662000000002,1004.9814,5.653536723013632,993.3216364404452,0,0
2.08,8.186711,-0.22732525,4.784054,1005.0115400000001,5.652534688248847,993.9304477686253,0,0
2.1,7.9764094,-1.275968,6.4410963,1005.0087,5.6527736874392165,994.5082751662384,0,0
2.12,9.219169,-0.27975792,5.574701,1004.9991,5.655034928581718,995.0566104241707,0,0
2.14,9.238298,-0.50855285,5.3190436,1005.02167,5.658856698447381,995.5769936725524,0,0
2.16,11.135891,-0.43705475,6.7488345999999995,1004.9964,5.6689412812882125,996.0707141736017,0,0
2.18,9.983967,0.5543888000000001,5.8919086,1005.00366,5.681566653575584,996.5391242133037,0,0
2.2,8.817706,-0.18919425,5.6457205,1005.0116,5.694034347474642,996.9835122372164,0,0
2.22,7.8043966000000005,1.4171352,5.030248599999998,1005.0112,5.7040743581444175,997.4050731710917,0,0
2.24,6.858005,-0.14152916,3.3542705,1005.0161,5.708281477420021,997.8049641088479,0,0
2.26,8.841633999999997,-0.079564154,3.9508064,1005.02655,5.711577946388509,998.1843054506577,0,0
2.28,7.818764999999999,0.39709127,3.4016163,1005.0369999999999,5.711670581718487,998.5441611606584,0,0
2.3,8.812975999999997,-0.16059612,4.0028863,1005.02386,5.711311536541352,998.8854565818364,0,0
2.32,8.573996000000001,-0.8040815,4.362702400000001,1005.0289,5.710498315551308,999.2091416122947,0,0
2.34,7.0204735000000005,-0.16059433,3.586252200000001,1004.9787,5.705610732172318,999.5159201154036,0,0
2.36,7.1495337,-1.7001922999999999,2.4121202999999998,1005.0367,5.696828032957512,999.8068644083353,0,0
2.38,8.980205999999997,-0.36078995,2.2464168,1005.0312,5.687813804946084,1000.0827503936994,0,0
2.4,9.835796,-1.1139061000000001,2.0854475,1005.0065,5.680398343145129,1000.34424874895,0,0
2.42,12.306962,-1.1568053,0.025982047999999997,1005.01636,5.679088956290796,1000.592128296153,0,0
2.44,11.155033999999999,-0.8898782,1.8818692,1005.0339,5.681072812172376,1000.8271450421956,0,0
2.46,12.541184,-0.0795638,0.43314204,1005.0441,5.688456312724949,1001.0499868768468,0,0
2.48,12.263963,-0.77548116,4.2727447,1005.0563,5.701542900545426,1001.261312649188,0,0
2.5,10.830027000000001,-0.83268005,-0.11131336,1005.01636,5.715158064171282,1001.4615582720917,0,0
2.52,9.381753,-1.2950362,-2.1044972,1005.0267,5.726778494247821,1001.6513298147096,0,0
2.54,9.912317,-1.1282068,-1.5837121,1005.0339,5.737424934023773,1001.831189202434,0,0
2.56,9.333967,-1.4570993,-0.2533438,1005.0237400000001,5.745819708120143,1002.0016061402986,0,0
2.58,9.572963,-1.5857965,0.8971171,1005.00366,5.752806572752844,1002.1629939404904,0,0
2.6,9.711584,-1.8288913,0.52783406,1005.0310699999999,5.758839300026372,1002.3159212745544,0,0
2.62,10.20391,-0.6038863,0.8024302,1005.0289,5.764748896895314,1002.4608145903447,0,0
2.64,9.716376,-1.2950371999999999,0.19642694,1005.0463,5.769595308651991,1002.5981500716521,0,0
2.66,9.635125,-0.9804444999999999,0.4189445,1005.0361300000001,5.773255525208888,1002.7282764306772,0,0
2.68,9.644692,-1.0853089,0.4378827,1005.02625,5.775899129734263,1002.8515287863612,0,0
2.7,9.348351,-0.68015176,0.063865304,1005.0088,5.776923775537157,1002.9682007442128,0,0
2.72,9.114146,-0.5228555,-0.6794356,1005.0137300000001,5.776059247904924,1003.0786559914912,0,0
2.74,9.955397999999999,0.12539604,-0.19179139,1005.049,5.775198924695233,1003.1833474864172,0,0
2.76,10.447723,-0.1939634,0.30058724,1005.05896,5.7753759372877145,1003.2826050963824,0,0
2.78,10.041447,-0.34649336,0.6461994000000001,1005.0237400000001,5.7756673155962215,1003.3765772062007,0,0
2.8,9.678188,-0.19396363,0.97287387,1005.01886,5.775353506921146,1003.465523180494,0,0
2.82,9.77857,0.15399481,0.75035745,1005.0312,5.774671591369772,1003.54975227993,0,0
2.84,9.701782000000001,0.08727066,0.0922467,1005.04895,5.7734467355392605,1003.6295742239836,0,0
2.86,9.84995,0.11110359,0.078042924,1005.0364,5.772054726184679,1003.705169466543,0,0
2.88,9.92642,-0.322653,0.24848087,1005.02875,5.770694382094143,1003.7767303127887,0,0
2.9,9.677863,-0.47518265,0.22954270000000002,1005.0567599999999,5.7688628252983065,1003.8445695834058,0,0
2.92,9.773454,-0.39891756,0.44259036,1005.00885,5.766828013328004,1003.9087037724228,0,0
2.94,9.816464999999999,-0.44181645,0.480465,1005.06647,5.7647176663004505,1003.9695407002573,0,0
2.96,9.797339,-0.6467783,0.50887084,1005.0387,5.762535080560918,1004.0271451831708,0,0
2.98,9.782994,-0.48471504,0.39997903,1005.00885,5.76023690244107,1004.0815786416141,0,0
3.0,9.692172,-0.55144674,0.19166459,1005.0112,5.757650692450249,1004.1330226823843,0,0
3.02,9.773423,-0.52284735,0.14432001,1005.02124,5.754982911706359,1004.1816762191527,0,0
3.04,9.816434,-0.5371467,0.38577405,1005.03894,5.752357045144778,1004.2277526338522,0,0
3.06,9.873786,-0.59434533,0.5514777,1005.0161,5.7499196962459465,1004.2713038043988,0,0
3.08,9.692147,-0.7230422,0.34316334,1005.0439,5.747279658843929,1004.312566964998,0,0
3.1,9.859434,-0.6229444000000001,0.29581866,1005.04645,5.744799229746254,1004.3516690726292,0,0
3.12,9.78295,-0.5657455,0.5798824,1005.0387,5.742329327258487,1004.3886930062711,0,0
3.14,9.806844,-0.3989159,0.371568,1005.03894,5.739889147941088,1004.4237482432139,0,0
3.16,9.701682,-0.4465813,0.2579417,1005.0341,5.7372624420369736,1004.4569203169016,0,0
3.18,9.806832,-0.35601658,0.47098944,1005.0363,5.7347073629599565,1004.4883169280707,0,0
3.2,9.716009,-0.46564716,0.22006534,1005.0412,5.732027446113386,1004.5180493527588,0,0
3.22,9.840278,-0.3941487,0.49466026,1005.0087,5.729519011364652,1004.5460872655434,0,0
3.24,9.89763,-0.47994667,0.48992529999999995,1005.0416,5.727297456934163,1004.572645411124,0,0
3.26,9.711211,-0.5943438,0.59408164,1005.049,5.724976023196104,1004.5978270650786,0,0
3.28,9.720763999999999,-0.622943,0.4425800999999999,1005.0213,5.722581450596622,1004.6216020770787,0,0
3.3,9.706418,-0.58957696,0.36682904,1005.01886,5.7200902816917445,1004.6440398062047,0,0
3.32,9.811568,-0.48471248,0.39996928,1005.0412,5.717731507817105,1004.665295560358,0,0
3.34,9.68257,-0.4799474,0.33369288,1005.0289,5.71522494697968,1004.6853861207106,0,0
3.36,9.749483999999999,-0.6038777,0.43311498,1005.0289,5.712758043647637,1004.7043747898036,0,0
3.38,9.921553,-0.42274849999999997,0.4757242999999999,1005.04895,5.710676300770585,1004.7223936485707,0,0
3.4,9.596522,-0.6467765999999999,0.42837992,1005.049,5.708289501914281,1004.7394908950428,0,0
3.42,9.82117,-0.38938242,0.45205159999999994,1005.02875,5.706081235081003,1004.7556393548033,0,0
3.44,9.830725,-0.4799469,0.24847183,1005.049,5.70405175025132,1004.77096423217,0,0
3.46,9.897639,-0.42751473,0.28161237,1005.06885,5.702323266360088,1004.7855776825756,0,0
3.48,9.782919,-0.58481103,0.39523769999999997,1005.0338,5.700653885950552,1004.7993837276966,0,0
3.5,9.811595,-0.5848109,0.48992544,1005.0464,5.699111039667624,1004.8124720077462,0,0
3.52,9.792473,-0.7135078,0.47098756,1005.0289,5.697661676104066,1004.8248159527699,0,0
3.54,9.816366,-0.61341,0.47098714,1005.0513,5.696335591270139,1004.8365384051629,0,0
3.56,9.768564999999999,-0.5943438,0.5088621,1005.0616,5.695025658966165,1004.8477065858386,0,0
3.58,9.830699000000001,-0.7039745,0.5230649,1005.0589,5.693879985265918,1004.8583350865747,0,0
3.6,9.773338,-0.46087992,0.46151733,1005.02625,5.692728386414051,1004.8683309235133,0,0
3.62,9.88327,-0.55144435,0.53726745,1005.0538,5.691821235794131,1004.8778309337081,0,0
3.64,9.821128999999999,-0.642009,0.5325327,1005.0210599999999,5.691015445157717,1004.8867407673545,0,0
3.66,9.596475,-0.8040718000000001,0.37629706,1005.064,5.689846858864692,1004.8952516296021,0,0
3.68,9.610809,-0.6992074,0.5088600000000001,1005.0438,5.688387239567343,1004.9033066016175,0,0
3.7,9.744639999999999,-0.7278066,0.48518762,1005.0364,5.686954612236417,1004.9109031111244,0,0
3.72,9.739857,-0.44657979999999997,0.3904992000000001,1005.0261,5.685497133737728,1004.9180300957246,0,0
3.74,9.978843,-0.53714424,0.7739857,1005.05646,5.684574382036294,1004.9248258469728,0,0
3.76,9.72551,-0.5609769,0.7881885000000001,1005.0138,5.683608428140747,1004.9311508797266,0,0
3.78,9.687267,-0.66107446,0.84500104,1005.01886,5.682551632869225,1004.9370554315007,0,0
3.8,9.629907000000001,-0.72780615,1.1574714,1005.0439,5.681376786423803,1004.9426573338952,0,0
3.82,9.892792,-0.75163895,1.4794105,1005.0439,5.68073477652448,1004.9479716484486,0,0
3.84,9.505561,-1.0233309000000002,1.9812513999999999,1005.054,5.680010152091187,1004.9530490788536,0,0
3.86,9.682406,-1.2616585,1.8865626,1005.0589,5.679591803769625,1004.9579165596757,0,0
3.88,9.644163,-1.0900625,1.5314816999999998,1005.05615,5.679197867060938,1004.9625711061153,0,0
3.9,9.414726,-1.3522229,1.5314813,1005.05396,5.67842824716837,1004.9670128633674,0,0
3.92,9.472076,-1.4189545,2.3221262,1005.06635,5.677789618975625,1004.9712952137669,0,0
3.94,9.409933,-1.6763484,2.535174,1005.0414400000001,5.677338320013718,1004.9753316198106,0,0
3.96,9.362129,-1.5285851000000001,2.3978755,1005.0364,5.676837771762661,1004.9791180343594,0,0
3.98,9.19005,-1.5953166,2.4546878,1005.0563,5.6760057913078565,1004.9827415653309,0,0
4.0,9.448153,-1.4952188,2.7482207,1005.0210599999999,5.675523305339838,1004.9860812636624,0,0
4.02,9.032304,-1.7192468999999997,2.2558417,1005.0361,5.674342222544537,1004.9892122885589,0,0
4.039999999999999,9.276067999999999,-1.6429817999999998,2.4452173999999998,1005.02356,5.673099859017396,1004.9921025139183,0,0
4.06,9.338199000000001,-1.8527102,2.6724682,1005.0563,5.672131193557262,1004.9948874279961,0,0
4.079999999999999,9.409889,-1.5953159,2.336325,1005.05646,5.671278479461213,1004.9975698393342,0,0
4.1,9.409883,-1.6572810000000002,2.2795112,1005.04395,5.670524857398722,1005.0001069865712,0,0
4.119999999999999,9.295162,-1.7287792000000002,2.563575,1005.0638,5.669805566604985,1005.002578104718,0,0
4.14,9.299934,-1.8384098999999998,2.44048,1005.07635,5.6691047498067295,1005.0050271635356,0,0
4.159999999999998,9.443323,-1.8717754,2.5351677,1005.0538,5.66876832590738,1005.007366734118,0,0
4.18,9.314263,-1.8527093000000001,2.3552597,1005.0336,5.6684000733900985,1005.0095284184416,0,0
4.199999999999998,9.352494,-1.7859773999999995,2.3363214,1005.0310699999999,5.668045553684983,1005.0115160324037,0,0
4.22,9.323811,-1.8384093999999997,2.2274296000000002,1005.04114,5.667614929803867,1005.013378934384,0,0
4.239999999999998,9.304683,-1.8431756000000001,2.3931332000000003,1005.04614,5.667164007644452,1005.0151429344099,0,0
4.26,9.290338499999999,-1.9766393,2.6109152,1005.04364,5.666837875313762,1005.0168041942693,0,0
4.279999999999999,9.266434,-1.8574747999999999,2.6298522999999996,1005.04614,5.666538476421647,1005.0183776923813,0,0
4.3,9.319004,-1.8288756999999998,2.3931315,1005.0335699999999,5.6662301210416,1005.0198227276204,0,0
4.319999999999999,9.28554,-1.9242066999999998,2.5256941000000004,1005.0436,5.665956013030474,1005.0211851589385,0,0
4.34,9.256949,-1.8765433,2.5446397999999997,1005.0310699999999,5.6656478946385125,1005.0224245886786,0,0
4.359999999999999,9.381222,-1.8670101000000003,2.596718,1005.05615,5.665579782304356,1005.023641160278,0,0
4.38,9.309524,-1.9289751,2.3457944,1005.04865,5.665476614781399,1005.0248061547662,0,0
4.4,9.352538000000001,-1.9194421999999998,2.3931383999999998,1005.04614,5.6654476817565405,1005.0259123457387,0,0
4.42,9.285618,-2.0672052,2.5541080000000003,1005.0286,5.66549902960988,1005.0268994516375,0,0
4.44,9.213919,-1.9385080000000001,2.4120755000000003,1005.04614,5.665350584445468,1005.0278409243837,0,0
4.46,9.194797,-1.9814068999999999,2.3931377,1005.0286,5.664996727977064,1005.0286755423745,1,1
4.48,9.362088,-1.7430792000000002,2.3505275,1005.0309,5.664677220687031,1005.0294210188787,1,1
4.5,9.323848,-2.0100062,2.639326,1005.0284,5.6645715126007845,1005.0300760462497,1,1
4.52,9.209128,-1.9766401999999998,2.6061853999999998,1005.0381,5.664398005871626,1005.0306837146683,1,1
4.539999999999999,9.290382000000001,-1.9623406000000003,2.2132292000000002,1005.02795,5.664117629048961,1005.03121080911,1,1
4.56,9.285601,-2.1577694,2.142213,1005.05365,5.6637871739157175,1005.031757330846,1,1
4.579999999999999,9.252139999999999,-2.0862708,2.028587,1005.04065,5.663264455509225,1005.0322722510608,1,1
4.6,9.3477335,-1.9146748,2.075931,1005.0484,5.662711039767045,1005.0327852944588,1,1
4.619999999999999,9.252135,-1.7430787,1.8628825,1005.0257,5.6617841648846925,1005.0332131125454,1,1
4.64,9.2234535,-1.5857823,2.0853994,1005.04065,5.660511683553161,1005.0336179054013,1,1
4.659999999999998,9.409863,-1.490451,2.2747752999999995,1005.04565,5.659367953749106,1005.0340188959094,1,1
4.68,9.486338,-1.3093218,2.203759,1005.02295,5.658407772510851,1005.0343333630972,1,1
4.699999999999998,9.744444999999999,-1.0137953000000002,1.8818191000000002,1005.0431,5.6579240917380575,1005.0346427861971,1,1
4.72,9.816139,-0.09384973,1.4888633,1005.0278,5.6577649165006205,1005.0348915584177,1,1
4.739999999999998,9.973871,0.81179607,3.2784681000000004,1005.04565,5.659142960453679,1005.0351501039416,1,1
4.76,12.889548,3.7718279999999997,4.2300830000000005,1005.038,5.6692534740057186,1005.0353888143924,1,1
4.779999999999999,16.001198000000002,6.326702,4.125926,1005.0481599999999,5.6945547530645495,1005.0356457152147,1,1
4.8,16.799421,5.2351613,7.449478599999999,1005.04565,5.736126153320769,1005.0359087282068,1,1
4.819999999999999,14.1418495,1.1454552,6.085969,1005.0455300000001,5.784296619415624,1005.0361757630648,1,1
4.84,13.238463000000001,-0.8088329000000001,5.8492484000000005,1005.03314,5.836165286366443,1005.0364007863184,1,1
4.859999999999999,11.168806,-1.8336424999999998,5.5983253,1005.00256,5.887231349829047,1005.0364777900346,1,1
4.88,8.678527,-2.5676919999999996,3.714032,1005.03296,5.931492536262888,1005.036533166474,1,1
4.9,5.6576877,-3.1444454,1.5267363999999999,1005.01276,5.9630709553669705,1005.0364965136966,1,1
4.92,3.3538193999999995,-3.835596,0.60826176,1005.01544,5.9801717257027045,1005.0363883238533,1,1
4.94,3.0001116000000003,-4.5410466,-0.073492765,1005.02264,5.985066588017352,1005.0362432333417,1,1
4.96,3.5450068,-5.7803515999999995,-1.3091726000000001,1005.0201400000001,5.9821993956092205,1005.0360570597256,1,1
4.98,6.470517,-7.5010850000000024,0.068563946,1005.02515,5.978720281825078,1005.0358532913035,1,1
5.0,8.922563,-8.173169999999999,0.589349,1005.0126300000001,5.979302178672137,1005.035589637677,1,1
5.02,11.976863,-8.969184,1.474683,1005.0104,5.989541550543003,1005.0352659906372,1,1
5.039999999999999,15.313170999999999,-9.021618,3.1790694999999998,1005.0151400000001,6.014553682790911,1005.0349075625462,1,1
5.06,16.598945999999998,-6.9481654000000015,2.7293015,1005.0201400000001,6.052830632887878,1005.03453769226,1,1
5.079999999999999,16.412539000000002,-5.046309,2.459441,1005.0049,6.100915047824497,1005.0341041791827,1,1
5.1,16.455563,-4.5219879999999995,2.3410816000000003,1005.0328,6.157241475550134,1005.0337164319831,1,1
5.119999999999999,15.485268,-4.1597300000000015,2.4168324,1005.05035,6.218548434329282,1005.033433699402,1,1
5.14,13.047577,-2.4437695,4.078608999999998,1005.02264,6.279195893422243,1005.0331450195756,1,1
5.159999999999998,12.191995,-2.0386121,4.6893477,1005.05035,6.337657887138767,1005.0329518800104,1,1
5.18,10.303980000000001,-1.0614681000000001,4.073876,1005.0428,6.389634314132644,1005.0328166751224,1,1
5.199999999999998,9.199849,-0.36555094,3.5625602999999995,1005.0605,6.433077231479492,1005.0327968680533,1,1
5.22,8.14352,0.8260881,3.3589818,1005.05786,6.46669394991754,1005.0328695938016,1,1
5.239999999999998,8.659742999999999,1.9843613000000002,2.5730712000000002,1005.0175,6.4923418912977215,1005.0328785237352,1,1
5.26,10.566891,2.1893232000000005,2.3410857000000003,1005.0477,6.514583028878999,1005.0329397715393,1,1
5.279999999999999,12.531397,2.4610167,3.0985913,1005.0098,6.538096479565757,1005.0329105869217,1,1
5.3,15.131616000000001,0.7402894,3.9933940000000003,1005.0126300000001,6.56789947240195,1005.0328117892802,1,1
5.319999999999999,16.584682,-2.4914362,4.069145,1004.9974,6.606457731942671,1005.0325970092427,1,1
5.34,17.2682,-3.3637161,3.6430495,1004.9974,6.6540861903251765,1005.0322805203683,1,1
5.359999999999999,18.11901,-6.6383410000000005,3.6809251000000014,1004.9924,6.7130467844649315,1005.031857300926,1,1
5.38,18.816868,-8.74516,4.343742400000001,1004.9721699999999,6.785039810856577,1005.0312684699429,1,1
5.4,18.037766,-9.569773,4.859792700000002,1004.98956,6.867852563770873,1005.0305980283948,1,1
5.42,14.47204,-8.311403,2.7435145,1005.0427,6.95145444842782,1005.0300491933406,1,1
5.44,12.693957000000001,-6.728905999999999,1.4699601,1005.0024,7.030317268846137,1005.0294647055906,1,1
5.46,11.135749,-6.390480999999999,2.6014836,1005.05255,7.101919222522197,1005.0290313592744,1,1
5.48,9.974757,-5.8280389999999995,2.8524528,1005.0397300000001,7.1643524635778215,1005.0286869695764,1,1
5.5,7.6900296,-6.2999287000000015,1.7067286,1005.0147,7.214691316110168,1005.0283323137486,1,1
5.52,2.2028387,-10.608897,0.43791035,1005.035,7.255736727958776,1005.0280429435296,1,1
5.539999999999999,-0.1870332,-10.95209,-3.1460311,1005.02264,7.2895710328023835,1005.0277678054074,1,1
5.56,5.123355999999999,-8.687975999999999,1.1433418,1005.02496,7.3143224255014125,1005.0275145852632,1,1
5.579999999999999,8.7416935,-8.854806,2.0428813000000003,1004.99725,7.3360694391939925,1005.0271818874367,1,1
5.6,10.137413,-9.612689,2.9613574000000003,1005.012,7.3585572865184625,1005.0268332608424,1,1
5.619999999999999,15.204032999999999,-9.150333,4.8503870000000004,1005.0123,7.390172372944157,1005.0264728946448,1,1
5.64,18.760237,-8.406752000000001,5.446925,1005.0044,7.435705651751193,1005.026075012652,1,1
5.6599999999999975,19.869173,-7.0578164999999995,2.6204875,1005.0169999999999,7.493332783216545,1005.0256907740772,1,1
5.68,19.983913,-4.2169495,1.0628704,1005.04486,7.5597840315263225,1005.0254202700861,1,1
5.6999999999999975,17.923845,-1.2759843000000002,2.4263816000000005,1005.0119,7.628972374308567,1005.0251325797873,1,1
5.72,15.620004000000002,-1.8670380000000002,4.1165667,1005.0267,7.696440514391023,1005.0248840193519,1,1
5.7399999999999975,12.881203999999999,-2.2102304,3.4821587,1005.0751300000001,7.756460156146549,1005.0248452768816,1,1
5.76,10.324032,-1.5095471999999999,2.3553724,1005.03705,7.803802224859575,1005.0248549810381,1,1
5.779999999999999,9.659664999999999,-0.027148872999999997,2.3459060000000003,1005.0295,7.838200888177002,1005.0248802776988,1,1
5.8,10.787723,1.269354,2.6205034,1005.0345,7.8636022807218975,1005.0249372608287,1,1
5.819999999999999,12.95777,3.0758786,2.9187727000000003,1005.0145,7.886075575800188,1005.0249500369832,1,1
5.84,16.322777,5.59262,4.3343620000000005,1004.9966,7.914519689724441,1005.0248592658604,1,1
5.859999999999999,16.466206,-0.6277375,4.5142727,1005.0042,7.946671838650943,1005.0247046871389,1,1
5.88,16.375410000000002,-2.9824168999999996,4.1355224,1005.0191699999999,7.982120816170178,1005.024548176507,1,1
5.9,16.719584,-5.842352,4.376979,1005.0242,8.02262688256907,1005.0244086302772,1,1
5.92,17.039846,-7.939638,5.0113907,1004.9938,8.069973643285406,1005.0241751361592,1,1
5.94,18.406904,-9.460171,5.849384,1004.9866300000001,8.127457500719679,1005.0238336582668,1,1
5.96,18.034105,-9.379139,5.958277,1005.0219,8.193018387175035,1005.0235249672313,1,1
5.98,15.839487,-9.217058999999999,5.7262287,1005.0268,8.261359203888109,1005.0232639979503,1,1
6.0,13.387445999999999,-8.411511,4.5568300000000015,1005.00885,8.326203746546716,1005.0229815151007,1,1
6.02,11.508980000000001,-7.186506,3.5341985,1005.04425,8.382668493678949,1005.0228084798007,1,1
6.039999999999999,9.735671,-7.15314,3.0986333,1005.0342400000001,8.428305823362582,1005.0226967392822,1,1
6.06,5.9691815,-7.1388407,2.2322368999999997,1005.0267,8.458179086551919,1005.0226124170987,1,1
6.079999999999999,3.4454436,-7.634562,0.9823537,1005.03174,8.471654199439635,1005.0225707693156,1,1
6.1,0.55843896,-9.040696,-0.29593584,1005.0268,8.471899446707878,1005.0225491945653,1,1
6.119999999999999,1.7629471999999995,-9.708014,1.062838,1005.0092,8.462243680144493,1005.0224820740152,1,1
6.14,5.9070344000000015,-9.355288999999999,2.4405495999999998,1004.9862699999999,8.446796901865545,1005.0222924028308,1,1
6.1599999999999975,10.36181,-8.597406,3.0370842999999996,1005.0011599999999,8.43142741932663,1005.0220487327217,1,1
6.18,14.8978405,-8.144583,3.3590237999999997,1005.0086699999999,8.423467571768741,1005.0217852623759,1,1
6.1999999999999975,18.358416000000002,-7.729893,2.2795792,1005.00885,8.427781700130108,1005.0215058930336,1,1
6.22,20.131721,-8.177949,1.5410118,1004.99115,8.446530705310288,1005.0211497610679,1,1
6.2399999999999975,20.442406,-7.5010977,3.0891618999999997,1005.00635,8.478401847385559,1005.0207818037233,1,1
6.26,19.070598999999998,-5.165484999999999,3.6383525999999997,1005.0289,8.517797196419162,1005.0204859021197,1,1
6.279999999999999,17.368986,-2.4056485,3.7519782,1005.0437,8.559213212568176,1005.0203080142157,1,1
6.3,15.29933,-0.9852144,3.543664,1005.0513,8.59770031393619,1005.0202624036124,1,1
6.319999999999999,13.784129,0.5925159999999999,2.8382377999999995,1005.0438,8.630032516143393,1005.0203068374302,1,1
6.34,11.891324000000001,1.5696601000000001,2.4405472,1005.0061599999999,8.652974012274719,1005.0202951705368,1,1
6.359999999999999,11.169572,2.098748,2.1943580000000003,1005.0061599999999,8.66615247756749,1005.020233975056,1,1
6.38,12.302382000000001,3.5716143,2.3411242999999997,1005.0213,8.673665609539777,1005.0201837404187,1,1
6.4,14.424612,3.0615928,3.870337,1004.98596,8.680765990328421,1005.020016147628,1,1
6.42,14.983848000000002,1.0787052,4.017103,1005.0011599999999,8.688110127733259,1005.0198001805064,1,1
6.44,15.581320000000002,-1.4952356000000002,4.3816524,1005.0085,8.697106770362918,1005.0195686713083,1,1
6.46,16.078415,-4.374236,4.660981700000002,1005.0010000000001,8.709709047004646,1005.0192972625638,1,1
6.48,17.196468,-7.491553999999999,5.906091,1005.0087,8.73036301293576,1005.019019295652,1,1
6.5,18.955417999999998,-8.816656,6.469484,1005.01624,8.762667928329456,1005.0187636786244,1,1
6.52,18.15717,-8.692725,6.3369193,1005.0210599999999,8.803531970155893,1005.0185460821756,1,1
6.539999999999999,15.958444,-7.906243300000001,6.033915,1005.0438,8.847030010312897,1005.0184447280577,1,1
6.56,13.879209,-7.901476,4.755624299999999,1005.0612,8.888250597116086,1005.0185090905384,1,1
6.579999999999999,12.258838,-7.377154400000001,4.116478,1005.04865,8.923619138909437,1005.0186744685001,1,1
6.6,9.534329,-7.462950999999999,4.1874924,1005.0256,8.94937392602392,1005.0188455283804,1,1
6.619999999999999,6.159771,-7.358086599999999,3.0464993,1005.0184300000001,8.960839132357846,1005.0189951809883,1,1
6.64,2.842568,-7.20079,1.6356447,1005.0108,8.955156491289163,1005.0190979113813,1,1
6.6599999999999975,1.9057072,-7.791842999999999,0.5419956,1005.00085,8.934607145455871,1005.0191229914757,1,1
6.68,2.9046682999999995,-7.972972,0.42363378,1005.0083,8.90194410831249,1005.0191061894777,1,1
6.6999999999999975,5.2180743,-8.392428,0.80711883,1004.9830300000001,8.861644552514608,1005.01896146895,1,1
6.72,8.449203500000001,-7.9968033,1.1716663,1004.9959,8.818436007176961,1005.0187505726036,1,1
6.7399999999999975,12.086616000000001,-6.4190726,0.84972507,1004.9981,8.777009958956974,1005.0184898825308,1,1
6.76,14.777626000000001,-5.7660537000000005,-0.20604895,1005.0059,8.741781474273807,1005.0182142132053,1,1
6.779999999999999,17.11971,-7.153121499999999,0.09695123,1005.0056,8.717747502497254,1005.0179252206217,1,1
6.8,19.32796,-7.014891,1.6214277,1005.0004,8.707996314950213,1005.0176067759802,1,1
6.819999999999999,18.520155,-5.275097,0.55618507,1005.0134,8.708072492866789,1005.0173102539018,1,1
6.84,16.952360000000002,-3.125379,2.307913,1005.0076,8.71293905514421,1005.0170132900791,1,1
6.859999999999999,15.107338,-1.6620457999999998,3.0086033,1005.0179400000001,8.718075016807973,1005.0167542290013,1,1
6.88,13.362693,-1.4475503,1.6687651000000001,1005.02515,8.719378896492751,1005.0165555474084,1,1
6.9,11.684961,-0.27021044,1.209526,1004.99475,8.713564198838391,1005.0163014923822,1,1
6.92,11.531989,0.9881610000000001,2.1753428,1005.0278300000001,8.701535325668733,1005.0161185119883,1,1
6.94,12.435353,2.6135576,2.113794,1004.9998,8.686355085315673,1005.0158980838693,1,1
6.96,13.921854000000002,4.6441107000000015,2.7908123,1005.0278300000001,8.67272112341711,1005.0157462684816,1,1
6.98,14.806907,3.433386,4.561552,1004.99475,8.662436453124842,1005.0155365378383,1,1
7.0,13.669325,0.08726307,4.3863797,1005.00006,8.652002797238739,1005.0152955043055,1,1
7.02,14.2333555,-2.4485455000000003,4.2396145,1004.99725,8.642921086493352,1005.0150175632607,1,1
7.039999999999999,15.576493,-3.9404779999999997,4.9403076,1004.98193,8.638719975000129,1005.0146528593256,1,1
7.06,16.89095,-6.385722,5.88719,1004.9798,8.643385050984618,1005.0142051366347,1,1
7.079999999999999,17.627052,-8.206547,6.8388057,1004.967,8.659230907753212,1005.0136395903737,1,1
7.1,17.904297,-8.397209,6.81987,1004.9848599999999,8.68553755777279,1005.0130362671716,1,1
7.119999999999999,15.619561,-8.073084,6.3369617,1004.9998,8.716359855299133,1005.0124555202287,1,1
7.14,13.167535,-7.5296974,5.3380035999999995,1004.9971,8.745637724465034,1005.0118870923571,1,1
7.1599999999999975,11.604549,-6.938644,3.7330413,1005.0169999999999,8.769177126179496,1005.0114032359572,1,1
7.18,10.543447500000001,-6.657417999999999,3.3968997000000005,1005.01215,8.785269103338003,1005.0109783887928,1,1
7.1999999999999975,8.244374,-6.414324,2.9566014,1004.98694,8.790424970360446,1005.0105164556387,1,1
7.22,6.385041999999999,-6.1616964,2.3979428,1005.012,8.782439533180911,1005.0101136322636,1,1
7.2399999999999975,4.172005,-6.5859203,1.5836259,1004.95154,8.760301735605019,1005.0095468324527,1,1
7.26,2.4608482999999994,-6.981545,0.15857129,1004.9719,8.724593132081832,1005.0089104795436,1,1
7.2799999999999985,3.2160697,-7.5439987,0.6178097,1004.98694,8.67872605789049,1005.0082691043865,1,1
7.3,5.706359,-8.23515,0.47104427,1004.97406,8.627801586347843,1005.0075792325218,1,1
7.3199999999999985,8.827584,-7.0244446,-1.2901533,1004.99445,8.575345335986258,1005.0069223965053,1,1
7.34,12.202138,-5.1464214,-1.6499669999999995,1004.99194,8.525861683073172,1005.0062880795732,1,1
7.3599999999999985,14.625511,-6.2045975,-1.0534308000000001,1004.97144,8.48453822670198,1005.0056021440461,1,1
7.38,17.249636,-9.750916,1.7351348000000002,1004.9916400000001,8.45882258155898,1005.0049457876953,1,1
7.399999999999999,20.026712,-8.697507,2.3364055,1005.01416,8.451288308871524,1005.0043990023883,1,1
7.42,18.922592,-5.351385,3.0323641,1005.0187400000001,8.455561861483659,1005.0039674904823,1,1
7.439999999999999,17.794569,-1.6477703999999995,4.381671,1005.04675,8.467141681061504,1005.0037402235963,1,1
7.46,15.462039,-0.18920420000000002,3.1459923,1005.0165400000001,8.47968996862231,1005.0035854897712,1,1
7.479999999999999,12.598369,-0.66107947,0.8497538,1004.99866,8.486531409893542,1005.0034310352,1,1
7.5,11.035363,0.43046224,0.6793143,1005.02655,8.48502239264552,1005.0033777874139,1,1
7.52,10.891958,2.1178236,1.3042548,1004.99835,8.476364200772334,1005.003312637636,1,1
7.539999999999999,11.279113,2.8471072,1.4084107,1004.9985,8.462554007088409,1005.0032377457962,1,1
7.56,13.057189,2.5754137000000004,2.9518259,1005.02875,8.448220070802744,1005.003263415482,1,1
7.579999999999999,13.946223000000002,0.120637186,4.149629,1005.0033599999999,8.43538466294936,1005.0032864449206,1,1
7.6,14.916513,-2.8584604,3.8229542000000003,1005.0159,8.426228096689151,1005.0033522025308,1,1
7.619999999999999,15.800767,-5.0034113,4.4810357000000005,1005.0335,8.423488240757116,1005.003518838026,1,1
7.64,15.418373,-5.146408,5.281149,1004.98553,8.42626572250922,1005.0036013173327,1,1
7.6599999999999975,14.949942000000002,-6.2760815999999995,5.7214480000000005,1004.96265,8.434121880677157,1005.0035267713057,1,1
7.68,15.652565,-7.520152,5.574681,1005.0155599999999,8.44860816465175,1005.0035042220593,1,1
7.6999999999999975,15.614315,-9.083583,4.4336886,1005.01276,8.469653518594924,1005.003517618346,1,1
7.72,12.540891,-8.225603,3.089116,1005.0155599999999,8.489585177847376,1005.003572807879,1,1
7.7399999999999975,10.992225,-6.6383386,3.0796466000000002,1005.01276,8.504081050876279,1005.003654647242,1,1
7.76,9.022936,-5.2322044000000005,2.9281445,1005.01025,8.508791789418906,1005.0037507037728,1,1
7.7799999999999985,8.023946,-4.4075894,2.7245646,1005.01526,8.502175256231794,1005.0038770127901,1,1
7.8,7.373882000000001,-4.7698474000000015,2.8381891,1005.0050699999999,8.484903899870153,1005.0039929141915,1,1
7.8199999999999985,5.7821975,-5.098739599999999,2.6251402,1004.9946,8.456023952479713,1005.0040615101786,1,1
7.84,4.582457499999999,-5.036775,1.4699444,1005.0101,8.414543040859398,1005.0041438601564,1,1
7.8599999999999985,4.539429,-5.5324965,-0.5800538000000001,1005.00226,8.362521356782446,1005.0042098427002,1,1
7.88,6.092855,-6.06635,-1.2049961999999999,1004.96967,8.304494923614088,1005.004143801442,1,1
7.899999999999999,6.006808299999999,-6.028218,0.16324586,1004.9973,8.241017671659986,1005.0040608097013,0,0
7.92,8.89858,-4.9080763,0.21532337,1005.0047599999999,8.176388356289571,1005.003989995284,0,0
7.939999999999999,11.752113,-2.8536900000000003,-0.9777475,1005.0096,8.115065034053568,1005.003947619682,0,0
7.96,15.595065,-3.2016482,0.5277923000000001,1005.0196,8.064773455965097,1005.0039665251692,0,0
7.979999999999999,17.575283,0.96905506,-0.67935467,1005.0169999999999,8.027914896427951,1005.0040301505674,0,0
8.0,16.69584,1.9795641,2.767296,1005.01685,8.001861085407128,1005.0041325214266,0,0
8.02,14.841320000000001,3.3713976999999997,4.3533254,1005.0372,7.982934857940799,1005.004342019241,0,0
8.04,13.249689000000002,3.3952297999999996,1.8488292000000002,1005.04926,7.9661603582830045,1005.0046888362403,0,0
8.059999999999999,11.897049,2.6754782,1.1434066999999999,1005.01666,7.948116530106693,1005.0050383799307,0,0
8.08,10.840753999999999,0.6592236,0.26281145,1005.02435,7.926140097600918,1005.0054167585677,0,0
8.1,10.955517,-2.1053805,1.5695115,1005.03156,7.901603244220599,1005.0058452096004,0,0
8.12,10.946000999999999,-2.3675422999999998,2.4359117,1005.039,7.875297890146882,1005.0063431461784,0,0
8.139999999999999,9.884927000000001,-2.4914737000000002,2.2891487999999995,1005.0111699999999,7.845419039891263,1005.0068004996124,0,0
8.16,8.360216000000001,-2.5248406,1.0866143999999998,1005.0261,7.809066070559602,1005.0072740953084,0,0
8.18,8.2264185,-2.5343747000000003,0.50902027,1005.0388,7.766754516625963,1005.0078060577217,0,0
8.2,7.982697,-3.6354506,0.88777727,1005.0184300000001,7.719732159352803,1005.0083143459027,0,0
8.219999999999999,8.250408,-3.7784480000000014,1.5505977,1005.0183,7.669526459905679,1005.0087994176939,0,0
8.24,8.981763,-3.5782542,1.8488692999999998,1005.0208,7.61801371754022,1005.0092712292253,0,0
8.26,9.354631,-3.2684287999999997,1.9956398000000002,1005.0309,7.566081566182309,1005.0097659854688,0,0
8.28,9.321214999999999,-2.9824362,1.8725490000000002,1004.99835,7.513666742547412,1005.010162054538,0,0
8.299999999999999,9.254342999999999,-2.9681377,1.7210522000000001,1005.0359,7.460817985016186,1005.0106046777713,0,0
8.32,9.096655,-2.8060763,1.0677086,1005.003,7.4071721020106684,1005.01096840282,0,0
8.34,9.192293,-2.5105505,0.5090528,1005.0105,7.3529385967054655,1005.0112881040229,0,0
8.36,9.154097,-2.6630814,0.49011904,1005.0305,7.298388672259366,1005.0116397548317,0,0
8.379999999999999,9.216277999999999,-2.5772846,0.7694529999999999,1005.0274699999999,7.243868925918263,1005.0120074623686,0,0
8.4,9.536572,-2.367557,0.9588334999999999,1005.03796,7.1901374439535495,1005.0124257978838,0,0
8.42,9.680005,-2.3198925999999997,1.1860883999999998,1005.0050699999999,7.137611406283401,1005.0127689582724,0,0
8.44,9.637033,-2.1053987000000003,1.342328,1005.0222,7.086195591743749,1005.0131061265423,0,0
8.459999999999999,9.584501,-1.8480058000000001,1.3233945,1005.0455300000001,7.035727816861219,1005.0135207743699,0,0
8.48,9.593327,-1.8718203999999998,1.2097015,1005.025,6.986276233140688,1005.0139284824028,0,0
8.5,9.61246,-2.0291173,1.5505801000000001,1005.0376,6.9381023922304275,1005.0143739506841,0,0
8.52,9.741528500000001,-2.0863163,1.5837222,1005.012,6.89152535596547,1005.0147590202344,0,0
8.54,9.703304,-1.9671523999999998,1.4227536,1005.0221,6.846349995424746,1005.0151256952166,0,0
8.559999999999999,9.583822,-2.2007142999999996,1.4038173,1005.0498,6.802431435213264,1005.0155745167281,0,0
8.58,9.521697999999999,-2.2960458,1.3612088,1005.0422,6.759689630713408,1005.0160669471553,0,0
8.6,9.416557000000001,-2.1149169999999997,1.0771458999999999,1005.012,6.717772146262897,1005.0164874176711,0,0
8.62,9.392671,-1.9719206999999999,1.2002416,1005.0419300000001,6.676653153151465,1005.016950538715,0,0
8.639999999999999,9.516959,-1.9862203999999999,1.14343,1005.0194,6.636630566065754,1005.0173685705303,0,0
8.66,9.679487,-1.9480883999999998,1.3422763,1005.0165,6.598085349897658,1005.017734816588,0,0
8.68,9.603023,-1.900423,1.4748408000000002,1005.0316,6.560849908798598,1005.0181083462653,0,0
8.7,9.397506,-1.9433223999999998,1.3564821000000002,1005.03156,6.524473499573878,1005.0184868230414,0,0
8.719999999999999,9.235006,-2.1530514,1.4985155000000001,1005.04645,6.488797130328902,1005.018921912558,0,0
8.74,9.364074,-2.2531494999999997,1.5174543,1005.0338,6.4541791064496286,1005.0193599187694,0,0
8.76,9.450125,-2.162585,1.5032523000000002,1005.01855,6.420745839736072,1005.0197440253503,0,0
8.78,9.536176,-2.1721187,1.5600665,1005.0413,6.388674738691278,1005.020161023434,0,0
8.799999999999997,9.478831,-2.215018,1.5174581,1005.0211,6.3578139882226266,1005.0205328632562,0,0
8.82,9.5601015,-2.1768857999999995,1.4133023,1005.05865,6.328246843625656,1005.0209986426156,0,0
8.84,9.545776,-2.072022,1.3517563,1005.0863,6.299835649879229,1005.0216452901441,0,0
8.86,9.579249,-2.1244544999999997,1.3517576,1005.0283,6.272638589054212,1005.0222406248556,0,0
8.879999999999997,9.502786,-2.219786,1.2191956,1005.0534,6.246466332339658,1005.0228788363572,0,0
8.9,9.4789,-2.3055842,1.2334001,1005.0509,6.22129061159485,1005.0235436362292,0,0
8.92,9.507592,-2.2293196,1.1434475,1005.0656,6.197084488246246,1005.0242824563057,0,0
8.94,9.526725,-2.4152157,1.2665434,1005.0456,6.173982721057682,1005.0250120208824,0,0
8.959999999999997,9.617556,-2.2388535,1.3659671999999998,1005.05304,6.152063292271053,1005.0257575648676,0,0
8.98,9.627578999999999,-2.172133,1.2949936000000002,1005.0355,6.131237205455856,1005.026451400299,0,0
9.0,9.412517,-2.1483011000000003,1.3186681,1005.0807,6.1110157739989726,1005.0272597682452,0,0
9.02,9.369534,-2.1769013,1.3802186,1005.0401,6.091346146941169,1005.0280202669968,0,0
9.04,9.374345,-2.2627,1.3660184,1005.08014,6.072281061326621,1005.0288798747324,0,0
9.06,9.345697999999999,-2.3866313,1.503319,1005.07465,6.05386502531076,1005.0298041965787,0,0
9.08,9.388746000000001,-2.2817676,1.3044767,1005.0676,6.0360630752861955,1005.0307569922543,0,0
9.1,9.383997,-2.3056014,1.2145258999999995,1005.0622599999999,6.018845805937692,1005.0317122933412,0,0
9.12,9.398367,-2.3342016,1.266607,1005.05225,6.002263812366786,1005.0326303331257,0,0
9.14,9.546571,-2.2627040000000003,1.3186883,1005.06476,5.986579084588421,1005.0335571798797,0,0
9.16,9.61352,-2.1006415,1.2050655000000001,1005.06213,5.971773948025136,1005.0344790038243,0,0
9.18,9.503617,-2.138775,1.3186942,1005.0897,5.9576253473790075,1005.0354923230476,0,0
9.2,9.556225999999999,-2.1340091,1.2760874,1005.0768400000001,5.944199755367645,1005.0365365435506,0,0
9.22,9.537138,-2.1292431,1.271356,1005.087,5.9314195394553435,1005.0376408852303,0,0
9.24,9.575407,-2.2102754,1.1908739,1005.0669,5.919348695638379,1005.0387220143516,0,0
9.26,9.403364999999999,-2.3485062,1.2240175,1005.0745,5.907678112243789,1005.0398061007917,0,0
9.28,9.32214,-2.5916016,1.3329116,1005.05945,5.8963987843430745,1005.0408347176068,0,0
9.3,9.322171,-2.5010376,1.3471178,1005.07916,5.885460764535367,1005.0418815744417,0,0
9.32,9.546854,-2.3056097,1.3139798999999999,1005.04846,5.875203376201122,1005.0428302594728,0,0
9.34,9.413049,-2.2817776000000003,1.4276084,1005.0735,5.865337981921474,1005.0437789286322,0,0
9.36,9.355721,-2.3532767000000003,1.252438,1005.05365,5.855725189422484,1005.0446527085584,0,0
9.38,9.174122,-2.7203022999999997,1.460755,1005.071,5.846269784191746,1005.0455196307504,0,0
9.4,9.107235000000001,-2.7012367000000004,1.5223049,1005.0259,5.8368644452088425,1005.0462150125284,0,0
9.42,9.26022,-2.7012377,1.3471348,1005.05835,5.8277849087622275,1005.0468731378224,0,0
9.44,9.351068,-2.5248758999999996,1.2051055,1005.0506,5.819069277451399,1005.0474680740359,0,0
9.46,9.413238,-2.5391765,1.2145773000000002,1005.0708,5.810840485248143,1005.048077754608,0,0
9.48,9.490483,-2.6202266,1.0536778999999998,1005.0456,5.803230945692541,1005.0486075484447,0,0
9.5,9.567021,-2.6249947999999996,1.0868243,1005.0707,5.7963584901725484,1005.0491552071044,0,0
9.52,9.519283,-2.9300558999999997,1.110502,1005.0531599999999,5.790248884888872,1005.0496535355504,0,0
9.54,9.600597,-2.8871583999999997,0.99214715,1005.0704,5.784944579144219,1005.0501685458372,0,0
9.56,9.887450999999999,-2.5249014,0.9495434000000001,1005.06287,5.780733680205684,1005.050669334162,0,0
9.58,9.882724000000001,-2.2389095,0.92114186,1005.0503,5.77735050918278,1005.0511105011225,0,0
9.6,9.3713455,-2.4581726,0.9448194,1005.0779,5.773795127184441,1005.0515967584448,0,0
9.62,8.926889,-2.9586627,1.2241552,1005.0829,5.769579541526282,1005.0521391070844,0,0
9.64,8.616261999999999,-3.335222,1.3472552,1005.0956,5.764490665184679,1005.052774785557,0,0
9.66,9.084744,-2.901467,1.2762448,1005.055,5.759240595196895,1005.0533444818273,0,0
9.68,9.538878,-2.429579,1.2904528,1005.05,5.754502608786515,1005.0538358253169,0,0
9.7,10.00736,-2.005357,1.1105511000000001,1005.0675699999999,5.750938536618331,1005.0543194194536,0,0
9.72,10.126913,-1.8337623,1.0916187,1005.052,5.748596627303014,1005.0547383733225,0,0
9.74,9.620318,-2.2341547000000004,1.1389687,1005.0518,5.74649599366762,1005.055097982817,0,0
9.76,9.33837,-2.5106165000000003,0.9022541,1005.0700699999999,5.744138444207572,1005.0554696330282,0,0
9.78,9.161571499999999,-2.6917472,1.1389791,1005.0751,5.7413639454409005,1005.055868692476,0,0
9.8,9.152077,-2.7298810000000002,1.0585002000000001,1005.04944,5.738215452604358,1005.0561981581112,0,0
9.82,9.156917,-2.744182,0.9874896999999999,1005.0772,5.734750170562527,1005.0565648805772,0,0
9.84,9.128299,-2.8299818,1.2715595,1005.0618,5.731081871589828,1005.0569077629781,0,0
9.86,9.319545,-2.8871818,0.94489044,1005.0769,5.727582097650258,1005.0572827059207,0,0
9.88,9.410425,-2.8204512999999998,0.8265363000000001,1005.04663,5.724361350382979,1005.0575756557636,0,0
9.9,9.314886,-2.6536232999999996,0.59929013,1005.0592,5.721077220013188,1005.057840353884,0,0
9.92,9.324511,-2.6250255,0.43359184,1005.0693,5.717733619231975,1005.0581154958693,0,0
9.94,9.338907,-2.7298913,0.8691622999999999,1005.05396,5.714498748454377,1005.058343651542,0,0
9.96,9.386766,-2.6107287,0.8312925999999999,1005.0565,5.711392373657922,1005.0585386127492,0,0
9.98,9.471319,-2.5391939999999997,0.93531376,1005.0790400000001,5.708560010430047,1005.0587846854658,0,0
10.0,9.528677,-2.5296612,1.0063298,1005.0741,5.706104010954809,1005.0590572504506,0,0
10.02,9.5669155,-2.3866644,0.8785009,1005.0584,5.703966978655897,1005.0592957227693,0,0
10.04,9.562136,-2.3103995,0.8879697,1005.0687,5.702073979977183,1005.0595402923084,0,0
10.06,9.543016,-2.3437653,0.87376654,1005.0685,5.700378681574048,1005.0597886489007,0,0
10.08,9.452200999999999,-2.4152637,0.8974385,1005.04803,5.6987222245719895,1005.0599657656496,0,0
10.1,9.552576,-2.3628316000000003,0.89270407,1005.0731,5.697280182844424,1005.0601695492528,0,0
10.12,9.495218,-2.3342322999999996,0.8879697,1005.06104,5.695902451607639,1005.0603527460672,0,0
10.14,9.394842,-2.2961,0.95425135,1005.05804,5.69437898649433,1005.0605062928863,0,0
10.16,9.452200999999999,-2.1674027000000002,0.95425135,1005.0576,5.692786337051957,1005.0606315042016,0,0
10.18,9.437861,-2.2055352000000004,1.1010178,1005.0555400000001,5.691159343511937,1005.0607238115043,0,0
10.2,9.562136,-2.1292703,1.2288468000000001,1005.05304,5.68975443219113,1005.060777712516,0,0
10.22,9.652951,-2.162636,0.81221926,1005.0450400000001,5.6886597645324635,1005.0607686836847,0,0
10.24,9.480879,-2.42003,0.973189,1005.0501,5.687651145746334,1005.060722298548,0,0
10.26,9.509558,-2.2818002999999996,0.68912464,1005.0475,5.686661064361947,1005.0606337123667,0,0
10.28,9.471319,-2.4152637,0.83589125,1005.0576,5.68570416222783,1005.060544516252,0,0
10.3,9.380503,-2.4915287,0.8027504,1005.05505,5.684632009298482,1005.0604459223068,0,0
10.32,9.385282499999999,-2.5058284,0.7506719000000001,1005.0826400000001,5.683470442331513,1005.0604387033763,0,0
10.34,9.351824,-2.6011592999999995,0.8879697,1005.0549,5.682243106678718,1005.0604123853973,0,0
10.36,9.380503,-2.3961973,0.8548289000000001,1005.0475,5.68090390785688,1005.0603426462436,0,0
10.38,9.495218,-2.3199327000000003,0.82642245,1005.04706,5.6796577819660286,1005.0602332072008,0,0
10.4,9.44742,-2.3103995,0.95425135,1005.0622599999999,5.678421753284347,1005.0601438033168,0,0
10.42,9.499998,-2.3437653,1.0015954,1005.04706,5.677330968778431,1005.0600177043527,0,0
10.44,9.490438000000001,-2.248434,0.8690321,1005.04474,5.676280606457842,1005.0598512835727,0,0
10.46,9.519117,-2.2103015999999998,0.8595633,1005.0417,5.675307785813406,1005.0596388895503,0,0
10.48,9.68641,-2.1292703,0.71753114,1005.0442,5.674684478025812,1005.05939563819,0,0
10.5,9.533457,-2.110204,0.94951695,1005.0567,5.674095116953773,1005.0591709969904,0,0
10.52,9.629053,-2.110204,0.7506719000000001,1005.0392,5.673695504652346,1005.0589006084372,0,0
10.54,9.44742,-2.4295633,1.0063298,1005.0642,5.673299719521128,1005.0586807709213,0,0
10.56,9.428301,-2.367598,0.9021728999999999,1005.0439,5.67281772695886,1005.0584333117171,0,0
10.58,9.404402000000001,-2.3437653,0.8500945,1005.02124,5.672191600189708,1005.0580807608417,0,0
10.6,9.485659,-2.3723647999999997,0.72226554,1005.0588,5.671596659989308,1005.0577718361494,0,0
10.62,9.466539,-2.453396,0.84062564,1005.0512,5.671054051968852,1005.0574752116812,0,0
10.64,9.581255,-2.3199327000000003,0.7885472,1005.0385,5.670713972679093,1005.0571448035388,0,0
10.66,9.495218,-2.3723647999999997,0.8690321,1005.0362,5.670421042986519,1005.0567774536116,0,0
10.68,9.538236999999999,-2.229368,0.8879697,1005.069,5.670191342122744,1005.0564968643828,0,0
10.7,9.576474000000001,-2.0911376,0.65124947,1005.08105,5.669993946490918,1005.0563373270287,0,0
10.72,9.523897,-2.2341344,0.84062564,1005.0713,5.6698148846369465,1005.0562502254453,0,0
10.74,9.495218,-2.2865665,1.0300018,1005.07104,5.669657517704589,1005.0562265056743,0,0
10.76,9.423522,-2.2007685,0.93531376,1005.07355,5.66931489177735,1005.0562679114644,0,0
10.78,9.46176,-2.248434,0.9069073000000001,1005.06854,5.6689038518587935,1005.0563486771392,0,0
10.8,9.399622,-2.1483364,0.9779234,1005.0836,5.6682759437946615,1005.0565181464516,0,0
10.82,9.515215,-2.1817236,0.81229967,1005.0429,5.667675663866756,1005.0566188642086,0,0
10.84,9.443543,-2.3628535,0.9306620999999999,1005.0455300000001,5.667066986617832,1005.056667938508,0,0
10.86,9.4196615,-2.2722895,0.8785851,1005.0906,5.666350324693557,1005.0568334559804,0,0
10.88,9.367109,-2.291356,0.81704026,1005.06573,5.665433234940777,1005.0570117347772,0,0
10.9,9.429265,-2.3437889,0.88332355,1005.0651,5.664505344254798,1005.057198379677,0,0
10.92,9.443627000000001,-2.3676221,1.0206234,1005.0400400000001,5.663639812923916,1005.0573015289436,0,0
10.94,9.58704,-2.2722917000000002,1.0111562,1005.0726300000001,5.663071828958199,1005.0574478541313,0,0
10.96,9.529703999999999,-2.1292953,0.83125085,1005.0751,5.6625518315312195,1005.0576406947922,0,0
10.98,9.438903999999999,-2.2913585,0.94961244,1005.07245,5.6619916121997775,1005.0578644022992,0,0
11.0,9.415025,-2.2579935,0.8785982,1005.06995,5.661319789852567,1005.0581055784036,0,0
11.02,9.510647,-2.3533251,0.9543510000000001,1005.0574,5.660805468945438,1005.0583161415276,0,0
11.04,9.615824,-2.219862,0.9448841999999998,1005.0374,5.660577691036625,1005.0584268969943,0,0
11.06,9.6540785,-2.1006985,0.78865033,1005.0424,5.660598834747187,1005.0584670636957,0,0
11.08,9.534602,-2.2865946,0.86913705,1005.0674,5.660698486953253,1005.0585347135634,0,0
11.1,9.439028,-2.2532294,0.8975453000000001,1005.0419999999999,5.660663998062402,1005.0585349640178,0,0
11.12,9.611127,-2.262763,0.8454693000000001,1005.0595,5.660852741990983,1005.0585386594487,0,0
11.14,9.501205,-2.2722964,1.0348468000000002,1005.03925,5.6610588405214015,1005.0584724855576,0,0
11.16,9.53469,-2.1578999,0.9070201999999999,1005.06195,5.6612670868325,1005.0584265333597,0,0
11.18,9.448673,-2.2961304,0.90228766,1005.05426,5.661367611357198,1005.0583709304767,0,0
11.2,9.482154,-2.3342633,0.9496338,1005.04675,5.661467939502125,1005.0582799644203,0,0
11.22,9.496507000000001,-2.2865982000000002,0.8502124,1005.0519400000001,5.661554298039857,1005.0581767629407,0,0
11.24,9.482189,-2.348564,0.8502145000000001,1005.0616,5.661629643686488,1005.0580978977667,0,0
11.26,9.477436,-2.3437982,0.9164985000000001,1005.0690300000001,5.661695477459262,1005.0580675680674,0,0
11.28,9.439218499999999,-2.329499,0.8312811,1005.0309,5.661652940363586,1005.0579429654996,0,0
11.3,9.448797,-2.410531,0.88336134,1005.0361,5.661584365829668,1005.0577542319947,0,0
11.32,9.501444000000001,-2.2913685,0.82182044,1005.0641,5.661528285806156,1005.057610311835,0,0
11.34,9.458446499999999,-2.2866027,0.86916643,1005.0585,5.661403083965269,1005.0574863468593,0,0
11.36,9.515827,-2.329502,0.746074,1005.0310000000001,5.661332658447863,1005.0572814605578,0,0
11.38,9.506283999999999,-2.248471,0.69399697,1005.0486,5.661244408668994,1005.0570691697638,0,0
11.4,9.511086,-2.3914682999999997,0.7650151999999999,1005.06104,5.6612316193769905,1005.0568958846072,0,0
11.42,9.405961,-2.3628697,0.94492525,1005.05835,5.66109268625834,1005.0567480046582,0,0
11.44,9.391642,-2.1960409,0.8076293999999999,1005.0706,5.660706852308241,1005.0566672051184,0,0
11.46,9.396445,-2.305672,0.86444443,1005.06573,5.66017699510722,1005.0566284367067,0,0
11.48,9.439486,-2.3152056,0.8833839,1005.0632300000001,5.659616553857473,1005.056617946566,0,0
11.5,9.520764,-2.2770736,0.8076356,1005.0606,5.659162493804292,1005.05662301287,0,0
11.52,9.5207815,-2.215109,0.8029028,1005.0632300000001,5.658773822936678,1005.0566512746096,0,0
11.54,9.535146000000001,-2.1769772,0.7887018,1005.05286,5.658453190416247,1005.0566625980944,0,0
11.56,9.492153,-2.3199744,0.79817295,1005.0682400000001,5.658176882244956,1005.0567142821724,0,0
11.58,9.458715,-2.3056753,0.86445653,1005.0579,5.657878138498245,1005.056764218808,0,0
11.6,9.501758,-2.3438084,0.8739276,1005.04474,5.657667740507196,1005.0567650556312,0,0
11.62,9.516114,-2.3009098,0.76030344,1005.06744,5.657524321256602,1005.0568042248482,0,0
11.64,9.477903999999999,-2.2484783999999998,0.77450925,1005.06,5.657340612205868,1005.0568503395588,0,0
11.66,9.501819,-2.2294126,0.7508387,1005.0623,5.657157286892224,1005.0569107052946,0,0
11.68,9.592661999999999,-2.3056781,0.7697788000000001,1005.0495,5.657197675325817,1005.0569373659197,0,0
11.7,9.530548,-2.2437134,0.8313280999999999,1005.0648,5.657291087958388,1005.0569892287308,0,0
11.72,9.602267,-2.1340830000000004,0.8029238000000001,1005.03156,5.6575202759426455,1005.056943509487,0,0
11.74,9.53537,-2.2961468999999997,0.86920726,1005.067,5.657821018757937,1005.0569393153293,0,0
11.76,9.511497,-2.2627813999999997,0.7839904000000001,1005.062,5.658104836706965,1005.0569538278363,0,0
11.78,9.544979,-2.34858,0.86921173,1005.0769,5.658496752353531,1005.0570384573073,0,0
11.8,9.492422999999999,-2.3009150000000003,0.7981978,1005.0415,5.65884110503385,1005.0570572974617,0,0
11.82,9.510771,-2.2389307,0.78392386,1005.06195,5.659146929846583,1005.0570915583506,0,0
11.84,9.496422,-2.319962,0.7933918000000001,1005.082,5.659429440288712,1005.0572115016628,0,0
11.86,9.4629545,-2.362861,0.7839222,1005.0463,5.659642747364288,1005.0572782021668,0,0
11.88,9.458166,-2.324728,0.87387514,1005.0613,5.659781364952067,1005.0573516172047,0,0
11.9,9.486836,-2.3199612999999997,0.9543593,1005.0636599999999,5.65992437191206,1005.0574391969102,0,0
11.92,9.520287,-2.3151946,0.81706065,1005.0588,5.660109942362992,1005.0575214812293,0,0
11.94,9.491598,-2.2532291,0.7791846,1005.0663,5.66023827086658,1005.0576257903207,0,0
11.96,9.591966000000001,-2.372393,0.83599675,1005.0636599999999,5.660585440918497,1005.0577396809892,0,0
11.98,9.439003999999999,-2.2865946,0.83126146,1005.0532,5.6607739498024765,1005.0578239719321,0,0
12.0,9.405536999999999,-2.2293956,0.88333905,1005.0532,5.660736148328238,1005.0578818051104,0,0
12.02,9.438986,-2.31996,0.8549319,1005.07074,5.66060454907842,1005.0579791960083,0,0
12.04,9.510674,-2.3151933999999996,0.8454623,1005.0833,5.660530676774233,1005.0581564055001,0,0
12.06,9.548903,-2.3437927000000003,0.91174316,1005.0933,5.660611301712542,1005.058439504747,0,0
12.08,9.496317999999999,-2.2627606,0.83125746,1005.0601,5.6606680756985535,1005.0586956290248,0,0
12.1,9.45807,-2.3151927000000003,0.7602406999999999,1005.0505400000001,5.660640045477399,1005.0588925801718,0,0
12.12,9.458061,-2.2818264999999998,0.8075839,1005.09045,5.660528740530419,1005.0591802129168,0,0
12.14,9.481953,-2.3151924999999998,0.9354120000000001,1005.0605,5.660432276843013,1005.059439116444,0,0
12.16,9.462825,-2.3390248,0.9969584999999999,1005.0807,5.660335223410247,1005.0597444227813,0,0
12.18,9.438916,-2.3342577999999996,0.88333195,1005.0907,5.660164913412213,1005.0601256315387,0,0
12.2,9.477146000000001,-2.3247247000000004,0.8833312,1005.0852699999999,5.660002606184001,1005.0605529873236,0,0
12.22,9.548834,-2.3104248,0.86912715,1005.0953,5.659982505983289,1005.0610556881404,0,0
12.24,9.505807,-2.37239,0.93540806,1005.11536,5.66004487612216,1005.061695370105,0,0
12.26,9.520138000000001,-2.2389259999999997,0.86912555,1005.0997,5.6601310090583565,1005.0623974097563,0,0
12.28,9.49145,-2.2579919999999998,0.88332796,1005.0923,5.66019175769941,1005.0631253813175,0,0
12.3,9.481883,-2.3390234,0.85018635,1005.067,5.660244018976848,1005.0637825656157,0,0
12.32,9.44962,-2.4486835,0.99706244,1005.0973,5.6603082535072025,1005.0644839164256,0,0
12.34,9.564374,-2.3199875,0.9591908000000001,1005.0445599999999,5.660540469160368,1005.0650319039023,0,0
12.36,9.507052999999999,-2.2627897,0.8550371999999999,1005.09467,5.660757333210365,1005.0656228027824,0,0
12.38,9.473627,-2.3152225,0.8408370000000001,1005.087,5.660915470107572,1005.0662218789428,0,0
12.4,9.449777000000001,-2.4391541,0.89765424,1005.069,5.661046257586812,1005.0667612238741,0,0
12.42,9.531075,-2.3390574,0.99708045,1005.0941,5.661284863422097,1005.0673362086494,0,0
12.44,9.502431,-2.2770932,0.9213333,1005.0843,5.661514738622535,1005.0679053348456,0,0
12.46,9.464232,-2.4343903,0.9781498,1005.1168,5.661749252004576,1005.0685842355472,0,0
12.48,9.440371,-2.3581263999999997,0.8976683000000001,1005.0914300000001,5.661884379678003,1005.0692663569592,0,0
12.5,9.459529,-2.3676605,0.8550621999999999,1005.1092,5.6619665305907,1005.0700128405538,0,0
12.52,9.440449000000001,-2.4057939999999998,0.93555075,1005.0813,5.661997916775582,1005.0707130672321,0,0
12.54,9.383125,-2.3962617,0.72724,1005.10645,5.661827511138455,1005.0714604404828,0,0
12.56,9.440525,-2.2913985,0.71304065,1005.0888,5.6615401555157545,1005.0721832419013,0,0
12.58,9.779931,-1.9911063000000002,0.7887947,1005.0911,5.661713591232767,1005.072890009564,0,0
12.6,9.670034,-2.2914004,1.0633937,1005.0936,5.6622579365660135,1005.0735890654363,0,0
12.62,9.426304,-2.1245717999999996,0.9829125,1005.0886,5.662542108318336,1005.0742607905693,0,0
12.64,9.464578999999999,-2.3247682999999997,0.8030085,1005.1139,5.662733191579301,1005.0749970280507,0,0
12.66,9.474177000000001,-2.3629017000000005,0.88349694,1005.1112,5.662894006017328,1005.0757778981888,0,0
12.68,9.522016,-2.2580385,0.8835006,1005.10065,5.6630724105605195,1005.0765574146087,0,0
12.7,9.545950999999999,-2.2437396,0.5473611999999999,1005.1010000000001,5.663256305784316,1005.0773341886252,0,0
12.72,9.235303,-2.4582355,0.7509442,1005.0907599999999,5.662955878880122,1005.0780688790668,0,0
12.74,9.307039,-2.4296372,0.82196385,1005.10315,5.662369244899651,1005.0788083435766,0,0
12.76,9.393113,-2.1770107999999997,0.48582453,1005.1028,5.661532501603787,1005.0795481043806,0,0
12.78,9.3310175,-2.2628095,0.7935646,1005.11035,5.660435960864858,1005.0803126438514,0,0
12.8,9.450547,-2.1770124,0.9924128000000001,1005.0928,5.659351775454713,1005.0810331454097,0,0
12.82,9.675173,-1.9434505000000002,1.1817868,1005.10785,5.658677828405605,1005.0817663212628,0,0
12.84,9.316725,-2.205612,1.1297116000000005,1005.0852699999999,5.657748825439537,1005.0824267686903,0,0
12.86,9.584431,-2.0816827,0.71782184,1005.0953,5.656999904891472,1005.0830566836698,0,0
12.88,9.498428,-2.2485127,1.0208268,1005.08514,5.65637133874618,1005.0836207764847,0,0
12.9,9.42199,-2.5869392999999996,1.4469268,1005.1028,5.655982445829848,1005.0841882541008,0,0
12.92,9.369447000000001,-2.729937,1.2196786,1005.12036,5.655718892350596,1005.0848198956073,0,0
12.94,9.541557000000001,-2.6822722000000003,1.1249938,1005.0844,5.655858168351459,1005.0853765024182,0,0
12.96,9.4412155,-2.4916107999999997,1.3475139999999999,1005.0894,5.656107535045408,1005.0858828047876,0,0
12.98,9.493833,-2.5440438,1.0776565,1005.0898,5.656517061222463,1005.0863442754641,0,0
13.0,9.388711,-2.4344141,1.03505,1005.1076,5.656789306528277,1005.086828551562,0,0
13.02,9.465225,-2.3200176,1.1202726,1005.0868,5.65705426251312,1005.0872563551367,0,0
13.04,9.235831,-2.6393776,1.375934,1005.0944,5.657091560745587,1005.0876600794968,0,0
13.06,9.001656,-2.9206054,1.7262831000000003,1005.0743,5.656753285430683,1005.0879687140551,0,0
13.08,9.173764,-2.7299442000000003,1.6931456000000005,1005.1044300000001,5.656292594758575,1005.0883006841804,0,0
13.1,9.9290085,-1.9911287,1.357006,1005.0639,5.656758935985522,1005.0885061705195,0,0
13.12,9.819113,-2.1102933999999998,0.7225993,1005.0864,5.657735275447284,1005.0886801560353,0,0
13.14,9.823926,-2.1341271,0.9924636,1005.0991,5.6592265907445345,1005.0888714010753,0,0
13.16,9.704467999999999,-2.0292637,1.0918894,1005.1217,5.660902312410389,1005.0891585681488,0,0
13.18,9.312555,-2.0006652,0.7604841,1005.0938,5.661864149889452,1005.0894290181294,0,0
13.2,8.911091,-1.9815998,0.96406704,1005.1011,5.661410605986091,1005.0897100032672,0,0
13.22,9.642438,-1.8481371,0.97827363,1005.0936,5.661136060958144,1005.0899722857233,0,0
13.24,9.986621000000001,-1.2284857,0.80310404,1005.0885599999999,5.661493153635853,1005.0901989542723,0,0
13.26,9.805024000000001,-1.4811141,1.3665016,1005.11615,5.662232639586861,1005.0904926623674,0,0
13.28,9.427458,-1.9720705000000005,1.8494141,1005.07605,5.662886443932894,1005.0907001892557,0,0
13.3,9.145481,-1.7623427,1.7121191999999998,1005.078,5.6627603545711205,1005.0908378393324,0,0
13.32,9.441044999999999,-2.4201083,1.5984218000000001,1005.0658599999999,5.662790919747733,1005.0908695467191,0,0
13.34,9.541425,-2.115049,1.2954203000000002,1005.0809300000001,5.662922420475613,1005.0908617809973,0,0
13.36,9.899914,-2.510673,1.3664367,1005.068,5.664069212136468,1005.0907726167944,0,0
13.38,9.699164999999999,-2.2246797000000003,1.2054673,1005.1056,5.665525902269391,1005.0907472098841,0,0
13.4,9.641811,-2.3295443,1.4137813,1005.0906,5.667242248293237,1005.0907242303824,0,0
13.42,9.369366000000001,-2.2580459999999998,1.124983,1005.0880000000001,5.668524171504416,1005.0906941184653,0,0
13.44,9.187737,-2.343844,1.049233,1005.0752,5.669078426879088,1005.090611732749,0,0
13.46,9.570126,-2.3390775,1.1439214,1005.08,5.669773705264148,1005.090500734492,0,0
13.48,9.31202,-2.3676767000000005,0.9119360000000001,1005.06,5.670037110740316,1005.0902928537884,0,0
13.5,9.488876,-2.291412,1.0776404,1005.0825,5.6702701397324,1005.0900811161246,0,0
13.52,9.412403,-2.2580464,1.1675944,1005.0755,5.670327307225624,1005.0898415327067,0,0
13.54,9.646618,-2.1484156000000003,1.2954237,1005.0751,5.670681701277617,1005.0895767672812,0,0
13.56,9.565365,-2.0530844,1.0350318,1005.0950300000001,5.671027909516625,1005.089362452189,0,0
13.58,9.656184,-1.9005546999999998,0.74149907,1005.10474,5.671431150983652,1005.0892284425456,0,0
13.6,9.660969,-1.7098925,0.33434066,1005.08966,5.671774167840353,1005.0891115852313,0,0
13.62,9.589275,-1.7909241000000002,0.72256213,1005.0822,5.671989969488164,1005.0889834484019,0,0
13.64,9.465003999999999,-2.148416,0.8267194,1005.07465,5.672007602974192,1005.0888186262849,0,0
13.66,9.335953,-2.2961793,1.2007377000000001,1005.0895,5.6717418975711915,1005.088675442408,0,0
13.68,9.421992,-2.2914128,1.2812229,1005.1225599999999,5.6714180718634974,1005.0886709095416,0,0
13.7,9.747023,-1.881489,0.6468130999999999,1005.08215,5.6713913768127275,1005.0886434290263,0,0
13.72,9.67533,-1.8147575,0.76043916,1005.0872,5.671472214070691,1005.0886139508988,0,0
13.74,9.589297,-1.9482211999999999,0.42429677,1005.0871,5.671483613564254,1005.088582453802,0,0
13.76,9.670557,-2.1627162,0.13549839,1005.087,5.671674656124804,1005.0885489261334,0,0
13.78,9.536727,-2.1388835999999998,-0.12489356,1005.0790400000001,5.671741214611251,1005.0884850689514,0,0
13.8,9.398116,-2.091218,-0.19590925,1005.1066,5.671397256322575,1005.0884938584973,0,0
13.82,9.20275,-2.3962924,-0.011211976,1005.07153,5.67044168717996,1005.0884405550493,0,0
13.84,9.197994,-2.5011572999999996,-0.10589802,1005.10205,5.6689968532459645,1005.0884424501244,0,0
13.86,9.542169,-2.6775205,0.02193363,1005.1120599999999,5.6679108765942825,1005.0885291477923,0,0
13.88,9.719051,-2.4248939,0.002998732,1005.0941,5.6673667494584,1005.08862580892,0,0
13.9,9.656941999999999,-2.0769358,-0.039608363,1005.0941,5.667014147200482,1005.08873092578,0,0
13.92,9.618727999999999,-1.8529083999999998,0.050347567,1005.07355,5.666661316421803,1005.0887691557048,0,0
13.94,9.470581,-1.6765466,0.29180459999999997,1005.1041,5.6659490635937635,1005.0888581267056,0,0
13.96,9.513630000000001,-1.614582,0.3864956,1005.08136,5.664994833084417,1005.0889097482257,0,0
13.98,9.599692,-1.7051471,0.7841878999999999,1005.1036,5.664088034371067,1005.0890082459076,0,0
14.0,9.786131,-1.8958101000000005,0.73211193,1005.071,5.66367012308032,1005.0890304487738,0,0
14.02,9.9152155,-1.8672116,0.52380085,1005.0531,5.663910513951563,1005.0889207176108,0,0
14.04,9.575877,-1.5716857,0.42911530000000003,1005.0885,5.663921941214736,1005.0888222445717,0,0
14.06,9.408610000000001,-1.423923,0.30128875,1005.0757,5.663329945599577,1005.088687993714,0,0
14.08,9.36562,-1.7242168000000002,0.68004364,1005.0782,5.66226248290137,1005.0885316128787,0,0
14.1,9.509041999999999,-1.8481481,0.91676646,1005.0981400000001,5.6611590969943055,1005.0884280249664,0,0
14.12,9.781517,-1.8195491999999998,0.7652679,1005.0757,5.6605443125317105,1005.0882906737972,0,0
14.14,9.681169,-1.8672153999999999,0.5664255,1005.0907,5.660149693079776,1005.0881779838784,0,0
14.16,9.566482,-2.0102131,0.6516473,1005.0882,5.659787359495818,1005.0880784903243,0,0
14.18,9.599967999999999,-1.9673145,0.5569618000000001,1005.0932,5.659492664276183,1005.0880090152543,0,0
14.2,9.676472,-1.7957191000000003,0.33918157,1005.0651,5.659325795711477,1005.0878651546279,0,0
14.22,9.590463,-1.8195526999999998,0.27290243,1005.07275,5.659101694453831,1005.0876836248216,0,0
14.24,9.633509,-1.8624523000000002,0.53329724,1005.08746,5.658954647751348,1005.0875224200355,0,0
14.26,9.762591,-1.5478603000000002,0.17821944,1005.0751300000001,5.659000442208459,1005.0873353667745,0,0
14.28,9.662241999999999,-1.5478610000000002,0.21136266,1005.07745,5.659011899180955,1005.0871344991923,0,0
14.3,9.313343,-1.6241266,0.5806488000000001,1005.1025,5.65833616012096,1005.0870123283996,0,0
14.32,9.447142999999999,-2.115081,0.5901143,1005.0822,5.657528029032908,1005.0868870539052,0,0
14.34,9.480625,-2.229479,0.5285693,1005.0898,5.6567192870844885,1005.0867868479677,0,0
14.36,9.671842999999999,-2.1818137,1.0777625,1005.05176,5.656369578575441,1005.0865722093488,0,0
14.38,9.705328,-1.9053543000000002,0.85998243,1005.05707,5.656332412750898,1005.0862763467113,0,0
14.4,9.51416,-1.8624558,0.4859666,1005.072,5.6561122146078855,1005.0859635276367,0,0
14.42,9.461606,-2.0245194,0.23977971,1005.0743,5.655672543327844,1005.085645132003,0,0
14.44,9.562008,-1.9387221000000001,0.34867334,1005.0693,5.655215222016113,1005.0853049551456,0,0
14.46,9.791462,-1.8052591,0.44809818,1005.0768,5.655167480981048,1005.084973757036,0,0
14.48,9.901423,-1.7909599999999999,0.65641433,1005.0793,5.65572481636399,1005.0846606848613,0,0
14.5,9.84887,-1.7718945,0.5711972,1005.0768,5.6566896622063005,1005.0843557558217,0,0
14.52,9.906252,-1.8910586999999999,0.5096520999999999,1005.0740400000001,5.658166423582792,1005.0840491838015,0,0
14.54,9.523893,-1.9244254,0.6185459,1005.0818,5.659337877964545,1005.083770199703,0,0
14.56,9.366186,-2.0292901999999997,0.6090793999999999,1005.0967,5.659958476065589,1005.0835702366347,0,0
14.58,9.562180999999999,-2.1722877,0.5996128000000001,1005.0662,5.6605500720883395,1005.0833310164154,0,0
14.6,9.495288,-2.1150897,0.7511159000000001,1005.05115,5.660974287175471,1005.0830037897707,0,0
14.62,9.576571000000001,-1.9244276999999999,0.70377433,1005.0838,5.661324683079277,1005.0827175186639,0,0
14.64,9.586157,-1.9673276000000002,0.533338,1005.0863,5.661623420653546,1005.0824774664472,0,0
14.66,9.514483,-2.0149936999999998,0.69904447,1005.05066,5.6617717876265505,1005.0821508134289,0,0
14.68,9.500169,-2.2056568,0.7984691999999999,1005.05585,5.6618592516268755,1005.081767499894,0,0
14.7,9.763083,-2.067427,0.7037835,1005.0859,5.6623475274478245,1005.0814436810547,0,0
14.72,9.777449,-1.8290998,0.43865909999999997,1005.10364,5.663089198285342,1005.0812374614765,0,0
14.74,9.772692999999999,-1.7814348000000002,0.51441175,1005.0581699999999,5.664031957469753,1005.080972202996,0,0
14.76,9.686681,-1.752836,0.6611806,1005.0632300000001,5.6649809212978814,1005.0806739486716,0,0
14.78,9.591109,-1.8577008000000002,0.7606053,1005.0754400000001,5.6657921789901255,1005.0803915689354,0,0
14.8,9.49554,-1.9577993999999999,0.83635825,1005.08325,5.666338234021722,1005.0801523485524,0,0
14.82,9.390407000000002,-1.9149008,0.7890163,1005.0729,5.666408572783206,1005.0799148649672,0,0
14.84,9.3330765,-1.7909709999999999,0.65172094,1005.0729,5.66587041331325,1005.0796797709572,0,0
14.86,9.371338,-1.9768674,0.8363649,1005.07794,5.664980138935579,1005.0794657787147,0,0
14.88,9.519537,-1.9816343999999997,0.8505705,1005.0777,5.664086868808539,1005.079270338366,0,0
14.9,9.443089,-2.024534,0.8269009,1005.0802,5.6630534044842245,1005.0791009940556,0,0
14.92,9.615183,-1.8291057000000002,0.67540205,1005.0677,5.662144792664733,1005.0789103178439,0,0
14.94,9.7490425,-1.7242422999999998,0.6469979,1005.09283,5.661579597641004,1005.0787919471995,0,0
14.96,9.753847,-1.8815393,0.66593784,1005.07495,5.661391584790065,1005.0786735238884,0,0
14.98,9.706077,-1.8767734,0.5475802,1005.0952,5.661423315456093,1005.0786283803644,0,0
15.0,9.510127,-2.0483700000000002,0.7748335999999999,1005.0495,5.661353995498222,1005.0784836293773,0,0
15.02,9.5436125,-1.9530394,0.56178784,1005.0822,5.661192634153631,1005.0783691063392,0,0
15.04,9.557976,-1.9387405,0.713291,1005.0771,5.660994347520439,1005.078263345,0,0
15.06,9.543664,-1.8958423,0.78430957,1005.0952,5.660728884375347,1005.0782308662388,0,0
15.08,9.639282000000001,-1.8815432,0.65648264,1005.062,5.660574229487651,1005.0781437368868,0,0
15.1,9.515034,-1.9816413,0.713298,1005.0795,5.660314809127812,1005.0780716319388,0,0
15.12,9.586753999999999,-2.0054748,0.68015933,1005.0567,5.660114493246911,1005.0779309821313,0,0
15.14,9.701493,-2.1294057,0.90741295,1005.0593,5.660291240857633,1005.077739632426,0,0
15.16,9.773218,-1.9196779999999998,0.57600707,1005.0593,5.660806360104786,1005.0775041731496,0,0
15.18,9.572491000000001,-1.8338804,0.6233534000000001,1005.08185,5.66118187886584,1005.0773117663098,0,0
15.2,9.405221000000001,-2.0483758,0.70857495,1005.0718400000001,5.661194199388912,1005.0771220572673,0,0
15.22,9.4100275,-2.034077,0.6943739999999999,1005.0617,5.660886860497159,1005.0768989109513,0,0
15.24,9.591685,-2.0102448,0.8695494,1005.0588,5.660685203982822,1005.0766365827867,0,0
15.26,9.625167999999999,-1.8481827000000002,0.7843323,1005.07886,5.660564678499755,1005.0764127939227,0,0
15.28,9.615632000000002,-1.8958488000000002,0.7369904,1005.0564,5.660508129992758,1005.0761430080242,0,0
15.3,9.57264,-2.0436127,0.73699284,1005.0888699999999,5.660482622935059,1005.0759504423756,0,0
15.32,9.630021000000001,-1.9196827,0.6044316,1005.0687,5.660530413338763,1005.0757541897757,0,0
15.34,9.53923,-2.000715,0.46240184,1005.0712,5.6604758233119075,1005.0755643858954,0,0
15.36,9.548816,-1.9292171000000002,0.7038588000000001,1005.0736699999999,5.660350510793006,1005.0753898553976,0,0
15.38,9.563181,-1.9339843,0.68492347,1005.06854,5.6601915123567315,1005.07521098077,0,0
15.4,9.582322999999999,-2.0531487,0.793817,1005.086,5.660109575706282,1005.0750917676185,0,0
15.42,9.577569,-1.9482853,0.6943968,1005.0785,5.660026287838023,1005.0749987005144,0,0
15.44,9.601493,-1.8910873,0.6517895,1005.0832,5.659961387039776,1005.0749459910993,0,0
15.46,9.5728445,-2.0150185,0.6233858,1005.081,5.659902214365915,1005.0749212114923,0,0
15.48,9.539405,-2.0531514,0.66599715,1005.06067,5.659802780535789,1005.07484801187,0,0
15.5,9.625466000000001,-1.9768866999999999,0.64706177,1005.08295,5.659807603329214,1005.0748124998413,0,0
15.52,9.592031500000001,-1.938755,0.751221,1005.05804,5.659836222670527,1005.0747207404128,0,0
15.54,9.54904,-1.9053898,0.6802073000000001,1005.08545,5.659773982983888,1005.0746782871167,0,0
15.56,9.601643,-1.9721224,0.7512255999999999,1005.0527,5.659776791391216,1005.0745616535504,0,0
15.58,9.577767,-1.9864224999999998,0.7180869000000001,1005.0804400000001,5.659789439372274,1005.0744797581784,0,0
15.6,9.6208105,-1.9292245,0.68494844,1005.0704300000001,5.659869554784497,1005.0743928162983,0,0
15.62,9.687753,-1.9530578,0.6518099,1005.0675699999999,5.660150168094153,1005.0742914323146,0,0
15.64,9.496587,-1.9006261999999998,0.76543796,1005.05756,5.660214062651316,1005.07414161627,0,0
15.66,9.6304455,-1.9292264,0.5429233,1005.0672599999999,5.660339104093201,1005.0739844649946,0,0
15.68,9.577892,-2.1008227,0.7370361,1005.07745,5.660510384406093,1005.0738580820537,0,0
15.7,9.563578999999999,-1.9911926,0.6612879,1005.0747,5.660634155993607,1005.0737494409917,0,0
15.72,9.597063,-1.8863292,0.6186808000000001,1005.0978,5.660734645233862,1005.0737400277617,0,0
15.74,9.477591,-1.9196953999999997,0.55240107,1005.07214,5.6605763915695215,1005.0737259501317,0,0
15.76,9.501515,-2.0054939999999997,0.7607172,1005.0623,5.6603039614251305,1005.0736723777172,0,0
15.78,9.644933,-2.0626936000000002,0.7181098000000001,1005.0872,5.6602403424655385,1005.0736737405721,0,0
15.8,9.678419,-2.0150285,0.8648788000000001,1005.0972,5.660433320971338,1005.0737596393243,0,0
15.82,9.687339999999999,-1.9196818,0.5712873,1005.0797,5.660786879145618,1005.0738569247608,0,0
15.84,9.5391655,-1.9435146,0.5854904000000001,1005.0721,5.660991117324756,1005.0739365612427,0,0
15.86,9.515265,-1.9482810000000002,0.6375687,1005.0771,5.661022878259651,1005.074018316418,0,0
15.88,9.553502,-1.9292150000000001,0.7227879,1005.0618,5.660984289057515,1005.0740465693518,0,0
15.9,9.5774,-1.9053822,0.68491256,1005.064,5.6609168784617285,1005.0740353659944,0,0
15.92,9.500922000000001,-1.9721137999999998,0.74645966,1005.064,5.660705823267947,1005.07398933939,0,0
15.94,9.582175999999999,-2.1055772,0.72278756,1005.08655,5.660587396784803,1005.0739938886608,0,0
15.96,9.558277,-2.0817444,0.7322563,1005.0686599999999,5.660493751306102,1005.0739787063973,0,0
15.98,9.534377000000001,-1.8863156000000003,0.7322562,1005.0539,5.6602914249137815,1005.0738930080063,0,0
16.0,9.548716,-1.9053817,0.6091615,1005.09656,5.660013065228248,1005.0738988860788,0,0
16.02,9.625191000000001,-1.9101484,0.68491185,1005.08374,5.659836405135964,1005.0739395079539,0,0
16.04,9.682547999999999,-1.8386497,0.67070854,1005.066,5.659836706289005,1005.0739468192144,0,0
16.06,9.59173,-1.7909843999999997,0.7085836999999999,1005.0762300000001,5.659795559399687,1005.0739614988948,0,0
16.08,9.524811,-1.9435141,0.7511932,1005.0639,5.659649045731213,1005.0739382484644,0,0
16.099999999999998,9.577388000000001,-1.9435141,0.5523481,1005.0785,5.659489224055867,1005.0739341266896,0,0
16.12,9.620405,-2.0388450000000002,0.7038489,1005.081,5.659465876364776,1005.0739559218332,0,0
16.14,9.615623,-1.9625804,0.7369897,1005.0939300000001,5.659526338495428,1005.0740470867037,0,0
16.16,9.572604,-1.9768797999999999,0.59969175,1005.071,5.659559791957278,1005.0741166704711,0,0
16.18,9.572602999999999,-1.9816465,0.67544216,1005.0882,5.659581507129762,1005.0742288546741,0,0
16.2,9.601280000000001,-1.8815486000000001,0.61862916,1005.0907,5.65960227594522,1005.074387276759,0,0
16.22,9.5726,-2.0340786,0.793802,1005.08606,5.659653356749928,1005.0745692803172,0,0
16.24,9.505682,-1.9435139,0.86008364,1005.0805,5.659568736959508,1005.0747514492516,0,0
16.259999999999998,9.486562,-2.0388450000000002,0.80800503,1005.091,5.659357008356608,1005.0749709085053,0,0
16.28,9.362286,-2.1484756000000003,0.8222081,1005.08325,5.658834195968713,1005.0751946274307,0,0
16.3,9.524797,-2.081744,0.83167684,1005.1055,5.658338269598628,1005.0755014048146,0,0
16.32,9.669042,-1.905402,0.76073855,1005.09283,5.658074211077584,1005.0758348562538,0,0
16.34,9.592597999999999,-1.9006366999999997,0.7228663000000001,1005.08246,5.657852707294484,1005.0761533444627,0,0
16.36,9.640431,-1.8911042000000002,0.59504056,1005.0978,5.657745277502464,1005.0765126886045,0,0
16.38,9.61178,-1.9101713,0.53823036,1005.07275,5.657681561869122,1005.0768166594087,0,0
16.4,9.607035,-1.9244716,0.6423903,1005.0852699999999,5.657665870963916,1005.0771156800377,0,0
16.419999999999998,9.583165,-2.0150368000000003,0.69920594,1005.0953400000001,5.657690018256139,1005.0774455022173,0,0
16.44,9.559301,-2.0722365000000003,0.74655324,1005.095,5.6577329111138255,1005.0778001292873,0,0
16.46,9.602352,-2.043638,0.71341544,1005.0749,5.657861890460607,1005.0781030373006,0,0
16.48,9.693206,-2.2390678,0.950139,1005.05945,5.658379109914446,1005.078303535887,0,0
16.5,9.698013000000001,-1.9721413,0.8459846,1005.0719,5.659110475857324,1005.0784576437088,0,0
16.52,9.487731,-1.8958771,0.88386244,1005.092,5.659577378421031,1005.0786425658628,0,0
16.54,9.353942,-1.8863449,0.79864734,1005.0795,5.659517992977274,1005.0788090498407,0,0
16.56,9.588182000000002,-1.8672794999999998,0.7513061,1005.092,5.659454278758723,1005.0790036425044,0,0
16.58,9.760289,-1.9006459999999998,0.75604355,1005.107,5.659751037144632,1005.0792763714693,0,0
16.599999999999998,9.755539,-1.8672811999999999,0.67082703,1005.1039999999999,5.6603297776015875,1005.0796063598448,0,0
16.62,9.64086,-1.919714,0.47198528,1005.0719,5.6609190473583375,1005.0798701946784,0,0
16.64,9.478366000000001,-2.1008437,0.60928494,1005.0969,5.661278640016088,1005.0801646264363,0,0
16.66,9.507086,-2.1103777999999997,0.74658644,1005.0989400000001,5.6615162588486685,1005.0804923776824,0,0
16.68,9.607493,-2.0007477,0.76079243,1005.0716,5.661803164525202,1005.080749966124,0,0
16.7,9.488033,-1.9292505000000002,0.7702645,1005.079,5.661861816025671,1005.0809712713926,0,0
16.72,9.607559,-1.9340177,0.62350076,1005.09906,5.661941632896212,1005.0812319361513,0,0
16.74,9.641043,-1.9864504,0.69925356,1005.0966,5.66214018311708,1005.0815175845617,0,0
16.759999999999998,9.669763,-1.8863537000000001,0.7323980999999999,1005.0862400000001,5.662465497543005,1005.0817869841926,0,0
16.78,9.621989,-1.771957,0.5666962,1005.10144,5.662737373974163,1005.0820957765636,0,0
16.8,9.54077,-1.8768221999999999,0.6755909999999999,1005.0609,5.662850633036503,1005.0822923207068,0,0
16.82,9.516175,-1.9483032,0.7276057,1005.0937,5.662810286789227,1005.0825070547572,0,0
16.84,9.630892999999999,-1.9483035,0.70866835,1005.1112,5.662864493354652,1005.0828000883673,0,0
16.86,9.640457000000001,-1.9673698,0.7702159000000001,1005.1012,5.663038938713743,1005.0831252525467,0,0
16.88,9.535305000000001,-1.9244709,0.708669,1005.0934,5.663078096302347,1005.0834495567063,0,0
16.9,9.544868,-1.9864361000000001,0.62818456,1005.0937,5.6630313433825,1005.083773013458,0,0
16.919999999999998,9.592671000000001,-2.0245688000000004,0.66606015,1005.0905,5.663027301413745,1005.0840830369953,0,0
16.94,9.592674,-1.938771,0.72287333,1005.1184,5.663033383822025,1005.0844805148596,0,0
16.96,9.544880000000001,-2.0388686999999996,0.7228737,1005.0855,5.66299361845721,1005.0848353964467,0,0
16.98,9.501866,-2.0293354999999997,0.66606116,1005.1109,5.662813748260361,1005.0852428023903,0,0
17.0,9.597465,-2.1151338,0.7512808000000001,1005.1056,5.662754925927818,1005.0856760721933,0,0
17.02,9.673945,-1.9197049,0.7086715,1005.1281,5.662868870615164,1005.0862116355313,0,0
17.04,9.688289,-1.8958723999999998,0.57610846,1005.0675699999999,5.663136794311298,1005.0866177494086,0,0
17.06,9.621375,-1.8720398,0.5098271,1005.0925,5.663386448901282,1005.0869977677327,0,0
17.08,9.535343,-1.9769039000000002,0.6707972,1005.10504,5.663507110638246,1005.0873985039605,0,0
17.099999999999998,9.592705,-2.1008343999999997,0.8649082,1005.0875,5.663714717211707,1005.0877529598768,0,0
17.12,9.578369,-2.1246674,0.80809575,1005.0802,5.66397000468158,1005.088038966469,0,0
17.14,9.602271,-2.0245697,0.64239186,1005.1075400000001,5.664245673199722,1005.0883618856143,0,0
17.16,9.583155,-2.000737,0.6045169,1005.07745,5.6644844030951305,1005.0886079341832,0,0
17.18,9.55448,-2.0436360000000002,0.6565956999999999,1005.10455,5.664656805712973,1005.0888827341356,0,0
17.2,9.63096,-1.9959706999999998,0.58558,1005.1073,5.664895513742365,1005.0891918495306,0,0
17.22,9.602286,-2.081769,0.74181575,1005.0995,5.665192556948482,1005.0895020932353,0,0
17.24,9.468455,-2.0579362,0.77022254,1005.0998,5.665263141122124,1005.0898132970367,0,0
17.259999999999998,9.468458,-2.1342013,0.7086755,1005.11957,5.665157814071705,1005.0901954008467,0,0
17.28,9.530600999999999,-2.115135,0.7134104,1005.1022,5.665015233823742,1005.0905762443302,0,0
17.3,9.573622,-1.9769048999999999,0.61872256,1005.1072,5.6648540580580455,1005.0909726031523,0,0
17.32,9.574199,-2.0341177,0.69926023,1005.0741,5.664713779548032,1005.0912620844366,0,0
17.34,9.598124,-1.9673865000000001,0.5951057,1005.0966,5.66459849158243,1005.0915370865953,0,0
17.36,9.607711,-2.0388854,0.73240596,1005.0943599999999,5.664574702112947,1005.0917902409908,0,0
17.38,9.588616,-1.9626215,0.7939555,1005.0868,5.66457078994501,1005.0919959633474,0,0
17.4,9.488267,-2.0007544,0.7276763,1005.1092,5.664386213838018,1005.0922396741532,0,0
17.419999999999998,9.497845,-1.9816886999999999,0.6471931,1005.1072,5.6640421617258365,1005.0925088741947,0,0
17.44,9.478759,-2.0722542,0.8034315,1005.11414,5.663583172281619,1005.092824611404,0,0
17.46,9.583942,-2.0293555,0.8129029000000001,1005.1142,5.663220207262732,1005.0931805482013,0,0
17.48,9.564841,-1.9912238000000002,0.79870117,1005.0838,5.6628860200024675,1005.0934612839816,0,0
17.5,9.493171,-2.0484228,0.8034382,1005.08636,5.662458605436603,1005.0936837774948,0,0
17.52,9.655719,-2.1294553,0.7466284000000001,1005.10364,5.6623058884914235,1005.0939162151641,0,0
17.54,9.584046,-2.0102919999999997,0.71348983,1005.1039400000001,5.66219415715325,1005.0941576827139,0,0
17.56,9.560172,-1.9721602999999999,0.78924257,1005.1289999999999,5.662066575531355,1005.0944964757837,0,0
17.58,9.526742,-2.0674919999999997,0.7797764,1005.091,5.661897007852651,1005.0947832460267,0,0
17.599999999999994,9.565004,-2.0960919999999996,0.8223881,1005.0759,5.6617882525999335,1005.0949686565281,0,0
17.62,9.651069,-2.0865598000000003,0.76084346,1005.0784,5.661893382874529,1005.0950728380833,0,0
17.64,9.569832,-1.9721627,0.7797829000000001,1005.1059,5.661976530790071,1005.0952038706888,0,0
17.66,9.536405,-2.0293622,0.7277073000000001,1005.1084,5.661988120990922,1005.0953671571643,0,0
17.68,9.603349,-2.0388957999999997,0.718241,1005.1059,5.662074829534888,1005.0955493553281,0,0
17.7,9.622494999999999,-2.0388962999999998,0.8081971,1005.0981400000001,5.662280889404883,1005.0957196719464,0,0
17.72,9.565161999999999,-1.9864650000000001,0.84134024,1005.1209,5.662458931146596,1005.0959608128917,0,0
17.74,9.603427,-1.9530996999999999,0.69931054,1005.0984,5.662652150759403,1005.0961826661045,0,0
17.759999999999994,9.5030775,-1.9721665000000002,0.722985,1005.1109,5.662665854341875,1005.096431678005,0,0
17.78,9.565241,-2.0770316,0.7324560999999999,1005.0802,5.662693536169263,1005.0965932708797,0,0
17.8,9.646524000000001,-1.9817011000000002,0.73245865,1005.1006,5.662857462684298,1005.0967504785688,0,0
17.82,9.565547,-1.9626417,0.6330617,1005.1080300000001,5.662954419698721,1005.0969299935596,0,0
17.84,9.575141,-1.9674091,0.7514249,1005.08514,5.663030712541182,1005.0970461690289,0,0
17.86,9.594299000000001,-2.0150754,0.71828765,1005.08734,5.66314228894484,1005.097113879465,0,0
17.88,9.608673,-2.01031,0.8224476999999999,1005.1077,5.663328712735572,1005.0972118184404,0,0
17.9,9.603931,-1.9960113000000002,0.79877925,1005.0855,5.6635608887046995,1005.0972561947723,0,0
17.919999999999995,9.584847,-1.9912455000000002,0.7656416,1005.11273,5.663786453624763,1005.0973511113983,0,0
17.94,9.560985,-1.9864798,0.6804256999999999,1005.0952,5.66394186688445,1005.097427235728,0,0
17.96,9.599260000000001,-1.9388151000000002,0.60941297,1005.06195,5.664082946967618,1005.0973667811372,0,0
17.98,9.656651,-1.9149832999999998,0.67569757,1005.1052,5.6643268660299455,1005.0973415630484,0,0
18.0,9.604114,-1.9292836,0.72304547,1005.1198,5.664566756099695,1005.0974001307184,0,0
18.02,9.55157,-1.9006855,0.6567669,1005.08466,5.664674067402023,1005.0974060166408,0,0
18.04,9.585063,-2.0103169999999997,0.6993796999999999,1005.06464,5.664783535563528,1005.097293259782,0,0
18.06,9.565978999999999,-1.9578857,0.7846021,1005.1102,5.6648471411764145,1005.0972400920863,0,0
18.08,9.594697,-1.7862904999999998,0.5810263000000001,1005.0821,5.664830677496632,1005.097138608779,0,0
18.1,9.494354,-1.85779,0.70885843,1005.10455,5.66458452058245,1005.097075619137,0,0
18.12,9.503952,-1.9435885,0.6946585,1005.1199,5.664188567122903,1005.0971021292604,0,0
18.14,9.613923,-2.0436872999999998,0.7609435999999999,1005.0893,5.663937412975002,1005.0970974659399,0,0
18.16,9.647416999999999,-1.9292908,0.7325403,1005.09924,5.663830727301207,1005.0971010585527,0,0
18.18,9.5900955,-1.8244273999999998,0.5952459,1005.1038,5.663674483417473,1005.0971283491743,0,0
18.2,9.561454,-1.9292927,0.61418694,1005.0816,5.663460982899741,1005.0970965611107,0,0
18.22,9.585386999999999,-1.9006938999999998,0.71361256,1005.11414,5.6632487112594525,1005.097129829558,0,0
18.24,9.681021000000001,-1.8196634999999999,0.6852095,1005.0813,5.66319691079823,1005.0971022381714,0,0
18.26,9.685839999999999,-1.9149953999999998,0.6899475,1005.1093,5.6633350121187185,1005.0971217703647,0,0
18.28,9.571157000000001,-1.7815330000000005,0.69468504,1005.0863,5.663355438976705,1005.0971000706377,0,0
18.3,9.580755,-1.8577988,0.6852196,1005.1163,5.6633194935825495,1005.0971500165043,0,0
18.32,9.575503999999999,-1.8768535,0.68517655,1005.0991,5.663230734678867,1005.0972011686126,0,0
18.34,9.647216,-1.7529233,0.6757091,1005.08875,5.663192691488431,1005.0972159424086,0,0
18.36,9.628115,-1.7767564999999998,0.66150737,1005.0884,5.663167529339484,1005.097197259142,0,0
18.38,9.656811,-1.776757,0.60469615,1005.1034,5.6632047649237744,1005.0972030804747,0,0
18.4,9.661603999999999,-1.7862904,0.65677595,1005.1114,5.663317301119293,1005.0972593331146,0,0
18.42,9.671183000000001,-1.8244233,0.68991834,1005.1010000000001,5.663534716072808,1005.097322504348,0,0
18.44,9.575602,-1.7767581000000001,0.58102846,1005.1109,5.663616318440321,1005.097427201434,0,0
18.46,9.628196,-1.7910582,0.58103,1005.0708,5.663690328491563,1005.0974238538544,0,0
18.48,9.556515,-1.8053583,0.71832925,1005.0959,5.663635674195378,1005.0974154100587,0,0
18.5,9.637788,-1.8053588,0.6236425999999999,1005.0931,5.663619657012676,1005.0973924136454,0,0
18.52,9.623465,-1.8244252,0.680457,1005.0705,5.663623809190668,1005.0972752813246,0,0
18.54,9.575681,-1.8005928,0.6189110999999999,1005.1109,5.663530732374772,1005.0972208321936,0,0
18.56,9.54224,-1.8720915,0.58103746,1005.1005,5.663307090920677,1005.0971845259454,0,0
18.58,9.575714999999999,-1.9340572,0.7420087,1005.07794,5.663084710109338,1005.0970831654512,0,0
18.6,9.656986999999999,-1.7290956000000002,0.60471237,1005.0705,5.662930683549512,1005.0968979039227,0,0
18.62,9.5757475,-1.8339603,0.6378547,1005.0955,5.662715908168549,1005.0967291743823,0,0
18.64,9.542304,-1.8625599999999998,0.5810433,1005.1106,5.662384000423187,1005.0966300199324,0,0
18.66,9.618796000000001,-1.9006929,0.65679514,1005.10046,5.662130685442457,1005.0965561949887,0,0
18.68,9.642714,-1.8387282,0.70887524,1005.0931,5.661979440401474,1005.0964785209667,0,0
18.7,9.618831,-1.8482616000000005,0.6283919,1005.0880000000001,5.661862623876075,1005.0963793655252,0,0
18.72,9.561489,-1.8959276999999999,0.5621116999999999,1005.1051,5.661670460948174,1005.0963231460612,0,0
18.74,9.585405,-1.8768618000000001,0.59051967,1005.0975300000001,5.6614569330488775,1005.0962778152167,0,0
18.76,9.556741,-1.9245279,0.62366176,1005.0950300000001,5.661190510594572,1005.0962332687483,0,0
18.78,9.609331,-1.9149947,0.671007,1005.08026,5.660987871770366,1005.0961364037211,0,0
18.8,9.551994,-1.9531281000000005,0.637868,1005.10004,5.660736813917878,1005.0960648667294,0,0
18.82,9.518488,-1.9245273999999997,0.5195036,1005.1305,5.660349325238623,1005.0961256231236,0,0
18.84,9.609319000000001,-2.0150924,0.6662714,1005.0953,5.660083631798604,1005.0961763352301,0,0
18.86,9.594992999999999,-1.8863956999999998,0.6710071,1005.1028,5.6598449414101575,1005.0962449896404,0,0
18.88,9.657145,-1.8434968,0.4816322,1005.1028,5.659717544042145,1005.0963292507147,0,0
18.9,9.5902405,-1.9960268,0.6094623,1005.1053,5.659629457517066,1005.0964359984977,0,0
18.92,9.595033,-1.9864941000000005,0.58105713,1005.1152,5.6595785581562765,1005.0965978712441,0,0
18.94,9.676304,-1.9245293,0.65207446,1005.11285,5.659709590990603,1005.096799409666,0,0
18.96,9.618960000000001,-1.8768642,0.51477796,1005.0898,5.659848158873925,1005.0969522911412,0,0
18.98,9.528157,-1.9817286,0.6189361,1005.09015,5.6598637201987545,1005.0970628889644,0,0
19.0,9.614207,-1.9340633999999999,0.65681267,1005.08734,5.659930703170606,1005.0971256108003,0,0
19.02,9.623782,-1.8816319,0.6236731,1005.06433,5.660036716658257,1005.0970629676162,0,0
19.04,9.657254,-1.9435971,0.60473675,1005.08234,5.660267502256988,1005.096954613415,0,0
19.06,9.662047,-1.9197648,0.62841004,1005.0821,5.660610834588224,1005.0968053950346,0,0
19.08,9.69074,-1.8149009999999999,0.5479264,1005.0727,5.661059638523106,1005.0965867662517,0,0
19.1,9.619057000000002,-1.9054658,0.5668653,1005.0998,5.661491740542051,1005.0964051535003,0,0
19.12,9.523472,-1.9197657,0.7278361999999999,1005.0976,5.661741097171237,1005.0962489819208,0,0
19.14,9.537827499999999,-1.814902,0.62368065,1005.1098,5.661800460426375,1005.096159772378,0,0
19.16,9.657337,-1.795836,0.6236819,1005.0976,5.661928038755879,1005.0960861316456,0,0
19.18,9.705148,-1.7338711,0.5337295,1005.0948,5.662178991665988,1005.0960164326204,0,0
19.2,9.786419,-1.8339691000000002,0.51005876,1005.0998,5.662738801110103,1005.0959684674043,0,0
19.22,9.686057,-1.8911683999999997,0.5526696999999999,1005.08966,5.663391960044017,1005.0959033748567,0,0
19.24,9.623930999999999,-2.0675310000000002,0.6426245,1005.0923,5.664083788743618,1005.0958328869324,0,0
19.26,9.767339999999999,-1.9436008999999999,0.39643678,1005.1126,5.665019843147111,1005.0958309654093,0,0
19.28,9.748236,-1.7672386000000002,0.28281233,1005.08435,5.666052841985662,1005.095787936076,0,0
19.3,9.528376,-2.067532,0.44851762,1005.10175,5.666854462311777,1005.0957713787873,0,0
19.32,9.475528,-2.0055601999999997,0.50530565,1005.1101,5.667320301787008,1005.0958083318033,0,0
19.34,9.499429,-1.9006957999999998,0.43902424,1005.08435,5.667485764617084,1005.0957997334937,0,0
19.36,9.53289,-1.8387310000000001,0.42482126,1005.10175,5.667427275010112,1005.0958135569867,0,0
19.38,9.542452,-1.9149956999999997,0.50530636,1005.0666,5.667229153967348,1005.09572060262,0,0
19.4,9.575913,-1.9435952,0.37747768,1005.0644,5.666976204114839,1005.0955257139723,0,0
19.42,9.618935,-1.8101318,0.273321,1005.0716,5.666703016399548,1005.0952673777928,0,0
19.44,9.623716,-1.8863966,0.18810195,1005.0993699999999,5.666448410997306,1005.0950538813844,0,0
19.46,9.60938,-1.9102297,0.15969571,1005.1098,5.6661904579975255,1005.0949183219853,0,0
19.48,9.666739999999999,-1.8053653000000005,0.17863357,1005.1093,5.6660069538350495,1005.0948503157408,0,0
19.5,9.609385000000001,-1.810132,0.3538068,1005.0917400000001,5.66578448032802,1005.0947790282868,0,0
19.52,9.571147999999999,-1.7672330000000005,0.4058855,1005.0818,5.665438182886671,1005.0946693141902,0,0
19.54,9.642849,-1.8244318,0.46743295,1005.0917400000001,5.665157597233938,1005.0945618252837,0,0
19.56,9.628511,-1.8434979999999999,0.35854188,1005.1069,5.664904717652155,1005.0945112655147,0,0
19.58,9.537697999999999,-2.0865924,0.38221413,1005.0921599999999,5.664595747618352,1005.0944581263467,0,0
19.6,9.590278,-1.7386339,0.32540148,1005.0818,5.6641994189304326,1005.0943656033234,0,0
19.62,9.685877,-1.5622715,0.24965124,1005.0917400000001,5.663856611776214,1005.0942743978078,0,0
19.64,9.762357000000002,-1.5908707,0.2827923,1005.1047,5.66373055512461,1005.094231340782,0,0
19.66,9.685882000000001,-1.567038,0.11708838,1005.08685,5.663624689679781,1005.0941667227677,0,0
19.68,9.623747,-1.8530316000000002,0.3964185,1005.0893,5.6635287574986615,1005.0940921060879,0,0
19.7,9.714564999999999,-1.8196656999999998,0.36801228,1005.0819,5.663612033232548,1005.093982283208,0,0
19.72,9.814943,-1.9292965,0.38221568,1005.0971699999999,5.664102139530134,1005.0938967194916,0,0
19.74,9.781487,-1.8148993000000002,0.20704296,1005.10175,5.664826339850099,1005.0938493872017,0,0
19.76,9.705012,-1.6385366999999995,0.09815186,1005.08435,5.6655308477785535,1005.0937733665961,0,0
19.78,9.724134,-1.5956378,0.107620955,1005.0919,5.666240187624121,1005.0936994506694,0,0
19.8,9.628542,-1.6337701999999998,0.09341794,1005.08685,5.666768022060799,1005.0936094805342,0,0
19.82,9.236252,-1.910222,0.060245417,1005.1044,5.666437908748443,1005.0935688287927,0,0
19.84,9.102405000000001,-2.067518,0.1644013,1005.0997,5.665150947892518,1005.0935549811304,0,0
19.86,9.226668,-2.0722845000000003,0.15493146,1005.0816,5.663276890764749,1005.0934997074037,0,0
19.88,9.566024,-1.7433918000000002,0.21647765,1005.08484,5.6614482902506555,1005.0934196925923,0,0
19.9,9.738086000000001,-1.6623601000000003,0.20700793,1005.0819,5.659988855642951,1005.0933075206116,0,0
19.92,9.761974,-1.5956278999999998,0.35850787,1005.0921599999999,5.6588959763232936,1005.0932042743754,0,0
19.94,9.656807,-1.5479622,0.349038,1005.0794,5.657898753708791,1005.0930633506133,0,0
19.96,9.742830999999999,-1.5145957,0.102847874,1005.1023,5.6571436125550845,1005.0929720823146,0,0
19.98,9.785838,-1.714791,0.28748864,1005.06714,5.6567686920281375,1005.0927984421496,0,0
20.0,9.824066,-1.6432924,0.20700271,1005.1278699999999,5.656780142817758,1005.0927712713085,0,0
20.02,9.804936,-1.7815223000000002,0.24014259999999998,1005.0744,5.6571447055630335,1005.0926811265759,0,0
20.04,9.795364,-1.8577871,0.14071903,1005.0768,5.657825393395674,1005.0925443026347,0,0
20.06,9.694978,-1.748156,0.14071797,1005.0946,5.658536365637128,1005.0924308055113,0,0
20.08,9.83358,-1.6003922,0.036560033,1005.1298,5.659501610506887,1005.0924650485525,0,0
20.1,9.651938000000001,-1.7290889999999999,-0.09126982,1005.0793,5.6603617204426495,1005.0924479115292,0,0
20.12,9.427277,-1.9483504,0.2732783,1005.1098,5.660760789292481,1005.092495236774,0,0
20.14,9.489400999999999,-1.9388169999999998,0.43424696,1005.0768,5.660885699240501,1005.092480550508,0,0
20.16,9.570646,-1.8291858,0.24486971,1005.0898,5.660875548282312,1005.0924579237413,0,0
20.18,9.546737,-2.0007818,0.42004177,1005.10175,5.660779822568159,1005.0924713822047,0,0
20.2,9.503707,-1.8768511000000003,0.31114945,1005.0973,5.6604614082364675,1005.0925006571272,0,0
20.22,9.527595,-1.819652,0.17385057,1005.07434,5.659966298447015,1005.0924611460832,0,0
20.24,9.561042,-1.8434846,0.21172483,1005.1072,5.659395996852063,1005.0924792939984,0,0
20.26,9.594489999999999,-1.8339511000000002,0.1691142,1005.1024,5.658824105307662,1005.0925310440382,0,0
20.28,9.642275999999999,-1.7958183,0.0696906,1005.08685,5.658333242975293,1005.0925563186148,0,0
20.3,9.680503,-1.7767519,0.11229919,1005.0748,5.657987486401808,1005.0925147284835,0,0
20.32,9.652448,-1.7624674,0.11709061,1005.1152,5.657708606131724,1005.0925596464208,0,0
20.34,9.628561,-1.8006002,0.18337339,1005.0852,5.657457518010799,1005.0925728411834,0,0
20.36,9.537759,-1.7863008999999999,0.29700040000000005,1005.1123699999999,5.657046793626997,1005.0926557698469,0,0
20.38,9.580791,-1.8625662,0.3396114,1005.1177,5.656616896087929,1005.092819204843,0,0
20.4,9.595144,-1.7863016,0.17864281,1005.1052,5.656162401224486,1005.093008186868,0,0
20.42,9.752891,-1.6862043000000002,0.16444081,1005.07434,5.6559732058637335,1005.0931079659123,0,0
20.44,9.705105999999999,-1.7052707999999999,0.16444208,1005.0952,5.655928083480166,1005.0932036619987,0,0
20.46,9.71468,-1.8339682000000002,0.23072504,1005.1048,5.656080705497386,1005.0933299658777,0,0
20.48,9.729033,-1.7005048999999999,0.08869417,1005.09015,5.656382476902428,1005.093430120108,0,0
20.5,9.63823,-1.7910697,0.1597115,1005.1026,5.6566644895129485,1005.0935516279532,0,0
20.52,9.609565,-1.8149028999999999,0.19285354,1005.1126,5.65687983754173,1005.0937275664247,0,0
20.54,9.614360000000001,-1.9769661,0.22599573,1005.1026,5.657111921000718,1005.0939149664191,0,0
20.56,9.733868,-1.929301,0.16444968,1005.0696,5.6575792542842605,1005.0939930191748,0,0
20.58,9.657404,-1.8864023999999997,-0.0012532771000000002,1005.1026,5.658076788191289,1005.0940929717208,0,0
20.6,9.652638,-1.8959358,-0.034392845,1005.08734,5.658593428658981,1005.0941569790924,0,0
20.62,9.571396,-1.8816366000000002,0.083968624,1005.1153,5.6589542977234055,1005.094289650881,0,0
20.64,9.54751,-1.9293022000000002,0.20706435,1005.0923,5.6591507293372025,1005.0943997169304,0,0
20.66,9.557084,-1.9293026999999998,0.22126885,1005.0723,5.659221306351186,1005.0944174123107,0,0
20.68,9.542758000000001,-2.015101,0.35383344,1005.1048,5.6591954477336275,1005.0944704252639,0,0
20.7,9.590569,-1.8959374,0.3064905,1005.11035,5.659128876264117,1005.094574433979,0,0
20.72,9.600143,-1.9722025,0.15499091,1005.0826400000001,5.659069961641589,1005.0946233721173,0,0
20.74,9.705313,-1.9436038,0.10291375,1005.0872,5.659219002150945,1005.0946398897163,0,0
20.76,9.863059,-1.8482728,-0.0012419708,1005.1053,5.6598343254897365,1005.094692861064,0,0
20.78,9.724458,-1.9007053,0.022431253999999998,1005.1003400000001,5.660597041113553,1005.0947599962469,0,0
20.8,9.490262,-2.0055702,0.13605824,1005.0976,5.661055601724883,1005.0948295409082,0,0
20.82,9.417473,-2.3010697,0.32533458,1005.09265,5.66124201019513,1005.0948831442237,0,0
20.84,9.6420965,-2.0675077,0.1927686,1005.1003400000001,5.66152642651193,1005.0949501527938,0,0
20.86,9.685082000000001,-2.024608,0.13595282,1005.0975300000001,5.66196338054979,1005.0950186490164,0,0
20.88,9.685052,-1.9817083,0.12174679,1005.0878,5.662515039968038,1005.0950531851422,0,0
20.9,9.532067,-2.1008709999999997,0.24957296,1005.11554,5.662911583624584,1005.0951574537963,0,0
20.92,9.594176,-2.1628358,0.33478963,1005.0830000000001,5.6633288698570645,1005.0952058187456,0,0
20.94,9.656281,-2.1628351,0.26377058,1005.07794,5.663884389352452,1005.0951863970672,0,0
20.96,9.546317,-2.1819007000000004,0.19748631,1005.0925,5.664342709229526,1005.0951595650428,0,0
20.98,9.488935000000001,-2.1342343999999995,0.2495625,1005.09265,5.664577787238236,1005.095126821832,0,0
21.0,9.465003,-2.196199,0.26849714,1005.0878,5.664596011570469,1005.0950715133722,0,0
21.02,9.4936495,-2.0722678,0.12172766,1005.0980000000001,5.664417942315952,1005.095033185369,0,0
21.04,9.555757,-2.1437652000000003,0.27796020000000005,1005.1075400000001,5.664231831204455,1005.095044343278,0,0
21.06,9.584405,-2.0722663,0.1264565,1005.1025400000001,5.664058963744018,1005.0950811867706,0,0
21.08,9.617835000000001,-2.1056314,0.2637516,1005.1055,5.66398670526584,1005.0951512494082,0,0
21.1,9.622587,-1.9721669999999998,0.31582746,1005.0754,5.663958962874182,1005.0951420522572,0,0
21.12,9.651234,-1.8863683,0.26848045,1005.0950300000001,5.663991097207803,1005.0951335222662,0,0
21.14,9.70856,-2.0150645000000003,0.23060239999999999,1005.085,5.664243621320558,1005.0950895044859,0,0
21.16,9.660733,-2.110395,0.24006863,1005.1080300000001,5.6646345071612805,1005.0950971961593,0,0
21.18,9.651144,-2.0817947,0.16431534,1005.1051,5.665110940821212,1005.0951400026156,0,0
21.2,9.622437,-2.148526,0.22112559999999998,1005.1030000000001,5.665635016860487,1005.095206122391,0,0
21.22,9.57939,-2.1008596,0.2163886,1005.0980000000001,5.666090346237455,1005.095274603784,0,0
21.24,9.612817999999999,-2.1294582,0.112228885,1005.1180400000001,5.666560304899564,1005.0954170693692,0,0
21.26,9.660583500000001,-2.1151578,0.10749155,1005.0980000000001,5.667131945431214,1005.0955522505104,0,0
21.28,9.73225,-1.9673936,0.116957545,1005.1005,5.6678740819653495,1005.0956895084653,0,0
21.3,9.545809,-1.9006612,0.13115814,1005.0955,5.668357378739947,1005.0958101073633,0,0
21.32,9.561635,-1.6957358,0.06027814,1005.0830699999999,5.6685623207817475,1005.0958708041632,0,0
21.34,9.652481,-1.7624683,0.13129698,1005.1031,5.668732409914633,1005.0959504609607,0,0
21.36,9.786346,-1.7958348999999998,0.11709656,1005.1134,5.669156870011194,1005.0960836640472,0,0
21.38,9.729019000000001,-1.8578006999999999,0.2638659,1005.0980000000001,5.669717020287487,1005.0962082611044,0,0
21.4,9.867662,-1.8911673999999998,0.21179004,1005.1081,5.670688447414559,1005.0963611653236,0,0
21.42,9.494867,-2.1485624,0.28754333,1005.0805,5.671374814050952,1005.0964391712967,0,0
21.44,9.346722999999999,-2.1247303,0.24967070000000002,1005.11053,5.671493521781522,1005.0965588243581,0,0
21.46,9.346753,-1.8959363,0.15498538,1005.0931,5.6710061524025335,1005.0966520980353,0,0
21.48,9.461497,-1.7815396000000001,0.35856742,1005.0880000000001,5.670184692270208,1005.0967033671036,0,0
21.5,9.561905,-1.8244394,0.098178074,1005.1156,5.669279791399812,1005.0968166963306,0,0
21.52,9.700548,-1.7958406999999998,-0.11013310000000001,1005.1059,5.668576893717089,1005.096949533929,0,0
21.54,9.648,-1.6957438999999999,-0.16220877,1005.0980000000001,5.667912101693855,1005.0970706909087,0,0
21.56,9.633689,-1.5479813999999998,-0.19534698,1005.0855,5.667204365285926,1005.0971360907286,0,0
21.58,9.528563,-1.6814456000000002,0.1928768,1005.0655,5.6662918057446445,1005.0970799880828,0,0
21.6,9.533375,-1.824443,0.33017755,1005.068,5.665272820331657,1005.0969257278281,0,0
21.62,9.667239,-1.7195794999999998,0.2638986,1005.0984,5.66439320899159,1005.0967947308466,0,0
21.64,9.791545,-1.6957475,0.17394772,1005.0705,5.663881621223887,1005.0965843208827,0,0
21.66,9.772454,-1.676682,-0.22373964,1005.1034,5.663653308100844,1005.0964229390836,0,0
21.68,9.710347,-1.9912755000000002,-0.38944104,1005.1084,5.663680885759572,1005.0963234595453,0,0
21.7,9.700818,-2.100907,-0.17165561,1005.1084599999999,5.6639492837904,1005.0962792509703,0,0
21.72,9.662608,-2.058009,0.022457585,1005.1210000000001,5.6643301022537305,1005.0963291829704,0,0
21.74,9.557481,-1.9912775000000005,0.19763315,1005.0859,5.6645705871655885,1005.096335757827,0,0
21.76,9.457135000000001,-1.9197799999999998,0.21183917,1005.1031,5.664452655344412,1005.0963659186419,0,0
21.78,9.677036,-1.8530490000000002,0.069809824,1005.0605,5.664435716619523,1005.0962634514308,0,0
21.8,9.6579485,-1.7338859,0.08875021,1005.0909,5.664424214062757,1005.0961536029782,0,0
21.82,9.724391,-1.6576093,0.15025398,1005.07794,5.664527805097718,1005.0959909719147,0,0
21.84,9.690942,-1.6862088,0.09344213,1005.1059,5.664672839510814,1005.095882943608,0,0
21.86,9.686175,-1.9007041,0.07450559,1005.0955,5.664925034013176,1005.0957861111992,0,0
21.88,9.710083000000001,-1.9817357,0.26388255,1005.0984,5.6653595045884595,1005.0957099600824,0,0
21.9,9.628836,-1.8339729,0.28755546,1005.0934,5.6657298138642,1005.0956343570996,0,0
21.92,9.49501,-1.7720078000000001,0.10291457,1005.1034,5.665737272383593,1005.095595510618,0,0
21.94,9.495021000000001,-1.7434087999999999,0.036633864,1005.1084,5.6654122965675295,1005.0956072820288,0,0
21.96,9.480691,-1.8482733,0.1313228,1005.0809300000001,5.664807732365111,1005.0955648450323,0,0
21.98,9.609755499999999,-1.6385450000000001,0.11238606,1005.0856,5.664143345871568,1005.0954914742599,0,0
22.0,9.643224,-1.6480781999999998,0.2354815,1005.0755,5.663504940649239,1005.0953546745379,0,0
22.02,9.456822,-1.6147128000000002,0.27809215,1005.1031,5.6625007020564455,1005.0952616814753,0,0
22.04,9.399475,-1.7481765999999999,0.46273488,1005.1059,5.661123077758766,1005.0952178107519,0,0
22.06,9.170053999999999,-1.8530408999999999,0.63790876,1005.0984,5.659015765829719,1005.0951905024621,0,0
22.08,9.628925,-1.7624767,0.65684724,1005.0830000000001,5.65717288324585,1005.0951224870482,0,0
22.1,9.915723,-1.6528462,0.31597108,1005.1034,5.656082810458485,1005.0950921876753,0,0
22.12,9.820136999999999,-2.024638,0.17393976,1005.0856,5.655600916214403,1005.0950312432736,0,0
22.14,9.844046,-1.6290139,-0.09118597,1005.0956,5.655554538645131,1005.0949794403244,0,0
22.16,9.8344965,-1.4669511,-0.465203,1005.0980000000001,5.655842935742417,1005.0949445412533,0,0
22.18,9.523817,-1.8292096000000002,0.4674755,1005.0784,5.655916822194732,1005.0948541440857,0,0
22.2,9.681561,-1.9436073,0.44853884,1005.0906,5.656166204600754,1005.0947589542296,0,0
22.22,9.605095,-1.8530427999999999,0.46274304,1005.0984,5.656379036541287,1005.0946879522377,0,0
22.24,9.715041000000001,-1.9579077,0.93145007,1005.1109,5.656893225536732,1005.0946835782497,0,0
22.26,9.8727865,-1.9674407999999999,0.4958859000000001,1005.0931,5.6579318027226995,1005.0946740125121,0,0
22.28,10.169145,-2.0198734,0.6000438,1005.1009,5.660066075037353,1005.094687973781,0,0
22.3,10.22173,-2.0055737000000002,0.5100907,1005.0931,5.663252172999267,1005.0946945932527,0,0
22.32,9.776489999999999,-1.9149916,0.32064879999999996,1005.1005,5.6663966264373045,1005.0947213416823,0,0
22.34,9.566158999999999,-1.9674234,0.59050804,1005.1360000000001,5.6691121455076035,1005.0948935797644,0,0
22.36,9.504002999999999,-2.1437855,0.6851944000000001,1005.0980000000001,5.671402793263113,1005.0950569524467,0,0
22.38,9.532668,-2.0198544999999997,0.519489,1005.1081,5.673291688016639,1005.09524826352,0,0
22.4,9.52309,-2.0150876,0.5242218,1005.1131,5.674797822878497,1005.095481572236,0,0
22.42,9.551749000000001,-1.8005921000000005,0.34431258,1005.0980000000001,5.675914644852859,1005.095696790157,0,0
22.44,9.523047,-1.943588,0.81775093,1005.1081,5.676740861993675,1005.0959316082676,0,0
22.46,10.115725,-1.9674206000000003,0.65677947,1005.0980000000001,5.678497202644382,1005.0961465397603,0,0
22.48,10.134828,-2.0341518,0.4958083,1005.1080300000001,5.681116160131517,1005.0963792336839,0,0
22.5,9.891042,-2.010319,0.581026,1005.0950300000001,5.683991450584772,1005.0965799847937,0,0
22.52,9.436935,-1.991252,0.35377234,1005.0953,5.6861293649853675,1005.0967527605292,0,0
22.54,9.322202,-2.167614,0.2827545,1005.1151,5.687449768098984,1005.096971475231,0,0
22.56,9.346086999999999,-2.2867777,0.37744153,1005.085,5.688155537218085,1005.0971216342308,0,0
22.58,9.326945,-2.1342472999999997,0.55261236,1005.0906,5.688221682286082,1005.0972308368396,0,0
22.6,9.542022,-1.9960167000000002,0.4484541,1005.0701,5.688085942723073,1005.0972296572522,0,0
22.62,9.661496000000001,-2.0150824000000003,0.53840595,1005.0980000000001,5.68803255841681,1005.0972313882028,0,0
22.64,9.63758,-2.0198488,0.6851709,1005.1080300000001,5.688024491141633,1005.0972717926732,0,0
22.66,9.618437,-1.8244193,0.6472935000000001,1005.1030000000001,5.6879329018509015,1005.0973281156096,0,0
22.68,9.608858,-1.6861887,0.5431348000000001,1005.1131,5.6876836252882255,1005.09743466134,0,0
22.7,9.771353,-1.7004879000000002,0.47685140000000004,1005.085,5.687626139131044,1005.0974840403663,0,0
22.72,10.00077,-1.6575885,0.36795890000000003,1005.0980000000001,5.688183558395933,1005.0975295291287,0,0
22.74,9.857358,-1.3620614,0.29220676,1005.08276,5.688890346663071,1005.0975165526944,0,0
22.76,9.274203,-1.5193573,0.3348147,1005.0878,5.688580283532076,1005.0974701071277,0,0
22.78,9.3267565,-1.9721796999999999,0.69936156,1005.0905,5.687694616296571,1005.0974039754387,0,0
22.8,9.451016000000001,-1.5050567,0.75143874,1005.0976,5.686388651656401,1005.097346247167,0,0
22.82,9.298581,-1.3477731000000002,0.7798925999999999,1005.1053,5.684359558867781,1005.0973238719763,0,0
22.84,9.207767,-1.5527351999999999,0.87458086,1005.0925,5.681596091168588,1005.0972867353186,0,0
22.86,9.561475999999999,-1.619467,0.9550661,1005.08026,5.678954253953004,1005.0971926251207,0,0
22.88,9.743111,-1.3859057,0.5479074,1005.0878,5.676661889654821,1005.0970756558994,0,0
22.9,9.829149000000001,-1.3954388999999998,0.282781,1005.0975300000001,5.674843099902993,1005.0969739375341,0,0
22.92,9.571043,-1.6480664,0.69467443,1005.0952,5.673043957866759,1005.0968776730116,0,0
22.94,9.528027,-1.6814325,0.3774695,1005.1052,5.671156211180683,1005.0968225740564,0,0
22.96,9.676203,-1.6718993999999998,-0.015485808,1005.1153,5.6694816750677735,1005.0968404073532,0,0
22.98,9.604509,-1.7481645000000001,0.58104944,1005.08234,5.667918407487135,1005.0968039633881,0,0
23.0,9.594952000000001,-1.5336694,0.3490638,1005.0748,5.66634151270662,1005.0966925472316,0,0
23.02,9.623633,-1.581335,0.43428335,1005.0898,5.664840008542846,1005.0965692867461,0,0
23.04,9.637975,-1.6194674999999998,0.050796772999999996,1005.1048,5.663433110493461,1005.0964900043488,0,0
23.06,9.719233500000001,-1.8148965,0.45795584,1005.0973,5.6623738730801705,1005.0964228664067,0,0
23.08,9.633201,-2.08659,0.44848722,1005.1024,5.66156112446657,1005.096385061002,0,0
23.1,9.661880499999999,-1.7052658,0.008187827,1005.1274,5.660853586492771,1005.0964633099272,0,0
23.12,9.695343,-1.5956348999999999,0.17862661,1005.0997,5.660275183787464,1005.0965441027614,0,0
23.14,9.657106,-1.8148967,-0.24273519,1005.0821,5.659816650414267,1005.09656349254,0,0
23.16,9.508935000000001,-1.9102278000000001,0.05079813,1005.0844,5.659195228455863,1005.0965368367747,0,0
23.18,9.475480000000001,-2.0150921000000004,0.36326909999999996,1005.06433,5.658422028668289,1005.0963973391288,0,0
23.2,9.542398,-1.9483603999999999,0.16442432,1005.0793,5.6576140965593655,1005.0962125285877,0,0
23.22,9.58542,-1.9054613,0.29225346,1005.1022,5.656854626557831,1005.0960707848906,0,0
23.24,9.575861999999999,-1.8101304,0.24964403,1005.0997,5.656081054790278,1005.0959586053343,0,0
23.26,9.738377999999999,-1.7862977,0.32539475,1005.0791,5.655625279664863,1005.0957987924992,0,0
23.28,9.580647,-1.8911619,0.54791206,1005.09686,5.655191470789571,1005.0956614022248,0,0
23.3,9.57587,-1.9960262999999998,0.34433287,1005.10175,5.6547929160737995,1005.0955619231306,0,0
23.32,9.66653,-1.9340572,0.25909925,1005.0948,5.654580276216622,1005.0954712804796,0,0
23.34,9.666526,-1.7910606,0.65678895,1005.0791,5.654514909781009,1005.0953322520236,0,0
23.36,9.575706,-1.8577921000000002,0.24016096,1005.0791,5.654380885631541,1005.0951509703723,0,0
23.38,9.61872,-1.8959245999999998,0.27803585,1005.0893,5.654291679018562,1005.094969726412,0,0
23.4,9.594818,-1.9340568,0.32537955,1005.1019,5.654212212658058,1005.0948345282336,0,0
23.42,9.747767,-1.7576941000000001,0.27330074,1005.0765,5.654381763126288,1005.0946490628213,0,0
23.44,9.728645,-1.6861959,0.22122198,1005.1069,5.654703036962457,1005.0945292889572,0,0
23.46,9.585247,-1.5670316999999998,0.27330005,1005.0941,5.6548250147247066,1005.0944219113304,0,0
23.48,9.580464,-1.562265,0.27803415,1005.0869,5.65475933133715,1005.0942999535788,0,0
23.5,9.652157,-1.6957285,0.39639392,1005.0943599999999,5.654729693860407,1005.0941924078764,0,0
23.52,9.762089,-1.6623626,0.50528485,1005.1089999999999,5.654955459402995,1005.0941506878253,0,0
23.54,9.89592,-1.700495,0.6473167,1005.06885,5.655710176697029,1005.0940227415123,0,0
23.56,9.80032,-1.6194633,0.21648549,1005.1066,5.656667208676074,1005.0939549662804,0,0
23.58,9.728619,-1.6861951000000002,0.16914108,1005.08136,5.657673880643243,1005.0938497382068,0,0
23.6,9.546983,-2.0675194,0.5289556,1005.10895,5.65852850783806,1005.0938111196235,0,0
23.62,9.441823,-2.0389202,0.39639184,1005.0738,5.659006667356117,1005.0937049562131,0,0
23.64,9.221948,-2.4297776,0.7325343000000001,1005.0885599999999,5.658936738126815,1005.0935926283807,0,0
23.66,9.503953,-1.8863900000000002,0.23068698,1005.0989400000001,5.6586474283825,1005.0935126260463,0,0
23.68,9.771618,-1.509832,0.3490468,1005.10364,5.658584400588898,1005.0934783945296,0,0
23.7,9.891109,-1.3620687,0.28749916,1005.0584,5.658918699212391,1005.0933218653411,0,0
23.72,9.771611,-1.3382359,0.24015482,1005.0960699999999,5.659347544787807,1005.0931934494348,0,0
23.74,9.800286,-1.5384309999999999,0.40585864,1005.1059,5.659989029039424,1005.093125724722,0,0
23.76,9.6425495,-1.9197557,0.6236409,1005.0659,5.660655958139633,1005.0929678705569,0,0
23.78,9.680783,-1.7386262,0.23541933,1005.0939,5.661315803971394,1005.0928317462826,0,0
23.8,9.714238,-1.5670302,0.4011232,1005.1261599999999,5.6619867693077675,1005.0928314485872,0,0
23.82,9.662537,-1.4669538999999998,0.6852676999999999,1005.0931,5.662559689926791,1005.0928321523288,0,0
23.84,9.686474,-1.9007115,0.70894325,1005.0784,5.6632504456637855,1005.0927808184064,0,0
23.86,9.667388,-2.0961413,0.4532884,1005.06287,5.664054862810371,1005.0926277808063,0,0
23.88,9.519245,-1.8768806,0.17869583,1005.0931,5.664544757209568,1005.0924942567717,0,0
23.9,9.605312,-1.5098562,0.10294807,1005.0880000000001,5.664795805142687,1005.0923600956104,0,0
23.92,9.71528,-1.4383584999999999,0.24971753,1005.0751,5.665043899146261,1005.0921794144642,0,0
23.94,9.672289,-1.7148196,0.57165956,1005.0858,5.6653204822387675,1005.0919967987114,0,0
23.96,9.614964500000001,-1.7243536,0.28759840000000003,1005.09283,5.66548167858304,1005.0918384389568,0,0
23.98,9.653235,-1.8816506999999998,0.34914857,1005.11554,5.6656827421372675,1005.0917838378972,0,0
24.0,9.648488,-1.8721185000000002,0.58587193,1005.10785,5.665928225668428,1005.0917934305847,0,0
24.02,9.758448,-1.8387532,0.42490429999999996,1005.0399,5.666406154663414,1005.0916150903332,0,0
24.04,9.748923,-2.1152142999999994,0.50539225,1005.0854,5.667190193703556,1005.0914351345617,0,0
24.06,9.782414,-2.0055842,0.52906734,1005.12036,5.668265477758774,1005.0913802551578,0,0
24.08,9.744207000000001,-2.1009161,0.4580542,1005.11786,5.669550054286593,1005.0914270907978,0,0
24.1,9.562605,-2.0532515,0.46752570000000004,1005.07776,5.670626439676769,1005.0914192732423,0,0
24.12,9.514838000000001,-2.0151198,0.2450116,1005.0829,5.671384565538381,1005.0913816962668,0,0
24.14,9.294997,-2.0818522,0.24501431,1005.10004,5.671441945314139,1005.0913796631447,0,0
24.16,9.165975,-1.8959572,0.24501723,1005.1023,5.670536530861584,1005.0914171798904,0,0
24.18,9.495811999999999,-1.8387593999999998,0.4817404000000001,1005.1123,5.669450788167902,1005.0915255078396,0,0
24.2,9.572321,-1.7767949,0.5764314,1005.105,5.668352376502634,1005.091669734587,0,0
24.22,9.581913,-2.0723221,0.96465546,1005.12006,5.667450241541902,1005.0918993782967,0,0
24.24,9.59628,-2.3058841,1.0782836999999998,1005.1048,5.666885590005058,1005.0921487337164,0,0
24.26,9.534175999999999,-2.1009227999999998,1.1208963,1005.0923,5.6664110035325965,1005.0923696087242,0,0
24.28,9.386034,-1.6909999,0.566974,1005.0994,5.665450158257067,1005.0925900832897,0,0
24.3,9.386065499999999,-2.0008268,0.6285242,1005.0769,5.664195162333561,1005.0927284103155,0,0
24.32,9.504577000000001,-2.191465,0.5810900999999999,1005.1323,5.66300429028435,1005.0929930937987,0,0
24.34,9.643182000000001,-2.0627676999999998,0.33016574,1005.1048,5.662073109257916,1005.0932694729868,0,0
24.36,9.69097,-1.9436038,0.31122738,1005.1073,5.661420443624399,1005.0935641915347,0,0
24.38,9.743542,-2.0103352,0.34910184,1005.0923,5.6611534949602005,1005.0938200537539,0,0
24.4,9.820008999999999,-2.1723979,0.37750748,1005.0818,5.66145616185141,1005.0940028614177,0,0
24.42,9.695725,-2.1723979,0.53374195,1005.1044300000001,5.662023959407374,1005.0942019279677,0,0
24.44,9.58578,-2.0484671999999997,0.7609925999999999,1005.09424,5.662577202907829,1005.094377960231,0,0
24.46,9.408918,-2.0818326000000003,0.8935550999999999,1005.1242699999999,5.6627957426789735,1005.094641113682,0,0
24.48,9.485388,-2.3249269,0.9266953000000001,1005.0994,5.662992538506093,1005.0948907680616,0,0
24.5,9.4567,-2.2438952999999997,0.77045906,1005.1044300000001,5.6630441527747974,1005.0951457039067,0,0
24.52,9.48059,-2.2820275000000003,0.83673996,1005.122,5.663045122540008,1005.0954676406856,0,0
24.54,9.490142,-2.1437972000000003,0.4532523,1005.1041,5.662902853300004,1005.0957831805167,0,0
24.56,9.886856,-1.8578036,0.3348914,1005.1246,5.6633113620501785,1005.0961657320616,0,0
24.58,9.681315,-2.2724936000000002,0.5242667999999999,1005.1041,5.6639822542857825,1005.0965323179712,0,0
24.6,9.628730000000001,-2.396424,0.4295779000000001,1005.10455,5.664827490911863,1005.0968850969364,0,0
24.62,9.5713625,-2.4536222999999997,0.5005932,1005.1315300000001,5.665744268494482,1005.0973215340808,0,0
