Timestamp,Ax,Ay,Az,P,LPFRMSAcc,LPFPValue,Value,Type
0.0,7.613069,-3.7410755,5.102281,999.60046,0.02057442644160911,3.598561656,0,0
0.02,7.8425207,-3.664811,5.012329,999.60284,0.059470704822737426,10.36386613728,0,0
0.04,7.6704545,-3.8602402,5.149628,999.598,0.11443655834856165,19.9029320588448,0,0
0.06,7.593985000000001,-3.8793066,5.2490506,999.60535,0.18340508152679916,31.85857941172761,0,0
0.08,7.675269,-4.008004,5.499976599999999,999.6103,0.2650059619310237,45.90649560685264,0,0
0.1,7.670496000000001,-4.0509033,5.296398,999.6201,0.3572790622578212,61.75260333268045,0,0
0.12,7.9811974,-4.012771,5.2632585,999.6066,0.4590756852490371,79.13049850722426,0,0
0.14,7.880841999999999,-3.3549871,5.4242306,999.62494,0.5684426475816535,97.79938667282516,0,0
0.16,7.7087835999999985,-3.640981,5.220651599999999,999.6078,0.6838109936595835,117.54172654392792,0,0
0.18,6.8866710000000015,-4.6848574,4.7614160000000005,999.605,0.8032295395795073,138.16148583847618,0,0
0.2,8.612194,-3.6838803,5.140169599999999,999.6148,0.9280638128987462,159.4823370821205,0,0
0.22,8.550064,-3.7982783,5.6183453000000005,999.612,1.057708853258567,181.34590802750895,0,0
0.24,7.015767599999998,-4.0556726,4.5673094,999.6164,1.187789591937921,203.61033308595523,0,0
0.26,7.7996693,-3.5790172,5.3058777,999.5962,1.3194233709714305,226.1487281884889,0,0
0.28,7.16875,-4.613361,4.377936,999.633,1.4509036515199722,248.84819747960904,0,0
0.3,7.9526443,-3.6457496,4.1317472,999.6238,1.5819656722706097,271.60824071431625,0,0
0.32,8.497549000000001,-3.5313525,5.1922545,999.6164,1.714037813398022,294.339844289932,0,0
0.34,7.675436500000001,-4.3702664,5.2632723,999.6292,1.845936356996452,316.9645308899024,0,0
0.36,7.718476,-3.874545,4.572050599999999,999.5811,1.9761471144902305,339.4131236184324,0,0
0.38,7.794966,-4.046142,4.9792112999999985,999.6033,2.1050709495813846,361.62538478833517,0,0
0.4,7.689817999999999,-4.108107,5.111775,999.59326,2.2324156316248627,383.5488231088234,0,0
0.42,7.7424097,-3.8078144,4.415818700000001,999.63116,2.3570460996837386,405.1382696216148,0,0
0.44,7.7997812999999985,-3.9651113,4.946073,999.6278,2.4795747989025654,426.3548668696797,0,0
0.46,7.6659603,-4.0652094,5.125982,999.60114,2.5998616738677103,447.1655387813389,0,0
0.48,7.6994405,-4.031843,4.8939977,999.6134,2.7175190244062715,467.5426607828682,0,0
0.5,7.953475999999998,-3.7172682,4.804108599999998,999.5902,2.8324987359003044,487.46325692460107,0,0
0.52,7.881798700000001,-3.788767,4.7899075,999.62866,2.9446221352372066,506.90889112650774,0,0
0.54,7.700207000000002,-3.822134,4.6857543,999.6041,3.0534433596706423,525.864756259257,0,0
0.56,7.88186,-3.722037,4.6952252,999.6031,3.159183464397445,544.3196167280208,0,0
0.58,7.695508500000001,-3.7554042,4.723637,999.6006,3.2615684610178732,562.2653429779997,0,0
0.6,7.7959046,-3.6171746,4.9982343,999.57324,3.360958158554933,579.6964951217602,0,0
0.62,7.795945,-3.5647435,4.283343,999.6134,3.4565970438225087,596.6103620135488,0,0
0.64,7.8437839999999985,-3.4837132000000004,4.330691000000002,999.6278,3.5486407420748947,613.0063175758843,0,0
0.66,7.829505,-3.6505442,4.789933,999.6003,3.6377260843848664,628.8855222474907,0,0
0.68,8.006378,-3.679144,4.7047157,999.5935,3.7241070367463305,644.2509362152311,0,0
0.7,7.9586205,-3.8221414,5.45749,999.6104,3.8085997045732967,659.1071100667518,0,0
0.72,7.76749,-3.5885818,5.0313993,999.6033,3.8901774090384498,673.4598115657152,0,0
0.74,7.7197113,-3.6743803,4.8041496,999.61554,3.9686380442867257,687.3160192325627,0,0
0.76,7.609817,-4.0604725,5.263391,999.5883,4.044680482604004,700.6835445377518,0,0
0.78,7.54294,-4.1891704,5.0882215,999.6061,4.1181301355587365,713.571211097081,0,0
0.8,7.7150335,-3.9699094,4.7378774,999.60077,4.188752268047135,725.9884596809549,0,0
0.82,7.347049,-4.313103,4.780493,999.61255,4.2563791463314775,737.9453872548142,0,0
0.84,7.3901080000000015,-4.427501,5.0787635,999.6028,4.321596971132132,749.4524951449592,0,0
0.86,7.6100197,-4.4132023,5.3959723,999.6079,4.385115698384455,760.5207351341695,0,0
0.88,7.318472,-4.2273073,5.519068700000001,999.6003,4.446434562829374,771.1613184221526,0,0
0.9,7.901669,-3.6314893,5.992515,999.6189,4.506559334210714,781.3857851090947,0,0
0.92,7.6961575,-3.7077546,5.784203,999.5858,4.564904926594428,791.205643927284,0,0
0.94,8.002127,-2.945107,4.430168599999999,999.6003,4.619997496018986,800.6326919408976,0,0
0.96,7.5385256,-3.8412209,6.579592,999.5908,4.674322229800932,809.6786807547397,0,0
0.98,8.220445,-2.706741,4.297463400000002,999.61804,4.725579827174989,818.3554981639332,0,0
1.0,8.081817,-2.6352425,4.0370703,999.60077,4.773418386582813,826.6748170053065,0,0
1.02,8.048331,-3.2405944,5.244341,999.6058,4.819575786926519,834.648318672325,0,0
1.04,8.072217,-2.6304748,4.1838326,999.6164,4.862682441121728,842.2875898380821,0,0
1.06,8.062631,-2.7305717,4.458426,999.61066,4.903238482399161,849.604012892728,0,0
1.08,8.129508,-3.1071289,5.215927,999.5844,4.942510998554437,856.6087336973993,0,0
1.1,8.091244,-2.8020685000000003,4.5673113,999.5821,4.979589881722159,863.3128091190961,0,0
1.12,9.0423975,-1.8296903,4.7424817,999.6016,5.0159866081026845,869.7271698088788,0,0
1.14,8.024272999999999,-2.7877676,4.4726186,999.5894,5.050042961916894,875.8624029430588,0,0
1.16,8.272795,-2.6686032,5.206448,999.59674,5.083015020040916,881.7289385538251,0,0
1.18,7.632275,-3.2501223,4.8987093,999.6017,5.113873987572034,887.3369513607045,0,0
1.2,8.411356,-2.4064412,4.9981300000000015,999.6123,5.143673329127626,892.6963827319646,0,0
1.22,8.1006565,-2.7543995,4.8845024000000015,999.59924,5.171964202913967,897.8168265777748,0,0
1.24,8.56427,-2.4493392000000003,4.903438,999.6066,5.199476888559304,902.7076939442528,0,0
1.26,8.086264,-2.9736598,4.7992787,999.6268,5.225567221272813,907.3781731310736,0,0
1.28,8.4973,-2.8783278,5.2821856,999.5844,5.251447598344312,911.8369509572763,0,0
1.3,8.024073,-2.9831915,4.8418837,999.60254,5.275852141133946,916.0926831650634,0,0
1.32,8.334733,-2.9879575000000003,5.239571,999.60535,5.29980672222846,920.1536937444693,0,0
1.34,7.894964999999999,-3.3883476000000003,5.391069,999.62994,5.322974956861762,924.0281171789524,0,0
1.36,7.890158,-2.6590638,4.486796,999.6373,5.343942089312738,927.7237507838174,0,0
1.38,8.119562,-2.864025,5.3531895,999.5825,5.364302664188542,931.2479041342543,0,0
1.4,7.617656,-3.1976836,4.605151,999.57214,5.382640688130604,934.6078132838173,0,0
1.42,8.458861,-3.1452506,5.3910584,999.60284,5.4013160638787205,937.8106111045489,0,0
1.44,8.325014,-3.2119818,5.537824,999.6148,5.4202007046455885,940.8630983389714,0,0
1.46,8.143342,-2.921221,5.438398,999.58075,5.438613812429986,943.7716596052867,0,0
1.48,8.281941999999999,-2.8544888,5.4999437,999.5927,5.456803191610015,946.542620085624,0,0
1.5,7.451276299999999,-3.7601595,4.553156,999.6128,5.472991692966821,949.1820934137417,0,0
1.52,8.1156845,-3.0690093,5.097614,999.59753,5.488509136524304,951.6958276181767,0,0
1.54,8.326003,-3.1500406,5.4100857000000016,999.6075,5.504113066624871,954.0894451817903,0,0
1.56,8.27822,-3.097609,4.90824,999.6103,5.5190994232916974,956.368320738345,0,0
1.58,7.977108,-3.135742,4.884569,999.6128,5.532977461816728,958.5376153054584,0,0
1.6,8.144417,-3.1834078,5.286995,999.598,5.546560150263264,960.6022213698603,0,0
1.62,8.072735,-3.054711,4.557898000000002,999.6054,5.5588818016620305,962.5669187314343,0,0
1.64,7.962822,-3.1977084,4.856168,999.6005,5.570250298653286,964.4362462126879,0,0
1.66,8.010635,-3.1929424,4.794622,999.60834,5.580750340424467,966.214603512758,0,0
1.68,7.8959350000000015,-3.2024755000000003,4.7046695,999.61115,5.590167592101009,967.9061875904538,0,0
1.7,8.096702,-3.0642457000000003,5.0124073,999.5784,5.599155998176223,969.5148912461802,0,0
1.72,7.977222,-3.2358422000000004,5.154441,999.6005,5.6077958327498525,971.044649987894,0,0
1.74,8.134971,-2.8735845,4.53897,999.6037,5.615504254064108,972.4991573921156,0,0
1.76,8.034616999999999,-3.08808,4.8609114,999.61084,5.622645874376229,973.8819621918744,0,0
1.78,8.178026,-2.9784496,4.993476,999.59393,5.629570471638867,975.1963715970503,0,0
1.8,8.077658999999999,-2.8688188,4.6573343000000005,999.5936,5.635698983845091,976.4456137697148,0,0
1.82,8.2975445,-2.9117184,4.917728,999.61365,5.641766710568869,977.6328490839096,0,0
1.84,8.388369,-2.9784503,5.1544485,999.62604,5.648197090197258,978.7610656948303,0,0
1.86,8.297566999999999,-3.1881793,4.737822,999.612,5.65448136129248,979.8330212557383,0,0
1.88,8.096839,-2.9450855,4.823044,999.5967,5.660200545313948,980.8513504328363,0,0
1.9,8.809036,-2.4684298,6.139208999999999,999.61127,5.667776440180648,981.8186818041617,0,0
1.92,8.479253,-2.678159,4.3211994,999.58185,5.674615225740901,982.7373632093696,0,0
1.94,8.866425,-2.3921657000000005,4.9319386,999.57916,5.681895258069898,983.6097405674577,0,0
1.96,8.890347,-3.683903,5.220739,999.5917,5.690628710036088,984.4381082550217,0,0
1.98,8.082576,-2.0823402,3.7151997,999.5795,5.696848188422071,985.2245629540347,0,0
2.0,8.039572,-1.7915808999999998,4.5958004,999.6279,5.7014394666017605,985.9713263394484,0,0
2.02,7.671535,-2.7877915,5.3959160000000015,999.59265,5.705308232246705,986.680203231978,0,0
2.04,7.733688000000001,-2.9736874,4.0466120000000005,999.59564,5.707353162360192,987.353062426582,0,0
2.06,8.5845,-2.0299094,5.447996,999.59265,5.710163015296582,987.9916633261982,0,0
2.08,7.561638,-3.04042,4.946151,999.6175,5.711904146981786,988.5977840931247,0,0
2.1,7.781524,-2.968922,6.025596,999.60364,5.714245932496909,989.172973484046,0,0
2.12,8.087454,-2.1061757,4.5295260000000015,999.5631,5.71550120224621,989.7186152853212,0,0
2.14,8.192625,-2.2634723,6.1960382,999.6084,5.717896298450524,990.2363476059012,0,0
2.16,7.7529062999999985,-2.1061766,7.696847,999.5999,5.722552865926932,990.727524672984,0,0
2.18,7.0980883000000015,-1.1576321000000005,3.1044755,999.6079,5.722347446686356,991.1934980806357,0,0
2.2,7.399223299999999,-1.5151241000000002,6.1534330000000015,999.6334,5.721814097434104,991.6356158305466,0,0
2.22,8.073191,-1.7439193,7.0813774999999985,999.6471,5.72335692060264,992.0551124173778,0,0
2.24,7.126805,-1.1957656,5.7794175,999.63965,5.723348619702388,992.4530839367993,0,0
2.26,7.236763499999999,-1.939349,6.8162546000000015,999.629,5.723789602693857,992.8305648691876,0,0
2.28,6.8257074000000015,-1.5627911,5.547435,999.5824,5.722141451904206,993.188413627517,0,0
2.3,7.1985474,-2.396939,6.2718,999.5966,5.720545335622567,993.5276782613176,0,0
2.32,7.709994,-2.5637689,6.6789594,999.6136,5.720402009324608,993.8493618100032,0,0
2.34,7.604853599999998,-1.8964511,6.224458,999.57745,5.72048462443682,994.1542225111057,0,0
2.36,7.3993449999999985,-1.5818589,4.4964023,999.6238,5.71825790321655,994.4432879055597,0,0
2.38,8.097211999999999,-1.5437268999999998,4.9319690000000005,999.5829,5.715670017257862,994.7172086916396,0,0
2.4,8.307538000000001,-1.7772883999999998,5.7368193,999.61566,5.714113458998629,994.9768795229297,0,0
2.42,7.92853,-1.7867872,6.375835,999.60815,5.713637432247096,995.2229972431752,0,0
2.44,7.0729294000000005,-2.8068297,5.973408999999998,999.62836,5.712754747623001,995.4563261667087,0,0
2.46,8.463837,-0.7190776,6.659897,999.59644,5.713843547907965,995.6774000133428,0,0
2.48,7.708611500000001,-2.5685012,6.1722517,999.6008,5.715443877969543,995.8868651041804,0,0
2.5,7.9810367,-2.0775454,5.3200564,999.5972,5.716680511289512,996.0853056640697,0,0
2.52,7.914111599999999,-2.4302702000000003,5.353197,999.5959,5.717684298132732,996.273285882397,0,0
2.54,7.9905643,-2.3063392999999994,5.50943,999.63104,5.718722470030634,996.4514731181343,0,0
2.56,8.1626215,-2.3111055,4.9507685,999.6013,5.719467890346181,996.6202587364068,0,0
2.58,8.286880499999999,-2.3921366,5.604115,999.6136,5.720915409328136,996.7801737372612,0,0
2.6,8.014417,-2.5113,5.125939,999.6047,5.722049841255661,996.9316429265617,0,0
2.62,8.071765,-2.64953,5.173282,999.609,5.723126611454477,997.0751195876924,0,0
2.64,7.694137599999999,-3.1118853,5.372125,999.5997,5.724023539192275,997.2109840549516,0,0
2.66,8.196000999999999,-2.7877593,5.566234,999.6525,5.72560147685217,997.3398233556239,0,0
2.68,8.176872999999999,-2.6971943,5.329513,999.62427,5.727430477584579,997.4618897696181,0,0
2.7,8.669169,-2.5065315,6.016,999.6047,5.7309702199285315,997.5774617698524,0,0
2.72,7.631944,-3.092818,5.547293,999.6739,5.734103431255047,997.6871283668879,0,0
2.74,7.7036257,-2.8449564,5.6230416,999.56824,5.736915670224825,997.7908017739079,0,0
2.76,7.2017303,-3.1214166000000003,4.4773144999999985,999.6152,5.737529240679165,997.8889754299646,0,0
2.78,8.009501,-3.0975833,4.614611,999.5838,5.737679070310903,997.9818230409084,0,0
2.8,8.87463,-3.116649,6.342667,999.6641,5.740735309768316,998.0699193869908,0,0
2.82,7.517158,-2.7591574,5.106987,999.59106,5.742509275856294,998.1532374245965,0,0
2.84,8.463543,-2.2920341,4.9791565,999.5985,5.744361880866653,998.232060187896,0,0
2.86,7.201650999999999,-3.8506978,4.837122,999.59796,5.74504694279217,998.3066252208713,0,0
2.88,8.152823,-3.0356164,5.665642299999999,999.6176,5.746548382850432,998.3772303932127,0,0
2.9,8.382239,-2.8735528,5.249013,999.6264,5.748593749696775,998.4441141340784,0,0
2.92,8.062111999999999,-2.9021552,5.092788,999.6136,5.750423740667057,998.5074227566245,0,0
2.94,7.746635,-3.2596467,5.457337,999.6132,5.752167217861578,998.5673430535824,0,0
2.96,7.861339999999998,-3.0451512000000003,5.1922092000000015,999.6062,5.753579093290666,998.6240285129816,0,0
2.98,7.976045,-3.078517,5.641977,999.6362,5.7554041698100695,998.6777596022597,0,0
3.0,7.7609386,-2.9498198,4.6808915,999.61676,5.756107642469088,998.728616794178,1,1
3.02,7.7609386,-2.9498198,4.6808915,999.6136,5.755817533455494,998.7767401484978,1,1
3.04,8.081176,-3.030851,5.35791,999.61926,5.755954657975531,998.8222950158403,1,1
3.06,7.8421755000000015,-3.0737498,4.8229218000000005,999.62885,5.75552811858605,998.8654508945668,1,1
3.08,8.033357,-3.1071155,5.272689,999.6013,5.755421749729412,998.9062324857894,1,1
3.1,7.9473057,-2.9831843,4.7187624,999.6038,5.7547945597734484,998.9447783428446,1,1
3.12,7.803901,-3.2596447,4.9460125,999.61163,5.753886643433764,998.9812381281046,1,1
3.14,8.114578,-3.1595466,4.491509,999.61255,5.752735385095055,999.015726717099,1,1
3.16,7.8564587,-3.4884386,4.619337000000002,999.5922,5.751291277258027,999.0482761381528,1,1
3.18,7.784751400000001,-3.4217067,3.7908154,999.5925,5.748661601461307,999.0789960124988,1,1
3.2,7.454935000000001,-3.907895,4.0938163,999.6199,5.745096947606605,999.108087347826,1,1
3.22,7.3449893,-3.9031286,3.3741858,999.61163,5.739921116946081,999.1356052052686,1,1
3.24,8.06195,-3.8697624,3.3836536,999.6027,5.73455690764303,999.1616015253661,1,1
3.26,8.42999,-3.2787092,3.1327295,999.60724,5.7290683103008355,999.1861761723128,1,1
3.28,8.501681,-3.2834756,3.104323,999.615,5.7236051708367945,999.2094340961348,1,1
3.3,8.367832,-1.5484486000000002,2.526724,999.62726,5.716623637061268,999.2314889708776,1,1
3.32,9.935602,-0.6809351,4.86552,999.6006,5.7129123908908905,999.2523054579053,1,1
3.34,18.037348,3.8234618,6.901312,999.6176,5.729986097920276,999.2720139661943,1,1
3.36,18.42451,3.5470016,5.4241769999999985,999.6027,5.7650391906246785,999.2906188738403,1,1
3.38,16.655966,-0.43307304,4.609858,999.60864,5.811189469882297,999.3082030462906,1,1
3.4,16.106285,-2.0155697,4.141151399999999,999.61536,5.865865615753901,999.3248461861008,1,1
3.42,14.104044,-4.8278503,3.028612,999.62585,5.924677872687201,999.3406356781675,1,1
3.44,9.123504,-6.7773724,2.228499,999.581,5.979387791694265,999.3554525849157,1,1
3.46,6.28909,-6.5438113,1.0638363000000002,999.59143,6.02519697746434,999.3693943224132,1,1
3.48,4.9842086,-6.3579164000000015,0.8081789,999.58655,6.0608583443415895,999.382495002105,1,1
3.5,2.9528072,-5.723964,0.49097523,999.6087,6.083975255704132,999.3948851006733,1,1
3.52,2.6851432,-5.7430305,0.39155316,999.5669,6.0957010723237195,999.4064522454056,1,1
3.54,2.6755936,-5.719198,0.15009946,999.56683,6.097244825725298,999.4172503344078,1,1
3.56,3.6124456,-7.206364,0.68035376,999.58655,6.0934730693592005,999.427401004646,1,1
3.58,4.7165904,-8.98429,1.1822015,999.5743,6.089436854000062,999.4368989732519,1,1
3.6,7.221217599999999,-11.386636,0.94074786,999.5743,6.09204128386654,999.4457860220084,1,1
3.62,11.021172,-14.284702,1.6367062,999.5845,6.110065084213951,999.4541379886103,1,1
3.64,13.301144,-14.627894,2.6309316000000003,999.59393,6.145450338952762,999.4620210375407,1,1
3.66,16.18816,-13.088297,5.703562000000002,999.5997,6.199455670655728,999.4694821438408,1,1
3.68,16.17383,-10.137798,4.05599,999.5972,6.265417031394256,999.4765345616494,1,1
3.7,14.916753,-8.48857,2.9386714,999.587,6.3373365466018114,999.4831637536032,1,1
3.72,11.986748,-5.781166000000002,4.647793,999.5899,6.407368851180304,999.4894055581008,1,1
3.74,10.22301,-3.6362154,4.685669,999.6001,6.470748086066263,999.4953193165454,1,1
3.76,9.783274,-2.6400054,4.112806299999999,999.59326,6.526185444133742,999.5008972999676,1,1
3.78,8.617011999999999,-1.591363,2.9623470000000003,999.5927,6.5709012026602505,999.5061564958397,1,1
3.8,7.943069,-1.1862059,3.0617707000000003,999.5788,6.60462115577963,999.5110650379272,1,1
3.82,7.498558,-1.1194743,2.6309407000000005,999.5632,6.627319484494263,999.515589911579,1,1
3.84,7.359948599999999,-1.0527426000000002,2.4889088,999.5657,6.639813330422896,999.519768486256,1,1
3.86,9.17629,-2.4684103,2.9576163,999.5715,6.647634673261389,999.5236469082904,1,1
3.88,10.347346,-2.2539155,3.2842907999999995,999.56085,6.6536592142565825,999.5272078131297,1,1
3.9,13.387311,-5.0185184000000005,4.434752,999.5643,6.666141924878437,999.5304877605188,1,1
3.92,18.176464000000006,-9.236917,5.1212215,999.5588,6.696867284889432,999.5334878460941,1,1
3.94,16.321901,-11.472431,5.267988,999.60455,6.742795001711611,999.536394545462,1,1
3.96,15.748326,-12.073018,4.0370426,999.5941,6.801191645960389,999.5391706446601,1,1
3.98,16.312345999999998,-14.4515295,4.2642946,999.6036,6.874461735875228,999.5418555515906,1,1
4.0,15.676631,-15.58597,4.387389,999.5818,6.961297954826901,999.5443717353688,1,1
4.02,14.352626999999998,-15.719434,4.429999,999.59863,7.058156085903749,999.546790365108,1,1
4.04,10.528785,-13.359987,4.477343,999.5861,7.154889696605818,999.5490689810307,1,1
4.06,8.674222,-10.347524,3.260601,999.6196,7.243476692571202,999.5513362777288,1,1
4.08,5.9306154000000015,-8.888958,2.7966294,999.5632,7.31863364795087,999.5533823704911,1,1
4.1,2.661232,-6.9680357000000015,1.830811,999.58496,7.374658529183621,999.5553039775224,1,1
4.12,0.93572414,-6.1386547,0.6614131999999999,999.5632,7.410592683873787,999.5570303351759,1,1
4.14,-0.08715261,-6.329317,-0.80151767,999.5932,7.428927508004137,999.5586859555921,1,1
4.16,1.3754692,-8.607731,-0.8251895,999.54895,7.436582828009912,999.5601138123517,1,1
4.18,3.0101628,-8.960456,-0.07715354,999.5506,7.436222797780345,999.5613412168598,1,1
4.2,8.47348,-12.625939,1.7739988999999998,999.5579,7.440953146184483,999.5624133631025,1,1
4.22,13.506616,-14.704157999999998,2.7019422000000004,999.5855,7.460222257859832,999.5634438234154,1,1
4.24,17.010212,-15.114081,4.3873906,999.5902,7.498557795132742,999.5644506603836,1,1
4.26,18.162146,-14.685092,4.0512476,999.6182,7.554706231393371,999.5655337991514,1,1
4.28,18.974714,-14.184603,4.0323105,999.5756,7.627070117975649,999.5665270988893,1,1
4.3,17.512096,-11.12924,4.4962816,999.5981,7.707680939991148,999.5675184409821,1,1
4.32,15.757908,-8.67923,4.9081755,999.5899,7.7899192026131425,999.5684749644673,1,1
4.34,12.608019,-6.3531504,6.2811527,999.5756,7.866658491569026,999.5693457987472,1,1
4.36,10.629182,-4.7134547,4.306906,999.5937,7.931917066237253,999.5702029430412,1,1
4.38,9.797496,-3.90314,3.8287315,999.5791,7.984344622833526,999.5709923451443,1,1
4.4,9.400775,-0.68094754,2.8581786,999.5937,8.02239722330291,999.5717716084005,1,1
4.42,10.25658,0.30572435,3.047575,999.58875,8.049388008360259,999.5725212876233,1,1
4.44,12.359709,0.5440518,4.363741,999.5667,8.07152600243222,999.5731627475486,1,1
4.46,13.860579,-0.41879293,5.741453599999999,999.5462,8.093224239491601,999.5736324756481,1,1
4.48,13.105379,-5.2568483,5.604157,999.5588,8.114836840017597,999.5739941304843,1,1
4.5,12.871173,-6.825045599999998,5.111779,999.5588,8.136810750725774,999.5742589898276,1,1
4.52,13.941865,-9.718347,4.269056299999999,999.57153,8.163354728044153,999.57448319518,1,1
4.54,14.983872,-12.706978,4.448964599999999,999.576,8.19928923419646,999.5746867635268,1,1
4.56,16.948381,-15.347651,5.80774,999.5986,8.250556168120372,999.5749527241693,1,1
4.58,17.698822,-16.458257999999994,7.824597,999.5838,8.318954182696274,999.575219577186,1,1
4.6,16.064132999999998,-16.734718,6.811435,999.614,8.399692329895942,999.5755949780338,1,1
4.62,12.445832,-14.484903,4.4063582000000014,999.5791,8.481529757117979,999.575939300302,1,1
4.64,9.993803,-11.644037,3.3553216,999.59125,8.555954718422498,999.5762986619768,1,1
4.66,6.241671599999999,-9.508619,2.2048626,999.5895,8.614996075586317,999.57666371877,1,1
4.68,3.5219736000000004,-7.7974253,1.461562,999.5843,8.654191823025908,999.5770137735643,1,1
4.7,1.9016303,-6.2721276,0.6567142,999.55194,8.671360678591125,999.5772328163962,1,1
4.72,0.8596433000000001,-6.1195984,-0.23808739,999.5595,8.66816793824847,999.5773625245032,1,1
4.74,0.39600736,-6.357926,-0.3990567,999.55237,8.647407691438513,999.5773871614985,1,1
4.76,-0.029390123,-6.5390553,-0.52215075,999.54724,8.611567838873372,999.577300400966,1,1
4.78,0.05665648,-7.873692,-0.4937434,999.51746,8.565295829997645,999.577008313916,1,1
4.8,3.679758,-10.037708,0.8318908000000002,999.53,8.515862689340143,999.5765809958684,1,1
4.82,7.780839999999999,-12.554451,2.1811972,999.56433,8.472558469778345,999.5761593140566,1,1
4.84,13.12945,-12.511553,2.2427452000000003,999.54736,8.441776143036012,999.575683038477,1,1
4.86,18.014421,-14.747067,3.2511744,999.5551,8.433044267309599,999.5751881024364,1,1
4.88,19.343216,-16.42013,4.3969016,999.59406,8.448492247447026,999.5748187157823,1,1
4.9,19.328884,-14.094048999999998,6.016069,999.5816,8.482996071924317,999.5745167383577,1,1
4.92,14.313002,-7.411291599999998,4.605045,999.5944,8.51778595408183,999.5743214908473,1,1
4.94,12.697396,-7.506621400000001,3.7859898,999.5867,8.549514089409985,999.5741935327796,1,1
4.96,9.805517,-5.8669233,2.6686616,999.60785,8.571159830029758,999.5742016323137,1,1
4.98,9.260588,-4.899312,3.1705053,999.5917,8.582180563806258,999.5742717831853,1,1
5.0,8.758643,-2.6351957,4.8748856,999.6063,8.582564816078051,999.5744490700757,1,1
5.02,10.479276,0.19614153,5.5708337,999.56683,8.576677650474052,999.5745782921202,1,1
5.04,11.578566,0.3057739,5.2772945999999985,999.56464,8.567054733515143,999.5746566948669,1,1
5.06,11.325204,-0.8572652,4.884336,999.56,8.553407222434004,999.5746732074325,1,1
5.08,10.426504,-7.158651,4.7044196,999.52856,8.538602906397294,999.5745217903888,1,1
5.1,11.310702,-8.674414,3.4119217000000006,999.5477,8.525246206476398,999.5742914398435,1,1
5.12,11.334569,-9.289299,2.4839752,999.5735,8.513647246030336,999.5740850529179,1,1
5.14,10.598414,-9.742121,1.158336,999.57794,8.502766816474974,999.5739165672403,1,1
5.16,11.081078,-10.500001,2.2425056,999.5843,8.494612499794767,999.5738050736533,1,1
5.18,9.919553,-10.185408,2.3087845,999.587,8.48676455599556,999.5737540596547,1,1
5.2,5.961811,-12.473353,0.04099874,999.59924,8.478012391744713,999.5738007330707,1,1
5.22,9.565719,-7.692495,2.37032,999.5818,8.465742710712838,999.5738707710623,1,1
5.24,9.054215,-7.611461999999999,3.5491807,999.58655,8.450092474986686,999.5739783018556,1,1
5.26,8.279789,-5.909799,4.0178775999999985,999.5917,8.42857629166284,999.574137114178,1,1
5.28,7.514956,-4.498896,2.3040178,999.5818,8.398045635944227,999.574305027135,1,1
5.3,7.285492999999999,-4.0365396,3.49235,999.5843,8.359607470836634,999.574489376926,1,1
5.32,7.24241,-3.4216519999999995,4.8937282999999985,999.56433,8.315058660792253,999.5746156946443,1,1
5.34,7.6390696,-2.7876987,3.7006521,999.5695,8.264330686729977,999.57470889248,1,1
5.36,7.342625,-3.4550142,5.4618416,999.6013,8.210086880679238,999.5748869700743,1,1
5.38,6.697286599999999,-2.4206696,7.265644,999.55927,8.153746246466062,999.5749880983444,1,1
5.4,6.7498320000000005,-2.1299088,6.574418,999.56195,8.094688551300049,999.5750305181296,1,1
5.42,6.6218580000000005,-1.0574601,5.755465,999.5718,8.031731656601995,999.5750563703868,1,1
5.44,6.564472,-2.087036,5.7175875,999.5744,7.965795152832081,999.5750768505077,1,1
5.46,7.36269,-1.8439412,5.371975,999.5667,7.898183961268778,999.5750647900808,1,1
5.48,8.309072500000001,-1.5245813999999998,5.6797094,999.579,7.831167138863053,999.5750683002432,1,1
5.5,7.893219500000002,-2.353962,6.6502614,999.5791,7.765762111746109,999.5750859159418,1,1
5.52,7.1427712,-2.5684564,6.8349020000000005,999.5846,7.701243521206094,999.5751357318758,1,1
5.54,7.486897999999999,-1.96787,6.664461,999.57355,7.637741384931857,999.5751740406005,1,1
5.56,7.778447,-1.8916045,6.195753599999999,999.6853,7.5751747383537875,999.5756043436431,1,1
5.58,7.534658,-2.6685529,6.191017,999.6307,7.513634369158803,999.5761829037747,1,1
5.6,7.678023299999999,-2.5493882,7.9948225000000015,999.5028,7.4558486972262115,999.5764299410533,1,1
5.62,6.043311599999999,-2.9593117,5.4950547,999.51996,7.3960051043579425,999.5764449314047,1,1
5.64,6.9896946,-2.0631983,6.091589,999.5609,7.336243792613917,999.5764022151263,1,1
5.66,7.5393524,-2.4826548,7.346203999999998,999.55927,7.279507534171598,999.5763027950484,1,1
5.68,7.481975999999999,-2.2061942,6.546088,999.5964,7.2243346311653625,999.5762872974052,1,1
5.7,7.5249844,-2.2300267000000003,6.9627146999999985,999.58795,7.171383040056673,999.5763155894168,1,1
5.72,7.1951589999999985,-2.2729254,6.2430835,999.547,7.119133437642288,999.5762350521164,1,1
5.74,7.113883,-2.5684512,6.484536,999.5815,7.068043692302557,999.5761828431703,1,1
5.76,7.0278277000000005,-2.506486,6.2146735,999.6011,7.017638858699382,999.5762264131102,1,1
5.78,7.400633999999998,-2.3730218,6.6265655,999.5585,6.969065643059803,999.576201096422,1,1
5.8,7.262,-2.5398507,6.1152472,999.5858,6.921484209199798,999.576213282649,1,1
5.82,7.080339,-2.6685472000000003,6.1720576,999.58875,6.87481916873047,999.5762691825817,1,1
5.84,7.065989999999998,-2.7448118,5.9400716,999.5877,6.8288532220166624,999.5763597267047,1,1
5.86,7.3479705,-2.6733127,6.309352,999.5681,6.784536652875816,999.5764099964757,0,0
5.88,7.233245399999999,-2.7829432,6.181522,999.5681,6.741558849635752,999.5764244988584,0,0
5.9,7.3814,-2.6113467,6.053691400000001,999.5855,6.699884659700499,999.5764699849676,0,0
5.92,7.536523299999999,-2.4016714,5.8408419999999985,999.57806,6.659378713091227,999.5765159005476,0,0
5.94,7.5700493,-2.5399032000000004,5.873989,999.56976,6.620216937945083,999.5765321503123,0,0
5.96,7.407569400000002,-2.8449636000000003,6.0538992999999985,999.5632,6.5825254355559295,999.5764985128633,0,0
5.98,7.431502,-2.8687973,6.1201844,999.5756,6.5464034990549695,999.576465556167,0,0
6.0,7.4363823,-2.392144,5.694097,999.5981,6.51101093905088,999.576514319628,0,0
6.02,7.6897793,-2.4779437,5.594681,999.5769,6.4767238330785775,999.5765587954712,0,0
6.04,7.489061,-2.268216,4.841913,999.6022,6.442237330024253,999.576690402663,0,0
6.06,7.795036,-2.4350471,5.310625,999.5648,6.408820111038923,999.5767638853281,0,0
6.08,7.331461999999998,-2.8020737,4.5957365,999.60114,6.37512493163517,999.5769165686232,0,0
6.1,8.277965,-2.7019784,4.714106,999.6123,6.342982193179481,999.5771788599361,0,0
6.12,7.627978,-3.4169638,4.643096,999.59894,6.311619093392303,999.5774889606444,0,0
6.14,7.570688,-3.2787354,4.4063816,999.57935,6.280625009841232,999.5777696653716,0,0
6.16,7.804964999999998,-3.5980964,4.288028,999.58496,6.250591457216027,999.5780435812736,0,0
6.18,7.8719497,-3.726795,4.065517,999.57935,6.2215292506176025,999.578290316472,0,0
6.2,8.402609,-3.4789362,3.5068665,999.59656,6.19371123871932,999.5785741025537,0,0
6.22,8.574716,-3.2835083,3.7435899,999.5637,6.167443334982246,999.5787713091668,0,0
6.24,8.890216,-3.2167776000000003,3.677311,999.5984,6.1431146885927745,999.5790162242167,0,0
6.26,9.339584,-3.2120125,3.37905,999.596,6.121198753370867,999.5792937727476,0,0
6.28,9.420909,-3.5504396000000003,4.1649675,999.6088,6.102442834025848,999.579645237048,0,0
6.3,9.009947,-3.5361422999999994,3.3837998,999.5509,6.085212736684607,999.5798523080499,0,0
6.32,8.947875999999997,-3.6791408,3.326993,999.5715,6.069345793153664,999.5800052076787,0,0
6.34,9.449823,-3.0833228,2.5836976000000003,999.59656,6.054822784154304,999.5801999070427,0,0
6.36,9.062726,-3.4074504,2.4795468,999.5818,6.040966261155453,999.5803777037356,0,0
6.38,9.005402,-3.5456812000000006,2.7446766,999.596,6.027884349178319,999.58059104516,0,0
6.4,9.196661,-3.5361497,2.5411031000000004,999.5706,6.015774099564305,999.58074358588,0,0
6.42,8.940696,-3.7029145,2.3751580000000003,999.59076,6.004127284455514,999.5809144299507,0,0
6.44,8.9454565,-3.6790812000000006,2.2994058,999.57104,5.992885436028358,999.581029839824,0,0
6.46,9.165286,-3.55515,2.2236514,999.58044,5.982326553473578,999.5811296925647,0,0
6.48,9.08399,-3.6361804,2.3704143,999.5682,5.972385770146929,999.581171375553,0,0
6.5,9.007492999999998,-3.5217824,1.944316,999.60333,5.962605524912481,999.5812879776896,0,0
6.52,9.480611,-3.5122476,2.2236385,999.59326,5.954014400945216,999.5814341066176,0,0
6.54,9.327639,-3.3930830000000003,2.1952302,999.59863,5.946117376539428,999.5816251313547,0,0
6.56,9.150723,-3.4645803,2.185756,999.59076,5.938571768053019,999.5818268063396,0,0
6.58,8.959512,-3.4455132000000006,1.8070016,999.5682,5.930827574956377,999.5819559498532,0,0
6.6,9.059827,-3.7505713,2.0200443,999.60596,5.923442099604371,999.5821564756427,0,0
6.62,9.002428,-3.6314065,2.1952136,999.60834,5.9162775268572965,999.5824279209177,0,0
6.64,8.753859,-3.5694406,2.0058355,999.60114,5.908734712254412,999.5827351334476,0,0
6.66,8.5721855,-3.4788752,1.6176106,999.58374,5.900318449527817,999.5830102039585,0,0
6.68,8.992747,-3.764867,1.7738404,999.60333,5.892236367711133,999.5833264075276,0,0
6.7,9.1361,-3.6647682,1.9111344,999.57385,5.8847248113425,999.5835716899343,0,0
6.72,9.226896,-3.607569,2.0721023,999.5886,5.8779396318203725,999.5838065233847,0,0
6.74,9.207757,-3.5408368,2.209398,999.6112,5.8717958413741425,999.5841126387377,0,0
6.76,9.097781,-3.636167,2.0910342,999.5976,5.866051100866375,999.5844316767641,0,0
6.78,8.791833,-3.7648633,1.6507311000000002,999.6109,5.860029628577411,999.5848088647276,0,0
6.8,8.834810000000003,-4.0651555,2.010542,999.6009,5.854253817876849,999.5852000760997,0,0
6.82,8.614899000000001,-3.7171955,1.7927557,999.6001,5.847929250760357,999.5855993901936,0,0
6.84,8.872948,-3.4931657,2.4603012000000004,999.60596,5.841757148344902,999.5860255223224,0,0
6.86,8.853808,-3.5074650000000003,2.3608768,999.5927,5.83566601866704,999.5864260807913,0,0
6.88,9.044959,-3.617095,2.6117966,999.5829,5.830237696441053,999.5867673203633,0,0
6.9,8.997121,-3.9745855,2.6259959,999.5681,5.825612023634032,999.5870016372957,0,0
6.92,8.769635000000001,-3.8125703,2.5977678,999.5886,5.821148287536321,999.587214433843,0,0
6.94,8.946525999999997,-3.5456443,2.3847227,999.57794,5.816855056362178,999.5873690729103,0,0
6.96,8.917866,-3.6314425,2.3894591,999.5902,5.812741183775216,999.5875159033278,0,0
6.98,8.78407,-3.7839732,2.7256052000000004,999.5902,5.808851034853559,999.5876553054327,0,0
7.0,8.750629,-3.836406,2.7824197,999.59753,5.8051857470222314,999.587814030033,0,0
7.02,8.664651,-3.9317384,2.8297691,999.605,5.801680998814111,999.5880161485817,0,0
7.04,8.669468,-4.274931400000002,2.8061006,999.57996,5.798618345545093,999.5881657383964,0,0
7.06,8.750763000000001,-4.1462355,2.6593375,999.56036,5.795908798554944,999.5881978152983,0,0
7.08,8.903736,-4.117636,2.469963,999.59674,5.793674948998477,999.5882569103142,0,0
7.1,9.257479,-4.089038,2.3374033,999.605,5.7924323469686225,999.5883694017928,0,0
7.12,9.3435545,-4.303534,2.4320948,999.57666,5.792452198660826,999.5884266454167,0,0
7.14,9.166758,-3.8411796,2.853462,999.57916,5.793109279369644,999.5884438659597,0,0
7.16,8.961246000000003,-3.5122876000000005,2.6404157,999.5829,5.793578919292967,999.5884391241136,0,0
7.18,9.03298,-3.3073266,2.5078557,999.5731,5.793798884568899,999.5883797133718,0,0
7.2,8.631515499999999,-3.5027564,2.1385756,999.605,5.793000467309207,999.5883870510719,0,0
7.22,8.26827,-3.6600533,2.1149054,999.6075,5.790741142879973,999.5884623412802,0,0
7.24,8.105794,-4.2987730000000015,2.6546311,999.56976,5.787750475099544,999.5884615392796,0,0
7.26,8.144071,-4.3893385,2.7824633,999.5947,5.784351962554588,999.5884832890903,0,0
7.28,8.478695,-4.155778,2.9576397,999.56976,5.781091254533121,999.5884351033824,0,0
7.3,8.827697,-3.9460511,2.6120353,999.6123,5.778216239687728,999.5884784401186,0,0
7.32,8.679561,-3.712491,2.275896,999.5902,5.7750575423338075,999.5885229300743,0,0
7.34,8.502747,-3.8983874,2.47001,999.605,5.771584287391425,999.5886215588511,0,0
7.36,8.502747,-3.8983874,2.47001,999.58936,5.767845593081668,999.5887113656261,0,0
7.38,8.679656,-3.941288,2.791955,999.582,5.764423265021322,999.5887665579763,0,0
7.4,8.7227125,-3.9555886,2.5363004,999.55707,5.761240422612046,999.5887012183284,0,0
7.42,8.775487,-3.917461,2.8487892,999.5743,5.758521125754997,999.5885916398294,0,0
7.44,8.780312,-3.8554966,2.621542,999.5771,5.756050468020461,999.5884534463645,0,0
7.46,8.718219,-3.8602645,2.4084978,999.5771,5.753585440351433,999.5882904662117,0,0
7.48,8.703901,-3.8793309,2.5410628,999.5923,5.751192749281076,999.5881608912705,0,0
7.5,8.680069,-3.9603643,2.271208,999.6066,5.7487587172827554,999.5881127796437,0,0
7.52,8.727889,-3.9269989,2.413242,999.6066,5.7464273276030005,999.5881368222036,0,0
7.54,8.80919,-3.8364353,2.479528,999.59143,5.744304971312719,999.5881699216498,0,0
7.56,8.947849,-3.6982062,2.1907332000000004,999.61694,5.742382488030446,999.5883027406024,0,0
7.58,8.747141000000001,-3.731573000000001,2.664178,999.587,5.7405380413005975,999.5884154095627,0,0
7.6,8.632492,-3.9937356,2.6263087000000005,999.6041,5.738751542012408,999.5885714283817,0,0
7.62,8.795050999999999,-3.998503,2.417999,999.61444,5.7372135031681255,999.5888024134678,0,0
7.64,8.971947,-3.907939700000001,2.5505664,999.581,5.736220045007999,999.5889784232014,0,0
7.66,8.995869,-3.931773,2.4700835,999.5841,5.7357331901419375,999.5891163830786,0,0
7.68,8.924239,-3.788778,2.1528847,999.59186,5.7352962974323205,999.5892481614467,0,0
7.7,8.833467,-3.807845,2.252311,999.5743,5.734797158939225,999.5893107874319,0,0
7.72,8.800052,-4.155805,2.5931923,999.61847,5.734644190198977,999.5894710969176,0,0
7.74,8.694941499999999,-4.417967,3.0382304,999.5841,5.735096301415987,999.5895934104303,0,0
7.76,8.580269,-4.236839,2.8535924,999.61285,5.735604390960304,999.5897852103723,0,0
7.78,8.575535,-3.998512,2.5837357000000005,999.6031,5.735791420801531,999.590002618044,0,0
7.8,8.2935705,-4.1033773,2.4417076,999.5988,5.735198491287768,999.5902263900377,0,0
7.82,8.460908,-4.232075,2.7163072,999.6013,5.734485215702707,999.5904639799668,0,0
7.84,8.790758,-4.1891775,2.948297,999.6013,5.734357980764959,999.5907129241008,0,0
7.86,8.867279,-3.8650527,2.815738,999.58655,5.7345413325372485,999.5909179046105,0,0
7.88,8.977260000000003,-3.7935555,2.6263657000000005,999.6234,5.735038074547863,999.5912159609323,0,0
7.9,8.977282,-3.7840228,2.4796011,999.58905,5.735725216777254,999.5914715260393,0,0
7.92,8.819614999999997,-4.041419,2.5553575,999.581,5.736535662673428,999.5916596458736,0,0
7.94,8.814879,-4.093852,2.4938145,999.5859,5.737455487543957,999.5918051338341,0,0
7.96,8.814879,-4.093852,2.4938145,999.583,5.7384686483066965,999.5919019885145,0,0
7.98,8.819704,-3.8793578,2.2570982,999.5855,5.739273868323514,999.5919645221512,0,0
8.0,8.776729,-3.965157,2.5506356,999.5882,5.740031453516522,999.5920062245928,0,0
8.02,8.513907000000001,-3.9889915,2.6216578,999.58795,5.740324028788876,999.5920284704616,0,0
8.04,8.652566,-3.927027,2.6879435000000003,999.5906,5.7404419580963575,999.5920429844176,0,0
8.06,8.686069,-3.979460500000001,2.8347137000000004,999.6201,5.740594338957106,999.5921568142053,0,0
8.08,8.652655000000001,-4.060493,2.7589676,999.583,5.740739920199628,999.5922244296747,0,0
8.1,8.800873,-3.8936646,2.7068932,999.60284,5.740980604372237,999.5923223907564,0,0
8.12,8.7101,-3.9413314,2.52699,999.5931,5.7410789383728416,999.5924117485615,0,0
8.14,8.686246,-4.0461965,2.6832292,999.60284,5.741180696112129,999.5925282468236,0,0
8.16,8.686291,-3.936567,2.5080605,999.5882,5.741097984115658,999.592615602999,0,0
8.18,8.700652,-3.9985323,2.5127969,999.5827,5.74093305498046,999.5926570947447,0,0
8.2,8.466508000000001,-4.4322906,2.7542574,999.5855,5.74079128993814,999.5926679913106,0,0
8.22,8.523888000000001,-4.398926,2.8394790000000003,999.58234,5.7407910459391776,999.5926404387473,0,0
8.24,8.739024,-4.1510663,2.4228554,999.60754,5.740853660798996,999.5926697317227,0,0
8.26,8.826630999999997,-3.936492,2.3326077,999.5953,5.740906294882881,999.5927050839616,0,0
8.28,8.826630999999997,-3.936492,2.3326077,999.602,5.740949920470445,999.5927697828977,0,0
8.3,8.683186,-4.1748185,2.6166675,999.6199,5.741071728277966,999.5929246196592,0,0
8.32,8.702271000000001,-4.174818,2.5125074,999.6003,5.741241094208706,999.5930879847908,0,0
8.34,8.568403,-4.179583,2.3894098,999.6174,5.741150041571653,999.593319857476,0,0
8.36,8.673509,-4.246314,2.574047,999.60724,5.741174274912517,999.5935748526937,0,0
8.38,8.525319,-4.327344999999998,2.4130757000000003,999.621,5.741022172219412,999.5938988969984,0,0
8.4,8.563506,-4.3797760000000014,2.597713,999.5922,5.740928094894871,999.5941791065168,0,0
8.42,8.563506,-4.3797760000000014,2.597713,999.60425,5.740885627464363,999.5944629548636,0,0
8.44,8.702069999999999,-4.2558446,2.432004,999.5875,5.740939827221318,999.5946886966253,0,0
8.46,8.725937,-4.203411599999999,2.4509387,999.621,5.741085995422632,999.5949828827383,0,0
8.48,8.77848,-4.117613,2.4982798,999.58655,5.741358629047464,999.5952124672099,0,0
8.5,8.434283,-4.2892075,2.4651341,999.5944,5.7412540444629645,999.595412403167,0,0
8.52,8.434283,-4.2892075,2.4651341,999.5944,5.740816526373204,999.5955854219272,0,0
8.54,8.558508,-4.2177076,2.6639745,999.59607,5.740352759065157,999.5957400457847,0,0
8.56,8.639714999999999,-4.1652746,2.7491891,999.5788,5.7400157280406106,999.5958156872605,0,0
8.58,8.596680000000001,-4.279671,2.8391414,999.63324,5.739867477121687,999.5960172515944,0,0
8.6,8.620546000000001,-4.3368692000000015,2.7965287999999995,999.6038,5.739955320364704,999.596223371734,0,0
8.62,8.716107000000001,-4.2367706,2.56454,999.6102,5.740205358349877,999.5964558153513,0,0
8.64,8.673055999999999,-4.217703299999998,2.4461767999999995,999.5998,5.740441424831849,999.596673241596,0,0
8.66,8.543951,-4.413131,2.597673,999.60785,5.740688099781678,999.5969055957561,0,0
8.68,8.620412,-4.3273325,2.5834684,999.5924,5.740994203185807,999.5970946837473,0,0
8.7,8.701633000000001,-4.2129345,2.7397006,999.5978,5.741482599057207,999.5972643010347,0,0
8.72,8.582106,-4.417896,2.744432,999.59045,5.742102270832567,999.5973896433864,0,0
8.74,8.553969,-4.3940763,2.725544,999.5874,5.742753174997867,999.597464433172,0,0
8.76,8.587419,-4.3368773,2.5598388,999.61273,5.743345796645047,999.5975854734672,0,0
8.78,8.611311,-4.4036089999999986,2.569307,999.6176,5.743993354846247,999.5977644769673,0,0
8.8,8.573064,-4.398842299999999,2.5124936,999.61444,5.7445842772398805,999.5979826763432,0,0
8.82,8.625625999999999,-4.3464093,2.6261177000000004,999.5972,5.7452301746648,999.5981726596768,0,0
8.84,8.582602,-4.3368764,2.6261172000000004,999.5845,5.745836683463677,999.5982913073757,0,0
8.86,8.534794,-4.208179,2.6829293,999.58014,5.746236991897589,999.5983307997757,0,0
8.88,8.482201,-4.1843457000000015,2.5929742,999.5615,5.746288009281352,999.5982331043808,0,0
8.9,8.472636999999999,-4.2034125,2.6497865000000003,999.5992,5.74606151180045,999.5981502615545,0,0
8.92,8.563437,-4.2129445,2.9480526,999.6136,5.745936497263237,999.5981326806917,0,0
8.94,8.563437,-4.2129445,2.9480526,999.59393,5.745901603107402,999.5981020165905,0,0
8.96,8.539518,-4.2081776,2.7444715,999.61194,5.745778474159893,999.598124738531,0,0
8.98,8.61121,-4.222477400000002,2.768143,999.6131,5.745732545456349,999.5981987265793,0,0
9.0,8.61598,-4.3273410000000005,2.8344235,999.5959,5.745895077499722,999.5982558270026,0,0
9.02,8.539488,-4.3130417,2.5172172,999.5897,5.7459146447413865,999.5982754799595,0,0
9.04,8.525139,-4.332107,2.597701,999.60834,5.7458426268977485,999.5983290775844,0,0
9.06,8.45343,-4.3130407,2.6545131,999.621,5.745575948390717,999.5984580517667,0,0
9.08,8.544242,-4.255842,2.6308405,999.62286,5.7452358968300565,999.5986598603674,0,0
9.1,8.730644,-4.1605105,2.6829178,999.6045,5.745113124862978,999.5988592029499,0,0
9.12,8.678057,-4.041346,2.583495,999.596,5.744931054316836,999.5990250489253,0,0
9.14,8.654147,-4.0699453000000005,2.725526,999.5906,5.744757066314187,999.5991412602527,0,0
9.16,8.592004,-4.084245,2.8296824000000003,999.6274,5.7445514607910715,999.5993456760448,0,0
9.18,8.735384,-4.0747113,2.9433067000000004,999.60284,5.744636872119324,999.5995388774048,0,0
9.2,8.740159,-4.0937777,2.929103,999.60504,5.744995175512973,999.599729394168,0,0
9.22,8.70669,-3.9650803,2.7539291,999.60443,5.74532195572388,999.599914656961,0,0
9.24,8.568066,-4.0365787000000015,2.7918034,999.5662,5.745450685626572,999.5999569823996,0,0
9.26,8.669794,-3.9841795,2.7729897,999.5641,5.745532856262312,999.5998652960208,0,0
9.28,8.540785000000001,-4.0652122,2.7682592999999995,999.5923,5.745406168007192,999.5997570468704,0,0
9.3,8.603011,-4.170078299999999,2.7824705,999.59814,5.745306171555319,999.5996555765528,0,0
9.32,8.612592,-4.232044,2.7777383,999.6104,5.745298815038074,999.5996045973044,0,0
9.34,8.555278999999999,-4.0699825,2.7730079,999.6003,5.745126831484228,999.59956205549,0,0
9.36,8.698717,-4.089049299999999,2.730402,999.59564,5.7450607076437255,999.5995103461432,0,0
9.38,8.569707000000001,-4.027086,2.6688592,999.62335,5.7447673130232175,999.5995504785184,0,0
9.4,8.737045,-4.093818,2.8819115,999.55566,5.7447565772736,999.5994279337624,0,0
9.42,8.603277,-4.1653185,2.8251047,999.61096,5.744782653274507,999.5993611686541,0,0
9.44,8.655876,-4.1796190000000015,2.8913882,999.5908,5.744987248338835,999.5992713547977,0,0
9.46,8.632,-4.160553,2.806171,999.5819,5.7452390904772646,999.5991294583963,0,0
9.48,8.455235499999999,-4.1462555,2.6736157000000005,999.60223,5.745125463928613,999.5990152406863,0,0
9.5,8.455235499999999,-4.1462555,2.6736157000000005,999.5999,5.7446893183036325,999.5989175030513,0,0
9.52,8.613036,-4.160557,2.8203883,999.59906,5.744350349764169,999.5988316550661,0,0
9.54,8.699116,-4.027094399999998,2.8393302000000005,999.604,5.744150994654478,999.5987744058276,0,0
9.56,8.732597,-3.8888648,2.8203945,999.5991,5.744011405867528,999.5987249925399,0,0
9.58,8.656164,-3.950831,2.6878352000000003,999.6015,5.743760411463323,999.5986913209856,0,0
9.6,8.436338000000001,-4.1700935,2.7825274,999.59143,5.743257982576392,999.5986354280448,0,0
9.62,8.5033,-4.1843949999999985,2.9008918,999.5808,5.742738199061972,999.5985218335013,0,0
9.64,8.651564,-4.0128007000000006,2.7683363,999.60834,5.742245320536946,999.598456806762,0,0
9.66,8.570328,-4.0985994,2.739932,999.58575,5.741687841134407,999.5983536046307,0,0
9.68,8.541673,-4.117666000000002,2.6831212000000004,999.5985,5.7410077198471345,999.5982629422508,0,0
9.7,8.704229,-3.946071,2.7210004,999.601,5.7403922757041785,999.59819268638,0,0
9.72,8.699492999999999,-3.9985044,2.8393645,999.6005,5.7399397141378845,999.5981389146216,0,0
9.74,8.674555999999999,-3.9794126,2.7871912,999.5783,5.739541017906978,999.5980199818033,0,0
9.76,8.7844925,-4.07951,2.820332,999.61084,5.739493509051365,999.5979610448303,0,0
9.78,8.727136,-3.9603465,2.8013945,999.605,5.739542248618199,999.5979343083596,0,0
9.8,8.578959,-4.0127788,2.7351127,999.58777,5.739412600626446,999.597874092504,0,0
9.82,8.578959,-4.089043,2.7919257,999.62225,5.739223800420821,999.597908639041,0,0
9.84,8.507264,-4.284472,2.820332,999.5902,5.739043218639377,999.5979114132604,0,0
9.86,8.526382,-4.3083053,2.9718332000000003,999.58527,5.739017318966108,999.5978683554732,0,0
9.88,8.545502,-4.208207,2.8582072,999.60046,5.7390043636031915,999.5978396395324,0,0
9.9,8.588519999999999,-4.0175447,2.7351127,999.605,5.738843465145108,999.5978400434253,0,0
9.92,8.492924,-4.074743700000001,2.7114406000000004,999.61975,5.7384151693800725,999.5979192761482,0,0
9.94,8.492924,-4.136709,2.7209096,999.6066,5.7378114555070265,999.5980205367882,0,0
9.96,8.598081,-4.4131694,2.8771447999999995,999.59924,5.7375804713711975,999.5981144007573,0,0
9.98,8.664997999999999,-4.4513016,2.9528954,999.5821,5.737878128962892,999.5981396871176,0,0
10.0,8.583739999999999,-4.1700745,2.7919257,999.6016,5.738151094489705,999.598174487272,0,0
10.02,8.320851,-4.1986737000000005,2.4415798,999.63367,5.737760214208333,999.5983330205344,0,0
10.04,8.60286,-4.2034407,2.3184853,999.59186,5.7372350053119145,999.5984497976508,0,0
10.06,8.535943,-4.5132666,2.8298008,999.5885,5.737029927966227,999.5985171626396,0,0
10.08,8.521603,-4.5228004,2.725644,999.60364,5.737032187382806,999.598595128558,0,0
10.1,8.760591999999999,-4.3702703000000005,2.2474692000000003,999.59564,5.737258628411079,999.5986533807808,0,0
10.12,8.598081,-4.3083053,2.4889238,999.58057,5.737451894439799,999.598639752274,0,0
10.14,8.535943,-4.265406,2.6214871,999.5885,5.73753601312657,999.5985912070172,0,0
10.16,8.588519999999999,-4.279706,2.7303784,999.6307,5.737691286317892,999.5986639040827,0,0
10.18,8.492924,-4.2940054000000005,2.900817,999.5885,5.737851444819074,999.5986915491555,0,0
10.2,8.445127000000001,-4.2987720000000005,2.9386923,999.59534,5.737958079235294,999.5987039107648,0,0
10.22,8.631539,-4.236807,2.749316,999.61975,5.738181585692012,999.598790599404,0,0
10.24,8.622608,-4.274955,2.6546855,999.58527,5.738472113483229,999.5988185233276,0,0
10.26,8.383642,-4.460850700000001,2.5505310000000003,999.59534,5.738508038249608,999.5988306742224,0,0
10.28,8.431453,-4.5561824,2.6357515,999.5793,5.73854019543567,999.598771100326,0,0
10.3,8.445818,-4.665814,2.6546912,999.57184,5.7387099581990135,999.5986215088699,0,0
10.32,8.441064,-4.5609503,2.4085045,999.5793,5.738761062004117,999.5984197724276,0,0
10.34,8.617942,-4.4799190000000015,2.2806778,999.59924,5.738883436842243,999.598244470926,0,0
10.36,8.627527,-4.6181498,2.5978854,999.586,5.739375482079084,999.5980454944242,0,0
10.38,8.866541999999997,-4.460854,2.4889963,999.581,5.740416945658324,999.5978083150073,0,0
10.4,8.665828999999999,-4.255893,2.1717947,999.586,5.741239616380433,999.5975562333404,0,0
10.42,8.665828999999999,-4.255893,2.1717947,999.60114,5.74186600011938,999.5973463955394,0,0
10.44,8.527239999999999,-4.1510296,2.1812658,999.5562,5.74197537254384,999.5970128558344,0,0
10.46,8.398223,-4.3464594000000005,2.517412,999.5908,5.741740023583745,999.5966957738704,0,0
10.48,8.484283999999999,-4.246362,2.4653356,999.56256,5.741236293954843,999.5962927114607,0,0
10.5,8.584685,-4.22253,2.6215737,999.60065,5.740740328915523,999.5959522517543,0,0
10.52,8.622950999999999,-4.0604677,2.3517148,999.58014,5.740039654461848,999.5955944974517,0,0
10.54,8.4891405,-3.917472,2.5032182,999.60046,5.738873299121495,999.5952959015586,0,0
10.56,7.934708,-4.6610556,2.3233132000000003,999.5931,5.736909845532532,999.5950241569824,0,0
10.58,8.623027,-4.4227276,2.1954865000000003,999.5704,5.735175029067976,999.5946953965096,0,0
10.6,8.298024,-4.894618,2.4748185,999.5924,5.733669590826389,999.5943966403281,0,0
10.62,8.4557705,-4.923217299999999,2.503226,999.6296,5.7326900406211045,999.594259391461,0,0
10.64,8.647001,-4.689657,2.157618,999.6041,5.732118364840756,999.5941735445527,0,0
10.66,9.019838,-4.479929,2.1008065,999.5973,5.732360578643912,999.5941089454643,0,0
10.68,8.771327000000001,-4.6944246,2.489031,999.5921,5.733253128332305,999.5940446335063,0,0
10.7,8.264692,-4.689659,2.7257535,999.6148,5.733949189484124,999.5940625267792,0,0
10.72,8.14043,-4.7087255,2.5458477000000004,999.60187,5.7341718159740696,999.5941064441788,0,0
10.74,8.680242999999999,-4.265428,2.6405077,999.5985,5.734563340945657,999.5941610663942,0,0
10.76,8.316988,-4.5514220000000005,3.1707618,999.5637,5.735043389736703,999.5940996707446,0,0
10.78,7.915489999999999,-5.123409,2.6073682,999.574,5.735154518947352,999.5939730627341,0,0
10.8,7.485319,-5.4141693,3.0997472000000004,999.581,5.734859333527884,999.59381448887,0,0
10.82,7.552248,-4.827883,3.4974384,999.58624,5.733951327802964,999.5936471048436,0,0
10.84,8.536904,-4.5323567,3.0808125,999.5807,5.733591891416597,999.5934525947407,0,0
10.86,8.919295,-4.0509343,3.000328,999.6003,5.733927787137128,999.5933053762726,0,0
10.88,9.402066,-4.2034645,2.5600293,999.5757,5.735639774010514,999.5931119146795,0,0
10.9,9.182212,-3.8602731,3.1707692,999.5782,5.738230662414052,999.5928872891233,0,0
10.92,8.876311,-4.4989915,3.3790834000000003,999.5779,5.741705771906978,999.5926348557408,0,0
10.94,9.100973,-4.0128036,3.6631486,999.6104,5.746136841747961,999.5924757601233,0,0
10.96,8.546533,-4.708721,3.800448,999.57916,5.7511312788908935,999.5922872464992,0,0
10.98,7.958622,-4.375062000000002,3.4927123,999.61456,5.755064460696614,999.5922008577736,0,0
11.0,7.471099400000001,-5.2759423,4.5153456,999.5948,5.7590220162308885,999.5921338816078,0,0
11.02,6.787599,-5.128179,5.088209,999.6049,5.762389380223762,999.5921206594937,0,0
11.04,8.207212,-4.0414042000000014,4.6384416,999.5925,5.765938992744343,999.5921103420596,0,0
11.06,6.6537875999999985,-4.4989940000000015,3.6962962,999.5768,5.766695270392718,999.5920461083433,0,0
11.08,6.094556,-4.5132937,4.1602682999999985,999.60706,5.7645819533782126,999.5920434014416,0,0
11.1,6.883235000000001,-4.4656286,4.5674286,999.5923,5.761479994042928,999.5920419333785,0,0
11.12,7.4138103000000015,-4.0795374,5.310731400000001,999.59393,5.758762741705449,999.5920474332373,0,0
11.14,7.734062700000001,-3.8459768,5.2491846,999.58905,5.756638239528557,999.5920415021527,0,0
11.16,7.036223,-4.703957,5.4054217000000016,999.5868,5.75491032677024,999.5920173920388,0,0
11.18,6.687303,-4.7373233,5.6374073,999.57635,5.753340296822332,999.5919396857307,0,0
11.2,7.198759,-4.7945223,5.088218,999.5909,5.752098174371903,999.5918672815684,0,0
11.22,6.6538672000000005,-4.9899510000000005,5.537987,999.5985,5.751061354319308,999.5918271830368,0,0
11.24,7.1885614,-4.9375033,5.1070976,999.6059,5.7504468979267065,999.5918424141156,0,0
11.26,7.2028937000000015,-5.0233016,5.083425,999.57324,5.750291970126423,999.5917889036057,0,0
11.28,7.709529400000001,-4.408415,5.1497045,999.58606,5.750791471410193,999.5917209976664,0,0
11.3,7.709529400000001,-4.408415,5.1497045,999.5886,5.751867428028015,999.5916497603863,0,0
11.32,6.930399,-4.9184356,4.6383862,999.578,5.752234536698813,999.5915376759888,0,0
11.34,7.011632400000001,-4.818337400000001,4.775682,999.56323,5.752129076905466,999.5913367305817,0,0
11.36,6.7726274,-5.0900307,4.8940405999999985,999.58356,5.7516640888955495,999.5911311789894,0,0
11.38,6.76306,-5.075731299999998,4.747274,999.6027,5.7507028027711335,999.5909912013583,0,0
11.4,7.355733,-4.770671,5.268056,999.5799,5.750410043526322,999.5908275887987,0,0
11.42,7.355733,-4.770671,5.268056,999.5751,5.750709048565612,999.5906264014211,0,0
11.44,7.159737599999999,-4.818336,5.026599,999.5897,5.751028779024838,999.5904452972093,0,0
11.46,7.2218523,-4.765903,4.7567368,999.60004,5.751130276134307,999.5903198144575,0,0
11.48,7.2218523,-4.765903,4.7567368,999.57733,5.751038576866336,999.5901621745662,0,0
11.5,7.441708599999999,-4.780202,4.946111,999.5824,5.751316465895176,999.5899949401297,0,0
11.52,7.3126380000000015,-4.7992682,5.06447,999.59216,5.751864794363028,999.5898549659973,0,0
11.54,6.853754,-4.71347,4.1507273,999.6681,5.750964366962978,999.5900129669764,0,0
11.56,7.532471000000001,-4.67057,5.9355965,999.5962,5.751636099970711,999.5901748499601,0,0
11.58,7.613712299999999,-4.384576999999998,4.6857123,999.54987,5.752219738668655,999.5901727923047,0,0
11.6,6.5716996,-5.008995,3.4216251000000004,999.5723,5.750616002902053,999.5901066321084,0,0
11.62,7.8479,-4.7230015,5.092869,999.591,5.750279311873724,999.5900513890832,0,0
11.64,7.737949,-4.3702760000000005,4.9745073,999.6355,5.750448570434642,999.5901661913454,0,0
11.66,7.001844,-4.7563663,5.5805099999999985,999.5314,5.750969168298187,999.5900560723353,0,0
11.68,6.074547,-4.675335,3.8477166,999.5515,5.74855250270087,999.5898199693178,0,0
11.7,5.8068705000000005,-5.0185266,3.1896336,999.5755,5.742997236806071,999.5895597968017,0,0
11.72,8.158519,-4.532337,6.167573,999.55005,5.7406649527125095,999.5891876730984,0,0
11.74,7.221654400000001,-4.303542,4.1649175000000005,999.57605,5.7374375832317766,999.5888115689706,0,0
11.76,7.0782447,-4.7515984000000016,5.24436,999.5854,5.734734676161247,999.5884669617152,0,0
11.78,7.417588,-4.332141,4.950825,999.58026,5.732308392268957,999.588132921682,0,0
11.8,7.078214599999999,-4.575235,4.804057599999998,999.58777,5.729691738729173,999.5878364573906,0,0
11.82,7.288502999999999,-4.422704,5.168605,999.6006,5.72747462944266,999.5876204502963,0,0
11.84,7.474907400000001,-4.336906,5.064447,999.5952,5.7257157269011385,999.5874568728063,1,2
11.86,7.087728500000001,-4.532335,4.9082103,999.578,5.723793288177929,999.5872782909944,1,2
11.88,7.2167683,-4.4131703,4.912944,999.5854,5.721821247440508,999.5871137342576,1,2
11.9,7.412725,-4.6228986,5.353242,999.5771,5.7207757383831686,999.5869322824817,1,2
11.92,7.0876827,-4.3845706,4.8324555999999985,999.56757,5.719280851771563,999.5867022474756,1,2
11.94,7.097235,-4.2082076,4.9176745,999.5754,5.717334961275901,999.5864583004534,1,2
11.96,7.058974,-4.6562634,4.875063,999.5704,5.715320919864402,999.5861849389827,1,2
11.98,7.2166996,-4.5895314,4.7235613,999.5897,5.713273112978841,999.585956051007,1,2
12.0,7.6229676999999985,-4.599064,4.9981550000000015,999.5971,5.712116819350653,999.585793923808,1,2
12.02,7.4699907,-4.6991615,4.3448057,999.5771,5.710976647175517,999.5856193700893,1,2
12.04,7.393499,-4.756359,3.6583152,999.5695,5.709200951208304,999.5854071046911,1,2
12.06,7.3409133,-4.9899206,3.2795620000000003,999.55725,5.706746801878666,999.5851181814082,1,2
12.08,7.3026595,-5.423677,2.2143197,999.55505,5.703492720246363,999.5847546433424,1,2
12.1,7.3361034,-5.395077,1.8592379,999.5695,5.699402458540408,999.5843785043917,1,2
12.12,7.0415955000000015,-5.509519999999998,1.6463581000000005,999.582,5.694166096550663,999.5840375853987,1,2
12.14,7.639113,-4.6944394,1.9683017,999.5869,5.688120025029428,999.5837466540692,1,2
12.16,8.212717,-3.1929748,2.7968252,999.5869,5.681515407820183,999.5835009391917,1,2
12.18,10.19157,-2.087134,3.3838922999999994,999.59924,5.6779636543050085,999.5833404861451,1,2
12.2,12.801371,-2.1443331000000003,3.0903618,999.572,5.682116621990173,999.5831578840828,1,2
12.22,13.097746,-2.134801,5.2776594,999.57465,5.695014160910111,999.5829659085176,1,2
12.24,16.094711,-0.8859638000000001,5.4670377,999.602,5.7212857809721775,999.582864801638,1,2
12.26,16.38154,-1.8488092,5.306072,999.5695,5.759898396281501,999.582727350313,1,2
12.28,15.683719,-3.8650637,3.2939527,999.58234,5.807545096010278,999.5826045038613,1,2
12.3,13.738367000000002,-6.07198,2.22398,999.582,5.860298175823195,999.5824937805223,1,2
12.32,12.52431,-6.7249985,1.9067761000000003,999.609,5.915624951139408,999.5824913677703,1,2
12.34,10.029281,-7.4971814,1.4854167,999.5771,5.969423890730348,999.5824698269388,1,2
12.36,6.6595607,-7.830841499999999,0.708978,999.55444,6.016887377449023,999.5823498860831,1,2
12.38,5.4933023,-7.90234,0.8320738000000001,999.57935,6.057243262876463,999.5822331067528,1,2
12.4,2.8835576,-8.083469000000001,0.6569034,999.5722,6.088985981128478,999.5820938013527,1,2
12.42,0.5510411999999999,-8.603025,-1.2699968,999.55237,6.113224583951433,999.5818637054159,1,2
12.44,0.40766108,-9.051082,-1.440434,999.5599,6.13170210178582,999.5815813233068,1,2
12.46,2.3052711,-10.3046875,-0.5645666,999.5578,6.147933349731464,999.5812461977112,1,2
12.48,7.204612299999999,-11.691756,0.37758377,999.58026,6.168697640042683,999.5809465304233,1,2
12.5,7.7065053,-12.478238,0.19294325,999.58234,6.195323362573543,999.580686760898,1,2
12.52,11.109767,-12.368608,2.3565702,999.582,6.231447680265803,999.5804619562062,1,2
12.54,13.346745,-12.096915,1.707959,999.57745,6.278541315259213,999.5802524757382,1,2
12.56,12.911824,-10.257026,1.5185869,999.57935,6.3319694575628045,999.580064129884,1,2
12.58,12.12795,-9.189317,1.2723991,999.5897,6.388119995288874,999.5799323966196,1,2
12.6,12.156657,-7.392326,2.1151257,999.6023,6.444634329042237,999.5798965204796,1,2
12.62,11.692847,-6.081519,3.4170716,999.5869,6.499669155028283,999.5798900328482,1,2
12.64,11.358282,-4.389392,3.9047172,999.58484,6.551477762401457,999.5799021202589,1,2
12.66,11.864961,-1.477026,3.26084,999.57745,6.599429358764621,999.5799039730624,1,2
12.68,9.780997,-2.3636062,2.4133842,999.55695,6.639549142396497,999.5798229758963,1,2
12.7,9.780997,-2.3636062,2.4133842,999.605,6.6726043050779325,999.5798420440872,1,2
12.72,11.214959,-2.9355936,2.517543,999.5854,6.702447277358671,999.5798789013817,1,2
12.74,13.3133135,-3.455149,2.7732027,999.5726,6.7338509042693575,999.5798852644424,1,2
12.76,12.883162,-7.6926184000000015,3.0667386000000003,999.57465,6.769189451668877,999.5798720398906,1,2
12.78,15.469055,-8.407602,1.8499985,999.6276,6.812840840410768,999.5800321753333,1,2
12.8,14.685187,-9.432413,-0.26627856,999.61676,6.863165648576153,999.580305891179,1,2
12.82,15.062813,-10.671717999999998,-1.3315178,999.63635,6.9213934519356535,999.580749505292,1,2
12.84,15.531254,-15.600338,0.5953868,999.6806,6.993697276211666,999.5815009445033,1,2
12.86,12.93583,-17.478363,1.7695202,999.66833,7.0777523879544155,999.5824775007904,1,2
12.88,11.444562,-13.422023,3.8005822,999.62866,7.16404658802129,999.5835066429223,1,2
12.9,9.77164,-12.602176,3.31294,999.6122,7.248358042952901,999.5845192889959,1,2
12.92,6.3541117,-10.795651,2.7022042,999.6055,7.323396911134366,999.5854895936264,1,2
12.94,5.101813,-9.832807,2.5270321,999.5726,7.386952814040116,999.5863005522606,1,2
12.96,3.3380857,-8.183578500000001,2.2145634,999.55566,7.435455520807258,999.5869068093216,1,2
12.98,1.0199112,-6.038629,0.8131824000000001,999.54675,7.4643854094811495,999.587297933547,1,2
13.0,-0.33753276,-6.6964145,-0.29940078,999.5416,7.4770258643624175,999.587479018352,1,2
13.02,0.083110295,-8.383776,-0.44143108,999.5476,7.478728021161696,999.5874954604196,1,2
13.04,3.653644,-10.052072,-0.3183347,999.5682,7.4755486054568525,999.587440524973,1,2
13.06,5.94318,-11.110247,-0.9716817,999.58356,7.47209358084362,999.5873780141224,1,2
13.08,13.657814000000002,-14.546935,0.4959866,999.5731,7.483626932126671,999.5872713786839,1,2
13.1,16.639769,-13.607907999999998,0.19766016,999.5704,7.511556217656716,999.5871164186473,1,2
13.12,18.298353,-11.558288,-1.9233539,999.5854,7.554354547393278,999.5869733168518,1,2
13.14,17.533583,-11.3914585,-0.22370277,999.60254,7.608436780022762,999.5869029121643,1,2
13.16,17.14641,-9.222675,2.3849537,999.582,7.669602315459452,999.5868230520992,1,2
13.18,15.602528,-5.2759657,1.3623217,999.5726,7.7303876397745395,999.586701284758,1,2
13.2,12.318796,-4.8183765,2.0961540000000003,999.5946,7.784104278438373,999.5866221265097,1,2
13.22,11.324594,-4.8565087,1.6274475,999.58777,7.829378770724761,999.5865563146264,1,2
13.24,10.172655,-3.893664100000001,1.0356463,999.5854,7.863938997967706,999.5864940005138,1,2
13.26,9.809383,-2.9403524,2.242919,999.5976,7.887955440954999,999.5864789213617,1,2
13.28,10.770114,-0.5141749,2.6216705,999.578,7.903843426419328,999.5864350733062,1,2
13.3,12.084555,-1.5818834,2.8394525,999.6097,7.915438167546811,999.5864800829004,1,2
13.32,12.122788,-2.4875293,3.7768645,999.6162,7.9240806508862045,999.5866268450796,1,2
13.34,10.664943,-5.037637,6.688523299999999,999.6191,7.931372974738162,999.5868734274986,1,2
13.36,10.124816,-9.179775,7.85792,999.65906,7.94202992929654,999.5873511793852,1,2
13.38,10.435496,-9.556333,11.044173,999.6841,7.96016315297928,999.5881216167064,1,2
13.4,11.840753,-10.981533,13.430312,999.66455,7.991185212978716,999.589077517303,1,2
13.42,12.533821,-11.6393175,12.213571,999.6343,8.03351240785555,999.590084952008,1,2
13.44,16.314636,-12.52113,11.380315,999.6394,8.090845085707238,999.5911526554863,1,2
13.46,16.219036,-13.665104,12.824308,999.6278,8.163890127091276,999.5922280087198,1,2
13.48,15.047981,-15.247601,12.540242999999998,999.5704,8.250636669061459,999.5930996100057,1,2
13.5,8.671710000000001,-12.82619,6.0067635,999.5648,8.332100526668015,999.5937678783057,1,2
13.52,6.539912,-11.200793,4.458613,999.5534,8.402592992674249,999.5942130358136,1,2
13.54,3.877555,-9.3370695,4.984131,999.5434,8.458059201608734,999.5944234500588,1,2
13.56,2.3145528,-7.9976673,3.3649638,999.5385,8.495284990058641,999.5944080476655,1,2
13.58,1.3729281,-7.7498064,2.7400222000000003,999.5289,8.51491614006657,999.5941586091394,1,2
13.6,0.111053705,-7.5972757,2.2145026000000003,999.5385,8.518057933268603,999.5937378342646,1,2
13.62,1.6836653,-8.502923,1.3244396,999.5362,8.508394232427102,999.593158901382,1,2
13.64,2.8929536,-8.946213,1.0167032,999.54364,8.4888814740442,999.5924690882421,1,2
13.66,5.6508965,-10.63834,0.055618707,999.55096,8.466117503570239,999.5917101366337,1,2
13.68,9.503414,-10.8719015,-0.37047806,999.54846,8.445548054487652,999.5908838265007,1,2
13.7,10.770061,-11.076863,-0.97648203,999.53815,8.429144447048282,999.5899638570917,1,2
13.72,13.5758,-12.144571,-3.9733608,999.57983,8.423055111901304,999.5891144902366,1,2
13.74,14.899802,-12.544963,-1.8902231,999.5651,8.42802537151646,999.5882775375184,1,2
13.76,16.768701999999998,-11.5249195,-1.6582377,999.55725,8.444507506980147,999.5874263069617,1,2
13.78,15.100544,-6.9204254,-1.8381456000000005,999.5603,8.463406542001435,999.5865765049367,1,2
13.8,14.41703,-5.5762568,-1.0522344,999.5976,8.48184037239958,999.5858653044496,1,2
13.82,11.831153,-5.1424994,0.96935606,999.5618,8.494482540641217,999.5851502526033,1,2
13.84,11.152417,-4.1224566,2.4796307,999.5858,8.500317523071825,999.584520771882,1,2
13.86,12.567237,-2.2444330000000003,5.5948687,999.57495,8.503842328873542,999.5839301079384,1,2
13.88,9.484259,-4.446582,1.1161218000000002,999.61,8.498237900799783,999.583502048889,1,2
13.9,9.938336,-3.9556267,6.745328999999999,999.5796,8.488976031840329,999.583109768537,1,2
13.92,9.938331,-5.175864700000001,4.78055,999.5999,8.475552811369349,999.5828235944513,1,2
13.94,9.369531,-6.8393929999999985,6.314497,999.57983,8.460631354505496,999.5825599540892,1,2
13.96,9.441226,-7.926168,6.342903,999.59186,8.445802976648173,999.5823604816304,1,2
13.98,9.651531,-9.580163,8.572807000000001,999.6045,8.435708217612081,999.5822639300318,1,2
14.0,9.728006,-10.461976,8.994169,999.6023,8.431507297810281,999.5822507468912,1,2
14.02,10.449751,-11.615482,7.237704300000001,999.58044,8.433231387979264,999.5822325795796,1,2
14.04,10.277677,-12.735624,5.2445197,999.58234,8.440113967871026,999.5822169136563,1,2
14.06,10.129498,-11.810911,6.3144946,999.5843,8.45071288854773,999.5822105703577,1,2
14.08,9.245231,-11.667915,5.656412,999.55286,8.462755274444426,999.5820993033653,1,2
14.1,6.8842216,-11.977746,2.8583987,999.5327,8.472252469834165,999.5818231503588,1,2
14.12,6.2246112999999985,-11.753717,3.1140568,999.56757,8.478535661739121,999.5815278302213,1,2
14.14,5.440731,-7.840375,2.2618647000000003,999.54987,8.473949480622915,999.5811529171583,1,2
14.16,4.9770927,-7.5257826,2.4985852000000004,999.5655,8.458849990551604,999.5807652934748,1,2
14.18,4.8289237,-6.910897,2.7684464,999.5575,8.43349994753566,999.5803390341313,1,2
14.2,4.1932144000000005,-6.62967,0.81787235,999.5369,8.397132834154379,999.5798060108524,1,2
14.22,4.910193,-5.976652,0.8841546999999998,999.5627,8.350950776648684,999.5792734498442,1,2
14.24,5.5889273,-5.6382265,0.93623334,999.5428,8.296695871252165,999.578671574518,1,2
14.26,6.965516,-5.156804599999999,2.6879637,999.56464,8.237747939907365,999.5780892438112,1,2
14.28,7.9071425999999985,-4.947076,4.7190237,999.6134,8.177731851514068,999.5777018151213,1,2
14.3,10.555159,-2.6495955,6.092002,999.5971,8.121183819915426,999.5774293165962,1,2
14.32,9.474929,-3.0833526,5.8505473,999.5961,8.065997634351932,999.5772557513595,1,2
14.34,9.795181,-2.9927878,7.346619599999999,999.5695,8.014395634787055,999.5770744684118,1,2
14.36,8.394706,-3.607674,7.6496224,999.5867,7.964716277004258,999.5769489387128,1,2
14.38,7.491325,-3.2978477,7.659091,999.55475,7.915445546483007,999.5767581044914,1,2
14.4,6.76958,-2.9355898,6.0020504,999.572,7.863183702421717,999.5765723541972,1,2
14.42,8.165288,-2.8021264,5.4623284000000005,999.5492,7.809930644554028,999.576309684762,1,2
14.44,8.256108,-2.8354924,5.4907355,999.5536,7.756195009680238,999.575995835184,1,2
14.46,8.366047,-3.0166216,5.3723755,999.5566,7.702387216842755,999.5756486926904,1,2
14.48,9.704397,-3.2263503,5.296625,999.56146,7.651051475959674,999.5752908782891,1,2
14.5,8.380396000000001,-4.3226580000000006,5.353439,999.59125,7.600684668155951,999.5750321663223,1,2
14.52,8.671969,-3.4122462,4.9510144999999985,999.6622,7.550751421521755,999.5751173726297,1,2
14.54,6.697916,-4.3369584,4.368684,999.6302,7.498355605087639,999.5753909583816,1,2
14.56,9.044806,-2.9117580000000003,5.481269,999.50085,7.447864375619915,999.5753643513016,1,2
14.58,7.40056,-3.607675,4.131964,999.51514,7.3955843209779015,999.5751240336208,1,2
14.6,7.605494,-3.2883015,5.386527,999.5585,7.3433067227407145,999.5748518423973,1,2
14.62,8.432381,-3.2644682,5.727402,999.5654,7.292925141988838,999.5745773075996,1,2
14.64,8.298536,-3.650559,5.5190873,999.56146,7.2442138015557624,999.5742875063451,1,2
14.66,7.361677,-4.303577,5.457539,999.586,7.196136083939635,999.5740736029337,1,2
14.68,7.29953,-4.2892769999999985,5.2965684,999.59045,7.148505540456424,999.5739435529083,1,2
14.7,7.352078999999999,-4.1272135,5.5332856,999.6088,7.101645540104669,999.573954123916,1,2
14.72,7.050942,-4.065248,5.433862,999.5713,7.0550142664638855,999.573953909612,1,2
14.74,7.309023,-3.9413168,4.733168,999.561,7.00827911161792,999.5739070861788,1,2
14.76,7.256426299999998,-4.403672,5.433858,999.588,6.962701758848256,999.5739164474826,1,2
14.78,6.888362,-4.5228353,5.1545260000000015,999.5811,6.917566129539412,999.5739505799196,1,2
14.8,7.117783,-4.365539,5.2160730000000015,999.57806,6.873243936581365,999.5739955332537,1,2
14.82,6.907442999999999,-4.5276012,4.8799275999999985,999.5805,6.829275843250654,999.5740586700996,0,0
14.84,6.6875625,-4.665831,4.9746146,999.57806,6.785693653985129,999.5741288626042,0,0
14.86,7.203753,-4.332171400000001,5.1497855,999.5724,6.7432456021902025,999.574184660796,0,0
14.88,6.969533,-4.3655370000000016,4.9130645,999.5782,6.701373836188075,999.5742484192996,0,0
14.9,6.869148,-4.3941360000000005,5.0266886,999.57324,6.6601610076430715,999.5743011260035,0,0
14.92,6.979064,-4.456101,5.504862,999.5786,6.620435372836436,999.5743631735936,0,0
14.94,7.237145,-4.265438,5.69897,999.5802,6.582599274101797,999.5744390114194,0,0
14.96,7.2275662,-4.193939,5.3959665,999.58887,6.546144441592723,999.5745579732809,0,0
14.98,6.931209,-4.375068,5.2113237,999.5654,6.510554752218531,999.5746301192779,0,0
15.0,6.739978999999999,-4.6038623,4.2028922999999985,999.57324,6.474751649105035,999.5746888630517,0,0
15.02,6.5487769999999985,-4.837423,3.710513,999.58795,6.438403636241901,999.5747885091432,0,0
15.04,6.4914002,-5.0948167,3.5353382000000004,999.5875,6.401767493754432,999.5749223177968,0,0
15.06,7.318278,-5.2616453000000005,3.6963053,999.61304,6.3665976114082214,999.5751777747787,0,0
15.08,7.203553,-5.4666076,3.525866,999.5855,6.332775322990353,999.5754406565793,0,0
15.1,7.7484316999999985,-5.1663136,3.7341778,999.5748,6.30094639805449,999.575670632574,0,0
15.12,7.773055,-5.233063,3.166116,999.59283,6.2706967731394325,999.5759356130859,0,0
15.14,7.7013630000000015,-5.3712935,2.9151928,999.57074,6.241828269411927,999.5761510456592,0,0
15.16,8.00728,-5.614388,3.0808978,999.5855,6.215160526733991,999.5763750581164,0,0
15.18,7.964278,-5.895615599999998,2.8867886,999.55316,6.190673977521347,999.5764894213144,0,0
15.2,8.007301,-5.9671135,2.6453342,999.57275,6.168222966041004,999.5765770107196,0,0
15.22,8.184163,-6.0624449999999985,2.3281302000000004,999.5875,6.147894738373918,999.5766937274792,0,0
15.24,7.844808,-6.086278,1.7742058999999997,999.6106,6.128764085745707,999.5769189209892,0,0
15.26,7.7779007,-6.3770385,1.6605811999999998,999.57275,6.1109847512007205,999.5771028938588,0,0
15.28,8.0025625,-6.219742,1.8168175,999.56793,6.0946771789871175,999.5772324298688,0,0
15.3,7.7970405,-6.415171,1.8925687,999.58795,6.079678549373973,999.5773854711397,0,0
15.32,7.400326700000001,-6.7440643,1.6653183,999.5802,6.0656350939460655,999.5775308307104,0,0
15.34,6.8984622999999985,-7.063423599999999,1.2108169,999.6076,6.052064879932603,999.5777675194363,0,0
15.36,6.931926299999999,-6.896594,1.0593164,999.57324,6.038729476638467,999.5779603585249,0,0
15.38,6.9367213,-6.982392999999999,0.8983479999999999,999.5605,6.025748870453218,999.5780678938527,0,0
15.4,7.1087995,-7.0014585999999985,1.0829902,999.57526,6.013446672569853,999.5781528036508,0,0
15.42,7.304781399999999,-7.0872574,1.3339146000000002,999.58057,6.002263257245286,999.5782365318547,0,0
15.44,7.319131,-6.949027,1.2013521,999.5503,5.991898410374776,999.5782099425817,0,0
15.46,7.5103383,-7.1301570000000005,0.7515852,999.56256,5.982750109022035,999.578130108506,0,0
15.48,7.4816647,-6.901363000000001,0.60481906,999.5855,5.974321930522781,999.5780860987263,0,0
15.5,7.510353999999999,-6.910896000000001,0.7752585999999999,999.5748,5.9666414691834255,999.5780353817297,0,0
15.52,7.266594,-7.0491259999999984,0.9693702,999.58795,5.959513496232932,999.5780262608174,0,0
15.54,6.807747999999999,-6.9823947,0.42491496,999.5634,5.9520491157592845,999.5779655470402,0,0
15.56,6.9463673,-6.7726665,0.63796365,999.57806,5.944234158320914,999.5779122403771,0,0
15.58,6.669153999999999,-6.705935,0.6521682,999.5724,5.935633659444969,999.5778452945443,0,0
15.6,6.65482,-6.558171700000001,0.6284967,999.5805,5.926129435908298,999.5777956981464,0,0
15.62,6.9560537,-6.505742,1.1114156000000002,999.5978,5.916327549433504,999.5778238902556,0,0
15.64,6.913049000000001,-6.734537599999999,0.9457128,999.59283,5.906523388863943,999.5779028227984,0,0
15.66,7.0086520000000005,-6.643973,1.0735424,999.5737,5.896792924145869,999.5779574374312,0,0
15.68,6.999107,-6.49621,1.3007951000000002,999.59296,5.886997680486082,999.578059704146,0,0
15.7,6.7792497,-6.639207400000001,0.7894806,999.59656,5.876939654335841,999.57821666808,0,0
15.72,7.2954893,-6.4771447,0.8604985999999999,999.583,5.867251378399186,999.5783725814073,0,0
15.74,7.328962,-6.548644,0.7089989000000001,999.5713,5.858049844605478,999.5784848851304,0,0
15.76,7.386326299999999,-6.4533124000000015,0.8510318000000001,999.5782,5.8492931851437495,999.5785830911133,0,0
15.78,7.362448700000002,-6.7250066,0.6758607,999.5998,5.841271328263402,999.5787462467916,0,0
15.8,7.219067999999999,-6.543878,0.33025038,999.5683,5.833417911446407,999.5788528046608,0,0
15.82,7.864356,-6.253118,0.7800201,999.59296,5.8264242250565985,999.5789977450972,0,0
15.84,7.783113,-6.138721,0.77055264,999.57275,5.81993469897519,999.5791033225844,0,0
15.86,7.639733,-6.34845,0.7989603,999.5757,5.813961220761017,999.579184358891,0,0
15.88,7.520245,-6.4580812000000005,0.5575063,999.60077,5.808388438722598,999.5793336708794,0,0
15.9,7.0805163,-6.710709,0.103004724,999.583,5.802831424947397,999.5794788017372,0,0
15.92,7.0566309999999985,-6.8966045,-0.081635796,999.6027,5.797540089316429,999.5796906356767,0,0
15.94,7.907457400000001,-6.43425,0.027257415,999.5953,5.7931824287264835,999.5799340058572,0,0
15.96,8.170361,-6.262654,-0.07689821,999.58795,5.7898737458109215,999.5801779053276,0,0
15.98,8.361566999999999,-6.3293858,0.5291069,999.6052,5.787931169349741,999.5804834944406,0,0
16.0,7.840582,-6.496216,0.7232187,999.59894,5.786594610684401,999.5808199564008,0,0
16.02,7.4486523,-6.4056516,0.59065664,999.5917,5.785037962941702,999.581156422346,0,0
16.04,7.5538216,-6.229289,0.74215895,999.583,5.783245024130955,999.5814603605344,0,0
16.06,7.4247809999999985,-6.2149897,0.2355789,999.56635,5.780972041146907,999.5816745230198,0,0
16.08,7.5060449999999985,-6.3389206,0.35867405,999.57324,5.778585770502254,999.5818333927092,0,0
16.1,7.280913000000001,-6.5677037,0.907821,999.5748,5.7761417133608886,999.5819484497528,0,0
16.12,7.065815,-6.586769,0.79419464,999.56635,5.773333244513326,999.5819939597376,0,0
16.14,7.065815,-6.586769,0.79419464,999.57574,5.770212891970014,999.582011658105,0,0
16.16,7.4003954,-6.172079,1.168212,999.5683,5.766858525759656,999.5819779344133,0,0
16.18,7.2952337,-6.2340436,0.9788353,999.5958,5.763182378482763,999.5819978955954,0,0
16.2,7.8305583,-6.110113,1.4996188,999.6052,5.760064607122383,999.5820990608715,0,0
16.22,7.6680417,-6.0243150000000005,1.3717893,999.59045,5.757041133399338,999.5822185138907,0,0
16.24,7.758852,-6.1005797,1.4854146,999.5953,5.754389670291512,999.5823711559284,0,0
16.26,7.6919284,-6.191144,1.6085086000000002,999.6109,5.752124302103338,999.5826087342713,0,0
16.28,7.409913,-6.348440599999999,1.1492707,999.588,5.749835823299416,999.582838067052,0,0
16.3,7.581979799999999,-6.243576,1.2108173,999.5782,5.747683176026327,999.5830240084554,0,0
16.32,7.6680100000000015,-6.2292760000000005,0.89361167,999.588,5.74570718346444,999.5832062198492,0,0
16.34,7.562848,-6.2388096,0.95989275,999.5934,5.743751422753055,999.5834039194452,0,0
16.36,7.7157927,-6.2149763,1.0214391,999.5777,5.742047396125666,999.5835580726981,0,0
16.38,7.691890700000001,-6.0815125,0.98356354,999.5961,5.740353195419633,999.5837394334508,0,0
16.4,7.7253422999999986,-6.124411599999998,0.7468428,999.59033,5.738740076445382,999.5839234098514,0,0
16.42,7.6201773,-6.2674080000000005,1.0261718,999.5782,5.7372729784868435,999.5840653671236,0,0
16.44,7.4433217,-6.4008713,0.9740931,999.60114,5.735826993615122,999.5842522692476,0,0
16.46,7.409856299999999,-6.31984,1.2297503,999.5937,5.734303022903863,999.584451427795,0,0
16.48,7.342936,-6.329373,1.1445308,999.57574,5.732602139973565,999.5845960431476,0,0
16.5,7.591473,-6.119644,0.7847148,999.5811,5.730794307765748,999.5847112395177,0,0
16.52,7.591473,-6.119644,0.7847148,999.58356,5.728898483372268,999.584808882568,0,0
16.54,7.510207,-6.4962019999999985,1.3007641,999.5917,5.72741462965168,999.58491996799,0,0
16.56,7.428944,-6.5581665,0.9409488,999.5757,5.726174015785331,999.5849849311844,0,0
16.58,7.691824,-6.253107,1.011964,999.5909,5.725174231454256,999.5850636269104,0,0
16.6,7.319184,-6.3103099999999985,0.5053996000000001,999.5782,5.723793629810049,999.5851084533971,0,0
16.62,7.462578999999999,-6.17208,0.40124273,999.5585,5.7221136736216245,999.5850522716484,0,0
16.64,7.7015696,-6.138714,0.566947,999.57324,5.720533797694861,999.5849601052772,0,0
16.66,7.1136550000000005,-6.4580736,1.1114036,999.60077,5.718646604103668,999.5849355826928,0,0
16.68,7.28095,-6.472373,0.9883092,999.5961,5.7167439591714295,999.5849541064397,0,0
16.7,7.2952910000000015,-6.386575,0.9456997,999.5885,5.7147305927184116,999.5849832392388,0,0
16.72,7.706355,-6.2340455000000015,1.18242,999.57806,5.713126688824304,999.5849840573192,0,0
16.74,7.701575999999998,-6.1196485,1.262905,999.5855,5.7117556212039995,999.5849866375687,0,0
16.76,7.7159166,-6.2149790000000005,0.7563238,999.6003,5.710634382586466,999.5850440455819,0,0
16.78,7.844972599999998,-6.2912445,1.376531,999.6003,5.710181309914134,999.585149692738,0,0
16.8,7.323975,-6.391342,1.002513,999.5802,5.709535352316692,999.5852252236716,0,0
16.82,7.48171,-6.49144,1.0829982,999.58386,5.709120706058699,999.5852870479993,0,0
16.84,7.787619,-6.372276,0.86521566,999.58057,5.709193072204496,999.585324694602,0,0
16.86,7.787619,-6.372276,0.86521566,999.6027,5.709695501992153,999.58542051024,0,0
16.88,7.763722,-6.35321,1.1682178,999.58057,5.7105763207329225,999.5854877111008,0,0
16.9,7.6872463,-6.5248055,0.69951177,999.57574,5.711804026743346,999.5855119980214,0,0
16.92,7.6824675,-6.4390078,0.7279183000000001,999.57806,5.713215744266184,999.5855066307516,0,0
16.94,7.558194599999998,-6.4151745,0.9741075,999.5855,5.7145999594947465,999.5855018643613,0,0
16.96,7.2953066999999985,-6.4342413,1.210828,999.57623,5.715624400101977,999.5854642740668,0,0
16.98,7.515178999999999,-6.362742400000001,1.0972022,999.59033,5.716546507975901,999.5854485758963,0,0
17.0,7.500841,-6.296011,1.1445464,999.56824,5.7172745767696425,999.5853727541196,0,0
17.02,7.381347,-6.3198442,1.2629066999999998,999.59033,5.717702469011493,999.5853236040826,0,0
17.04,7.199716,-6.357976,1.2534379999999998,999.5978,5.717630116169914,999.5853250901356,0,0
17.06,7.5629826,-6.3818097,1.2771101,999.5777,5.717721259443994,999.5852989528872,0,0
17.08,8.170019,-5.90992,1.0545931999999998,999.5978,5.7182904069567275,999.5853208617842,0,0
17.1,8.170019,-5.90992,1.0545931999999998,999.59033,5.719279870083687,999.5853582533832,0,0
17.12,7.9119115,-6.06245,1.0403901,999.63226,5.720394421352401,999.5855601388878,0,0
17.14,7.730281,-6.052917,1.1824225,999.57324,5.721339808840004,999.5856941724196,0,0
17.16,7.730281,-6.052917,1.1824225,999.58185,5.722132319815666,999.585798765428,0,0
17.18,7.601227799999998,-6.129182,1.3623301,999.57324,5.722724621337745,999.5858459722542,0,0
17.2,7.476953,-6.0910497,1.3197205,999.5674,5.722877548409896,999.585821278706,0,0
17.22,7.1853867,-6.257879,1.2865797,999.5802,5.722394490180093,999.5857792228833,0,0
17.24,7.065892999999999,-6.119649,1.5517066000000002,999.5802,5.7210614572908565,999.585721977156,0,0
17.26,7.280986,-6.1482480000000015,1.5185659,999.5974,5.719344620701852,999.5857134357136,0,0
17.28,7.381362400000001,-6.272178,1.6321917,999.5674,5.717654435416115,999.5856399601263,0,0
17.3,7.591676,-6.6249037,1.1114073999999998,999.59283,5.716646724032122,999.5856009212413,0,0
17.32,7.5964575,-6.558171700000001,1.4996287,999.5724,5.716266838878231,999.5855189031657,0,0
17.34,7.4769625999999985,-6.8441652999999985,0.90309376,999.56586,5.716504273463169,999.5853756599432,0,0
17.36,7.4769625999999985,-6.8441652999999985,0.90309376,999.5523,5.71728631700483,999.5851300178557,0,0
17.38,8.055503,-5.909925,1.1966436000000005,999.59656,5.718309240783214,999.5849541164428,0,0
17.4,7.8451977,-6.0147895999999985,1.6937567,999.5867,5.719473393486358,999.5848049751352,0,0
17.42,7.711369,-6.091055,1.5327874,999.5818,5.72058354296217,999.5846623759653,0,0
17.44,7.634895299999998,-6.143487,1.5280533,999.59656,5.721584785250631,999.5845792067853,0,0
17.46,7.4819508,-6.214985,1.5043821000000002,999.5983,5.722328394749075,999.5845551133534,0,0
17.48,7.4532747000000015,-6.367515,1.4949136,999.58356,5.722995531486063,999.5845302419887,0,0
17.5,7.4962993,-6.3103166,1.7174311000000002,999.5695,5.723658912290728,999.5844541567801,0,0
17.52,7.534544,-6.30555,1.5611963,999.5719,5.724316845214451,999.5843417329253,0,0
17.54,7.639705,-6.2483516,1.3008046999999998,999.59076,5.7249814259318486,999.5842655009683,0,0
17.56,7.381602,-6.429481,1.4191653,999.5758,5.725517658754049,999.584167666608,0,0
17.58,7.247773,-6.534345,1.2203209,999.5685,5.725820200126697,999.5840248165672,0,0
17.6,7.400733,-6.47238,1.2061182,999.5709,5.726062594213071,999.5838513449318,0,0
17.62,7.4533167,-6.4914465,1.1445715,999.5811,5.726343462742998,999.5836881605528,0,0
17.64,7.4437604,-6.410415,1.0924933,999.57025,5.726520633237262,999.5834955934573,0,0
17.66,7.453328599999999,-6.357983,1.3528864,999.59033,5.726617082277674,999.5833500450356,0,0
17.68,7.7353429999999985,-6.195921,1.4333718,999.5856,5.726900121464032,999.5832295382878,0,0
17.7,7.998237599999999,-5.990958999999998,1.3292153999999998,999.5709,5.7274867154424545,999.5830786721878,0,0
17.72,7.787933,-6.052924,1.5185921,999.5905,5.728128650761121,999.582972083682,0,0
17.74,7.252600699999999,-6.429482,1.5517336000000002,999.5799,5.728475978040769,999.5828668425768,0,0
17.76,7.0900936,-6.6153784,1.50439,999.5749,5.728556393472482,999.5827451709033,0,0
17.78,7.5011654,-6.2483535,1.5801413999999998,999.58093,5.728560009864495,999.5826311271968,0,0
17.8,7.596767999999999,-6.296019599999998,1.4617819,999.5746,5.728671675526007,999.5825014461203,0,0
17.82,7.458158999999998,-6.276953,1.4570478999999998,999.56476,5.72863312481121,999.5823229907147,0,0
17.84,7.458158999999998,-6.276953,1.4570478999999998,999.5847,5.7284619816888735,999.582173864752,0,0
17.86,7.3426557,-6.338899,1.0214106,999.5774,5.727961497907039,999.5820249111383,0,0
17.88,7.648537599999999,-6.052905,1.1445028,999.5923,5.72731071200943,999.5819302860448,0,0
17.9,7.529017,-6.172068,1.3196733,999.5574,5.726537331861701,999.5817583662828,0,0
17.92,7.3139133,-6.272166,1.4759076,999.5872,5.725498017552048,999.5816260478624,0,0
17.94,7.285209,-6.357963,1.5753278,999.5678,5.724330400267173,999.5814593575336,0,0
17.96,7.3138622999999985,-6.3674955,1.4096212,999.5646,5.72305838988604,999.581251376272,0,0
17.98,7.4667910000000015,-6.1244006,1.5611198999999998,999.5874,5.721664086184069,999.5810897390747,0,0
18.0,7.4906645,-6.1577663000000005,1.3622727,999.5946,5.720186448935305,999.5809955533864,0,0
18.02,7.724849000000002,-6.0576672999999985,1.4332863,999.579,5.718908202391972,999.58090514692,0,0
18.04,7.52406,-6.119632,1.4995645,999.58966,5.717588210721848,999.5808567812377,0,0
18.06,7.648322599999998,-6.0481334,1.3859377,999.58936,5.7163087596497695,999.580844656908,0,0
18.08,7.6148257,-6.1386967000000014,1.4143407,999.604,5.715140517276673,999.5809173030856,0,0
18.1,7.7103963,-6.1100970000000006,1.5421672,999.5891,5.714231068049135,999.5810109509571,0,0
18.12,7.9063425,-5.9766325999999985,1.5468993,999.5863,5.713705529762728,999.5811127387927,0,0
18.14,7.810734,-6.0481305,1.5279605,999.5784,5.713448337924564,999.5811929126646,0,0
18.16,7.609957,-6.2483260000000005,1.6463183,999.60297,5.713402267583624,999.5813421518122,0,0
18.18,7.566913,-6.3007574,1.6037064,999.57355,5.713528977329021,999.5814459677766,0,0
18.2,7.600333999999998,-6.334122,1.1918098,999.5685,5.713784656694436,999.5814910940787,0,0
18.22,7.710244,-6.39132,1.2959642,999.6251,5.7144299440626565,999.5816879597404,0,0
18.24,7.609843,-6.319821,1.3811811,999.6006,5.715187566193276,999.581929993584,0,0
18.26,7.5285735,-6.3007550000000005,1.4285241000000002,999.60297,5.715902042910208,999.5822195987117,0,0
18.28,7.2847657,-6.4437504,1.0450338,999.59,5.716287007040683,999.5825035032468,0,0
18.3,7.5715413,-6.2673874000000005,1.258081,999.5925,5.716644298784381,999.5827903486824,0,0
18.32,7.595428,-6.0814915,1.4616591,999.6077,5.716830650374378,999.583133480054,0,0
18.34,7.3372803,-6.2626195,1.3622332,999.6053,5.716663641815228,999.5835164704057,0,0
18.36,7.506072,-6.267423,1.3765736000000002,999.6072,5.716460995228443,999.5839401413872,0,0
18.38,7.4057493,-6.410421,1.873691,999.6042,5.716429981345638,999.5843874325573,0,0
18.4,7.4392429999999985,-6.286491000000002,1.5706923000000002,999.60645,5.716328622077789,999.5848620842779,0,0
18.42,7.9698367,-6.038631,1.9021039,999.58435,5.716815841746818,999.5852796430349,0,0
18.44,7.859919,-6.1339625999999985,1.9115742,999.61945,5.7177658191222225,999.585771611238,0,0
18.46,7.157359,-6.6201534,2.0346754,999.5969,5.718721953253657,999.5862463765413,0,0
18.48,7.157359,-6.6201534,2.0346754,999.5765,5.719680085411838,999.586630792208,0,0
18.5,7.3964024,-6.281729,1.3103162,999.60175,5.720288191097634,999.5870248910389,0,0
18.52,7.3964024,-6.281729,1.3103162,999.5961,5.720584824211957,999.5874057871583,0,0
18.54,7.778839599999999,-6.110134,1.5139003999999998,999.6109,5.721051559945145,999.5878269261356,0,0
18.56,7.6355166,-6.348464,1.8689873,999.6089,5.721869610567987,999.5882749076019,0,0
18.58,7.654653999999999,-6.315099,1.9021298,999.603,5.722994631870201,999.588723754358,0,0
18.6,7.6546717000000015,-6.1721025,1.7222241000000005,999.5808,5.724134635281698,999.5890918298363,0,0
18.62,7.396598,-6.3103333,1.3718814,999.6157,5.724943388168817,999.5895128507412,0,0
18.64,7.348853,-6.1339717,1.8547955000000005,999.6103,5.72531416139843,999.5899596985504,0,0
18.66,7.348853,-6.1339717,1.8547955000000005,999.5665,5.725296601019046,999.5902700783597,0,0
18.68,7.320227,-6.076774,1.3150784,999.5874,5.724632153434986,999.5905339976767,0,0
18.7,7.4923534,-6.248372,2.039447,999.5894,5.724151950928192,999.5907631143941,0,0
18.72,7.516288,-6.262673,1.7222452,999.60504,5.723767859475862,999.5910169587137,0,0
18.74,7.731414999999998,-6.2150073,1.717514,999.6173,5.723747445309288,999.5913358745028,0,0
18.76,7.7649089999999985,-5.957614,1.4618593,999.5947,5.723691651443946,999.591629779346,0,0
18.78,7.827064,-5.9385486,1.4334545,999.59467,5.723674000640713,999.5919004184598,0,0
18.8,7.841439200000001,-5.9194830000000005,1.4523954,999.60455,5.723695748770576,999.5921850936743,0,0
18.82,7.5738053,-6.072014,1.3671794,999.57745,5.723485052259434,999.5923835863566,0,0
18.84,7.650317999999999,-6.0577154,1.5470902,999.58374,5.723229778238896,999.59252785758,0,0
18.86,7.7880406,-5.9909615999999986,1.7079782,999.61145,5.7231292549078905,999.5927234553453,0,0
18.88,7.7354607999999985,-6.081526,1.8642133,999.5889,5.723252681752808,999.5928825210916,0,0
18.9,7.764138000000001,-6.0290940000000015,1.4617889,999.57874,5.723414278701522,999.5929721585093,0,0
18.92,7.7115592999999985,-5.986194599999998,1.4949296,999.5874,5.723479877041833,999.5930313023607,0,0
18.94,7.706778999999999,-5.9671288,1.4712576000000002,999.591,5.7234212521431305,999.5930762491794,0,0
18.96,7.735455,-6.086292299999998,1.8216033,999.5807,5.723570358358286,999.5930714096913,0,0
18.98,7.7354546000000015,-6.0100274,1.831072,999.6058,5.723810087365526,999.5931129564447,0,0
19.0,7.544261,-6.0290937000000016,1.4996635,999.6083,5.723729346251782,999.5932043405127,0,0
19.02,7.510801299999999,-6.071993,1.5233355,999.61597,5.7233749722127625,999.5933670438496,0,0
19.04,7.644634,-6.019560299999998,1.7695245,999.5832,5.723013114442747,999.59347420716,0,0
19.06,7.6255136,-6.0147943,1.4712567,999.59296,5.722507196305313,999.5935670455154,0,0
19.08,7.701989,-6.0481596,1.6606330000000002,999.591,5.72210387477067,999.5936398361224,0,0
19.1,7.697209,-6.0147943,1.6653671,999.59753,5.721744438472056,999.5937181584927,0,0
19.12,7.63029,-5.990961,1.4712564,999.59784,5.721222651621258,999.5938022027684,0,0
19.14,7.721106,-5.9623623,1.4854597,999.62537,5.720674863198277,999.5939901083605,0,0
19.16,7.902736999999999,-5.886097,1.6511637,999.5825,5.720362899125235,999.5941147773517,0,0
19.18,7.816699499999999,-5.9528284000000005,1.5470066999999998,999.59784,5.720167073720227,999.5942383456737,0,0
19.2,7.7736797000000015,-5.995727,1.5612098,999.6047,5.72006266175503,999.5943851925985,0,0
19.22,7.792797599999999,-5.9480624,1.4712558999999998,999.6,5.719982398050864,999.5945351598481,0,0
19.24,7.744999000000001,-6.0481596,1.5043966999999998,999.59753,5.7199820407190645,999.5946784523343,0,0
19.26,7.558585000000001,-6.038626,1.589616,999.6214,5.7197676224348015,999.5949012631463,0,0
19.28,7.6637387000000015,-6.17209,1.4949275,999.5917,5.719673940346173,999.595086614233,0,0
19.3,7.544242999999999,-6.17209,1.5280684,999.61475,5.719507205144287,999.5953211786417,0,0
19.32,7.515561999999999,-6.048159,1.6274906,999.6066,5.719103823725287,999.5955690435104,0,0
19.34,7.6350565,-5.986194,1.632225,999.59674,5.7186072099621095,999.5957922723513,0,0
19.36,7.931976299999999,-5.862278,1.7174966,999.59607,5.718390157865382,999.595990517175,0,0
19.38,8.104071000000001,-5.7574143,1.722233,999.60614,5.718581959818013,999.5962022244393,0,0
19.4,7.740827,-5.790781,1.7837824,999.5914,5.718596502306579,999.5963720009698,0,0
19.42,7.673931,-5.876579,1.4807823999999998,999.59924,5.718346321920313,999.5965323403093,0,0
19.44,7.4062839999999985,-6.4152,1.7932551,999.62616,5.7182429821336935,999.5967806757241,0,0
19.46,7.6883244999999985,-6.129207599999999,1.7127731,999.5908,5.718310152166286,999.596978574464,0,0
19.48,7.501923,-6.1864066,1.5896796,999.5857,5.7182622355569785,999.5971128349223,0,0
19.5,7.783952999999999,-6.043411,1.722245,999.6184,5.7184269567400765,999.5973081012579,0,0
19.52,7.6453605,-5.97668,1.4429169,999.5706,5.718377792103371,999.5973844894273,0,0
19.54,7.5975842,-6.195942,1.6322951,999.5973,5.718405349698534,999.5974516818519,0,0
19.56,7.7887974,-5.952848,1.6938444,999.59607,5.7185208234290394,999.5975060790236,0,0
19.58,7.8318267000000015,-5.7955513,1.4239843,999.59515,5.718501756839224,999.59754566248,0,0
19.6,7.717133,-5.971915,1.4381895,999.57214,5.718398957266232,999.5974891780372,0,0
19.62,7.927477,-5.890884,1.8358824,999.6176,5.7186016669790005,999.5975116673427,0,0
19.64,7.8558016,-5.8670516,1.6275706,999.60535,5.718851762056921,999.5975597568904,0,0
19.66,7.9609785,-5.790787,1.8453553,999.6115,5.7193022750710725,999.5976524336901,0,0
19.68,7.7841473,-5.9004183,1.6985905,999.5927,5.719717319612925,999.5977164941487,0,0
19.7,7.855866000000002,-5.895653,1.7932807000000002,999.6148,5.720245356991983,999.5978345985914,0,0
19.72,7.8893460000000015,-5.909953,1.7412041,999.59674,5.720924547366173,999.5979350151217,0,0
19.74,7.8798080000000015,-5.933786,1.7554093999999998,999.59674,5.721753689753728,999.5980194411136,0,0
19.76,8.023212,-5.8527546,1.8643017,999.6065,5.722889956220055,999.598124569932,0,0
19.78,8.501216000000001,-5.590595,2.8585286,999.6061,5.72525810841966,999.5982461733045,0,0
19.8,8.333965,-5.442833,2.654953,999.596,5.728151678274631,999.5983455358198,0,0
19.82,8.333965,-5.442833,2.654953,999.6134,5.731499090318402,999.5984875286099,0,0
19.84,7.6600447,-5.4190010000000015,2.9484892000000005,999.6086,5.734265999088442,999.5986493983362,0,0
19.86,7.7935734,-5.357028,3.9000766,999.5886,5.737329653507709,999.5987562485924,0,0
19.88,6.746805,-5.881349,2.678601,999.58325,5.738800582665482,999.5987948389836,0,0
19.9,7.459009,-5.4809594000000015,4.1083922,999.596,5.740489237953312,999.598818876033,0,0
19.92,6.746823299999999,-6.153043299999998,3.9758294,999.6076,5.7420154979952365,999.5988717272162,0,0
19.94,6.808973299999999,-5.790786,4.0799875,999.58057,5.7431148873274775,999.5988525403036,0,0
19.96,6.7564,-5.828918,4.1699414,999.5782,5.7438829996053675,999.5987612376024,0,0
19.98,6.8472257,-5.571524,4.023176,999.6027,5.744047187867693,999.5986947420804,0,0
20.0,6.5174327000000005,-5.7240543,4.5439620000000005,999.61005,5.743866626977717,999.5986768655656,0,0
20.02,6.4552994,-5.857518,4.553431,999.5824,5.743469550270192,999.5986024731613,0,0
20.04,6.2402215,-5.962383,4.3451185,999.5627,5.742526033680672,999.5984074911293,0,0
20.06,6.2402215,-5.962383,4.3451185,999.5701,5.741103079471145,999.5981332980376,0,0
20.08,6.5987152999999985,-5.790787,4.4776826,999.595,5.739661532879395,999.597879741149,0,0
20.1,6.8186045,-5.7574215,4.733342,999.59467,5.7387211394696225,999.597644143214,0,0
20.12,6.8186045,-5.7574215,4.733342,999.66864,5.738226950427727,999.5976915539633,0,0
20.14,6.1733403,-5.938551,4.8801093,999.5771,5.7376233823571585,999.5976593165068,0,0
20.16,7.4686804,-4.975707,4.700203,999.5459,5.7374908564099405,999.5974444979512,0,0
20.18,5.9582663,-5.9004188,2.7543633,999.5718,5.73506377108165,999.5971623640824,0,0
20.2,7.153235400000002,-4.8756094,5.7701807,999.62585,5.7338964890062245,999.5970163460854,0,0
20.22,7.062428,-5.4523635000000015,4.7570195,999.5988,5.7332386856541335,999.5968937457374,0,0
20.24,5.7384309999999985,-6.0291169999999985,4.160485,999.5256,5.7313585913048675,999.5965287585852,0,0
20.26,6.383713200000001,-5.523862,3.9379685,999.5988,5.728425671784967,999.5962144324067,0,0
20.28,7.4018164,-5.466663400000002,5.1405077000000015,999.5914,5.727119235378949,999.5959193618384,0,0
20.3,7.4066005000000015,-5.466664,5.5571356,999.60864,5.727696629475892,999.5957044317821,0,0
20.32,6.565364,-5.6716256,4.468223,999.60864,5.727870624167799,999.5955610876294,0,0
20.34,6.608395599999999,-5.6668596,4.913259,999.61285,5.728180773286939,999.5954966688208,0,0
20.36,6.5367026,-5.824156,4.9037905,999.5734,5.728690230055455,999.595360200354,0,0
20.38,6.780482000000001,-5.523863,4.5534453,999.5724,5.729010964866652,999.5951569600952,0,0
20.4,6.9525633,-5.581062,4.6102586,999.58496,5.729531388150831,999.5949406679463,0,0
20.42,6.617986,-5.8289227,4.6765413,999.6111,5.730112513455167,999.5948077257988,0,0
20.44,6.6610174,-5.776491,4.283587000000002,999.5882,5.7303713982397735,999.5946664703046,0,0
20.46,6.81876,-5.6382613,4.383010400000001,999.57825,5.730493575677882,999.5944825576565,0,0
20.48,6.8713419999999985,-5.724059,4.742825,999.5657,5.731011958952344,999.5942164352333,0,0
20.5,6.7040625,-5.7049932,4.1794324000000005,999.5702,5.731092325010683,999.5938948302933,0,0
20.52,6.7709837,-5.6716275000000005,4.387747,999.6031,5.73102990888409,999.5936437987793,0,0
20.54,6.7757773,-5.657328,4.4492949999999984,999.57965,5.73088858644562,999.5933716096578,0,0
20.56,6.6754103,-5.7240605,4.2788577000000005,999.5882,5.730458396268968,999.5931124855553,0,0
20.58,6.684974,-5.8146252999999986,4.406687000000002,999.577,5.730015695508323,999.5928255185503,0,0
20.6,6.880955,-5.619196400000001,4.401953,999.5752,5.729603662319112,999.5925085026379,0,0
20.62,6.794932000000001,-5.757427,4.2409844,999.57764,5.729115642435152,999.5921748607683,0,0
20.64,7.0100274,-5.6525626,4.4398300000000015,999.5795,5.72892761229025,999.5918344253132,0,0
20.66,6.685010000000001,-5.690696,4.4493,999.6022,5.728594037119279,999.5915709326144,0,0
20.68,6.9385476,-5.757433,4.4682559999999985,999.5902,5.728591162810848,999.591333175108,0,0
20.7,6.9624605,-5.6525683,4.241006400000002,999.5902,5.728584773572866,999.5911190131453,0,0
20.72,6.6135483,-5.8813634000000015,4.0658345,999.5889,5.728199671583264,999.5909217911874,0,0
20.74,7.0294050000000015,-5.795566,4.506135,999.60736,5.728363300416727,999.5908067034172,0,0
20.76,6.92905,-5.7717338,4.151057,999.61444,5.728519765639532,999.5907900917313,0,0
20.78,6.929057000000001,-5.8813643,4.525076,999.57965,5.729137468082942,999.5907353093152,0,0
20.8,7.1154899999999985,-5.7812676,4.004293,999.5871,5.729852088036998,999.5906738164588,0,0
20.82,7.067699,-5.9004316,4.19367,999.5919,5.73088391420964,999.5906238956317,0,0
20.84,6.9434304,-5.95763,4.1699980000000005,999.5902,5.732062390598598,999.5905782595647,0,0
20.86,6.819169500000001,-5.8765993,4.108452,999.607,5.73303504282218,999.5905970538013,0,0
20.88,6.967357000000002,-5.8003345,4.2457514000000005,999.5969,5.7340624257230415,999.590636350995,0,0
20.9,7.0773134,-5.957631,4.0137672,999.5829,5.735287312547213,999.590643223132,0,0
20.92,7.0295224,-5.990998,4.27416,999.59174,5.736875428292723,999.5906532437488,0,0
20.94,7.0773410000000005,-6.000531700000002,4.2173495,999.58215,5.73881004939652,999.5906314862883,0,0
20.96,7.0630155,-5.9195004,4.103725,999.58527,5.740827225918483,999.5905929600456,0,0
20.98,6.996111999999999,-6.043431,4.5392914000000015,999.6042,5.74334913926656,999.5906079036017,0,0
21.0,7.0821619999999985,-5.9290338,3.9143512,999.5804,5.745751693359688,999.5905843592744,0,0
21.02,7.239909,-5.9052014,4.28837,999.60986,5.748556402486317,999.5906329478136,0,0
21.04,6.82408,-6.186428500000001,4.2646995,999.5858,5.7514367442170355,999.5906584820348,0,0
21.06,7.1825795,-6.0243660000000006,4.2362943,999.5924,5.754658401710343,999.5906873135373,0,0
21.08,7.2447240000000015,-6.0338993,4.4872184,999.5947,5.758490953595513,999.590727234724,0,0
21.1,7.005747,-6.095865,4.1226707000000005,999.6,5.762265104772491,999.5907958910395,0,0
21.12,7.106137,-6.129231,4.458815,999.59265,5.766450358384103,999.5908632305524,0,0
21.14,7.1491685,-6.067266,4.373596,999.58075,5.770894084537983,999.590886324116,0,0
21.16,7.1109505,-6.167364599999999,4.217363,999.5758,5.7754835517127265,999.5908524188217,0,0
21.18,7.206628999999999,-6.1721334,4.3357306,999.5804,5.780429834743442,999.590784831396,0,0
21.2,7.254442999999998,-6.2340984000000015,4.255247,999.57794,5.785750041519715,999.5906788697537,0,0
21.22,7.149304400000001,-6.2579317,4.430422,999.57544,5.791411735345662,999.5905303821156,0,0
21.24,7.048937,-6.3103642,4.4256883,999.56354,5.79727454225584,999.5903020130628,0,0
21.26,7.35964,-6.1864343,4.264720400000002,999.5598,5.8034455662306925,999.5899904189206,0,0
21.28,7.2545094,-6.281766,4.2457843,999.56537,5.809816370858876,999.5896264608284,0,0
21.3,7.354902,-6.2388673,4.406756,999.57764,5.816569562615397,999.5892617161993,0,0
21.32,7.1780567,-6.3437314,4.411491000000002,999.55023,5.8235175226778075,999.5887989136667,0,0
21.34,7.292789,-6.2102685,4.236319,999.5832,5.830461274915518,999.5883698252595,0,0
21.36,7.254567,-6.262701,4.212649,999.5534,5.837366185841336,999.5878647913723,0,0
21.38,7.211573599999999,-6.291301,4.2079167,999.5908,5.844181844175592,999.5874291101803,0,0
21.4,7.2307005,-6.2865343000000005,4.2741989999999985,999.5613,5.850971352597169,999.5869500774828,0,0
21.42,7.1399092999999985,-6.3294344,4.184248,999.5663,5.857561793632352,999.586452463912,0,0
21.44,7.259413,-6.2150370000000015,4.1842489999999986,999.55554,5.863981094769801,999.5859014876908,0,0
21.46,7.0921364,-6.3437343,4.307345,999.5509,5.870252039822191,999.585288639746,0,0
21.48,7.216435400000001,-6.324669,4.1511116,999.5589,5.8763907551452945,999.584652128199,0,0
21.5,7.240350999999999,-6.329436,4.3168172999999985,999.55707,5.882569632266202,999.5839904109345,0,0
21.52,7.087414,-6.372335,4.193724,999.5522,5.888494536758807,999.5832912720804,0,0
21.54,7.087414,-6.372335,4.193724,999.5497,5.894173701380863,999.5825525844092,0,0
21.56,7.235612400000001,-6.2865376,4.2031956,999.5417,5.899726389263912,999.5817528106793,0,0
21.58,7.2547398,-6.2627053,4.2363367,999.5218,5.905172913645162,999.5808303004927,0,0
21.6,7.216525999999999,-6.2198067,4.3073554000000005,999.5243,5.910458196035911,999.5798116614104,0,0
21.62,7.288239999999999,-6.176908,4.1889970000000005,999.5399,5.915532499926182,999.5787679099361,0,0
21.64,7.0922847,-6.286539,4.3073583,999.5374,5.920357646489114,999.5776967266572,0,0
21.66,7.0301550000000015,-6.2865395999999985,4.184264,999.50793,5.924752472022773,999.5764990688963,0,0
21.68,7.173566,-6.2531743,4.444658,999.5473,5.929137123450276,999.5753357018507,0,0
21.7,7.248849400000001,-6.119682,4.160485,999.5024,5.933196992029102,999.5740451822028,0,0
21.72,7.1436777000000005,-6.1482806,4.207827,999.5098,5.936878214809884,999.5726735963858,0,0
21.74,6.899877,-6.205478,4.0326514,999.5048,5.9397885235857455,999.5712173182111,0,0
21.76,7.20574,-6.024348000000002,4.283571,999.49506,5.942432797320868,999.5696563844699,0,0
21.78,7.0384,-6.18641,4.4634743,999.5024,5.9449498376506735,999.5680350204325,0,0
21.8,7.0479455,-6.143511,4.515551,999.49255,5.9473527127935215,999.5663306370952,0,0
21.82,7.071828999999998,-6.0481787,4.288298,999.4814,5.9493613563724335,999.564518893685,0,0
21.84,6.990526700000001,-6.110143,4.330904,999.4749,5.9510121242778435,999.5625954091904,0,0
21.86,7.0430894,-5.971912400000001,4.18887,999.46747,5.952122270905884,999.5605533668179,0,0
21.88,6.985686,-6.0338764000000005,4.250413,999.45886,5.952797617051357,999.558382922057,0,0
21.9,6.9952307000000005,-5.9909773,4.264615,999.44574,5.953059585498593,999.5560596025467,0,0
21.92,7.038218,-6.014809,4.108377,999.46497,5.9529124245722285,999.5536787948583,0,0
21.94,6.999934,-5.9433099999999985,4.0847006,999.4834,5.952240884666585,999.5513221095237,0,0
21.96,6.85173,-6.000508,4.051557,999.4418,5.950938209989501,999.5488454627672,0,0
21.98,6.9712095000000005,-5.962374700000002,4.2504005,999.4484,5.949377181450482,999.5462954940275,0,0
22.0,6.9472647,-5.7955440000000005,3.8669097,999.43964,5.947030064287387,999.5436583818706,0,0
22.02,6.9233503,-5.8622755999999985,4.132035299999999,999.427,5.9442661668651455,999.5409082593941,0,0
22.04,6.951998700000001,-5.838442,4.108360299999998,999.4098,5.941135980426183,999.5380062614398,0,0
22.06,6.942393300000001,-5.8622737,4.094153,999.4421,5.937696418373221,999.5350967935063,0,0
22.08,6.856342,-5.8527403,4.179371,999.4473,5.9339338388058565,999.5322099191836,0,0
22.1,6.8372073,-5.8146076,4.108353,999.39056,5.929763443422247,999.5291491373233,0,0
22.12,6.985320599999999,-5.757407,4.084676,999.4024,5.925372765655537,999.5259883335768,0,0
22.14,6.913608,-5.8146057,4.056268,999.4073,5.920743929474588,999.5227681693857,0,0
22.16,6.8036270000000005,-5.890869,3.8574185,999.4151,5.915690237584102,999.5195352268967,0,0
22.18,6.8432693,-5.876604,3.9948447,999.4151,5.910432893568343,999.5163026320964,0,0
22.2,6.8719883,-5.8337064000000005,3.9569736,999.393,5.904971335288607,999.5130024218553,1,3
22.22,6.843336,-5.8766055,4.009054,999.37823,5.899404263606759,999.5096011753676,1,3
22.24,6.843336,-5.8766055,4.009054,999.40283,5.893764001740861,999.5062114577397,1,3
22.26,6.723868,-5.8766065,3.9380407,999.3508,5.887848012589912,999.502656821996,1,3
22.28,7.039361500000001,-5.852774,4.1794977,999.37585,5.882341163645696,999.4990594412938,1,3
22.3,7.0489473,-5.719311,3.9380455,999.38776,5.876864767032641,999.4954801177164,1,3
22.32,7.0489874000000015,-5.8289433,4.226848,999.3508,5.871812226226808,999.4917965789797,1,3
22.34,7.082459,-5.776511,4.1558332,999.3329,5.867076886004379,999.4879697764676,1,3
22.36,6.9438844,-5.833711,3.8291628,999.3488,5.862232462806164,999.4840874025726,1,3
22.38,6.958251,-5.909977,4.117964,999.35583,5.8576639383402345,999.4801952103497,1,3
22.4,6.838782000000001,-5.9385767,3.9238555,999.3061,5.853055628449282,999.4761293265443,1,3
22.42,6.805337,-5.9433436,3.8244343,999.3435,5.84830519691818,999.4720592460384,1,3
22.44,6.838808500000002,-5.9433440000000015,3.7770915,999.3268,5.843456540705522,999.4679399896177,1,3
22.46,6.7671649999999985,-5.876613,3.9901447,999.3291,5.838527036930237,999.4638003906816,1,3
22.48,7.1208973,-5.824182,4.00435,999.33484,5.8340060365657695,999.4596783836553,1,3
22.5,7.0587864,-5.8480153,4.1037754999999985,999.3115,5.8298833466407824,999.4555027360657,1,3
22.52,6.9154186,-5.8146496,3.8575885,999.30585,5.8256720944555225,999.4512743840056,1,3
22.54,7.0827384,-5.7431526,4.004358,999.3148,5.821678233492096,999.4470469043428,1,3
22.56,7.0445266,-5.7812853,4.084845,999.3144,5.817948223726808,999.4428339744572,1,3
22.58,6.9346046,-5.8146515,4.0138300000000005,999.29974,5.81428451024448,999.438596291302,1,3
22.6,6.8724804000000015,-5.7622194,3.8860025,999.312,5.810431142079363,999.4343961278176,1,3
22.62,7.015915,-5.81942,4.2032113,999.31683,5.8069717501394535,999.4302616253027,1,3
22.64,6.829542599999999,-5.938585,3.994900700000001,999.2944,5.803571856141104,999.4261192770294,1,3
22.66,6.9538302,-5.9099855,4.0564494,999.2821,5.80043226348285,999.4219406286978,1,3
22.68,6.991060000000001,-5.8765945,3.843309,999.28,5.797371196685102,999.4177373887687,1,3
22.7,6.962366,-5.805096,3.9948084,999.2699,5.7943854863023745,999.4134911913676,1,3
22.72,6.924112299999999,-5.7955627,3.77229,999.2951,5.7912269460878685,999.4093130430552,1,3
22.74,7.0005817,-5.743130000000002,3.8291023,999.2576,5.788021537106881,999.4050750642514,1,3
22.76,7.0196853,-5.7764955,4.103696299999998,999.2654,5.7850832976312825,999.4008275559488,1,3
22.78,6.881056,-5.943325,4.0421476,999.2643,5.782342343866642,999.3965829584116,1,3
22.8,7.0531063,-5.719296,4.1652403,999.2552,5.77986843123629,999.3923234533772,1,3
22.82,6.804541,-5.83846,4.165239,999.2453,5.7774232108957175,999.3880304702966,1,3
22.84,6.8379917,-5.786027400000001,3.95219,999.2481,5.774813291942634,999.3837334407536,1,3
22.86,6.957472,-5.7717276,3.994798,999.22577,5.772259687776822,999.3793679170627,1,3
22.88,6.9096584000000005,-5.8003263,4.231517,999.24286,5.769934183653997,999.375019111828,1,3
22.9,6.9239826,-5.857525,3.933248,999.23,5.767654174685512,999.3706544387198,1,3
22.92,7.076914,-5.73836,3.9663868,999.2183,5.765529643452022,999.3662493375824,1,3
22.94,6.8761463,-5.8956566,4.0279326,999.2261,5.763499951849745,999.3618524526016,1,3
22.96,6.943041,-5.800324400000001,3.9474454,999.22327,5.76147390630608,999.3574684682036,1,3
22.98,6.943041,-5.800324400000001,3.9474454,999.19867,5.759458376183756,999.3530231051041,1,3
23.0,6.799632000000001,-5.995753,3.9095687999999993,999.1857,5.757463274936622,999.3484928190906,1,3
23.02,6.804389,-5.938554,3.862223,999.22327,5.755389365989629,999.3440390562204,1,3
23.04,6.785253999999999,-5.957619,4.046863,999.2135,5.753403721557845,999.339633770746,1,3
23.06,6.957312,-5.8336887000000015,3.956908,999.1999,5.751522451892586,999.335238218926,1,3
23.08,6.856921000000002,-5.9528522000000015,4.169955,999.21027,5.749922899869706,999.33090442375,1,3
23.1,7.005087,-5.9147196,4.2551737,999.1907,5.748817867665262,999.3265703464067,1,3
23.12,6.9190283,-5.8384542,4.1415453,999.17566,5.747837930816318,999.3221974784192,1,3
23.14,6.7947380000000015,-5.881352400000001,3.9284961,999.1557,5.7466648562006775,999.3177342213429,1,3
23.16,6.923777,-5.7907877,3.8290722,999.17566,5.745319185807309,999.3132790201938,1,3
23.18,6.866412,-5.881352,4.056323,999.13855,5.7440428276929545,999.3087133799856,1,3
23.2,6.914202,-5.876585,4.056322,999.1483,5.742895401540742,999.3041016921296,1,3
23.22,6.8803990000000015,-5.976675,4.2882767,999.1655,5.742141852816613,999.2995278386487,1,3
23.24,6.8421474,-5.967141000000002,4.1651807000000005,999.1354,5.741565050378628,999.2948955214937,1,3
23.26,6.8134413,-5.8956423,3.9379268,999.12866,5.740823361622428,999.2902039581778,1,3
23.28,7.128882000000001,-5.7240453,4.013675,999.1661,5.740253955288668,999.2856117185828,1,3
23.3,6.7751365,-5.8098426,4.0326085,999.1634,5.739441961471213,999.2811140534897,1,3
23.32,6.7751365,-5.8098426,4.0326085,999.1354,5.7384185405309065,999.2766153460208,1,3
23.34,6.861119,-5.952838,4.2172456,999.1391,5.737671328176923,999.2721452328557,1,3
23.36,6.7654963000000015,-5.9766703,4.311931,999.11804,5.7371489446085056,999.2676406620244,1,3
23.38,6.975780499999999,-5.7812405,3.923707700000001,999.1033,5.7365546552526405,999.2630687968547,1,3
23.4,6.8180203,-5.828905000000002,3.933174,999.0935,5.735735341441737,999.2584186491223,1,3
23.42,6.7032914,-5.871804,3.900032,999.11365,5.734580784358804,999.253788611449,1,3
23.44,7.0617366,-5.7478724,4.141483,999.10596,5.733706767652862,999.2491653271596,1,3
23.46,6.9995856,-5.8003044,3.900027,999.10596,5.732852886827673,999.2445646539836,1,3
23.48,6.8705177,-5.9147015,4.0562615,999.11334,5.732103018785522,999.2400270904112,1,3
23.5,6.789221,-5.9480667,4.132008,999.0961,5.731437870124911,999.2354995617129,1,3
23.52,6.841772,-5.9147,4.0562553,999.0935,5.730818566959231,999.2309878389333,1,3
23.54,6.813053,-5.6477723,3.94736,999.09125,5.729780752202548,999.2264982244648,1,3
23.56,6.913415,-5.724036,3.9615622,999.0888,5.72862811289163,999.2220354875124,1,3
23.58,7.0137777,-5.819367400000001,3.9710298,999.06616,5.727648948051852,999.217531061386,1,3
23.6,6.8846965,-6.0719943,4.307169999999998,999.09125,5.727239844103428,999.21309633864,1,3
23.62,6.789074,-6.0910597,4.28823,999.06366,5.727208610584339,999.2086398468024,1,3
23.64,6.8559637,-5.847965,3.9852254,999.06366,5.727042490423673,999.2041801631664,1,3
23.66,6.879836,-5.6477685,3.7342994,999.07434,5.726341093116213,999.199772162118,1,3
23.68,6.946713000000001,-5.776464,4.0372977,999.06116,5.725674258185959,999.195378248608,1,3
23.7,7.008837,-5.852729,4.2503448,999.0548,5.7254067175334225,999.1909897049356,1,3
23.72,6.852501400000001,-6.0052934,4.2646760000000015,999.069,5.725468604164561,999.186672824809,1,3
23.74,6.8955335999999985,-5.8765965,4.1368480000000005,999.0342,5.725612516519448,999.1823095273596,1,3
23.76,6.8955335999999985,-5.8765965,4.1368480000000005,999.0342,5.725828388719361,999.1779209234352,1,3
23.78,6.728282000000001,-5.7288346,3.800709200000001,999.02124,5.725399899435312,999.1734791016827,1,3
23.8,7.2158637,-5.719302,4.193669,999.0317,5.7254388971537615,999.1690439032164,1,3
23.82,6.728351600000001,-6.0195956,4.1368585,999.02936,5.725502456917805,999.1646220998,1,3
23.84,6.570632000000002,-6.162593,4.340439,999.0391,5.725730397382583,999.160263114742,1,3
23.86,7.1872687000000015,-5.7574363,3.8906746,999.04333,5.726097783722197,999.1559905563316,1,3
23.88,6.7093163,-5.890901,3.7533793,999.02893,5.725939021639818,999.1517579057173,1,3
23.9,6.7953806,-5.828936,4.2220879999999985,999.0065,5.7257589437030685,999.147495007174,1,3
23.92,7.0296187,-5.71454,3.9048858,998.9842,5.725491261120566,999.1431404479953,1,3
23.94,7.0392065000000015,-5.719307,4.1321397000000015,998.9911,5.725358403804541,999.1387454138924,1,3
23.96,6.8767066,-5.8670707,4.288376,999.00146,5.725424905216732,999.1343677342688,1,3
23.98,6.8862944000000015,-5.8146385999999985,4.250503,998.9925,5.725583647616989,999.12998889271,1,3
24.0,6.919781,-5.747908,3.8338783,998.9764,5.725436188096928,999.1255668282953,1,3
24.02,6.843332000000001,-5.795574,4.103741599999998,998.9712,5.7251922650454725,999.1211037715963,1,3
24.04,6.733424,-5.809875,4.0800724000000015,998.9868,5.724703189582291,999.1166767211192,1,3
24.06,7.0345936,-5.695478400000002,4.070607,998.9764,5.724289600299072,999.1122599831216,1,3
24.08,6.8147509999999984,-5.8813744,4.184236,998.95654,5.723948953468377,999.1077967614881,1,3
24.1,6.8291183,-5.9004416,4.1984415,998.97687,5.723730414652096,999.1033817225107,1,3
24.12,7.0394435,-5.719313,4.0422077000000005,998.95355,5.7235708812327735,999.0989411998697,1,3
24.14,7.120728,-5.662115,4.0374756000000005,998.9719,5.7235123303539694,999.0945602057443,1,3
24.16,6.8005095,-5.8766102999999985,4.307339,998.9614,5.723571299222595,999.0902097825948,1,3
24.18,6.848321,-5.790813,4.1274333,998.95123,5.723538412844211,999.0858654214824,1,3
24.2,6.9726240000000015,-5.6954827,3.9901383,998.9364,5.723372678032701,999.081488668486,1,3
24.22,6.938774,-5.781271,4.0942593,998.9316,5.723232697108459,999.077081770332,1,3
24.24,6.7953972999999985,-6.033899,4.420935,998.90686,5.723510174572897,999.0725750367498,1,3
24.26,6.867106,-5.8384705000000015,4.165278,998.91693,5.723788737991865,999.0680325648244,1,3
24.28,6.9101295,-5.6859403,3.7817917,998.89636,5.723621542209929,999.0634008153977,1,3
24.3,6.8002114,-5.771739,4.1179357,998.9113,5.723287810584122,999.0587606386688,1,3
24.32,6.747639,-5.848004,4.1321397000000015,998.8843,5.72283890194068,999.0540325202118,1,3
24.34,6.9675270000000005,-5.843238,4.226829,998.91187,5.722682331454768,999.0493429696704,1,3
24.36,6.733328,-5.9528690000000015,4.212627,998.884,5.722572620512404,999.0446040481213,1,3
24.38,6.814591,-5.871837599999999,4.2126274000000015,998.86597,5.722519652851553,999.0397736544674,1,3
24.4,6.824167299999999,-5.7717404000000005,3.8196733,998.88904,5.722073752330184,999.0349628774783,1,3
24.42,6.7381425,-5.919504,4.075332,998.88745,5.721556180964535,999.0301810285724,1,3
24.44,7.0392814,-5.8432393,4.2031627,998.8664,5.72142687572413,999.0253661751759,1,3
24.46,7.0392814,-5.8432393,4.2031627,998.8768,5.721641107930857,999.0205769324842,1,3
24.48,6.733391,-5.886139,4.103741,998.86597,5.7216845806981445,999.0157885726848,1,3
24.5,6.9102554000000005,-5.790808,3.971179,998.8299,5.721601234818611,999.0108883791046,1,3
24.52,6.972409700000001,-5.790808,4.1889634,998.83356,5.7216827532829235,999.005920185892,1,3
24.54,6.786009,-5.9528713,4.1226826,998.8514,5.72178309221346,999.0009740177004,1,3
24.56,6.8911757,-5.8623075,4.198434400000001,998.872,5.722004019709476,998.9961392770224,1,3
24.58,6.9772240000000005,-5.73361,4.0137934999999985,998.82874,5.7221406881135675,998.9912646627624,1,3
24.6,6.6617684000000015,-5.9290395,4.099014,998.814,5.722061874195669,998.986319300816,1,3
24.62,6.9820259999999985,-5.7526774000000005,4.1132183,998.82434,5.722048212028037,998.9813664535174,1,3
24.64,6.977258,-5.8337092,4.1416254,998.8397,5.7222075866282225,998.9764801184116,1,3
24.66,6.8243155,-5.914741,4.217377,998.83307,5.722464548139901,998.9716462762856,1,3
24.68,6.9151435,-5.7765107,4.193706,998.812,5.7227475816993305,998.9668003667887,1,3
24.7,6.9245199999999985,-5.77174,4.037454,998.7791,5.7229255654361655,998.9618427998366,1,3
24.72,6.814586599999998,-5.781273400000001,3.9238284,998.8066,5.722766136596488,998.9569034195983,1,3
24.74,6.771575500000001,-5.857538,4.170018,998.78394,5.7225521512018185,998.9519163149097,1,3
24.76,6.914973299999999,-5.857538,4.250503,998.7838,5.722566686711367,998.9469044904724,1,3
24.78,6.714225999999999,-5.9767027000000015,4.264707,998.80164,5.722657622339886,998.9419530902344,1,3
24.8,6.714225999999999,-5.9767027000000015,4.264707,998.7538,5.722815737745262,998.9369006818592,1,3
24.82,6.843284,-5.8241725,4.0563936,998.76685,5.722845487760947,998.931824191364,1,3
24.84,6.871968700000001,-5.8051066,3.881221,998.78394,5.72263283736654,998.9268062212736,1,3
24.86,6.8910894,-5.843239,4.018519,998.76166,5.722395967104895,998.9217778165053,1,3
24.88,6.958011,-5.933803,4.1132073,998.7568,5.72242694535966,998.9167407979124,1,3
24.9,6.9102187000000015,-5.9052042999999985,4.222099299999999,998.76855,5.722684766731563,998.9117566014113,1,3
24.92,6.867203999999999,-5.8718386,3.8812225,998.7489,5.722749790861899,998.9067662816176,1,3
24.94,6.9054484,-5.7812743,4.1700215,998.74316,5.7228332138937725,998.9017678524344,1,3
24.96,6.838533,-5.824173,4.113209,998.7521,5.722838933891758,998.8968124361393,1,3
24.98,6.8241954,-5.8718386,3.9995835,998.7484,5.722716961061067,998.8918995455307,1,3
25.0,6.9723754,-5.867072,4.3546643,998.7194,5.722998795999335,998.8869375170246,1,3
25.02,6.8098636,-5.871839,4.2741795,998.70416,5.723338125496308,998.881895069576,1,3
25.04,6.9341445,-5.781275,3.923834,998.7194,5.723494060192247,998.8768545807595,1,3
25.06,6.9054675,-5.781275,3.9380376,998.72437,5.723457253542473,998.8718518603508,1,3
25.08,6.728617999999999,-5.895672,4.160555,998.71576,5.723326961425247,998.8668695259004,1,3
25.1,7.020192,-5.7288427,4.151087,998.71576,5.723323166433783,998.8619231408867,1,3
25.12,7.0679919999999985,-5.70501,4.0800705000000015,998.7169,5.723412001627393,998.8570304317813,1,3
25.14,6.76687,-5.8956723,4.2552443,998.7256,5.723530739093871,998.8522340844617,1,3
25.16,7.0441027,-5.7002435,4.0895405,998.71124,5.723694286343693,998.8474884532657,1,3
25.18,6.809896000000001,-5.733609,3.9427743,998.69366,5.7234698980165435,998.8427414311093,1,3
25.2,6.838889599999999,-5.752683599999999,4.0232882000000005,998.69366,5.723037181305795,998.8380102691797,1,3
25.22,6.9584100000000015,-5.867081,4.241073,998.6664,5.722922463323086,998.8332120175296,1,3
25.24,6.90106,-5.852782,4.236339,998.6728,5.722985123312796,998.8283947991088,1,3
25.26,6.7959127000000015,-5.900448,4.174793,998.69366,5.723058402937072,998.8236532596353,1,3
25.28,6.968010400000002,-5.738385,4.1653266,998.656,5.723183032117418,998.8188600836216,1,3
25.3,6.8246326,-5.7002535000000005,3.9191387,998.67865,5.7228869626971415,998.8141200769948,1,3
25.32,6.972831200000001,-5.7812853,4.2505492999999985,998.65643,5.722819084285536,998.8093641228623,1,3
25.34,6.853353,-5.852784,4.1227217000000005,998.6608,5.722755792269825,998.8046269309486,1,3
25.36,6.9585247,-5.886151,4.383116,998.639,5.723118118723353,998.7998448912224,1,3
25.38,6.9585247,-5.886151,4.383116,998.6639,5.7238552172810735,998.7951300793117,1,3
25.4,6.9776773,-5.6859555,4.0185695,998.6527,5.7243887161934754,998.7904513232221,1,3
25.42,6.958566,-5.738388,4.146399,998.64856,5.724884992602915,998.7858063655773,1,3
25.44,6.8773339999999985,-5.843253,4.165339,998.6413,5.72537254059712,998.7811818580864,1,3
25.46,6.824773,-5.8766193,4.222153,998.6433,5.725866024758643,998.7765992685784,1,3
25.48,6.8295607999999985,-5.8670864,3.9759648,998.59863,5.726146106036918,998.7719094031224,1,3
25.5,6.877366499999999,-5.8003550000000015,3.9996378,998.596,5.726243530033137,998.7671321641541,1,3
25.52,6.8487215,-5.8241887000000006,4.0659223,998.60364,5.726223332124745,998.7623224240108,1,3
25.54,6.84395,-5.8480215,4.1180015,998.61395,5.726166474220161,998.7575383968937,1,3
25.56,6.791388499999999,-5.8813877,4.165347,998.5938,5.726084445063188,998.752721772304,1,3
25.58,6.853534,-5.9004545,4.1227384,998.5958,5.726055835834021,998.7479008844364,1,3
25.6,6.8726697,-5.862322,4.075396,998.58887,5.726014425621193,998.7430686367328,1,3
25.62,6.8918138,-5.790824400000001,4.1984925,998.5938,5.726008866298628,998.7382614955693,1,3
25.64,6.9444075,-5.7812915,3.9901805,998.5715,5.725920810782645,998.7334135642534,1,3
25.66,6.820149400000001,-5.8718567,4.217433,998.5884,5.72588711196497,998.7286078833113,1,3
25.68,6.8297176,-5.8432580000000005,4.316857,998.596,5.725968801580202,998.7238841952507,1,3
25.7,7.026032000000002,-5.7717676,3.9996824,998.56146,5.726074040030391,998.7191256173779,1,3
25.72,6.863548,-5.843267,4.2979527000000015,998.56635,5.72630911693284,998.7143709457467,1,3
25.74,6.9352740000000015,-5.7336364,4.06597,998.574,5.726425772880919,998.7096643824887,1,3
25.76,7.0308847000000005,-5.647839,4.0470333,998.56146,5.726458954781455,998.7049721274167,1,3
25.78,6.7632594,-5.857569,4.108585,998.56354,5.726336445445367,998.7003168951767,1,3
25.8,6.825425999999998,-5.767005,4.335839,998.54346,5.726256624032067,998.6956388471467,1,3
25.82,6.8493395,-5.805137599999999,4.160667,998.51556,5.72613932746565,998.6908570400577,1,3
25.84,6.768112,-5.862336599999999,3.9949658,998.54095,5.725800474541413,998.6860921699698,1,3
25.86,6.7824807,-5.938603,4.2553606,998.5484,5.7256079618651965,998.6813862389481,1,3
25.88,6.77773,-5.852805,4.3216453,998.5557,5.725492466905035,998.676775607837,1,3
25.9,7.0024247000000015,-5.690743,3.9997094,998.5434,5.7252929769326375,998.6722215019992,1,3
25.92,6.8494997,-5.809908,4.0944,998.50653,5.72502194606429,998.6676010046737,1,3
25.94,6.8542943,-5.8289742,3.947635,998.514,5.724594478266018,998.6629653696201,1,3
25.96,7.1028733,-5.7622433,4.1796236,998.5259,5.7245092697950755,998.6583758871558,1,3
25.98,7.212838,-5.6526136,3.957109200000001,998.48364,5.724572471127227,998.6536915712567,1,3
26.0,6.553269,-6.0244055,4.307459,998.52625,5.7245738267285295,998.6490937200716,1,3
26.02,6.553269,-6.0244055,4.307459,998.48083,5.724520530561888,998.6444253093724,1,3
26.04,6.950050999999998,-5.762246599999999,3.952384,998.47565,5.724349136116677,998.6396927105648,1,3
26.06,6.950050999999998,-5.762246599999999,3.952384,998.498,5.724074007052522,998.6350008925003,1,3
26.08,6.8449388,-5.67645,4.4305625,998.4812,5.723873843682764,998.6303015188457,1,3
26.1,7.0074809999999985,-5.4953213,3.7630148,998.4984,5.723184884955943,998.6256743068164,1,3
26.12,6.825892,-5.9624453,4.449507,998.4684,5.72295807909854,998.6210195147627,1,3
26.14,6.8450265,-6.0196443,4.6057440000000005,998.4509,5.723382144155647,998.6162941102513,1,3
26.16,6.97889,-5.7098184000000005,4.155978,998.4459,5.723789087874625,998.6115053240276,1,3
26.18,6.907236599999999,-5.638321,4.118107,998.4582,5.723956365061562,998.606722053354,1,3
26.2,6.934072500000001,-5.7288404,4.117938,998.461,5.724058770480737,998.6019709559951,1,3
26.22,6.934072500000001,-5.7288404,4.117938,998.41595,5.724103486546414,998.5971032109268,1,3
26.24,6.996143300000001,-5.7765045,4.160542,998.436,5.724281736996198,998.5922220998253,1,3
26.26,6.9387407,-5.762203,4.0421777,998.45856,5.72437479161657,998.5874279664964,1,3
26.28,6.890898,-5.7955685,4.080049,998.436,5.724395552731222,998.5826467296077,1,3
26.3,6.8573955999999985,-5.781268,4.070575700000001,998.4373,5.724278282941049,998.5778987804663,1,3
26.32,6.9529695999999985,-5.719302,4.2694187,998.4356,5.724277134415686,998.5731912169953,1,3
26.34,6.9385857999999985,-5.6811686,4.330962,998.4288,5.724367613838448,998.5685118055306,1,3
26.36,6.833386,-5.7097664,3.933268,998.39075,5.724073331983671,998.5637371350612,1,3
