Timestamp,Ax,Ay,Az,P,Value,Type
0.0,7.2683372,-5.343756,2.3000998,1010.0079,0,0
0.04,7.655469999999997,-5.219824299999999,2.323769,1010.03033,0,0
0.08,8.219422999999999,-5.1721572999999985,3.0339239,1010.0353,0,0
0.12,7.832164,-5.319918,2.8966174,1010.0333,0,0
0.16,7.9468474,-5.3389835,2.8492706,1010.0383,0,0
0.2,8.05672,-5.124487,2.4799812,1010.02075,0,0
0.24,8.056624000000001,-5.300847,2.5273163,1010.0434,0,0
0.28,8.027883000000001,-5.186448,1.9639165,1010.0459,0,0
0.32,8.730417999999998,-4.948118,2.584115,1010.0308,0,0
0.36,8.457937,-5.129246,2.394736,1010.0208,0,0
0.4,7.4875746,-5.033914,1.5425371,1010.0563,0,0
0.44,8.844975,-5.4390697,3.4078867,1010.0261,0,0
0.48,7.965428,-5.296071,2.6077669,1010.0412,0,0
0.52,8.749253,-5.3866343,2.3899782000000003,1010.0334,0,0
0.56,8.189953,-5.334201,2.4941294,1010.0316,0,0
0.6,8.376301,-4.9481077,1.72715,1010.0168,0,0
0.64,7.7882905,-5.872818,2.4325676,1010.042,0,0
0.68,7.812158,-5.5010257000000005,1.9354522,1010.0472,0,0
0.72,8.576863000000001,-4.852772,2.4136212,1010.0195,0,0
0.76,8.275703,-4.871838,2.1958358,1010.02466,0,0
0.8,8.22335,-5.219802,1.689275,1010.0146,0,0
0.84,8.132483,-5.439062,2.8870747000000003,1010.0551,0,0
0.88,7.941238,-5.3580294,2.0632834,1010.0172,0,0
0.92,8.127572,-5.2817626,2.2763243,1010.0298,0,0
0.96,8.070188499999999,-5.4390583,2.508308,1010.0196,0,0
1.0,7.802467299999999,-5.5915870000000005,2.247911,1010.017,0,0
1.04,8.132195,-5.558219,2.43728,1010.03,0,0
1.08,8.093931,-5.3723230000000015,2.3615272000000003,1010.04254,0,0
1.12,8.141651,-5.405687,1.8786106,1010.0151,0,0
1.16,8.390149000000001,-5.3437204000000005,2.0017004000000003,1010.02295,0,0
1.2,8.390149000000001,-5.3437204000000005,2.0017004000000003,1010.02295,0,0
1.24,8.767650999999999,-5.3008184,2.304693,1010.03796,0,0
1.28,8.643349,-5.4247489999999985,2.1673927,1010.0028,0,0
1.32,7.8402642999999985,-5.3675475,1.4903656,1010.04065,0,0
1.36,7.7494216,-5.515311,1.3577999,1010.03046,0,0
1.4,7.978774,-5.210249,1.5282314,1010.0436,0,0
1.44,8.490161,-5.0005190000000015,2.0158703,1010.013,0,0
1.48,8.341935000000001,-5.1435146,1.8264894,1010.0234,0,0
1.52,8.246286999999999,-4.9051857000000005,2.0868769,1010.01556,0,0
1.56,8.317958,-5.057715,2.1389532000000004,1010.0235,0,0
1.6,8.294008,-5.329407,1.9874473,1010.0081,0,0
1.64,8.107517,-5.276973,1.9685025,1010.01886,0,0
1.68,8.050133,-5.2769723,1.9874376,1010.0414,0,0
1.72,8.4658985,-4.9242454,2.086853,1010.0109,0,0
1.76,8.305053,-4.9290533,1.9923177,1010.03406,0,0
1.8,8.142548,-5.1530809999999985,1.8266143,1010.0138,0,0
1.84,8.013518,-5.1244825999999986,1.8786949,1010.03174,0,0
1.88,8.13302,-5.181681,1.8171484,1010.02655,0,0
1.92,8.247753,-5.157849,2.3000593,1010.01654,0,0
1.96,8.362492999999999,-5.2913136,1.95445,1010.0243,0,0
2.0,8.429418,-5.2055154,1.7887465,1010.0067,0,0
2.04,8.477232,-4.967188,1.6703880000000002,1010.04486,0,0
2.08,8.48681,-5.024387,1.689327,1010.02716,0,0
2.12,8.14268,-5.1959834,1.8502983,1010.0193,0,0
2.16,7.908486,-5.305615,1.8692374,1010.0321,0,0
2.2,8.319564999999999,-5.25795,2.2716637000000004,1010.02716,0,0
2.24,8.348269,-4.8861585,2.1296334,1010.0498,0,0
2.28,8.544249,-4.9195247,2.172244,1010.0145,0,0
2.32,8.730678,-4.9147587,1.9828693,1010.0246,0,0
2.36,8.668566,-4.9624248,1.9876058,1010.04486,0,0
2.4,8.415242999999998,-5.134021,2.0160131000000003,1010.0298,0,0
2.44,7.970739,-5.458147,1.845576,1010.0452,0,0
2.48,7.899058,-5.6297435999999985,1.5236381,1010.0098,0,0
2.52,7.994671,-5.5248795,1.5804524,1010.0402,0,0
2.56,8.377079,-5.4104834,2.053895,1010.03784,0,0
2.6,8.1189785,-5.4247830000000015,2.10124,1010.03046,0,0
2.64,7.7796288,-5.434316,1.7840363,1010.0557,0,0
2.68,8.214616,-5.0148597000000015,1.9497427,1010.0155,0,0
2.72,8.243303,-4.9719615,1.9686812,1010.0431,0,0
2.76,8.54301,-4.9909930000000005,1.9685512,1010.06885,0,0
2.8,8.557286,-5.0767894,2.224203,1010.04816,0,0
2.84,8.404312,-5.1625866999999985,2.2762794,1010.02783,0,0
2.88,8.490306,-5.0243554,2.1342437000000003,1010.0385,0,0
2.92,8.495045,-4.9671555,1.9448638,1010.0462,0,0
2.96,8.399428,-5.100619,2.015878,1010.0612,0,0
3.0,8.203393,-5.2054815,2.0490131000000003,1010.0691,0,0
3.04,8.25595,-5.2102475,1.9969327,1010.0239,0,0
3.08,8.303706,-5.2007136,1.8264902,1010.0236,0,0
3.12,8.294084,-5.062482,2.0584705000000003,1010.0389,0,0
3.16,8.251023,-5.129213,1.9969193,1010.044,0,0
3.2,8.164966,-5.2388434,2.2004967,1010.0264,0,0
3.24,8.2461815,-5.095845,2.1294767999999995,1010.067,0,0
3.28,8.284355999999999,-5.110143,2.1342053,1010.04443,0,0
3.32,8.284335,-5.1482754,2.257298,1010.02686,0,0
3.36,8.346430999999999,-5.033877,2.115262,1010.0369,0,0
3.4,8.446744,-4.9671435,1.9826931,1010.0522,0,0
3.44,8.260269000000001,-5.0910726,2.063172,1010.04193,0,0
3.48,8.317606,-5.03864,1.9495444,1010.03436,0,0
3.52,8.360603,-5.0720053,1.9684802,1010.0297,0,0
3.56,8.217147,-5.1101364999999985,2.1483817000000003,1010.0423,0,0
3.6,8.135867999999999,-5.1864004,2.0536919,1010.0222,0,0
3.64,8.336578,-5.167333,2.1105008,1010.0448,0,0
3.68,8.460811999999999,-5.029102,2.0252776000000003,1010.0348,0,0
3.72,8.298257000000001,-5.1482654000000005,2.1246965,1010.0094,0,0
3.76,8.279096000000001,-4.9909678,1.9400507,1010.0197,0,0
3.8,8.236034,-5.1005974,2.001594,1010.0222,0,0
3.84,8.154736,-5.114896,2.0536687,1010.04,0,0
3.88,8.403244,-5.114895,2.1625562,1010.0222,0,0
3.92,8.326725999999999,-5.1148934,2.0299892,1010.0247,0,0
3.96,8.254987,-5.2292905,2.1483452,1010.04755,0,0
4.0,8.250164999999999,-5.281721,2.1341383,1010.0298,0,0
4.04,8.374398,-5.1816225,1.9447584,1010.04,0,0
4.08,8.302658000000001,-5.229287,1.8784728,1010.02997,0,0
4.12,8.221381,-5.1911545,1.8358612,1010.0325,0,0
4.16,8.269136999999999,-5.1673207,1.8358574,1010.03284,0,0
4.2,8.245196,-5.2388177,2.0820427,1010.0297,0,0
4.24,8.211696,-5.262649,2.0678358,1010.0579,0,0
4.28,8.359808000000001,-5.1339507000000015,1.9968138,1010.03534,0,0
4.32,8.26417,-5.1673160000000005,2.0252163,1010.0532,0,0
4.36,8.331044,-5.1768480000000014,2.0820255000000003,1010.04285,0,0
4.4,8.345363,-5.1673145,2.0725546,1010.0303,0,0
4.44,8.264043,-5.2245116,2.0441425,1010.03284,0,0
4.48,8.249661,-5.2435765,2.0772793000000003,1010.0479,0,0
4.52,8.235259,-5.272174400000001,1.9683825,1010.04535,0,0
4.56,8.21134,-5.324606,2.067803,1010.02496,0,0
4.6,8.177839,-5.2912393,2.1293464,1010.02747,0,0
4.64,8.158699,-5.276939,1.9683747,1010.0403,0,0
4.68,8.292471,-5.2626376,1.8642122,1010.04816,0,0
4.72,8.316349,-5.30077,1.9494295,1010.01776,0,0
4.76,8.255446000000001,-5.248368,2.0679026,1010.0154,0,0
4.8,8.288915,-5.1816363,1.9637465,1010.01526,0,0
4.84,8.217227000000001,-5.1816363,2.0442324,1010.06323,0,0
4.88,8.178994,-5.1959357000000015,2.1294522,1010.02826,0,0
4.92,8.293719,-5.1864032999999985,2.1767972,1010.0307,0,0
4.96,8.260271000000001,-5.2436028,2.0347657,1010.03827,0,0
5.0,8.245947,-5.215003500000001,2.0773770000000003,1010.01276,0,0
5.04,8.250731,-5.1673374,2.0252988000000003,1010.0582,0,0
5.08,8.231622999999999,-5.2054706,2.0252998,1010.0278,0,0
5.12,8.164716,-5.2388372,2.015832,1010.03314,0,0
5.16,8.231643,-5.2531366,2.1247241000000003,1010.05066,0,0
5.2,8.279451,-5.200705,2.053709,1010.0353,0,0
5.24,8.217324000000001,-5.2483705999999986,2.0489755,1010.04065,0,0
5.28,8.226892999999999,-5.1911726,2.0679142,1010.0408,0,0
5.32,8.255578,-5.1864057,2.0158362000000003,1010.0403,0,0
5.36,8.308166,-5.162574,2.1105254,1010.0582,0,0
5.4,8.246038,-5.2388387000000005,2.063182,1010.0256,0,0
5.44,8.260388,-5.2054725,2.0347764,1010.03284,0,0
5.48,8.198266,-5.248372,1.9874339,1010.03577,0,0
5.52,8.341675,-5.148275,2.0679202,1010.0307,0,0
5.56,8.303441000000001,-5.143508,2.048983,1010.0127,0,0
5.6,8.1743965,-5.2293067,2.1152656000000003,1010.04596,0,0
5.64,8.260444,-5.2150073,1.9495623,1010.03284,0,0
5.68,8.23656,-5.2340735999999985,2.0773928,1010.02026,0,0
5.72,8.260465,-5.2197742,2.0537212,1010.0557,0,0
5.76,8.327392,-5.1625760000000005,1.935362,1010.04285,0,0
5.8,8.274819,-5.1244435,1.9400969,1010.0282,0,0
5.84,8.3321905,-5.176876,2.0773962,1010.0458,0,0
5.88,8.418239,-5.138744,2.101069,1010.0325,0,0
5.92,8.384784,-5.086312,2.063194,1010.0256,0,0
5.96,8.322652,-5.0720124,2.0300539,1010.03033,0,0
6.0,8.332227,-5.0624795,2.134212,1010.04785,0,0
6.04,7.2683372,-5.343756,2.3000998,1010.0079,0,0
6.08,7.655469999999997,-5.219824299999999,2.323769,1010.03033,0,0
6.12,8.219422999999999,-5.1721572999999985,3.0339239,1010.0353,0,0
6.16,7.832164,-5.319918,2.8966174,1010.0333,0,0
6.2,7.9468474,-5.3389835,2.8492706,1010.0383,0,0
6.24,8.05672,-5.124487,2.4799812,1010.02075,0,0
6.28,8.056624000000001,-5.300847,2.5273163,1010.0434,0,0
6.32,8.027883000000001,-5.186448,1.9639165,1010.0459,0,0
6.36,8.730417999999998,-4.948118,2.584115,1010.0308,0,0
6.4,8.457937,-5.129246,2.394736,1010.0208,0,0
6.44,7.4875746,-5.033914,1.5425371,1010.0563,0,0
6.48,8.844975,-5.4390697,3.4078867,1010.0261,0,0
6.52,7.965428,-5.296071,2.6077669,1010.0412,0,0
6.56,8.749253,-5.3866343,2.3899782000000003,1010.0334,0,0
6.6,8.189953,-5.334201,2.4941294,1010.0316,0,0
6.64,8.376301,-4.9481077,1.72715,1010.0168,0,0
6.68,7.7882905,-5.872818,2.4325676,1010.042,0,0
6.72,7.812158,-5.5010257000000005,1.9354522,1010.0472,0,0
6.76,8.576863000000001,-4.852772,2.4136212,1010.0195,0,0
6.8,8.275703,-4.871838,2.1958358,1010.02466,0,0
6.84,8.22335,-5.219802,1.689275,1010.0146,0,0
6.88,8.132483,-5.439062,2.8870747000000003,1010.0551,0,0
6.92,7.941238,-5.3580294,2.0632834,1010.0172,0,0
6.96,8.127572,-5.2817626,2.2763243,1010.0298,0,0
7.0,8.070188499999999,-5.4390583,2.508308,1010.0196,0,0
7.04,7.802467299999999,-5.5915870000000005,2.247911,1010.017,0,0
7.08,8.132195,-5.558219,2.43728,1010.03,0,0
7.12,8.093931,-5.3723230000000015,2.3615272000000003,1010.04254,0,0
7.16,8.141651,-5.405687,1.8786106,1010.0151,0,0
7.2,8.390149000000001,-5.3437204000000005,2.0017004000000003,1010.02295,0,0
7.24,8.390149000000001,-5.3437204000000005,2.0017004000000003,1010.02295,0,0
7.28,8.767650999999999,-5.3008184,2.304693,1010.03796,0,0
7.32,8.643349,-5.4247489999999985,2.1673927,1010.0028,0,0
7.36,7.8402642999999985,-5.3675475,1.4903656,1010.04065,0,0
7.4,7.7494216,-5.515311,1.3577999,1010.03046,0,0
7.44,7.978774,-5.210249,1.5282314,1010.0436,0,0
7.48,8.490161,-5.0005190000000015,2.0158703,1010.013,0,0
7.52,8.341935000000001,-5.1435146,1.8264894,1010.0234,0,0
7.56,8.246286999999999,-4.9051857000000005,2.0868769,1010.01556,0,0
7.6,8.317958,-5.057715,2.1389532000000004,1010.0235,0,0
7.64,8.294008,-5.329407,1.9874473,1010.0081,0,0
7.68,8.107517,-5.276973,1.9685025,1010.01886,0,0
7.72,8.050133,-5.2769723,1.9874376,1010.0414,0,0
7.76,8.4658985,-4.9242454,2.086853,1010.0109,0,0
7.8,8.305053,-4.9290533,1.9923177,1010.03406,0,0
7.84,8.142548,-5.1530809999999985,1.8266143,1010.0138,0,0
7.88,8.013518,-5.1244825999999986,1.8786949,1010.03174,0,0
7.92,8.13302,-5.181681,1.8171484,1010.02655,0,0
7.96,8.247753,-5.157849,2.3000593,1010.01654,0,0
8.0,8.362492999999999,-5.2913136,1.95445,1010.0243,0,0
8.04,8.429418,-5.2055154,1.7887465,1010.0067,0,0
8.08,8.477232,-4.967188,1.6703880000000002,1010.04486,0,0
8.12,8.48681,-5.024387,1.689327,1010.02716,0,0
8.16,8.14268,-5.1959834,1.8502983,1010.0193,0,0
8.2,7.908486,-5.305615,1.8692374,1010.0321,0,0
8.24,8.319564999999999,-5.25795,2.2716637000000004,1010.02716,0,0
8.28,8.348269,-4.8861585,2.1296334,1010.0498,0,0
8.32,8.544249,-4.9195247,2.172244,1010.0145,0,0
8.36,8.730678,-4.9147587,1.9828693,1010.0246,0,0
8.4,8.668566,-4.9624248,1.9876058,1010.04486,0,0
8.44,8.415242999999998,-5.134021,2.0160131000000003,1010.0298,0,0
8.48,7.970739,-5.458147,1.845576,1010.0452,0,0
8.52,7.899058,-5.6297435999999985,1.5236381,1010.0098,0,0
8.56,7.994671,-5.5248795,1.5804524,1010.0402,0,0
8.6,8.377079,-5.4104834,2.053895,1010.03784,0,0
8.64,8.1189785,-5.4247830000000015,2.10124,1010.03046,0,0
8.68,7.7796288,-5.434316,1.7840363,1010.0557,0,0
8.72,8.214616,-5.0148597000000015,1.9497427,1010.0155,0,0
8.76,8.243303,-4.9719615,1.9686812,1010.0431,0,0
8.8,8.54301,-4.9909930000000005,1.9685512,1010.06885,0,0
8.84,8.557286,-5.0767894,2.224203,1010.04816,0,0
8.88,8.404312,-5.1625866999999985,2.2762794,1010.02783,0,0
8.92,8.490306,-5.0243554,2.1342437000000003,1010.0385,0,0
8.96,8.495045,-4.9671555,1.9448638,1010.0462,0,0
9.0,8.399428,-5.100619,2.015878,1010.0612,0,0
9.04,8.203393,-5.2054815,2.0490131000000003,1010.0691,0,0
9.08,8.25595,-5.2102475,1.9969327,1010.0239,0,0
9.12,8.303706,-5.2007136,1.8264902,1010.0236,0,0
9.16,8.294084,-5.062482,2.0584705000000003,1010.0389,0,0
9.2,8.251023,-5.129213,1.9969193,1010.044,0,0
9.24,8.164966,-5.2388434,2.2004967,1010.0264,0,0
9.28,8.2461815,-5.095845,2.1294767999999995,1010.067,0,0
9.32,8.284355999999999,-5.110143,2.1342053,1010.04443,0,0
9.36,8.284335,-5.1482754,2.257298,1010.02686,0,0
9.4,8.346430999999999,-5.033877,2.115262,1010.0369,0,0
9.44,8.446744,-4.9671435,1.9826931,1010.0522,0,0
9.48,8.260269000000001,-5.0910726,2.063172,1010.04193,0,0
9.52,8.317606,-5.03864,1.9495444,1010.03436,0,0
9.56,8.360603,-5.0720053,1.9684802,1010.0297,0,0
9.6,8.217147,-5.1101364999999985,2.1483817000000003,1010.0423,0,0
9.64,8.135867999999999,-5.1864004,2.0536919,1010.0222,0,0
9.68,8.336578,-5.167333,2.1105008,1010.0448,0,0
9.72,8.460811999999999,-5.029102,2.0252776000000003,1010.0348,0,0
9.76,8.298257000000001,-5.1482654000000005,2.1246965,1010.0094,0,0
9.8,8.279096000000001,-4.9909678,1.9400507,1010.0197,0,0
9.84,8.236034,-5.1005974,2.001594,1010.0222,0,0
9.88,8.154736,-5.114896,2.0536687,1010.04,0,0
9.92,8.403244,-5.114895,2.1625562,1010.0222,0,0
9.96,8.326725999999999,-5.1148934,2.0299892,1010.0247,0,0
10.0,8.254987,-5.2292905,2.1483452,1010.04755,0,0
10.04,8.250164999999999,-5.281721,2.1341383,1010.0298,0,0
10.08,8.374398,-5.1816225,1.9447584,1010.04,0,0
10.12,8.302658000000001,-5.229287,1.8784728,1010.02997,0,0
10.16,8.221381,-5.1911545,1.8358612,1010.0325,0,0
10.2,8.269136999999999,-5.1673207,1.8358574,1010.03284,0,0
10.24,8.245196,-5.2388177,2.0820427,1010.0297,0,0
10.28,8.211696,-5.262649,2.0678358,1010.0579,0,0
10.32,8.359808000000001,-5.1339507000000015,1.9968138,1010.03534,0,0
10.36,8.26417,-5.1673160000000005,2.0252163,1010.0532,0,0
10.4,8.331044,-5.1768480000000014,2.0820255000000003,1010.04285,0,0
10.44,8.345363,-5.1673145,2.0725546,1010.0303,0,0
10.48,8.264043,-5.2245116,2.0441425,1010.03284,0,0
10.52,8.249661,-5.2435765,2.0772793000000003,1010.0479,0,0
10.56,8.235259,-5.272174400000001,1.9683825,1010.04535,0,0
10.6,8.21134,-5.324606,2.067803,1010.02496,0,0
10.64,8.177839,-5.2912393,2.1293464,1010.02747,0,0
10.68,8.158699,-5.276939,1.9683747,1010.0403,0,0
10.72,8.292471,-5.2626376,1.8642122,1010.04816,0,0
10.76,8.316349,-5.30077,1.9494295,1010.01776,0,0
10.8,8.255446000000001,-5.248368,2.0679026,1010.0154,0,0
10.84,8.288915,-5.1816363,1.9637465,1010.01526,0,0
10.88,8.217227000000001,-5.1816363,2.0442324,1010.06323,0,0
10.92,8.178994,-5.1959357000000015,2.1294522,1010.02826,0,0
10.96,8.293719,-5.1864032999999985,2.1767972,1010.0307,0,0
11.0,8.260271000000001,-5.2436028,2.0347657,1010.03827,0,0
11.04,8.245947,-5.215003500000001,2.0773770000000003,1010.01276,0,0
11.08,8.250731,-5.1673374,2.0252988000000003,1010.0582,0,0
11.12,8.231622999999999,-5.2054706,2.0252998,1010.0278,0,0
11.16,8.164716,-5.2388372,2.015832,1010.03314,0,0
11.2,8.231643,-5.2531366,2.1247241000000003,1010.05066,0,0
11.24,8.279451,-5.200705,2.053709,1010.0353,0,0
11.28,8.217324000000001,-5.2483705999999986,2.0489755,1010.04065,0,0
11.32,8.226892999999999,-5.1911726,2.0679142,1010.0408,0,0
11.36,8.255578,-5.1864057,2.0158362000000003,1010.0403,0,0
11.4,8.308166,-5.162574,2.1105254,1010.0582,0,0
11.44,8.246038,-5.2388387000000005,2.063182,1010.0256,0,0
11.48,8.260388,-5.2054725,2.0347764,1010.03284,0,0
11.52,8.198266,-5.248372,1.9874339,1010.03577,0,0
11.56,8.341675,-5.148275,2.0679202,1010.0307,0,0
11.6,8.303441000000001,-5.143508,2.048983,1010.0127,0,0
11.64,8.1743965,-5.2293067,2.1152656000000003,1010.04596,0,0
11.68,8.260444,-5.2150073,1.9495623,1010.03284,0,0
11.72,8.23656,-5.2340735999999985,2.0773928,1010.02026,0,0
11.76,8.260465,-5.2197742,2.0537212,1010.0557,0,0
11.8,8.327392,-5.1625760000000005,1.935362,1010.04285,0,0
11.84,8.274819,-5.1244435,1.9400969,1010.0282,0,0
11.88,8.3321905,-5.176876,2.0773962,1010.0458,0,0
11.92,8.418239,-5.138744,2.101069,1010.0325,0,0
11.96,8.384784,-5.086312,2.063194,1010.0256,0,0
12.0,8.322652,-5.0720124,2.0300539,1010.03033,0,0
12.04,8.332227,-5.0624795,2.134212,1010.04785,0,0
12.08,8.384814,-5.0005145,2.0679314,1010.01776,0,0
12.12,8.207977,-5.2007103,2.1058078,1010.01025,0,0
12.16,8.279679,-5.1482787000000005,2.0300580000000004,1010.03784,0,0
12.2,8.313153,-5.110146,2.1294818,1010.03284,0,0
12.24,8.208008,-5.1530457,2.0774043,1010.03784,0,0
12.28,8.322329,-5.0910707,2.0110867,1010.0256,0,0
12.32,8.327108,-5.048172,2.0063522000000003,1010.04535,0,0
12.36,8.307986999999999,-5.095837,2.1767905,1010.04285,0,0
12.4,8.451382,-5.052938,2.0110862000000003,1010.05536,0,0
12.44,8.451382,-5.052938,2.0110862000000003,1010.05536,0,0
12.48,8.465717999999999,-4.957607,1.9211324,1010.02496,0,0
12.52,8.465717999999999,-4.957607,1.9211324,1010.035,0,0
12.56,8.092893,-5.2245336,2.1294463,1010.03534,0,0
12.6,8.13591,-5.1339693,2.0631645,1010.04285,0,0
12.64,8.288863000000001,-5.091069999999998,2.0442266,1010.05286,0,0
12.68,8.159807,-5.181635,2.1389146,1010.0278,0,0
12.72,8.217165,-5.238834,2.2193995,1010.0227,0,0
12.76,8.370116000000001,-5.162569,2.0678985,1010.035,0,0
12.8,8.394015,-5.2007010000000005,2.1767898,1010.03284,0,0
12.84,8.47527,-5.0291047,2.1389143,1010.03284,0,0
12.88,8.441811999999999,-5.038638,2.1625862,1010.04285,0,0
12.92,8.331875,-5.157801999999998,2.0821013,1010.07544,0,0
12.96,8.264957,-5.162569,2.0489604,1010.0303,0,0
13.0,8.20282,-5.234067,1.9400692,1010.0122,0,0
13.04,8.312753,-5.205467700000002,2.1105077000000003,1010.0325,0,0
13.08,8.312753,-5.205467700000002,2.1105077000000003,1010.04,0,0
13.12,8.441807,-5.119669,2.1720548,1010.06256,0,0
13.16,8.269733,-5.1721015,2.0158195,1010.0273,0,0
13.2,8.260172,-5.248367,2.0678976,1010.00726,0,0
13.24,8.29841,-5.2293,2.0868354,1010.0322,0,0
13.28,8.178914,-5.2436,1.9921468,1010.0473,0,0
13.32,8.211408,-5.23881,2.0062618000000003,1010.0322,0,0
13.36,8.306965,-5.2245089999999985,1.897367,1010.0498,0,0
13.4,8.220888,-5.2674074,1.9920515,1010.04456,0,0
13.44,8.364224,-5.138708599999998,2.1530159,1010.0448,0,0
13.48,8.306847,-5.1148753,2.1624830000000004,1010.0423,0,0
13.52,8.316367,-5.1673064,2.219292,1010.0297,0,0
13.56,8.077318,-5.2626357000000015,2.0109727,1010.032,0,0
13.6,8.206333,-5.219736,1.973094,1010.0673,0,0
13.64,8.273231,-5.210202,2.039374,1010.0296,0,0
13.68,8.373548,-5.133936,2.1671975,1010.0144,0,0
13.72,8.32573,-5.148236,2.1813989,1010.04443,0,0
13.76,8.273093,-5.157767,2.138784,1010.06213,0,0
13.8,8.301753,-5.172066,2.1103756,1010.0186,0,0
13.84,8.301694,-5.1958976,1.9304628,1010.0415,0,0
13.88,8.301674,-5.2101965,1.916258,1010.04944,0,0
13.92,8.234697,-5.16253,2.0677536,1010.05414,0,0
13.96,8.258576,-5.1339297,2.048814,1010.0363,0,0
14.0,8.320675,-5.1577616,2.1056232,1010.0289,0,0
14.04,8.268058,-5.2197260000000005,2.1624324,1010.0211,0,0
14.08,8.291917999999999,-5.114861,1.9730527,1010.05695,0,0
14.12,8.368356,-5.1720586,1.8878298,1010.0438,0,0
14.16,8.291839999999999,-5.1672910000000005,1.9493735,1010.0286,0,0
14.2,8.296599,-5.148225,1.9683094,1010.0264,0,0
14.24,8.205744000000001,-5.1863556,1.9351649,1010.0231,0,0
14.28,8.239142999999999,-5.210187,2.0677228,1010.0285,0,0
14.32,8.340836,-5.124421599999999,2.0583746,1010.013,0,0
14.36,8.254813,-5.1768540000000005,2.058376,1010.02057,0,0
14.4,8.326516999999999,-5.1387220000000005,2.0678453,1010.0381,0,0
14.44,8.2644005,-5.114889,1.878471,1010.06396,0,0
14.48,8.164032,-5.1863875,1.906878,1010.02057,0,0
14.52,8.154487,-5.219754,2.053646,1010.0385,0,0
14.56,8.37915,-5.105357,1.9826311,1010.0306,0,0
14.6,8.317034,-5.1005910000000005,2.0394459,1010.0101,0,0
14.64,8.360066,-5.081525,2.0205095,1010.03577,0,0
14.68,8.259698,-5.1387243,2.1057293,1010.02515,0,0
14.72,8.321856,-5.0767593,2.1057312,1010.02576,0,0
14.76,8.326642999999999,-5.0624595,2.072591,1010.0452,0,0
14.8,8.2788515,-5.0862927,2.086795,1010.03046,0,0
14.84,8.321891,-5.086293,2.053656,1010.01514,0,0
14.88,8.221528999999999,-5.1434917,2.1246734,1010.0378,0,0
14.92,8.307578999999999,-5.09106,2.1530812000000004,1010.0349,0,0
14.96,8.302806,-5.0815277000000005,2.1862226,1010.0146,0,0
15.0,8.341072,-5.0672283,2.1294124,1010.0327,0,0
15.04,8.317186999999999,-5.114894400000002,2.1767578,1010.0171,0,0
15.08,8.302862,-5.138728,2.1152117,1010.0323,0,0
15.12,8.283757000000001,-5.1530275,2.1010098,1010.01416,0,0
15.16,8.278984,-5.1673274000000005,2.1246824,1010.0171,0,0
15.2,8.322017,-5.1387285999999985,2.1199493,1010.02716,0,0
15.24,8.398507,-5.086296599999999,2.1578257,1010.02924,0,0
15.28,8.279026,-5.1244297,2.243046,1010.01666,0,0
15.32,8.327403,-5.1387434,2.0679264,1010.04175,0,0
15.36,8.274842,-5.167343,2.1105375,1010.03674,0,0
15.4,8.207979,-5.2054768,2.1910276,1010.0216,0,0
15.44,8.265355,-5.153045,2.1531537,1010.0165,0,0
15.48,8.451802,-5.033882,2.1247506,1010.0238,0,0
15.52,8.375344,-5.0720153,2.1815653,1010.0163,0,0
15.56,8.222425,-5.114915,2.2478502,1010.0414,0,0
15.6,8.394534,-5.0481844,2.082149,1010.02905,0,0
15.64,8.174698,-5.2245474000000005,2.2099812,1010.0238,0,0
15.68,8.299008,-5.0720186,2.2289221,1010.003,0,0
15.72,8.322944,-5.0195875,2.1484404,1010.0159,0,0
15.76,8.313419,-5.100619999999998,2.1673813,1010.0185,0,0
15.8,8.308675,-5.0958543,2.2005255,1010.0159,0,0
15.84,8.251389,-5.1339874000000005,2.1910634,1010.0306,0,0
15.88,8.260964999999999,-5.1435213,2.2100024,1010.0232,0,0
15.92,8.308817,-5.033892,2.0916474,1010.02783,0,0
15.96,8.308817,-5.033892,2.0916474,1010.04065,0,0
16.0,8.375771,-5.086325,2.2620888,1010.0454,0,0
16.04,8.356686,-5.0910926,2.1105912,1010.02295,0,0
16.08,8.270685,-5.1149263,2.1674073,1009.9975,0,0
16.12,8.218161,-5.0815616,2.2005532000000003,1010.03796,0,0
16.16,8.218196,-5.0910954,2.17215,1010.0401,0,0
16.2,8.270809,-5.1673613,2.195825,1010.03015,0,0
16.24,8.371203,-5.143529,2.2479053,1010.0426,0,0
16.28,8.399465,-4.93379,2.105835,1010.01495,0,0
16.32,8.413818,-4.9671564,2.0016794,1010.0551,0,0
16.36,8.327791,-5.081554,2.138978,1010.022,0,0
16.4,8.260891,-5.014823000000002,2.3094182,1010.0146,0,0
16.44,8.432981,-4.9623914000000005,2.0348241,1010.0096,0,0
16.48,8.447335,-4.9194922,2.2620769,1010.0243,0,0
16.52,8.528609,-4.809862,2.314157,1010.004,0,0
16.56,8.628993,-4.6239667,2.29522,1010.0341,0,0
16.6,8.08412,-5.2579193,2.266816,1010.01117,0,0
16.64,8.394824,-4.738365,1.8359866,1010.01404,0,0
16.68,8.538235,-4.576302,2.2857566000000005,1010.0136,0,0
16.72,8.423528,-4.590602400000001,2.1484594,1010.0233,0,0
16.76,8.552599,-4.500038,2.134258,1010.03656,0,0
16.8,8.423561,-4.433307,2.3520422,1010.02124,0,0
16.84,8.409246000000001,-5.03866,2.4514666000000003,1010.01624,0,0
16.88,7.955181,-5.0958595,2.4041243,1010.02124,0,0
16.92,8.514435,-4.7145348,2.5935018,1010.0387,0,0
16.96,8.519231,-4.6287379999999985,2.5698314,1010.0359,0,0
17.0,8.6722,-4.5286403,2.8586316000000003,1010.0383,0,0
17.04,8.543163,-4.4714417,2.669257,1010.0057,0,0
17.08,8.57185,-4.5286407,2.8396962,1010.02325,0,0
17.12,8.648344,-4.562007,2.8823075,1010.01324,0,0
17.16,8.38547,-4.705004,3.000669,1010.0358,0,0
17.2,8.581458,-4.538175,3.4930487,1010.0383,0,0
17.24,8.027019000000001,-4.619207,2.834968,1010.0358,0,0
17.28,8.581437,-4.657337999999998,3.511984,1010.0353,0,0
17.32,8.026995,-4.6287400000000005,3.0906236,1010.04224,0,0
17.36,8.514542,-4.4476104,3.1711094,1010.0275,0,0
17.4,8.404627,-4.4333114999999985,2.891781,1010.0272,0,0
17.44,8.476337,-4.952866,3.5924745,1010.0199,0,0
17.48,8.007932,-4.509576999999998,2.650329,1010.025,0,0
17.52,8.022277,-4.623975,2.6976736,1010.0297,0,0
17.56,8.404683,-4.6287413,3.21846,1010.0374,0,0
17.6,8.404683,-4.6287413,3.21846,1010.0273,0,0
17.64,8.137034,-4.600143,3.0101483,1010.0271,0,0
17.68,8.395158,-4.419014,2.7639606,1009.989,0,0
17.72,8.361707000000001,-4.466679599999999,2.924931,1010.0401,0,0
17.76,8.084505,-4.7669735,3.0764344,1010.0299,0,0
17.8,8.084505,-4.7669735,3.0764344,1010.0291,0,0
17.84,8.094086,-4.6764092,3.133249,1010.02155,0,0
17.88,8.347430000000001,-4.6192107,3.0811722,1010.0266,0,0
17.92,8.208836999999999,-4.7097764,3.3084254,1010.0218,0,0
17.96,8.031998,-4.7765083,3.1805975,1010.00854,0,0
18.0,8.031998,-4.7765083,3.1805975,1010.0366,0,0
18.04,8.333146000000001,-4.5667800000000005,3.2137406000000004,1010.0211,0,0
18.08,8.333167,-4.585847,3.1474607000000003,1010.02374,0,0
18.12,8.122862,-4.5953803,2.9391475,1010.0108,0,0
18.16,8.146775,-4.786043,3.1427283,1009.9907,0,0
18.2,8.275844000000001,-4.628746499999999,3.3273714,1010.0333,0,0
18.24,8.242393,-4.700245400000001,3.3415751000000005,1010.0233,0,0
18.28,8.304551,-4.4190187000000005,2.8918085,1010.0256,0,0
18.32,8.439028,-4.414268,2.9297426,1010.0258,0,0
18.36,8.415168,-4.495301,3.1427944,1010.0459,0,0
18.4,8.09018,-4.743162,3.2327516,1010.0384,0,0
18.44,8.267072,-4.5620346,2.9297535,1010.04315,0,0
18.48,8.367488,-4.690732499999998,3.1380708,1010.038,0,0
18.52,8.200234,-4.5382032,2.934495,1010.02795,0,0
18.56,8.448822999999999,-4.6526017,2.9344985,1010.01294,0,0
18.6,8.042599000000001,-5.0005617,3.1428177,1010.05817,0,0
18.64,8.162113,-4.929064,3.1901636000000004,1010.05536,0,0
18.68,8.315106,-4.724103,3.081276,1010.0353,0,0
18.72,8.243449,-4.7241040000000005,2.9297783,1010.0302,0,0
18.76,8.018818,-4.943366,2.9439836,1010.0174,0,0
18.8,8.429939,-4.5954084,3.1759748,1010.0347,0,0
18.84,8.4252,-4.542978,2.9392583,1010.02966,0,0
18.88,8.186247999999999,-4.6001773,2.8777146,1010.01465,0,0
18.92,8.530434,-4.5096135,3.005547,1010.02216,0,0
18.96,8.062053,-4.638312,2.8635185,1010.03973,0,0
19.0,8.248503999999999,-4.8909407,3.4789946000000005,1010.057,0,0
19.04,8.841239,-4.1330585,3.1901996,1010.05695,0,0
19.08,8.32508,-4.619249,3.2990962999999995,1010.0419,0,0
19.12,7.426514999999997,-5.2913346,3.6683836,1010.0088,0,0
19.16,7.579488799999999,-5.1769376,3.1428666,1010.01935,0,0
19.2,9.405414,-4.338024,3.6683888,1010.03894,0,0
19.24,7.522209599999999,-4.457189,2.1297112,1010.0663,0,0
19.28,7.99545,-4.643086,3.1334083,1010.0413,0,0
19.32,7.937131,-4.8098917000000005,3.5215418,1010.04346,0,0
19.36,8.066185,-5.076819,2.9155378,1010.054,0,0
19.4,8.352973,-4.914756,3.4978697,1010.0835,0,0
19.44,8.582403999999999,-4.7669926,3.1380548,1010.04895,0,0
19.48,8.2048,-4.614463,2.7924432999999995,1010.0285,0,0
19.52,8.099644,-4.933822,3.3416343,1010.003,0,0
19.56,8.013608,-4.7479267,2.986554,1009.9928,0,0
19.6,8.620643,-4.657362,3.7629964,1010.0406,1,1
19.64,7.7841770000000015,-4.7908254,2.906069,1010.0408,1,1
19.68,8.090085,-4.7050276,2.754568,1010.00775,1,1
19.72,8.243038,-4.948122,3.9334347,1010.03815,1,1
19.76,8.525046000000001,-4.6287627,3.5830888999999995,1010.02277,1,1
19.8,7.6694617,-4.8813900000000015,3.0481012,1010.0461,1,1
19.84,8.386432000000001,-4.528665,3.5783544000000003,1010.0479,1,1
19.88,8.529827000000001,-4.5906305,3.654105,1010.04034,1,1
19.92,7.731599,-4.8051257000000005,2.882397,1010.02,1,1
19.96,7.8463144,-4.9671884,2.9818194,1010.01483,1,1
20.0,8.047067,-5.057753,3.3605719,1009.99457,1,1
20.04,8.118763000000001,-5.262715,2.882397,1010.0224,1,1
20.08,7.8654337,-5.32468,2.0444071,1010.0196,1,1
20.12,7.827195,-5.4152445999999985,2.0775483,1010.01465,1,1
20.16,7.158023,-5.372346,1.840828,1010.02966,1,1
20.2,8.023166999999999,-5.2579484,2.0349386000000003,1010.0575,1,1
20.24,8.792715,-4.647829,3.0528355,1010.0372,1,1
20.28,8.329075,-4.323703299999999,3.0196947999999995,1010.0119,1,1
20.32,8.897739,-3.5372178999999995,3.2090588,1010.04224,1,1
20.36,9.858478,-3.0653288,3.8245313,1010.03705,1,1
20.4,11.607881,-0.8536464,2.6930082000000004,1010.0098,1,1
20.44,13.371624,-0.20539457,3.0291505,1010.037,1,1
20.48,14.862917,-1.0204756,4.927646,1010.0472,1,1
20.52,15.355231,-1.2111378000000002,4.7950826,1010.05707,1,1
20.56,15.264414000000002,-2.002386,5.0886154,1010.0219,1,1
20.6,14.585676,-3.0081294,4.5299554,1010.03705,1,1
20.64,12.649851,-3.8136775,3.5830736000000005,1010.0395,1,1
20.68,10.508493,-4.5572605,3.0717573,1010.05225,1,1
20.72,8.300219,-4.8861527,2.3331897,1010.032,1,1
20.76,5.8816304000000015,-5.3056097,0.974415,1010.05475,1,1
20.8,5.255473599999998,-5.41524,0.92707074,1009.9993,1,1
20.84,4.036618700000001,-5.6774006,0.68561566,1010.0216,1,1
20.88,3.7402658,-6.244621,0.12695542,1010.01416,1,1
20.92,3.9266732,-6.7880080000000005,-0.5642682,1010.032,1,1
20.96,5.5900397,-8.213208,-0.33701718,1010.00903,1,1
21.0,7.941698599999999,-9.161754,-1.1323976999999998,1010.0166,1,1
21.04,10.561024,-10.186562,0.76609796,1010.0495,1,1
21.08,11.120257,-10.6632185,0.95547396,1010.02875,1,1
21.12,12.998715,-10.810982,1.921292,1010.0338,1,1
21.16,15.957407,-10.034032,4.5583544,1010.0392,1,1
21.2,14.418304999999998,-7.3981266,4.2458835,1010.02924,1,1
21.24,12.5493965,-5.7679634,3.2516582,1010.0341,1,1
21.28,12.13833,-5.215043,3.3936900000000003,1010.027,1,1
21.32,11.607765,-1.7497561,3.8718643,1010.04926,1,1
21.36,10.460606,-0.41035363,4.061239700000002,1010.0316,1,1
21.4,10.489281,0.15686677,3.1427650000000003,1010.0015,1,1
21.44,11.101092,0.6430557,2.735606,1010.03174,1,1
21.48,12.6401825,0.14256738,3.469438,1009.99365,1,1
21.52,13.223316,-0.6296148,3.9949567,1010.0344,1,1
21.56,14.934478,-6.1921864,4.335832599999999,1010.01904,1,1
21.6,15.441134,-7.073999400000001,4.2932234000000005,1010.06433,1,1
21.64,16.186777,-8.136941,3.3321385,1010.0067,1,1
21.68,16.277586,-11.230436,3.3179348,1010.05927,1,1
21.72,16.669529,-12.445909,3.71089,1010.0771,1,1
21.76,16.56915,-13.189491,4.037564,1010.02405,1,1
21.8,14.413454000000002,-12.441142,3.919203,1010.0591,1,1
21.84,11.970969,-10.248526,2.6551166,1010.04675,1,1
21.88,7.396689,-9.295215,2.281098,1010.0642,1,1
21.92,6.015323,-8.556398,1.9165485,1010.04877,1,1
21.96,3.654095,-7.2884936,1.0217456,1010.0818,1,1
22.0,1.8674684,-6.111179,-0.44582647,1010.04663,1,1
22.04,1.4755437,-6.573535400000001,-1.0707661,1010.00116,1,1
22.08,2.3598268,-7.5697465,-0.59258956,1010.01624,1,1
22.12,5.2516274,-8.994947,-0.13808489999999998,1010.0065,1,1
22.16,10.781889,-12.693795,1.0975973999999995,1010.0416,1,1
22.2,12.856334,-13.53271,2.7357023,1010.00867,1,1
22.24,15.824611,-13.251484,3.9713836,1010.0442,1,1
22.28,17.588379,-13.170453,4.672077,1010.0416,1,1
22.32,19.313908,-9.819564,4.960878,1010.0336,1,1
22.36,16.097116,-5.3961997,2.7783191,1010.0462,1,1
22.4,15.222423,-4.5048537,3.9713898,1010.0794,1,1
22.44,13.257943,-4.9529104,5.5621519999999975,1010.04663,1,1
22.48,10.954098,-5.0005765,4.406959,1010.10394,1,1
22.52,9.697028,-3.0176895,3.3369849,1010.0433,1,1
22.56,9.5345335,-1.6353884,3.2422986000000003,1010.0462,1,1
22.6,11.919675,-0.5438474,4.085024,1010.0462,1,1
22.64,14.515128,0.8003212,5.5621605,1010.02124,1,1
22.68,13.860324,-4.4905577,4.383296,1009.99115,1,1
22.72,13.267637,-6.1302533,4.241265,1010.0463,1,1
22.76,14.367021,-8.256138,3.9335315,1010.0562,1,1
22.8,14.367021,-8.256138,3.9335315,1010.0487,1,1
22.84,15.064901999999998,-11.135139,4.6531634,1010.0613,1,1
22.88,15.155738,-12.684271,4.6531653,1010.0538,1,1
22.92,13.305972,-12.736704,5.273374,1010.0813,1,1
22.96,12.087143,-9.87677,3.658944,1010.0713,1,1
23.0,11.088173,-9.471613,3.0008624,1010.0663,1,1
23.04,8.24347,-9.8624525,3.5073779000000003,1010.0463,1,1
23.08,6.2980795,-9.109337,2.9392486,1010.0311,1,1
23.12,3.9559605,-6.992985000000001,1.3248149,1010.03076,1,1
23.16,3.454076,-6.8166223,0.7614204000000001,1009.99854,1,1
23.2,1.6568595000000002,-7.093082400000001,0.051258776,1010.00604,1,1
23.24,3.8555489,-8.432485,-0.12865046,1010.01544,1,1
23.28,4.9979177,-8.994938000000003,-0.14285415,1009.9853,1,1
23.32,6.6756234,-9.428694,-0.04343212,1010.0157,1,1
23.36,12.449611,-10.177044,1.6751553,1010.0029,1,1
23.4,13.276513,-10.672766,1.5189196000000005,1010.0537,1,1
23.44,15.609046,-11.435414,2.612566,1010.0462,1,1
23.48,17.802965,-9.500192,2.4421265,1010.08344,1,1
23.52,17.129004000000002,-6.578292,1.9781541,1010.0582,1,1
23.56,14.829907,-5.19599,2.7261891,1010.0634,1,1
23.6,13.06137,-5.0672927,3.3842702000000005,1010.0358,1,1
23.64,12.000243,-4.1044483,2.3663723,1010.0613,1,1
23.68,11.455336,-1.9261316,1.5331163,1010.06586,1,1
23.72,12.181855,-0.25306997,2.6930447,1010.0454,1,1
23.76,13.826093,0.6144437,4.245928,1010.0554,1,1
23.8,14.318407,0.37611604,4.837728,1010.03546,1,1
23.84,13.634885999999998,-3.084404,4.605741,1010.03546,1,1
23.88,13.161675,-6.8023175999999985,5.2780255999999985,1010.0554,1,1
23.92,13.849951999999998,-7.498235,6.2154365,1010.0908,1,1
23.96,13.725672,-8.618376,6.0402637000000015,1010.0856,1,1
24.0,13.03737,-10.739492,6.1538877,1010.0503,1,1
24.04,13.717406,-11.13515,5.9551625,1010.078,1,1
24.08,12.938319,-10.453532,5.5811462,1010.03253,1,1
24.12,11.274988,-9.504989,5.8415422,1010.05786,1,1
24.16,10.089616,-9.0331,5.8226066,1010.0727,1,1
24.2,8.665275999999999,-8.966369,3.938317,1010.0907,1,1
24.24,6.5430837,-8.456348,3.1334720000000003,1010.0352,1,1
24.28,4.4735093,-5.7918453,1.9830191,1010.02527,1,1
24.32,4.1437235,-5.8538112999999985,1.5048461000000002,1010.02527,1,1
24.36,3.732680600000001,-6.058773,1.3249406,1010.03253,1,1
24.4,3.455513,-6.392434,0.8941153000000001,1010.02795,1,1
24.44,5.74988,-8.694682,0.29285145,1010.0528,1,1
24.48,8.713399,-9.137973,0.7615611999999999,1010.0227,1,1
24.52,11.662578,-9.347702,1.0550979,1010.00745,1,1
24.56,12.9913845,-9.409669,1.0266933,1010.0576,1,1
24.6,14.693035,-9.85296,-0.13323195,1010.03,1,1
24.64,15.128017000000002,-9.781461,0.11769336,1010.07513,1,1
24.68,15.166296,-8.389627,0.6716224000000001,1010.05975,1,1
24.72,13.866231,-6.8738637,1.1782075,1010.08514,1,1
24.76,13.106282,-5.391465,2.347609,1010.05975,1,1
24.8,11.830115,-5.3533339999999985,1.4244039,1010.067,1,1
24.84,12.150422,-2.517234,2.0824916,1010.08514,1,1
24.88,12.671442,-1.5639231000000002,2.2103226,1010.06976,1,1
24.92,12.929612,-1.4590605,3.474414,1010.0695,1,1
24.96,12.824497,-2.4648051,5.041506,1010.08014,1,1
25.0,12.861291,-5.210306,5.4106574,1010.0595,1,1
25.04,12.999895,-6.49251,5.813081,1010.0796,1,1
25.08,12.483648,-6.3924117,6.1397514000000015,1010.09436,1,1
25.12,12.483648,-6.3924117,6.1397514000000015,1010.0715,1,1
25.16,12.254179,-10.882507,6.314921400000001,1010.06647,1,1
25.2,12.254179,-10.882507,6.314921400000001,1010.05927,1,1
25.24,12.354536,-11.158968,6.002449,1010.0919,1,1
25.28,10.542953,-8.7470875,5.0129547,1010.08154,1,1
25.32,10.585961,-8.704188,4.3027935,1010.0659,1,1
25.36,9.042066,-8.084537,3.379583,1010.0439,1,1
25.4,6.4561634,-7.1693563,2.8919363,1010.04144,1,1
25.44,5.758293,-6.802331,2.3664155,1010.0634,1,1
25.48,5.1416883,-6.6927,1.8456304,1010.05396,1,1
25.52,4.176149,-6.7070000000000025,1.1070614,1010.00336,1,1
25.56,4.5011477,-5.300864,0.54366475,1010.04614,1,1
25.6,4.5011477,-5.300864,0.54366475,1010.0537,1,1
25.64,5.237209,-6.7165313,0.52945894,1010.0032,1,1
25.68,6.953139299999999,-7.240851400000001,0.31167457,1010.0258,1,1
25.72,8.927178,-8.141731,0.5957371,1010.02826,1,1
25.76,10.0552025,-8.890080000000003,0.8655973,1010.04333,1,1
25.8,13.893357,-10.191349,0.4821079000000001,1010.0253,1,1
25.84,14.715474,-10.119851,0.6478111999999999,1010.0454,1,1
25.88,14.662876999999998,-9.023542,1.073906,1010.06067,1,1
25.92,13.706898,-6.9214897,1.3153588,1010.0909,1,1
25.96,12.325505,-5.3103932999999985,1.8645471,1010.0629,1,1
26.0,12.048886,-4.3284974,1.386428,1010.0707,1,1
26.04,11.89594,-3.2750883,2.7546716,1010.0603,1,1
26.08,12.163612,-2.6459029,3.6400056,1010.088,1,1
26.12,12.364369,-1.5400618,4.4401199999999985,1010.05804,1,1
26.16,11.183764,-2.2407458,3.0671437000000004,1010.0732,1,1
26.2,10.280391,-4.042505,2.6836576,1010.0427,1,1
26.24,10.261278,-5.910995,2.7546744,1010.07245,1,1
26.28,9.907576,-7.064502,2.6221116,1010.0799,1,1
26.32,8.186852,-8.680365,1.1118369,1010.0527,1,1
26.36,9.085465,-8.72803,2.8493642999999995,1010.07495,1,1
26.4,9.085465,-8.72803,2.8493642999999995,1010.0678,1,1
26.44,8.292024000000001,-9.35245,2.148673,1010.0854,1,1
26.48,8.999442,-8.027348,2.1723456000000003,1010.1025,1,1
26.52,7.450794,-7.436294,1.5000608999999998,1010.0771,1,1
26.56,8.387642,-7.755653999999999,1.8693451,1010.0771,1,1
26.6,7.2213797999999985,-6.983471400000001,1.9735029,1010.0971,1,1
26.64,7.852317299999997,-6.3590527,3.0529475,1010.0894,1,1
26.68,7.4651594,-5.372376,4.1087203,1010.0593,1,1
26.72,6.6812777999999975,-4.566828,3.4174976000000004,1010.0695,1,1
26.76,6.8485770000000015,-3.6182833,2.5653055,1010.0593,1,1
26.8,7.4221606,-3.6421163,2.3427892000000003,1010.07935,1,1
26.84,7.5846796,-3.9567091,3.6021414,1010.0946,1,1
26.88,10.17056,-3.141628,2.7546835,1010.0946,1,1
26.92,10.605526,-3.3799558,3.3086092,1010.0643,1,1
26.96,8.014882,-3.1988267999999995,4.842557,1010.0615,1,1
27.0,7.599671400000001,-2.0787017,3.6258733,1010.0539,1,1
27.04,8.197164,-2.3074968,3.5217178,1010.0413,1,1
27.08,9.487741,-2.4361947,4.454398,1010.13116,1,1
27.12,8.417112,-2.7412555,4.1371975,1010.1242,1,1
27.16,9.50216,-2.6602247,5.7753043,1009.99316,1,1
27.2,7.8292603,-3.2655783,3.5217307,1010.0311,1,1
27.24,8.025249,-3.3323102,3.322887,1010.04596,1,1
27.28,8.65145,-3.2131479,3.597487,1010.0229,1,1
27.32,8.689703999999999,-3.1035173,3.9004903,1010.06085,1,1
27.36,8.469864999999999,-3.2560477000000003,4.302918,1010.05835,1,1
27.4,8.31218,-2.8842576,3.6448398,1010.0408,1,1
27.44,9.287292,-3.017722,4.596458,1010.05786,1,1
27.48,9.105675,-3.0177224,4.373942400000002,1010.04333,1,1
27.52,8.360057000000001,-3.2846503,3.8815672,1010.04785,1,1
27.56,8.130658,-3.5134456,4.1514316,1010.0784,1,1
27.6,8.613465,-2.9557598,3.9857314,1010.05786,1,1
27.64,8.474867999999999,-3.0749242000000003,3.92892,1010.0676,1,1
27.68,8.532257000000001,-3.1130571,4.407098,1010.0427,0,0
27.72,8.651799,-3.0224938,3.8200362,1010.045,0,0
27.76,8.756971,-3.1416583,3.895788,1010.0629,0,0
27.8,8.685306,-3.1178265,4.0472918,1010.05786,0,0
27.84,8.785712,-3.2560573,4.028357,1010.0576,0,0
27.88,8.503752,-3.074929,3.6922188,1010.0498,0,0
27.92,8.938746,-3.2036269,3.9242074,1010.04724,0,0
27.96,8.671092999999999,-3.3561568,3.8437238,1010.04724,0,0
28.0,8.197908,-3.3513910000000005,3.370285,1010.04706,0,0
28.04,7.9724283,-4.152152,3.5927260000000003,1010.06494,0,0
28.08,8.546003,-4.137852,4.2886834,1010.04724,0,0
28.12,7.943745599999999,-3.9900892,3.6826792,1010.0548,0,0
28.16,7.6282744,-4.423846,3.228176,1010.0623,0,0
28.2,8.383482,-4.1807513,3.8909929,1010.05194,0,0
28.24,8.703726,-4.142618700000001,3.2613165,1010.0674,0,0
28.28,8.880577,-3.7469945,2.5700934,1010.0523,0,0
28.32,9.014408,-3.7565274,2.996189,1010.0674,0,0
28.36,9.14346,-3.718395,2.9535797,1010.0397,0,0
28.4,9.363327,-3.727928,2.683718,1010.0571,0,0
28.44,9.114777,-3.856625,2.6316397,1010.06714,0,0
28.48,9.004836,-4.457211,2.9867196,1010.0417,0,0
28.52,8.861441000000003,-4.4238453,2.7499990000000003,1010.04456,0,0
28.56,8.455155,-4.65264,2.3996527000000003,1010.0795,0,0
28.6,8.689363,-4.4429110000000005,2.5842946,1010.05444,0,0
28.64,8.651124000000001,-4.509643,2.5227470000000003,1010.0644,0,0
28.68,8.240057,-4.7575035,2.1818695,1010.0644,0,0
28.72,8.163577,-4.8719015,2.2434165,1010.06714,0,0
28.76,8.115777,-5.000598,2.5322150000000003,1010.0364,0,0
28.8,8.115775,-4.9195666,2.5653558,1010.05194,0,0
28.84,8.302185,-4.6335735,2.57009,1010.074,0,0
28.88,8.259165,-4.5811415,2.4138546,1010.0361,0,0
28.92,8.412116000000001,-4.6383395,2.494339,1010.0693,0,0
28.96,8.617644,-4.4429107000000005,2.7168558,1010.0695,0,0
29.0,8.579688,-4.4715166,2.617459,1010.05444,0,0
29.04,8.574916,-4.433385,2.5511785,1010.0719,0,0
29.08,8.660962,-4.552549,2.5559134,1010.0438,0,0
29.12,8.713549,-4.5811480000000016,2.6174617,1010.06647,0,0
29.16,8.732672,-4.6669464000000005,2.5417113,1010.0542,0,0
29.2,8.603631,-4.719379,2.3570712000000005,1010.0774,0,0
29.24,8.603631,-4.719379,2.3570712000000005,1010.074,0,0
29.28,8.36465,-4.752745,2.2907900000000003,1010.0695,0,0
29.32,8.350319,-4.9386415,2.3002598,1010.04645,0,0
29.36,8.235612,-4.9338746,2.3760111,1010.0693,0,0
29.4,8.350342,-4.900509400000002,2.328668,1010.0614,0,0
29.44,8.431602,-4.833777400000002,2.4091535,1010.0589,0,0
29.48,8.345574000000001,-4.910043,2.323935,1010.04144,0,0
29.52,8.5559,-4.6049833,2.2955298,1010.0694,0,0
29.56,8.661063,-4.728914,2.3760157000000004,1010.0847,0,0
29.6,8.445981,-4.6288166,2.2860625,1010.0667,0,0
29.64,8.699321000000001,-4.6145167,2.3902204,1010.0514,0,0
29.68,8.517696,-4.6335835,2.167704,1010.0438,0,0
29.72,8.560723,-4.590685,2.2576587000000004,1010.07416,0,0
29.76,8.637210000000001,-4.457221499999998,2.2671282,1010.06647,0,0
29.8,8.637214,-4.590685400000001,2.3286757,1010.06396,0,0
29.84,8.436471000000001,-4.581152,2.3570830000000003,1010.05927,0,0
29.88,8.555975,-4.657418,2.347615,1010.0389,0,0
29.92,8.51297,-4.585919400000001,2.3002722,1010.0539,0,0
29.96,8.417378,-4.6335845,2.2339911,1010.07153,0,0
30.0,8.403048,-4.6431184000000005,2.295539,1010.06195,0,0
30.04,8.364882000000001,-4.624054,2.1393106,1010.05927,0,0
30.08,8.450931,-4.442925,2.2008588,1010.06116,0,0
30.12,8.675597999999999,-4.447692,2.3192205,1010.0539,0,0
30.16,8.5800085,-4.4190927,2.3286898,1010.0414,0,0
30.2,8.623038000000001,-4.3952603,2.4281132000000003,1010.0615,0,0
30.24,8.713865,-4.357128,2.4423177000000003,1010.0539,0,0
30.28,8.61828,-4.347595,2.3902402,1010.07904,0,0
30.32,8.67565,-4.4095607,2.3097565,1010.0459,0,0
30.36,8.7425785,-4.419094,2.4233830000000003,1010.06396,0,0
30.4,8.632648,-4.4286275,2.309758,1010.049,0,0
30.44,8.618319999999999,-4.414328,2.2813525,1010.0765,0,0
30.48,8.527527000000001,-4.6240573,2.3239644,1010.07416,0,0
30.52,8.527527000000001,-4.6240573,2.3239644,1010.04395,0,0
30.56,8.513199,-4.67649,2.3144965,1010.0564,0,0
30.6,8.408055000000001,-4.7527547,2.2624192,1010.049,0,0
30.64,8.431975999999999,-4.7527550000000005,2.328703,1010.05865,0,0
30.68,8.374624,-4.724156,2.2955625,1010.0665,0,0
30.72,8.417653999999999,-4.747989,2.2955635,1010.0436,0,0
30.76,8.455903999999999,-4.686024,2.1819391,1010.06396,0,0
30.8,8.666227000000001,-4.7622895,2.2671592,1010.036,0,0
30.84,8.685358,-4.6669583,2.4044583,1010.0532,0,0
30.88,8.546761,-4.700324500000002,2.2434897,1010.03357,0,0
30.92,8.546761,-4.700324500000002,2.2434897,1010.0562,0,0
30.96,8.522884,-4.8480887,2.45654,1010.05115,0,0
31.0,8.503489,-4.8433150000000005,2.4328427,1010.06903,0,0
31.04,8.4270115,-4.8433150000000005,2.224529,1010.0534,0,0
31.08,8.417452,-4.8623815000000015,2.200857,1010.0507,0,0
31.12,8.450911,-4.8909807,2.342889,1010.01825,0,0
31.16,8.340975,-4.8623815000000015,2.3286858,1010.07404,0,0
31.2,8.551286,-4.78135,2.2766073,1010.05096,0,0
31.24,8.47003,-4.762283999999998,2.2908106,1010.07904,0,0
31.28,8.584744,-4.6383533,2.4896555,1010.0405,0,0
31.32,8.599084,-4.6049875999999985,2.4896555,1010.04095,0,0
31.36,8.4270115,-4.652653,2.3712955,1010.06335,0,0
31.4,8.47003,-4.662186,2.4754524,1010.061,0,0
31.44,8.565625,-4.6669526,2.541734,1010.06616,0,0
31.48,8.46525,-4.695551999999998,2.3807645,1010.03357,0,0
31.52,8.560846000000002,-4.6669526,2.3286858,1010.0408,0,0
31.56,8.3744335,-4.857615,2.224529,1010.0635,0,0
31.6,8.278837,-4.9481792,2.2339978,1010.06104,0,0
31.64,8.360094,-4.9291134,2.2055914,1010.07367,0,0
31.68,8.297956,-4.9577127,2.1061687,1010.071,0,0
31.72,8.388773,-4.790883,2.3334203,1010.0585,0,0
31.76,8.364874,-4.7098517,2.2766073,1010.0536,0,0
31.8,8.383992,-4.671719,2.3949676,1010.04315,0,0
31.84,8.570405000000001,-4.6049875999999985,2.5133276,1010.0607,0,0
31.88,8.551286,-4.5859213,2.508593,1010.0581,0,0
31.92,8.603864,-4.557322,2.461249,1010.0632,0,0
31.96,8.680341,-4.533489,2.3476232999999995,1010.06335,0,0
32.0,8.680341,-4.533489,2.3476232999999995,1010.06586,0,0
32.04,8.542269000000001,-4.7384644,2.1725001,1010.07605,0,0
32.08,8.437135000000001,-4.757531,2.2766588,1010.0811,0,0
32.12,8.418047999999999,-4.8099637,2.3524125,1010.05817,0,0
32.16,8.408509,-4.695567,2.2387888,1010.05536,0,0
32.2,8.528015,-4.752766,2.290868,1010.07825,0,0
32.24,8.5949545,-4.605003400000001,2.314542,1010.08325,0,0
32.28,8.661893,-4.581171,2.380826,1010.05566,0,0
32.32,8.551978,-4.595471400000001,2.252999,1010.07806,0,0
32.36,8.547232000000001,-4.7241693,2.385565,1010.0548,0,0
32.4,8.418199000000001,-4.728936,2.290879,1010.08527,0,0
32.44,8.365642999999999,-4.833801,2.3713658,1010.0626,0,0
32.48,8.341754,-4.7670693,2.3618982,1010.0732,0,0
32.52,8.384803999999999,-4.900534,2.395042,1010.0528,0,0
32.56,8.437405,-4.7813706,2.3619032000000004,1010.0748,0,0
32.6,8.470874,-4.748005,2.3903103,1010.03705,0,0
32.64,8.427877,-4.6908064000000005,2.305093,1010.0473,0,0
32.68,8.418338,-4.757539,2.328767,1010.0621,0,0
32.72,8.442260000000001,-4.7051077,2.399785,1010.0671,0,0
32.76,8.442292,-4.7432404,2.3855848,1010.0518,0,0
32.8,8.451861,-4.7003417,2.43293,1010.05206,0,0
32.84,8.4614315,-4.700342,2.3571804,1010.0573,0,0
32.88,8.466255,-4.6431445999999985,2.3713875,1010.0596,0,0
32.92,8.542743,-4.6574445,2.4282014,1010.07214,0,0
32.96,8.595353,-4.757543,2.3713915,1010.0467,0,0
33.0,8.6240425,-4.8290415,2.295642,1010.04956,0,0
33.04,8.561927,-4.8385754,2.2198935,1010.04175,0,0
33.08,8.452013,-4.767077400000002,2.0257847,1010.0642,0,0
33.12,8.369993,-4.795658,1.9783711,1010.02875,0,0
33.16,8.379545,-5.157916,2.5086236,1010.0667,0,0
33.2,8.3508625,-5.091183999999998,2.5228264,1010.05896,0,0
33.24,8.303058,-5.1007175,2.3618562,1010.0366,0,0
33.28,8.197892,-4.9577203,2.1630101,1010.0537,0,0
33.32,8.212228,-4.9672527,2.2008853,1010.0592,0,0
33.36,8.288698,-4.8766885,2.2576973,1010.0717,0,0
33.4,8.494223,-4.95772,2.3997285,1010.0434,0,0
33.44,8.5850315,-4.781357,2.385525,1010.0437,0,0
33.48,8.623263,-4.633593599999998,2.2387576,1010.0534,0,0
33.52,8.561119,-4.752757,2.215085,1010.05646,0,0
33.56,8.541993,-4.852855,2.3050385,1010.0509,0,0
33.6,8.412931,-4.8814545,2.2008808,1010.05566,0,0
33.64,8.455942,-4.8766875,2.257693,1010.05835,0,0
33.68,8.374675,-4.9434190000000005,2.2387543,1010.04834,0,0
33.72,8.317314,-4.9815516,2.2340198,1010.0657,0,0
33.76,8.341209,-4.8814535,2.2955666,1010.02527,0,0
33.8,8.494149,-4.9577184,2.1582675,1010.0628,0,0
33.84,8.580183,-4.9148190000000005,2.1961424,1010.0829,0,0
33.88,8.642311999999999,-4.838554,2.2387516,1010.0578,0,0
33.92,8.565828,-4.786122,2.0493748,1010.0478,0,0
33.96,8.570605,-4.786122,2.1014526,1010.0804,0,0
34.0,8.274247,-4.9195848,2.0777798,1010.0577,0,0
34.04,8.245562,-4.9243510000000015,2.262421,1010.05237,0,0
34.08,7.963546000000001,-4.8004203,2.106185,1010.02997,0,0
34.12,8.025786,-5.0768833,2.068319,1010.05237,0,0
34.16,8.021005,-5.176981400000002,2.1203973,1010.0375,0,0
34.2,8.32691,-5.2341795,2.305039,1010.05505,0,0
34.24,8.570675999999999,-5.2341795,2.404461,1010.06,0,0
34.28,8.570675999999999,-5.2341795,2.404461,1010.0394,0,0
34.32,8.427278,-4.6049940000000005,1.6516905,1010.0726,0,0
34.36,8.460732,-4.924353,2.144068,1010.045,0,0
34.4,8.460732,-4.924353,2.144068,1010.0596,0,0
34.44,8.575446000000001,-5.1436142999999985,2.873166,1010.05176,0,0
34.48,8.479847,-4.9005203,2.6317112000000003,1010.06213,0,0
34.52,8.475063,-4.6383595,2.1109264,1010.02655,0,0
34.56,8.475063,-4.6383595,2.1109264,1010.04456,0,0
34.6,8.608894,-4.7527566,2.4091938,1010.04675,0,0
34.64,8.632791000000001,-4.9720182,2.3192396,1010.0465,0,0
34.68,8.255182000000001,-5.148381,2.1724727,1010.0641,0,0
34.72,8.350778,-5.081649,2.305036,1010.04175,0,0
34.76,8.288637,-5.100715599999999,2.163004,1010.0412,0,0
34.8,8.36989,-5.100715599999999,2.1677377,1010.0464,0,0
34.84,8.36989,-5.100715599999999,2.1677377,1010.0716,0,0
34.88,8.365105999999999,-5.072116,2.2766285,1010.04083,0,0
34.92,8.307746,-5.033983,2.1724715,1010.069,0,0
34.96,8.37466,-5.0625825,2.2245498,1010.0612,0,0
35.0,8.398558,-5.0864153,2.1914086,1010.05365,0,0
35.04,8.193024000000001,-5.196046,2.2150805,1010.05835,0,0
35.08,8.293395,-5.0864150000000015,2.3381746,1010.0531,0,0
35.12,8.132173,-5.2103767,2.2436044,1010.0684,0,0
35.16,8.218257000000001,-5.2199116,2.3051565,1010.0531,0,0
35.2,8.218306,-5.2008467000000005,2.1962695,1010.0635,0,0
35.24,8.194453999999999,-5.167482,2.0731795,1010.0677,0,0
35.28,8.194479,-5.172249,2.0921192,1010.04285,0,0
35.32,8.266248,-5.138885,2.1536732000000005,1010.0451,0,0
35.36,8.151581,-5.2056174,2.111068,1010.06177,0,0
35.4,8.213742,-5.181785,2.1584141,1010.05286,0,0
35.44,8.194647999999999,-5.1770196,2.1631508,1010.0525,0,0
35.48,8.223398,-5.124589,2.182095,1010.04205,0,0
35.52,8.280805,-5.0483255,2.1773648,1010.0346,0,0
35.56,8.342966,-5.0435596,2.1726327000000003,1010.0747,0,0
35.6,8.343039,-4.967296,2.13003,1010.08466,0,0
35.64,8.438659,-5.029262,2.1915793,1010.06714,0,0
35.68,8.362229,-5.014963,2.300475,1010.09,0,0
35.72,8.37664,-4.9911327000000005,2.167918,1010.0291,0,0
35.76,8.36713,-5.0054336,2.182126,1010.0693,0,0
35.8,8.391052,-5.048333,2.224738,1010.07214,0,0
35.84,8.29075,-5.0960007,1.988024,1010.07214,0,0
35.88,8.395953,-5.067402,1.9974972,1010.0566,0,0
35.92,8.367322,-5.057871,2.011705,1010.0592,0,0
35.96,8.367322,-5.057871,2.011705,1010.09424,0,0
36.0,8.376978999999999,-4.991141000000002,2.1632147,1010.02386,0,0
36.04,8.391364999999999,-4.9863753,2.2957822999999995,1010.0561,0,0
36.08,8.404769,-4.943454,2.1773365,1010.0613,0,0
36.12,8.404769,-4.943454,2.1773365,1010.0838,0,0
36.16,8.380877,-4.9386873,2.106321,1010.0461,0,0
36.2,8.414347,-4.910088,2.2057447,1010.07416,0,0
36.24,8.443029,-4.9053216,2.1726043,1010.06866,0,0
36.28,8.4526005,-4.957754,2.1394646,1010.06104,0,0
36.32,8.486067,-4.886256,2.2104812000000003,1010.0785,0,0
36.36,8.423933,-4.895789,2.1299965,1010.0609,0,0
36.4,8.380925999999999,-4.857657,2.073185,1010.09644,0,0
36.44,8.385710000000001,-4.9100895,2.15367,1010.0732,0,0
36.48,8.452639,-4.967288,2.2057495,1010.0832,0,0
36.52,8.428744,-4.929156,2.191547,1010.0878,0,0
36.56,8.514787,-4.829058,2.1962817,1010.0705,0,0
36.6,8.538689999999999,-4.7909255,2.1347349,1010.0653,0,0
36.64,8.443106,-4.848125,2.040048,1010.0898,0,0
36.68,8.428775,-4.8814907,2.1252677,1010.0701,0,0
36.72,8.428778999999999,-4.895791,2.1678777,1010.0596,0,0
36.76,8.438348,-4.852892,2.0826595,1010.0546,0,0
36.8,8.314081,-4.93869,2.1110668,1010.0749,0,0
36.84,8.447924,-4.800460299999999,2.3051782000000003,1010.0546,0,0
36.88,8.357115,-4.8338265,2.201022,1010.062,0,0
36.92,8.35234,-4.824293,2.1868188,1010.0799,0,0
36.96,8.467065,-4.8099940000000005,2.2388983,1010.0822,0,0
37.0,8.486193,-4.7909274,2.2199614,1010.0596,0,0
37.04,8.553118,-4.748029,2.2010248,1010.07654,0,0
37.08,8.467089,-4.748029,2.1489468,1010.0465,0,0
37.12,8.453044,-4.8338345999999985,2.2247243,1010.0665,0,0
37.16,8.529539999999999,-4.8147683,2.3004766,1010.0966,0,0
37.2,8.625146,-4.767103700000002,2.3241496,1010.0816,0,0
37.24,8.653853,-4.6479397,2.054291,1010.08905,0,0
37.28,8.582175,-4.6241080000000006,2.0022142,1010.0585,0,0
37.32,8.548736,-4.724206,2.153717,1010.05347,0,0
37.36,8.534415,-4.7814054000000015,2.3762357000000005,1010.0712,0,0
37.4,8.548764,-4.714674,2.404643,1010.0681,0,0
37.44,8.496205,-4.7289734,2.1395183,1010.0585,0,0
37.48,8.462775,-4.8052397,2.1063797,1010.086,0,0
37.52,8.524932000000002,-4.8433723,2.0258968,1010.07806,0,0
37.56,8.443685,-4.8862714999999985,2.0211632,1010.09564,0,0
37.6,8.400686,-4.852906,2.0211650000000003,1010.10345,0,0
37.64,8.27644,-4.881506,2.106387,1010.0755,0,0
37.68,8.2716875,-5.019737200000002,2.3194377,1010.08307,0,0
37.72,8.214339,-4.9959044000000015,2.3478448,1010.10315,0,0
37.76,8.20001,-5.000671400000001,2.2342203,1010.10297,0,0
37.8,8.376882,-4.9005737,2.0306425,1010.0731,0,0
37.84,8.496386,-4.7623440000000015,1.9454241,1010.1129,0,0
37.88,8.558552,-4.7337456,2.0022395,1010.0678,0,0
37.92,8.596801,-4.7003794,2.0827253,1010.0797,0,0
37.96,8.501233000000001,-4.667014599999999,2.2957761000000003,1010.0854,0,0
38.0,8.482122,-4.671781,2.2768393,1010.0699,0,0
38.04,8.367436,-4.876744,2.37153,1010.0674,0,0
38.08,8.377013999999999,-4.957776,2.314719,1010.0599,0,0
38.12,8.424874,-4.943478,2.0401292,1010.1024,0,0
38.16,8.424884,-4.9625444000000005,2.0543332,1010.0871,0,0
38.2,8.477484,-4.910113,2.0780072,1010.0746,0,0
38.24,8.467943,-4.8147817,2.087478,1010.0867,0,0
38.28,8.348467999999999,-5.0149775000000005,2.2531838,1010.0892,0,0
38.32,8.334149,-4.981612,2.2531855,1010.08936,0,0
38.36,8.190764999999999,-5.1389093,2.1821706,1010.0717,0,0
38.4,8.071300500000001,-5.1579760000000014,2.3005333,1010.0738,0,0
38.44,8.071300500000001,-5.1579760000000014,2.3005333,1010.0412,0,0
38.48,8.080891000000001,-5.005447,1.4956874,1010.0716,0,0
38.52,9.366678,-4.566924,1.7229407,1010.0988,0,0
38.56,9.09903,-4.6241236,1.585645,1010.1017,0,0
38.6,8.11919,-5.21041,2.291073,1010.08124,0,0
38.64,8.152667999999998,-5.2390103,2.584608,1010.1039,0,0
38.68,8.100111,-5.100781,1.4814935,1010.1038,0,0
38.72,8.205288000000001,-4.891052200000002,2.2437344,1010.0883,0,0
38.76,8.363050999999999,-4.9625515999999985,2.4331136000000004,1010.08636,0,0
38.8,8.434768,-4.9577856,2.1348479,1010.0883,0,0
38.84,8.549494000000001,-4.7957230000000015,1.5383136999999998,1010.0757,0,0
38.88,8.520826,-4.78619,1.4294233,1010.08026,0,0
38.92,8.578214,-5.2580800000000005,2.4473233,1010.0706,0,0
38.96,8.544775,-5.248547599999998,2.24848,1010.0727,0,0
39.0,8.860272,-5.005453599999999,1.5904006000000002,1010.08026,0,0
39.04,8.860272,-5.005453599999999,1.5904006000000002,1010.0627,0,0
39.08,8.616532000000001,-5.062653,1.5099185,1010.0899,0,0
39.12,8.343722999999999,-5.2199407,2.3431408,1010.0623,0,0
39.16,8.429765,-5.067411,1.7229341,1010.1078,0,0
39.2,8.276816,-5.281905999999998,1.528824,1010.0721,0,0
39.24,7.985255199999999,-4.843383,1.590372,1010.08484,0,0
39.28,7.8609834,-4.5192575,0.85653937,1010.0648,0,0
39.32,8.434567,-5.300973,1.6519202000000002,1010.0769,0,0
39.36,8.979466,-4.762352,1.9454535,1010.0771,0,0
39.4,8.864759,-4.4906583,1.405732,1010.07404,0,0
39.44,9.189792,-4.681321,1.8839074,1010.04926,0,0
39.48,9.189792,-4.681321,1.8839074,1010.0746,0,0
39.52,8.17648,-5.172276,1.988065,1010.0765,0,0
39.56,8.052208,-5.2866735,2.1869102,1010.0765,0,0
39.6,8.1860485,-5.15321,1.9028462,1010.06647,0,0
39.64,8.372466000000001,-4.9625483,1.9596597,1010.0894,0,0
39.68,8.133483,-4.6241226,1.9928012,1010.07684,0,0
39.72,8.621027,-4.605057,1.9785985,1010.06104,0,0
39.76,8.831342,-4.5001926,1.9833331000000003,1010.0864,0,0
39.8,8.826566999999997,-4.414395,1.8839111,1010.07605,0,0
39.84,8.429849,-5.2866745,1.7702858,1010.11163,0,0
39.88,8.334257000000001,-5.36294,2.2247891,1010.07855,0,0
39.92,8.501555,-5.5869684,1.7040051,1010.1163,0,0
39.96,8.625836,-4.953016000000001,1.5619733,1010.0836,0,0
40.0,9.12772,-4.3381300000000005,1.3347223999999998,1010.0785,0,0
40.04,8.750117999999999,-4.64319,1.3394572,1010.08344,0,0
40.08,8.15265,-4.681323,1.7844919,1010.08093,0,0
40.12,8.353927,-5.3295875,1.9407752,1010.063,0,0
40.16,8.401736999999999,-5.048361,2.229575,1010.0859,0,0
40.2,8.927541,-4.280946,1.6898552,1010.0986,0,0
40.24,8.339663,-4.738536,2.4000194,1010.1031,0,0
40.28,8.937151,-4.2714143,2.7266946,1010.088,0,0
40.32,8.550013,-4.3858120000000005,2.2437873,1010.0855,0,0
40.36,8.167666,-4.600308,1.9597267,1010.1006,0,0
40.4,8.354092,-4.609841,1.8366333,1010.0653,0,0
40.44,8.578768,-4.5717096,1.9171206000000005,1010.07007,0,0
40.48,8.698286999999999,-4.9053693,2.3668914,1010.0776,0,0
40.52,9.023339,-5.0245333,2.4947226,1010.06494,0,0
40.56,8.1630125,-4.4859138,1.4436883,1010.06494,0,0
40.6,7.804553,-4.700409,2.3668993,1010.08777,0,0
40.64,7.890614999999999,-4.752842,2.9208272,1010.09515,0,0
40.68,8.067480999999999,-5.0245357,3.058126,1010.10004,0,0
40.72,8.13919,-5.1913657,2.9918456,1010.05945,0,0
40.76,8.889657000000003,-4.881541,1.5478556,1010.09265,0,0
40.8,8.411703,-4.910141,1.7182965,1010.07965,0,0
40.84,8.167957000000001,-5.744289,2.352709,1010.0668,0,0
40.88,7.780806,-5.872986,2.3953197,1010.0843,0,0
40.92,8.383087,-5.13417,3.04867,1010.0895,0,0
40.96,8.784628,-4.995941,2.8024845000000003,1010.07965,0,0
41.0,7.972086999999997,-5.267636,2.1586077,1010.1045,0,0
41.04,7.040037599999999,-5.534563,2.2343595,1010.0843,0,0
41.08,7.933899,-5.52503,3.9624202,1010.107,0,0
41.12,7.866622,-5.239029,2.717239,1010.08405,0,0
41.16,8.526249,-4.8338714000000005,2.3337538,1010.0691,0,0
41.2,8.430659,-5.0912657,2.461583,1010.06116,0,0
41.24,8.454563,-5.177064,2.759851,1010.04865,0,0
41.28,8.315954,-5.0722,2.81193,1010.07404,0,0
41.32,7.909686,-5.2247295,2.892416,1010.0836,0,0
41.36,8.210828999999999,-5.505957,3.2759044,1010.07117,0,0
41.4,8.115242,-5.210431,3.2048893,1010.0561,0,0
41.44,8.373357,-5.0817337,3.3185153,1010.08344,0,0
41.48,8.511986,-5.3820276,3.1196718,1010.0859,0,0
41.52,8.225203500000001,-5.4678260000000005,2.9965777,1010.06866,0,0
41.56,6.9537910000000025,-5.1103344,2.641499,1010.0685,0,0
41.6,6.86298,-5.234265,2.6888435,1010.0634,0,0
41.64,7.7137947,-4.972104,3.2190976000000004,1010.10846,0,0
41.68,8.755802000000001,-4.528815,3.024988,1010.1059,0,0
41.72,9.142976,-4.9578050000000005,3.5599766,1010.076,0,0
41.76,8.330424,-4.2380557,2.78827,1010.0832,0,0
41.8,8.397347,-4.600314,2.4947374,1010.09283,0,0
41.84,8.296981,-4.662279,3.4416194,1010.0526,0,0
41.88,8.445167,-4.6241474,3.1528218,1010.0757,0,0
41.92,8.325685499999999,-4.4859176,3.6736073,1010.07324,0,0
41.96,8.325685499999999,-4.4859176,3.6736073,1010.07776,0,0
42.0,8.273117999999998,-4.4001199999999985,3.1812303,1010.10077,0,0
42.04,7.9528865999999985,-4.7957444,3.6688752,1010.09076,0,0
42.08,8.402192999999999,-4.595549,4.2417393,1010.07513,0,0
42.12,8.1869545,-4.40965,4.099693299999998,1010.0976,0,0
42.16,7.603825,-4.1284230000000015,3.181219,1010.1002,0,0
42.2,8.684066,-3.8519628,3.512628,1010.06226,0,0
42.24,8.684066,-3.8519628,3.512628,1010.0822,0,0
42.28,7.8380466,-4.366751,3.4463470000000003,1010.0651,0,0
42.32,8.115279,-4.0902910000000015,4.0807576,1010.06464,0,0
42.36,8.320816,-4.109357,3.2759094,1010.0822,0,0
42.4,8.320816,-4.109357,3.2759094,1010.0695,0,0
42.44,7.967117,-4.366751,4.1754465,1010.05475,0,0
42.48,7.952781,-4.4048843,3.872445,1010.0545,0,0
42.52,7.952781,-4.4048843,3.872445,1010.0747,0,0
42.56,8.120082,-4.347686,3.4037397000000005,1010.0772,0,0
42.6,8.00537,-4.4620833,4.3411517,1010.09247,0,0
42.64,7.7568226,-4.2618876,4.0286818,1010.05676,0,0
42.68,8.220468499999999,-4.1951556,4.3458877000000005,1010.07434,0,0
42.72,8.416445,-3.8567307,3.6404614,1010.0745,0,0
42.76,8.273052,-4.266655,3.9103224,1010.0991,0,0
42.8,8.158342999999999,-4.366752,4.1281056000000005,1010.08405,0,0
42.84,7.914575,-4.3333864,3.9008546,1010.064,0,0
42.88,8.368661999999999,-4.02356,3.7351508,1010.08405,0,0
42.92,8.368661999999999,-4.02356,3.7351508,1010.06903,0,0
42.96,8.31131,-4.242822,4.213326,1010.07654,0,0
43.0,8.144021,-4.2714214,3.8677151,1010.0738,0,0
43.04,8.177482000000001,-4.228523,4.033419,1010.0966,0,0
43.08,7.938495,-4.20469,3.555245,1010.0638,0,0
43.12,8.059591000000001,-4.2380953,4.3649745000000015,1010.0713,0,0
43.16,8.093150999999999,-4.314362,3.9010122,1010.0838,0,0
43.2,8.093150999999999,-4.314362,3.9010122,1010.09406,0,0
43.24,8.107592,-4.1904345,3.6453638,1010.0662,0,0
43.28,8.437465,-4.056973,3.787402,1010.0785,0,0
43.32,8.040842,-4.3668013,3.9673185,1010.0454,0,0
43.36,8.040842,-4.3668013,3.9673185,1010.0632,0,0
43.4,8.327731,-4.018845,3.6169817,1010.0784,0,0
43.44,8.122301,-4.157078,3.6927414,1010.068,0,0
43.48,8.227489,-4.171378,3.8253078,1010.08344,0,0
43.52,8.227557000000001,-4.1141815,3.8773923,1010.08325,0,0
43.56,8.366239,-3.9902525,3.8300545,1010.098,0,0
43.6,7.8787656,-4.4907427,3.5649343,1010.18604,0,0
43.64,7.6302495,-4.0998855,3.5696716,1010.0984,0,0
43.68,8.76313,-3.6470642,4.5307617,1010.0177,0,0
43.72,7.515668400000001,-4.5098129999999985,3.7259192,1010.02045,0,0
43.76,8.930591999999997,-4.180923,4.5071054,1010.0729,0,0
43.8,8.940185000000003,-3.1084483,3.621774700000001,1010.1256,0,0
43.84,7.845676400000001,-4.042695,3.4087324,1010.0653,0,0
43.88,7.6115336,-4.767214,4.942686,1010.0428,0,0
43.92,8.419422,-4.1284976,4.123643,1010.08026,0,0
43.96,8.624986999999999,-3.971202,3.839582,1010.08246,0,0
44.0,8.242669,-4.209531299999999,3.7022903,1010.08234,0,0
44.04,8.247516000000001,-3.8806405,4.0479080000000005,1010.07275,0,0
44.08,8.448302,-3.9426067,4.260959,1010.08234,0,0
44.12,7.917811,-4.481229,4.407732,1010.05237,0,0
44.16,8.078737,-4.028367,3.8063173,1010.06195,0,0
44.2,7.987925,-4.0379004,3.621676,1010.0749,0,0
44.24,8.093083,-4.2047300000000005,4.492806400000001,1010.07715,0,0
44.28,7.8445363,-4.247629,4.047773,1010.07965,0,0
44.32,8.389437,-3.9568694,4.185071,1010.0465,0,0
44.36,7.763284700000002,-4.2237964,3.683224,1010.05695,0,0
44.4,8.140892,-4.21903,4.085649,1010.06195,0,0
44.44,7.815869,-4.3620269999999985,3.7542408,1010.0669,0,0
44.48,7.8206506,-4.2952949999999985,3.5980055,1010.08484,0,0
44.52,8.719257,-3.8710716,4.137728,1010.0719,0,0
44.56,7.901913,-4.1999645,3.9767587,1010.06195,0,0
44.6,7.76808,-4.0665,3.8347266,1010.04193,0,0
44.64,8.289082,-4.0379010000000015,4.175604,1010.0844,0,0
44.68,8.461159,-3.203754,4.5638256,1010.0919,0,0
44.72,8.461159,-3.203754,4.5638256,1010.0794,0,0
44.76,8.733609,-3.7995734,3.8394618,1010.0716,0,0
44.8,8.088338,-5.2009416,4.9331093,1010.0899,0,0
44.84,7.892369,-4.590822,5.5296445,1010.08215,0,0
44.88,6.893392,-4.562223,3.2808025,1010.06195,0,0
44.92,6.9555326,-3.97117,3.526992,1010.064,0,0
44.96,7.1467266,-4.1475325,4.4786077,1010.0891,0,0
45.0,7.720306,-3.9759362,4.2987003,1010.05597,0,0
45.04,8.007097,-4.4811916,4.573296,1010.0716,0,0
45.08,8.317786,-4.547923,5.193503,1010.0816,0,0
45.12,7.8971024,-4.495489599999999,4.8668237,1010.0791,0,0
45.16,7.2279300000000015,-4.6956854,3.792114,1010.1892,0,0
45.2,6.9076834000000025,-4.2285629999999985,3.3849552000000003,1010.0438,0,0
45.24,8.427662,-4.528855999999998,4.942574,1010.0169,0,0
45.28,7.1562333,-4.6909184,3.8157861,1010.0413,0,0
45.32,8.590175,-4.9578457,4.9378395,1010.1517,0,0
45.36,7.3522053,-3.933036,4.2655544,1010.0791,0,0
45.4,8.145653,-4.3906255,4.791073,1010.01904,0,0
45.44,7.701131,-4.64802,4.5732903,1010.04346,0,0
45.48,7.973579400000001,-4.1665974000000014,3.8820677,1010.0463,0,0
45.52,8.026157000000001,-4.1808968,3.972021,1010.031,0,0
45.56,7.4955993,-4.4668903,3.569597,1010.0615,0,0
45.6,8.011818,-4.4430580000000015,5.136685,1010.05347,0,0
45.64,7.782387700000001,-4.5955873,4.26082,1010.0991,0,0
45.68,7.4908195000000015,-4.2380958,4.061975,1010.0914,0,0
45.72,8.203011,-4.1618309999999985,4.1613975,1010.0816,0,0
45.76,7.8732038,-4.1761303,4.2276793,1010.06903,1,2
45.8,8.145653,-4.0522003,4.4312580000000015,1010.0819,1,2
45.84,7.667672,-4.2047295999999985,4.180335,1010.0766,1,2
45.88,7.973579400000001,-4.0617332,4.3649764000000015,1010.0816,1,2
45.92,7.839745,-4.21903,4.402851999999998,1010.0819,1,2
45.96,7.8254056,-4.266695,4.4738684,1010.0791,1,2
46.0,8.026157000000001,-3.9092033,4.4312580000000015,1010.064,1,2
46.04,7.9449005,-4.0522003,4.2229443,1010.087,1,2
46.08,7.6294336,-4.3572598,4.1235222999999985,1010.087,1,2
46.12,7.863896400000002,-3.9997742,4.156686,1010.0845,1,2
46.16,7.562778999999999,-4.314367,3.465464,1010.0719,1,2
46.2,7.921274,-4.1380050000000015,3.4465275,1010.0845,1,2
46.24,8.0121,-4.4335318,3.5033412000000004,1010.06195,1,2
46.28,8.28456,-4.4335318,2.9920266,1010.049,1,2
46.32,8.322813,-4.9864526,2.8831363,1010.0874,1,2
46.36,8.064714,-4.457365,1.7421459,1010.0745,1,2
46.4,6.678576,-4.9673867,0.45438823,1010.0974,1,2
46.44,7.276061500000001,-4.872056,1.6948032,1010.077,1,2
46.48,9.685094,-4.7290597000000005,3.3755178,1010.0921,1,2
46.52,10.4307575,-2.2838163,4.516510500000001,1010.0997,1,2
46.56,13.5663185,1.109972,6.1735535000000015,1010.0894,1,2
46.6,12.6677265,0.41882098,4.7437644,1010.0894,1,2
46.64,12.242329,0.10899467,3.5648975,1010.09467,1,2
46.68,12.658186,-0.844317,3.190881,1010.06226,1,2
46.72,12.285368,-1.9501584,2.7742538,1010.0874,1,2
46.76,11.778724,-3.7423844,2.4002373,1010.06714,1,2
46.8,11.286408,-4.576532,2.2818778,1010.0849,1,2
46.84,9.842918,-5.5679754999999975,1.3681386,1010.0872,1,2
46.88,8.456783999999999,-6.001733,0.30763283,1010.09973,1,2
46.92,7.333541,-6.7357830000000005,-0.7339353,1010.0872,1,2
46.96,5.1396265,-8.294448,-0.16580534,1010.06726,1,2
47.0,5.1396265,-8.294448,-0.16580534,1010.0772,1,2
47.04,5.024921,-9.080929,-0.45460308,1010.07025,1,2
47.08,4.245823400000001,-11.10195,1.5243791000000002,1010.0747,1,2
47.12,5.5459404,-10.153405,2.333963,1010.0699,1,2
47.16,7.959751,-9.304958,1.945743,1010.07776,1,2
47.2,11.023622,-8.742505,1.9362755,1010.0653,1,2
47.24,11.907889,-8.189585000000001,2.38131,1010.0655,1,2
47.28,10.6364765,-5.658543,2.447593,1010.083,1,2
47.32,9.771343,-4.79103,2.248749,1010.083,1,2
47.36,9.952991,-3.4182620000000004,2.2203438,1010.0757,1,2
47.4,9.704446,-3.2609658,1.9883586,1010.09326,1,2
47.44,10.048601,-2.9130073,2.8026772,1010.0755,1,2
47.48,10.665303,-2.6746821,2.7269363,1010.07776,1,2
47.52,11.946302,-2.8415117000000003,2.4428732,1010.0528,1,2
47.56,11.841161,-4.3572774,2.8595017999999994,1010.08093,1,2
47.6,11.841161,-4.3572774,2.8595017999999994,1010.0878,1,2
47.64,11.7551365,-6.2782,2.6653924,1010.0829,1,2
47.68,12.180552,-7.1838465,2.0546556,1010.0934,1,2
47.72,12.05629,-7.136181,2.0830634,1010.07776,1,2
47.76,11.1529255,-9.462261,2.3008473,1010.088,1,2
47.8,10.067917,-11.202055,1.6475004,1010.091,1,2
47.84,9.871964,-10.14388,2.1919587000000003,1010.0934,1,2
47.88,10.302154,-9.014205,3.0725584,1010.1132,1,2
47.92,9.532618,-7.5365734,2.807433,1010.08344,1,2
47.96,7.333925999999999,-7.693869999999999,2.96367,1010.0935,1,2
48.0,6.5213666,-7.870233,3.2808757000000006,1010.1038,1,2
48.04,5.3598870000000005,-7.493675,3.4371123,1010.091,1,2
48.08,4.633363200000002,-6.955054799999999,2.9636722,1010.0763,1,2
48.12,2.8935273,-6.554664,1.4202576,1010.0607,1,2
48.16,1.9327995,-6.573730499999999,-0.45456544,1010.04584,1,2
48.2,2.037968,-7.264881599999999,-1.434586,1010.0358,1,2
48.24,3.9355628,-8.203894,-0.85225314,1010.05585,1,2
48.28,7.1141453,-9.700593,0.667492,1010.0763,1,2
48.32,12.888167,-11.492819,1.1882781999999998,1010.0585,1,2
48.36,14.546766,-11.221125,0.9752306,1010.05835,1,2
48.4,13.925417,-7.3077826,1.7990193,1010.0757,1,2
48.44,13.413984,-7.1171203,3.3140292,1010.1115,1,2
48.48,13.863298,-6.559434,4.5449758000000005,1010.096,1,2
48.52,13.154715,-4.9244757,2.6795132,1010.0863,1,2
48.56,10.788679,-4.9864397,1.5905969,1010.0588,1,2
48.6,9.746664,-5.024572,1.4201568000000002,1010.0788,1,2
48.64,8.876691000000003,-4.2571554,1.4106836,1010.081,1,2
48.68,9.144343,-3.9949942,1.2165715,1010.1193,1,2
48.72,10.009455,-3.6613345,0.8662225,1010.0813,1,2
48.76,10.649932000000002,-3.4516056000000006,0.9419715,1010.08887,1,2
48.8,10.879313,-5.515524,3.4985456,1010.1064,1,2
48.84,10.310484,-7.860667999999999,7.338145,1010.11096,1,2
48.88,8.207336999999999,-8.995109,8.351303999999999,1010.0935,1,2
48.92,7.667203,-9.49083,8.422319,1010.1214,1,2
48.96,7.041016,-9.319233,8.924163,1010.1214,1,2
49.0,7.5046077,-8.065627000000001,8.365499,1010.1266,1,2
49.04,7.452013000000001,-7.7033687,7.877853,1010.0964,1,2
49.08,7.1747513,-8.880708,6.8173437,1010.08887,1,2
49.12,6.1709432999999985,-7.9893603,6.135585,1010.0863,1,2
49.16,6.1709432999999985,-7.9893603,6.135585,1010.0638,1,2
49.2,5.4108887,-7.779629700000001,5.325995,1010.09174,1,2
49.24,6.008331,-8.432648,3.7541702,1010.0788,1,2
49.28,6.3476644,-7.665230800000002,2.61791,1010.0438,1,2
49.32,4.8802476,-9.057065,1.9977015,1010.06885,1,2
49.36,10.061522,-5.639443,5.1129370000000005,1010.1441,1,2
49.4,8.173467,-5.6918739999999985,3.702081,1010.2119,1,2
49.44,8.785249,-4.686129599999999,6.0645456,1010.139,1,2
49.48,8.756554,-5.9254346,4.686833,1010.1491,1,2
49.52,8.035496,-5.2295346,3.9672666,1010.1139,1,2
49.56,7.576629,-5.6823564000000015,4.246596,1010.0966,1,2
49.6,7.428451499999999,-5.105603,3.5648413,1010.0538,1,2
49.64,7.428451499999999,-5.105603,3.5648413,1010.00336,1,2
49.68,8.169315,-5.7633886,4.398096,1009.95575,1,2
49.72,7.4332213,-5.7204885,4.7863172999999986,1010.00616,1,2
49.76,7.328061999999999,-3.6613364,4.3081417,1010.0384,1,2
49.8,8.27924,-3.3991756,4.279735,1010.0791,1,2
49.84,7.6913214,-3.9139638,3.9199202,1010.0835,1,2
49.88,6.888310400000001,-4.4859505,3.0535235000000003,1010.07404,1,2
49.92,8.088036,-4.3524866,2.5706139,1010.08154,1,2
49.96,8.532556,-4.838676,3.0866635,1010.081,1,2
50.0,8.231424,-6.4164057,4.4028277000000005,1010.091,1,2
50.04,8.193178999999999,-4.5860476,3.640588,1010.0738,1,2
50.08,8.045002,-4.7385774000000005,2.8878176,1010.0913,1,2
50.12,8.307888,-4.4525843,4.2513256,1010.0662,1,2
50.16,8.19795,-4.2619214,3.7494788,1010.0838,1,2
50.2,7.8060006999999985,-4.6051135,3.8583694,1010.0685,1,2
50.24,6.8691554,-5.3153305,4.0240730000000005,1010.0866,1,2
50.28,7.8824716,-4.838675,4.4880447,1010.2791,1,2
50.32,7.437944,-5.038869999999998,4.270262000000002,1010.2111,1,2
50.36,7.6960516,-4.9340053,4.478575,1009.9984,1,2
50.4,7.825102999999999,-5.000737,4.4170275000000006,1009.96326,1,2
50.44,6.759203,-5.339163,3.7778826,1010.0413,1,2
50.48,7.553211,-4.5002627,4.1803584,1010.0358,1,2
50.52,7.6440372,-4.571761,4.3129225,1010.05835,1,2
50.56,7.624936999999999,-4.4859633,4.0383286,1010.03796,1,2
50.6,7.476782000000001,-5.0436516,4.876320400000001,1010.0683,1,2
50.64,7.357305999999999,-5.1771150000000015,4.3650064,1010.05554,1,2
50.68,7.9261312,-4.700460400000001,4.757964599999998,1010.05835,1,2
50.72,7.897461999999999,-4.767192400000001,4.819512400000002,1010.04315,1,2
50.76,7.457739,-4.719527200000001,3.9199777,1010.07043,1,2
50.8,7.4386387,-5.000755000000002,4.289263,1010.09076,1,2
50.84,7.4099884,-5.153285,4.549658,1010.081,1,2
50.88,7.209246,-5.081786599999999,4.436033,1010.07825,1,2
50.92,7.347879400000001,-5.029355000000002,4.3602843,1010.0528,0,0
50.96,7.07545,-5.0865545,4.080956,1010.08344,0,0
51.0,7.5056515,-4.9816910000000005,4.2987404,1010.08093,0,0
51.04,7.539119199999999,-5.0198236,4.525993,1010.0903,0,0
51.08,7.2619195,-5.096089,4.464448,1010.0729,0,0
51.12,7.2714887,-5.129455,4.2608690000000005,1010.0632,0,0
51.16,7.5774149999999985,-5.148522,4.559139,1010.07825,0,0
51.2,7.42448,-4.838696499999998,4.393436,1010.07025,0,0
51.24,7.0851425999999975,-5.3439517,4.3887043,1010.073,0,0
51.28,6.8700705,-5.196189,4.095173,1010.0959,0,0
51.32,6.922658,-5.186656,4.00522,1010.07825,0,0
51.36,6.6693473,-5.305821,3.337671,1010.08325,0,0
51.4,7.066089999999999,-5.382086,4.2987566,1010.0653,0,0
51.44,7.209503,-5.615648,4.104648,1010.0678,0,0
51.48,7.418901400000001,-5.362998,3.2618403,1010.07074,0,0
51.52,7.6053042,-5.2152343,3.5601068,1010.093,0,0
51.56,7.806037400000001,-5.1628017,3.4796205,1010.0553,0,0
51.6,7.605266,-5.4344945,3.3565242,1010.0934,0,0
51.64,7.7820907,-5.477393,3.7305396,1010.09283,0,0
51.68,8.030631,-5.248598,3.6926634,1010.07025,0,0
51.72,8.0688505,-5.5250580000000005,3.3991287000000003,1010.08777,0,0
51.76,7.8633,-5.358228,2.9588273,1010.0903,0,0
51.8,8.336472500000001,-5.9683465999999985,2.963559,1010.09534,0,0
51.84,8.465517,-5.7252519999999985,3.5648274,1010.10785,0,0
51.88,7.375693300000001,-6.1113424000000025,2.920946,1010.0829,0,0
51.92,7.4569306,-5.653753,2.8025842,1010.0755,0,0
51.96,7.5333885999999985,-5.410658,2.93988,1010.0903,0,0
52.0,7.533378999999999,-5.320093,2.6700182,1010.08777,0,0
52.04,7.5381303,-5.55842,2.3433416,1010.09283,0,0
52.08,7.3517084000000015,-5.768148,2.42856,1010.09283,0,0
52.12,7.1700664000000005,-5.958811,2.97775,1010.0906,0,0
52.16,6.8928094,-6.0684404,3.3754375,1010.0799,0,0
52.2,6.950157000000001,-6.073207,3.1529195,1010.1156,0,0
52.24,7.1126520000000015,-6.1161056,2.7362900000000003,1010.07526,0,0
52.28,7.5523744000000015,-5.8253445999999975,2.8499143,1010.0906,0,0
52.32,7.5571356,-5.6680480000000015,2.6273954,1010.09784,0,0
52.36,7.47585,-5.8062778,3.0676923,1010.0653,0,0
52.4,7.5762167,-5.973107,3.332818,1010.09283,0,0
52.44,7.265510000000001,-5.7347784000000015,2.9351265,1010.10284,0,0
52.48,7.720469500000001,-5.658535,3.1671927,1010.0903,0,0
52.52,7.739597,-5.6776019999999985,3.4086480000000003,1010.0674,0,0
52.56,7.519761999999999,-6.0017285000000005,2.8026476,1010.1003,0,0
52.6,7.519761999999999,-6.0017285000000005,2.8026476,1010.08527,0,0
52.64,8.1507225,-5.853965799999999,2.897338,1010.09283,0,0
52.68,7.7683472999999985,-6.0827603,2.9020734,1010.0903,0,0
52.72,7.6297507,-5.7777014000000015,2.8405275000000003,1010.1078,0,0
52.76,7.950024000000001,-5.420210400000001,2.712701,1010.10034,0,0
52.8,7.792308,-5.334413,2.750578,1010.08527,0,0
52.84,7.6345835000000015,-5.7062040000000005,2.873673,1010.08484,0,0
52.88,7.3334823,-6.0255647,3.1482713,1010.09283,0,0
52.92,7.36217,-6.0636972999999985,3.067787,1010.08026,0,0
52.96,7.2474729999999985,-5.906401,3.0441167,1010.1055,0,0
53.0,7.366986,-6.354458,2.6748347000000003,1010.0678,0,0
53.04,7.104114,-6.2114615,2.5091321,1010.10834,0,0
53.08,7.2331867,-6.039866,2.4475868,1010.07776,0,0
53.12,7.520002000000002,-5.553678,2.2676816000000004,1010.0729,0,0
53.16,7.763789,-5.8444379999999985,2.9636407000000005,1010.0754,0,0
53.2,7.457891,-6.006501,2.8452814,1010.07776,0,0
53.24,7.281046400000001,-6.1876307,2.7458599,1010.09576,0,0
53.28,7.5487423,-6.1447325,2.7127213,1010.083,0,0
53.32,7.4292564,-6.044635,2.4239235,1010.08026,0,0
53.36,7.6204658,-5.9350047,2.2392833,1010.0729,0,0
53.4,7.591805,-5.9350047,2.2866292,1010.0653,0,0
53.44,7.5679326,-5.8635072999999975,2.4381322999999995,1010.05975,0,0
53.48,7.491472999999999,-6.05417,2.50915,1010.05023,0,0
53.52,7.467044,-6.0255575,2.5138361,1010.0428,0,0
53.56,7.428802,-6.0017247000000005,2.5611796,1010.07043,0,0
53.6,7.2280440000000015,-6.1018224000000005,2.7410865,1010.05554,0,0
53.64,7.4287906,-6.106589,2.6653354,1010.06476,0,0
53.68,7.600859,-6.025557,2.7647576000000003,1010.04987,0,0
53.72,7.486140299999999,-5.982658,2.6085222000000003,1010.07275,0,0
53.76,7.624751,-5.8110620000000015,2.286582,1010.07043,0,0
53.8,7.7681426999999985,-5.830128,2.2534412999999995,1010.08826,0,0
53.84,7.8254967,-5.853961,2.3575976,1010.0424,0,0
53.88,7.806375999999997,-5.911159,2.4854264,1010.083,0,0
53.92,7.7729135,-6.0398564000000015,2.7363493,1010.0528,0,0
53.96,7.204111599999999,-6.106588,2.457019,1010.07526,0,0
54.0,7.161090400000001,-6.17332,2.4380813,1010.0884,0,0
54.04,7.161086599999999,-6.1256537,2.4238777,1010.0855,0,0
54.08,7.443092,-6.1256537,2.5848472,1010.0353,0,0
54.12,7.696415400000001,-5.944525,2.3291888,1010.0453,0,0
54.16,7.615156699999999,-6.077988,2.4144080000000003,1010.0454,0,0
54.2,7.596032000000001,-5.958824,2.6747997000000003,1010.08826,0,0
54.24,7.5291130000000015,-5.8777924000000015,2.423876,1010.068,0,0
54.28,7.505210400000001,-5.7395625,2.5138295,1010.08026,0,0
54.32,7.4813075,-5.920692,2.8925812,1010.0428,0,0
54.36,7.376148,-6.0398555,3.0488167,1010.07074,0,0
54.4,7.031998,-6.139953,2.883112,1010.08325,0,0
54.44,7.0511155,-6.1208870000000015,2.7505481,1010.0479,0,0
54.48,7.323560700000002,-5.934991,2.783689,1010.05835,0,0
54.52,7.3474555,-6.016022,2.9067830000000003,1010.0453,0,0
54.56,7.2661953,-6.020788,2.7647507,1010.05566,0,0
54.6,7.3856864,-6.0827537000000005,2.565905,1010.05566,0,0
54.64,7.4191413,-6.268649,2.755281,1010.0483,0,0
54.68,7.409574,-5.9397564,2.3244495,1010.0509,0,0
54.72,7.3426550000000015,-5.9778895,2.343387,1010.0509,0,0
54.76,7.352211,-5.9874220000000005,2.5517006,1010.0663,0,0
54.8,7.457362700000001,-5.9206905,2.7647482999999995,1010.0759,0,0
54.84,7.533834,-6.1637845,2.7884197,1010.0713,0,0
54.88,7.552951299999997,-6.254349,2.9162482999999995,1010.0713,0,0
54.92,7.457350999999999,-6.173317400000001,2.8404977,1010.0934,0,0
54.96,7.677218400000001,-5.820592,2.5564332000000003,1010.0483,0,0
55.0,7.772813,-5.749094,2.4333386000000004,1010.081,0,0
55.04,7.74413,-5.849191,2.5659013,1010.0563,0,0
55.08,7.5720534,-6.006488,2.7458086,1010.0659,0,0
55.12,7.189663,-6.2734146,2.6889951,1010.0763,0,0
55.16,7.1848800000000015,-6.1494839999999975,2.5706346,1010.0659,0,0
55.2,7.0940614,-6.0827519999999975,2.3007731,1010.08905,0,0
55.24,7.3899274,-6.1447059999999984,2.8451857999999994,1010.0662,0,0
55.28,7.2752050000000015,-6.077974,2.6416056,1010.0509,0,0
55.32,7.308649000000001,-6.125639,2.4901035,1010.08636,0,0
55.36,7.399450999999999,-5.977875,2.688947,1010.0838,0,0
55.4,7.4902515,-6.049373,2.7078834,1010.0638,0,0
55.44,7.6240716,-5.787213,2.7646947,1010.0966,0,0
55.48,7.5619197,-5.87301,2.745756,1010.0562,0,0
55.52,7.561911999999999,-6.001707,2.6936767,1010.0785,0,0
55.56,7.743514999999999,-5.811043700000001,2.3527968,1010.08636,0,0
55.6,7.743514999999999,-5.811043700000001,2.3527968,1010.0613,0,0
55.64,7.609666000000002,-6.144703,2.8025641,1010.0659,0,0
55.68,7.5236144,-6.173301,2.750484,1010.0588,0,0
55.72,7.1364354999999975,-6.039838,2.504294,1010.08905,0,0
55.76,7.432753999999999,-5.9397388,2.679464,1010.0688,0,0
55.8,7.432753999999999,-5.9397388,2.679464,1010.06885,0,0
55.84,7.925051700000001,-5.6489787000000025,2.4758825,1010.0685,0,0
55.88,7.600003,-5.725243,2.4048643,1010.0713,0,0
55.92,7.580868700000001,-5.7443085,2.8925068,1010.0966,0,0
55.96,7.5999804000000015,-5.6203785,2.9777255,1010.0759,0,0
56.0,7.528261,-5.9778695,2.9540513,1010.08154,0,0
56.04,7.5473732999999985,-5.996935400000001,2.982457,1010.06903,0,0
56.08,7.5999365,-5.887304,2.830955,1010.0914,0,0
56.12,7.5664625,-5.811039,2.4569354,1010.0688,0,0
56.16,7.451733,-5.858704,2.3811839,1010.08136,0,0
56.2,7.418267,-5.949269,2.4474647000000003,1010.0734,0,0
56.24,7.351897200000002,-5.844418,2.2912796,1010.0964,0,0
56.28,7.4952993,-5.791986,2.556407,1010.0759,0,0
56.32,7.896814,-5.505993,2.8688786,1010.0734,0,0
56.36,7.657831,-5.7586207,2.8310041,1010.0709,0,0
56.4,7.6721783,-5.6203910000000015,2.8641458,1010.0785,0,0
56.44,7.7343197,-5.5059934,2.759989,1010.08344,0,0
56.48,7.648291,-5.8777843,2.6889737,1010.0759,0,0
56.52,7.6721973,-5.706189,2.6463647,1010.0755,0,0
56.56,7.8108195999999985,-5.834886,2.9446328,1010.07825,0,0
56.6,7.7917112999999985,-5.501228,2.5422094,1010.07825,0,0
56.64,7.7917112999999985,-5.501228,2.5422094,1010.071,0,0
56.68,7.681783699999999,-6.0970473,2.6984453,1010.06824,0,0
56.72,7.5909824000000015,-5.696657,2.5280085,1010.0709,0,0
56.76,7.5527477,-5.892086,2.4759305,1010.08826,0,0
56.8,7.5240808,-5.668058,2.7931364,1010.0835,0,0
56.84,7.528864,-5.939751599999999,2.8594186,1010.0634,0,0
56.88,7.7296276,-5.6537585,2.8499508,1010.1114,0,0
56.92,7.9686213000000015,-5.5822606,2.840482,1010.08887,0,0
56.96,7.782217,-5.6060934,2.632169,1010.0607,0,0
57.0,7.9303979999999985,-5.7252574,2.6463728,1010.0964,0,0
57.04,8.030783,-5.372533,2.660577,1010.1013,0,0
57.08,7.6579647,-5.6394596,2.6937184,1010.0734,0,0
57.12,7.791806699999999,-5.7919903,3.029862,1010.0938,0,0
57.16,7.3759755999999985,-5.7252584,2.6132355,1010.0634,0,0
57.2,7.457236,-5.7300252999999985,2.9067688,1010.04584,0,0
57.24,7.486149,-5.691898,2.9067903,1010.0788,0,0
57.28,7.8255315,-5.5822678,2.7884316000000005,1010.0453,0,0
57.32,7.6869335,-5.615634,2.7647612,1010.0509,0,0
57.36,7.887693400000002,-5.591802,2.906794,1010.0784,0,0
57.4,7.763435,-5.7061996,2.9399366,1010.08325,0,0
57.44,7.734773,-5.6537676,2.6748114,1010.0655,0,0
57.48,7.7252293,-5.6013355,2.45703,1010.06287,0,0
57.52,7.8782,-5.725267,2.3007963,1010.0784,0,0
57.56,8.016831,-5.472639599999999,2.8263166,1010.08075,0,0
57.6,8.055086,-5.3391767,2.7221613,1010.0755,0,0
57.64,7.653607000000001,-5.596571,2.7647731,1010.0655,0,0
57.68,7.605817299999999,-5.596571,2.7363677,1010.0985,0,0
57.72,7.524576700000001,-5.52984,2.6369467,1010.101,0,0
57.76,7.476795,-5.749102,2.7695112,1010.0884,0,0
57.8,7.443345,-5.653771,2.7458403,1010.0683,0,0
57.84,7.720607000000001,-5.6108727,2.6085455,1010.0983,0,0
57.88,7.7779803,-5.4917089999999975,2.6038127,1010.07825,0,0
57.92,7.873585,-5.5393753,2.551735,1010.0884,0,0
57.96,8.045674,-5.3677793,2.6132834,1010.05304,0,0
58.0,7.816268400000001,-5.6490073,2.6132857999999994,1010.073,0,0
58.04,7.9692307,-5.553676,2.689037,1010.08057,0,0
58.08,8.002714,-5.444046,2.812134,1010.078,0,0
58.12,7.8784556,-5.5298443,2.6369624,1010.10077,0,0
58.16,7.563005,-5.6823739999999985,2.7411206000000004,1010.03546,0,0
58.2,7.868676,-5.4345074,2.750568,1010.091,0,0
58.24,8.098113,-5.4011416,2.9020696,1010.08344,0,0
58.28,8.098113,-5.4011416,2.9020696,1010.08325,0,0
58.32,7.8686914,-5.3439435999999985,2.778976,1010.09076,0,0
58.36,7.863918300000001,-5.34871,2.7505698,1010.0859,0,0
58.4,8.069456,-5.3439435999999985,3.3755121,1010.0759,0,0
58.44,7.3620553,-5.6251707,2.8263218,1010.09326,0,0
58.48,7.524571000000001,-5.710969,3.2287467,1010.1084,0,0
58.52,7.777903999999999,-5.606105,3.4323263,1010.07043,0,0
58.56,7.1613190000000015,-5.6013384,3.5932972000000003,1010.083,0,0
58.6,7.7157826,-5.162815599999999,4.1614256,1010.08075,0,0
58.64,7.3047255999999985,-5.2724465999999985,3.0677790000000003,1010.0683,0,0
58.68,7.304732,-5.3391785999999986,3.3849847,1010.06824,0,0
58.72,7.586746700000001,-5.601339,4.355539,1010.08093,0,0
58.76,7.491157,-5.329644999999998,3.7779417,1010.0835,0,0
58.8,7.127898700000001,-5.5679735999999975,3.8726304,1010.0934,0,0
58.84,7.127904400000001,-5.3820777,3.8063493,1010.0582,0,0
58.88,7.0753336,-5.6156397,4.185102,1010.088,0,0
58.92,7.381247,-5.386845,4.3886824,1010.09326,0,0
58.96,7.5485463,-5.1675835,3.8063507,1010.0709,0,0
59.0,7.610687299999999,-5.210482,4.076212399999998,1010.0906,0,0
59.04,7.1183733999999985,-5.3868456,3.6453822,1010.0734,0,0
59.08,7.486425,-5.3725457,4.3886843,1010.0784,0,0
59.12,7.2283216,-5.3153467,4.128292,1010.0683,0,0
59.16,7.519899400000001,-5.2486157,4.213513,1010.0759,0,0
59.2,7.3239307,-5.315347,3.9673238,1010.09576,0,0
59.24,7.266194,-5.4202023,4.2750254,1010.0634,0,0
59.28,7.041534,-5.4345016,3.9814916,1010.0683,0,0
59.32,7.481267,-5.138975,4.090382,1010.0785,0,0
59.36,7.1944704,-5.35347,3.8347235,1010.0759,0,0
59.4,7.366534,-5.3248706,4.2418814000000005,1010.08405,0,0
59.44,7.199231599999999,-5.4011354,3.8962688,1010.0935,0,0
59.48,7.500350999999997,-5.310570200000001,4.204005,1010.146,0,0
59.52,6.993682400000001,-5.334403,3.811048,1010.18353,0,0
59.56,7.987867999999999,-5.2819705,4.535411,1010.05835,0,0
59.6,7.987867999999999,-5.2819705,4.535411,1010.01556,0,0
59.64,6.5539184000000015,-5.534598,2.94465,1010.071,0,0
59.68,8.437152000000001,-5.2438379999999984,5.070397,1010.1489,0,0
59.72,7.208734,-4.9912095,3.5695899,1010.05066,0,0
59.76,6.4965296,-5.7776914,3.9104657,1010.02094,0,0
59.8,6.6877179999999985,-5.587029,3.8063085,1010.0609,0,0
59.84,7.724925999999999,-5.2247705,4.42178,1010.07886,0,0
59.88,7.2564964,-5.2533699999999985,3.7684317,1010.0655,0,0
59.92,7.3568587,-5.358234,4.25134,1010.1038,0,0
59.96,7.552822,-5.2390695,4.099838,1010.07886,0,0
60.0,7.208667299999999,-5.3439336,3.8915234,1010.0863,0,0
60.04,7.414186,-5.258135299999998,4.0004134,1010.0938,0,0
60.08,7.495438,-5.2057033,3.905725,1010.0859,0,0
60.12,7.557566599999999,-5.224768599999999,4.5401344,1010.05585,0,0
60.16,6.983981,-5.4773964999999984,3.938864,1010.0537,0,0
60.2,7.1942883,-5.3343997000000005,3.9057229,1010.07904,0,0
60.24,7.362253,-5.2486176,4.327146,1010.0914,0,0
60.28,7.1137123,-5.3534822,3.9294572,1010.0659,0,0
60.32,7.4722240000000015,-5.2390857,4.256133599999999,1010.08905,0,0
60.36,7.242802,-5.3105845,3.972070200000001,1010.0588,0,0
60.4,7.4005537,-5.324884,4.02415,1010.0866,0,0
60.44,7.300194999999999,-5.310585,4.2514033,1010.09686,0,0
60.48,7.4149375,-5.2819867,3.8773875,1010.0866,0,0
60.52,7.381488,-5.377317400000001,3.8442476,1010.0964,0,0
60.56,7.3767257,-5.3868513,4.0194225,1010.09406,0,0
60.6,7.563155999999997,-5.315353,3.754297,1010.07654,0,0
60.64,7.295503999999997,-5.5679812,3.6690795,1010.08136,0,0
60.68,8.045952,-5.0436606,4.208803,1010.06885,0,0
60.72,7.9551525,-4.7433677,3.6264732,1010.08435,0,0
60.76,7.840455499999999,-5.1056266,3.54599,1010.059,0,0
60.8,7.477198599999999,-5.3296547,3.4844434,1010.0617,0,0
60.84,7.4628773,-5.2247910000000015,3.5507267,1010.0617,0,0
60.88,7.7114449999999986,-5.220025,3.4560401,1010.05945,0,0
60.92,7.6827926999999985,-5.329656,3.1861815,1010.04926,0,0
60.96,7.9456997,-4.9483323,2.7458837000000003,1010.0768,0,0
61.0,7.998295,-4.9388,3.1483097,1010.06226,0,0
61.04,8.027000000000001,-4.9149675,2.72695,1010.0645,0,0
61.08,8.452411999999999,-4.643274,2.7506227,1010.03644,0,0
61.12,8.285136,-5.034132,2.9684072,1010.0719,0,0
61.16,7.797614599999997,-5.558454,2.935268,1010.0718,0,0
61.2,7.8823395,-5.086532599999999,1.6947339,1010.067,0,0
61.24,7.777166,-5.2867274,2.0119374,1010.0822,0,0
61.28,7.112738,-5.858713,2.1255598,1010.0649,0,0
61.32,7.4138303,-5.658517400000001,2.1350253,1010.0546,0,0
61.36,8.431892999999999,-5.076996,2.1255534,1010.04974,0,0
61.4,8.417536,-5.124662,2.1965678,1010.03973,0,0
61.44,8.455739,-5.27719,2.5185041,1010.0701,0,0
61.48,8.307512,-5.277189,2.0355897,1010.0626,0,0
61.52,8.584703999999999,-5.272421400000002,2.063993,1010.0626,0,0
61.56,8.589466999999999,-5.1532574,2.0119128,1010.04755,0,0
61.6,8.450799,-5.625145,1.7325783,1010.0678,0,0
61.64,8.278708,-5.658510700000001,1.6142164,1010.0632,0,0
61.68,7.944086,-5.6537433,1.3112113,1010.0782,0,0
61.72,7.9966288,-5.9349694,1.7988517,1010.0653,0,0
61.76,7.719347,-5.9921665,1.4295633,1010.06067,0,0
61.8,7.886605,-5.882535,1.6236706,1010.05817,0,0
61.84,8.001285000000001,-5.7443037000000015,1.7988403999999998,1010.04816,0,0
61.88,7.838753,-5.8301015,1.6946819,1010.091,0,0
61.92,8.077708,-5.730003,1.9503365,1010.0785,0,0
61.96,8.182846000000001,-5.6632705,1.893522,1010.0682,0,0
62.0,8.053756,-5.6585035,1.7846273999999998,1010.0685,0,0
62.04,7.977243400000001,-5.682335,1.7183425,1010.0559,0,0
62.08,7.742961999999999,-5.872996,1.8082896,1010.0509,0,0
62.12,7.723824499999999,-5.9158940000000015,1.9077106,1010.061,0,0
62.16,7.7620277,-5.815796,1.7751439999999998,1010.0358,0,0
62.2,7.9866424,-5.6775645999999975,1.6757182000000002,1010.07874,0,0
62.24,8.165059,-5.5012407,1.7326742,1010.06116,0,0
62.28,7.9595410000000015,-5.6776032,1.7942227,1010.07404,0,0
62.32,7.7874947,-5.7872353,1.9078509,1010.0691,0,0
62.36,7.7540627,-5.8253675000000005,1.647461,1010.0515,0,0
62.4,7.935721400000001,-5.6966715,1.9788718,1010.0668,0,0
62.44,7.830592599999999,-5.634707,1.718482,1010.08405,0,0
62.48,7.787587599999997,-5.563209,1.775296,1010.08466,0,0
62.52,7.811513400000001,-5.2915160000000006,1.6095943,1010.0646,0,0
62.56,7.739843,-5.7205067000000005,1.7421601000000002,1010.07715,0,0
62.6,7.8832636,-6.073232,1.8794602,1010.05695,0,0
62.64,8.227436,-6.006501,2.0262291,1010.05963,0,0
62.68,8.198785,-5.35825,1.6569482,1010.0642,0,0
62.72,7.739949,-5.1628222,1.3539486,1010.0751,0,0
62.76,7.4054036,-5.587046599999999,1.7137668999999998,1010.085,0,0
62.8,7.505806,-6.078003,2.0215058,1010.07007,0,0
62.84,7.735249499999999,-6.1161356,2.1966798,1010.0722,0,0
62.88,8.041183,-5.777711,2.0925257,1010.05927,0,0
62.92,8.060316,-5.4535847,1.8179312,1010.07526,0,0
62.96,7.921742,-5.029362,1.4344482,1010.06757,0,0
63.0,7.419903,-5.7967787,1.8084698,1010.0677,0,0
63.04,7.400797,-5.8968773,1.9883784,1010.07025,0,0
63.08,7.6637125,-5.6156507000000015,2.0878031000000004,1010.07275,0,0
63.12,7.926628599999999,-5.267693,1.7090534,1010.0677,0,0
63.16,7.883622999999999,-5.262926,1.7090546999999998,1010.07043,0,0
63.2,7.601655,-5.2915273,1.7942775000000002,1010.0759,0,0
63.24,7.461175,-5.4154114999999985,1.7514971,1010.073,0,0
63.28,7.5089493,-5.4869094,1.8461831,1010.10846,0,0
63.32,7.5041227,-5.4487760000000005,1.9408668,1010.0655,0,0
63.36,7.6426897,-5.320078,1.7893616,1010.0755,0,0
63.4,7.690417999999997,-5.2056785,1.8272303,1010.07806,0,0
63.44,7.4179214999999985,-5.239043700000002,1.7136004,1010.063,0,0
63.48,7.3318615,-5.2724085,1.675723,1010.07104,0,0
63.52,7.374809700000001,-5.377271,1.7846078999999997,1010.0936,0,0
63.56,7.470358999999997,-5.353437,2.0260582,1010.0683,0,0
63.6,7.470358999999997,-5.353437,2.0260582,1010.0734,0,0
63.64,7.5993667,-5.1913730000000005,1.7703961,1010.05084,0,0
63.68,7.6232190000000015,-5.215205,1.8840175,1010.0763,0,0
63.72,7.5849338,-5.1675377000000005,1.940826,1010.0634,0,0
63.76,7.48929,-5.158004,1.6946326,1010.0994,0,0
63.8,7.3267303,-5.305766,1.7183005,1010.07886,0,0
63.84,7.4031606,-5.3915625,1.8792658,1010.0863,0,0
63.88,7.5799656,-5.281931,2.0165594,1010.09656,0,0
63.92,7.5894785,-5.191365,1.770366,1010.1015,0,0
63.96,7.5272703,-5.1579976,1.8839853,1010.1245,0,0
64.0,7.5224442,-5.239028,1.9928724,1010.0819,0,0
64.04,7.522397,-5.2294936,1.9928678,1010.1069,0,0
64.08,7.484111299999999,-5.2723913,1.7940187,1010.13007,1,3
64.12,7.6417985,-5.157993,1.9123745,1010.12213,1,3
64.16,7.5891967,-5.1722913,2.0165293,1010.1245,1,3
64.2,7.426636999999999,-5.305754,1.7750703,1010.13214,1,3
64.24,7.5427490000000015,-5.3582206,1.9645743,1010.14996,1,3
64.28,7.695713,-5.253357,1.9740441,1010.1145,1,3
64.32,7.681383599999997,-5.272423000000002,1.9551076,1010.1171,1,3
64.36,7.6670593999999985,-5.3010225,1.9030303,1010.1397,1,3
64.4,7.686184,-5.3582215,1.8982965,1010.1171,1,3
64.44,7.6623,-5.3963547,2.016658,1010.14746,1,3
64.48,7.8009243,-5.2676578,1.7467978,1010.13226,1,3
64.52,7.585844,-5.491686,1.8982997,1010.14746,1,3
64.56,7.581073799999999,-5.606084,2.087677,1010.155,1,3
64.6,7.7866154,-5.458321,2.0498025,1010.1351,1,3
64.64,7.9395747,-5.310558,1.9645836,1010.18256,1,3
64.68,7.710153599999999,-5.3582234,1.8604277,1010.1575,1,3
64.72,7.8487835000000015,-5.5012207,2.1208215,1010.1575,1,3
64.76,7.8487835000000015,-5.5012207,2.1208215,1010.1754,1,3
64.8,7.7866564,-5.563186,2.0071967,1010.1575,1,3
64.84,7.8535886,-5.4726214,1.9645883,1010.18256,1,3
64.88,7.896617,-5.40589,1.9219795,1010.2005,1,3
64.92,7.7341137,-5.687117,2.0356061000000003,1010.17535,1,3
64.96,7.906197,-5.563187,2.1113577,1010.20807,1,3
65.0,8.016136999999999,-5.458323,2.087686,1010.2233,1,3
65.04,7.791496799999999,-5.5870204,2.0119364,1010.2058,1,3
65.08,7.9062223,-5.5631876,2.0782192,1010.21545,1,3
65.12,8.035288000000001,-5.653753,2.111361,1010.19543,1,3
65.16,8.030522,-5.6966524000000005,2.0308774,1010.21796,1,3
65.2,8.183481,-5.5631886,2.0687532,1010.23566,1,3
65.24,7.938955,-5.505971400000001,1.86037,1010.22797,1,3
65.28,7.609128,-5.7967309999999985,2.0450099,1010.23553,1,3
65.32,7.790739999999999,-5.6966324,2.2580564,1010.2705,1,3
65.36,7.8576374000000015,-5.734764599999999,2.0592096,1010.24554,1,3
65.4,7.8098187,-5.901593,2.2438493,1010.2526,1,3
65.44,8.120485,-5.6203660000000015,2.0165963,1010.2379,1,3
65.48,8.02008,-5.5869994000000025,1.9503115,1010.2836,1,3
65.52,7.771509,-5.9254246,2.2154365,1010.258,1,3
65.56,7.695022,-5.9444904,2.1302161,1010.2727,1,3
65.6,7.757139,-5.7919602,2.2485745,1010.2755,1,3
65.64,7.96742,-5.5965304000000025,2.1065395,1010.2831,1,3
65.68,7.819226299999999,-5.7109275,2.073397,1010.2805,1,3
65.72,7.790527,-5.787192299999999,2.144411,1010.2881,1,3
65.76,7.862214,-5.729993,2.0970662,1010.30835,1,3
65.8,7.838294500000001,-5.8253236,2.0970643,1010.31085,1,3
65.84,7.914741,-5.6441936,2.0686553,1010.30835,1,3
65.88,7.914741,-5.6441936,2.0686553,1010.3333,1,3
65.92,7.8238945000000015,-5.658493,2.0355113,1010.31036,1,3
65.96,7.761747,-5.7967224,2.0449793,1010.3131,1,3
66.0,7.948139,-5.88252,2.2154162,1010.3106,1,3
66.04,8.091513,-5.5917597,2.0118346000000003,1010.3206,1,3
66.08,7.8238235,-5.677557,1.907676,1010.33374,1,3
66.12,7.766445599999999,-5.758588,2.0497065,1010.3584,1,3
66.16,7.8237624000000014,-5.882518,2.1633282000000005,1010.3559,1,3
66.2,7.8237624000000014,-5.882518,2.1633282000000005,1010.3157,1,3
66.24,7.9865,-5.615596,1.8792845,1010.36115,1,3
66.28,7.9865,-5.615596,1.8792845,1010.3657,1,3
66.32,7.761829,-5.7395260000000015,1.9360956,1010.36816,1,3
66.36,7.737924599999999,-5.7871914,1.9834392,1010.36816,1,3
66.4,7.819172,-5.715693,2.1065328,1010.35065,1,3
66.44,7.828720599999999,-5.83009,2.1822824,1010.39575,1,3
66.48,7.991225,-5.6823263,1.9976395,1010.36536,1,3
66.52,8.053355999999999,-5.64896,1.8698101000000005,1010.40076,1,3
66.56,7.771333,-5.725225,1.9360905,1010.4211,1,3
66.6,7.890817599999999,-5.6870923,2.002371,1010.4311,1,3
66.64,7.84779,-5.7156916,2.0118392,1010.3909,1,3
66.68,7.838225,-5.777656,2.158605,1010.38574,1,3
66.72,8.048521000000001,-5.629893,1.9881651,1010.39575,1,3
66.76,8.086755,-5.6155925,2.0497122,1010.4158,1,3
66.8,7.799950999999999,-5.7538223,1.9550225,1010.446,1,3
66.84,7.862077999999999,-5.634659,2.0023656,1010.408,1,3
66.88,7.8429537,-5.615592,2.0213027,1010.44824,1,3
66.92,7.675650599999999,-5.863452400000001,2.059177,1010.44086,1,3
66.96,7.756902,-5.939718,2.0923173,1010.47107,1,3
67.0,8.206188000000001,-5.6584907,2.1491290000000003,1010.4736,1,3
67.04,7.8620276,-5.453528,1.8982041,1010.4558,1,3
67.08,7.8620276,-5.453528,1.8982041,1010.4558,1,3
67.12,7.7138433000000015,-5.6394234,1.8982033,1010.4736,1,3
67.16,7.8285384,-5.872984400000001,2.2296097,1010.48114,1,3
67.2,7.8285384,-5.872984400000001,2.2296097,1010.5034,1,3
67.24,8.105915,-5.6441930000000005,2.0923254,1010.4736,1,3
67.28,8.072453,-5.5822277,1.950293,1010.5009,1,3
67.32,7.713961999999999,-5.6155934,1.9786988,1010.4985,1,3
67.36,7.6279197,-5.8062559999999985,2.1017928,1010.49603,1,3
67.4,7.694834700000001,-5.882521,2.2201526,1010.49866,1,3
67.44,8.000738,-5.8157887000000015,2.1538708,1010.51117,1,3
67.48,8.244505,-5.567928,2.0875888,1010.5211,1,3
67.52,7.9481535,-5.5202622,1.907681,1010.5009,1,3
67.56,7.7665167,-5.529795,1.9029461,1010.5236,1,3
67.6,7.627897,-5.8968196,2.2059476000000005,1010.5537,1,3
67.64,7.7091512999999985,-5.9635515,2.4047925,1010.54596,1,3
67.68,7.8955617,-5.830088,2.2816978,1010.5561,1,3
67.72,8.177566,-5.6727915,2.0355084,1010.5763,1,3
67.76,8.072407,-5.539328,1.9502888,1010.5461,1,3
67.8,7.814292,-5.501195,1.8413969,1010.5763,1,3
67.84,7.7186937,-5.696624,2.0213041,1010.561,1,3
67.88,7.842962700000001,-5.8253207,2.2296174,1010.5738,1,3
67.92,7.9624567,-5.739523,2.158601,1010.6067,1,3
67.96,8.110624000000001,-5.6012926,2.021303,1010.5738,1,3
68.0,8.268353,-5.4582953000000005,1.9928961,1010.58124,1,3
68.04,8.086719500000001,-5.5583935,1.9313487,1010.5888,1,3
68.08,7.651753999999999,-5.8253202,2.054443,1010.58325,1,3
68.12,7.799924000000002,-5.6298914,2.0213017,1010.60614,1,3
68.16,7.723441,-5.7347555,2.1396613,1010.62366,1,3
68.2,7.680421400000001,-5.8586864,2.2248805,1010.6263,1,3
68.24,7.990944,-5.715685400000001,2.2390685,1010.6318,1,3
68.28,8.1438875,-5.548856,2.021285,1010.64484,1,3
68.32,8.024382000000001,-5.567921599999999,2.0118150000000004,1010.63916,1,3
68.36,7.718464999999999,-5.5345554,1.902923,1010.6288,1,3
68.4,7.589394,-5.7347503,2.201189,1010.65405,1,3
68.44,7.589394,-5.7347503,2.201189,1010.6586,1,3
68.48,7.8235899999999985,-5.963545,2.2674694,1010.6641,1,3
68.52,8.148601,-5.496422,1.9739349,1010.65894,1,3
68.56,8.0577755,-5.482122,1.9313242,1010.6816,1,3
68.6,7.708839,-5.8014812,2.101762,1010.6793,1,3
68.64,7.622797500000001,-5.9349446,2.1822464,1010.69934,1,3
68.68,7.833099000000002,-5.8396134,2.1680422000000004,1010.67896,1,3
68.72,8.009947,-5.67755,2.1301668,1010.6639,1,3
68.76,8.067288000000001,-5.6012845,2.073352,1010.66895,1,3
68.8,7.914324799999997,-5.6966157,2.163305,1010.7194,1,3
68.84,7.7231226,-5.834845,2.1585697999999995,1010.7065,1,3
68.88,7.7852497,-5.8014800000000015,2.172772,1010.68896,1,3
68.92,7.7995839999999985,-5.7585797,2.0828178,1010.71436,1,3
68.96,7.847367299999997,-5.715681,2.1680355,1010.7169,1,3
69.0,7.8617015,-5.739513400000001,2.1964417000000003,1010.71124,1,3
69.04,7.789989,-5.582217,2.1538308,1010.72394,1,3
69.08,7.7517457,-5.691848,2.1964397,1010.7163,1,3
69.12,7.713497,-5.815778,2.3479397,1010.73425,1,3
69.16,7.866440299999999,-5.753812,2.314798,1010.7188,1,3
69.2,7.751647500000002,-5.7490440000000005,2.0780709,1010.7288,1,3
69.24,7.694283,-5.782409,2.0638669,1010.7315,1,3
69.28,7.8280983,-5.8014755,2.1396155,1010.729,1,3
69.32,7.8280983,-5.8014755,2.1396155,1010.74927,1,3
69.36,7.9427949999999985,-5.796708,2.1916924,1010.7768,1,3
69.4,7.885425,-5.7204432,2.153816,1010.74097,1,3
69.44,7.6703142999999985,-5.7490425000000025,2.0307198,1010.77637,1,3
69.48,7.641628999999999,-5.8300734000000025,2.2011578,1010.75885,1,3
69.52,7.641622999999999,-5.872972,2.2295635,1010.75854,1,3
69.56,7.832796000000001,-5.8872714,2.2816403,1010.77136,1,3
69.6,7.9713910000000014,-5.62511,2.0496528,1010.76886,1,3
69.64,7.9809446,-5.5869775,2.0827928,1010.7638,1,3
69.68,7.842316999999999,-5.687075,2.1206672,1010.7789,1,3
69.72,7.7514887,-5.753806,2.2011507000000003,1010.76886,1,3
69.76,7.746696000000001,-5.7824054,2.2484934,1010.80646,1,3
69.8,7.8231600000000014,-5.7538056,2.163273,1010.8089,1,3
69.84,7.861386,-5.7967043,2.1774752,1010.8217,1,3
69.88,7.9378505000000015,-5.758571,2.1253958,1010.8117,1,3
69.92,7.9569564,-5.5440764000000025,2.0733159,1010.83154,1,3
69.96,7.6366973,-5.791937,2.0070333,1010.79114,1,3
70.0,7.670142999999999,-5.777637,2.1395953,1010.8114,1,3
70.04,7.7513933,-5.7538037000000015,2.1206572,1010.82367,1,3
70.08,7.961692299999997,-5.75857,2.215344,1010.81854,1,3
70.12,7.999917999999999,-5.725204,2.1206548,1010.8467,1,3
70.16,7.9664464000000015,-5.710904,1.9880903000000003,1010.8512,1,3
70.2,7.8851776,-5.8253007000000006,2.0401678,1010.82874,1,3
70.24,7.813658999999999,-5.9730690000000015,2.158544,1010.8336,1,3
70.28,7.9905043,-5.729974,2.1111994,1010.864,1,3
70.32,8.004841,-5.7728730000000015,2.0354486,1010.8462,1,3
70.36,8.181683,-5.7728730000000015,2.0591197,1010.85614,1,3
70.4,8.143442,-5.7728730000000015,2.0023067,1010.8688,1,3
70.44,8.114761,-5.8157716,2.0780568,1010.85864,1,3
70.48,8.023942,-5.8300714000000005,2.1254008,1010.86865,1,3
70.52,7.976137,-5.9206357,2.2200882,1010.85333,1,3
70.56,8.152982000000002,-5.954001,2.3147755,1010.886,1,3
70.6,8.243795,-5.88727,2.2768998,1010.89874,1,3
70.64,8.176872999999999,-5.920635,2.1916804,1010.89575,1,3
70.68,8.286802999999999,-5.830071,2.0685854,1010.8782,1,3
70.72,8.119504,-6.0493326,2.1301317,1010.86273,1,3
70.76,8.234213,-5.9778333,2.2153506000000003,1010.88324,1,3
70.8,8.325027,-5.949234,2.2342880000000003,1010.9009,1,3
70.84,8.286783,-5.939701,2.1253963,1010.8984,1,3
70.88,8.234198,-6.0302653,2.1869428,1010.90326,1,3
70.92,8.195957,-6.0540986,2.1964116,1010.9108,1,3
70.96,8.281986,-6.1494290000000005,2.2437549,1010.93353,1,3
71.0,8.387136,-6.0397983,2.2437544,1010.9335,1,3
71.04,8.411033,-6.0207314000000025,2.2011447,1010.91034,1,3
71.08,8.411025,-6.0445642,2.1680028,1010.91785,1,3
71.12,8.348885000000001,-6.0731635000000015,2.149065,1010.92523,1,3
71.16,8.310644,-6.1160625999999985,2.1916745,1010.93036,1,3
71.2,8.358438,-6.1160625999999985,2.248487,1010.95294,1,3
71.24,8.330231,-6.01121,2.1822484,1010.9354,1,3
71.28,8.277667,-6.015977,2.1538434,1010.95825,1,3
71.32,8.301578999999998,-6.03981,2.2011886,1010.93787,1,3
71.36,8.416316,-6.0779432999999985,2.2059247,1010.93286,1,3
71.4,8.507139,-6.0636435,2.2059255,1010.973,1,3
71.44,8.468922000000001,-5.9778457000000005,2.2153964,1010.9909,1,3
71.48,8.435469,-5.9921455,2.1869905,1010.95074,1,3
71.52,8.229959,-6.0684114000000005,2.2248676,1010.9804,1,3
71.56,8.335129,-6.054112,2.2816818,1010.96295,1,3
71.6,8.4546385,-6.0112133000000005,2.2580113,1010.98834,1,3
71.64,8.516782000000001,-5.9540143,2.1822612,1010.96,1,3
71.68,8.330391,-6.073179,2.1822631,1010.9749,1,3
71.72,8.354297,-6.0731792,2.1680603,1010.98755,1,3
71.76,8.330419000000001,-6.0350470000000005,2.1680624,1010.97754,1,3
71.8,8.268288,-5.973082,2.1727974,1010.9728,1,3
71.84,8.120128999999999,-5.892051,2.0828452,1010.94995,1,3
71.88,8.005434,-5.9444838,2.1538632,1011.0003,1,3
71.92,7.995881,-6.015982,2.1775358,1010.9647,1,3
71.96,8.167975,-5.9969172,2.1065214,1010.9677,1,3
72.0,8.158429,-5.86822,2.0355067,1010.99005,1,3
72.04,8.148877,-5.7824215999999975,2.0118353,1010.99756,1,3
72.08,7.9481397,-5.806255,2.030774,1010.9923,1,3
72.12,7.8286505,-5.8586874,2.0686502,1010.9649,1,3
72.16,8.086788,-5.9111204000000015,2.1159968,1010.9923,1,3
72.2,8.1202545,-5.8586884,2.1396697,1011.0076,1,3
72.24,8.154292,-5.7204723,1.9266744,1010.9644,1,3
72.28,8.154292,-5.7204723,1.9266744,1010.9898,1,3
72.32,7.934458,-5.7824383,1.9361465,1010.9848,1,3
72.36,7.905814,-5.7347736,2.0308378,1010.987,1,3
72.4,7.8771887,-5.853939,2.1113276,1010.9923,1,3
72.44,8.068417,-5.801508,2.187081,1010.9895,1,3
72.48,8.082773,-5.753842400000001,2.026113,1010.992,1,3
72.52,8.097147999999999,-5.806276,1.9740379,1011.0074,1,3
72.56,8.035064,-5.67758,1.9977149,1010.98694,1,3
72.6,8.011184,-5.653747599999999,2.1018734,1010.9867,1,3
72.64,7.915640400000001,-5.663282,1.9929868,1010.9945,1,3
72.68,7.7818413,-5.8587117,2.3717427000000004,1010.9998,1,3
72.72,8.063903,-5.55842,2.3575442000000004,1010.992,1,3
72.76,8.169075999999999,-5.5155214999999975,2.5232499,1010.98175,1,3
72.8,7.9205622999999985,-5.529822,1.9551247,1010.9742,1,3
72.84,8.001854,-5.3963594000000015,2.25813,1010.98926,1,3
72.88,7.901496400000001,-5.510757,2.452242,1010.99176,1,3
72.92,8.288713000000001,-5.1485004,2.2486675,1010.9967,1,3
72.96,8.154897,-5.305797,1.8793855,1010.9915,1,3
73.0,7.686511500000001,-5.663289,2.8215353,1010.98694,1,3
73.04,7.662648,-5.505994,2.419114,1010.9867,1,3
73.08,7.858656,-5.3677645,2.1634595,1010.99176,1,3
73.12,7.834792,-5.4058975999999985,2.6653097000000003,1010.994,1,3
73.16,8.126396000000002,-5.1628045999999985,2.816814,1010.98895,1,3
73.2,8.102530999999999,-5.0341086,2.220282,1010.98364,1,3
73.24,8.278907,-5.2914910000000015,3.186057,1010.97644,1,3
73.28,8.307591,-5.296257,3.3375585,1011.0015,1,3
73.32,7.9825883,-5.186627,2.8877923,1010.98364,1,3
73.36,7.667136699999999,-5.272425,3.020357,1010.9608,1,3
73.4,7.648025,-5.420189,3.5127356,1010.96857,1,3
73.44,7.681506,-5.3772902,3.2428767999999994,1010.98114,1,3
73.48,7.9778695000000015,-5.138963,3.3612382000000003,1011.0068,1,3
73.52,7.753226299999999,-5.2914934,3.7163193,1010.96857,1,3
73.56,7.389983999999999,-5.4535565,3.5553517,1011.0091,1,3
73.6,7.3661002999999985,-5.3963585,3.3565080000000003,1010.9759,1,3
73.64,7.638557,-5.3772917,3.4559312000000006,1010.98114,1,3
73.68,7.280102,-5.525056,3.5600908,1010.98395,1,3
73.72,7.533447,-5.52029,3.8299534,1011.004,1,3
73.76,7.605150999999997,-5.4011264,3.806282,1010.9884,1,3
73.8,7.198883,-5.6013217000000015,3.4701410000000004,1010.9786,1,3
73.84,7.5048059999999985,-5.4106603,3.574299,1010.99084,1,3
73.88,7.5143805,-5.5250580000000005,4.1140227,1010.9959,1,3
73.92,7.265838,-5.548890599999999,3.8820372000000014,1010.9886,1,3
73.96,7.428375,-5.448794,3.8915083,1011.00867,1,3
74.0,7.1607210000000014,-5.63469,3.555367,1010.98254,1,3
74.04,7.050801,-5.6871223,3.8773077000000007,1010.98254,1,3
74.08,6.893075,-5.853952,3.8299644,1010.9811,1,3
74.12,7.409316,-5.3963633,3.867842,1010.9829,1,3
74.16,7.371085000000001,-5.372531,3.8157642,1010.965,1,3
74.2,7.0221753,-5.629925,3.7778902,1011.0005,1,3
74.24,7.284369,-5.482145,4.166048,1010.9829,1,3
74.28,7.2748027,-5.410646,3.976671,1010.99316,1,3
74.32,7.179188000000001,-5.4916773,3.924591,1010.99316,1,3
74.36,7.1791754,-5.505976,4.156575,1010.9957,1,3
74.4,7.0023155,-5.6394395999999976,4.1187,1010.98254,1,3
74.44,7.0835595,-5.6060734000000005,4.137636,1010.98804,1,3
74.48,7.1456785000000025,-5.4487767,3.8441012,1010.97754,1,3
74.52,7.2556076,-5.453543,4.057149,1010.9773,1,3
74.56,7.2412615,-5.5107417000000005,4.2086489999999985,1010.98755,1,3
74.6,7.3224993,-5.4964414,4.142366,1010.9926,1,3
74.64,7.2746882,-5.4821415,3.9056447,1010.9901,1,3
74.68,7.298580999999999,-5.501208,4.0855513,1010.9675,1,3
74.72,7.069137599999999,-5.5679393,3.9766588,1010.9775,1,3
74.76,7.1647149999999975,-5.567939,3.981391200000002,1010.9926,0,0
74.8,7.1886009999999985,-5.5393395,4.1139536,1010.99756,0,0
74.84,7.202934299999999,-5.4773736,4.047671299999998,1010.9775,0,0
74.88,7.207694999999997,-5.510739,3.9151062999999993,1010.98224,0,0
74.92,7.164658,-5.587003,4.047668,1010.9596,0,0
74.96,7.0212574000000005,-5.6918674000000005,4.095011,1010.9721,0,0
75.0,7.2363296,-5.5012050000000015,3.981383600000002,1010.9973,0,0
75.04,7.245883,-5.5441036,4.0050554,1010.98987,0,0
75.08,7.322347,-5.4440055,3.9624443,1010.98706,0,0
75.12,7.054659,-5.644201,4.014521,1011.0149,0,0
75.16,7.159808,-5.553636,3.9103637,1010.97705,0,0
75.2,7.255398299999999,-5.515503400000001,3.9719105,1010.9873,0,0
75.24,7.245953599999999,-5.5822377,4.0524054,1010.99225,0,0
75.28,7.164689,-5.539339,3.9435139,1010.99225,0,0
75.32,7.069085,-5.6299033,3.986123000000001,1010.98224,0,0
75.36,7.298505,-5.501206,4.0382,1010.9589,0,0
75.4,7.164663000000001,-5.5822372000000025,3.787276,1010.9667,0,0
75.44,7.1742144,-5.57747,3.990855,1010.97394,0,0
75.48,7.2220087,-5.6060696,4.1139493,1010.9765,0,0
75.52,7.2458963,-5.505971400000001,3.915103,1010.9692,0,0
75.56,7.183750999999999,-5.5679370000000015,3.9293053,1010.99677,0,0
75.6,7.1646247,-5.553637,4.0523989999999985,1011.0096,0,0
75.64,7.317574,-5.525037,4.1849623,1010.9696,0,0
75.68,7.169392599999999,-5.525037,3.7730682,1011.0017,0,0
75.72,7.3892565,-5.5059705,4.170758,1011.01654,0,0
75.76,6.858690299999999,-5.6585007,3.5458152000000003,1011.0844,0,0
75.8,7.198048599999999,-5.515504,3.773066000000002,1011.07434,0,0
75.84,7.9006724,-5.2009106,4.4926949999999986,1010.927,0,0
75.88,6.46194,-5.7013989999999986,3.1291854,1010.9316,0,0
75.92,7.480030499999999,-5.510736,4.2938485,1010.96643,0,0
75.96,7.217134,-5.343907,3.3753731,1010.9487,0,0
76.0,7.250588400000002,-5.3868055,3.7635942,1010.97894,0,0
76.04,7.202783,-5.5441017,4.1186733,1010.99396,0,0
76.08,7.226674000000001,-5.677565,4.3506584,1010.99927,0,0
76.12,7.183648599999999,-5.553634,3.8156705,1010.97144,0,0
76.16,7.131063,-5.5012019999999975,3.7919977,1010.96643,0,0
76.2,7.145395,-5.510735,3.8109345,1010.96893,0,0
76.24,7.356249000000001,-5.525048,4.113986,1010.979,0,0
76.28,7.1889699999999985,-5.648979,4.1234565000000005,1010.9639,0,0
76.32,7.088601,-5.6299124,4.033503,1010.979,0,0
76.36,7.21289,-5.5059830000000005,3.7210336,1010.98846,0,0
76.4,7.241589500000001,-5.596548,4.0950537,1010.95355,0,0
76.44,7.040845,-5.6346803,3.8299274,1010.96893,0,0
76.48,7.2607300000000015,-5.572715799999999,4.0051017,1010.9765,0,0
76.52,7.2177258,-5.5345830000000005,3.7873204,1010.9865,0,0
76.56,7.1890674,-5.610849,3.9766989,1010.97144,0,0
76.6,7.1556163,-5.6394480000000025,3.9293551,1010.99115,0,0
76.64,7.208208,-5.5202847,3.9293563,1010.9965,0,0
76.68,7.3038177,-5.534585,3.943561,1010.9865,0,0
76.72,7.083967,-5.6585155,3.943563,1010.99396,0,0
76.76,7.1030940000000005,-5.6299160000000015,4.0997987,1010.9887,0,0
76.8,7.3277583,-5.4249554,3.597953,1010.98395,0,0
76.84,7.1843786,-5.6060843,3.829940600000002,1010.9861,0,0
76.88,7.4377217,-5.606085,4.2418346,1010.99677,0,0
76.92,7.3516994,-5.4392557,3.725786,1011.004,0,0
76.96,7.523792999999999,-5.2962594,3.882023,1010.9683,0,0
77.0,7.538147,-5.42019,4.099807299999998,1010.9938,0,0
77.04,7.4329977,-5.501222,3.9909167,1011.0013,0,0
77.08,7.284845,-5.4440236,3.773136,1010.999,0,0
77.12,7.0984473,-5.791983,3.9767168,1010.999,0,0
77.16,7.194057000000001,-5.5965543,3.7494664,1010.9965,0,0
77.2,7.194064,-5.5488887,3.6973886,1010.99927,0,0
77.24,7.1464734,-5.4297304,3.6263916,1010.9996,0,0
77.28,7.189512700000001,-5.434497,3.6169245,1010.989,0,0
77.32,7.4572034,-5.558428299999999,4.0004134,1010.9865,0,0
77.36,7.3855386,-5.439265,3.5837886,1010.9765,0,0
77.4,7.591081,-5.5298300000000005,3.7921033,1010.9892,0,0
77.44,7.4811783,-5.301036,3.4606981,1010.97894,0,0
77.48,7.658041499999999,-5.239071,3.5222464,1010.9917,0,0
77.52,7.6245937,-5.3201027000000005,3.5506537,1010.982,0,0
77.56,7.6485147,-5.367769,3.6690160000000014,1010.9892,0,0
77.6,7.615088,-5.396369,3.6926908,1010.9917,0,0
77.64,7.5195026,-5.4917,3.7873797,1010.98706,0,0
77.68,7.519524,-5.4774013,3.7305691,1010.982,0,0
77.72,7.4526286,-5.353471,3.4417722,1010.96655,0,0
77.76,7.318815,-5.5536675,3.6074786,1010.9948,0,0
77.8,7.390544999999999,-5.5250683,3.5648718,1010.98706,0,0
77.84,7.2901797,-5.6347,3.5127943,1010.99713,0,0
77.88,7.31888,-5.606101,3.6074846,1010.9917,0,0
77.92,7.467076,-5.4059057,3.4749230000000004,1010.9996,0,0
77.96,7.4718985999999985,-5.40114,3.5270054,1010.98956,0,0
78.0,7.605744,-5.353475,3.5838192,1010.98956,0,0
78.04,7.5054007,-5.4774065,3.4843998,1010.97955,0,0
78.08,7.5054007,-5.4774065,3.4843998,1010.9671,0,0
78.12,7.419396400000001,-5.558439,3.6359036,1010.9898,0,0
78.16,7.352489500000001,-5.4154425,3.5317476,1010.9696,0,0
78.2,7.41903,-5.324868,3.6406045,1011.01715,0,0
78.24,7.270861599999999,-5.358235,3.5837922,1010.98706,0,0
78.28,7.337781,-5.382067,3.7163558,1010.98706,0,0
78.32,7.538538000000001,-5.453566,3.773169,1010.9667,0,0
78.36,7.533763,-5.3487015,3.6974192,1010.9898,0,0
78.4,7.7249603,-5.291503,3.6122003,1010.99713,0,0
78.44,7.505095,-5.4202002999999985,3.5695910000000004,1010.9929,0,0
78.48,7.3043475,-5.6060963,3.6500764,1010.9773,0,0
78.52,7.519444,-5.4726324,3.5175135,1011.01514,0,0
78.56,7.509889599999997,-5.4488005999999976,3.5979989000000003,1010.99,0,0
78.6,7.4238577,-5.444033599999999,3.4796393,1010.9748,0,0
78.64,7.514679400000001,-5.558431,3.6500783,1010.98505,0,0
78.68,7.4477644,-5.5727305,3.5837967000000006,1010.9929,0,0
78.72,7.538586,-5.491699,3.3376080000000004,1010.98505,0,0
78.76,7.567272,-5.4916997000000025,3.5885322,1011.0029,0,0
78.8,7.452563,-5.4440339999999985,3.3281405,1010.98254,0,0
78.84,7.423888000000002,-5.567965,3.4607043,1010.9854,0,0
78.88,7.4334507,-5.572731,3.5033142999999995,1010.9625,0,0
78.92,7.4286759999999985,-5.5536656,3.5695963,1010.98816,0,0
78.96,7.509938000000001,-5.4059019999999975,3.4654398,1010.97296,0,0
79.0,7.490825999999997,-5.529833,3.5364566,1011.0132,0,0
79.04,7.371336,-5.6251636,3.451238,1010.9984,0,0
79.08,7.557753599999999,-5.5060005,3.4323008,1010.98334,0,0
79.12,7.5051809999999985,-5.496467,3.4607074,1010.9957,0,0
79.16,7.438268700000001,-5.5346,3.4370358,1010.99365,0,0
79.2,7.447205999999999,-5.5202847,3.4417136,1010.9811,0,0
79.24,7.413738,-5.567950700000001,3.4937910000000003,1010.98334,0,0
79.28,7.432825999999999,-5.52505,3.4322412000000004,1010.9859,0,0
79.32,7.4232564,-5.5584164000000005,3.4417088,1010.9965,0,0
79.36,7.3849974,-5.6108480000000025,3.4133008,1011.00366,0,0
79.4,7.4471045,-5.491683,3.3233442,1010.98895,0,0
79.44,7.5379004,-5.5393485999999985,3.5553281,1011.004,0,0
79.48,7.404046000000001,-5.634679,3.4843102,1010.99146,0,0
79.52,7.5091815,-5.510748,3.4180264,1010.99115,0,0
79.56,7.542619,-5.4869146,3.4369624,1010.9867,0,0
79.6,7.499591400000001,-5.4297156,3.408555,1010.97156,0,0
79.64,7.4804516,-5.5202794,3.5884607,1010.9917,0,0
79.68,7.437413,-5.520279,3.5411146,1011.004,0,0
79.72,7.456522,-5.4630804,3.3990817000000004,1010.9815,0,0
79.76,7.4660516,-5.5250444000000005,3.5553143,1010.99896,0,0
79.8,7.7671485,-5.4249462999999984,3.493764,1010.98444,0,0
79.84,8.101725,-5.2962494000000016,3.3896062000000007,1011.0093,0,0
79.88,7.800586999999997,-5.3105483,3.1386817,1011.0068,0,0
79.92,7.011889,-5.8062695999999985,3.4795563,1010.9691,0,0
79.96,7.442050999999997,-5.4440107000000015,3.522164,1010.98193,0,0
80.0,7.518508,-5.429711,3.8488362,1011.002,0,0
80.04,7.2747273,-5.59654,3.8062255,1010.9873,0,0
80.08,7.594933500000002,-5.424943,3.4700792000000003,1011.0174,0,0
80.12,7.594933500000002,-5.424943,3.4700792000000003,1010.987,0,0
80.16,7.523196,-5.49644,3.4274657,1010.9945,0,0
80.2,7.522857000000001,-5.496432,3.4321692,1011.0051,0,0
80.24,7.5276203,-5.5059648,3.5552620000000004,1010.997,0,0
80.28,7.417636,-5.5726953,3.4795072,1010.9845,0,0
80.32,7.317242999999999,-5.591761,3.503178,1010.9695,0,0
80.36,7.33633,-5.563160400000001,3.5694562999999992,1010.9923,0,0
80.4,7.465367999999999,-5.4487634000000025,3.512642,1011.01025,0,0
80.44,7.493997,-5.5297933,3.6309974,1010.99756,0,0
80.48,7.522642999999999,-5.4773607,3.4368837,1010.9802,0,0
80.52,7.460489,-5.47736,3.4084759,1010.9974,0,0
80.56,7.4461164,-5.5393248,3.5126297,1011.003,0,0
80.6,7.4604063,-5.5107236,3.578907,1010.98254,0,0
80.64,7.431694999999999,-5.5059559999999985,3.4368718,1010.9978,0,0
80.68,7.4699,-5.525022,3.66412,1010.9552,0,0
80.72,7.5559205999999985,-5.4392239999999985,3.7114627,1010.9928,0,0
80.76,7.460291000000002,-5.4630556,3.4415987,1010.9978,0,0
80.8,7.4411225,-5.4821205000000015,3.5504856,1010.99506,0,0
80.84,7.3837485,-5.5631514000000015,3.5362809,1010.9723,0,0
80.88,7.417174,-5.5107183,3.5788875,1010.9753,0,0
80.92,7.3836656,-5.5202503,3.5078666,1010.9878,0,0
80.96,7.335851700000001,-5.5440830000000005,3.5552094,1010.98553,0,0
81.0,7.4696527,-5.467817299999999,3.6735663,1010.97296,0,0
81.04,7.5556564,-5.382018,3.493656,1010.998,0,0
81.08,7.455247999999999,-5.553614,3.6972325,1011.01044,0,0
81.12,7.469537700000001,-5.4201484,3.5836019999999995,1010.98737,0,0
81.16,7.4265027,-5.4487476,3.5315223,1010.99335,0,0
81.2,7.4753294000000015,-5.505971400000001,3.6357734,1010.9959,0,0
81.24,7.3845234,-5.525038,3.583696,1010.98303,0,0
81.28,7.408433,-5.4916730000000005,3.564759,1010.9698,0,0
81.32,7.4753547,-5.444007,3.5410873999999994,1010.9979,0,0
81.36,7.4371314,-5.448774,3.612105,1011.0134,0,0
81.4,7.403678399999999,-5.5107393,3.5789645,1010.9784,0,0
81.44,7.5184039999999985,-5.4869065,3.6641848,1010.97046,0,0
81.48,7.508849,-5.4201746,3.5931695,1010.98834,0,0
81.52,7.594900599999999,-5.4344754,3.6499834,1010.96045,0,0
81.56,7.561447,-5.382043,3.5979054,1011.0009,0,0
81.6,7.456301700000001,-5.439242,3.4748117999999995,1010.9709,0,0
81.64,7.5997114,-5.396343700000001,3.602642,1010.956,0,0
81.68,7.547138,-5.453542,3.6452525,1010.96075,0,0
81.72,7.4228735,-5.505975,3.5695028,1010.9733,0,0
81.76,7.5614979999999985,-5.3820440000000005,3.593176,1011.0136,0,0
81.8,7.489811,-5.420177,3.4464102,1011.00116,0,0
81.84,7.389446,-5.5107417000000005,3.5931778,1010.9909,0,0
81.88,7.461158,-5.4249444,3.5695071000000005,1010.99335,0,0
81.92,7.4420485,-5.453544,3.6357896,1010.98615,0,0
81.96,7.4563932,-5.4630775,3.5979147000000005,1010.99603,0,0
82.0,7.365591999999999,-5.482144,3.5553067000000005,1010.9733,0,0
82.04,7.408614999999997,-5.4726105,3.5363696000000004,1010.963,0,0
82.08,7.437303999999999,-5.467844,3.5269015,1010.99335,0,0
82.12,7.4851174,-5.472611,3.5600436,1010.97864,0,0
82.16,7.513800999999999,-5.410646400000001,3.5695128,1010.9911,0,0
82.2,7.4851327,-5.4344790000000005,3.5553107,1010.9758,0,0
82.24,7.4321785,-5.505968599999999,3.6168234,1011.00146,0,0
82.28,7.432175999999999,-5.444003,3.5552762,1010.9758,0,0
82.32,7.441727999999999,-5.520268,3.5363376000000004,1010.98303,0,0
82.36,7.479959,-5.4154034000000015,3.4795241000000003,1010.9836,0,0
82.4,7.393917,-5.5012016,3.6215558,1011.0009,0,0
82.44,7.4608293,-5.463069,3.5031953,1010.9884,0,0
82.48,7.432145599999999,-5.5441002999999975,3.6026172999999995,1010.97864,0,0
82.52,7.522957000000001,-5.4058695,3.6357574,1011.0009,0,0
82.56,7.499055,-5.453535,3.5931478,1010.9959,0,0
82.6,7.537286,-5.4297023,3.6120844,1010.9658,0,0
82.64,7.4225655,-5.5393333,3.597881,1010.98584,0,0
82.68,7.470361,-5.5441,3.5126617,1010.97864,0,0
82.72,7.5994134,-5.5155005,3.5694742,1010.9911,0,0
82.76,7.561169599999999,-5.36297,3.5552707000000003,1010.9711,0,0
82.8,7.3986516,-5.5059667,3.6546924,1011.00116,0,0
82.84,7.412986,-5.5250325,3.526863,1010.99603,0,0
82.88,7.3890815,-5.4869002999999985,3.6404884,1010.9836,0,0
82.92,7.221783599999997,-5.582231,3.3564236000000003,1010.9936,0,0
82.96,7.360390700000001,-5.5393324,3.6073465,1010.9959,0,0
83.0,7.561139,-5.4487677,3.7304409,1010.98584,0,0
83.04,7.542012,-5.4392343,3.616814100000002,1010.9909,0,0
83.08,7.451191400000001,-5.5440984,3.5315945,1011.014,0,0
83.12,7.393831,-5.563164,3.4037652,1010.9884,0,0
83.16,7.4655204,-5.615596,3.3895614000000003,1010.98645,0,0
83.2,7.4086294000000015,-5.625141,3.4038072,1010.97614,0,0
83.24,7.3847375,-5.615607700000001,3.5174336000000004,1011.0109,0,0
83.28,7.480347599999999,-5.515511,3.5931854,1010.9834,0,0
83.32,7.4086576,-5.496444,3.5079668,1010.9761,0,0
83.36,7.4325842999999985,-5.534577400000001,3.5884542,1011.0286,0,0
83.4,7.413472,-5.539345,3.4937665,1011.00366,0,0
83.44,7.389587,-5.6013103,3.5316434,1010.9959,0,0
83.48,7.4373918,-5.5345783,3.5127063,1010.99365,0,0
83.52,7.442193,-5.5155129999999986,3.5931933,1010.9911,0,0
83.56,7.4087477,-5.5584120000000015,3.5837255,1011.0134,0,0
83.6,7.3322916,-5.5584126,3.4843050000000004,1010.98584,0,0
83.64,7.4422417,-5.5584126,3.6736825,1010.99335,0,0
83.68,7.3944573,-5.53458,3.4748385,1010.9809,0,0
83.72,7.4040240000000015,-5.5822463,3.5695274,1010.9809,0,0
83.76,7.3944782999999985,-5.544114,3.479575,1010.99585,0,0
83.8,7.394492,-5.59178,3.5789988,1011.0005,0,0
83.84,7.4853225,-5.529815,3.5363905,1010.98584,0,0
83.88,7.4518710000000015,-5.6346793,3.4132967000000005,1010.9909,0,0
83.92,7.628744599999999,-5.577481,3.6263468,1010.99854,0,0
83.96,7.662217599999999,-5.444018,3.3044083,1010.9804,0,0
84.0,7.537949,-5.4678507000000005,3.3186123,1011.003,0,0
84.04,6.8879166,-5.6823463,3.2333949,1010.97797,0,0
84.08,6.9213896,-5.725246,3.5363982000000003,1010.9878,0,0
84.12,7.399383999999999,-5.4487863,3.716307,1011.0005,0,0
84.16,7.557131299999999,-5.6966476,3.8015275,1010.97546,0,0
84.2,7.595376499999999,-5.615616,3.7068398,1010.99835,0,0
84.24,7.7475133,-5.2914705,3.6736242999999993,1010.98584,0,0
84.28,7.6518983999999985,-5.377268,3.6688879,1010.97797,0,0
84.32,7.537164,-5.439233,3.7493713,1010.99304,0,0
84.36,7.164311,-5.6251273,3.716228,1011.0009,0,0
84.4,7.298126,-5.815789,3.7304294,1011.0009,0,0
84.44,7.264658,-5.8634543,3.6499436,1011.00604,0,0
84.48,7.078227,-5.772889599999999,3.2901273,1010.9954,0,0
84.52,7.5514083,-5.653725,3.2617188,1010.9778,0,0
84.56,7.317169,-5.691857,3.2049034,1010.9904,0,0
84.6,7.293251,-5.863452400000001,3.4463562999999993,1010.9802,0,0
84.64,7.4557457,-5.6823225,3.488964,1011.0034,0,0
84.68,7.388819,-5.6727896,3.413213,1010.973,0,0
84.72,7.207158,-5.634657,3.3706007000000007,1010.99335,0,0
84.76,7.145011,-5.606057,3.2617085,1010.9753,0,0
84.8,7.130652400000002,-5.8062515,3.522099,1010.9627,0,0
84.84,7.340945,-5.6155887,3.5126283,1010.99304,0,0
84.88,7.6372740000000015,-5.5583897,3.455814,1010.99304,0,0
84.92,7.603805499999999,-5.586989,3.550501,1010.9702,0,0
84.96,7.551199,-5.687086,3.5883737,1010.99554,0,0
85.0,7.383887,-5.753817,3.332714,1011.00775,0,0
85.04,7.345638799999999,-5.7681165,3.3469167,1010.96234,0,0
85.08,7.527252000000002,-5.5726876,3.3185081,1011.008,0,0
85.12,7.5989213000000015,-5.525021,3.4084592,1010.98303,0,0
85.16,7.402939999999999,-5.6632514,3.51735,1010.99005,0,0
85.2,7.307315299999999,-5.811013,3.3989873,1010.9823,0,0
85.24,7.293735000000002,-5.7252345,3.53162,1011.0028,0,0
85.28,7.2077103,-5.8729977999999985,3.2806973,1010.9949,0,0
85.32,7.231621,-5.906364,3.4511373,1011.0053,0,0
85.36,7.255525599999999,-5.6585035,3.5174193,1010.9823,0,0
85.4,7.3128943,-5.696636,3.4700763,1010.9902,0,0
85.44,7.6188188,-5.5298066,3.21442,1010.98254,0,0
85.48,7.73354,-5.6537375,3.4085312000000005,1011.0028,0,0
85.52,7.418083999999999,-5.634671,3.4606104,1010.9773,0,0
85.56,7.097855,-5.7204695,3.0771253,1010.98254,0,0
