Timestamp,Ax,Ay,Az,P,LPFRMSAcc,LPFPValue,Value,Type
0.0,15.860937,-6.3578644,3.4876592000000004,998.1778,0.03624847424416476,3.59344008,1,1
0.02,15.693691,-6.2291684,1.7880123,998.1655,0.10343762782238174,10.3490631504,1,1
0.04,15.641136,-6.2291690000000015,1.4566061,998.19006,0.19755708110245945,19.874559284064,1,1
0.06,14.771259,-6.6390944,2.1857088,998.16595,0.31397501783273873,31.813136674346882,1,1
0.08,13.069719,-4.451246299999998,4.3777447,998.16864,0.44581670990234906,45.84094346837318,1,1
0.1,12.5152855,-2.8830495,4.344606400000001,998.1612,0.5888869076213401,61.664266475088674,1,1
0.12,11.143552,-0.48547328,3.3882625,998.1809,0.7374131730581175,79.01721456451214,1,1
0.14,10.5747795,-0.027884435,3.1752164,998.1489,0.8889450573372358,97.65915356389448,1,1
0.16,9.279499,0.41063768,3.1136737,998.1616,1.0400002063929286,117.37297967091871,1,1
0.18,8.792029,1.0302883,2.0152981,998.1514,1.188598247584152,137.96291873227,1,1
0.2,9.13142,0.67756253,2.0389724,998.1318,1.3351181411078423,159.25279685944383,1,1
0.22,10.790057,-0.23761752,1.8259284,998.1595,1.4825276120465154,181.08459730392065,1,1
0.24,11.970716,-0.80960554,2.261498,998.17206,1.6328181486755602,203.31669104236624,1,1
0.26,15.292749,-3.3978474000000003,4.4061894,998.1644,1.7935606353819498,225.8224208219042,1,1
0.28,15.292749,-3.3978474000000003,4.4061894,998.18896,1.962959792224538,248.48900319614512,1,1
0.3,17.44371,-5.004178,3.9800978,998.1963,2.144189217344045,271.21614165051824,1,1
0.32,17.06615,-6.3054495,3.6439588,998.1985,2.3351704439767005,293.91497767886045,1,1
0.34,19.023438,-8.393142,3.629533,998.19104,2.539385119122384,316.50706301785976,1,1
0.36,20.35695,-10.967082,4.7231755,998.1948,2.7597404498427522,338.92350547653524,1,1
0.38,18.344603,-12.010956,5.636911,998.1921,2.9915673751888265,361.10404097330536,1,1
0.4,13.469149,-10.962312,5.291295,998.1795,3.223373548997729,382.9962337907476,1,1
0.42,9.210293,-8.574266,3.3549187000000007,998.1435,3.4436614945036315,404.5547055225928,1,1
0.44,5.395931,-6.3292155,2.8530645,998.13855,3.6441864325799336,425.7406729849699,1,1
0.46,2.198164,-5.232906,1.8635668,998.1282,3.820667824317501,446.52118893198036,1,1
0.48,1.8205078,-4.1461296,1.124995,998.1263,3.972550186570552,466.8686312226037,1,1
0.5,1.7248597,-4.9373765,0.13549964,998.12366,4.103326245343686,486.76014933419714,1,1
0.52,1.7248597,-4.9373765,0.13549964,998.1486,4.214981980550381,506.17729315999793,1,1
0.54,3.670162,-6.643802,0.49530724,998.12616,4.3142764129670255,525.1052973650994,1,1
0.56,4.989362,-7.3778515,1.4753268,998.13525,4.405245720368812,543.532989710213,1,1
0.58,8.5980625,-9.618132,1.9582312,998.1483,4.496888628172831,561.4523137833984,1,1
0.6,13.650262,-11.496154,2.6494493,998.1232,4.599174924007269,578.8578437248449,1,1
0.62,18.27228,-10.967065,4.5526752,998.1535,4.718291329644578,595.7468343436975,1,1
0.64,21.46511,-10.333111,3.1512845,998.15576,4.856502751822736,612.1186185868784,1,1
0.66,21.058777,-8.645748,3.553704,998.1852,5.009031067820355,627.9745668372402,1,1
0.68,19.553112,-7.444575,4.6852245,998.1683,5.1703359237826785,643.3175801506458,1,1
0.7,15.767456,-5.3997216,4.8840647000000015,998.1541,5.3303489787165095,658.1520781858288,1,1
0.72,13.162412,-4.8182,3.5300202000000005,998.1541,5.4825898407235405,672.4838479282472,1,1
0.74,9.768672,-2.55885,4.4248157,998.17566,5.620287861226472,686.3198901961067,1,1
0.76,9.376677,0.1056565,5.158643700000002,998.1443,5.743969653842116,699.6679850192813,1,1
0.78,9.376677,0.1056565,5.158643700000002,998.13873,5.854821453043147,712.5368562869688,1,1
0.8,10.122248,2.9989586,3.3785002,998.14594,5.954731613138961,724.9359836404648,1,1
0.82,10.786589,2.5890357,4.358517,998.1369,6.046347302139593,736.8753758689078,1,1
0.84,11.906624,1.197163,5.438104599999999,998.13135,6.132852088272452,748.3655443488319,1,1
0.86,13.053795,-3.297701,5.532794,998.1299,6.217464317928962,759.4174088980373,1,1
0.88,14.516420000000002,-4.3892419999999985,5.4949193,998.1173,6.3033709763640005,770.0421560216821,1,1
0.9,16.49527,-6.191001,6.309238,998.1369,6.395483122117241,780.2513236584566,1,1
0.92,17.685453,-8.183422,6.195613400000001,998.16327,6.496350480050747,790.05662718914,1,1
0.94,19.320156,-10.504736,5.3907657,998.1713,6.609151359675526,799.4698062109711,1,1
0.96,20.10884,-14.780337,5.8500047,998.17377,6.738306286648475,808.5026254643013,1,1
0.98,16.237213,-14.503877,4.0035877,998.1938,6.8741801679628125,817.1669127848727,1,1
1.0,13.75172,-13.107276999999998,3.7621338,998.1971,7.009743947739053,825.4743857353038,1,1
1.02,11.423961,-10.771665,3.9278383,998.16675,7.137933515866227,833.4365613456578,1,1
1.04,5.8841915,-6.3054004,1.7973583,998.152,7.243816048209121,841.0649152941222,1,1
1.06,4.5745306,-6.095672,1.6174513,998.1299,7.327489407431344,848.3707627879262,1,1
1.08,3.5468786,-5.814445,1.4138726,998.1455,7.389502182271472,855.3653986874153,1,1
1.1,2.380618,-5.037497,0.4338518,998.12463,7.429310055423057,862.0597922009288,1,1
1.12,1.7497009,-5.6762156,-0.34258902,998.123,7.450104875330925,868.4647858575462,1,1
1.14,2.3806467,-6.338768,-0.001710811,998.12256,7.455732216483949,874.5910062394461,1,1
1.16,3.3987503,-6.457932,0.52380866,998.12585,7.449070900958048,880.4488600064308,1,1
1.18,6.022874400000001,-8.526618,2.1335073,998.15643,7.438514412225957,886.0486068469154,1,1
1.2,10.253012,-10.743066,2.7300432,998.1586,7.433791490091676,891.4001391305186,1,1
1.22,18.966618,-10.585772,5.655907599999999,998.13074,7.4495078358300235,896.5129832194406,1,1
1.24,18.966618,-10.585772,5.655907599999999,998.139,7.48322773981597,901.3965459168221,1,1
1.26,20.854652,-9.8278885,5.012029,998.1684,7.535119922777977,906.0600405909278,1,1
1.28,20.238073,-7.172917,4.638013,998.1958,7.599502617078947,910.5123932188402,1,1
1.3,18.914074,-6.753460400000002,4.519654,998.1754,7.671819916529505,914.7620788252757,1,1
1.32,16.160917,-6.028944,4.6948276,998.1909,7.745256279905504,918.8174447833513,1,1
1.34,11.496272,-2.7876964,4.893713,998.1709,7.808869596278293,922.6864385826867,1,1
1.36,9.961968,-1.7295207,5.44764,998.1713,7.860837842494837,926.3768270048818,1,1
1.38,7.256628999999998,0.2914986,4.6333246,998.15125,7.896363078430746,929.8960421375157,1,1
1.4,6.3484940000000005,0.96834904,3.170396,998.1614,7.9142119522936465,933.2513759170163,1,1
1.42,6.6161910000000015,1.2638748,3.5160105,998.16943,7.917284759882599,936.4498538392813,1,1
1.44,8.485122,1.3496721,4.6901449999999985,998.1639,7.9118428566321315,939.4981994975738,1,1
1.46,12.414164,-1.1051056,6.692802,998.139,7.907954915024494,942.4028246030493,1,1
1.48,16.156776,-3.0021958,6.2619742999999985,998.1639,7.9126026781543315,945.1700912176764,1,1
1.5,16.156776,-3.0021958,6.2619742999999985,998.16943,7.924775858042938,947.8060456179775,1,1
1.52,17.02673,-4.6275926,5.504472,998.1645,7.945419197226268,950.3164653618588,1,1
1.54,18.584974,-8.274009,6.072603,998.1737,7.979183048241628,952.7069582922496,1,1
1.56,21.515036,-12.845139,5.61337,998.1687,8.033664254148183,954.9828601156908,1,1
1.58,17.093742000000002,-14.098743,5.4997463,998.19684,8.10033432447512,957.1494172944673,1,1
1.6,13.982119,-11.786964,4.5860085,998.1737,8.169269565147605,959.2114746353736,1,1
1.62,9.761581,-11.095814,3.5160358,998.1792,8.232345381952019,961.1737923131112,1,1
1.64,4.1549125,-8.803101,1.1819782,998.16205,8.278823834708152,963.0408539408332,1,1
1.66,4.1549125,-8.803101,1.1819782,998.16205,8.310469534161303,964.8170259009012,1,1
1.68,1.7889515,-6.1099977,-0.59341985,998.13934,8.321803879555722,966.5064117755741,1,1
1.7,1.3062191,-5.2138860000000005,0.22563475,998.1723,8.313042016772606,968.1131503320427,1,1
1.72,1.6312597,-4.832561,0.53810674,998.1196,8.286033017876276,969.6408877393433,1,1
1.74,8.3087015,0.64897776,2.1288720000000003,998.1251,8.250216269618344,971.0933396765724,1,1
1.76,10.421389,-0.7380906999999999,5.0594697,998.14294,8.212994828599289,972.4741047694723,1,1
1.78,13.843757,5.410767,8.8848715,998.15466,8.18653119798506,973.7865988043886,1,1
1.8,15.578852,7.5461839999999984,9.363049,998.1687,8.174581051517393,975.0340940979448,1,1
1.82,14.632465,6.178182,8.307278,998.15717,8.171848907581358,976.2196240125784,1,1
1.84,9.540337,3.270622,6.716367699999998,998.205,8.165201089794913,977.3463055987036,1,1
1.86,7.1408377000000005,1.7357916000000002,4.557475599999999,998.1768,8.147905348142363,978.4168312280484,1,1
1.88,8.37875,2.6509721,6.1434965,998.1952,8.125576828994753,979.4339498017163,1,1
1.9,9.043123,0.86828023,5.528022,998.1842,8.098698511775845,980.4001766741233,1,1
1.92,9.826973,1.3115709,7.383905,998.1945,8.07148683059237,981.3179943025552,1,1
1.94,8.168344,0.14376551,6.5979905,998.15656,8.040211648960526,982.1895967955484,1,1
1.96,7.393958599999999,-0.82384413,5.196601,998.1793,8.002493984298871,983.0173076898932,1,1
1.98,7.393958599999999,-0.82384413,5.196601,998.14386,7.959219525224865,983.8031286244524,1,1
2.0,7.3986807,-0.29952157,6.4086037000000005,998.1792,7.912683130285928,984.5492338591812,1,1
2.02,8.106072,0.6919227,5.8546767,998.2382,7.863910728054793,985.2577727226944,1,1
2.04,6.9875417,-0.98590386,6.65952,998.1424,7.812672526981659,985.9302223206928,1,1
2.06,7.613657499999999,-0.2804525,5.3338833,998.13995,7.758603272156782,986.56835380513,1,1
2.08,7.4941053,-0.6856084,5.8783345,998.16943,7.702744266743291,987.17397065908,1,1
2.1,7.2837562999999985,-0.5330775999999999,6.882025200000001,998.14984,7.646514552395947,987.7486068408577,1,1
2.12,7.9768085000000015,-0.39008048,7.185025,998.15656,7.591630866806822,988.2938240024494,1,1
2.14,6.9013147,-1.2671261,6.276016,998.1688,7.535372262903044,988.8111278000227,1,1
2.16,7.4318156,-1.0001975,7.227626299999999,998.1792,7.480181855145594,989.3019424954788,1,1
2.18,7.1641088,-1.167026,6.640556299999999,998.1541,7.424934553973883,989.7674941273998,1,1
2.2,7.474758,-0.6284042,6.3848953,998.14417,7.369862305616016,990.2090115825066,1,1
2.22,7.479519,-0.77140045,6.8441305,998.1664,7.315801952636101,990.627783004142,1,1
2.24,6.9489226,-1.3767521,6.631079,998.1491,7.261865284042113,991.024886173484,1,1
2.26,7.0636187,-1.1860893999999995,6.5269203000000005,998.12335,7.208205070263538,991.4013210036902,1,1
2.28,7.465066,-1.0812237,6.9151363,998.1743,7.1561103674996,991.7583215440469,1,1
2.3,7.2547164,-1.1622545,6.5505834,998.14734,7.104776546464473,992.0967676879477,0,0
2.32,7.044386,-1.4339476999999998,6.668942,998.186,7.054221828500349,992.4177399370217,0,0
2.34,7.3136883,-1.2433253999999998,6.356621,998.16205,7.004461941193163,992.7220305325302,0,0
2.36,7.547927,-1.0955628000000002,6.304545,998.1687,6.955845224115532,993.0105097128044,0,0
2.38,7.533601299999999,-1.2099605,6.314015,998.1664,6.908431183611843,993.2839711215288,0,0
2.4,7.4284880000000015,-1.4673556,6.441848,998.13367,6.862328757827334,993.5430605382401,0,0
2.42,7.313786,-1.5245546,6.280879,998.1541,6.817174856322154,993.7885916889084,0,0
2.44,7.2038927,-1.5388554,6.1009755,998.1509,6.772615173459808,994.0212473235588,0,0
2.46,7.347314999999999,-1.4625912,6.3234954000000005,998.1264,6.729237035580188,994.2416003919712,0,0
2.48,7.347314999999999,-1.4625912,6.3234954000000005,998.14667,6.68705907214367,994.4503626138091,0,0
2.5,7.333031,-1.2909964,6.3329687,998.14386,6.646033729250196,994.6481215036156,0,0
2.52,7.3330449999999985,-0.96687096,5.7979827,998.17865,6.605391677190028,994.8355711612356,0,0
2.54,7.2231507,-1.6818554,6.3377089999999985,998.1611,6.5659773033625175,995.0131735825281,0,0
2.56,7.6103435,-1.1384686000000002,6.2856326,998.1743,6.528164677760742,995.1814831370848,0,0
2.58,7.7250724,-1.0383713,6.328243700000002,998.15894,6.492119799849798,995.340920304198,0,0
2.6,7.8924074000000015,-1.2195016,6.8300943,998.15894,6.458740312225494,995.4919438559638,0,0
2.62,7.9449997,-1.1194042,6.484483999999999,998.1596,6.4274366149854405,995.6349918284227,0,0
2.64,7.605675,-1.391099,6.276174,998.1639,6.397336258873597,995.7704930863048,0,0
2.66,7.648721000000001,-1.6913928,6.479756,998.1737,6.368839157948898,995.8988735426593,0,0
2.68,7.5435796,-1.8153235,6.2903814,998.15643,6.341491980866435,996.02043771714,0,0
2.7,7.8925475999999986,-1.2671707,6.1152120000000005,998.1743,6.315417282143924,996.1356057259296,0,0
2.72,7.773065600000002,-1.414934,6.228839,998.1737,6.290553293191894,996.2447053178827,0,0
2.74,7.5914474,-1.4435338,6.190965,998.14667,6.266517593815391,996.3479527901884,0,0
2.76,7.5293517,-1.4816673,5.646512,998.1596,6.242522321605422,996.4457041866726,0,0
2.78,7.5245996,-1.5769991,5.8027506,998.167,6.218867080162753,996.5382739855344,0,0
2.8,7.3286552,-1.6294318,5.556564,998.17,6.1949906621337485,996.6259428734604,0,0
2.82,7.395587400000001,-1.5960662,5.4902835,998.1547,6.171020973624325,996.7089106284875,0,0
2.84,7.351263,-2.1823208,5.0924735,998.16205,6.146758462474483,996.7874522385671,0,0
2.86,7.781408,-2.4158812000000003,4.959907,998.15717,6.12301766603796,996.8617825891744,0,0
2.88,8.001241,-2.4873786,5.3433905,998.1541,6.1006526452307455,996.93211322965,0,0
2.9,8.268884,-2.325315,4.9267607,998.1698,6.079509998037055,996.9987130559475,0,0
2.92,8.856775,-1.8820246,4.6616316,998.1829,6.060109311740807,997.0618237354627,0,0
2.94,8.799391,-2.325314,4.5669413,998.16144,6.042315422608698,997.1215469504344,0,0
2.96,8.847177,-2.4540105,4.789457,998.1645,6.026363630878802,997.178073014162,0,0
2.98,8.689418,-2.821035,5.2723637000000005,998.1846,6.0124974962334825,997.2316429412206,0,0
3.0,8.359586,-3.0784283,5.461737599999998,998.17487,6.000319060330041,997.2823729461812,0,0
3.02,8.283096,-3.0593617,5.3291736,998.1624,5.989393372092872,997.330366075958,0,0
3.04,8.722814,-2.6351373,5.7552676,998.1798,5.980578233965048,997.3758307675557,0,0
3.06,8.679757,-2.3157773,5.106651,998.15717,5.97273663819565,997.4188161902878,0,0
3.08,8.373824,-2.6208363,5.206071,998.18713,5.965511641840715,997.4595640395288,0,0
3.1,8.521974,-2.6971006,4.931473,998.18994,5.9588702043948025,997.498198192576,0,0
3.12,8.545846000000001,-2.8400967,4.410686,998.158,5.952391771424548,997.5347106167152,0,0
3.14,8.483696,-2.9878597,4.44856,998.1703,5.946095020266878,997.5692611164646,0,0
3.16,8.617506,-3.040291,4.690012,998.1626,5.940473905446822,997.6019259580237,0,0
3.18,8.6652775,-2.9830918,4.1881633,998.1777,5.935064038255477,997.6328613985767,0,0
3.2,8.746522,-3.0450568,4.0413957,998.1973,5.929920072641245,997.6622279328141,0,0
3.22,8.330627999999999,-3.5026448,3.9230306000000006,998.1675,5.9245037435600265,997.6899951819084,0,0
3.24,8.211121,-3.574143,3.88042,998.1675,5.918675128316273,997.7162493405533,0,0
3.26,8.082027,-3.3644135000000004,3.4732578000000003,998.1601,5.91179303572584,997.7410453775057,0,0
3.28,7.98164,-3.4311447,3.4590532999999994,998.1457,5.903865605689618,997.7644119123976,0,0
3.3,8.043739,-3.6265726,3.904084,998.1482,5.8956612676208575,997.7864402197438,0,0
3.32,8.546447,-3.2214358,4.2213645,998.17096,5.888100541283,997.8072887033238,0,0
3.34,8.374377,-3.135638,4.1030050000000005,998.17804,5.880671763681387,997.8270451280832,0,0
3.36,8.498666,-3.021241,4.368133,998.1882,5.873767128274743,997.8458020625392,0,0
3.38,8.450872,-2.978342,4.259242,998.17554,5.867141320681165,997.8635627463997,0,0
3.4,9.005339,-2.6732826000000003,4.065132,998.16846,5.861439380103284,997.8803537167717,0,0
3.42,8.809376,-2.8305793,4.1124773,998.1689,5.856345831126722,997.8962289848117,0,0
3.44,8.288385,-3.145172,4.088806,998.1777,5.851053446357117,997.9112696673068,0,0
3.46,8.269275,-3.4883645,4.022525,998.1804,5.845755291668012,997.9255284835573,0,0
3.48,8.489155,-3.3596675000000005,3.7621336,998.1784,5.840552993038098,997.9390379110553,0,0
3.5,8.484385000000001,-3.1642392000000004,3.880494600000001,998.1854,5.835406566471118,997.9518617447127,0,0
3.52,8.57521,-3.188072,3.852089,998.1617,5.830483690540946,997.9639483018514,0,0
3.54,8.623016,-3.2214382,4.5433125,998.1838,5.826480058033215,997.9754194498524,0,0
3.56,8.50353,-3.0069432000000003,4.221374,998.1734,5.822665474334179,997.9862680862068,0,0
3.58,8.680387,-2.9449782000000004,3.9799194,998.1734,5.819103552274082,997.996527616179,0,0
3.6,8.799895,-2.949745,4.197704,998.1587,5.816179206297249,998.0061767574443,0,0
3.62,8.446195,-3.1308742,3.8994367,998.1641,5.813058370278197,998.0152712623393,0,0
3.64,8.694757000000001,-2.8067489,4.0746107,998.17395,5.810166616886315,998.0238784103204,0,0
3.66,8.541813000000001,-3.0879762000000004,4.1219554,998.1715,5.80742626770268,998.0320151239991,0,0
3.68,8.360194,-3.3310707,4.0320034,998.1867,5.8045945604124665,998.0397615897592,0,0
3.7,8.3219595,-3.4788339999999995,4.197708,998.1695,5.801874056061057,998.047073425182,0,0
3.72,8.149896,-3.4645345,3.8520973,998.17444,5.7986556868728485,998.0539926826308,0,0
3.74,7.9921665,-3.774361,3.3123753,998.1795,5.794555108134763,998.0605583648547,0,0
3.76,7.767529,-3.4883678,3.7810826,998.1943,5.78943571336395,998.0668412715546,0,0
3.78,8.33633,-3.2738726,4.188242,998.1598,5.784620121695491,998.0727274993367,0,0
3.8,8.470179,-3.2500403,4.211915,998.1946,5.7803299178772765,998.0783673112078,0,0
3.82,9.067223,-2.8115065,4.174,998.1695,5.777283995060103,998.0836787266563,0,0
3.84,8.785209,-2.978336,4.0651083,998.1695,5.774844956032371,998.0886808499307,0,0
3.86,8.18772,-3.912581,4.5338135,998.1598,5.772984469500147,998.0933567549966,0,0
3.88,8.240289,-3.9888453,4.652172599999999,998.18726,5.771901879372512,998.0978264363946,0,0
3.9,8.259404,-3.9936118,4.4675303,998.19183,5.771375468955588,998.1021142597067,0,0
3.92,8.708696,-4.026978,4.401248000000002,998.1795,5.772073593923802,998.1061815690506,0,0
3.94,8.90944,-4.0651097,5.130346,998.1572,5.774889380585513,998.109959109938,0,0
3.96,6.3856897,-4.255771599999999,4.476996400000001,998.1679,5.7750536348721,998.1135055322707,0,0
3.98,6.7441707,-4.0317435,3.5585214999999994,998.1557,5.772336657518162,998.1167910511273,0,0
4.0,8.139864999999999,-3.378725,3.5869273999999995,998.19006,5.768932518233642,998.1199579038052,0,0
4.02,8.302364,-4.179506,5.646392,998.1777,5.767761029773962,998.1229640063775,0,0
4.04,8.302364,-4.179506,5.646392,998.1535,5.7685665289415695,998.1257301281876,0,0
4.06,7.9438663,-3.6647174,4.7752604000000005,998.1725,5.769227155810963,998.1283426449576,0,0
4.08,7.982091,-3.4740550000000003,4.4154444,998.15497,5.769329723832557,998.1307469232536,0,0
4.1,8.259311,-3.7791145,4.8841496,998.2075,5.7700854172473415,998.133147654632,0,0
4.12,8.154150999999999,-3.9411776,5.054588,998.15045,5.7715379898681,998.1353312293217,0,0
4.14,7.9964128,-4.0698743,5.0924625,998.1553,5.773487345471442,998.1373325234916,0,0
4.16,7.7860928,-3.9745429,4.46752,998.1756,5.774830072899017,998.1392386299356,0,0
4.18,8.135010000000001,-3.9316435,4.694771299999998,998.16974,5.776390412545048,998.1410326705217,0,0
4.2,8.244927,-3.7171483,4.1455784,998.18304,5.777652651129294,998.1427691111701,0,0
4.22,8.244927,-3.7171483,4.1455784,998.17316,5.778646943556447,998.1444128373264,0,0
4.24,7.6330985999999985,-3.6885486,4.585877,998.1753,5.778755527974299,998.1459764275436,0,0
4.26,7.6426544,-3.831545,4.1787176,998.18304,5.777826405265,998.1474914447208,0,0
4.28,8.168424,-3.531252,3.4496183,998.1887,5.7760426138941945,998.1489784646973,0,0
4.3,8.536458999999999,-3.2452583,3.9419959,998.17834,5.774347086443694,998.1503980970757,0,0
4.32,8.665469,-3.2738566,3.818897,998.1661,5.7728866247176365,998.1517090110956,0,0
4.34,8.627226,-3.4025533,3.8188965,998.1857,5.771659641123852,998.1529897022839,0,0
4.36,8.177914999999999,-3.2595565,3.7620828,998.1777,5.769696123851777,998.1542102780896,0,0
4.38,8.464687,-3.3548872000000003,3.501689,998.1683,5.7674664924104775,998.1553395018702,0,0
4.4,8.469462,-3.407319,3.8804412,998.1708,5.765351113651347,998.1563929417963,0,0
4.42,8.369076,-3.6408803,4.330209,998.1887,5.763723082052271,998.1574400667242,0,0
4.44,8.488562,-3.2786214,4.188175,998.1887,5.7623556709958486,998.1584778420703,0,0
4.46,8.603266,-3.7171445,4.069814,998.19116,5.761639563029697,998.159512476135,0,0
4.48,8.330803,-3.9697719,4.4580345,998.1777,5.761566388707273,998.1604921538803,0,0
4.5,7.6425004,-3.9840715,3.9609208,998.1789,5.760474767025415,998.1614240653819,0,0
4.52,7.7906637,-4.0889354,4.0272017,998.1781,5.758884463763652,998.1623075357496,0,0
4.54,7.8719160000000015,-4.036503,3.8425593,998.18085,5.756794006600733,998.1631549230376,0,0
4.56,7.876684700000001,-4.4130607,4.0508723,998.18823,5.754790451697613,998.1639939447224,0,0
4.58,8.345097,-4.374928,5.0545654,998.1862,5.75452678108149,998.164815246082,0,0
4.6,8.144333999999999,-4.103234,4.363341,998.1789,5.7545900621556285,998.1655916530777,0,0
4.62,7.9483523,-4.2319307,3.927775,998.1887,5.754348463333347,998.1663608763478,0,0
4.64,8.096516000000001,-4.303429,4.183432,998.1608,5.75436689619133,998.1670205428744,0,0
4.66,8.106069999999999,-4.565589,4.259182,998.2054,5.754934253038097,998.1677415902631,0,0
4.68,8.335485,-3.769574,5.2818117,998.1838,5.756673628773485,998.1684365180106,0,0
4.7,7.542028,-3.3310506,4.931465,998.1641,5.7574546132667725,998.1690349447036,0,0
4.72,7.1739783,-3.5503120000000004,4.798901,998.1887,5.756815600943327,998.1696345087287,0,0
4.74,8.144258,-3.7648067,3.809409,998.1708,5.755786290269428,998.1701684792696,0,0
4.76,7.9912987000000015,-3.9697685,4.1171446000000005,998.1679,5.754581088397751,998.1706321291141,0,0
4.78,8.21594,-4.4178247000000015,4.832038400000001,998.1666,5.754635140758838,998.1710272944521,0,0
4.8,8.44058,-3.4263804,3.5963583,998.17395,5.754322113102052,998.1713869842847,0,0
4.82,7.953035400000001,-3.745739700000001,3.9561725,998.18304,5.7533666535939405,998.1717467570771,0,0
4.84,7.786305,-4.217643,4.62851,998.1956,5.752578073890129,998.1721505239914,0,0
4.86,8.288197,-3.8696845,4.1834764,998.1563,5.752077864586058,998.1724502305502,0,0
4.88,8.307335,-3.5312593,3.653225,998.2035,5.751168347231848,998.1728268304356,0,0
4.9,8.14006,-3.7409883,3.7621183,998.17035,5.749855722046613,998.1731506775047,0,0
4.92,8.049251,-3.764821,3.672165,998.1781,5.747980904203966,998.1734546463363,0,0
4.94,8.049251,-3.764821,3.672165,998.1928,5.7456160822734645,998.1737928764688,0,0
4.96,8.422094,-3.3834968,3.9372935,998.1756,5.743405630202904,998.1740982422588,0,0
4.98,8.407774,-3.1022706,3.4922612,998.1862,5.74076736108343,998.1744116297984,0,0
5.0,8.555962,-3.397797,4.0556564,998.1679,5.738678148269746,998.1746650971612,0,0
5.02,8.761505,-3.4502300000000004,4.2592370000000015,998.17004,5.737653464079798,998.1748724105735,0,0
5.04,8.81409,-3.459763,4.2971125,998.1928,5.737704828978836,998.1751201320261,0,0
5.06,8.273991,-3.5360284,4.353927,998.1708,5.7378706786747244,998.1753234662264,0,0
5.08,8.092364,-3.3072338,4.079333,998.1557,5.737411855772597,998.1754324878476,0,0
5.1,8.178412,-3.3263004,3.908895,998.17346,5.7364204960396,998.1755217183957,0,0
5.12,7.939435499999999,-3.6075275,4.7752924000000005,998.1728,5.7355584106612465,998.1755907643216,0,0
5.14,7.619208,-3.8982878,4.855779,998.17456,5.734600925525031,998.1756480625504,0,0
5.16,8.130653,-3.783891000000001,4.822639,998.15045,5.734274245915834,998.17560797824,0,0
5.18,8.450907,-3.664727,4.7563577000000015,998.18506,5.7348892387564145,998.1756065870219,0,0
5.2,8.259733,-3.6456614,4.9173293,998.1931,5.736155217466737,998.1756683340283,0,0
5.22,8.293199000000001,-3.56463,4.9504704,998.1658,5.738021823689346,998.1756873676803,0,0
5.24,8.321889,-3.4406998,4.6758760000000015,998.1946,5.740103854333543,998.1757722712916,0,0
5.26,7.8726068,-3.6980944,4.4865017,998.1863,5.7416207595775495,998.175885191946,0,0
5.28,8.484442,-3.0689094,4.041469,998.19073,5.742839393837135,998.1760384099454,0,0
5.3,8.1211815,-3.0832093,3.7053273,998.1998,5.742870951770338,998.1762593350937,0,0
5.32,8.030379,-3.5693984,4.751632,998.1648,5.7429888979983135,998.1764132909483,0,0
5.34,8.149047,-3.4788134,5.253403,998.1598,5.743828253989498,998.176489518494,0,0
5.36,8.196835,-3.3930151,5.101901,998.1648,5.745162618830582,998.1765147908867,0,0
5.38,7.7953009999999985,-3.3787146,4.9267254000000005,998.1648,5.746071962093308,998.176494948326,0,0
5.4,7.56584,-3.2452505,4.1550145,998.18726,5.745356314647924,998.1765161696252,0,0
5.42,7.709224000000002,-3.2929156,4.368062,998.18726,5.7436879579020355,998.1765735985547,0,0
5.44,7.871727000000001,-3.2404833,4.7468133,998.1369,5.741794538790815,998.1764815178018,0,0
5.46,8.292319,-2.7971928,4.3633237000000005,998.1725,5.739775961247793,998.1763858217844,0,0
5.48,8.851545,-2.7018614,4.358588,998.17737,5.738591228648592,998.1763048078253,0,0
5.5,9.157423,-2.5397978,4.5763683,998.17706,5.738808270042624,998.1762359425826,0,0
5.52,8.124965,-3.0831845,4.604773000000002,998.17706,5.738781768395143,998.176178059861,0,0
5.54,8.875374,-3.750502,5.3338695,998.1848,5.740989065974142,998.1761579536726,0,0
5.56,8.598135000000001,-3.488341,5.2959933,998.17456,5.7444777747579225,998.1761344352112,0,0
5.58,7.7425303,-2.8019567000000003,4.803613,998.16724,5.74669362985537,998.1760816343324,0,0
5.6,8.057977000000001,-2.4349313,3.7857141,998.1887,5.747147501156838,998.1760804055917,0,0
5.62,8.445121,-2.3729653,4.0745115,998.18976,5.746962232547575,998.1761285664168,0,0
5.64,8.301686,-2.8734531000000003,5.2439055,998.169,5.747374189900743,998.1761454584823,0,0
5.66,8.301686,-2.8734531000000003,5.2439055,998.19653,5.74831237306784,998.1762337686611,0,0
5.68,7.881033,-2.916351,4.566883,998.17194,5.748326057004213,998.1762963419676,0,0
5.7,7.9192615,-2.6827896,4.462725,998.1715,5.747343333225224,998.1763343649104,0,0
5.72,8.378092,-2.3300638,5.0497885,998.17395,5.746685447232585,998.176359378269,0,0
5.74,8.65053,-2.1441677,5.187085,998.17395,5.746848922346983,998.1763728063107,0,0
5.76,7.8283844,-2.7733529,5.400131,998.1862,5.746894751566516,998.1764200492261,0,0
5.78,7.517676400000001,-2.8925161,5.7694135000000015,998.1695,5.746839792943675,998.1764368808883,0,0
5.8,8.416249,-2.2919292,4.8698735,998.1617,5.746866615855532,998.1763987005742,0,0
5.82,8.315863,-2.4396925,4.8462005,998.18976,5.746839294611024,998.1764130651263,0,0
5.84,7.9538465,-2.9831104,5.0640974000000005,998.1813,5.746682049180407,998.1764433506104,0,0
5.86,7.9682,-2.8734798,5.007286,998.1759,5.746306728574392,998.1764681548017,0,0
5.88,7.8009367,-2.7352505000000003,4.671146,998.1784,5.7450234642831015,998.1764970264278,0,0
5.9,8.192910000000001,-2.8305824,5.135120400000001,998.193,5.744147961892552,998.1765819481017,0,0
5.92,7.939624,-2.9163816,5.494939,998.1885,5.743659809551172,998.1766998898793,0,0
5.94,7.681543400000002,-2.7209532000000003,5.419191400000001,998.1737,5.742892346774871,998.1767933036307,0,0
5.96,8.011379,-2.4254274,5.423928299999999,998.17065,5.742270708774401,998.1768537281282,0,0
5.98,8.011379,-2.4254274,5.423928299999999,998.1807,5.7417801594426585,998.176920965793,0,0
6.0,7.810671000000001,-2.916384,5.504417,998.17865,5.741441206709339,998.1769866015168,0,0
6.02,7.786786999999999,-2.8258197,5.2819014000000015,998.1907,5.740892041218285,998.1770939654767,0,0
6.04,7.734252499999998,-2.8305876,5.3103120000000015,998.1584,5.740107476238852,998.177121533996,0,0
6.06,7.6577899999999985,-2.8925529,5.352923400000001,998.19354,5.739078683464783,998.1772050000177,0,0
6.08,7.8059936,-2.9259195,5.665396,998.16785,5.7384582837734674,998.1772450725937,0,0
6.1,7.8968539999999985,-2.535063,5.476024,998.1485,5.737908423099003,998.1771769984607,0,0
6.12,7.648333,-2.8448900000000004,5.135149500000002,998.17804,5.7368057535409065,998.1771199549628,0,0
6.14,7.782196499999999,-2.8496573,5.15409,998.1376,5.735463666654186,998.1769272794896,0,0
6.16,7.801345299999999,-2.825825,5.37661,998.158,5.734180024600426,998.1766888932357,0,0
6.18,7.614961599999999,-3.0212548,5.670145,998.1626,5.733110957293963,998.176427535126,0,0
6.2,7.959136999999999,-2.8877919,5.8027115,998.1725,5.732861361413689,998.1761824599738,0,0
6.22,7.691497,-2.9688241,5.3671494000000015,998.1547,5.732449686799822,998.1758885747134,0,0
6.24,7.543352,-3.2405183,5.405027,998.158,5.731879171458101,998.1755644988284,0,0
6.26,7.634183,-3.2548184,5.518653400000002,998.1772,5.731455176685637,998.1752840331803,0,0
6.28,7.634227,-3.3644502,5.1541085,998.14276,5.730829547761803,998.1749191272147,0,0
6.3,8.035758999999999,-3.0260255000000003,5.438175,998.167,5.730770936892567,998.1745681874452,0,0
6.32,7.9879766,-3.0117264,5.310347599999999,998.1854,5.730984717355585,998.17429709159,0,0
6.34,7.982032000000001,-3.1213284,5.1445370000000015,998.16205,5.731318548734237,998.1740134617627,0,0
6.36,8.015482,-3.1403944,5.281834,998.13934,5.7319730046901425,998.173638021985,0,0
6.38,7.676098,-3.4025545,5.1445346,998.15753,5.73238306767293,998.1732482945183,0,0
6.4,7.757336599999999,-3.3310559,5.2723618,998.1596,5.732796556141888,998.1728547974684,0,0
6.42,7.805117,-3.140393,5.2392197,998.1674,5.733123832393121,998.1724874662042,0,0
6.44,7.6808243,-3.2309575,5.490142,998.1723,5.733514247353514,998.1721622174208,0,0
6.46,7.4991746,-3.2166574,5.4759364,998.167,5.733643650779107,998.1718562436133,0,0
6.48,7.8098345,-3.0879595,5.3007617,998.17,5.733758313412544,998.1715792026796,0,0
6.5,7.8098345,-3.0879595,5.3007617,998.1768,5.73385953829655,998.1713532041812,0,0
6.52,7.7524414,-3.202356,5.3291645,998.13367,5.73396195106358,998.1710178523728,0,0
6.54,7.7476444,-3.2261884,5.385976,998.1798,5.734136826060713,998.1707531512463,0,0
6.56,8.029634,-3.14039,5.362302,998.1891,5.734751880491195,998.1705853099867,0,0
6.58,8.029634,-3.14039,5.362302,998.15826,5.735753663273037,998.1703926343338,0,0
6.6,7.886205,-3.302452,5.35283,998.15894,5.736955936008174,998.1701811566433,0,0
6.62,7.8049393,-3.3262844,5.291282,998.1312,5.738147640726786,998.1698539627918,0,0
6.64,7.7571325,-3.2833855000000005,5.120843,998.1639,5.7390324086784945,998.1695434200386,0,0
6.66,7.824022999999999,-3.2547853,5.0734963,998.13934,5.739682021582607,998.16916029215,0,0
6.68,7.690180000000002,-3.3262835,5.106636,998.18115,5.739987597087591,998.1688649232956,0,0
6.7,7.776199,-3.3024504,5.466449,998.1909,5.740508534372811,998.1686832616521,0,0
6.72,7.6853647,-3.3072162000000005,5.272337,998.15894,5.740857716264063,998.168487669682,0,0
6.74,7.9721259999999985,-3.3453481,5.362288,998.1645,5.741644406376222,998.168300489006,0,0
6.76,7.7283382,-3.5407765,5.21552,998.15283,5.7423986420631685,998.1680794024006,0,0
6.78,7.178642999999999,-3.3453472,4.8415003,998.1792,5.74168571676548,998.1679240844272,0,0
6.8,7.207304,-3.6599393,4.7042007,998.18115,5.73982458412119,998.1678344587622,0,0
6.82,7.1690570000000005,-3.9078002,4.6757936,998.16315,5.7370729630932855,998.1677384014728,0,0
6.84,8.4356785,-2.7161605,4.652119,998.1561,5.734791518169173,998.1676116270066,0,0
6.86,7.938561,-3.1308503,4.420132,998.1611,5.7321053067019925,998.1674761672313,0,0
6.88,7.6235985999999984,-3.3548913,4.6521635,998.18097,5.728925316249494,998.1674050527716,0,0
6.9,8.072903,-3.4883547,5.1587453000000005,998.1386,5.726682785062707,998.167238517845,0,0
6.92,7.939067999999999,-3.6027522000000003,4.9172910000000005,998.17255,5.7248894034540925,998.1671104889197,0,0
6.94,8.493526,-3.3215253,4.8273373,998.1627,5.724142197901568,998.1669814848012,0,0
6.96,8.211518,-3.3262918,4.178724,998.1648,5.723234954731716,998.1668596434167,0,0
6.98,8.374033,-3.41209,5.1540112,998.1706,5.723462705395862,998.1667654496533,0,0
7.0,8.149384,-3.5789194,3.7005491,998.1873,5.723094290077598,998.1667561444248,0,0
7.02,7.7192025,-3.9745437999999993,4.8036656,998.1648,5.722789386890037,998.1667408802052,0,0
7.04,7.680965400000002,-3.9650106,4.6095552,998.1561,5.722279058414103,998.1666890855721,0,0
7.06,7.762223,-4.1366067000000015,4.5716796,998.1626,5.721831323911414,998.1666285991259,0,0
7.08,8.015554,-3.2261941000000003,5.187153,998.1799,5.7217836267094695,998.1666229303456,0,0
7.1,7.8148035999999985,-3.583686,5.1682153,998.1775,5.7219924597105525,998.1666570788617,0,0
7.12,7.451539,-3.7076166,5.352857599999999,998.15,5.722145644241498,998.1666272870067,0,0
7.14,7.427642,-4.2367043,5.3812637,998.1775,5.722680676646797,998.1666401046906,0,0
7.16,7.427642,-4.2367043,5.3812637,998.18396,5.723551183717216,998.1667137820192,0,0
7.18,8.125494999999999,-3.3644245,5.6605940000000015,998.1626,5.725453672639095,998.1667640736913,0,0
7.2,8.010782,-3.1403964,4.5006647000000015,998.1623,5.72670564106151,998.1667924407477,0,0
7.22,7.862607499999998,-3.5932195,4.5480084000000005,998.1787,5.727498399952267,998.1668603730916,0,0
7.24,8.072921000000001,-3.9173453,5.7694855,998.1603,5.729752751916089,998.1668967807678,0,0
7.26,7.967766,-3.7838814,6.3092074,998.17487,5.733658029602034,998.1669576541797,0,0
7.28,7.8865104000000015,-3.5598536,4.6142910000000015,998.1344,5.736849339075233,998.1668942343716,0,0
7.3,7.1456428,-4.050808999999999,4.8888865,998.1795,5.738884095467345,998.1668835773853,0,0
7.32,6.409553,-3.8982792,4.869949,998.18646,5.738611803667856,998.1669446359932,0,0
7.34,7.0739474,-3.1213303,4.765792,998.1714,5.736590329544454,998.16701462669,0,0
7.36,8.321477,-2.8258038,5.627454,998.1983,5.7358422814503385,998.1671890978135,0,0
7.38,7.896760499999999,-3.14518,5.8216276,998.1713,5.735945701323341,998.167358059746,0,0
7.4,7.7342744,-3.7267008,5.4949555,998.16394,5.736573898848113,998.1674950494946,0,0
7.42,7.691271,-3.7934327,5.774287,998.15906,5.7379658376743174,998.1675857274583,0,0
7.44,7.261116,-3.1404154,6.1483073,998.16394,5.739363939185486,998.167652725888,0,0
7.46,6.8978652999999985,-3.4216423,5.9541984,998.1435,5.740168252698735,998.1676249758874,0,0
7.48,6.8787875,-3.6027725,6.2666726,998.17053,5.740954095634821,998.1676109140736,0,0
7.5,7.170383500000002,-3.0546193,6.1909246,998.17065,5.741669043473022,998.1676094297644,0,0
7.52,6.8071322,-3.545575,5.8689860000000005,998.1737,5.7417127347753505,998.1676300442816,0,0
7.54,6.749817,-3.4836106,5.812176999999998,998.1737,5.740960322608135,998.1676701111093,0,0
7.56,6.735505,-3.6456742,5.7506330000000005,998.14294,5.739534411698,998.1676164857587,0,0
7.58,6.7737574999999985,-3.7648387,5.77904,998.1762,5.737705088289356,998.1676000030498,0,0
7.6,7.074941,-3.5789442000000005,5.7080293,998.15826,5.7357387076292,998.1675518149175,0,0
7.62,7.074941,-3.5789442000000005,5.7080293,998.1737,5.733658302151985,998.1675313693498,0,0
7.64,7.1849174,-3.5455792,5.783784,998.17,5.7317174383628,998.1675221907167,0,0
7.66,7.3952575,-3.516980600000001,5.7127705,998.1852,5.730121169487232,998.1675777205901,0,0
7.68,7.404831,-3.6599777,6.110461,998.1669,5.729437350799802,998.1676243469916,0,0
7.7,7.2327995,-3.7362437000000006,5.8074636,998.1577,5.7289917159330175,998.1676298184312,0,0
7.72,7.371442299999999,-3.5217492999999997,5.769591,998.16473,5.728761212264849,998.1676242136487,0,0
7.74,7.567428,-3.312021,5.86428,998.1697,5.728989662983217,998.1676267340939,0,0
7.76,7.615253999999998,-3.3215550000000005,5.76486,998.1773,5.729585161675426,998.1676637849164,0,0
7.78,7.3093743,-3.6313818,5.670175,998.14966,5.730140679782418,998.1676317093976,0,0
7.8,7.749158400000002,-3.4407208,5.674913,998.1773,5.7312086949186245,998.1676381733153,0,0
7.82,7.667928999999999,-3.259592,5.6323056,998.14966,5.732423298652291,998.1675791634088,0,0
7.84,7.548462,-3.4216557,5.532886,998.2388,5.733571517105378,998.1677834172673,0,0
7.86,7.371637299999999,-3.2500603,5.703327,998.2413,5.734461211108414,998.1682285556744,0,0
7.88,7.548156,-3.1451879000000003,5.9305477,998.1475,5.735598647943831,998.1685472571705,0,0
7.9,7.065409,-3.469314,5.1351695,998.11285,5.735489317965125,998.1686283516867,0,0
7.92,6.6925993,-4.0079355,5.3340154,998.1472,5.734386810292312,998.1686228647353,0,0
7.94,7.0319724,-3.8125067,5.82166,998.17914,5.733331489081353,998.1686558781518,0,0
7.96,7.858899000000001,-2.9211612,5.7506456,998.15216,5.732890472262965,998.1686256636453,0,0
7.98,7.825447,-2.9116282000000004,5.3813624,998.1342,5.7325087592482875,998.1684750337182,0,0
8.0,6.8456087,-3.7505426,5.059425,998.14655,5.730868234794438,998.1682630069932,0,0
8.02,9.450616,-2.458806,6.347184,998.2153,5.73299484176562,998.168244993354,0,0
8.04,7.1419845,-3.2786543,5.570743,998.1561,5.734256513796035,998.168185354526,0,0
8.06,7.8255032999999985,-3.3882854,6.844299,998.1395,5.737454946471932,998.1680293903817,0,0
8.08,6.8408914,-3.3406205,4.9694767,998.1711,5.738522327844918,998.167902634658,0,0
8.1,8.222269,-2.8162994,5.6086230000000015,998.1489,5.740305940412201,998.1677222238161,0,0
8.12,7.538771,-3.0546277,5.684375,998.18317,5.741842455468286,998.1676184247902,0,0
8.14,7.5005393,-3.116593,5.80747,998.1408,5.743282683276972,998.1674301616417,0,0
8.16,7.381064999999999,-3.2452905,5.916363,998.1767,5.744665659094192,998.1672971837421,0,0
8.18,7.381064999999999,-3.2452905,5.916363,998.1684,5.745993068338814,998.1671836546083,0,0
8.2,7.419324,-3.1833255,5.367174,998.1662,5.746630370317747,998.1670797991087,0,0
8.22,7.6774406000000015,-3.0212630000000003,5.6323013,998.1612,5.7472688055081464,998.1669668651132,1,2
8.24,7.247278999999999,-3.2262254,5.6512413,998.17596,5.747387023553351,998.16689945192,1,2
8.26,7.505396000000001,-2.9831314,5.575491,998.1662,5.7471990673887685,998.1668373675957,1,2
8.28,7.4862975999999986,-3.188094,5.9305735,998.168,5.747270635453563,998.1667866953627,1,2
8.3,7.5102034,-3.0546303,5.717526,998.1815,5.747263877847349,998.166794889275,1,2
8.32,7.567582000000002,-2.9259338,5.5139484,998.1734,5.746957131934406,998.1668259078143,1,2
8.34,7.3811836,-3.3310916,5.9116397,998.1309,5.746836198015072,998.1667239825276,1,2
8.36,7.366851,-3.2262273,5.9305778,998.1557,5.746809827961372,998.1665942350073,1,2
8.38,7.50548,-3.2738934,5.665453,998.1637,5.746793886273958,998.166469170852,1,2
8.4,7.730150999999998,-3.130897,5.760142299999999,998.1606,5.7471584681641845,998.1663375351494,1,2
8.42,7.290416199999999,-3.3787582,5.2961717,998.184,5.746793327964599,998.166284806716,1,2
8.44,7.0753393,-3.6075532,5.4334707,998.1506,5.7457827608726975,998.1661817505684,1,2
8.46,7.371701,-2.9783683,5.310377,998.1539,5.744077175116296,998.166046475854,1,2
8.48,6.9319725000000005,-3.6885855,4.2167309999999985,998.13654,5.740416432847017,998.1658207238032,1,2
8.5,8.103039,-4.560866000000001,5.3719273,998.14404,5.738836141427636,998.1655428386856,1,2
8.52,7.108314999999998,-5.6666940000000015,1.6790433,998.141,5.735994089951067,998.1652089451763,1,2
8.54,7.342524000000001,-6.038485,2.0483267,998.1561,5.733045877563455,998.1648811246687,1,2
8.56,6.2240470000000006,-7.215825,2.5122983,998.13116,5.7302848421309625,998.1644700664197,1,2
8.58,7.261261500000002,-7.125260400000001,1.716918,998.1561,5.728659906761272,998.1640767231115,1,2
8.6,8.389291,-8.993751,-0.011140166000000002,998.1346,5.73216413952233,998.1636230487616,1,2
8.62,11.008621,-9.379842,1.1913983999999995,998.1237,5.744786774199648,998.1630784591299,1,2
8.64,11.008621,-9.379842,1.1913983999999995,998.12195,5.76542098732534,998.1624491972791,1,2
8.66,11.907219,-6.171949,1.6837761000000002,998.157,5.790992467977125,998.1618735643973,1,2
8.68,11.056414,-4.856379,1.2198042,998.1588,5.817966980496322,998.1613538703508,1,2
8.7,11.601307,-2.5588984,2.4980934,998.1665,5.846089422523299,998.160913194758,1,2
8.72,10.114786,-2.0202775,2.1430128,998.14966,5.871788750745899,998.1604833023033,1,2
8.74,10.401569,-1.3338931,3.5964744,998.1493,5.8964007253302,998.160063189442,1,2
8.76,9.827991,-1.2337954,3.0378146,998.1665,5.9184547198845445,998.159715150236,1,2
8.78,10.893883,-1.333893,2.6069832,998.1574,5.9400815145175985,998.1593992882524,1,2
8.8,12.461656,-1.7295172,2.3181844,998.1644,5.964396182954083,998.1591381951661,1,2
8.82,12.275241,-2.106075,4.008367,998.17,5.991602828503433,998.1589465958124,1,2
8.84,15.4346895,-3.0593863,3.1419704,998.16547,6.027423015514482,998.1588007828784,1,2
8.86,18.082699,-3.631373200000001,1.4565221000000002,998.1973,6.075828915687906,998.1588105397516,1,2
8.88,17.446981,-7.949873399999999,2.0483222,998.18036,6.136804147203161,998.158896738982,1,2
8.9,17.413520000000002,-9.761166,1.1156443,998.2147,6.210145890221548,998.1591737963612,1,2
8.92,17.169746,-12.459036,0.7652981,998.21716,6.296714986432782,998.1596273545947,1,2
8.94,14.225383,-12.239775,-0.11056706,998.17487,6.389544942696707,998.1600829921733,1,2
8.96,12.982634,-11.505725,0.6137968,998.2122,6.48464547939157,998.1606732147659,1,2
8.98,7.8538995,-9.513303,0.73215646,998.1976,6.571017425858643,998.1613276718756,1,2
9.0,6.1379480000000015,-9.003282,0.12615252,998.1533,6.64632946176597,998.1618770505589,1,2
9.02,1.9078264,-7.644814,-0.38042834,998.18036,6.705344234624258,998.1624290201815,1,2
9.04,0.058039777,-6.6200037,-1.706062,998.14325,6.747559958501773,998.1628476960676,1,2
9.06,0.30180725,-5.9383864,-2.0185328,998.1591,6.773621900252524,998.1632041463744,1,2
9.08,1.8839198,-7.277788,-0.34728822,998.1394,6.787907039322746,998.1634334109384,1,2
9.1,3.1983645,-7.9546394,0.007792023,998.1369,6.793912727004922,998.1635404688279,1,2
9.12,6.854912,-10.743074,0.97361034,998.1461,6.801325866166309,998.1635722794916,1,2
9.14,12.256087,-14.43239,2.16668,998.18115,6.823002253229174,998.1636636671876,1,2
9.16,15.496794,-15.261771,2.8768408,998.1762,6.863193418730702,998.163789548154,1,2
9.18,19.062525,-14.594453,5.433418799999999,998.1913,6.925160226163713,998.1639998142024,1,2
9.2,18.718374,-9.713499,5.1824949999999985,998.1971,7.000119531290985,998.1643047659517,1,2
9.22,18.049202,-7.906974000000001,6.2051263,998.1578,7.084092231238,998.1645508041601,1,2
9.24,15.745333,-6.4722404,4.0462375,998.17664,7.169156534931829,998.1648117246257,1,2
9.26,12.671915,-6.1624136,2.3939302,998.1689,7.2482173837226975,998.1650569917407,1,2
9.28,10.301129,-4.7229137,3.913673600000001,998.1868,7.316900626376356,998.1653519845931,1,2
9.3,10.5592375,-3.126117,3.0567462000000005,998.1623,7.375002278514232,998.1656016531332,1,2
9.32,11.314444,-0.4663781,0.89312315,998.17664,7.42340058019907,998.1658619983036,1,2
9.34,10.650049,-0.28048223,0.5853866,998.1648,7.4616178655938254,998.1660882161025,1,2
9.36,11.008531,-1.0526645,-0.37569788,998.17004,7.491523266487949,998.1663023285716,1,2
9.38,13.259814000000002,-2.3825338,0.12141437,998.1877,7.518980693858397,998.1665685499664,1,2
9.4,13.862069,-3.1594825,1.8636751,998.1569,7.545977207542903,998.1667689764109,1,2
9.42,14.593378,-4.479819,3.4781072,998.1946,7.575207677784292,998.1670462649023,1,2
9.44,16.863781,-6.3530755,4.794271,998.21185,7.6125233229092375,998.1674525704595,1,2
9.46,16.672585,-10.414182,10.688605,998.2197,7.664597575900077,998.1679996727963,1,2
9.48,16.873339,-11.858448,11.668626,998.2192,7.732268553385088,998.1686674135992,1,2
9.5,15.640144,-12.306504,10.182023,998.23114,7.8106900719909085,998.1694823306834,1,2
9.52,14.273117999999998,-12.802226,9.334565,998.2197,7.896187893410593,998.1703831750286,1,2
9.54,10.697626,-13.035784,8.662261,998.19214,7.982710947825622,998.171257485662,1,2
9.56,9.225437,-11.200659,9.613875,998.1853,8.066603917034236,998.1720805795892,1,2
9.58,7.853628,-10.218747,8.3213825,998.1603,8.143577734327163,998.1727654552968,1,2
9.6,5.4684906,-7.9117336,6.3518690000000015,998.1279,8.206231033520506,998.1732090958328,1,2
9.62,4.001081,-7.4160119999999985,4.855796,998.13324,8.252263053007637,998.1734572078656,1,2
9.64,3.3032243,-7.04422,5.0357027,998.14166,8.282491392040521,998.1735619697093,1,2
9.66,2.8013399,-6.496066000000001,4.727966,998.1516,8.297069436521562,998.1735754741836,1,2
9.68,1.9266156000000003,-7.325446,1.3618025,998.1312,8.296076995345432,998.1734348550301,1,2
9.7,2.089124,-7.7782693,1.2150353,998.13367,8.28226341460754,998.1731674504676,1,2
9.72,5.4301910000000015,-10.933729,-2.331035,998.09143,8.266073698063947,998.1726369169747,1,2
9.74,9.7224455,-14.279851999999998,-4.9823027,998.1316,8.259380348295581,998.1720204046793,1,2
9.76,12.571203,-13.569634,-1.7108296000000005,998.1687,8.262343463823392,998.1714637009583,1,2
9.78,18.283054,-11.396085,-3.3631382000000003,998.16205,8.28053776741722,998.1709379082267,1,2
9.8,18.517252,-11.29122,-3.0554028,998.1782,8.312327631590014,998.1704994612996,1,2
9.82,18.034483,-7.4350752999999985,0.6137599,998.1965,8.351057371147245,998.1702056515339,1,2
9.84,16.648335,-5.952676,1.0351216,998.19684,8.39202639541541,998.1700419248798,1,2
9.86,13.555787,-3.860157,1.4422788999999998,998.18353,8.427463560675395,998.1699458130784,1,2
9.88,13.555787,-3.860157,1.4422788999999998,998.1639,8.457885201520817,998.1698391237636,1,2
9.9,11.376185,-3.9507215,2.1903138,998.1817,8.479758219468296,998.1697875522397,1,2
9.92,10.362853,-3.0307758,1.3381196000000002,998.1854,8.491170835329369,998.1697981884531,1,2
9.94,11.854142,-1.6198745,1.5132916,998.2093,8.495752282407235,998.1699497931327,1,2
9.96,12.461171,-1.1956508999999995,3.4780693,998.1965,8.496220326824824,998.1701793317723,1,2
9.98,12.50896,-1.4864106,7.3792176,998.21405,8.496391344325414,998.1705400865197,1,2
10.0,8.914532000000003,-2.930677,4.2829156,998.18475,8.487394961810077,998.1709100051033,1,2
10.02,3.293472,-12.349394,19.290977,998.2235,8.49698837063443,998.1714261891452,1,2
10.04,3.3405395,-9.675338,19.754883,998.2265,8.521120036317804,998.1720805550841,1,2
10.06,7.819176,-7.8402114,5.9588237,998.18225,8.537902182656824,998.172695362829,1,2
10.08,6.0314903,-9.61337,9.30131,998.18207,8.552492631760298,998.1732723556464,1,2
10.1,7.4605926999999985,-12.911825,17.704872,998.20166,8.582708364314188,998.1738843820192,1,2
10.12,9.415514,-10.986136,15.692749,998.2047,8.622874006015858,998.1745361047473,1,2
10.14,11.485129,-11.477091,9.945178,998.2019,8.666896832850714,998.1752104769723,1,2
10.16,11.929611,-11.238762,13.226117000000002,998.1523,8.71836853916757,998.1757238745537,1,2
10.18,11.862655,-11.057632,6.3991017,998.14545,8.768698578801219,998.176068526708,1,2
10.2,10.117988,-12.149173,-0.20539655,998.16296,8.814467441422828,998.1763258706553,1,2
10.22,6.991956,-11.724947,-0.3711043,998.1784,8.851561194159842,998.1765607266327,1,2
10.24,4.1288147,-9.985154,0.98766625,998.1507,8.875023240551672,998.1766751467587,1,2
10.26,-0.40727848,-10.333111,-0.058642585,998.16113,8.885298210699121,998.1767202858535,1,2
10.28,0.39570895,-10.094782,0.031309277,998.1764,8.883387925853043,998.1767590177287,1,2
10.3,1.3994285,-10.48564,0.5662934000000001,998.1479,8.871738516698318,998.17668934875,1,2
10.32,4.5827384,-10.766866,1.0539335,998.1404,8.853926560350677,998.1764971475847,1,2
10.34,7.2832884999999985,-13.092944,2.7441125,998.1658,8.837972065438116,998.1762888089037,1,2
10.36,10.796406,-13.645863,3.9750538,998.14764,8.829155621297257,998.1760015851332,1,2
10.38,11.752326,-15.166393,1.3095806,998.1556,8.82955242999999,998.175674348503,1,2
10.4,13.516054,-15.929042,1.1675466,998.17,8.841604763731135,998.1753647745621,1,2
10.42,16.36954,-12.020464,1.7640762,998.2133,8.862794729028018,998.1752278018395,1,2
10.44,15.671647,-9.608585,2.6399376,998.16364,8.888211928158054,998.175065056655,1,2
10.46,15.313143,-8.326381,2.815109,998.1934,8.915370984459633,998.174987260806,1,2
10.48,13.587573999999998,-3.8505833,1.593627,998.16547,8.936813053245102,998.1748842582547,1,2
10.5,13.061757,-0.5521248000000001,1.7545931,998.1534,8.951002964773625,998.1747159018712,1,2
10.52,12.908764,1.1209377,5.0923447999999985,998.186,8.960254086193256,998.1746077649235,1,2
10.54,11.295126,0.07701419,4.2450633,998.16846,8.961251723465223,998.174490083163,1,2
10.56,11.237806,-3.4121063,3.5869849,998.1675,8.955396129866166,998.17436093526,1,2
10.58,11.151788,-4.9517045,4.1125054,998.1649,8.944745213135876,998.174212760806,1,2
10.6,12.97295,-10.452312,3.7574303,998.1559,8.938629451355188,998.1740159079196,1,2
10.62,10.339316,-12.678296,2.8531623,998.1664,8.935562794332457,998.1738145514404,1,2
10.64,9.02491,-13.455245,2.4460073,998.1562,8.934741118979328,998.1735732204704,1,2
10.66,9.02491,-13.455245,2.4460073,998.1737,8.93590606746072,998.1733604368317,1,2
10.68,8.551746000000001,-12.5639,1.2529407,998.14667,8.93646209121842,998.1730763356356,1,2
10.7,8.016447,-11.019536,1.5464772,998.1832,8.933287007262976,998.1728617490107,1,2
10.72,7.1274605,-9.351242999999998,3.5964797,998.1592,8.923877537552716,998.1726229579724,1,2
10.74,6.2718945,-8.4646635,2.152488,998.1813,8.905786422401924,998.1724431995624,1,2
10.76,5.402008,-5.9240904,1.4707372,998.1584,8.874681919852936,998.1722338095128,1,2
10.78,5.999541000000002,-3.9888697,2.9904864,998.17316,8.831462265508021,998.1720521267508,1,2
10.8,6.5109987,-3.2405202,4.193027,998.16364,8.77892873588916,998.1718613082056,1,2
10.82,7.514815,-1.7867221000000002,4.7374887,998.151,8.71973969170389,998.1716176002301,1,2
10.84,7.242404,-1.9106535,4.2214417,998.1584,8.6539195524485,998.1713546765017,1,2
10.86,7.78256,-1.7247587,6.5697103000000014,998.16113,8.586076788554829,998.1710855482598,1,2
10.88,7.859093700000002,-1.6389619999999998,6.7543573000000015,998.13904,8.517027349998695,998.1707323825717,1,2
10.9,7.252078,-1.8629907,6.2146373,998.16046,8.445578694412522,998.1703833447923,1,2
10.92,7.424189,-1.5579319,5.982654599999999,998.23206,8.37212290984968,998.1702969709697,1,2
10.94,7.7683535,-0.89538103,5.79328,998.2002,8.297305242729633,998.170328301964,1,2
10.96,8.0838785,-1.6008329,7.928502000000001,998.0987,8.225094497282642,998.1700981241437,1,2
10.98,6.090738,-2.740041,6.3424797,998.1362,8.150822255137653,998.1697727057747,1,2
11.0,6.2437105000000015,-2.1966537999999995,5.4524136,998.1703,8.073676041208019,998.1694870643628,1,2
11.02,6.994178,-2.2347872000000004,7.298835,998.1698,7.997962838001407,998.1692357981799,1,2
11.04,7.3467345,-1.848668,6.5412245,998.16846,7.9230732616231165,998.1690109865073,1,2
11.06,7.4040833,-2.0536296000000003,6.938914,998.18994,7.849896251529418,998.1688876873616,1,2
11.08,7.2559004,-2.2156923,6.92471,998.1801,7.7783268648831765,998.1688191045622,1,2
11.1,7.174639699999998,-2.1918595,6.5743637,998.1528,7.707818965479318,998.1687008360241,1,2
11.12,7.1459517,-2.172793,6.11986,998.1772,7.6378396570039655,998.168626930934,1,2
11.14,7.188961,-2.3825214,6.953114,998.1727,7.569878819431713,998.1685762914453,1,2
11.16,7.1172595,-2.344389,6.782675299999998,998.1528,7.503584555878562,998.1684747517438,1,2
11.18,7.3610163,-2.1584928,6.238218,998.1727,7.438544440414794,998.1684002421573,1,2
11.2,7.389690400000001,-2.1727922000000004,6.664314,998.14984,7.3754661150610366,998.1682675886148,1,2
11.22,6.9738383000000015,-2.2013915,5.859464,998.1747,7.312655489386534,998.1681735326257,0,0
11.24,7.0264072,-2.4254193,6.4749355,998.1846,7.251319684715465,998.1681495600363,0,0
11.26,6.8734455,-2.339621,6.4417944,998.17737,7.1911930539477025,998.16816157144,0,0
11.28,7.2701554,-2.349154,6.5412154000000005,998.17737,7.13308180308016,998.1682053350594,0,0
11.3,7.141092,-2.3729866000000004,6.8442163,998.16785,7.077197709553541,998.1682427253872,0,0
11.32,6.782597999999999,-2.1680243,5.5564575,998.1928,7.021113405810659,998.1683641696692,0,0
11.34,7.838926,-1.6723022,6.4039154,998.17194,6.967605089444456,998.1684843508259,0,0
11.36,7.1362809999999985,-2.101292,4.453339,998.16504,6.913262650201768,998.1685781432334,0,0
11.38,6.930745,-2.3634527000000003,3.6295524,998.1649,6.8573447871385484,998.1686477768887,0,0
11.4,6.949856,-3.8553846,4.102992,998.16003,6.801839529713902,998.1686782811901,0,0
11.42,7.542542,-3.7457535,4.5622287,998.1418,6.748215576554202,998.168608472978,0,0
11.44,7.948817,-4.1652102,3.4354393,998.18207,6.696512026454022,998.1685952519397,0,0
11.46,8.378995,-4.122311,3.2271252,998.1793,6.647254619775096,998.1686221069227,0,0
11.48,9.205891,-3.7838855,3.7289712,998.1777,6.601892209962574,998.1686785164011,0,0
11.5,9.607382,-4.0365124,3.5017185,998.1817,6.560892753348861,998.1687752371566,0,0
11.52,9.808129,-3.9316483,3.6342816,998.18713,6.5242717915639465,998.1689267767633,0,0
11.54,9.980383,-3.574161,3.714783,998.187,6.491773667953898,998.1691257407626,0,0
11.56,9.9134655,-3.4788300000000003,3.4970005,998.17194,6.462702433065638,998.169311676686,0,0
11.58,9.631455,-3.7076244,3.0377629,998.19934,6.43610991214975,998.1695840716318,0,0
11.6,9.02442,-4.451207,2.8767931,998.1743,6.411195161241157,998.169841737148,0,0
11.62,8.50342,-4.7276672999999985,2.4838376,998.1916,6.386970710782907,998.1701477401443,0,0
11.64,8.331346,-4.646636,2.7442298,998.16943,6.363204519698316,998.1704155405273,0,0
11.66,8.460399,-4.637103,2.7679014,998.17865,6.3401587916802296,998.170681813,0,0
11.68,8.336122999999999,-4.9516954,2.180835,998.18256,6.31762701410729,998.17095985283,0,0
11.7,8.431719000000001,-4.965996,2.5311813,998.1645,6.295982555760283,998.1711822733536,0,0
11.72,8.101911,-5.089926,1.8778331,998.18207,6.274458255626412,998.171417999944,0,0
11.74,8.661145,-4.818232,1.925177,998.21643,6.253836287650873,998.1717883311596,0,0
11.76,8.818877,-4.9707620000000015,1.9677866,998.1768,6.2345355986030855,998.1721335978295,0,0
11.78,8.116245,-5.256755,1.8399574,998.187,6.215496285906996,998.1724921945067,0,0
11.8,8.082785000000001,-5.1757230000000005,1.8920357,998.16693,6.196630121044617,998.1727890266307,0,0
11.82,8.211839,-4.8563647,2.0198646,998.15125,6.17792093321282,998.1729737669997,0,0
11.84,8.340893,-4.884964,2.086146,998.19403,6.159702149985829,998.173212806028,0,0
11.86,8.312211999999999,-4.9755282,2.2944598,998.18506,6.142121360804789,998.1734666708121,0,0
11.88,8.3265505,-5.023194,2.332335,998.1743,6.125260333592726,998.1736939857203,0,0
11.9,8.278751,-5.1328244000000005,2.2897253,998.16693,6.1091087389810665,998.1738704908246,0,0
11.92,8.197494,-5.128058,2.3465378,998.1639,6.093525046141182,998.1739905569676,0,0
11.94,8.393464,-4.9373955999999986,2.3560069,998.1867,6.078642551993062,998.1741424014067,0,0
11.96,8.532077000000001,-4.8229985,2.5122418,998.1674,6.064638630469853,998.174252298508,0,0
11.98,8.259627,-5.0756260000000015,1.9819883000000005,998.17487,6.0509985080082025,998.174351627312,0,0
12.0,8.125792,-5.166190599999998,2.015129,998.1688,6.037609610219335,998.1744194083847,0,0
12.02,8.250065,-5.051793,2.2045052000000003,998.17194,6.024666059945456,998.1744703738707,0,0
12.04,8.340717999999999,-5.180486,2.4412105,998.1723,6.012569243343345,998.1745075936279,0,0
12.06,7.8340516,-5.313949,1.5227351999999998,998.1793,6.000163465323775,998.1745577336684,0,0
12.08,8.006121,-5.3473153,1.7263143,998.17,5.9879309782844174,998.1745856295672,0,0
12.1,8.0252285,-5.352081299999999,1.8352047,998.14667,5.9759746626674985,998.1745097821167,0,0
12.12,8.092141,-5.242450700000001,1.7168442,998.1624,5.964252061400174,998.1743991680937,0,0
12.14,8.4315,-5.094687,1.8778133,998.16693,5.953266654242082,998.174274540538,0,0
12.16,8.388471000000001,-5.1423526,1.8541402,998.199,5.942938562628193,998.174253431284,0,0
12.18,8.484059,-5.0088882,2.1429384,998.197,5.933374535507416,998.1743166667944,0,0
12.2,8.503175,-5.0660872,2.1760787999999995,998.17194,5.9246274118107065,998.1743639856908,0,0
12.22,8.3119755,-5.151885,1.9109513,998.1867,5.916279714753982,998.1744502063193,0,0
12.24,8.297625,-5.161418,2.1713426,998.1674,5.908411042260253,998.1745010101238,0,0
12.26,8.278497999999999,-5.1423516,2.3039052000000004,998.205,5.901002240096228,998.1746556967288,0,0
12.28,8.225911,-5.0565534,2.1429348,998.18744,5.893769707936182,998.1748384013049,0,0
12.3,8.178105,-5.0994519999999985,2.1287308,998.1796,5.88667592418012,998.175016980824,0,0
12.32,8.182881,-5.0327199999999985,2.275497,998.1817,5.879735370748122,998.1751988325557,0,0
12.34,8.168531,-5.2233825,2.123995,998.1743,5.873065878364292,998.1753562809488,0,0
12.36,8.144629,-5.2138486,2.034041,998.18475,5.866569302196356,998.1755292197372,0,0
12.38,8.230661,-5.1947827,2.1524007000000003,998.18744,5.860427517960289,998.17572490726,0,0
12.4,8.30713,-5.1614165000000005,2.1808066000000004,998.1747,5.854729707312403,998.1758941270888,0,0
12.42,8.374036,-5.032719,2.0008981,998.1817,5.849346128000153,998.1760645508721,0,0
12.44,8.359689,-5.14235,2.1003199,998.1817,5.84439287125296,998.1762354249437,0,0
12.46,8.340567,-5.1804824,2.199742,998.1743,5.839889572904983,998.1763794417436,0,0
12.48,8.297533,-5.1518826,2.1950061,998.19684,5.835693174292282,998.1765803529977,0,0
12.5,8.18281,-5.2090807,2.0624423,998.16693,5.831588804997195,998.1767231369113,0,0
12.52,8.163686,-5.1375823,2.1097858,998.1674,5.827490750475138,998.1768157374844,0,0
12.54,8.001883,-5.3425617,2.109851,998.18713,5.823363801559997,998.1769346906957,0,0
12.56,8.116610000000001,-5.2853637,2.2376807,998.18225,5.819414908082943,998.1770589328668,0,0
12.58,8.255241999999999,-5.2710643,2.2897608,998.18225,5.815882252985609,998.1771874010907,0,0
12.6,8.202676,-5.2186327000000015,2.0577762,998.1675,5.812478177854327,998.1772660409697,0,0
12.62,8.226595,-5.2186330000000005,2.114591,998.18713,5.80926575250199,998.1773710374189,0,0
12.64,8.150139,-5.1662016,2.2045465,998.197,5.806086926121083,998.177534476547,0,0
12.66,8.193187,-5.1709685,2.3134406000000003,998.1639,5.803079513499472,998.1776298072447,0,0
12.68,8.236216,-5.190035,2.3749888,998.1727,5.800358489417469,998.1776962941434,0,0
12.7,8.164548,-5.128071,2.1193335,998.17194,5.797590641926942,998.177734319308,0,0
12.72,8.355761,-5.109005000000002,2.266102,998.16205,5.7951676986635565,998.177711454794,0,0
12.74,8.260175,-5.1566706,2.2661028,998.1649,5.7929443191212275,998.1776451304722,0,0
12.76,8.121591,-5.2472363,2.2613711,998.18225,5.7907645339080025,998.1776031038318,0,0
12.78,8.121591,-5.2472363,2.2613711,998.18506,5.78863111587074,998.1775928139183,0,0
12.8,8.131182,-5.1948050000000014,2.3371246,998.1854,5.786541820617446,998.1776118276207,0,0
12.82,7.9878173,-5.404534,2.2897832,998.2026,5.784466877889041,998.1777185855487,0,0
12.84,7.963939,-5.514165,2.1051433,998.155,5.782412574167871,998.177731129946,0,0
12.86,8.035646,-5.456967,2.232973,998.16693,5.780496223505741,998.1777033301078,0,0
12.88,8.102574,-5.280604,2.2613807,998.15393,5.778637020691959,998.177593182182,0,0
12.9,8.289017,-5.294905,2.1335545,998.15717,5.777109983457959,998.1774223320192,0,0
12.92,8.255568499999999,-5.285372,2.1903684,998.1921,5.77583971253949,998.1773242084198,0,0
12.94,8.427681,-5.156676,2.379748,998.1675,5.7750470374940885,998.1772021392572,0,0
12.96,8.140914,-5.3425717000000015,2.0909512,998.16943,5.774256682753447,998.1770662992436,0,0
12.98,7.9927497,-5.518935,2.0483425,998.1674,5.77340315771783,998.1769114723306,0,0
13.0,8.117056,-5.3473396,2.4223633,998.1541,5.7726855252245,998.1766925459697,0,0
13.02,7.9449925000000015,-5.395005,2.1193624,998.2022,5.7717107294799925,998.176590929472,0,0
13.04,8.192627,-5.2615194,2.0245905,998.18964,5.770741396192697,998.1765481177882,0,0
13.06,8.307333,-5.1852540000000005,2.1050746,998.1944,5.769929098216793,998.1765745561604,0,0
13.08,7.97273,-5.4950800000000015,2.024588,998.16693,5.769000543446811,998.1765631967039,0,0
13.1,8.345538000000001,-5.1280546,2.2471037,998.1723,5.768299368062481,998.17653781198,0,0
13.12,8.264265,-5.1471205,2.0435228,998.1777,5.767590900959222,998.1765195659151,0,0
13.14,8.292928,-5.1328206,2.2471006,998.1796,5.767003629801749,998.1765145332547,0,0
13.16,8.407636,-5.0946875,2.2944438,998.16205,5.766705529454633,998.1764580140763,0,0
13.18,8.216417,-5.1757183,2.1192687,998.1945,5.7663403498278285,998.1764730248793,0,0
13.2,8.268988,-5.190018,2.308644,998.17523,5.766110103076303,998.1764818135356,0,0
13.22,8.101678,-5.2901154,2.0861256,998.17,5.765721689773925,998.1764662446633,0,0
13.24,8.225936,-5.2376830000000005,2.1476715,998.1747,5.7653765312295855,998.176446129527,0,0
13.26,8.254599,-5.256749,2.2044828,998.1921,5.765166333564036,998.1764847097264,0,0
13.28,8.020363,-5.313947,2.0766516,998.1798,5.764683460078497,998.1765307342354,0,0
13.3,7.9295306,-5.4092774000000015,1.8920082,998.18994,5.763838615018513,998.1766196748483,0,0
13.32,8.125486,-5.4283433,2.2376182,998.1541,5.763178524584659,998.1766171919444,0,0
13.34,8.178047,-5.2662797,2.1192565,998.1772,5.762539257543306,998.1766170961597,0,0
13.36,8.197159,-5.2186146,2.0008957,998.19244,5.761850163100145,998.1766739739779,0,0
13.38,8.106317500000001,-5.4045095000000005,1.996159,998.16205,5.7611691984969315,998.1766715849119,0,0
13.4,8.005925,-5.452175,2.1665964,998.16205,5.76045701540521,998.1766168362276,0,0
13.42,8.082385,-5.4045086,2.1334538,998.1842,5.759779416571519,998.1765957596796,0,0
13.44,8.130167,-5.275811,2.048233,998.15717,5.759034741737873,998.1765072037068,0,0
13.46,8.139719,-5.3139434,2.0434978,998.1817,5.758290036607938,998.176447649716,0,0
13.48,7.9963083,-5.5379714999999985,2.0671685,998.1949,5.757570399897678,998.1764614562704,0,0
13.5,8.154025,-5.4378730000000015,2.2139335,998.17194,5.75709142208434,998.1764573784995,0,0
13.52,7.915010499999998,-5.4426394,1.9914142,998.17865,5.75633230092673,998.1764616688188,0,0
13.54,8.001039,-5.38544,1.9677415,998.1639,5.755397769929575,998.1764202377368,0,0
13.56,7.929333,-5.5761023000000005,1.7594268,998.17194,5.754329680601806,998.1763675003772,0,0
13.58,8.17307,-5.4521713,2.2091923,998.1491,5.753600522355766,998.1762227386447,0,0
13.6,8.115705,-5.49507,1.9630024,998.1614,5.753018930039451,998.1760414653188,0,0
13.62,8.163494,-5.423571,1.8351728,998.1624,5.752518998901287,998.175832182933,0,0
13.64,8.254286,-5.3044066,1.8825146,998.1743,5.752133444463865,998.1756417451584,0,0
13.66,8.134774,-5.3234725,1.9298571,998.17194,5.751685798479673,998.175460148058,0,0
13.68,8.249474000000001,-5.2186080000000015,1.9724652,998.1645,5.751283230603424,998.175260232327,0,0
13.7,8.115614,-5.2901053,2.019807,998.16693,5.750791058648241,998.1750535979508,0,0
13.72,8.043908,-5.4188027000000005,2.0434783,998.1867,5.750254606953972,998.1749129428633,0,0
13.74,7.89571,-5.599931,2.0955546000000003,998.186,5.749665136488312,998.1748285734337,0,0
13.76,7.8479033,-5.64283,1.9961312,998.17865,5.7489597647151625,998.1747677817416,0,0
13.78,7.9721622,-5.5379653,1.9629889,998.1349,5.7482241178830025,998.174570542188,0,0
13.8,7.996036,-5.5141315,1.7499383999999998,998.17334,5.7473935999720585,998.1743918313664,0,0
13.82,7.996036,-5.5141315,1.7499383999999998,998.1664,5.746482243840383,998.1742051518917,0,0
13.84,8.120287,-5.2758036,1.7878113999999998,998.16144,5.745456874522454,998.173994247361,0,0
13.86,8.177628,-5.261503,1.929842,998.17004,5.7444724368567925,998.1737936568272,0,0
13.88,8.258877,-5.218604,1.996123,998.18066,5.743647503224662,998.1736411338667,0,0
13.9,8.268419,-5.2138367,1.9819181,998.1586,5.742971839807267,998.1734522164971,0,0
13.92,8.354431,-5.1566377,2.100276,998.1578,5.742567561447803,998.1732289411301,0,0
13.94,8.335296000000001,-5.0565395,2.0387273,998.17255,5.74223862756397,998.1730292108272,0,0
13.96,8.320948,-4.980274700000002,1.9487728,998.16595,5.74183473078838,998.172827243973,0,0
13.98,8.320931,-5.0946717,2.1949606,998.15826,5.7415930394896195,998.1725963439819,0,0
14.0,8.325695,-5.180469,2.2612405,998.1779,5.741625680528008,998.1724114139121,0,0
14.02,8.091476,-5.2900996,1.9677067,998.1848,5.7414898229911495,998.1722926086121,0,0
14.04,8.288751,-5.2948985,2.1950777,998.18066,5.7416462819567275,998.1722177548577,0,0
14.06,8.097564,-5.323498000000002,2.223484,998.1603,5.741779778908893,998.172108710163,0,0
14.08,8.131038,-5.099469999999998,1.8257958,998.16675,5.74153378728659,998.1719930669142,0,0
14.1,8.303116000000001,-4.9993725,1.8542026000000005,998.17456,5.741156749991963,998.1719001254986,0,0
14.12,8.4560795,-5.0089054000000015,2.526489,998.18445,5.741247212639716,998.171863182012,0,0
14.14,8.111944,-5.547527,2.3371139,998.17456,5.7416542794013345,998.171840247292,0,0
14.16,7.815606599999999,-5.166203,2.4175994,998.1569,5.741454463035993,998.1717661972833,0,0
14.18,7.6961270000000015,-5.299667,1.9773012,998.1717,5.740460589643383,998.1717005283853,0,0
14.2,7.99248,-5.1995687,2.0435836,998.1762,5.739184828665378,998.1716587014446,0,0
14.22,8.293617,-5.1852694,1.9962403,998.14435,5.738145338265438,998.1715234318348,0,0
14.24,8.480039999999999,-5.4807963,2.3039777000000004,998.16974,5.738095245597212,998.1713974872528,0,0
14.26,8.523064,-5.46173,2.3891973,998.1468,5.739011971050442,998.1711976516664,0,0
14.28,8.542202,-5.0184407,2.1950886,998.1885,5.7402527927220115,998.1710833653958,0,0
14.3,8.542202,-5.0184407,2.1950886,998.1623,5.741775518854084,998.1709507619321,0,0
14.32,8.255429,-5.1566715,2.2850437,998.18445,5.743231558413397,998.170882190768,0,0
14.34,8.049909,-5.409299400000001,2.4223423,998.1566,5.744619742091079,998.170770185401,0,0
14.36,7.9113045,-5.3759336,2.5028281000000003,998.15656,5.745715535753237,998.1706200607913,0,0
14.38,7.791819599999998,-5.442666,2.4933603,998.1714,5.7464223335567475,998.1704902184673,0,0
14.4,7.8109436,-5.4283660000000005,2.3607974,998.1688,5.746729861997503,998.1703694050034,0,0
14.42,7.992592,-5.2472377,2.2187667,998.17053,5.74671385608046,998.1702632323686,0,0
14.44,8.006947,-5.3187356,2.4128788,998.1688,5.7466105630912905,998.1701641505921,0,0
14.46,7.911355499999999,-5.318736,2.3844728,998.18353,5.7462559264104724,998.170124718992,0,0
14.48,7.8970213,-5.4236,2.2424412,998.17804,5.7457061316151306,998.170118372242,0,0
14.5,8.255522000000001,-5.237705,2.389209,998.1483,5.74545460135689,998.1700342181134,0,0
14.52,8.053811999999999,-5.3377795,2.0624475,998.14575,5.74508338818822,998.1698724363404,0,0
14.54,8.173278,-5.2329144,1.9772253,998.16064,5.744658798418581,998.1696962491948,0,0
14.56,8.12545,-5.285346,1.7689089,998.16754,5.744082488853072,998.1695328077355,0,0
14.58,8.058518,-5.4998403,1.8635956,998.15576,5.743539546696835,998.1693388087547,0,0
14.6,8.220988,-5.4474072,2.3370323,998.16724,5.743448506998821,998.1691598355437,0,0
14.62,8.144482,-5.347309,2.0103555,998.15826,5.743368714885915,998.1689624554062,0,0
14.64,8.182707,-5.1614127,2.0056198,998.14264,5.743157801990334,998.1686932894777,0,0
14.66,8.292612,-5.328242,2.1097739,998.17523,5.743247197281562,998.1684789866208,0,0
14.68,7.881520299999999,-5.4092720000000005,2.2328658,998.16473,5.743053773016003,998.1682761322644,0,0
14.7,7.819353599999999,-5.661899,2.228129,998.16754,5.742800787547938,998.1680942400792,0,0
14.72,7.718948399999999,-5.561801,2.1760478,998.17914,5.742188240782807,998.1679732848801,0,0
14.74,8.029606,-5.361605,2.540594,998.1681,5.741726027950142,998.1678668650404,0,0
14.76,7.948306599999999,-5.4188023,1.8304296,998.18726,5.741000351296925,998.1678426477561,0,0
14.78,8.086905499999999,-5.3568362999999986,1.6647241000000002,998.1976,5.740147763239543,998.1679283758316,0,0
14.8,8.402330000000001,-5.3139367,2.4127560000000003,998.1567,5.739993105438103,998.1679637030064,0,0
14.82,8.402330000000001,-5.3139367,2.4127560000000003,998.17426,5.740455695578897,998.168017584767,0,0
14.84,8.517000999999999,-5.209071,2.445893,998.1567,5.741563125954322,998.1680244513857,0,0
14.86,7.919496499999998,-5.3949666,2.152357,998.1592,5.742285085537575,998.1679987507047,0,0
14.88,7.5131836,-5.414032,2.5311067000000005,998.1843,5.742204676086428,998.1680347260804,0,0
14.9,7.9672356,-5.1757035,2.3606656000000004,998.1514,5.741809120872147,998.1680066289086,0,0
14.92,8.2731,-4.9040084,2.867243,998.17175,5.741647832666651,998.1679952783836,0,0
14.94,8.239627,-4.8897085,2.9335232,998.17584,5.741662172955956,998.1680134900577,0,0
14.96,8.617203,-4.813443,2.7820194,998.1612,5.74231948028832,998.1680050533284,0,0
14.98,8.253907,-5.018403500000002,2.8009543,998.164,5.743132398726809,998.1679831804423,0,0
15.0,8.344695,-4.9421387,3.2885954,998.1837,5.744460473705898,998.168020434111,0,0
15.02,7.74719,-5.2948627,3.0187318,998.1788,5.745442011489447,998.1680921578895,0,0
15.04,7.930855,-5.1471496,2.7964008,998.18335,5.746118475013349,998.168210461252,0,0
15.06,7.6918902,-5.204349,2.5928235,998.17584,5.746071230490358,998.1683424604423,0,0
15.08,8.236838,-5.0422873,3.4544900000000003,998.18585,5.746662161172003,998.1685221220696,0,0
15.1,8.050477,-4.856393,2.9005694,998.15814,5.746946524582327,998.1686434954436,0,0
15.12,7.7446202999999985,-5.070889,2.8153546,998.1711,5.7466193572030315,998.1687595843737,0,0
15.14,8.017145,-4.818263,2.891112,998.16534,5.745991074311423,998.1688498500482,0,0
15.16,8.017145,-4.818263,2.891112,998.17535,5.7450989875715495,998.1689530093382,0,0
15.18,8.184514,-4.799199,3.4497788000000003,998.17706,5.744611530759818,998.1690733460533,0,0
15.2,7.993372999999999,-5.032761,3.6486282,998.17285,5.744546637054576,998.1691932715288,0,0
15.22,7.9933977,-4.9088316,3.288816,998.17535,5.744469222668879,998.1693214019016,0,0
15.24,8.098656,-4.8182697,3.2935596,998.185,5.74446908963549,998.169491060852,0,0
15.26,8.098656,-4.8182697,3.2935596,998.1999,5.744537242883919,998.1697504436817,0,0
15.28,7.859741,-4.8945365,3.1420658,998.1801,5.744239821864919,998.1700168927524,0,0
15.3,7.721177000000001,-4.942203,3.217821,998.1778,5.743491619934358,998.1702803463378,0,0
15.32,7.7403474,-4.8230405,3.3598576,998.1727,5.742354969333634,998.1705218446788,0,0
15.34,7.788171000000001,-4.885006,3.5160952000000005,998.20483,5.7411361392431335,998.1708587419721,0,0
15.36,7.9651,-4.794443599999999,3.4450862,998.1778,5.739998077696666,998.1711814129494,0,0
15.38,8.204116,-4.985107,3.634464700000001,998.18207,5.739663684681108,998.1715057239385,0,0
15.4,7.9651755999999985,-5.085205,3.3788114,998.1845,5.739564694632716,998.1718390645218,0,0
15.42,7.860096,-5.366434,3.3551464,998.16394,5.739789413912122,998.1721051676293,0,0
15.44,7.9605229999999985,-5.1185746,3.3362136,998.18677,5.740181968486093,998.1723930897315,0,0
15.46,7.9701076,-5.1090417,3.303075,998.18207,5.740704332474613,998.172682334578,0,0
15.48,8.041856,-5.1710086,3.3030796,998.17334,5.741523800779933,998.1729402789197,0,0
15.5,8.113603999999999,-5.0184793,3.501929,998.1717,5.742701043713055,998.1731637335361,0,0
15.52,7.951141000000002,-4.9660487,3.4498553,998.1966,5.743829659567697,998.1734455485944,0,0
15.54,7.9070125,-4.91359,3.511301,998.15857,5.744828858952472,998.1736410084047,0,0
15.56,7.6202315999999986,-5.2377157,3.104143,998.17816,5.745303333190648,998.1738299850633,0,0
15.58,7.988278999999999,-5.042287,3.336129,998.1935,5.745862202836907,998.1740677768922,0,0
15.6,7.8448925,-4.980322,3.6722724,998.1536,5.7464380105354325,998.1742042057556,0,0
15.62,7.5867853,-5.0565867,3.5065684,998.161,5.7465631495220615,998.1742772191583,0,0
15.64,7.749306699999999,-5.0613537000000015,3.7196174,998.16833,5.746719158243736,998.1743203238124,0,0
15.66,7.730192,-5.0994864,3.6107264,998.1611,5.746828132512916,998.1743108179187,0,0
15.68,7.983528999999999,-4.8420925000000015,3.0047235,998.17755,5.746622879434887,998.1743140795668,0,0
15.7,7.8162417,-5.123319,3.0236616,998.18066,5.746169681549166,998.1743398068724,0,0
15.72,8.523655999999999,-4.994622,3.5302432,998.1536,5.746888208261228,998.1742878762147,0,0
15.74,7.658518300000001,-5.0899534000000015,2.5123467,998.1659,5.746647650680028,998.1742117939316,0,0
15.76,7.658518300000001,-5.0899534000000015,2.5123467,998.17084,5.745560512224599,998.1741324291679,0,0
15.78,8.891714,-4.365437,3.8190432,998.17084,5.745981354716475,998.1740504497176,0,0
15.8,6.181574,-6.009899,3.7764342000000006,998.1856,5.745230865556204,998.1740195910563,0,0
15.82,6.181574,-6.009899,3.7764342000000006,998.1678,5.743448089509072,998.1739699338156,0,0
15.84,7.5533853,-5.237717,2.526552,998.1622,5.741009586422327,998.1738836849157,0,0
15.86,7.4960327000000015,-4.823027,3.6154656,998.1904,5.738179847414931,998.1738669341223,0,0
15.88,7.610753,-5.1566863,4.586018599999999,998.155,5.73637528727098,998.1737842121584,0,0
15.9,7.1996927,-5.3378153,4.1220474000000005,998.1725,5.734633938839532,998.1737064958673,0,0
15.92,8.222575,-5.3378153,3.9516096,998.1772,5.734419277855652,998.1736504023672,0,0
15.94,7.443475,-5.2853837,2.957385,998.1846,5.733530985697799,998.173640256702,0,0
15.96,7.4960556,-4.946958,3.2745905,998.18475,5.731974660094616,998.173671287068,0,0
15.98,8.079197,-4.946958,5.409807700000001,998.18207,5.7326388420024434,998.1737289408662,0,0
16.0,7.7876363,-4.9040594,3.5917969,998.17224,5.733121691269282,998.1737745235749,0,0
16.02,7.596447,-5.109021,3.4402962,998.1923,5.733235951947247,998.1738814921716,0,0
16.04,7.792071000000001,-5.051814599999998,3.4876084,998.1796,5.733314989867058,998.173996596252,0,0
16.06,7.1754630000000015,-5.695299,3.0283697,998.169,5.732799050570008,998.1740803144709,0,0
16.08,7.753811,-5.075647,3.3219023,998.17615,5.732166988018544,998.1741617387568,0,0
16.1,7.204124,-5.4283714000000005,3.3219013,998.1592,5.730952063614769,998.1741798229964,0,0
16.12,7.2614775,-5.395005,3.4497297,998.1788,5.729370213337716,998.1742124348675,0,0
16.14,7.9210773,-5.271075,4.017857,998.17865,5.728813433410367,998.1742572259514,0,0
16.16,7.75378,-5.2377086,3.6911829,998.1788,5.728604564675101,998.1743131573396,0,0
16.18,7.5673537,-5.5761337,3.3029606,998.16327,5.728505394429332,998.1743228229479,0,0
16.2,7.677284700000001,-5.328273,3.2603505,998.16113,5.728366775750551,998.1742838693167,0,0
16.22,7.591239999999999,-5.538000599999998,3.1041142999999995,998.1709,5.728190735581424,998.1742372679587,0,0
16.24,7.447832000000001,-5.6476316,3.3218956,998.185,5.728031460080245,998.174234836834,0,0
16.26,7.309209,-5.6285653,3.1041121,998.1627,5.727500486620871,998.1741911632796,0,0
16.28,7.720263,-5.6237984,3.0472984,998.16046,5.72725043990966,998.1741031411392,0,0
16.3,7.901891,-5.4760346,3.3550346,998.1927,5.727575304154586,998.174092313468,0,0
16.32,7.232710000000001,-5.5618324,3.1088445,998.1952,5.727277440269297,998.174158733809,0,0
16.34,8.097846,-5.1805080000000014,4.1267405,998.15796,5.728139846318459,998.1741591073807,0,0
16.36,7.9353275,-5.0184445,2.7632318,998.1583,5.728622917752067,998.174102344682,0,0
16.38,8.188642999999999,-6.1910176,3.785862,998.1706,5.73116809356526,998.1740395807208,0,0
16.4,8.322474,-6.06232,4.775352,998.1673,5.736375043309122,998.1739598599937,0,0
16.42,7.619834,-5.399769,2.185632,998.1627,5.740260457120348,998.1738488832635,0,0
16.44,6.544365,-6.524676,2.820041,998.17706,5.7431105993834874,998.1737623842447,0,0
16.46,6.5395803,-6.415045,2.8153064,998.182,5.744872868435979,998.1737156091287,0,0
16.48,7.5433264000000015,-5.7334266,2.9857438,998.1571,5.7463963443568185,998.1736144624432,0,0
16.5,7.519414,-5.7048273,3.1940563,998.1457,5.74776601158573,998.1734245971672,0,0
16.52,7.2804145999999985,-5.642862,3.0236168,998.1949,5.7484344952613355,998.1733341436592,0,0
16.54,7.342548,-5.8907228,3.265071,998.19635,5.749039860216143,998.1733370760228,0,0
16.56,7.089214,-5.9860535000000015,3.3408212999999995,998.18176,5.749375138805157,998.1733699895852,0,0
16.58,7.5528417,-5.514164,3.4071014,998.1638,5.749660307022652,998.1733646200464,0,0
16.6,7.739249000000001,-5.5427637,3.5396645,998.17645,5.750322670680357,998.17337098289,0,0
16.62,7.5002502999999985,-5.4807982000000015,3.6769612,998.1845,5.750971935082188,998.17341666956,0,0
16.64,6.998361599999999,-5.952687,3.2792706,998.1712,5.751118060283492,998.1734490582913,0,0
16.66,7.552805999999999,-5.537996,3.719569,998.1789,5.751488168033143,998.1734973003644,0,0
16.68,7.179972,-5.666693,3.2887373,998.17584,5.751312564042532,998.1735483607789,0,0
16.7,7.179968,-5.7381910000000005,3.3360807999999995,998.1813,5.750775752497242,998.1736213836624,0,0
16.72,7.156060000000001,-5.94792,3.7006292,998.1933,5.750412487320598,998.1737567497013,0,0
16.74,7.046111,-5.747724,3.3739543,998.20935,5.749548690393268,998.174004494834,0,0
16.76,7.318556,-5.657159,3.809519,998.1789,5.7488796894199945,998.1742410262519,0,0
16.78,7.3615694,-5.690525,3.9610193,998.15674,5.748611214442935,998.1743870217184,0,0
16.8,7.481046000000001,-5.557061,3.82372,998.1761,5.748615582973477,998.1745221900342,0,0
16.82,7.481046000000001,-5.557061,3.82372,998.1863,5.7488610203006205,998.174684024874,0,0
16.84,7.543171000000001,-5.4855623,3.3266062999999995,998.19116,5.7489636996214974,998.1748863356488,0,0
16.86,7.0651813,-6.0289497,3.3597467000000005,998.19604,5.7488868842294725,998.1751412506412,0,0
16.88,7.7975607,-5.4331565,3.9895203,998.1838,5.749546033756608,998.1753976650259,0,0
16.9,7.6063848,-5.380724400000001,3.0189688,998.1715,5.749786647668826,998.1756102011825,0,0
16.92,7.482117999999999,-5.347359,2.824859,998.16327,5.749296087775419,998.1757535734063,0,0
16.94,7.9410043,-5.275861,3.7386012,998.1786,5.7494500036883815,998.1758905042386,0,0
16.96,7.9362326,-5.3092275,3.4166625,998.16327,5.749966208420233,998.1759660625067,0,0
16.98,7.5682125,-5.437925,3.104194,998.21014,5.750138489349903,998.1761558519676,0,0
17.0,7.267092699999999,-5.6428866,3.5113535,998.1782,5.7500588284884815,998.1763309088683,0,0
17.02,7.778548700000001,-5.3521276,3.217822,998.1715,5.750021381105437,998.1764681978736,0,0
17.04,7.8263630000000015,-5.375961,2.8201334,998.1614,5.749875061156392,998.1765352609262,0,0
17.06,7.792920599999999,-5.4569926,3.29831,998.1715,5.749974500805548,998.1765763909004,0,0
17.08,7.7594705,-5.3854938,3.2604353,998.15405,5.750130782724107,998.176531638338,0,0
17.1,7.5635147,-5.5046587,2.8911533,998.1614,5.749918943887717,998.1764376210762,0,0
17.12,7.9172449999999985,-5.366429,2.9385,998.1694,5.7498287276777935,998.1763292119876,0,0
17.14,7.8264369999999985,-5.547559,2.9527037,998.20465,5.749911723549289,998.176335376554,0,0
17.16,7.711738,-5.4093290000000005,3.2462385,998.1687,5.7499939633357044,998.176313336209,0,0
17.18,7.735661500000001,-5.085203,2.9858482000000004,998.1673,5.7495838963564285,998.1762614133497,0,0
17.2,7.616175,-5.0518374,3.056865,998.19403,5.748553169968604,998.1762795012236,0,0
17.22,7.5875125,-5.3378315,2.9148345,998.1946,5.747158890464347,998.1763614374643,0,0
17.24,7.6926929999999984,-5.5141945,3.1042128,998.1663,5.7459405244996375,998.1763976151517,0,0
17.26,7.563663,-5.2615676,2.8532917,998.1648,5.744226245102983,998.1763878303417,0,0
17.28,7.630589,-5.1519375,2.5739625,998.1915,5.7419023836281164,998.1764335882942,0,0
17.3,7.817017599999999,-5.132871,2.8674974,998.1638,5.73950831062598,998.1764285391034,0,0
17.32,7.6258339999999984,-5.2711015,3.146828,998.17706,5.737078415978558,998.1764263508977,0,0
17.34,7.482464299999998,-5.3664336,3.061611,998.18744,5.7344463780681645,998.1764640665358,0,0
17.36,7.697564,-5.2806354,3.208378,998.18176,5.731992627389366,998.1765164574339,0,0
17.38,7.558456,-5.290156400000001,2.8248463,998.1789,5.729243589195456,998.176571330785,0,0
17.4,7.797442,-5.023229,2.957409,998.20715,5.726424037664277,998.176729900087,0,0
17.42,7.467632000000001,-5.194825,2.5928595000000003,998.16205,5.722977934562286,998.176817164282,0,0
17.44,7.67316,-5.2710905,3.18466,998.17706,5.719779994836947,998.1768951451332,0,0
17.46,7.5154223,-5.2520237000000005,2.9147985,998.1715,5.716359715593548,998.1769446264908,0,0
17.48,7.5058593999999985,-5.161459,2.914798,998.1873,5.71263755543466,998.1770256275634,0,0
17.5,7.4819559999999985,-5.0136957,2.801172,998.167,5.708387286095549,998.1770611078516,0,0
17.52,7.4819559999999985,-5.0136957,2.801172,998.18256,5.703685680454414,998.177112254246,0,0
17.54,7.5488696,-5.066128,3.1846585,998.182,5.699019720116088,998.1771750430847,0,0
17.56,7.1664815000000015,-5.266323000000001,2.7538273,998.13776,5.69373088710174,998.1770886291476,0,0
17.58,7.386349000000001,-5.2091246,2.9858127,998.1902,5.688344768805656,998.1770594747277,0,0
17.6,7.21905,-5.1328597,2.739623,998.182,5.682378649281863,998.1770514997733,0,0
17.62,7.324202,-5.0994935,2.8390452999999995,998.1902,5.676115844878563,998.1770917877043,0,0
17.64,7.501050500000002,-5.0804267,3.0189524,998.185,5.669996017600943,998.1771558556843,0,0
17.66,7.424572,-5.10426,2.8295763,998.1924,5.663804999349847,998.1772673450714,0,0
17.68,7.481923599999999,-4.985096,2.768028,998.18787,5.657497076508441,998.1774040266513,0,0
17.7,7.453241,-4.9660296,2.8201063,998.20496,5.651072396880754,998.1776239999997,0,0
17.72,7.414999499999999,-4.9660296,2.7822306,998.1899,5.644481072509935,998.1778625620498,0,0
17.74,7.219022,-5.0375276,2.6922767000000003,998.1648,5.637469902869143,998.178026330254,0,0
17.76,7.290717,-5.042294,2.6449325,998.1958,5.630207104507417,998.1782350210505,0,0
17.78,7.257252,-5.0661263,2.7112134,998.1873,5.622760362141105,998.1784520541624,0,0
17.8,7.257252,-5.0661263,2.7112134,998.1823,5.615177895124859,998.1786576772251,0,0
17.82,7.352842999999999,-5.113792,2.8390417,998.1848,5.607791556520669,998.1788614781253,0,0
17.84,7.4675555,-4.9898615,2.9053233,998.17676,5.600696553507603,998.1790339912797,0,0
17.86,7.625286,-5.0232277000000005,2.4271483,998.20496,5.59390265673907,998.179279757534,0,0
17.88,7.5975194,-4.8516536,2.6260765,998.1909,5.587276610683167,998.1795387494693,0,0
17.9,7.349003,-5.104282,2.5171885,998.1993,5.580627019461301,998.1798387352452,0,0
17.92,7.1865387,-4.9708195,2.5313962,998.2124,5.573569850167287,998.1802210232297,0,0
17.94,7.3012705,-5.032785,2.1763175,998.22046,5.5662475599541805,998.1807036732097,0,0
17.96,8.123429,-4.8802557,3.284171,998.21796,5.560585214611829,998.1812642655079,0,0
17.98,7.855794,-4.5513644,2.630826,998.2152,5.555210501521438,998.1818817735069,0,0
18.0,7.741128,-4.8564253,2.3988447,998.1804,5.550099911409998,998.1824220691904,0,0
18.02,7.679007,-4.8897915,2.0058906000000003,998.22003,5.544979372599896,998.183034863007,0,0
18.04,7.7602963,-4.9994235,2.2710207,998.2323,5.540251874621616,998.1837536821167,0,0
18.06,7.377961599999999,-5.3283167,2.062711,998.21674,5.5355252611840005,998.1845075814264,0,0
18.08,7.473573700000001,-5.2806516,2.289964,998.2194,5.53102728071702,998.1852993395632,0,0
18.1,7.335008999999999,-5.3235519999999985,2.3089060000000003,998.22253,5.5265804569354735,998.1861329674305,0,0
18.12,7.4401813,-5.1233573,2.2236884,998.23535,5.52209193072071,998.1870467423313,0,0
18.14,7.4306545,-5.218689,2.3893957,998.2425,5.517761587144522,998.188053785561,0,0
18.16,7.4737053,-5.223456400000001,2.5787747000000003,998.24225,5.513766440986319,998.189138715331,0,0
18.18,7.6458119999999985,-5.228224,2.4367456,998.26184,5.5102934465354885,998.1903590839003,0,0
18.2,7.707998799999999,-5.070928,2.3894064,998.27466,5.507197121155382,998.1917408848664,0,0
18.22,7.7605925,-5.0899954,2.1432188,998.2668,5.5044329240107475,998.1932320570143,0,0
18.24,8.1334505,-4.5990405,2.4604268,998.2517,5.502257002989116,998.1947601413193,0,0
18.26,7.908833,-5.004199,2.6782124,998.26154,5.500759436993317,998.196350764102,0,0
18.28,7.665096000000001,-5.14243,2.2237124,998.2646,5.499367144108062,998.1980019356424,0,0
18.3,7.9375772,-5.0042005,2.0816836,998.2769,5.4983162798658105,998.1997449438468,0,0
18.32,8.147905,-4.8421383,2.1479666,998.2745,5.4977932325859085,998.2015541840988,0,0
18.34,7.990221000000001,-5.0709333,2.5314581,998.26215,5.497900110414752,998.2033709737224,0,0
18.36,7.7895026,-5.161499,2.4699137,998.29095,5.498291042338378,998.2052915735285,0,0
18.38,7.7065787,-5.142392,2.2898536,998.28156,5.498678478321764,998.2072631818525,0,0
18.4,8.141507,-5.0184608,2.3561325,998.30707,5.4996981980060875,998.2093645995128,0,0
18.42,8.323121,-5.051826,2.5407724,998.2864,5.501714502893968,998.2114987395993,0,0
18.44,8.136659,-5.3282857,2.6070495,998.3039,5.504618765619164,998.2137171103172,0,0
18.46,8.084029,-5.504647,2.375059,998.2892,5.508286953950623,998.2159490010863,0,0
18.48,8.088776,-5.423614,2.2377580000000004,998.3066,5.512467497984626,998.2182474433658,0,0
18.5,7.672898,-5.5761433,2.0436444,998.32184,5.516483316161435,998.220651280168,0,0
18.52,7.672898,-5.5761433,2.0436444,998.28326,5.52033912562539,998.2230007017578,0,0
18.54,8.595348,-5.304448000000002,2.3797824,998.3183,5.525440928366446,998.2254197281484,0,0
18.56,8.485378,-5.213883,2.41292,998.32355,5.531356032908744,998.2279104488457,0,0
18.58,7.9356675,-5.461743,2.228275,998.3138,5.537221362115084,998.2304204520378,0,0
18.6,7.84002,-5.40931,2.0057535,998.3358,5.54270158525958,998.2330176572312,0,0
18.62,7.84002,-5.40931,2.0057535,998.34814,5.547821799884505,998.2357269881737,0,0
18.64,8.083738,-5.499873,2.6922376,998.32294,5.553451913400679,998.2384349198372,0,0
18.66,7.796916,-5.4808059999999985,2.3182163,998.3324,5.558820689634688,998.2411659225439,0,0
18.68,8.011973,-5.2424774,2.6022778,998.3556,5.564175385166297,998.2439909992144,0,0
18.7,8.011973,-5.2424774,2.6022778,998.3573,5.569498362085347,998.2468951493628,0,0
18.72,7.6773353,-5.428372,2.2992706000000003,998.34564,5.574270295157971,998.2498167378966,0,0
18.74,7.844594,-5.666699,2.393956,998.3778,5.579139495840042,998.2528589932684,0,0
18.76,7.854137,-5.6095,2.308735,998.36536,5.58398350262717,998.2559521337396,0,0
18.78,7.7776084,-5.781094,2.1998389,998.3868,5.588815783944587,998.2591562849781,0,0
18.8,7.820609599999999,-5.685763,2.218775,998.395,5.593584853949026,998.2624765103867,0,0
18.82,8.236402,-5.1995726,2.2093015,998.3924,5.598421019824444,998.26587798612,0,0
18.84,8.202925,-5.2377048,2.1240807,998.3868,5.6032447135734955,998.2693188493283,0,0
18.86,8.2984705,-5.261536,2.4081402,998.39996,5.608362403603729,998.2728295042014,0,0
18.88,8.059445,-5.495097,2.1288073,998.4034,5.61344588454616,998.2764015726323,0,0
18.9,7.9972568,-5.4140644,2.332382,998.4073,5.618379170258682,998.2800290866361,0,0
18.92,7.99246,-5.3711642999999984,2.1761448,998.419,5.62303147006977,998.283734653298,0,0
18.94,8.035426,-5.3997626,2.3560479,998.40643,5.6276086105152725,998.2874505952485,0,0
18.96,8.078411000000001,-5.3854623,2.2092779,998.4114,5.632089128577207,998.2911802194133,0,0
18.98,7.9732385,-5.47126,2.005697,998.4412,5.636298912355818,998.2950157865354,1,3
19.0,7.877608,-5.5808897,2.0719755,998.42645,5.640250750520026,998.2988780568128,1,3
19.02,7.6433463,-5.6762195,2.0719707,998.4215,5.643688907776145,998.3027321978253,1,3
19.04,7.6433463,-5.6762195,2.0719707,998.4356,5.6466607992157565,998.306616040912,1,3
19.06,8.197752000000001,-5.4569564,2.3039522,998.4384,5.649979999876718,998.3105222269161,1,3
19.08,8.126038000000001,-5.442657,2.1477150000000003,998.45526,5.65338532768668,998.3144947888522,1,3
19.1,7.896572999999999,-5.4045234,2.147712,998.458,5.65642557143172,998.3185215633392,1,3
19.12,7.800942999999998,-5.5046206,2.043552,998.45996,5.659042462543969,998.322588799648,1,3
19.14,8.073339,-5.533219,2.3323457000000003,998.4906,5.661894771140168,998.3267874499717,1,3
19.16,8.154580000000001,-5.5665836,2.3323443,998.4452,5.665118526563332,998.3309236625777,1,3
19.18,7.800839999999999,-5.7334123,2.0530112000000003,998.46783,5.6681420218574035,998.335071282851,1,3
19.2,8.073255,-5.4092855,2.2565875,998.4722,5.671143979670668,998.3392297835063,1,3
19.22,7.91229,-5.3902574,2.0200093,998.47034,5.673717433047695,998.3433762314647,1,3
19.24,7.9218535,-5.523721,2.3372145,998.4928,5.676218141415492,998.3475779584476,1,3
19.26,7.969655,-5.6190524,2.3324807,998.5001,5.678832958432535,998.3518396837593,1,3
19.28,7.9553175,-5.56662,2.2472613,998.48505,5.681413904705111,998.3560849013827,1,3
19.3,7.9792185,-5.5952199999999985,2.2188551,998.50964,5.684015317814549,998.3603887740303,1,3
19.32,8.036581,-5.3378260000000015,2.280403,998.4943,5.686456480305487,998.3646737563147,1,3
19.34,7.950550999999999,-5.4665230000000005,2.1620433,998.5121,5.688693652138093,998.3689907011391,1,3
19.36,7.8023805999999984,-5.5952199999999985,2.5029206000000004,998.5191,5.690813835722389,998.3733455470613,1,3
19.38,7.883641000000001,-5.619053,2.138372,998.5441,5.692807293290574,998.377808204949,1,3
19.4,7.807166,-5.6238199999999985,2.0342152,998.54095,5.694515212955843,998.3823387199208,1,3
19.42,8.046161999999999,-5.4569902,2.469781,998.5584,5.696372944158308,998.386975703558,1,3
19.44,7.9362283,-5.480823,2.2756705000000004,998.55756,5.69810438212376,998.3916870457672,1,3
19.46,8.041388000000001,-5.418857599999999,2.2851396,998.5388,5.699827604955286,998.3963795943782,1,3
19.48,7.926676,-5.5094223,2.2093897,998.5484,5.701413646004997,998.4010732037912,1,3
19.5,7.9983788,-5.5141892,2.4224384,998.5484,5.7031004068758016,998.405750853535,1,3
19.52,7.8454285000000015,-5.6381197,2.1667807,998.5628,5.704638958573308,998.4104494017756,1,3
19.54,7.945808,-5.4569907,2.4319077,998.5551,5.706124257811843,998.415121781155,1,3
19.56,7.945808,-5.4569907,2.4319077,998.5674,5.707557156100375,998.4197984971623,1,3
19.58,7.878894,-5.5046563,2.1478438,998.58246,5.708745623033301,998.4245164248364,1,3
19.6,8.103551,-5.3902593,2.3372204,998.5702,5.710048098203857,998.4292096466,1,3
19.62,7.8024273,-5.6285872,2.199923,998.57935,5.711155267241384,998.4338970826224,1,3
19.64,7.931484700000001,-5.552322,2.5550036,998.5698,5.712385510310973,998.4385281515944,1,3
19.66,8.065324,-5.3997927,2.1857204,998.596,5.713586780785133,998.4431870627924,1,3
19.68,8.04143,-5.3235283,2.266206,998.5741,5.714669741636965,998.447774963301,1,3
19.7,8.017532000000001,-5.4808245000000015,2.2662063,998.592,5.715781827767856,998.4523480423223,1,3
19.72,8.0227,-5.471300599999998,2.526634,998.637,5.717043092350293,998.4570535619932,1,3
19.74,7.9271145,-5.604764,2.4745564,998.6264,5.7183998338405075,998.4618210063513,1,3
19.76,7.8506565,-5.4570017,2.26151,998.6239,5.719432811873301,998.4666170045633,1,3
19.78,7.9797205999999985,-5.333071,2.3277924,998.59863,5.7202825608628975,998.4713299953668,1,3
19.8,8.080116,-5.366438,2.313591,998.59564,5.721166674859862,998.4759419100577,1,3
19.82,7.755108,-5.547568,2.223639,998.6106,5.7217016876588485,998.4805017670019,1,3
19.84,8.018025,-5.471303,2.285189,998.62787,5.72230325214651,998.485061382237,1,3
19.86,7.9845757,-5.4665365,2.1668296,998.64496,5.722845000204153,998.4896658932823,1,3
19.88,8.061072,-5.4903703,2.3940828,998.61554,5.7235948954428455,998.4941875860266,1,3
19.9,8.051541,-5.3902730000000005,2.2615220000000003,998.64935,5.7243326564381425,998.4987415384256,1,3
19.92,8.142367,-5.304475,2.2899294,998.6479,5.725128206795044,998.5033023812268,1,3
19.94,7.8125887,-5.5761695,2.4461675,998.64905,5.725808365530916,998.5078570333536,1,3
19.96,7.865175999999999,-5.6286025,2.5929348,998.67426,5.72660862358198,998.5124805746527,1,3
19.98,7.817387599999999,-5.7048674,2.4177625,998.6616,5.727432798276111,998.517102765676,1,3
20.0,8.008608,-5.4665403,2.2567954,998.65857,5.728234608976148,998.5216962157076,1,3
20.02,8.051646,-5.275878400000002,2.242594,998.6631,5.728864917634624,998.5262640417792,1,3
20.04,7.932179,-5.514207,2.4177697,998.69366,5.729496280544352,998.5309027983457,1,3
20.06,7.7840242,-5.6619706,2.4272401,998.6831,5.730060336243714,998.5355495135736,1,3
20.08,7.7171164,-5.661971,2.3420217,998.69995,5.730411203805858,998.5402471929,1,3
20.1,8.061291,-5.4284105,2.266274,998.69507,5.730833504562657,998.5449554244583,1,3
20.12,8.003952,-5.4331775,2.2520723,998.7273,5.731219956062777,998.5497720583355,1,3
20.14,7.894025999999998,-5.5475745000000005,2.3609645,998.7343,5.731574479073799,998.5546923366193,1,3
20.16,7.8175683,-5.542808999999999,2.2426060000000003,998.7343,5.731710430638347,998.5596864820986,1,3
20.18,7.822376299999998,-5.6000085,2.4367192,998.7516,5.731823202645113,998.5647901977092,1,3
20.2,7.822386,-5.6000085,2.3230946,998.73175,5.731858390281586,998.5699008961107,1,3
20.22,7.8654227,-5.5666428,2.1952674,998.7489,5.731796000414168,998.5750611059923,1,3
20.24,8.007762,-5.504652,2.3514060000000003,998.7663,5.731886293607893,998.580309127462,1,3
20.26,7.873916,-5.604749,2.2945921,998.7663,5.7319779390946195,998.5856158463736,1,3
20.28,7.830886,-5.6238155,2.26145,998.7705,5.732006252200832,998.5909704461573,1,3
20.3,7.916888,-5.4093194,2.261447,998.7666,5.731871999299461,998.5963340369198,1,3
20.32,7.7925906,-5.5999813,2.3608673,998.7783,5.731658409260078,998.6017283831843,1,3
20.34,7.768680000000002,-5.6619462999999985,2.3324602000000003,998.7909,5.7313957134607785,998.6071758453647,1,3
20.36,7.959838,-5.509415,2.379801,998.7981,5.7312502443971525,998.612676549904,1,3
20.38,7.9454875,-5.4998817,2.2614398,998.813,5.731116670951043,998.6182581368547,1,3
20.4,7.945464599999998,-5.5141807,2.3182507,998.7926,5.731037740883623,998.6238176577922,1,3
20.42,7.8928523,-5.5141800000000005,2.2756379,998.8,5.730899566857546,998.6293643069242,1,3
20.44,7.897608999999999,-5.557078400000001,2.3797925,998.7951,5.730817967475292,998.6348619745925,1,3
20.46,7.878467,-5.528478,2.3371809,998.79724,5.730700787009817,998.6403042746356,1,3
20.48,7.974028999999999,-5.4093137,2.3939908,998.7962,5.730602921380288,998.6456743155651,1,3
20.5,7.983577,-5.4331464999999985,2.3466454,998.81964,5.730541967865295,998.6510455601939,1,3
20.52,7.7971416,-5.6619410000000014,2.2992995,998.8193,5.730448539786839,998.6563973079318,1,3
20.54,7.926185,-5.580908999999999,2.4129238,998.83136,5.730499474613267,998.6617559779244,1,3
20.56,7.8831324999999985,-5.504643,2.204607,998.8491,5.730417324079981,998.667165337209,1,3
20.58,7.8926690000000015,-5.3711786,2.2945588,998.85864,5.730123220788431,998.672634355859,1,3
20.6,7.950015,-5.418844,2.3845112,998.82007,5.729837111548657,998.6779975490573,1,3
20.62,7.797027000000001,-5.6667047,2.4413211,998.81244,5.7296232353389565,998.6832204593902,1,3
20.64,7.9165106,-5.6285715,2.5123363,998.8484,5.729661089439363,998.6884300693068,1,3
20.66,7.964275,-5.4522085,2.2377374,998.84283,5.729660651346947,998.6935891203797,1,3
20.68,8.016841000000001,-5.352110400000001,2.3608308,998.84515,5.72966040183529,998.6986932770743,1,3
20.7,7.97858,-5.3759427,2.304016,998.84937,5.729595149715228,998.7037457461321,1,3
20.72,7.8781924,-5.4712734,2.2992806,998.8576,5.729411724489562,998.7087639831053,1,3
20.74,7.8173210000000015,-5.6190677,2.2567866000000003,998.87537,5.729176112280793,998.713797878956,1,3
20.76,7.817335000000001,-5.6572003,2.2993977,998.873,5.7289607497279675,998.7188189569652,1,3
20.78,8.046793,-5.390274,2.5266516,998.8896,5.728950531962277,998.7238703932492,1,3
20.8,7.9703300000000015,-5.375975,2.2851985,998.8918,5.728856157126361,998.7289383889337,1,3
20.82,7.951252999999999,-5.4284077,2.4840470000000003,998.8846,5.7288147379478005,998.7339768517206,1,3
20.84,7.936928,-5.437940599999999,2.479314,998.8819,5.728804836800146,998.7389613607727,1,3
20.86,7.865272,-5.6047715999999985,2.4745834,998.896,5.7288945039300625,998.7439310120727,1,3
20.88,7.9369974,-5.6381383000000005,2.3420227,998.9041,5.729162322238437,998.7488988043178,1,3
20.9,7.956144,-5.3187795,2.2852125,998.901,5.7292245846695335,998.75383590985,1,3
20.92,8.046974,-5.2377486,2.3704329,998.9058,5.729209808377551,998.7587454070227,1,3
20.94,7.7219896,-5.7001057,2.209467,998.93353,5.72904228198291,998.7637126632593,1,3
20.96,8.013586,-5.7573050000000014,2.6403005,998.9153,5.729500071584197,998.768647445282,1,3
20.98,7.913237599999999,-5.57141,2.2378783,998.9385,5.7299240983301525,998.7736192878745,1,3
21.0,7.922825299999999,-5.247285,2.1715994,998.9331,5.7299316126693896,998.7785865385528,1,3
21.02,8.090146,-5.2377524000000015,2.3609781,998.9324,5.72993431277875,998.7835293297135,1,3
21.04,7.7938266,-5.666743,2.3609805,998.95764,5.729929733625973,998.7885235783957,1,3
21.06,7.7938266,-5.666743,2.3609805,998.94464,5.72991873900212,998.7934985156494,1,3
21.08,7.84646,-5.580946,2.1195312000000004,998.9466,5.729773540555563,998.7984455355504,1,3
21.1,7.9898677,-5.371218,2.2236893,998.962,5.729555184238842,998.8034055184066,1,3
21.12,8.114171,-5.242522,2.3278487,998.95496,5.729389378562562,998.8083337553923,1,3
21.14,7.746154,-5.4808507,2.2473664,998.9599,5.728885346062869,998.8132339840737,1,3
21.16,7.880016,-5.685813,2.6166525000000003,998.9673,5.7287321704262935,998.8181184637937,1,3
21.18,7.6984119999999985,-5.800211,2.3089187,998.9638,5.728574187495261,998.8229588436046,1,3
21.2,8.200333,-5.2806573,2.3183916,998.9613,5.728648828404642,998.8277338313685,1,3
21.22,8.152549,-5.2377585999999985,2.1858294,998.9761,5.728738204574149,998.832487128764,1,3
21.24,7.9507694,-5.333064599999998,2.4413931,998.99084,5.7287291574191554,998.837257212679,1,3
21.26,7.721325,-5.6571903,2.4177197999999995,998.99817,5.7286175311091805,998.8420513448607,1,3
21.28,7.9077163,-5.647657,2.498203,999.01465,5.728749895886599,998.8469087952147,1,3
21.3,7.88381,-5.6381235,2.3987796,998.9996,5.728996455090072,998.8517505266847,1,3
21.32,8.089328,-5.390262,2.2946215,998.9747,5.7293493143495215,998.8564712987156,1,3
21.34,8.098873,-5.294931,2.3088233,998.9996,5.729711555026588,998.8611578362069,1,3
21.36,7.749934,-5.561857,2.3230255,998.9747,5.7298108989266,998.8657076125237,1,3
21.38,7.769039,-5.6428885000000015,2.417712,999.0389,5.729851848587916,998.870351287472,1,3
21.4,7.7307796,-5.690553,2.450851,999.03973,5.729852440993272,998.8750642020217,1,3
21.42,7.9554234,-5.5618563,2.488726,999.02167,5.730053371706594,998.8797563141902,1,3
21.44,7.988861,-5.4903574,2.4461143,999.0434,5.7303820724270444,998.8844913817712,1,3
21.46,8.127467999999999,-5.4379253,2.531333,999.061,5.731038104659913,998.8893107185116,1,3
21.48,7.902797,-5.4140916,2.2567356,999.05096,5.731441667532621,998.8941510218688,1,3
21.5,7.8980103,-5.4808235,2.3324852000000003,999.05566,5.7317259176658775,998.8990093462364,1,3
21.52,7.960127000000001,-5.5380216,2.5360627,999.07043,5.732175737255528,998.9039192760013,1,3
21.54,8.0318165,-5.547555,2.498187,999.06476,5.732880000320057,998.9088367165477,1,3
21.56,7.826271,-5.6762514,2.3656223,999.07043,5.733551290954683,998.9137635028352,1,3
21.58,7.9075212,-5.5713873,2.4887161,999.0754,5.73426361943119,998.9186987025884,1,3
21.6,8.108259,-5.5761533,2.3135417,999.07245,5.735260634399447,998.923612949761,1,3
21.62,7.706734,-5.5809190000000015,2.337212,999.08435,5.735859648404107,998.9285338319437,1,3
21.64,7.740186,-5.5189543,2.275664,999.0721,5.736056517479687,998.9333987616452,1,3
21.66,7.802303,-5.366423,2.2993342999999995,999.0721,5.735834879482372,998.9381967379877,1,3
21.68,7.893105,-5.690549400000001,2.6780853,999.1191,5.73596659749188,998.943087481627,1,3
21.7,7.792722,-5.7906466,2.6023343,999.11176,5.736324905629065,998.9480161637728,1,3
21.72,7.964780999999999,-5.518953,2.4176912,999.1062,5.736748497426617,998.9529406091274,1,3
21.74,7.9840136,-5.261561,2.1904502,999.1477,5.736859180997927,998.9579929828498,1,3
21.76,7.706776,-5.5713873,2.2946062,999.12854,5.736637115397575,998.9630712295326,1,3
21.78,7.754561,-5.318759,2.4129648,999.16785,5.735966655397398,998.9682955718753,1,3
21.8,7.8883867,-5.4665227,2.4034956000000003,999.1505,5.735288532000826,998.9735677367104,1,3
21.82,7.950515299999998,-5.361658,2.569199,999.15216,5.734676601291673,998.9788691537068,1,3
21.84,8.108244000000001,-5.5141873,2.834325,999.1669,5.734705958602119,998.9842303968112,1,3
21.86,8.170373,-5.2234273,2.5834007000000003,999.16785,5.734945547697232,998.9896286217895,1,3
21.88,7.9361534,-5.218660400000001,2.2046478,999.1937,5.734778029227277,998.9951331503424,1,3
21.9,7.7784065999999985,-5.361657,2.6118052000000005,999.1863,5.7343571727860345,999.0006851524304,1,3
21.92,8.050847000000001,-5.3092246,2.3656154,999.2066,5.733980237415433,999.0063321949262,1,3
21.94,8.256374000000001,-5.2234263,2.6638825,999.2035,5.734052605309872,999.0120317257742,1,3
21.96,7.835742,-5.4236217,2.8532577,999.1762,5.7341497482550645,999.0176588370184,1,3
21.98,7.7019033,-5.490353,2.6875532000000004,999.1912,5.7340299763259175,999.0232557007007,1,3
22.0,7.993453,-5.1900597,2.7585676,999.21826,5.733903669087379,999.0289031049276,1,3
22.02,8.079485,-5.2663245000000005,2.872193,999.1948,5.7340653337762895,999.0344903801252,1,3
22.04,7.854825999999999,-5.385488,2.6686127,999.20557,5.734122697780014,999.040043183121,1,3
22.06,7.9743122999999985,-5.480819,2.5786583,999.2158,5.734344076304041,999.045582364389,1,3
22.08,7.6110380000000015,-5.557084,2.829581,999.2253,5.734347048598613,999.0511237684456,1,3
22.1,7.840456,-5.5904493,2.7159538,999.2453,5.734501261632607,999.0567191875034,1,3
22.12,7.51542,-5.8144774,2.4176857000000003,999.2398,5.734372297180219,999.062322390708,1,3
22.14,7.6444706999999985,-5.609515,2.625999,999.2513,5.7340640047419456,999.067953700453,1,3
22.16,7.8499884999999985,-5.3664207,2.9716096000000003,999.2395,5.733855618669328,999.073547092422,1,3
22.18,7.692246000000001,-5.5046506,2.881655,999.2365,5.733581768810856,999.0790760440332,1,3
22.2,7.7830577,-5.4665184,2.9432018,999.2464,5.733391986240102,999.0845637919183,1,3
22.22,7.9551215,-5.4617510000000005,3.0331545,999.25616,5.733607868306964,999.0900305122988,1,3
22.24,7.908317599999998,-5.318779,2.9716982999999995,999.2484,5.733907075695315,999.0954310365823,1,3
22.26,7.946571,-5.2949467000000014,2.81073,999.2659,5.734218655367499,999.1008166281081,1,3
22.28,7.7458496,-5.504676,2.9859056,999.2758,5.734553678183763,999.1062052769187,1,3
22.3,7.779339,-5.414112,3.0663934,999.29755,5.734910109764872,999.1116555280107,1,3
22.32,7.8415217,-5.4570120000000015,2.8344114,999.27545,5.735291355164343,999.1170610299749,1,3
22.34,7.874995699999999,-5.647675,2.8533509,999.26764,5.735978095796185,999.1223794158028,1,3
22.36,7.492642,-5.504679,2.3373034,999.29755,5.735860889477025,999.1277093556233,1,3
22.38,7.961108,-5.318784,3.5351121,999.2799,5.736321333954995,999.1329667767682,1,3
22.4,7.578753999999999,-5.54758,2.914908,999.2901,5.736517252925362,999.1381779136957,1,3
22.42,7.597904,-5.518981,3.4498982,999.3143,5.736832771373018,999.1434165137953,1,3
22.44,7.631392999999999,-5.6715117,3.0048668,999.304,5.737184611720845,999.1486234413936,1,3
22.46,7.5406075,-5.671512,2.6971333,999.31396,5.7372382452140425,999.1538194942308,1,3
22.48,7.846545,-5.4856176,2.8770437,999.3065,5.7374097070959085,999.1589603763382,1,3
22.5,7.492855,-5.7668447,2.7302785,999.3237,5.737361569293264,999.1640959224136,0,0
22.52,7.49768,-5.709647,2.957534,999.3385,5.737194244636776,999.1692615456053,0,0
22.54,7.387760000000001,-5.7048809999999985,2.867582,999.3139,5.7366878668988575,999.174346588693,0,0
22.56,7.502505999999999,-5.647683,2.9149287,999.3106,5.736025105164164,999.1793302450459,0,0
22.58,7.5885878,-5.585719,3.293685,999.35315,5.735536471022861,999.1843595549176,0,0
22.6,7.3926463,-5.6905837,2.7871065,999.3354,5.734693983867928,999.1893471987224,0,0
22.62,7.3114050000000015,-5.814514599999999,2.8723273,999.32043,5.733617883827852,999.1942261788727,0,0
22.64,7.3974867,-5.685818,3.975448000000001,999.33044,5.733105292999407,999.1990276154896,0,0
22.66,7.3831625,-5.771617,3.9044333,999.3556,5.7331141489269815,999.2038338254688,0,0
22.68,7.316275599999999,-5.728719,3.4404645,999.3327,5.7330776691084155,999.2085445108344,0,0
22.7,7.2972025999999985,-5.824051,3.1516697,999.3374,5.73288755690773,999.2131707521846,0,0
22.72,7.2972025999999985,-5.824051,3.1516697,999.38934,5.732562379538125,999.2178927083336,0,0
22.74,7.287495,-5.967044400000002,3.217938,999.3673,5.732325389089817,999.222602895037,0,0
22.76,7.292298,-5.8860135,3.123252,999.369,5.7320109222439015,999.2272918455859,0,0
22.78,7.426166499999999,-5.743017,3.1327238,999.3715,5.731667670157214,999.2319541516471,0,0
22.8,7.426166499999999,-5.743017,3.1327238,999.3841,5.731300219139298,999.2366214903363,0,0
22.82,7.359272,-5.7001195,3.284227,999.4017,5.730859320817758,999.2413398334372,0,0
22.84,7.2254714999999985,-5.995646,3.4925437000000006,999.4013,5.7306599190655705,999.2460848180008,0,0
22.86,7.354549,-5.752553,3.364717,999.37604,5.730481757985786,999.2507453250163,0,0
22.88,7.215958,-5.88125,3.2037492000000003,999.39636,5.730156957496293,999.2553875618449,0,0
22.9,7.168182400000001,-5.8812504,3.303174,999.4136,5.7296995057806335,999.2600590070844,0,0
22.92,7.316378999999999,-5.8240523,3.2037535,999.3981,5.72921394870373,999.2646836436721,0,0
22.94,7.297283,-5.876485,3.1658804,999.4108,5.728715100719316,999.269295991444,0,0
22.96,7.402473,-5.814521,3.4452136,999.41705,5.728484833817847,999.273903376366,0,0
22.98,7.402473,-5.814521,3.4452136,999.3999,5.728492714122112,999.2784280495282,0,0
23.0,7.249553,-5.852654,3.227434,999.4451,5.728371393362581,999.283026069756,0,0
23.02,7.3212733,-5.8335886,3.473625,999.4374,5.728395244921813,999.2876446265781,0,0
23.04,7.3451952999999985,-5.909854,3.213235,999.45013,5.728495729992052,999.2923105307304,0,0
23.06,7.3452066999999985,-5.947987,3.3126583,999.4495,5.7287781450680075,999.2969992057288,0,0
23.08,7.3165502999999985,-5.9956527,3.5115053999999994,999.4497,5.7293759968402895,999.3016918418167,0,0
23.1,7.388282000000001,-5.9241557,3.3221326,999.45215,5.730137690911797,999.3063799044336,0,0
23.12,7.359626299999999,-6.0433197,3.0664766,999.462,5.73097609434509,999.3110825089057,0,0
23.14,7.397887,-5.986121,3.3458085,999.4613,5.732051781647173,999.3157785131853,0,0
23.16,7.397887,-5.986121,3.3458085,999.4716,5.73333326050143,999.3204888599192,0,0
23.18,7.493529,-6.0480876,3.3742193999999994,999.4809,5.735033792077018,999.3252284023977,0,0
23.2,7.799459,-5.9813566,3.4026277,999.4809,5.7375088583922755,999.3299766798829,0,0
23.22,7.713433999999999,-5.99089,3.3742223,999.4864,5.7405177650381205,999.3347353818212,0,0
23.24,7.501895399999999,-6.057592,3.232078,999.4913,5.743647526152512,999.3395038034796,0,0
23.26,7.650056,-6.0337586,3.3599057,999.5076,5.747156967845008,999.3443223271643,0,0
23.28,7.5018425,-6.038524,3.255745,999.5101,5.750697138940019,999.349176774314,0,0
23.3,7.6212974,-6.1052550000000005,3.5066648,999.4834,5.754688197894306,999.3539493674283,0,0
23.32,7.6212974,-6.1052550000000005,3.5066648,999.5126,5.759063293548811,999.3587375729812,0,0
23.34,7.70728,-6.162452,3.3078153,999.5096,5.7638284387705525,999.363511536145,0,0
23.36,7.6690288,-6.1243196,3.284142,999.5179,5.768799641495433,999.3682856084663,0,0
23.38,7.5590672,-6.21965,3.0994973,999.5437,5.7737660133090225,999.3731354705792,0,0
23.4,7.7980304,-6.086186,3.4687786,999.5186,5.7791562641119585,999.3779444810478,0,0
23.42,7.788458,-6.0528197,3.3977612999999995,999.51624,5.784798112513317,999.3826915865664,0,0
23.44,7.8027573000000015,-6.167216000000002,3.4545705,999.54694,5.790841281842972,999.3874774232905,0,0
23.46,7.8027305999999985,-6.138616000000002,3.430896,999.5462,5.79716637353892,999.3922775898964,0,0
23.48,7.8027305999999985,-6.138616000000002,3.430896,999.54694,5.803717801507621,999.3970758017857,0,0
23.5,7.8457089999999985,-6.2434797,3.520846,999.5388,5.8107010067866565,999.4018257089247,0,0
23.52,7.764412400000001,-6.219645,3.3598728,999.5481,5.817777557356499,999.4065493143204,0,0
23.54,7.802624000000002,-6.2005787,3.345667,999.5383,5.8249371038138245,999.4111973945166,0,0
23.56,7.7452397,-6.224411,3.288852,999.54315,5.832047812098649,999.4157794675576,0,0
23.58,7.7834644,-6.1386123,3.3788042000000003,999.57764,5.839102932280121,999.4204108852136,0,0
23.6,7.7499660000000015,-6.1481447,3.232034,999.55225,5.845946814033965,999.4249778266676,0,0
23.62,7.7164807,-6.205343,3.3835325,999.54694,5.852698007934164,999.4294522399604,0,0
23.64,7.7499266,-6.195809400000001,3.4308753,999.55304,5.85941455262858,999.433850747482,0,0
23.66,7.783358,-6.1910424000000015,3.2556999,999.5759,5.866005800466353,999.438248646037,0,0
23.68,7.692502,-6.3674035,3.2935715,999.582,5.872567302585138,999.4426521340744,0,0
23.7,7.764172599999998,-6.262539,3.3314445,999.5948,5.879082286297893,999.4470907884216,0,0
23.72,7.764172599999998,-6.262539,3.3314445,999.54944,5.885532712405713,999.4513812405647,0,0
23.74,7.7314086,-6.295922,3.3031017999999994,999.5743,5.89187553384224,999.4556147916122,0,0
23.76,7.702733,-6.286388400000001,3.4119933,999.5669,5.898117124546057,999.4597561840679,0,0
23.78,7.693174000000001,-6.248256,3.3078363,999.57214,5.904115399685768,999.4638201001793,0,0
23.8,7.6358204,-6.605747999999998,3.2699616,999.6628,5.910219223430055,999.4681273040944,0,0
23.82,6.990548599999999,-6.5294833,3.0237725,999.66394,5.915187317844532,999.4726380751792,0,0
23.84,8.304998,-6.0337615,3.6960583,999.60315,5.920959605505938,999.4770936354392,0,0
23.86,8.252421,-5.9479637,3.4546037000000003,999.5224,5.9270737370489055,999.4811936713973,0,0
23.88,7.1052723,-6.372187,2.9054132000000004,999.5415,5.931874539838925,999.4850335659528,0,0
23.9,7.1769705,-6.457985400000001,2.8296627999999995,999.5639,5.935672944399967,999.4887104159444,0,0
23.92,7.817467,-5.9622636,3.0711176,999.54663,5.939069256948677,999.4921677910997,0,0
23.94,7.5545807,-6.305455,3.6392467000000006,999.6059,5.942496059473911,999.4956321637393,0,0
23.96,7.277353999999999,-6.238724,3.4025264,999.601,5.945271993872223,999.4990726076137,0,0
23.98,7.286915,-6.300689,3.4735427000000003,999.6151,5.9476058502364495,999.5025302824338,0,0
24.0,7.1626425000000005,-6.167225,3.052181,999.57605,5.948900911730927,999.505850154888,0,0
24.02,7.3920759999999985,-6.067128,3.3409800000000005,999.60565,5.949683797133874,999.5091428736309,0,0
24.04,7.263025,-6.0480614,3.189479,999.5955,5.949689625606467,999.5123632055673,0,0
24.06,7.349065299999999,-6.248257,3.5824354,999.5959,5.949663177560304,999.5155094233263,0,0
24.08,7.320388,-6.238724,3.6203105,999.57245,5.949581331317551,999.518494407414,0,0
24.1,7.3347305999999985,-5.9908633,3.3693873999999995,999.6008,5.9489830830776915,999.5214282394872,0,0
24.12,7.095743700000001,-6.0385284000000015,3.3409812000000003,999.6344,5.947611279771341,999.524427271845,0,0
24.14,7.019267599999999,-6.1195602,3.303106,999.5745,5.9455245515114346,999.5272574786577,0,0
24.16,7.196122999999999,-6.005163,3.4877481,999.61554,5.943062536677606,999.530076066474,0,0
24.18,7.0670720000000005,-6.2005919999999985,3.5019515,999.6176,5.9403445928879215,999.5328816568294,0,0
24.2,7.253487,-6.0623616999999985,3.492483,999.59717,5.937504162091843,999.5355921145027,0,0
24.22,7.0670757,-6.0575953,3.2652318,999.5824,5.93412141446476,999.5381555832907,0,0
24.24,7.220679799999999,-5.9908795,3.4641366,999.5966,5.9305572148207695,999.540631064212,0,0
24.26,7.196809,-6.062378400000001,3.4688730000000003,999.62286,5.926902635555557,999.5431144233228,0,0
24.28,7.091667,-6.009947,3.1990137,999.6151,5.922769561809813,999.545567867509,0,0
24.3,7.206410400000001,-6.0051809999999985,3.5209556000000006,999.58624,5.918620881711947,999.547882150469,0,0
24.32,7.0487046000000015,-6.129112,3.4452076000000003,999.61194,5.9143409974223164,999.5501576591507,0,0
24.34,7.1682415,-6.0766807,3.473618,999.60986,5.910091286915174,999.5523832270493,0,0
24.36,6.986636999999999,-6.1148143,3.2369003,999.60693,5.905496753361093,999.5545461072268,0,0
24.38,6.8958344,-6.143414,3.1658854,999.60254,5.900469327242052,999.5566300061656,0,0
24.4,7.168311599999999,-6.0337834,3.4641557,999.598,5.895548345612387,999.5586202712456,0,0
24.42,7.273495,-6.005185,3.4499547,999.5718,5.89085082914918,999.560426316494,0,0
24.44,7.111009599999999,-6.0242515,3.4357543,999.60504,5.886138182319808,999.562182747336,0,0
24.46,7.2305326,-5.9813538,3.4783664,999.577,5.881584829146077,999.5637880717377,0,0
24.48,7.168423,-6.0623856,3.3316023,999.6001,5.87709308957494,999.5653372593207,0,0
24.5,7.225808,-5.9813550000000015,3.4878402000000004,999.5931,5.872767254628107,999.5668060673356,0,0
24.52,7.092002000000001,-5.94799,3.1753721,999.5755,5.868141982821362,999.5681352042551,0,0
24.54,7.3310204,-5.7954607000000005,3.473642,999.6179,5.863651673963151,999.5694887829017,0,0
24.56,7.173314,-5.881259,3.4452384,999.6015,5.859141712223579,999.5708000453753,0,0
24.58,7.254599000000002,-5.886027,3.7719147,999.6008,5.85500390587191,999.572066676734,0,0
24.6,7.216388,-5.914626599999999,3.5730722000000004,999.6034,5.851036235811963,999.573298672166,0,0
24.62,7.168618,-5.843129,3.1990569,999.6008,5.8468064284424495,999.5744862681099,0,0
24.64,7.0300455,-6.114824,3.3221552000000005,999.5959,5.842580357941178,999.5756127173211,0,0
24.66,7.197367,-6.0528593,3.5210028,999.6131,5.838684289406881,999.5767430020613,0,0
24.68,7.2451789999999985,-5.986127400000001,3.2984872000000003,999.58856,5.834924427484988,999.5777842628503,0,0
24.7,7.187849000000001,-5.957528599999999,3.057035,999.57635,5.831014419425635,999.5786991575377,0,0
24.72,7.068368,-5.9813623,3.0096922000000004,999.60284,5.8268045352783275,999.579594465516,0,0
24.74,7.215616000000002,-6.0671377,3.5824704,999.60284,5.8230696850514505,999.5804692435698,0,0
24.76,7.220391,-6.043305,3.3552186,999.6062,5.819582094571188,999.5813348281813,0,0
24.78,7.076987,-6.0385375,3.137435,999.5983,5.81595608794729,999.5821607333626,0,0
24.8,7.2060309999999985,-5.843108999999999,3.2842007000000004,999.5668,5.812269844043044,999.5828352045405,0,0
24.82,7.2203603,-6.0147047,3.2794652,999.61847,5.808775738420628,999.5835594525372,0,0
24.84,7.234689,-6.0004050000000015,3.440434,999.5903,5.805580286897303,999.5842236640378,0,0
24.86,7.234678999999999,-5.9241395,3.2179165000000003,999.596,5.802410458140769,999.5848529561293,0,0
24.88,7.244223599999999,-5.900306,3.2699933,999.63293,5.799295084383418,999.5855820759793,0,0
24.9,7.182076,-5.9670377,3.4120247000000004,999.6013,5.796327505008844,999.5862829108047,0,0
24.92,7.1725059999999985,-5.938438,3.3552108,999.5731,5.793410856533173,999.5868547099782,0,0
24.94,7.248978,-5.8240404,3.3552102999999995,999.59674,5.790524205676126,999.5873955387717,0,0
24.96,7.1581464000000015,-5.9003053,3.1610982000000005,999.6001,5.787497143217343,999.587919151154,0,0
24.98,7.3397694000000016,-5.862172599999999,3.3694112,999.6136,5.7847294209042985,999.588474266111,0,0
25.0,7.3780025999999985,-5.9384375,3.3173322999999995,999.58356,5.782316546680518,999.5889470743288,0,0
25.02,7.1342173,-5.962269999999998,3.2510493,999.5786,5.779840245074152,999.5893275982028,0,0
25.04,7.0864143,-5.995635,3.1752982000000003,999.5959,5.777235661923549,999.5896874897439,0,0
25.06,7.2058992,-5.9765690000000005,3.1942348,999.61206,5.774695901916129,999.5900860309468,0,0
25.08,7.287145599999999,-5.8669376,3.2368436000000003,999.6238,5.772238642003059,999.590559552242,0,0
25.1,7.181975,-5.9575024,3.2510455,999.598,5.7698254344398086,999.5910047412708,0,0
25.12,7.3062396,-5.8812365999999985,3.175294,999.59674,5.767502984790201,999.5914187572278,0,0
25.14,7.3827114,-5.89077,3.1610904,999.6415,5.765388962686857,999.5919648742014,0,0
25.16,7.186729,-6.0528326,3.1374173,999.61145,5.763354889602683,999.5925175696119,0,0
25.18,7.1484755999999985,-6.0289993,3.118478,999.6065,5.761298369928504,999.5930562680264,0,0
25.2,7.124572,-5.9718003,2.957508,999.5813,5.759016874290321,999.5934899393803,0,0
25.22,7.1628050000000005,-5.9193683,3.0521955000000003,999.5998,5.756597127967692,999.5938958476073,0,0
25.24,7.211936,-5.9623003,3.2843037000000006,999.6013,5.754347472509832,999.5942811630647,0,0
25.26,7.317135,-5.895569999999998,3.2416978,999.5972,5.752304264190884,999.5946321356163,0,0
25.28,7.1594663,-5.9956684000000005,3.1754224,999.57764,5.750291560585862,999.5948810832743,0,0
25.3,7.207286,-5.976603,3.2275026,999.5948,5.748396356773118,999.5951007615253,0,0
25.32,7.23125,-5.8812733,3.0381324,999.5973,5.746403930693875,999.5953027864864,0,0
25.34,7.2025929999999985,-5.952772,3.184901,999.6027,5.744474940892958,999.5955079257104,0,0
25.36,7.216975,-5.94324,3.2559206,999.5855,5.7426669134930775,999.5956531581965,0,0
25.38,7.2457185,-5.9337087,3.3080053,999.5874,5.741039810253517,999.5957517742514,0,0
25.4,7.2123027,-5.981375,3.118633,999.5924,5.73945962404021,999.5958268450104,0,0
25.42,7.2888227,-5.928944,3.2133253,999.5648,5.738040420965412,999.595781480891,0,0
25.44,7.2888227,-5.928944,3.2133253,999.5973,5.736768571722869,999.5957468638237,0,0
25.46,7.293667299999999,-5.9718447,3.1281118,999.5874,5.735635774843626,999.5956862274736,0,0
25.48,7.260252,-5.9527800000000015,3.1612566,999.623,5.734576993399288,999.5957309787757,0,0
25.5,7.317630999999999,-5.924181,3.2322745,999.57764,5.7336869302311495,999.5957053935024,0,0
25.52,7.293775599999999,-5.9718475,3.0429025000000003,999.6152,5.732847649681354,999.5957529669383,0,0
25.54,7.403775,-5.9003506,3.2654252,999.60706,5.732282849127603,999.5958357081453,0,0
25.56,7.336879700000001,-5.9956827000000015,3.2464895,999.6003,5.731965173880846,999.5959248897265,0,0
25.58,7.160069999999998,-5.9813839999999985,3.0618517000000005,999.61273,5.731458416298951,999.5960641889686,0,0
25.6,7.413442599999999,-5.857455,3.2038877,999.5911,5.7311134998605135,999.5961694026988,0,0
25.62,7.2509723,-5.924187,3.1660166000000003,999.6003,5.730720525293196,999.5962772397007,0,0
25.64,7.222337,-5.928955,3.1991613,999.60754,5.7302710439205065,999.5964130704132,0,0
25.66,7.241521,-5.9575559999999985,3.1186821,999.59106,5.729784715589209,999.5965138193767,0,0
25.68,7.150726299999999,-5.981389,3.0950124,999.5973,5.72914424688954,999.5966056714116,0,0
25.7,7.2272672999999985,-5.924192,3.1328933,999.61273,5.728439113841041,999.5967448794521,0,0
25.72,7.182349,-5.952744999999998,3.0380316,999.5882,5.727584952259632,999.5968371221107,0,0
25.74,7.3543863,-5.9146113,3.3789053,999.61084,5.727046029201431,999.5969690380845,0,0
25.76,7.3400292,-5.8860116,3.2605436,999.60046,5.726648798315872,999.5970981665016,0,0
25.78,7.392554,-5.8812437000000015,3.3315547,999.60284,5.7265015898836085,999.5972329349718,0,0
25.8,7.3017020000000015,-5.8812428,3.1043,999.59106,5.726283535494403,999.597329793826,0,0
25.82,7.2538867,-5.962274,3.0048761,999.5886,5.725967470567879,999.5973839510518,0,0
25.84,7.229952000000001,-5.9336734,3.1753113,999.6102,5.725604530123861,999.5974779421528,0,0
25.86,7.3063755000000015,-5.952739,3.1516342,999.5616,5.725326063963013,999.5974318320978,0,0
25.88,7.3015604,-5.967037,3.2699914,999.60535,5.725212998180325,999.5974195946576,0,0
25.9,7.354120299999999,-5.866939,3.2841928,999.59125,5.72521301736636,999.5973865711148,0,0
25.92,7.397121,-5.8335733,3.1563623,999.6136,5.7252524439657275,999.5974157598563,0,0
25.94,7.411425,-5.895538,3.1184838,999.5956,5.725399736374174,999.5974350142926,0,0
25.96,7.444847999999999,-5.8097386,3.3504665,999.56903,5.725745043861072,999.5973497694612,0,0
25.98,7.468711999999999,-5.733473,3.033258,999.6038,5.725997964471499,999.5972976679582,0,0
26.0,7.5355754,-5.857402,3.3267863,999.5906,5.726615897275111,999.5972275194656,0,0
26.02,7.5546593999999985,-5.74777,2.985906,999.59106,5.72722916097891,999.5971433331872,0,0
26.04,7.5307245,-5.7334695,3.2273574000000003,999.60333,5.727937658732379,999.5970912181924,0,0
26.06,7.5211296,-5.8002005,3.085322,999.5988,5.7286995317365275,999.5970513209974,0,0
26.08,7.482856,-5.7287016,3.2226162,999.6161,5.729450334242926,999.5970846430803,0,0
26.1,7.6835537,-5.6190690000000005,3.0285008,999.56903,5.730249742369513,999.5970130897574,0,0
26.12,7.420647,-5.666734,3.0190306,999.60583,5.730722868057648,999.5969816061183,0,0
26.14,7.1290436,-5.7572980000000005,2.9858863,999.5953,5.7305419027233855,999.5969477333928,0,0
26.16,7.463595,-5.5761676,3.1705248,999.59357,5.730206802212372,999.5969056436123,0,0
26.18,7.3727603,-5.4999027,3.0758352,999.60046,5.72944060068774,999.5968812487653,0,0
26.2,7.401368,-5.762061599999999,3.2083921,999.601,5.728742201507277,999.5968745209829,0,0
26.22,7.6212215,-5.595232,3.2841410000000004,999.57184,5.728304435224612,999.5967784520387,0,0
26.24,7.7184854,-5.4999413,3.104386,999.59393,5.728024309269079,999.5966833110924,0,0
26.26,7.379151299999998,-5.7430367,2.540995,999.5906,5.727295642284819,999.5965773446325,0,0
26.28,7.551272,-5.695372,3.052315,999.5988,5.72669050202069,999.5964917142276,0,0
26.3,7.661239,-5.5190105,2.8061287,999.6003,5.726013179214905,999.5964297610304,0,0
26.32,7.852463,-5.480879,3.0712583,999.56604,5.725703158735466,999.596265616046,0,0
26.34,7.513128,-5.6524754,2.9623702,999.574,5.725305428154595,999.59604042132,0,0
26.36,7.513128,-5.6524754,2.9623702,999.54974,5.724831628758191,999.5956747577433,0,0
26.38,7.737826299999999,-5.4904137,3.1990948,999.5783,5.724614451223931,999.5952891082788,0,0
26.4,7.5896845,-5.5380797,3.0475965,999.60834,5.724343568555992,999.5949953316223,0,0
26.42,7.733110000000001,-5.333119,3.2795854,999.59393,5.724176882997343,999.5947319153747,0,0
26.44,7.647089500000001,-5.2997537,3.1422892000000004,999.58624,5.723833784909514,999.5944685898833,0,0
26.46,7.8335648,-5.3426538,3.0949507,999.57916,5.723656092830226,999.5941808045552,0,0
