Timestamp,Ax,Ay,Az,P,Value,Type
0.0,-0.47728097,5.311018,8.165894999999999,1003.8886,0,0
0.04,-2.7763717,1.1545806,9.226401,1003.9135,0,0
0.08,-2.3605335,2.003028,8.696147999999999,1003.9713,0,0
0.12,-0.19528742,3.175601,6.7834473,1003.98865,0,0
0.16,1.9412794999999998,0.9925181000000001,10.267969,1003.9960000000001,0,0
0.2,1.2577631,0.64455944,8.563582,1004.02356,0,0
0.24,2.3427734,1.6884357,8.715083,1004.00854,0,0
0.28,2.3810065,0.13453825,8.5730505,1004.0233,0,0
0.32,3.246146,0.13453837,8.776629,1004.0387,0,0
0.36,1.4773698,-1.4670186,6.3431225,1004.0561,0,0
0.4,6.7829413,1.0687897,10.343695,1004.0356400000001,0,0
0.44,3.7716537000000003,-1.9913392,11.574637,1004.0737,0,0
0.48,3.628249,-3.2068112,6.3525887,1004.0285,0,0
0.52,5.0287204,-3.192511,3.2089431,1004.0211,0,0
0.56,7.050566000000001,-4.1601224000000006,5.623489,1004.0105,0,0
0.6,7.695828999999999,-6.5481668,7.9859550000000015,1004.06604,0,0
0.64,9.841951,-4.5843453,5.6187515,1004.05585,0,0
0.68,10.515892,-5.366060299999999,9.250039,1004.0809300000001,0,0
0.72,10.03312,-5.537656,6.6224437000000025,1004.07825,0,0
0.76,10.100026,-4.8608046,5.244731,1004.0433300000001,0,0
0.8,8.436644,-6.276472,4.3735995,1004.0258,0,0
0.84,9.421271,-5.370826,2.3756795,1004.0356400000001,0,0
0.88,9.359124000000001,-5.1849300000000005,1.7081273999999995,1004.0609,0,0
0.92,9.411692,-5.714017,1.2914987,1004.0484,0,0
0.96,10.009155,-4.026656,0.7991196999999999,1004.0405,0,0
1.0,9.273055000000001,-5.018099299999999,0.16470854,1004.0861,0,0
1.04,8.742486,-5.4280233,0.67602324,1004.0758,0,0
1.08,8.245375,-5.375591,0.5813341,1004.08606,0,0
1.12,8.197566,-5.370824,0.036876626,1004.03815,0,0
1.16,8.121078500000001,-5.518586599999999,0.47717524,1004.0682400000001,0,0
1.2,8.06371,-5.3946559999999995,0.54345596,1004.0809300000001,0,0
1.24,7.9489837,-5.694948999999999,0.30200028,1004.0455300000001,0,0
1.28,7.8677154000000025,-5.809346,0.12682629,1004.0707,0,0
1.32,7.8199070000000015,-6.004775,0.26885748,1004.07825,0,0
1.36,7.710858,-5.976197,-0.01039125,1004.0758,0,0
1.4,7.720442,-5.8761,-0.20449965,1004.0830000000001,0,0
1.44,7.7443633,-5.7569365999999995,-0.22816958,1004.0809300000001,0,0
1.48,7.620111,-5.671139,-0.4270125,1004.0981,0,0
1.52,7.7922080000000005,-5.633007,-0.40807268,1004.0732,0,0
1.56,7.89739,-5.7712383,0.07483894,1004.0881,0,0
1.6,7.825715,-5.876103,0.05116897,1004.08606,0,0
1.64,8.074288000000001,-5.59011,0.27368808,1004.0909,0,0
1.68,8.083871,-5.6091766,-0.052983645,1004.068,0,0
1.72,8.126914,-5.542445,0.13166033,1004.0655,0,0
1.76,8.241652,-5.3994493,0.28789777,1004.0857,0,0
1.8,8.251235000000001,-5.389917,0.25002474,1004.0856,0,0
1.84,8.375535000000001,-5.3327184,0.25476134,1004.1034,0,0
1.88,8.275183,-5.4137505999999975,0.3021076,1004.09827,0,0
1.92,8.284766000000001,-5.4995494,0.21689051,1004.0930000000001,0,0
1.96,8.318247999999999,-5.318421,-0.25181347,1004.0758,0,0
2.0,8.165318,-5.5758157,0.5198967000000001,1004.0609,0,0
2.04,8.064964999999999,-5.547217,0.30685055,1004.05786,0,0
2.08,8.122347999999999,-5.4995519999999996,0.15535195,1004.0655,0,0
2.12,8.007657,-5.537685,0.018056378,1004.0802,0,0
2.16,8.098496,-5.4185214,-0.010347959,1004.09326,0,0
2.2,8.012483,-5.5519857,0.117483184,1004.0755,0,0
2.24,8.146342,-5.5615190000000005,0.26898629999999996,1004.0881,0,0
2.28,8.208503,-5.5901194000000025,0.21690996,1004.1005,0,0
2.32,8.2133045,-5.59012,0.32106890000000005,1004.0605,0,0
2.36,8.207324,-5.5948567,0.39197513,1004.0629,0,0
2.4,8.130828,-5.447093499999999,0.18365951,1004.0629,0,0
2.44,8.130801,-5.5853230000000025,0.022687267999999997,1004.0757,0,0
2.48,8.245493,-5.499524,-0.043596465,1004.068,0,0
2.52,8.245467,-5.580555,0.11737095,1004.0857,0,0
2.56,8.125950999999999,-5.6329864999999995,0.12210330000000001,1004.08344,0,0
2.6,8.221523,-5.5376544,0.0984292,1004.0832,0,0
2.64,8.087663000000001,-5.5710196,0.14577089,1004.0856,0,0
2.68,8.130659,-5.5805526,0.2120505,1004.0505400000001,0,0
2.72,8.135416000000001,-5.509053700000001,0.32093972,1004.0783,0,0
2.76,8.19275,-5.4709205999999995,0.24518707,1004.07855,0,0
2.8,8.178386,-5.466153,0.0889495,1004.06573,0,0
2.84,8.192701,-5.528118,0.30199552,1004.0859,0,0
2.88,8.125755,-5.5900826,0.36354017,1004.081,0,0
2.92,8.240453,-5.518584,0.18836553,1004.0757,0,0
2.96,8.316904,-5.404186,0.008455798,1004.0812400000001,0,0
3.0,8.283424,-5.3994184,0.07473554,1004.068,0,0
3.04,8.159123,-5.5662475,0.17889008,1004.0885599999999,0,0
3.08,8.254697,-5.43755,0.06052776400000001,1004.0632,0,0
3.12,8.202095,-5.4423165000000004,0.05579129,1004.0705,0,0
3.16,8.192513,-5.5376463,0.112602085,1004.0555400000001,0,0
3.2,8.230727,-5.5424123,0.15047511,1004.0934,0,0
3.24,8.130326,-5.6139107,0.041581467000000004,1004.06573,0,0
3.28,8.144642999999999,-5.61391,0.0037041605,1004.0732,0,0
3.32,8.049023,-5.58531,0.1504685,1004.0861,0,0
3.36,8.126603,-5.5662709999999995,0.07955341,1004.0809300000001,0,0
3.4,8.164860000000001,-5.5758047,0.089023955,1004.08606,0,0
3.44,8.097961999999999,-5.5948709999999995,0.22158903,1004.09827,0,0
3.48,8.035845,-5.609171,0.13163719,1004.0737,0,0
3.52,8.112349,-5.5519733,0.01801391,1004.07855,0,0
3.56,8.0454445,-5.580572599999999,0.07009354,1004.09106,0,0
3.6,8.021566,-5.6949705999999995,0.19319004,1004.08105,0,0
3.64,8.117182000000001,-5.5519742999999995,0.09850368,1004.0888,0,0
3.68,8.150661,-5.571041,0.17899054,1004.07825,0,0
3.72,8.193699,-5.5758085,0.14585145,1004.0632,0,0
3.76,8.088569,-5.561509,0.1789946,1004.0736699999999,0,0
3.8,8.016891000000001,-5.675907,0.1316523,1004.0734,0,0
3.84,8.083829,-5.6091757000000015,0.0795757,1004.0762300000001,0,0
3.88,8.208121,-5.5424440000000015,0.11745268,1004.0585,0,0
3.92,8.126882,-5.642542400000001,0.20267345,1004.081,0,0
3.96,8.212938000000001,-5.6377764,-0.062451463,1004.0584,0,0
4.0,8.174723,-5.5424457,0.07958289,1004.0861,0,0
4.04,8.098267,-5.66161,0.21214807,1004.03815,0,0
4.08,8.074385000000001,-5.709276,0.18847759,1004.0609,0,0
4.12,8.150881,-5.571046400000001,0.17901051,1004.071,0,0
4.16,8.2656145,-5.5186150000000005,-0.029301558,1004.09125,0,0
4.2,8.131806,-5.637779,0.1884835,1004.0561,0,0
4.24,8.26566,-5.4947834,0.10800037,1004.0862400000001,0,0
4.28,8.3134775,-5.480484,0.018048396,1004.06854,0,0
4.32,8.222464,-5.537678,0.17426573,1004.1013,0,0
4.36,8.0982,-5.628243,0.13165712,1004.08606,0,0
4.4,8.059973,-5.590110299999999,0.21214299999999997,1004.0939300000001,0,0
4.44,8.17948,-5.490012999999999,0.07011189,1004.0758,0,0
4.48,8.198609,-5.5281453,0.16006656,1004.0712,0,0
4.52,8.203401,-5.5853449999999984,0.16480201,1004.0734,0,0
4.56,8.117374,-5.6091776,0.01803644,1004.0757,0,0
4.6,8.217763,-5.5090804,-0.16186982,1004.0757,0,0
4.64,8.184315,-5.432816000000001,-0.20921291,1004.07825,0,0
4.68,8.236903,-5.2469206,-0.14766456,1004.08344,0,0
4.72,7.931007000000001,-5.5090814,0.10325986,1004.0584,0,0
4.76,7.677689599999999,-5.804608,0.40626287,1004.06573,0,0
4.8,7.715938,-5.7474099999999995,0.42520148,1004.081,0,0
4.84,8.007517,-5.466183,0.22635745,1004.06067,0,0
4.88,8.313437,-5.4471169999999995,0.39679715,1004.0505400000001,0,0
4.92,8.351686500000001,-5.4375844,0.29264120000000005,1004.0756,0,0
4.96,8.356477,-5.48525,0.07959402,1004.0709,0,0
5.0,8.456864999999999,-5.3088875,-0.0008898005,1004.0679,0,0
5.04,8.485555999999999,-5.337487,0.060658492,1004.0755,0,0
5.08,8.318272,-5.3851533,-0.019825436000000002,1004.0705,0,0
5.12,8.275265,-5.451885,0.13167652,1004.0856,0,0
5.16,8.112763000000001,-5.547217,0.20742804,1004.06995,0,0
5.2,8.012399,-5.699746599999999,0.16955392,1004.05804,0,0
5.24,8.031528999999999,-5.633015599999999,0.15535162,1004.0755,0,0
5.28,8.170155000000001,-5.5615172,0.16955596,1004.09827,0,0
5.32,8.141487,-5.518618599999999,0.046462394000000004,1004.0752,0,0
5.36,7.9450727,-5.6663713,0.24053262,1004.0702,0,0
5.4,7.9785255999999976,-5.532907499999999,0.26893845,1004.0880000000001,0,0
5.44,8.107574000000001,-5.437576,0.09376493,1004.0755,0,0
5.48,8.2175045,-5.4471087,0.3068126,1004.06995,0,0
5.52,8.241396,-5.399443,0.3115464000000001,1004.0727,0,0
5.56,8.360886,-5.3994427000000025,0.31628028,1004.1005,0,0
5.6,8.260503,-5.4280424000000025,0.35888934,1004.0726,0,0
5.64,8.308294,-5.4566417000000005,0.33995113,1004.0598,0,0
5.68,8.250932,-5.4185085,0.15530881,1004.085,0,0
5.72,8.231806,-5.447108,0.23579305,1004.0880000000001,0,0
5.76,8.231799,-5.48524,0.3399494,1004.0829,0,0
5.8,8.227014,-5.504306,0.2641984000000001,1004.08246,0,0
5.84,8.112292,-5.561505,0.2736666,1004.0726,0,0
5.88,8.069267,-5.585337,0.28313485,1004.0773300000001,0,0
5.92,8.131397999999999,-5.599637,0.26893106,1004.0799599999999,0,0
5.96,8.083594,-5.618703,0.29733694,1004.0573,0,0
6.0,8.1122675,-5.594869999999999,0.28313312,1004.0545699999999,0,0
6.04,-0.47728097,5.311018,8.165894999999999,1003.8886,0,0
6.08,-2.7763717,1.1545806,9.226401,1003.9135,0,0
6.12,-2.3605335,2.003028,8.696147999999999,1003.9713,0,0
6.16,-0.19528742,3.175601,6.7834473,1003.98865,0,0
6.2,1.9412794999999998,0.9925181000000001,10.267969,1003.9960000000001,0,0
6.24,1.2577631,0.64455944,8.563582,1004.02356,0,0
6.28,2.3427734,1.6884357,8.715083,1004.00854,0,0
6.32,2.3810065,0.13453825,8.5730505,1004.0233,0,0
6.36,3.246146,0.13453837,8.776629,1004.0387,0,0
6.4,1.4773698,-1.4670186,6.3431225,1004.0561,0,0
6.44,6.7829413,1.0687897,10.343695,1004.0356400000001,0,0
6.48,3.7716537000000003,-1.9913392,11.574637,1004.0737,0,0
6.52,3.628249,-3.2068112,6.3525887,1004.0285,0,0
6.56,5.0287204,-3.192511,3.2089431,1004.0211,0,0
6.6,7.050566000000001,-4.1601224000000006,5.623489,1004.0105,0,0
6.64,7.695828999999999,-6.5481668,7.9859550000000015,1004.06604,0,0
6.68,9.841951,-4.5843453,5.6187515,1004.05585,0,0
6.72,10.515892,-5.366060299999999,9.250039,1004.0809300000001,0,0
6.76,10.03312,-5.537656,6.6224437000000025,1004.07825,0,0
6.8,10.100026,-4.8608046,5.244731,1004.0433300000001,0,0
6.84,8.436644,-6.276472,4.3735995,1004.0258,0,0
6.88,9.421271,-5.370826,2.3756795,1004.0356400000001,0,0
6.92,9.359124000000001,-5.1849300000000005,1.7081273999999995,1004.0609,0,0
6.96,9.411692,-5.714017,1.2914987,1004.0484,0,0
7.0,10.009155,-4.026656,0.7991196999999999,1004.0405,0,0
7.04,9.273055000000001,-5.018099299999999,0.16470854,1004.0861,0,0
7.08,8.742486,-5.4280233,0.67602324,1004.0758,0,0
7.12,8.245375,-5.375591,0.5813341,1004.08606,0,0
7.16,8.197566,-5.370824,0.036876626,1004.03815,0,0
7.2,8.121078500000001,-5.518586599999999,0.47717524,1004.0682400000001,0,0
7.24,8.06371,-5.3946559999999995,0.54345596,1004.0809300000001,0,0
7.28,7.9489837,-5.694948999999999,0.30200028,1004.0455300000001,0,0
7.32,7.8677154000000025,-5.809346,0.12682629,1004.0707,0,0
7.36,7.8199070000000015,-6.004775,0.26885748,1004.07825,0,0
7.4,7.710858,-5.976197,-0.01039125,1004.0758,0,0
7.44,7.720442,-5.8761,-0.20449965,1004.0830000000001,0,0
7.48,7.7443633,-5.7569365999999995,-0.22816958,1004.0809300000001,0,0
7.52,7.620111,-5.671139,-0.4270125,1004.0981,0,0
7.56,7.7922080000000005,-5.633007,-0.40807268,1004.0732,0,0
7.6,7.89739,-5.7712383,0.07483894,1004.0881,0,0
7.64,7.825715,-5.876103,0.05116897,1004.08606,0,0
7.68,8.074288000000001,-5.59011,0.27368808,1004.0909,0,0
7.72,8.083871,-5.6091766,-0.052983645,1004.068,0,0
7.76,8.126914,-5.542445,0.13166033,1004.0655,0,0
7.8,8.241652,-5.3994493,0.28789777,1004.0857,0,0
7.84,8.251235000000001,-5.389917,0.25002474,1004.0856,0,0
7.88,8.375535000000001,-5.3327184,0.25476134,1004.1034,0,0
7.92,8.275183,-5.4137505999999975,0.3021076,1004.09827,0,0
7.96,8.284766000000001,-5.4995494,0.21689051,1004.0930000000001,0,0
8.0,8.318247999999999,-5.318421,-0.25181347,1004.0758,0,0
8.04,8.165318,-5.5758157,0.5198967000000001,1004.0609,0,0
8.08,8.064964999999999,-5.547217,0.30685055,1004.05786,0,0
8.12,8.122347999999999,-5.4995519999999996,0.15535195,1004.0655,0,0
8.16,8.007657,-5.537685,0.018056378,1004.0802,0,0
8.2,8.098496,-5.4185214,-0.010347959,1004.09326,0,0
8.24,8.012483,-5.5519857,0.117483184,1004.0755,0,0
8.28,8.146342,-5.5615190000000005,0.26898629999999996,1004.0881,0,0
8.32,8.208503,-5.5901194000000025,0.21690996,1004.1005,0,0
8.36,8.2133045,-5.59012,0.32106890000000005,1004.0605,0,0
8.4,8.207324,-5.5948567,0.39197513,1004.0629,0,0
8.44,8.130828,-5.447093499999999,0.18365951,1004.0629,0,0
8.48,8.130801,-5.5853230000000025,0.022687267999999997,1004.0757,0,0
8.52,8.245493,-5.499524,-0.043596465,1004.068,0,0
8.56,8.245467,-5.580555,0.11737095,1004.0857,0,0
8.6,8.125950999999999,-5.6329864999999995,0.12210330000000001,1004.08344,0,0
8.64,8.221523,-5.5376544,0.0984292,1004.0832,0,0
8.68,8.087663000000001,-5.5710196,0.14577089,1004.0856,0,0
8.72,8.130659,-5.5805526,0.2120505,1004.0505400000001,0,0
8.76,8.135416000000001,-5.509053700000001,0.32093972,1004.0783,0,0
8.8,8.19275,-5.4709205999999995,0.24518707,1004.07855,0,0
8.84,8.178386,-5.466153,0.0889495,1004.06573,0,0
8.88,8.192701,-5.528118,0.30199552,1004.0859,0,0
8.92,8.125755,-5.5900826,0.36354017,1004.081,0,0
8.96,8.240453,-5.518584,0.18836553,1004.0757,0,0
9.0,8.316904,-5.404186,0.008455798,1004.0812400000001,0,0
9.04,8.283424,-5.3994184,0.07473554,1004.068,0,0
9.08,8.159123,-5.5662475,0.17889008,1004.0885599999999,0,0
9.12,8.254697,-5.43755,0.06052776400000001,1004.0632,0,0
9.16,8.202095,-5.4423165000000004,0.05579129,1004.0705,0,0
9.2,8.192513,-5.5376463,0.112602085,1004.0555400000001,0,0
9.24,8.230727,-5.5424123,0.15047511,1004.0934,0,0
9.28,8.130326,-5.6139107,0.041581467000000004,1004.06573,0,0
9.32,8.144642999999999,-5.61391,0.0037041605,1004.0732,0,0
9.36,8.049023,-5.58531,0.1504685,1004.0861,0,0
9.4,8.126603,-5.5662709999999995,0.07955341,1004.0809300000001,0,0
9.44,8.164860000000001,-5.5758047,0.089023955,1004.08606,0,0
9.48,8.097961999999999,-5.5948709999999995,0.22158903,1004.09827,0,0
9.52,8.035845,-5.609171,0.13163719,1004.0737,0,0
9.56,8.112349,-5.5519733,0.01801391,1004.07855,0,0
9.6,8.0454445,-5.580572599999999,0.07009354,1004.09106,0,0
9.64,8.021566,-5.6949705999999995,0.19319004,1004.08105,0,0
9.68,8.117182000000001,-5.5519742999999995,0.09850368,1004.0888,0,0
9.72,8.150661,-5.571041,0.17899054,1004.07825,0,0
9.76,8.193699,-5.5758085,0.14585145,1004.0632,0,0
9.8,8.088569,-5.561509,0.1789946,1004.0736699999999,0,0
9.84,8.016891000000001,-5.675907,0.1316523,1004.0734,0,0
9.88,8.083829,-5.6091757000000015,0.0795757,1004.0762300000001,0,0
9.92,8.208121,-5.5424440000000015,0.11745268,1004.0585,0,0
9.96,8.126882,-5.642542400000001,0.20267345,1004.081,0,0
10.0,8.212938000000001,-5.6377764,-0.062451463,1004.0584,0,0
10.04,8.174723,-5.5424457,0.07958289,1004.0861,0,0
10.08,8.098267,-5.66161,0.21214807,1004.03815,0,0
10.12,8.074385000000001,-5.709276,0.18847759,1004.0609,0,0
10.16,8.150881,-5.571046400000001,0.17901051,1004.071,0,0
10.2,8.2656145,-5.5186150000000005,-0.029301558,1004.09125,0,0
10.24,8.131806,-5.637779,0.1884835,1004.0561,0,0
10.28,8.26566,-5.4947834,0.10800037,1004.0862400000001,0,0
10.32,8.3134775,-5.480484,0.018048396,1004.06854,0,0
10.36,8.222464,-5.537678,0.17426573,1004.1013,0,0
10.4,8.0982,-5.628243,0.13165712,1004.08606,0,0
10.44,8.059973,-5.590110299999999,0.21214299999999997,1004.0939300000001,0,0
10.48,8.17948,-5.490012999999999,0.07011189,1004.0758,0,0
10.52,8.198609,-5.5281453,0.16006656,1004.0712,0,0
10.56,8.203401,-5.5853449999999984,0.16480201,1004.0734,0,0
10.6,8.117374,-5.6091776,0.01803644,1004.0757,0,0
10.64,8.217763,-5.5090804,-0.16186982,1004.0757,0,0
10.68,8.184315,-5.432816000000001,-0.20921291,1004.07825,0,0
10.72,8.236903,-5.2469206,-0.14766456,1004.08344,0,0
10.76,7.931007000000001,-5.5090814,0.10325986,1004.0584,0,0
10.8,7.677689599999999,-5.804608,0.40626287,1004.06573,0,0
10.84,7.715938,-5.7474099999999995,0.42520148,1004.081,0,0
10.88,8.007517,-5.466183,0.22635745,1004.06067,0,0
10.92,8.313437,-5.4471169999999995,0.39679715,1004.0505400000001,0,0
10.96,8.351686500000001,-5.4375844,0.29264120000000005,1004.0756,0,0
11.0,8.356477,-5.48525,0.07959402,1004.0709,0,0
11.04,8.456864999999999,-5.3088875,-0.0008898005,1004.0679,0,0
11.08,8.485555999999999,-5.337487,0.060658492,1004.0755,0,0
11.12,8.318272,-5.3851533,-0.019825436000000002,1004.0705,0,0
11.16,8.275265,-5.451885,0.13167652,1004.0856,0,0
11.2,8.112763000000001,-5.547217,0.20742804,1004.06995,0,0
11.24,8.012399,-5.699746599999999,0.16955392,1004.05804,0,0
11.28,8.031528999999999,-5.633015599999999,0.15535162,1004.0755,0,0
11.32,8.170155000000001,-5.5615172,0.16955596,1004.09827,0,0
11.36,8.141487,-5.518618599999999,0.046462394000000004,1004.0752,0,0
11.4,7.9450727,-5.6663713,0.24053262,1004.0702,0,0
11.44,7.9785255999999976,-5.532907499999999,0.26893845,1004.0880000000001,0,0
11.48,8.107574000000001,-5.437576,0.09376493,1004.0755,0,0
11.52,8.2175045,-5.4471087,0.3068126,1004.06995,0,0
11.56,8.241396,-5.399443,0.3115464000000001,1004.0727,0,0
11.6,8.360886,-5.3994427000000025,0.31628028,1004.1005,0,0
11.64,8.260503,-5.4280424000000025,0.35888934,1004.0726,0,0
11.68,8.308294,-5.4566417000000005,0.33995113,1004.0598,0,0
11.72,8.250932,-5.4185085,0.15530881,1004.085,0,0
11.76,8.231806,-5.447108,0.23579305,1004.0880000000001,0,0
11.8,8.231799,-5.48524,0.3399494,1004.0829,0,0
11.84,8.227014,-5.504306,0.2641984000000001,1004.08246,0,0
11.88,8.112292,-5.561505,0.2736666,1004.0726,0,0
11.92,8.069267,-5.585337,0.28313485,1004.0773300000001,0,0
11.96,8.131397999999999,-5.599637,0.26893106,1004.0799599999999,0,0
12.0,8.083594,-5.618703,0.29733694,1004.0573,0,0
12.04,8.1122675,-5.594869999999999,0.28313312,1004.0545699999999,0,0
12.08,8.12182,-5.5662704000000005,0.22631966,1004.0799599999999,0,0
12.12,8.131373,-5.5043050000000004,0.20738153,1004.0673,0,0
12.16,8.179165,-5.4614058,0.24525616,1004.0798300000001,0,0
12.2,8.1696,-5.571036299999999,0.42989740000000004,1004.0773300000001,0,0
12.24,8.188711999999999,-5.547204,0.5009129,1004.082,0,0
12.28,8.212606,-5.4518723,0.38255218,1004.0998,0,0
12.32,8.241278,-5.518604,0.34941086,1004.077,0,0
12.36,8.0978775,-5.5567364999999995,0.29733175,1004.06195,0,0
12.4,8.112211,-5.528137,0.27365923,1004.0645,0,0
12.44,8.203021000000001,-5.5376697,0.27839303,1004.102,0,0
12.48,8.164777,-5.594868,0.33520532,1004.06195,0,0
12.52,8.131310000000001,-5.6425339999999995,0.25945428,1004.0895,0,0
12.56,7.930553,-5.761698,0.33046976,1004.05695,0,0
12.6,7.9831243,-5.6854324,0.29732835,1004.0616,0,0
12.64,8.026137,-5.604401,0.027466737,1004.1095,0,0
12.68,7.834938,-5.7378645,0.12215422,1004.1142,0,0
12.72,8.016564,-5.804596,0.20263849,1004.0691,0,0
12.76,8.226871000000001,-5.6520660000000005,0.22630999999999998,1004.112,0,0
12.8,8.169506,-5.7044983,0.2121062,1004.0666,0,0
12.84,8.059565,-5.8427277,0.04640146,1004.0412,0,0
12.88,8.327228,-5.933292400000001,0.42041892,1004.0713,0,0
12.92,8.202612,-5.795054,0.34463724,1004.0738,0,0
12.96,7.997064999999999,-5.766454,0.24994783,1004.08374,0,0
13.0,7.954032400000001,-5.518593,0.017960603999999998,1004.0866,0,0
13.04,8.073514,-5.5710244000000015,0.21206991,1004.0962,0,0
13.08,7.8823056,-5.5567245000000005,0.35883507,1004.0788,0,0
13.12,7.8058143,-5.7616863,0.47719383,1004.0759,0,0
13.16,7.906175,-5.828418,0.26414433,1004.0838,0,0
13.2,8.307664,-5.6139225999999995,0.510332,1004.0534,0,0
13.24,8.264631,-5.4232593,0.10790621,1004.0737,0,0
13.28,7.968267999999999,-5.5185900000000006,0.03688876,1004.0737,0,0
13.32,8.097308,-5.8570150000000005,0.10790343599999999,1004.0805,0,0
13.36,8.016036999999999,-5.5948544,0.14104298,1004.08875,0,0
13.4,7.9921229999999985,-5.8570147000000015,0.27360493,1004.0884,0,0
13.44,7.8056965,-5.8522476999999995,0.24993163,1004.0634,0,0
13.48,7.796120599999999,-5.918979599999999,0.46297836,1004.0683,0,0
13.52,7.671832000000001,-6.047676,0.23572573,1004.0506,0,0
13.56,7.8343300000000005,-5.8951459999999996,0.15050498,1004.0808,0,0
13.6,7.829536,-5.9380445,0.12683167,1004.0631,0,0
13.64,7.7052460000000025,-6.1144066,0.1410335,1004.0829,0,0
13.68,7.533158,-6.052441,-0.11462574,1004.0704300000001,0,0
13.72,7.676537,-5.847479,0.0226706,1004.0729,0,0
13.76,7.901173,-5.9094434,0.14102937,1004.0752,0,0
13.8,8.187947,-5.714014,0.18363771,1004.0779,0,0
13.84,8.178372999999999,-5.8760769999999996,0.38248143,1004.06964,0,0
13.88,7.8915687000000005,-5.9428085999999976,0.4203552,1004.0679,0,0
13.92,7.9398339999999985,-5.871321,0.5292893,1004.0676,0,0
13.96,7.8968196,-5.9761863,0.7423378,1004.0704300000001,0,0
14.0,7.772548,-5.9428205,0.5245555000000001,1004.0497,0,0
14.04,7.906387,-5.885622,0.47247747,1004.0627,0,0
14.08,8.298335,-5.899921400000001,0.45827457,1004.07495,0,0
14.12,8.221862,-5.8236566,0.42986852,1004.0902,0,0
14.16,7.9446369999999975,-5.8760886,0.5434945999999999,1004.0897,0,0
14.2,7.676971400000001,-5.9809527000000005,0.638183,1004.0977,0,0
14.24,7.829928999999999,-5.9475875,0.6665898,1004.062,0,0
14.28,7.758235000000001,-5.890389,0.8464975,1004.062,0,0
14.32,7.7821383,-5.771225,0.7186689,1004.08215,0,0
14.36,7.772582000000001,-5.857023000000001,0.94592065,1004.0695,0,0
14.4,7.7152286,-5.8474900000000005,1.1258284,1004.0745,0,0
14.44,7.667434,-5.8474900000000005,1.23472,1004.097,0,0
14.48,7.782153,-5.852257,1.0500785,1004.0668,0,0
14.52,8.183661,-5.5233645,0.9127813,1004.0695,0,0
14.56,8.241023,-5.5710296999999995,1.1542362,1004.0893599999999,0,0
14.6,8.068953500000001,-5.733093,1.0974237,1004.0567599999999,0,0
14.64,7.853864999999999,-5.8141245999999995,1.0690175,1004.0513,0,0
14.68,8.011602,-5.6186957,0.9317201999999999,1004.0593,0,0
14.72,8.092863000000001,-5.747393,1.0832214,1004.05896,0,0
14.76,7.925575,-5.790292,0.9648618,1004.0437,0,0
14.8,7.686588,-5.957121400000001,1.0879566999999999,1004.0743,0,0
14.84,7.834766,-5.7187943,0.9885345,1004.0643,0,0
14.88,8.069733,-5.547217,0.9696661,1004.05145,0,0
14.92,8.213161999999999,-5.4900184,1.0785607,1004.0489,0,0
14.96,8.050678999999999,-5.623483,1.121173,1004.04895,0,0
15.0,7.8595232999999975,-5.6997485,1.0028163,1004.0537,0,0
15.04,7.878675,-5.575819,0.98388165,1004.0637,0,0
15.08,7.9551835,-5.5472207000000004,0.91760296,1004.0559,0,0
15.12,7.8548436000000015,-5.6759185999999975,0.96495026,1004.0513,0,0
15.16,7.8692174,-5.64732,1.0738447,1004.0889,0,0
15.2,8.070002,-5.6044220000000005,1.0407068000000002,1004.0809300000001,0,0
15.24,8.18475,-5.694987,0.91761523,1004.0712,0,0
15.28,8.093969,-5.7331204000000024,1.0454475,1004.076,0,0
15.32,8.151361,-5.6806893,0.8702777,1004.04565,0,0
15.36,8.117934,-5.571058799999999,0.68090445,1004.0687,0,0
15.4,8.022373,-5.5710597,0.78979886,1004.0505400000001,0,0
15.44,8.223158999999999,-5.5043287,0.6193634,1004.05035,0,0
15.48,8.146711999999999,-5.4518976,0.6146318000000001,1004.0476,0,0
15.52,8.0989485,-5.4709650000000005,0.955512,1004.068,0,0
15.56,8.075086,-5.518631,1.0644065,1004.0809300000001,0,0
15.6,7.946065400000001,-5.6949944000000015,1.1685667,1004.0653699999999,0,0
15.64,8.084709,-5.637796400000001,1.1685694,1004.0679,0,0
15.68,7.9556910000000025,-5.6473303,1.0312748999999999,1004.06036,0,0
15.72,8.032202999999999,-5.5472339999999996,0.865574,1004.078,0,0
15.76,8.113489,-5.5234017,0.8087639,1004.0599,0,0
15.8,8.223461,-5.5901346,0.7377511999999999,1004.0627,0,0
15.84,8.185253999999999,-5.5663023,0.7850982,1004.0501,0,0
15.88,8.32312,-5.623483,0.53884065,1004.0699,0,0
15.92,8.108032000000001,-5.6759152,0.5672473000000001,1004.04486,0,0
15.96,8.021998,-5.685448,0.53884107,1004.0676,0,0
16.0,7.9885410000000014,-5.7283473,0.73768634,1004.0652,0,0
16.04,7.9789844,-5.5948834000000005,0.80870265,1004.0548,0,0
16.08,7.974207400000001,-5.642549,0.7613588000000001,1004.0472,0,0
16.12,8.117604,-5.647316,1.0312200999999999,1004.0599,0,0
16.16,8.103268,-5.6187167,1.0359546999999998,1004.0546,0,0
16.2,8.065031,-5.62825,0.8465788000000001,1004.0598,0,0
16.24,8.084153,-5.5567513,0.77556294,1004.06714,0,0
16.28,7.97422,-5.575818,0.785032,1004.08484,0,0
16.32,8.03158,-5.728348,0.90339226,1004.0748,0,0
16.36,8.036363,-5.709281400000001,0.87972045,1004.0423,0,0
16.4,8.022026,-5.575818,0.8749863999999999,1004.0546,0,0
16.44,7.878634,-5.609184,0.7613608000000001,1004.06714,0,0
16.48,7.9598926999999975,-5.7664800000000005,0.9507372,1004.0644,0,0
16.52,7.7926016,-5.8475122000000015,0.7992366,1004.05695,0,0
16.56,7.802164,-5.8427453,0.85131526,1004.0819,0,0
16.6,8.069837,-5.6139507,1.2253333,1004.0869,0,0
16.64,8.151095,-5.628250599999999,1.4005065,1004.0766,0,0
16.68,7.9742446,-5.6473165000000005,1.3626316,1004.0643,0,0
16.72,7.8690915,-5.8046126,1.5614768,1004.0568,0,0
16.76,7.768717999999999,-5.8999443,1.5236018,1004.0741,0,0
16.8,7.6348853000000005,-5.652083999999999,1.7792598999999998,1004.0617699999999,0,0
16.84,7.548852,-5.899945,1.8644793999999998,1004.0766,0,0
16.88,7.5446053,-5.861825,1.9781540000000002,1004.044,0,0
16.92,7.578086999999999,-5.8189269999999995,2.0397034,1004.0561,0,0
16.96,7.496854300000001,-5.971457,2.28116,1004.04614,0,0
17.0,7.5446777,-5.9476247,2.2858967999999997,1004.0589,0,0
17.04,7.6116160000000015,-5.9047265,2.2669610000000002,1004.04865,0,0
17.08,7.6498785000000025,-5.7521973,2.2338226000000003,1004.07135,0,0
17.12,7.635565,-5.8093967000000015,2.162809,1004.06647,0,0
17.16,7.56867,-5.947627,2.1296703999999997,1004.0310000000001,1,1
17.2,7.6260520000000005,-5.756965599999999,2.2953765,1004.07886,1,1
17.24,7.477902,-5.8856635000000015,2.2811754,1004.0731,1,1
17.28,7.5544014000000015,-5.842765,2.1486142000000004,1004.0376,1,1
17.32,7.4875083,-5.804632700000001,2.2006947999999995,1004.04535,1,1
17.36,7.387156,-5.9094973,2.2054315,1004.01025,1,1
17.4,7.5018945000000015,-5.8570657,2.1959646,1004.0635,1,1
17.44,7.602292999999999,-5.909498,2.1675603,1004.0381,1,1
17.48,7.645335,-5.9094987,2.1817658,1004.0628,1,1
17.52,7.640581,-6.042964,2.262253,1004.06,1,1
17.56,7.73142,-6.2193265,2.049207,1004.0375,1,1
17.6,8.673066,-6.819913400000001,2.8256514,1004.055,1,1
17.64,7.5020356,-6.467189,2.5463237999999997,1004.0527,1,1
17.68,6.2306323,-6.7674828,0.38743725,1004.0503,1,1
17.72,5.738336599999999,-6.686452,0.28328258,1004.0428,1,1
17.76,5.5423884,-6.5291557000000005,0.003954902299999999,1004.0782,1,1
17.8,6.025171299999999,-6.6006546,-0.3558578,1004.0071,1,1
17.84,7.1484494000000005,-7.015346000000001,-0.5547006,1004.0673,1,1
17.88,8.4199,-7.282274,-0.12860212,1004.0398,1,1
17.92,10.049579,-6.357556,0.4253018,1004.0698,1,1
17.96,12.55899,-4.879924,0.8561339,1004.0672599999999,1,1
18.0,14.576081,-3.3307927000000004,2.3711444999999998,1004.04443,1,1
18.04,14.858104,-2.4346802000000003,4.487425,1004.0746,1,1
18.08,14.021648999999998,-2.472813,3.8908910000000003,1004.05426,1,1
18.12,11.053407,-4.503367,2.1912412999999997,1004.0495599999999,1,1
18.16,9.681616,-5.275549400000001,1.7746146,1004.0495599999999,1,1
18.2,8.8642845,-5.9953,1.4100668,1004.04425,1,1
18.24,8.892977,-7.377602,0.8750803,1004.0643,1,1
18.28,8.773494,-8.554942,0.17438957,1004.0136,1,1
18.32,8.137795,-9.703683,-0.062329302999999996,1004.0361300000001,1,1
18.36,6.546132,-11.195613999999999,0.49633157,1004.0916,1,1
18.4,1.9814352,-12.873444000000001,-3.2580497000000004,1004.0312,1,1
18.44,-2.6740816,-16.753420000000002,-6.6620855,1003.99835,1,1
18.48,1.0111611999999999,-13.497863,-2.9171702999999995,1004.0585,1,1
18.52,3.568371,-12.639883,-2.088648,1004.0283,1,1
18.56,7.0098457,-13.688525,-2.3632421000000003,1004.008,1,1
18.6,9.428438,-13.731423999999999,0.30696306,1004.008,1,1
18.64,10.876732,-12.1679945,2.6126192,1004.02795,1,1
18.68,10.652095,-10.390069,3.1002645,1004.0106,1,1
18.72,9.586216,-9.856214999999999,2.8162017,1004.05304,1,1
18.76,10.42269,-8.554946000000001,3.0955324,1004.02795,1,1
18.8,12.697891,-3.9647514999999998,4.5584644999999995,1004.03046,1,1
18.84,12.358543,0.08682139999999999,4.302809,1004.05304,1,1
18.88,11.985729,0.30131626,3.445882,1004.0303,1,1
18.92,11.880586,-0.43750042,2.1060470000000002,1004.02295,1,1
18.96,14.217927,-3.3022015,3.327525,1004.0303,1,1
19.0,15.742698,-6.195501999999999,3.2139002999999997,1004.01984,1,1
19.04,15.518057999999998,-7.797065700000001,2.3190987,1004.0804400000001,1,1
19.08,13.792563000000001,-10.104078999999999,0.7993563,1004.07776,1,1
19.12,14.03635,-14.093687,0.31171408,1004.06256,1,1
19.16,13.687438,-16.515099,0.9177190999999999,1004.05756,1,1
19.2,13.610969,-15.642819,1.0502832,1004.0776,1,1
19.24,8.5921955,-13.493101999999999,0.9461280000000001,1004.1023,1,1
19.28,7.033992,-11.124125,-0.17592461,1004.09265,1,1
19.32,5.7338953,-9.870519999999999,0.20282863,1004.0621,1,1
19.36,4.108779,-9.069738000000001,1.2822745,1004.0773300000001,1,1
19.4,1.7045508999999999,-9.184136,1.2775413,1004.05255,1,1
19.44,-1.4167751,-10.833363,-0.23747863,1004.0394,1,1
19.48,-1.684434,-11.753308,-1.3974069,1004.0071,1,1
19.52,-0.29828292,-12.058368,-1.6246578,1003.9993,1,1
19.56,2.4309964,-13.588432000000001,-2.78932,1003.9843,1,1
19.6,7.1152167,-15.728617999999999,-0.87661946,1003.9942,1,1
19.64,11.498304,-15.418792000000002,-0.3747719,1004.01904,1,1
19.68,15.145309,-14.146120999999999,-1.8045608,1004.0264,1,1
19.72,15.637638,-12.120336,-3.1870057999999997,1004.02405,1,1
19.76,14.2084875,-10.189879,-1.430541,1004.0642,1,1
19.8,12.817575,-8.450087,0.3448618,1004.0615,1,1
19.84,11.885525,-8.268957,1.6752305,1004.0515,1,1
19.88,11.651324,-6.066808,1.9024828999999999,1004.054,1,1
19.92,11.636994999999999,-2.9685466,2.418534,1004.0541400000001,1,1
19.96,11.517510000000001,-1.7864406000000004,2.418535,1004.06616,1,1
20.0,13.03272,-0.9618264999999999,1.2917475,1004.05115,1,1
20.04,15.016347,-1.1953881000000002,2.257567,1004.08374,1,1
20.08,14.949441,-6.085876,2.2102242000000003,1004.0433300000001,1,1
20.12,15.714220999999998,-9.093574,2.4800857999999995,1004.0686599999999,1,1
20.16,15.312726999999999,-10.328113,2.6884007000000003,1004.0658599999999,1,1
20.2,14.461932000000001,-13.755267000000002,1.4479877,1004.1008,1,1
20.24,14.73439,-17.001291000000002,1.149721,1004.0983,1,1
20.28,13.544231,-17.620943,2.4185429,1004.1432,1,1
20.32,10.929688,-15.947883,2.7357485,1004.1206699999999,1,1
20.36,8.616274,-14.265289000000001,2.0587299999999997,1004.1006,1,1
20.4,7.3352966,-11.677049,1.8314792000000002,1004.1006,1,1
20.44,5.853808,-10.104091,1.7084075,1004.0981,1,1
20.48,0.1515223,-10.213723,-1.0517485,1004.0498699999999,1,1
20.52,-3.634062,-11.200401,-0.36052355,1004.0653699999999,1,1
20.56,-3.3233557,-11.500694000000001,0.013496168000000001,1004.01996,1,1
20.6,-0.63708705,-11.767622,-0.46467698,1004.0099,1,1
20.64,3.215455,-13.607513,-1.3026648,1003.9745,1,1
20.68,6.9198246,-16.872602,0.31650364,1004.0199,1,1
20.72,11.474997,-16.376883,0.8325555,1004.0174,1,1
20.76,15.475712,-14.851586,0.47747687,1004.045,1,1
20.8,16.809298000000002,-13.769578,-0.8954985000000001,1004.0397,1,1
20.84,15.399276,-11.958287,-1.2979212,1004.0699,1,1
20.88,14.993012,-10.580752,0.59110814,1004.04926,1,1
20.92,13.888897,-10.023066,1.9025400000000001,1004.06714,1,1
20.96,13.659483999999999,-8.083078,3.02933,1004.0668300000001,1,1
21.0,13.592591,-3.1020262,3.5027727999999994,1004.0668300000001,1,1
21.04,13.167207999999999,-0.29929113,2.2055476,1004.03925,1,1
21.08,12.713144999999999,-0.327891,1.3864971000000001,1004.04675,1,1
21.12,12.909137,-1.1429726999999998,2.764211,1004.0313,1,1
21.16,14.075429000000002,-4.8894873,4.4591293,1004.06396,1,1
21.2,15.031410999999999,-6.314687999999999,3.8625962999999994,1004.0838,1,1
21.24,15.748401999999999,-9.432017,3.1050935,1004.074,1,1
21.28,15.160504999999999,-12.768606,2.8778439,1004.0963,1,1
21.32,15.475992999999999,-15.352081,2.2576387,1004.12396,1,1
21.36,15.7293415,-17.354034,2.5511737,1004.1184,1,1
21.4,14.993272,-17.020376000000002,3.2187266,1004.1365,1,1
21.44,11.752618,-15.766775,2.1960998,1004.091,1,1
21.48,9.310158,-14.0698805,1.9972566000000005,1004.1209,1,1
21.52,8.134345,-12.067926,1.3391761999999998,1004.0959,1,1
21.56,5.424218700000001,-10.747591,0.71897125,1004.0609,1,1
21.6,3.4549613,-9.718016,1.6989949,1004.043,1,1
21.64,0.8882254,-8.922001,1.4480733000000001,1004.03815,1,1
21.68,-0.9615358,-8.307116,0.43964723,1004.008,1,1
21.72,-1.750182,-8.964901,-1.1321732,1004.0032,1,1
21.76,-0.66036636,-10.023077,-1.6103463,1004.0005,1,1
21.8,3.8517902000000004,-10.695163,-2.112191,1004.0155,1,1
21.84,9.793109,-12.172794999999999,-2.1784706000000003,1003.9928,1,1
21.88,12.890442,-15.580884,-1.4399018,1004.03033,1,1
21.92,17.436056,-17.711535,-0.31311142,1004.0328,1,1
21.96,18.444616,-15.919310999999999,0.060908526,1004.0229,1,1
22.0,19.195066,-10.418705000000001,2.4896599999999998,1004.055,1,1
22.04,17.378763,-4.5367737,3.053056,1004.0653,1,1
22.08,10.68228,-5.971508,0.10825838,1004.045,1,1
22.12,7.9960504,-6.1288047,-0.96644956,1004.08484,1,1
22.16,8.627006,-5.3947554,1.0693462,1004.07245,1,1
22.2,11.523588,-5.4996204,2.4754665,1004.0769,1,1
22.24,14.076023999999999,-3.5977647000000004,3.2235042999999997,1004.06964,1,1
22.28,13.535927,-2.4537914,2.5464863999999996,1004.07214,1,1
22.32,10.362159,-4.2555504,0.13194197,1004.0641,1,1
22.36,9.076414,-6.0382432999999995,-1.5156288999999998,1004.0644,1,1
22.4,9.38234,-8.378623,-1.6339873,1004.039,1,1
22.44,8.468603,-10.618886,-1.0280561,1004.06244,1,1
22.48,7.3405580000000015,-10.761882,-0.8481498,1004.0644,1,1
22.52,6.4276056,-10.423456,-1.0327925999999998,1004.0639,1,1
22.56,6.140805,-9.903901,-0.95704323,1004.0562,0,0
22.6,4.6447153,-9.160318,-1.5914544,1004.059,0,0
22.64,3.8894947,-7.8209149999999985,-1.6151277,1004.0412,0,0
22.68,4.085456,-7.482489599999999,-1.4257523,1004.0437,0,0
22.72,5.242157499999999,-7.2679944,-1.1274858,1004.05365,0,0
22.76,6.198107,-7.306126,-0.6209055,1004.06085,0,0
22.8,6.7573323000000025,-7.0296660000000015,-0.17587249,1004.0866,0,0
22.84,7.168384599999999,-6.376647,-0.40312493,1004.07135,0,0
22.88,7.216171000000001,-6.4481454000000005,-0.5309549,1004.071,0,0
22.92,7.287858,-6.934334,-0.8576296999999998,1004.04834,0,0
22.96,8.109973,-6.8294690000000005,-1.1038201,1004.0634,0,0
23.0,8.654859,-6.553008599999999,-0.9286479999999999,1004.0683,0,0
23.04,8.716984,-6.114485299999999,-0.70139766,1004.063,0,0
23.08,8.726535,-5.8284917,-0.6824609,1004.063,0,0
23.12,8.282,-5.966721499999999,-0.16641201,1004.0685,0,0
23.16,8.181614,-6.138317,0.19813626,1004.0656,0,0
23.2,8.023869,-6.333746,0.5437468000000001,1004.0856,0,0
23.24,8.057316,-6.510108,0.34016633,1004.0476,0,0
23.28,7.8613334,-6.4815087,-0.190088,1004.0531,0,0
23.32,7.689245,-6.548239700000001,-0.6114514,1004.0579,0,0
23.36,7.4406867,-6.691236,-0.6729994,1004.0776,0,0
23.4,7.168227000000001,-6.939097,-0.72034454,1004.0776,0,0
23.44,6.8210144,-6.948672,-0.90009505,1004.0368699999999,0,0
23.48,6.4100209999999995,-7.0916705,-0.81486946,1004.06506,0,0
23.52,6.333591,-7.0583057,-0.8101305999999999,1004.0344,0,0
23.56,6.1806917000000015,-7.1631713,-0.80065686,1004.0671,0,0
23.6,6.381516,-7.2346716,-0.41716343,1004.0445,0,0
23.64,6.7926235,-6.943913,-0.3366745,1004.057,0,0
23.68,7.237196000000001,-6.896248299999999,-0.25145059999999997,1004.0618,0,0
23.72,7.7152495,-6.519692,-0.29405355,1004.077,0,0
23.76,7.7822104,-6.390996,-0.19462709,1004.077,0,0
23.8,7.705791499999999,-6.3480988,0.12258337400000001,1004.10474,0,0
23.84,7.9496350000000024,-6.128839,0.12732446,1004.07935,0,0
23.88,7.796739,-6.1812724999999995,0.15573622,1004.0871,0,0
23.92,7.6868587,-6.238473,0.16047563,1004.0917400000001,0,0
23.96,7.734697,-6.4958673,0.11313522,1004.05646,0,0
24.0,7.400187,-6.7294307,-0.12831241,1004.09686,0,0
24.04,7.0083009999999994,-7.1155232999999996,-0.50705945,1004.0616,0,0
24.08,7.2377863,-7.0058929999999995,-0.64435214,1004.06146,0,0
24.12,7.629789,-6.424375,-0.786379,1004.0513,0,0
24.16,7.9739957,-6.1526830000000015,-0.57805943,1004.0712,0,0
24.2,7.6155663,-6.6770059999999996,-0.40761590000000003,1004.05396,0,0
24.24,6.989466,-6.943934,-0.6111904,1004.0839,0,0
24.28,6.6119018,-7.148896700000001,-0.46442008,1004.04846,0,0
24.32,6.024058999999999,-7.1965639999999995,-0.47861665,1004.06854,0,0
24.36,6.4590825999999995,-6.805708,-0.6679871000000001,1004.0784,0,0
24.4,6.5929720000000005,-6.9201070000000025,-0.4170587000000001,1004.0759,0,0
24.44,6.5102577,-7.0058690000000015,-0.50241137,1004.0557,0,0
24.48,6.7205663,-6.8485727,-0.68231905,1004.0759,0,0
24.52,6.993013,-6.796139999999999,-0.39352056,1004.0657,0,0
24.56,6.983451,-6.791373700000001,-0.3887864,1004.06854,0,0
24.6,7.093384299999999,-6.7580075,-0.31777054,1004.0655,0,0
24.64,7.1125007,-6.5673455999999995,-0.5497565,1004.07574,0,0
24.68,7.2654520000000025,-6.686509599999999,-0.34144297,1004.0729,0,0
24.72,7.7004113,-6.5053800000000015,-0.038441386,1004.0907599999999,0,0
24.76,8.0493355,-6.419582,-0.08578563,1004.0704,0,0
24.8,8.039773,-6.362384,-0.02897298,1004.0829,0,0
24.84,7.9107156000000005,-6.5101466,-0.15206774,1004.0675699999999,0,0
24.88,7.8246765,-6.309951,-0.44086668,1004.05756,0,0
24.92,7.7051786999999985,-6.267052,-0.41719484,1004.06,0,0
24.96,7.3562509999999985,-6.4767804,-0.27042857,1004.0827,0,0
25.0,7.212853999999999,-6.6769757,-0.019505307,1004.0748,0,0
25.04,7.2941084,-6.9629693,0.18880823,1004.095,0,0
25.08,7.318005,-6.848572,-0.03370901,1004.0723,0,0
25.12,7.179388,-6.7532406000000025,-0.09525648,1004.0573,0,0
25.16,6.8734779999999995,-6.867638,-0.4124617999999999,1004.0545,0,0
25.2,6.6488247000000005,-6.962969,-0.6207759,1004.05475,0,0
25.24,6.175622,-7.229896000000001,-0.6302449000000001,1004.0442,0,0
25.28,6.0274453,-7.2775617,-0.3745873,1004.06476,0,0
25.32,6.624917999999999,-6.9868016000000015,-0.35091550000000005,1004.0948,0,0
25.36,7.0933366,-6.8295054,-0.54029185,1004.0592,0,0
25.4,7.6477914,-7.0106344,-0.29410306,1004.077,0,0
25.44,7.729707,-6.672225,-0.36505884,1004.052,0,0
25.48,7.562438,-6.538762,-0.70593375,1004.0846,0,0
25.52,7.385609,-6.6912923,-1.0373398999999999,1004.0639,0,0
25.56,7.2852573000000005,-6.5816617,-0.7296013000000001,1004.0514,0,0
25.6,7.175346,-6.810457,-0.33190918,1004.0639,0,0
25.64,6.90292,-7.048786,-0.21354698,1004.07416,0,0
25.68,6.9507422000000005,-6.7008276,-0.31770170000000003,1004.05115,0,0
25.72,7.103719,-6.9439225,-0.23248018,1004.0587,0,0
25.76,7.1133017999999995,-6.5959644,-0.48340154,1004.0788,0,0
25.8,6.960371,-6.6960630000000005,-0.16146001,1004.05347,0,0
25.84,6.678388000000001,-7.0201899999999995,-0.27034897,1004.0559699999999,0,0
25.88,6.716646000000001,-6.891493,-0.09043981,1004.0785,0,0
25.92,6.8074865,-6.848594,-0.14725046,1004.0484,0,0
25.96,7.0799613,-6.796163000000001,-0.50706285,1004.0585,0,0
26.0,6.9748306,-6.910561,-0.36976278,1004.0431,0,0
26.04,7.0178714000000015,-6.891495,-0.5449337,1004.086,0,0
26.08,7.0656953,-6.686534,-0.5307281,1004.0732,0,0
26.12,7.0752773,-6.686535000000001,-0.69169587,1004.0709,0,0
26.16,7.151778,-6.7628,-0.41236374,1004.0431,0,0
26.2,7.390791,-6.715135000000001,-0.5023154000000001,1004.0632,0,0
26.24,7.386033999999999,-6.6341043000000015,-0.44550043,1004.081,0,0
26.28,7.333482000000001,-6.591206,-0.34607556,1004.0756,0,0
26.32,7.2904860000000005,-6.753269,-0.23718221,1004.0581,0,0
26.36,7.2331524000000025,-6.638872,-0.27505523,1004.0600599999999,0,0
26.4,7.032423,-6.6960716,-0.4312885,1004.0677,0,0
26.44,7.027667999999999,-6.772337400000001,-0.28451973,1004.08,0,0
26.48,7.061148599999999,-6.805703,-0.31292415,1004.0627,0,0
26.52,7.080292,-6.7103734,-0.33659393,1004.0395,0,0
26.56,7.061197999999999,-6.7056070000000005,-0.40760767,1004.085,0,0
26.6,7.080340400000001,-6.777106,-0.31765196,1004.067,0,0
26.64,7.228538499999999,-6.700842,-0.38393143,1004.057,0,0
26.68,7.152086,-6.7008424,-0.36972597,1004.0795,0,0
26.72,7.118649499999999,-6.6913095,-0.31764546,1004.0693,0,0
26.76,7.1377916,-6.738975999999999,-0.42653468,1004.07965,0,0
26.8,7.171276,-6.772342,-0.32710987,1004.0791,0,0
26.84,7.161738400000001,-6.7771095999999975,-0.29870132,1004.05176,0,0
26.88,7.152203,-6.710378599999999,-0.38865286,1004.0766,0,0
26.92,7.099649,-6.657947,-0.41705707,1004.0666,0,0
26.96,6.965839,-6.8629089999999975,-0.35550758,1004.07135,0,0
27.0,6.96108,-6.8438435,-0.23241113,1004.079,0,0
27.04,7.075821,-6.791412400000001,-0.18506476,1004.069,0,0
27.08,7.133203,-6.648416,-0.39811072,1004.05585,0,0
27.12,7.2001443,-6.677016,-0.5164685999999999,1004.0639,0,0
27.16,7.219286,-6.758047599999999,-0.42651293,1004.0364,0,0
27.2,7.1854960000000005,-6.777106,-0.40760562,1004.061,0,0
27.24,7.166392999999999,-6.796172599999999,-0.33185372,1004.08057,0,0
27.28,7.1472883000000005,-6.8629045,-0.3413211,1004.0489,0,0
27.32,7.2859187000000025,-6.591212,-0.37919492,1004.05084,0,0
27.36,6.9131100000000005,-6.839073,-0.4218031,1004.07855,0,0
27.4,6.865328,-7.0154357,-0.21822222,1004.0858,0,0
27.44,7.142571,-7.0535684000000005,-0.11406398,1004.06335,0,0
27.48,7.472392599999999,-6.710377,-0.30343878,1004.0706,0,0
27.52,7.496307400000001,-6.5387816,-0.65378326,1004.11096,0,0
27.56,6.927527,-6.8867397,-0.4738744000000001,1004.0629,0,0
27.6,6.4256635000000015,-7.091702499999999,-0.23241834,1004.0981,0,0
27.64,6.578633,-7.0154380000000005,-0.42652747,1004.0930000000001,0,0
27.68,7.2478204,-6.791410400000001,-0.6159023,1004.09546,0,0
27.72,7.630222,-6.329055,-0.6632448000000001,1004.09,0,0
27.76,7.6254563,-6.2766230000000025,-0.36497593,1004.1075400000001,0,0
27.8,7.1044740000000015,-6.543550499999999,-0.59696037,1004.09,0,0
27.84,6.9228573,-6.6960807,-0.43598908,1004.0825,0,0
27.88,6.9372110000000005,-6.710381,-0.118782714,1004.085,0,0
27.92,7.1762179999999995,-6.700848,-0.047765072,1004.05475,0,0
27.96,7.2096925,-6.772346499999999,-0.047763627,1004.0997,0,0
28.0,7.171468300000001,-6.762814,-0.18979453,1004.0751,0,0
28.04,7.0854473,-6.8247800000000005,-0.2892155,1004.07416,0,0
28.08,7.056784599999999,-6.820013499999999,-0.6632319999999999,1004.0992,0,0
28.12,6.951648,-6.9534774000000015,-0.7153086999999999,1004.0493,0,0
28.16,6.8369455000000015,-6.963011,-0.6963699000000001,1004.0666,0,0
28.2,6.8037357000000025,-7.091714,-0.7436911999999999,1004.0841,0,0
28.24,6.760745,-6.9963837,-0.7720952,1004.1087,0,0
28.28,6.8372455,-7.0535827000000015,-0.59218556,1004.0871599999999,0,0
28.32,6.8611699999999995,-6.948719500000001,-0.48802632,1004.0718400000001,0,0
28.36,6.9854765,-6.9058213,-0.39806977,1004.0841,0,0
28.4,7.0189585999999995,-6.781891000000001,-0.1660818,1004.0662,1,2
28.44,6.971186,-6.853389999999999,-0.18975149,1004.08374,1,2
28.48,7.085925,-7.044053,0.0043612905,1004.0766,1,2
28.52,6.9425564,-7.220416,0.3641784,1004.08075,1,2
28.56,7.181565299999999,-6.78666,0.31210166,1004.09326,1,2
28.6,8.065856,-5.6426870000000005,0.37365127,1004.07574,1,2
28.64,8.7685175,-5.023035,0.39732617,1004.0906,1,2
28.68,10.016072,-4.3080525000000005,0.4210005,1004.0962,1,2
28.72,11.727266,-3.9362614000000002,1.4531028,1004.0856,1,2
28.76,10.862145,-5.1422014,1.4199643,1004.0883,1,2
28.8,9.724578999999999,-6.0240145,1.1785121,1004.0983,1,2
28.84,9.53341,-7.1155567,0.76662105,1004.12335,1,2
28.88,6.0393987000000005,-9.246208,0.48255908,1004.1007699999999,1,2
28.92,0.98239166,-12.554199,-2.0219386000000004,1004.0632,1,2
28.96,-1.4266041999999999,-13.316849,-2.6137368999999997,1004.0626,1,2
29.0,-0.6952752,-13.860237,-1.0135064,1004.0603,1,2
29.04,1.1354118999999998,-13.693407999999998,-1.2833655000000002,1004.0883,1,2
29.08,4.65816,-13.91267,-1.6810523999999998,1004.10065,1,2
29.12,7.363553,-13.378817999999999,-1.6052998,1004.0702,1,2
29.16,9.514491,-11.252933,-0.7436358000000001,1004.0577,1,2
29.2,10.102178,-9.007878999999999,0.14641133,1004.0726300000001,1,2
29.24,9.705469,-7.7495084,1.0175432,1004.10785,1,2
29.28,8.711285,-7.1346229999999995,1.8129244999999998,1004.11786,1,2
29.32,8.481869,-6.243277,1.4578454,1004.09,1,2
29.36,9.084137,-5.8047543,1.7087702,1004.0903,1,2
29.4,9.963637,-4.9038754,2.215353,1004.0672599999999,1,2
29.44,10.5659075,-4.4653525,2.0685878,1004.0772,1,2
29.48,11.885149,-4.7942457,0.5819861999999999,1004.0976,1,2
29.52,13.170932,-6.06215,-0.68209857,1004.0847,1,2
29.56,13.558110000000001,-6.21468,-0.7673164000000001,1004.0924699999999,1,2
29.6,13.242657000000001,-6.9725633,-1.0513796,1004.08185,1,2
29.64,14.308568,-10.347286,-2.4953716,1004.0971699999999,1,2
29.68,15.116372,-14.746819,-3.5511425,1004.10474,1,2
29.72,15.565688,-17.797413,-1.7378639999999999,1004.12726,1,2
29.76,14.595401,-18.531464,0.78557503,1004.12683,1,2
29.8,9.763036,-16.458012,-0.009803478000000001,1004.1117,1,2
29.84,6.4554257,-13.350219000000001,-1.3496388000000001,1004.12726,1,2
29.88,4.2662907,-10.218591,-1.2028707,1004.1069,1,2
29.92,2.8610427000000005,-8.740958000000001,-0.99455553,1004.1069,1,2
29.96,1.8334001,-7.844846,-0.3743472000000001,1004.0867,1,2
30.0,1.2885178,-6.629375,-0.10921915,1004.08435,1,2
30.04,0.73885465,-6.7628384000000015,-0.31279728,1004.0542,1,2
30.08,0.8631448,-8.092709,-1.27388,1004.0691,1,2
30.12,2.8658977,-9.713338,-0.95667356,1004.0738,1,2
30.16,4.567522,-13.021329,-0.5542478,1004.0668300000001,1,2
30.2,6.3741129999999995,-17.268326000000002,1.8318762,1004.079,1,2
30.24,13.285717000000002,-16.105286,4.947115,1004.0863,1,2
30.28,16.693726,-14.784951000000001,3.5504663,1004.09656,1,2
30.32,18.634332999999998,-11.920250999999999,1.2400776000000002,1004.0743,1,2
30.36,17.353351999999994,-8.521695,3.4415765,1004.0992,1,2
30.4,13.572535,-7.0535960000000015,3.9812993999999997,1004.09125,1,2
30.44,11.216099,-7.2585588,2.0496628,1004.07104,1,2
30.48,9.390222,-7.039297,-0.24178837,1004.0737,1,2
30.52,9.351992,-5.809526,0.08488627,1004.0612,1,2
30.56,10.427453,-3.898136,1.8697575000000002,1004.1012,1,2
30.6,12.650071,-2.0534787,2.8450458,1004.0962,1,2
30.64,13.868928,-1.796085,1.2069421999999999,1004.07825,1,2
30.68,14.141384,-3.302317,-1.5011367,1004.08105,1,2
30.72,13.429201,-6.882001400000001,-0.9330073,1004.0857,1,2
30.76,12.960788,-10.623749,1.0649122,1004.0705,1,2
30.8,11.134910000000001,-11.767722000000001,2.1585605,1004.13544,1,2
30.84,11.350009,-11.743889999999999,3.1480517000000003,1004.1532,1,2
30.88,14.428208999999999,-13.035627,4.492623,1004.15515,1,2
30.92,13.371881,-14.756354,4.577843,1004.1507,1,2
30.96,10.245896,-14.608591,7.3806114,1004.1303,1,2
31.0,10.188546,-12.93553,7.7877706999999985,1004.1555,1,2
31.04,9.423785,-13.059461,4.412141,1004.13525,1,2
31.08,8.802418,-12.144281,5.676228,1004.1078,1,2
31.12,6.6706330000000005,-11.724826,7.4374270000000005,1004.11536,1,2
31.16,4.314196599999999,-10.075597,5.600479,1004.0955,1,2
31.2,3.224409,-8.09271,3.3469027999999996,1004.0776400000001,1,2
31.24,2.6078765,-7.1632320000000025,1.4152712,1004.05035,1,2
31.28,1.8478970000000001,-7.306228999999999,0.13224849,1004.03217,1,2
31.32,1.0162203,-7.201364999999999,0.9370982,1004.0477,1,2
31.36,2.8660147,-7.8972826000000005,2.3195452999999997,1004.0376,1,2
31.4,6.986214,-11.386403,-0.85250497,1004.0727,1,2
31.44,9.428703,-12.759171499999999,-3.8162417,1004.0373,1,2
31.48,12.062386,-12.725805000000001,-5.861503599999999,1004.0169999999999,1,2
31.52,11.488817999999998,-11.119475,-9.454916,1004.0746,1,2
31.56,10.6906,-10.847782,-7.8736243,1004.06476,1,2
31.6,10.719289999999999,-10.995546000000001,-3.5416427,1004.0745,1,2
31.64,10.790996,-11.782028,-2.1402577999999997,1004.0667,1,2
31.68,11.125592,-11.496035000000001,-4.86254,1004.0871,1,2
31.72,12.430487,-8.955461,-7.187132000000001,1004.06396,1,2
31.76,14.151226000000001,-6.171792,-6.1455617,1004.0746,1,2
31.8,15.164556,-2.8971669999999996,-3.1960266,1004.0815,1,2
31.84,13.534651,-4.0030084000000015,-1.0939502,1004.1145,1,2
31.88,11.9955635,-8.040282000000001,1.2353778,1004.1245,1,2
31.92,12.7364435,-10.433094,2.8829515,1004.1542,1,2
31.96,12.683874000000001,-13.240596,5.6762514,1004.1263,1,2
32.0,11.460255,-12.234853,7.2670119999999985,1004.1391,1,2
32.04,10.700274,-12.506548,6.1780996,1004.1237,1,2
32.08,9.462315,-14.017546,4.227526,1004.1192,1,2
32.12,7.617319599999999,-14.303539,4.189652,1004.0913,1,2
32.16,6.843001400000001,-13.674354000000001,4.7625155,1004.0712,1,2
32.2,6.4128284,-13.312095999999999,5.359051,1004.0788,1,2
32.24,6.0878224,-11.5484705,5.221755,1004.0788,1,2
32.28,7.187187700000001,-9.670447,3.006055,1004.0638,1,2
32.32,8.085801,-9.365389,0.83769864,1004.069,1,2
32.36,8.382159,-8.950698,-0.41691777,1004.0333,1,2
32.4,8.621159,-8.478808,-0.49266738,1004.0282599999999,1,2
32.44,8.587709,-8.602739,0.27904153,1004.0663,1,2
32.48,7.244594,-8.9221,-0.22280450000000002,1004.03076,1,2
32.52,5.977956,-9.284358000000001,-0.82880735,1004.0408,1,2
32.56,4.5679245,-9.069863,-2.5758016,1004.02856,1,2
32.6,3.1339936,-8.149918,-3.8824966,1004.02295,1,2
32.64,2.1780431,-7.5969973,-3.5747592000000004,1004.03577,1,2
32.68,2.7038314,-7.997389,-3.2291467000000003,1004.0429,1,2
32.72,3.9943879,-7.983088499999999,-3.3143651,1004.05035,1,2
32.76,7.302022,-8.56461,-2.9734871,1004.0704300000001,1,2
32.8,10.265511,-11.219583,-3.4563956,1004.06287,1,2
32.84,13.501448000000002,-12.735348,-2.7888436000000003,1004.0579,1,2
32.88,14.835023000000001,-10.952655,-1.6999296999999998,1004.07574,1,2
32.92,15.035787,-5.442516,0.38320956,1004.08514,1,2
32.96,14.170651000000001,-4.079281,1.2401376,1004.0903,1,2
33.0,11.460515,-4.3509746,-0.80512416,1004.08026,1,2
33.04,8.831632,-5.323352,-2.0834124,1004.0903300000001,1,2
33.08,7.899578599999999,-5.595046,-2.0550053,1004.09296,1,2
33.12,8.411029,-6.028804,-1.6194391000000001,1004.0776400000001,0,0
33.16,8.678708,-6.357696,-0.4405713,1004.0953400000001,0,0
33.2,8.998963999999997,-5.6856117,0.10388607,1004.0802,0,0
33.24,8.931899000000003,-6.4530234,0.179623,1004.0799599999999,0,0
33.28,8.492161999999999,-7.6732625999999975,-0.033424895,1004.0849599999999,0,0
33.32,7.5792217000000015,-8.435912,0.06126355400000001,1004.0826400000001,0,0
33.36,6.326917,-8.50741,-0.00028335303,1004.0924699999999,0,0
33.4,5.490455,-8.083186,-0.25594085,1004.0971,0,0
33.44,5.3279457,-7.978323,-0.8903506999999999,1004.06995,0,0
33.48,5.8824067000000015,-7.2538056,-1.4253381,1004.07745,0,0
33.52,6.1500793,-7.0297775,-1.2596338,1004.0776,0,0
33.56,5.8585150000000015,-7.1966076,-1.0418508,1004.0924699999999,0,0
33.6,5.605189,-7.334838,-0.8903494000000001,1004.0871599999999,0,0
33.64,6.0019164000000025,-7.225207000000001,-0.9471620000000001,1004.08246,0,0
33.68,6.4129834,-7.063144,-0.9376928,1004.0717,0,0
33.72,6.618518400000001,-6.953513,-0.47845513,1004.0997,0,0
33.76,7.172979400000001,-6.691352999999999,-0.58734614,1004.0743,0,0
33.8,7.5649276,-6.7962169999999995,-0.36009434,1004.0642,0,0
33.84,7.995114,-6.624621,-0.08549854,1004.0816699999999,0,0
33.88,8.549575,-6.1479654,-0.19912392,1004.0613,0,0
33.92,8.535239,-5.9334702,-0.1991236,1004.0867,0,0
33.96,8.353611,-5.96207,-0.6015476,1004.06964,0,0
34.0,8.071606,-6.176565,-0.5021247999999999,1004.0867,0,0
34.04,8.100287,-6.2051644,-0.21806018,1004.0692,0,0
34.08,8.119411,-6.4863915,-0.21805982,1004.069,0,0
34.12,7.96168,-6.686586999999999,-0.36009166,1004.0815,0,0
34.16,7.560181,-6.677053999999999,-0.49265468,1004.0841,0,0
34.2,7.316415299999999,-6.7533193,-0.47371668,1004.06854,0,0
34.24,7.197808,-6.8820375999999985,-0.72929317,1004.0740400000001,0,0
34.28,7.2121863,-6.7819410000000016,-0.67247677,1004.0813,0,0
34.32,7.001912,-7.0012035,-0.5446444,1004.0738,0,0
34.36,6.9015784,-6.7628770000000005,-0.67720395,1004.08374,0,0
34.4,6.95897,-6.753344500000001,-0.6914041,1004.07605,0,0
34.44,6.7391380000000005,-6.896342,-0.76241654,1004.0812400000001,0,0
34.48,6.6674833,-6.8391447,-0.7150685999999999,1004.0763,0,0
34.52,6.643621,-6.853445,-0.6866588,1004.0935699999999,0,0
34.56,6.7488136,-6.8010144,-0.53988886,1004.091,0,0
34.6,7.021304,-6.6866174,-0.6866515999999999,1004.0785,0,0
34.64,6.911405,-6.6341867,-0.8902276,1004.0532,0,0
34.68,6.8349686,-6.753350999999999,-0.7292542,1004.091,0,0
34.72,7.030978999999999,-6.6341887,-0.7150474,1004.0705,0,0
34.76,7.303464999999999,-6.638955,-0.7623880999999999,1004.0682400000001,0,0
34.8,7.40866,-6.6103570000000005,-0.861807,1004.04803,0,0
34.84,7.5377535999999985,-6.4387627,-0.8191937,1004.08826,0,0
34.88,7.6525087,-6.491194999999999,-0.8428623,1004.096,0,0
34.92,7.5904107000000005,-6.3910985,-0.9186091000000001,1004.1033,0,0
34.96,7.6430273,-6.557929,-0.68188524,1004.0907599999999,0,0
35.0,7.427973700000001,-6.7152259999999995,-0.6013970000000001,1004.1005,0,0
35.04,7.451911999999999,-6.562697,-0.7576286999999999,1004.09045,0,0
35.08,7.265536999999999,-6.6294303,-1.0606273000000002,1004.07025,0,0
35.12,7.2034383,-6.6389637000000015,-0.8854506999999999,1004.0830000000001,0,0
35.16,6.983604,-6.6484985,-0.7008055999999999,1004.08777,0,0
35.2,6.954964599999999,-6.767663499999999,-0.8428341999999999,1004.08026,0,0
35.24,6.819908,-6.8152985999999975,-0.85714924,1004.0980000000001,0,0
35.28,6.9059334,-6.7247343,-0.55414826,1004.06995,0,0
35.32,6.8820224,-6.686601,-0.5683526,1004.055,0,0
35.36,6.8724523,-6.686601,-0.86662114,1004.07245,0,0
35.4,7.125771,-6.7962313,-0.8760909,1004.0928,0,0
35.44,7.135318799999999,-6.638934599999999,-0.7577318000000001,1004.09,0,0
35.48,7.2070054999999975,-6.529304,-0.913968,1004.0745,0,0
35.52,7.2117724,-6.438739,-1.2453777,1004.0875,0,0
35.56,7.202203,-6.586502,-0.88082933,1004.0797,0,0
35.6,7.1878524000000015,-6.6484666,-0.52575,1004.0897,0,0
35.64,7.259537700000001,-6.6675330000000015,-0.49261028,1004.0745,0,0
35.68,7.0587744999999975,-7.0965223,-0.38372,1004.0822,0,0
35.72,6.886691000000001,-6.9392257,-0.4642058,1004.0772,0,0
35.76,7.0444135999999995,-6.6722984,-0.8382248999999999,1004.05945,0,0
35.8,7.450685000000001,-6.4053707000000015,-1.1933063999999998,1004.06934,0,0
35.84,7.6514254,-6.3052735,-1.2927296999999998,1004.0945,0,0
35.88,7.5367007,-6.4911685,-0.9471191999999999,1004.0744,0,0
35.92,7.3215966,-6.5721993,-0.80982256,1004.0889,0,0
35.96,7.245108,-6.562666,-0.81929237,1004.0815,0,0
36.0,6.843594,-6.7628613,-0.5304946999999999,1004.0993699999999,0,0
36.04,6.6189337,-6.920158,-0.5020892,1004.0914300000001,0,0
36.08,6.690618,-7.0536210000000015,-0.35058940000000005,1004.0843,0,0
36.12,6.8005424,-6.9010906,-0.6772643,1004.09656,0,0
36.16,6.972604,-6.8152924,-0.76721907,1004.08386,0,0
36.2,7.0203904999999995,-6.9106229999999975,-0.7056728,1004.0864,0,0
36.24,7.0356,-6.762881299999999,-0.92337584,1004.0639,0,0
36.28,7.1073210000000016,-6.729516,-0.69138783,1004.08655,0,0
36.32,7.1838190000000015,-6.7485833,-0.5304161000000001,1004.074,0,0
36.36,7.332018400000001,-6.4053910000000025,-0.52094495,1004.0839,0,0
36.4,7.4754353,-6.5626880000000005,-0.45466128,1004.0989400000001,0,0
36.44,7.523254,-6.4244585,-0.40258083,1004.0888699999999,0,0
36.48,7.480263000000001,-6.352961,-0.26528066,1004.0933,0,0
36.52,7.3942494000000005,-6.4721255,-0.25107536,1004.0715,0,0
36.56,7.341697,-6.481659,-0.22740097,1004.0839,0,0
36.6,7.4229765,-6.462593599999999,-0.25580534,1004.1064,0,0
36.64,7.399101700000001,-6.467361,-0.25580314,1004.0864,0,0
36.68,7.327427,-6.5722255999999994,-0.2984107,1004.0939,0,0
36.72,7.394369599999999,-6.6198916,-0.29367393,1004.0936,0,0
36.76,7.327476499999999,-6.6389580000000015,-0.36942223,1004.1039400000001,0,0
36.8,7.2414627000000005,-6.605592999999999,-0.44043624,1004.0914,0,0
36.84,7.1841289999999995,-6.7581234,-0.5019813,1004.0832,0,0
36.88,7.2319483999999985,-6.715225,-0.45463535,1004.0807,0,0
36.92,7.2367535000000025,-6.5817619999999994,-0.39308572,1004.0785,0,0
36.96,7.1316204,-6.672327,-0.53985023,1004.0762300000001,0,0
37.0,6.997812,-6.9058895000000025,-0.37414369999999997,1004.0936,0,0
37.04,6.8974648,-6.924956,-0.30312496,1004.10333,0,0
37.08,6.954838799999999,-6.8534584,-0.33152992,1004.09296,0,0
37.12,7.093483,-6.7533607,-0.28891748,1004.08344,0,0
37.16,7.0839476999999995,-6.724762400000001,-0.43568185,1004.0528,0,0
37.2,7.1604424,-6.7438293000000025,-0.4640866,1004.0835,0,0
37.24,7.327764,-6.691397,-0.13741006,1004.0907,0,0
37.28,7.628911500000001,-6.4101715,-0.21315873,1004.08777,0,0
37.32,8.274208999999999,-5.7285542000000005,-0.8096916000000001,1004.0855,0,0
37.36,7.3230553,-6.3863397000000015,-0.02851228,1004.0777,0,0
37.4,7.4760345999999975,-6.4816712999999995,0.47807136,1004.0653699999999,0,0
37.44,7.4712714999999985,-6.538871,-0.05691484700000001,1004.0674,0,0
37.48,7.5382130000000025,-6.3434424000000025,-0.37885216,1004.0624,0,0
37.52,7.0554824000000025,-6.138481,-0.60610086,1004.0749,0,0
37.56,7.3566327000000005,-6.295778299999999,-0.5918956,1004.07025,0,0
37.6,7.2273507,-6.429236,-0.47355622,1004.0824,0,0
37.64,7.4281235,-6.314839,-0.07112995,1004.0624,0,0
37.68,7.619332300000001,-6.596066499999999,0.23187348,1004.06976,0,0
37.72,7.5476522,-6.333906,0.056702048,1004.0799,0,0
37.76,7.552447,-6.0479136,0.36917412,1004.0799,0,0
37.8,7.3947296,-6.019315,0.72899044,1004.05206,0,0
37.84,7.5668187000000025,-6.200444,0.61536616,1004.07745,0,0
37.88,7.7054505,-6.1480125999999995,0.7100559000000001,1004.0822,0,0
37.92,7.853639999999999,-6.152779,1.1124816000000002,1004.0824,0,0
37.96,7.743722,-6.148013,1.09828,1004.0774,0,0
38.0,7.6099039999999984,-6.2385782999999995,0.87576455,1004.0699,0,0
38.04,7.552562700000001,-6.1051145,1.1314238,1004.0771,0,0
38.08,7.3757256999999985,-6.152781,1.268723,1004.0824,0,0
38.12,7.3661832999999985,-6.0288505999999975,1.2781934,1004.06995,0,0
38.16,7.5430517,-6.229046299999999,1.2734603999999998,1004.0797,0,0
38.2,7.7008033,-6.2195134,1.3823533000000001,1004.0949,0,0
38.24,7.576545200000001,-6.2433467,1.5575279,1004.0772,0,0
38.28,7.495305,-6.352978,1.7895153000000001,1004.067,0,0
38.32,7.2372103,-6.3243794,1.5291243,1004.0719,0,0
38.36,7.1464114,-6.343446299999999,1.7042988999999995,1004.097,0,0
38.4,7.1081886,-6.3386793,1.6522218000000002,1004.0999,0,0
38.44,7.2563796,-6.410178,1.647489,1004.0974,0,0
38.48,7.3137546,-6.429245,1.5433337999999999,1004.0721,0,0
38.52,7.5097426999999985,-6.5245767,1.9031501,1004.0495,0,0
38.56,7.380704,-6.3768139999999995,1.6001495000000001,1004.0746,0,0
38.6,7.322597,-6.2576313,1.6663625,1004.0517,0,0
38.64,7.217428999999999,-6.3291297,1.6190174,1004.0895,0,0
38.68,7.112259,-6.495959,1.5906097,1004.0816,0,0
38.72,7.1791615,-6.5197910000000014,1.6521556,1004.0691,0,0
38.76,7.164809,-6.5436234,1.6568889999999998,1004.0895,0,0
38.8,7.1026583,-6.600822,1.8983421000000005,1004.0719,0,0
38.84,7.026167,-6.6055884,1.7705119999999999,1004.0791,0,0
38.88,7.136089,-6.5912880000000005,1.5764002000000001,1004.1045,0,0
38.92,7.0978369999999975,-6.65802,1.7136966,1004.0766,0,0
38.96,7.0117865,-6.5054893,1.510116,1004.0867,0,0
39.0,6.983094,-6.5674543000000005,1.6237404,1004.0566,0,0
39.04,7.0882363,-6.5293209999999995,1.7799745999999999,1004.0666,0,0
39.08,7.375011,-6.3100595,1.5148466,1004.0991,0,0
39.12,7.351097999999999,-6.362491,1.8131129000000001,1004.0762300000001,0,0
39.16,7.1025350000000005,-6.510254,1.7136890999999999,1004.0637,0,0
39.2,7.0451627000000006,-6.4768877,1.6663436999999999,1004.0641,0,0
39.24,6.9830117,-6.467355,1.6379362,1004.08405,0,0
39.28,7.088153999999999,-6.419688,1.6663413,1004.0762300000001,0,0
39.32,7.3605895000000015,-6.4053889999999996,2.0261548,1004.0635,0,0
39.36,7.298438000000001,-6.3529563,1.9930128,1004.05334,0,0
39.4,7.1072315999999995,-6.5150190000000014,1.6663376,1004.0711699999999,0,0
39.44,7.1932554,-6.4578195,1.8273058999999998,1004.06146,0,0
39.48,7.1502223,-6.519785,1.761023,1004.0559,0,0
39.52,7.1788883000000006,-6.515018,1.6947403000000003,1004.0635,0,0
39.56,7.202773,-6.3577213,1.5337691,1004.0658599999999,0,0
39.6,7.185124000000001,-6.5341195999999995,1.6475294999999999,1004.0658599999999,0,0
39.64,7.0991306,-6.448323,1.7043462,1004.0783,0,0
39.68,6.7980485,-6.729551,1.3208636,1004.0783,0,0
39.72,6.4635077,-7.0870440000000015,1.0794131999999999,1004.0656,0,0
39.76,6.817253,-7.2252746,1.0368072,1004.0656,0,0
39.8,7.1136527,-6.967882,1.2072505,1004.06287,0,0
39.84,7.338342999999999,-6.791520599999999,1.1125661,1004.0554,0,0
39.88,7.390967,-6.8296537,1.0036789000000002,1004.0603,0,0
39.92,7.367116,-6.7676897,0.67700946,1004.05035,0,0
39.96,7.228544999999999,-6.8153567,0.35507387,1004.08026,0,0
40.0,6.884444,-6.9726539999999995,0.23198351,1004.06287,0,0
40.04,6.8127933,-7.082286,0.50184876,1004.07526,0,0
40.08,6.7459216,-7.1680850000000005,0.6296819,1004.0653699999999,0,0
40.12,6.7746434,-6.9821906,0.5776074000000001,1004.08026,0,0
40.16,6.76991,-6.9392924,0.48765785,1004.0681,0,0
40.2,6.6839128,-6.9154606,0.31248853,1004.05023,0,0
40.24,6.660062299999999,-7.1633224,0.3408994,1004.0729,0,0
40.28,6.511931400000001,-7.3301535000000015,0.33616892,1004.0579,0,0
40.32,6.736631,-7.0965929999999995,0.35511097,1004.07776,0,0
40.36,6.9565477,-6.8916326,0.17047337,1004.0604,0,0
40.4,7.042626400000001,-6.9345326,0.24149334,1004.07526,0,0
40.44,6.813239,-7.0918303,0.18941882,1004.0804,0,0
40.48,6.732028,-7.0679979999999984,0.07579729,1004.0677,0,0
40.52,6.7846518,-7.2491283,0.17995837,1004.0726,0,0
40.56,6.746455999999999,-7.239596400000001,0.3456665,1004.0675699999999,0,0
40.6,6.754330599999999,-7.0774919999999995,0.39759076,1004.08,0,0
40.64,6.754307700000001,-7.0679584,0.2318845,1004.05255,0,0
40.68,6.8020806,-7.139456299999999,0.22241335,1004.0704300000001,0,0
40.72,6.8307366,-6.8963614,0.30763057,1004.0627,0,0
40.76,7.0362444,-6.9487929999999976,0.32656598,1004.09265,0,0
40.8,6.9358429999999975,-7.0631895,0.48753342,1004.0649,0,0
40.84,6.9644995,-7.082255,0.50646895,1004.0447,0,0
40.88,7.0696309999999984,-6.8677597000000015,0.49699798,1004.06476,0,0
40.92,7.2177820000000015,-6.8200936,0.47805825,1004.0700699999999,0,0
40.96,7.246438499999999,-6.7581277,0.36916488,1004.0719,0,0
41.0,7.0408826,-6.824859,0.302881,1004.0699,0,0
41.04,6.7253914,-7.1871165999999995,0.34075403,1004.0977,0,0
41.08,6.586755,-7.2490809999999986,0.49225295,1004.05945,0,0
41.12,6.6393070000000005,-7.434976,0.38809368,1004.08234,0,0
41.16,6.835254700000001,-7.3825436,0.2839346,1004.08,0,0
41.2,6.949942599999999,-7.0345845,0.24605682,1004.08234,0,0
41.24,6.6870337,-7.1537479999999976,0.080350906,1004.0799,0,0
41.28,6.5675149999999975,-7.182347,0.23184963,1004.0948,0,0
41.32,6.567492,-7.1346803,0.17976913,1004.0973,0,0
41.36,6.6439447,-7.230011,0.1513605,1004.0969,0,0
41.4,6.8781314,-7.053648,0.21763995,1004.05164,0,0
41.44,6.9259057,-6.9821490000000015,0.36440429999999996,1004.07715,0,0
41.48,6.8589654000000015,-6.9249496,0.3549334,1004.0744,0,0
41.52,6.8302565,-6.986914,0.44488436,1004.0641,0,0
41.56,6.7920000000000025,-7.0441119999999975,0.53010195,1004.08655,0,0
41.6,6.9071617,-6.948792,0.5632836999999999,1004.08154,0,0
41.64,6.9453955,-6.9964576,0.44492313,1004.0766,0,0
41.68,6.983629,-6.967859,0.3928442,1004.0866,0,0
41.72,6.8736887000000015,-7.015524,0.29815567,1004.0666,0,0
41.76,6.754189,-7.0012235999999985,0.18452954,1004.0740400000001,0,0
41.8,6.6777067,-7.0727224,0.2602795,1004.0588,0,0
41.84,6.763737700000001,-7.168053,0.13718452,1004.0941,0,0
41.88,6.801971400000001,-7.129921,0.31709146,1004.0666,0,0
41.92,6.830647,-7.015523,0.26974708,1004.0869,0,0
41.96,6.854539999999999,-6.996456599999999,0.23660569,1004.06635,0,0
42.0,6.911892999999999,-7.0393558,0.26027733,1004.07135,0,0
42.04,6.931008,-6.9821568,0.29815215,1004.07385,0,0
42.08,6.8832045,-7.087021000000001,0.383371,1004.0436,0,0
42.12,6.959675,-6.986923,0.39757362,1004.066,0,0
42.16,6.911872,-6.991689699999999,0.42124520000000004,1004.06616,0,0
42.2,6.8592889999999995,-7.001222,0.32655662,1004.0988,0,0
42.24,6.8353853,-7.0345883,0.30288416,1004.071,0,0
42.28,6.916637,-7.0298214,0.27447724,1004.0785,0,0
42.32,6.930973,-6.9249573,0.2508049,1004.0984,0,0
42.36,6.8305902000000005,-6.9726224000000006,0.30761716,1004.08136,0,0
42.4,6.7541084000000025,-7.1108522,0.31235114,1004.071,0,0
42.44,6.7780023,-7.0536537,0.39283556,1004.06573,0,0
42.48,6.8305755,-7.0631866,0.37863192,1004.081,0,0
42.52,6.9261669999999995,-6.948789,0.29814655,1004.0559699999999,0,0
42.56,6.8210063,-7.0536532,0.31708372,1004.06854,0,0
42.6,6.788869,-7.1108847000000015,0.37401754,1004.0433,0,0
42.64,6.8223759999999976,-7.1156526,0.39769396,1004.0481599999999,0,0
42.68,6.965814999999999,-6.9583573,0.22725952,1004.0857,0,0
42.72,6.95631,-6.9345255,0.22253009999999998,1004.07074,0,0
42.76,6.946791999999999,-6.9631257,0.25567478,1004.0557,0,0
42.8,6.9659595,-7.0393925,0.24621038,1004.0757,0,0
42.84,6.8990936000000005,-7.02986,0.2651527,1004.078,0,0
42.88,6.8561233999999995,-7.0536942,0.33143878,1004.0653699999999,0,0
42.92,6.875285000000001,-7.0965940000000005,0.25095776,1004.08325,0,0
42.96,6.822758,-7.1156619999999995,0.25096244,1004.0856,0,0
43.0,6.8467020000000005,-7.0536976,0.24149777,1004.0804,0,0
43.04,6.932787400000001,-6.958367999999999,0.28411183,1004.0653699999999,0,0
43.08,6.985410000000001,-7.010801,0.21783429999999998,1004.10114,0,0
43.12,6.9328833,-6.9250039999999995,0.15155731,1004.08105,0,0
43.16,6.8899107000000015,-7.077535000000001,0.23204629,1004.08075,0,0
43.2,6.8373814,-7.0346375,0.25572276,1004.05505,0,0
43.24,6.8565454,-7.039405,0.22732048,1004.0581,0,0
43.28,6.794459,-7.039406,0.37409169999999997,1004.06256,0,0
43.32,6.7658252999999995,-7.077539999999999,0.42143990000000003,1004.0776,0,0
43.36,6.660717999999999,-7.0680074999999984,0.31255302,1004.0754,0,0
43.4,6.6703258000000005,-7.149039999999999,0.35516706,1004.0903300000001,0,0
43.44,6.6608085999999975,-7.1585746,0.36463973,1004.0673,0,0
43.48,6.6847587,-7.27774,0.19894023,1004.06506,0,0
43.52,6.7182627,-7.2157755,0.23208517,1004.0701,0,0
43.56,6.751766,-7.053714,0.17054208,1004.0701,0,0
43.6,6.888978999999999,-6.920216,0.11833534,1004.0596300000001,0,0
43.64,7.0036836,-6.820117999999999,0.05205269,1004.07275,0,0
43.68,7.104050599999999,-6.9011493,0.20355281,1004.0623,0,0
43.72,6.9845443,-7.1537766000000005,0.37872478,1004.0773300000001,0,0
43.76,6.9032784,-7.10611,0.426068,1004.0646,0,0
43.8,6.931947,-6.9821800000000005,0.33137897,1004.0673,0,0
43.84,6.960615,-6.963113000000001,0.36925325,1004.0545699999999,0,0
43.88,6.9940643,-7.0012455000000005,0.39292437,1004.0796,0,0
43.92,6.888899,-7.0203114,0.29823536,1004.0545699999999,0,0
43.96,6.9797053,-7.07751,0.27929688,1004.08734,0,0
44.0,6.903219,-7.2729387,0.43553135,1004.044,0,0
44.04,6.7263556,-7.1299414999999975,0.42132717,1004.0568,0,0
44.08,6.726344999999999,-7.2205059999999985,0.2934973,1004.06934,0,0
44.12,6.554262,-7.0632095,0.28876194,1004.0768400000001,0,0
44.16,6.611610400000001,-7.125175,0.32663634,1004.0896,0,0
44.2,6.721536,-7.244338000000001,0.3266354,1004.0644,0,0
44.24,6.7645445,-7.3349023,0.31243134,1004.08655,0,0
44.28,6.683277599999999,-7.4064007,0.26035193,1004.0615,0,0
44.32,6.7454057,-7.258637400000001,0.16566297,1004.0690300000001,0,0
44.36,6.7692943,-6.9678770000000005,0.0804427,1004.0691,0,0
44.4,6.6354494000000015,-7.196671,0.16566107,1004.05396,0,0
44.44,6.568522,-7.349201,0.3834428,1004.0415,0,0
44.48,6.644989999999999,-7.311068,0.54441166,1004.0690300000001,0,0
44.52,6.740576299999999,-7.1776047000000025,0.5538797,1004.08655,0,0
44.56,6.9460974,-7.0870395,0.5254722,1004.03894,0,0
44.6,6.9181646999999975,-7.010793,0.34089878,1004.044,0,0
44.64,6.8990655,-7.048926,0.13258682,1004.0465,0,0
44.68,6.6218557,-7.2777210000000006,0.14205737,1004.0663,0,0
44.72,6.6218762,-7.158557400000001,0.21307529999999997,1004.0289,0,0
44.76,6.6505756,-7.087060000000001,0.22728036,1004.0487699999999,0,0
44.8,6.793989999999999,-7.001262,0.15626615,1004.03076,0,0
44.84,6.784451,-7.0250955,0.3409098,1004.0309,0,0
44.88,6.8274880000000016,-7.177625999999999,0.39772442,1004.05365,0,0
44.92,6.870527,-7.1299604999999975,0.36931986,1004.0534,0,0
44.96,7.066519,-7.001264,0.31250885,1004.0638,0,0
45.0,7.042636,-6.877333999999999,0.24622868,1004.04364,0,0
45.04,6.9279447,-6.882101,0.23202753,1004.0559,0,0
45.08,6.880164999999999,-6.9583664,0.14681,1004.0408,0,0
45.12,6.7941484,-7.0679975000000015,0.28884402,1004.0131,0,0
45.16,6.8706460000000025,-7.0775312999999995,0.47348768,1004.0509599999999,0,0
45.2,6.9423637000000005,-7.039399,0.3645982,1004.0709,0,0
45.24,6.908925,-7.206228999999999,0.5208354000000001,1004.0555400000001,0,0
45.28,6.8468065000000005,-7.0489335,0.42141467,1004.0155,0,0
45.32,7.0236797000000015,-6.6437774,0.33146283,1004.01025,0,0
45.36,7.0093594,-6.7820077,0.30779257,1004.0555400000001,0,0
45.4,6.698692299999999,-7.0489354,0.49243623,1004.02075,0,0
45.44,6.76085,-7.168099400000001,0.572923,1004.0274699999999,0,0
45.48,6.689172,-7.230066000000001,0.5634559,1004.0356400000001,0,0
45.52,6.923404,-6.929773,0.38355047,1004.073,0,0
45.56,6.9664416,-6.872574,0.29359853,1004.05066,0,0
45.6,6.8417454,-7.1394915999999995,0.45452973,1004.0309,0,0
45.64,6.6887940000000015,-7.0155606,0.35510746,1004.03015,0,0
45.68,6.8274107000000015,-7.0393940000000015,0.3503733,1004.0426,0,0
45.72,6.7174783,-7.0632267,0.38351437,1004.03754,0,0
45.76,6.846535,-6.9392960000000015,0.25568566,1004.0655,0,0
45.8,6.822639,-7.087060000000001,0.29356113,1004.0255,0,0
45.84,6.7700634000000015,-7.172857799999999,0.37878063,1004.0576,0,0
45.88,6.946919,-6.9392962,0.31723365,1004.0600599999999,0,0
45.92,7.0138383,-6.948829700000001,0.27462417,1004.06,0,0
45.96,6.817868700000001,-7.006028,0.3314373,1004.0426,0,0
46.0,6.85133,-7.1204257,0.4166568,1004.0503,0,0
46.04,6.712718,-7.1537914,0.43559468,1004.0378,0,0
46.08,6.8656745,-6.982196000000001,0.40718845,1004.04474,0,0
46.12,6.927814,-6.982196000000001,0.44979832,1004.0221,0,0
46.16,6.760524,-7.025094999999999,0.53028345,1004.05475,0,0
46.2,6.8609023,-7.144259,0.4497988000000001,1004.03723,0,0
46.24,6.9756193,-7.106126299999999,0.4592678,1004.0369999999999,0,0
46.28,6.942164,-7.0822935,0.45453364,1004.0269999999999,0,0
46.32,6.918267999999999,-6.9631295,0.28882974,1004.05225,0,0
46.36,6.8513527000000005,-7.125192599999999,0.29829875,1004.05475,0,0
46.4,6.8848142999999995,-7.048928,0.42139350000000003,1004.0145,0,0
46.44,6.908714999999999,-7.048928,0.40245607,1004.0319999999999,0,0
46.48,6.9134974,-6.953597,0.36458114,1004.0447,0,0
46.52,6.774886,-7.106127000000001,0.38351896,1004.0545,0,0
46.56,6.837026,-7.0965934000000015,0.58236426,1004.0672599999999,0,0
46.6,6.869853999999999,-7.0107803,0.66752577,1004.04706,0,0
46.64,6.831597,-7.1490100000000005,0.5633670999999999,1004.0492,0,0
46.68,6.841135,-6.9964794999999995,0.4828803,1004.0295,0,0
46.72,7.0514193,-7.1156429999999995,0.40712735,1004.0495,0,0
46.76,7.21869,-7.373036999999999,0.51128215,1004.0495,0,0
46.8,7.0752745,-7.3158369999999975,0.47340497,1004.0392,0,0
46.84,7.204303299999999,-7.0918083,0.20354153,1004.0319999999999,0,0
46.88,7.1708229999999995,-7.125174,0.24614921,1004.0519400000001,0,0
46.92,7.0608664,-7.2300377000000005,0.64857167,1004.0822,0,0
46.96,6.998705999999999,-7.1919045,0.7101168999999999,1004.06476,0,0
47.0,7.041701299999999,-7.2491026,0.43078488,1004.04926,0,0
47.04,7.1038175,-7.2252693,0.43551734,1004.0168,0,0
47.08,7.1181339999999995,-7.2443347000000005,0.42131203,1004.0438,0,0
47.12,7.1228929999999995,-7.334899000000001,0.4307789000000001,1004.0591,0,0
47.16,7.170667599999999,-7.3253655,0.3408231,1004.0438,0,0
47.2,6.8838577,-7.382563,0.39289959999999996,1004.0292400000001,0,0
47.24,6.926852,-7.5541587,0.34555334,1004.04675,0,0
47.28,7.227958,-7.3587294000000005,0.364489,1004.0413,0,0
47.32,7.270952,-7.3634960000000005,0.5065189,1004.03174,0,0
47.36,7.423885,-7.210965,0.4591729000000001,1004.0566,1,3
47.4,7.3426046000000005,-7.3253619999999975,0.60593736,1004.0413,1,3
47.44,7.299564,-7.5160240000000025,0.51124716,1004.0337,1,3
47.48,7.447715,-7.4111585999999985,0.440229,1004.0437,1,3
47.52,7.342538,-7.4635906,0.77636975,1004.0388,1,3
47.56,7.323398599999999,-7.439757000000001,0.5964606,1004.0284,1,3
47.6,7.3631277000000015,-7.3492293,0.29359509999999994,1004.0234,1,3
47.64,7.238892999999999,-7.454095,0.3409429,1004.0084,1,3
47.68,7.3679833,-7.473161699999999,0.58240074,1004.0238,1,3
47.72,7.2198477,-7.606625599999999,0.7197020000000001,1004.0312,1,3
47.76,7.2342252999999985,-7.435030999999999,0.60607976,1004.0312,1,3
47.8,7.2820616,-7.4350320000000005,0.57294244,1004.0359,1,3
47.84,7.191283,-7.516064599999999,0.54927385,1004.0084,1,3
47.88,7.3203735,-7.5208315999999975,0.6155588000000001,1004.0284,1,3
47.92,7.459026,-7.3873690000000005,0.3172948,1004.02094,1,3
47.96,7.325227000000001,-7.3778367,0.3693765,1003.99335,1,3
48.0,7.291803999999999,-7.406436999999999,0.33623895,1003.9934,1,3
48.04,7.258386,-7.5113020000000015,0.4261963,1004.0437,1,3
48.08,7.454396000000001,-7.3921394,0.5114191,1004.0134,1,3
48.12,7.483113,-7.3969064,0.45934415,1004.0029,1,3
48.16,7.4640309999999985,-7.277744,0.49722287,1004.0234,1,3
48.2,7.182061,-7.2920440000000015,0.43094465,1004.0158,1,3
48.24,6.938327,-7.425509,0.37886944,1004.0233,1,3
48.28,6.900124000000001,-7.4779425,0.6534681999999999,1003.99084,1,3
48.32,7.091354400000001,-7.4731765,0.82391024,1004.0084,1,3
48.36,7.3208210000000005,-7.3873796,0.71975666,1003.9959,1,3
48.4,7.1487856,-7.334948,0.4167582,1003.97546,1,3
48.44,7.115362599999999,-7.392147500000001,0.36468303,1003.9780000000001,1,3
48.48,7.2970380000000015,-7.253918,0.2984053,1004.00085,1,3
48.52,7.3018537,-7.2539190000000024,0.30314294,1003.9680000000001,1,3
48.56,7.191953999999999,-7.334952,0.4830536,1003.9605,1,3
48.6,7.072088000000001,-7.339709299999999,0.50195724,1003.9426,1,3
48.64,6.9956309999999995,-7.201478999999999,0.5445687,1003.95294,1,3
48.68,7.1390467000000015,-7.1871800000000015,0.56350833,1003.9301,1,3
48.72,6.990892999999999,-7.0823164000000025,0.5019629,1003.9455,1,3
48.76,6.9478965,-7.1299825,0.42148003,1003.94525,1,3
48.8,6.880999,-7.3778440000000005,0.42148188,1003.93304,1,3
48.84,6.8905807,-7.182416,0.40254626,1003.9229,1,3
48.88,6.971858999999999,-7.115685000000001,0.4735643,1003.9022,1,3
48.92,6.8810625,-7.1395183000000015,0.46883172,1003.9203,1,3
48.96,6.9002047000000015,-7.172884,0.51617783,1003.9177,1,3
49.0,6.8858852,-7.287282,0.42622605,1003.9102,1,3
49.04,6.823769599999999,-7.4016800000000025,0.42149359999999997,1003.88525,1,3
49.08,6.876369500000001,-7.234850999999999,0.43096438,1003.8947,1,3
49.12,6.8763895,-7.0870885999999995,0.2368556,1003.88745,1,3
49.16,6.809493499999999,-7.139521,0.37415534,1003.88745,1,3
49.2,6.847755,-7.2682185,0.5114552,1003.85474,1,3
49.24,6.819096000000001,-7.2777524000000025,0.5161914000000001,1003.8623,1,3
49.28,6.8955936,-7.1967216,0.5777405,1003.8797599999999,1,3
49.32,6.8430386,-6.9297949999999995,0.3410224,1003.8525,1,3
49.36,6.8000393,-6.8678300000000005,0.2273984,1003.8723,1,3
49.4,6.795281,-7.0584926999999995,0.4499174,1003.8523,1,3
49.44,6.852661599999999,-7.082325999999999,0.46885709999999997,1003.83734,1,3
49.48,6.857461,-7.182424,0.52567184,1003.85425,1,3
49.52,6.7810063,-7.0203619999999995,0.40731367,1003.8471,1,3
49.56,6.69021,-7.001296000000001,0.38364349999999997,1003.8423,1,3
49.6,6.703564,-7.172867999999999,0.45930383,1003.8471,1,3
49.64,6.732222999999999,-7.1824,0.47350517,1003.8298300000001,1,3
49.68,6.6652865000000014,-7.253897999999999,0.4403626,1003.8368,1,3
49.72,6.674828,-7.2252984,0.45456415,1003.8272,1,3
49.76,6.722606,-7.2395973,0.2320453,1003.8343,1,3
49.8,6.7130300000000025,-7.2443643,0.28412226,1003.8272,1,3
49.84,6.9281025,-7.0394015,0.32673013,1003.80145,1,3
49.88,6.99978,-6.91547,0.34566605,1003.7969400000001,1,3
49.92,6.8754873,-6.8630375999999975,0.4592901,1003.8117699999999,1,3
49.96,6.689056,-7.0632334000000006,0.5350388,1003.81714,1,3
50.0,6.6794777000000005,-7.0965979999999975,0.5303026999999999,1003.79675,1,3
50.04,6.7272563,-7.101364,0.6297234,1003.7993,1,3
50.08,6.741579,-7.0250993,0.5160962,1003.78217,1,3
50.12,6.636403,-7.0679975000000015,0.5208287,1003.79175,1,3
50.16,6.645944,-7.134728999999999,0.4072013,1003.7644,1,3
50.2,6.688944,-7.249125999999999,0.37405887,1003.73895,1,3
50.24,6.7176029999999995,-7.358756,0.45454186,1003.7639999999999,1,3
50.28,6.794061999999999,-7.1633267000000025,0.36458653,1003.7411,1,3
50.32,6.8753,-7.0012636,0.34091279999999996,1003.75635,1,3
50.36,6.7414460000000025,-7.2252913,0.492412,1003.7639999999999,1,3
50.4,6.7031884,-7.210991,0.6155048000000001,1003.76636,1,3
50.44,6.860904,-7.0870605,0.5066118,1003.73145,1,3
50.48,6.9182444000000025,-6.944063000000001,0.3787813,1003.7389,1,3
50.52,6.779609,-6.9774284,0.5018739000000001,1003.7189300000001,1,3
50.56,6.7700334,-6.986961,0.49240363,1003.7209,1,3
50.6,6.6896358,-6.848752,0.3409813,1003.68335,1,3
50.64,6.6992119999999975,-6.9154839999999975,0.37412366,1003.70844,1,3
50.68,6.708786999999999,-6.9154843999999995,0.49248517,1003.7135599999999,1,3
50.72,6.622769,-6.972683999999999,0.39306438,1003.7414,1,3
50.76,6.6801424,-6.9250183000000005,0.43094105,1003.701,1,3
50.8,6.5797815,-6.934552,0.44041124,1003.7036,1,3
50.84,6.6180367,-6.9393187,0.44988155,1003.6886599999999,1,3
50.88,6.646731,-6.8725869999999984,0.52563345,1003.6759599999999,1,3
50.92,6.656307000000001,-6.9250197,0.41674367,1003.69604,1,3
50.96,6.6180863,-6.896421000000001,0.47829252,1003.69855,1,3
51.0,6.732817,-6.6962266,0.36466822,1003.68115,1,3
51.04,6.7471770000000015,-6.681927000000001,0.38834214,1003.6558,1,3
51.08,6.6133585,-6.658094999999999,0.4167501,1003.6936599999999,1,3
51.12,6.670732000000001,-6.681928,0.4120170999999999,1003.6809,1,3
51.16,6.6659646,-6.61043,0.4120182,1003.66583,1,3
51.2,6.5656095,-6.581831,0.46409854,1003.67615,1,3
51.24,6.4939230000000014,-6.5818315,0.46409962,1003.6508,1,3
51.28,6.4318066,-6.600898,0.41202304,1003.64624,1,3
51.32,6.4461627,-6.577066,0.49724382,1003.6484,1,3
51.36,6.4891977,-6.562766000000001,0.39782286,1003.6434300000001,1,3
51.4,6.446194599999999,-6.5723,0.3410114,1003.64124,1,3
51.44,6.3840694000000004,-6.6437984,0.37415338,1003.6534,1,3
51.48,6.3458514,-6.662864999999999,0.33628002,1003.6408,1,3
51.52,6.4271235,-6.758196400000001,0.38362545,1003.6029699999999,1,3
51.56,6.508393,-6.648566199999999,0.3836266,1003.6303,1,3
51.6,6.6756100000000025,-6.5722995,0.36468208,1003.6029699999999,1,3
51.64,6.6708446,-6.4483690000000005,0.3646833,1003.6357,1,3
51.68,6.4509854,-6.5770669999999996,0.46884129999999996,1003.6179,1,3
51.72,6.14987,-6.815395,0.5729993,1003.58514,1,3
51.76,5.987368599999999,-7.053723,0.6156100999999999,1003.61285,1,3
51.8,6.1833534000000006,-6.748664,0.3504846,1003.6052,1,3
51.84,6.4462550000000025,-6.2767754,0.17531276,1003.6282,0,0
51.88,6.216837,-6.824928999999999,0.5493319000000001,1003.5980000000001,0,0
51.92,6.216849,-6.9869924,0.52566093,1003.5902,0,0
51.96,6.6661625,-6.667633500000001,0.5114588,1003.60046,0,0
52.0,6.80479,-6.357807599999999,0.29841185,1003.5830000000001,0,0
52.04,6.6422887,-6.443606,0.46885150000000003,1003.6075,0,0
52.08,6.3029356,-6.891662599999999,0.62508804,1003.58246,0,0
52.12,6.2455907,-6.6390350000000025,0.35996252,1003.60535,0,0
52.16,6.2503824,-6.8010990000000024,0.46885493,1003.6076,0,0
52.2,6.283853,-6.9250293,0.39310559999999994,1003.6,0,0
52.24,6.508516999999999,-6.8392315,0.5682796999999999,1003.5924699999999,0,0
52.28,6.6375836999999995,-6.5866039999999995,0.2700134,1003.5748,0,0
52.32,6.656715400000001,-6.653336,0.27948332,1003.5872,0,0
52.36,6.403397,-6.8868979999999995,0.5824863,1003.5649400000001,0,0
52.4,6.3795114,-6.810633,0.5209402,1003.595,0,0
52.44,6.365184999999999,-7.001296000000001,0.59195745,1003.5922,0,0
52.48,6.5181510000000005,-6.834467,0.4167856,1003.5919,0,0
52.52,6.4082274,-6.8392334,0.5398812,1003.6024,0,0
52.56,6.3843412000000015,-6.953631,0.5114759,1003.5822,0,0
52.6,6.4268985,-6.920253999999999,0.48776179999999997,1003.5924699999999,0,0
52.64,6.3456364,-7.1109160000000005,0.49249566,1003.5847,0,0
52.68,6.355189,-7.115683,0.50669825,1003.6024,0,0
52.72,6.43166,-7.101383,0.56824493,1003.61,0,0
52.76,6.5846076,-6.734358,0.4546187,1003.5797,0,0
52.8,6.6419587,-6.9679193,0.49722776,1003.595,0,0
52.84,6.7279887,-7.0155845,0.5019615,1003.57916,0,0
52.88,6.785340299999999,-7.201479400000001,0.5351018,1003.6023,0,0
52.92,6.7996735999999975,-7.120448,0.41674113,1003.572,0,0
52.96,6.7901077,-6.963152,0.3551933,1003.59973,0,0
53.0,6.7662024,-6.8439875,0.31258312,1003.5945,0,0
53.04,6.823554,-6.925019,0.5635060000000001,1003.5869,0,0
53.08,6.7231727,-7.1347475000000005,0.74341285,1003.5993699999999,0,0
53.12,6.727945299999999,-7.120447,0.6629274000000001,1003.61224,0,0
53.16,6.6323433000000005,-7.2062453999999985,0.59191066,1003.5866,0,0
53.2,6.536741,-7.1395135,0.44040912,1003.5993699999999,0,0
53.24,6.6084312999999995,-7.172878999999999,0.34572053,1003.6042,0,0
53.28,6.661003,-7.153813,0.4262048,1003.5995,0,0
53.32,6.7565928,-7.034649000000001,0.40253225,1003.60474,0,0
53.36,6.890421000000001,-7.039414999999999,0.33624998,1003.5917,0,0
53.4,6.7757,-7.0537148,0.38359344,1003.60724,0,0
53.44,6.766134,-7.0584807000000005,0.49721859999999996,1003.59924,0,0
53.48,6.823486,-7.0584807000000005,0.57296854,1003.5942,0,0
53.52,6.813919500000001,-6.982216,0.44987342,1003.6116300000001,0,0
53.56,6.880831,-7.0727806,0.568233,1003.6017,0,0
53.6,6.8188443,-6.9440875,0.46882436,1003.6195,0,0
53.64,6.909661,-6.958386999999999,0.44041790000000003,1003.607,0,0
53.68,6.866642999999999,-6.9679199999999994,0.39780828,1003.5942,0,0
53.72,6.890542,-7.053717599999999,0.4262147,1003.60455,0,0
53.76,6.8714223,-7.053717599999999,0.2510417,1003.5917,0,0
53.8,6.895321400000001,-7.0060515,0.24157289999999998,1003.59924,0,0
53.84,6.8762026,-7.0727839999999995,0.4451523,1003.5815,0,0
53.88,6.9670186,-6.977452799999999,0.33152659999999995,1003.6039400000001,0,0
53.92,6.9144406,-6.977452799999999,0.312589,1003.5815,0,0
53.96,6.943119500000001,-6.963153,0.36940184,1003.6067,0,0
54.0,6.9383396999999984,-6.996519,0.29365134,1003.579,0,0
54.04,6.9287800000000015,-6.977452799999999,0.26051053,1003.6217,0,0
54.08,7.0291557000000005,-6.929787599999999,0.27944815,1003.5835599999999,0,0
54.12,6.9670186,-6.886888000000001,0.23683849,1003.59906,0,0
54.16,6.962239,-6.8964214,0.32205778,1003.6167,0,0
54.2,6.9478993000000004,-6.8344564,0.29365134,1003.60913,0,0
54.24,6.986138,-6.820156599999999,0.2557761,1003.5966,0,0
54.28,6.976578,-6.858289,0.36466745,1003.60913,0,0
54.32,6.943119500000001,-6.7248254,0.32205778,1003.5815,0,0
54.36,6.814064999999999,-6.929787599999999,0.23683849,1003.60144,0,0
54.4,6.790166,-7.077551,0.35046422,1003.57605,0,0
54.44,6.8523035000000005,-7.0108185,0.18002564,1003.5657,0,0
54.48,6.900100999999999,-6.853523,0.004852670999999999,1003.5939300000001,0,0
54.52,6.8857617,-6.848756,0.15635362,1003.6114,0,0
54.56,6.9526787,-6.858289,0.1279472,1003.5939300000001,0,0
54.6,7.0005713000000025,-6.8678240000000015,0.19423747,1003.59106,0,0
54.64,7.0866117,-6.786792999999999,0.28892592,1003.6086,0,0
54.68,7.057936,-7.006054400000001,0.31733274,1003.6036,0,0
54.72,7.091399000000001,-7.034654,0.45936520000000003,1003.60895,0,0
54.76,7.196558500000001,-6.748661,0.12322280000000001,1003.6011,0,0
54.8,7.1200852,-6.519866,-0.023543417,1003.5736699999999,0,0
54.84,7.124869,-6.7009954,0.39781895,1003.59106,0,0
54.88,7.0722947,-6.7295947,0.6724148,1003.596,0,0
54.92,6.986262,-7.144285000000001,0.64874303,1003.60144,0,0
54.96,6.8476505,-7.144285000000001,0.42149198,1003.60144,0,0
55.0,7.077086,-6.7438946,0.15636566,1003.6036,0,0
55.04,7.0866494000000015,-6.8201594,0.09008434400000001,1003.59106,0,0
55.08,6.9814973,-6.939324000000001,0.2889297,1003.6010000000001,0,0
55.12,6.8476663,-7.158585499999999,0.36468053,1003.6161,0,0
55.16,7.101,-6.853526,0.36468083,1003.58826,0,0
55.2,7.019747,-6.9202580000000005,0.46883807,1003.6011,0,0
55.24,6.8715773,-6.996523,0.39782247,1003.6086,0,0
55.28,6.780765,-7.1681194,0.44043246,1003.6079,0,0
55.32,6.8190064,-7.1490526,0.28419733,1003.6061,0,0
55.36,7.0293220000000005,-6.9154916,0.3268074,1003.5932,0,0
55.4,7.120141499999999,-6.925024499999999,0.2557916,1003.6136,0,0
55.44,7.1775036,-6.6628647,0.26526079999999996,1003.5981400000001,0,0
55.48,7.1822862999999995,-6.8344603,0.43569967,1003.5932,0,0
55.52,6.5561357000000005,-7.549444,0.8712653,1003.5880000000001,0,0
55.56,6.986323,-6.553234,0.18951139,1003.60065,0,0
55.6,7.317497,-6.538968,-0.051818054,1003.6106,0,0
55.64,6.820456,-7.001325,0.28433,1003.60065,0,0
55.68,6.8683119999999995,-6.958428,0.5210556,1003.6079,0,0
55.72,6.7966547,-7.010861,0.22752616,1003.5907,0,0
55.76,6.6724496,-7.187225,0.3364238,1003.6156599999999,0,0
55.8,6.5338936,-7.253957700000001,0.47846130000000003,1003.59296,0,0
55.84,6.615194,-7.2396600000000015,0.40271485,1003.5880000000001,0,0
55.88,6.925953999999999,-7.2301283,0.36484626,1003.59546,0,0
55.92,6.839972500000001,-7.2205963,0.42639852,1003.59296,0,0
55.96,6.9738507,-6.8345065,0.32224566,1003.59564,0,0
56.0,6.644117,-7.015637400000001,0.3269867,1003.5976,0,0
56.04,6.3621669999999995,-7.3683643,0.43114895,1003.5751300000001,0,0
56.08,6.5342946,-7.373132000000001,0.6962805999999999,1003.59546,0,0
56.12,7.002773299999999,-7.072839999999999,0.58266026,1003.59784,0,0
56.16,7.198786,-6.8249803,0.40275654,1003.6126,0,0
56.2,6.9264135,-6.891714,0.32701308,1003.5701,0,0
56.24,6.6731386,-7.101444,0.39329976,1003.6029699999999,0,0
56.28,6.644514599999999,-7.4208045,0.41697678,1003.59546,0,0
56.32,6.8118696,-7.4637046,0.18973103,1003.5976,0,0
56.36,7.0939326000000005,-7.1300473,0.26075210000000004,1003.6106599999999,0,0
56.4,7.127446000000001,-6.829756,0.3601796,1003.5751300000001,0,0
56.44,6.711661299999999,-7.020419599999999,0.19921517,1003.5825,0,0
56.48,6.4440503,-7.211083,0.21815816,1003.6123,0,0
56.52,6.7308974,-7.144353,0.49749340000000003,1003.5874,0,0
56.56,6.826548599999999,-7.072856,0.540108,1003.5950300000001,0,0
56.6,6.5711584,-7.1061710000000025,0.5257163,1003.5925,0,0
56.64,6.552015,-7.263466999999999,0.5683236,1003.61005,0,0
56.68,6.6523639999999995,-7.263466,0.5493836,1003.5945,0,0
56.72,6.8387485,-7.130002,0.35527040000000004,1003.5899,0,0
56.76,6.986897,-6.987004799999999,0.17062634,1003.5950300000001,0,0
56.8,6.9581940000000015,-6.9774704,0.18009284,1003.5950300000001,0,0
56.84,6.8099929999999995,-7.249164,0.350529,1003.5724,0,0
56.88,6.752609,-7.163365400000001,0.5588404,1003.6029699999999,0,0
56.92,6.8577375,-6.9774685,0.38366494,1003.5649,0,0
56.96,6.8385954,-6.958402,0.27003708,1003.5795,0,0
57.0,6.838566999999999,-6.963168,0.5256924,1003.582,0,0
57.04,6.8050814,-7.106164,0.57776845,1003.58484,0,0
57.08,6.7572565,-7.0584974,0.49728104,1003.5973,0,0
57.12,6.6711955000000005,-7.134761999999999,0.54935724,1003.5948,0,0
57.16,6.6950693,-7.1347613,0.5730270000000001,1003.587,0,0
57.2,6.7524004,-7.230092,0.47360206,1003.60004,0,0
57.24,6.785832400000001,-7.2253240000000005,0.44045877,1003.6048,0,0
57.28,6.8336034,-7.0870940000000004,0.37890905,1003.5919,0,0
57.32,6.814458,-7.044194,0.33629699999999996,1003.5999,0,0
57.36,6.7714149999999975,-7.0775595000000004,0.24634099999999998,1003.5846,0,0
57.4,6.7188106,-7.1681237000000015,0.35996428,1003.572,0,0
57.44,6.7331247,-7.3111196,0.41677487,1003.5768,0,0
57.48,6.8669324000000005,-7.1871886,0.32681873,1003.6024,0,0
57.52,7.1202354,-7.172888,0.35048833,1003.587,0,0
57.56,7.0102720000000005,-7.2348523,0.47831464,1003.5849,0,0
57.6,6.9490566,-6.872617,0.1896004,1003.61505,0,0
57.64,6.858252,-6.6247563,-0.03291561,1003.5691,0,0
57.68,6.6527313999999995,-6.929816199999999,0.36004105,1003.5891,0,0
57.72,6.5523663,-7.110945,0.8950296999999998,1003.59924,0,0
57.76,6.73879,-7.0918800000000015,0.6204353,1003.6195,0,0
57.8,6.738801,-7.1824445999999975,0.36951290000000003,1003.5794,0,0
57.84,6.7818312999999995,-7.1538460000000015,0.5967654,1003.5895,0,0
57.88,7.0542912,-7.001316,0.28903013,1003.6248,0,0
57.92,6.781852199999999,-7.068047999999999,0.009701172,1003.5919,0,0
57.96,6.528535,-7.2539434000000025,0.18487525,1003.597,0,0
58.0,6.920490299999999,-6.9774837,0.23222032,1003.5945,0,0
58.04,6.930061,-6.967952,0.34111264,1003.5919,0,0
58.08,7.1260443,-6.767755999999999,0.35058249999999996,1003.6041,0,0
58.12,6.930083,-6.948885400000001,0.55889726,1003.5917400000001,0,0
58.16,6.8105990000000025,-7.2062798,0.59677356,1003.5917400000001,0,0
58.2,7.092619,-7.149081,0.5778369999999999,1003.5866,0,0
58.24,7.0639515,-7.015617999999999,0.64885414,1003.5989400000001,0,0
58.28,7.0161643,-6.6676592999999995,0.33164993,1003.5815,0,0
58.32,6.7293878,-6.772524400000001,0.0049771294,1003.60693,0,0
58.36,6.514307,-7.0394516000000005,0.47368409999999994,1003.6293,0,0
58.4,6.6242547000000025,-6.8964553,0.658327,1003.5914,0,0
58.44,6.834577,-7.0156198000000005,0.23696601,1003.56396,0,0
58.48,6.748551400000001,-7.15385,0.57310975,1003.62195,0,0
58.52,6.9015164,-6.9584217000000015,0.53997,1003.6293,0,0
58.56,6.8107114,-7.2301154000000025,0.27010992,1003.6041,0,0
58.6,6.509941,-7.2968564,0.49739408,1003.5917400000001,0,0
58.64,6.9544883,-7.082361,-0.047060143,1003.60693,0,0
58.68,7.542428,-7.077595,-0.051792372,1003.5944,0,0
58.72,7.1744065,-6.9584327,0.46899435,1003.6014,0,0
58.76,7.1696544000000015,-6.701039,0.31276143,1003.60925,0,0
58.8,6.9880466,-6.672439999999999,0.12812196,1003.58136,0,0
58.84,6.6917224000000015,-7.125264,0.6299710000000001,1003.591,0,0
58.88,6.581813,-7.1252645999999995,0.72939587,1003.6089999999999,0,0
58.92,6.648755599999999,-7.096665400000001,0.4453339,1003.57104,0,0
58.96,6.6917987000000005,-7.20153,0.59210277,1003.5914,0,0
59.0,6.9403744000000005,-6.734408999999999,0.41693214,1003.61176,0,0
59.04,7.0885735,-6.801141,0.42166886,1003.5893,0,0
59.08,6.9977800000000006,-6.906006,0.30804518,1003.5891,0,0
59.12,7.036045599999999,-6.9727380000000005,0.35065725,1003.5939,0,0
59.16,6.9548115999999975,-7.0013380000000005,0.18968968,1003.5960699999999,0,0
59.2,7.1412516,-7.0680704,0.2465050000000001,1003.6164,0,0
59.24,7.0647984,-7.11097,0.42168018,1003.58606,0,0
59.28,7.0791636,-6.4579525,0.32226,1003.5888699999999,0,0
59.32,7.0170493,-6.4770193,-0.14644389,1003.5989,0,0
59.36,6.6107949999999995,-7.215836,0.7720332,1003.60895,0,0
59.4,6.873705999999999,-7.029941,0.8430513000000001,1003.6115,0,0
59.44,6.9502053,-6.7344155,0.70102125,1003.6215,0,0
59.48,6.8737555,-6.7773147,0.44063148,1003.5935,0,0
59.52,6.7112675,-7.039476,0.5400562,1003.6088,0,0
59.56,6.76865,-7.0966754000000005,0.69629395,1003.60345,0,0
59.6,6.9573216,-6.905950999999999,0.35045162,1003.5885,0,0
59.64,7.1675553,-6.729586,0.033239394,1003.5986,0,0
59.68,7.3299910000000015,-6.801083,0.22260852,1003.6189,0,0
59.72,7.090924,-7.1013740000000025,0.2083982,1003.5984,0,0
59.76,7.0430527000000005,-6.996508599999999,0.0048121773,1003.61597,0,0
59.8,7.1337914000000024,-6.8773427,0.11369641,1003.6014,0,0
59.84,7.0572424,-6.901173,0.27939394,1003.6139,0,0
59.88,6.918532000000001,-6.882105,0.44982365,1003.591,0,0
59.92,6.9710517,-6.9393020000000005,0.44508392,1003.6063,0,0
59.96,6.9088410000000025,-6.920234,0.5397654000000001,1003.6134599999999,0,0
60.0,6.880066,-6.801067999999999,0.63917905,1003.591,0,0
60.04,6.836989999999999,-6.896397599999999,0.44979754,1003.6139,0,0
60.08,6.8894759999999975,-6.9821935,0.41664827,1003.591,0,0
60.12,7.0805902000000005,-6.796295,0.47818848,1003.60596,0,0
60.16,7.042269,-6.9154572,0.24619511,1003.591,0,0
60.2,6.884483,-6.9678884000000005,0.24145584,1003.6084,0,0
60.24,6.8796062000000004,-6.958353,0.2793222,1003.6134599999999,0,0
60.28,6.846075,-6.84872,0.26984677,1003.6081,0,0
60.32,6.8555817999999995,-6.777220699999999,0.42134288,1003.6056,0,0
60.36,7.1327133,-6.767685,0.5823038,1003.591,0,0
60.4,7.041815,-7.110875,0.64384353,1003.6260000000001,0,0
60.44,6.9557014000000015,-7.2109710000000025,0.36450654,1003.5881,0,0
60.48,6.989087,-6.7962785000000006,-0.00478366,1003.5931,0,0
60.52,6.955551,-6.7104793,0.07095972,1003.60345,0,0
60.56,6.974593,-6.939271499999999,0.46864265,1003.60345,0,0
60.6,6.920746,-7.106186999999999,0.43108875,1003.6109,0,0
60.64,6.9399266000000015,-7.025157000000001,0.45950082,1003.60284,0,0
60.68,7.0833826,-6.701033,0.45477206,1003.5955,0,0
60.72,7.1169076,-6.696267999999999,0.47845012,1003.5903300000001,0,0
60.76,6.930561,-6.867866,0.5115970000000001,1003.591,0,0
60.8,6.863705,-7.0060972999999995,0.5968219,1003.58057,0,0
60.84,6.925912400000001,-6.9917994000000006,0.48793703,1003.59283,0,0
60.88,6.9307547000000005,-6.8535710000000005,0.45953628,1003.5780599999999,0,0
60.92,6.8973618000000005,-6.824973,0.30804133,1003.5952,0,0
60.96,6.8257270000000005,-7.0204034,0.39326626,1003.5804,0,0
61.0,6.8640265,-7.020405,0.25597417,1003.58057,0,0
61.04,6.892776,-6.772546000000001,0.019260345,1003.5977,0,0
61.08,6.9549747,-7.2063039999999985,0.16603255,1003.59283,0,0
61.12,6.8929076,-7.158639999999999,0.43590006,1003.59283,0,0
61.16,6.926428,-7.0680770000000015,0.63948506,1003.6078,0,0
61.2,6.912153999999999,-6.891716499999999,0.44538054,1003.6151,0,0
61.24,7.0269312999999975,-6.7058215,0.39804217,1003.60284,0,0
61.28,7.1464963,-6.7248898,0.5258775,1003.59283,0,0
61.32,6.9983807,-6.9489193,0.540086,1003.60535,0,0
61.36,6.955432000000001,-7.063318700000001,0.5921708000000001,1003.6180400000001,0,0
61.4,7.1084476,-6.9584556,0.36492506,1003.59265,0,0
61.44,6.979462599999999,-6.848826400000001,0.23710254,1003.61786,0,0
61.48,6.8887085999999975,-6.9584589999999995,0.23237379,1003.5776400000001,0,0
61.52,6.8122929999999995,-7.063325,0.24658267,1003.5952,0,0
61.56,6.8027997000000004,-7.0919256,0.19451025,1003.6253,0,0
61.6,6.9063473,-6.982255499999999,0.46422413,1003.6103,0,0
61.64,6.9206853000000015,-6.972722,0.41214556,1003.5978,0,0
61.68,6.829867999999999,-6.910757,0.46895829999999994,1003.6276,0,0
61.72,6.8203070000000015,-7.0346875,0.3790045,1003.5975300000001,0,0
61.76,6.925461299999999,-6.9870220000000005,0.549443,1003.6078,0,0
61.8,7.0927534,-6.662895699999999,0.21803452,1003.6226,0,0
61.84,6.9971559999999995,-6.8154259999999995,0.28431609999999996,1003.59265,0,0
61.88,6.9111185,-7.0013213000000025,0.38373846,1003.61255,0,0
61.92,7.0162725,-6.944122999999999,0.45948884,1003.60474,0,0
61.96,6.982813,-6.9774885,0.43108228,1003.5878,0,0
62.0,7.040169199999999,-7.0013213000000025,0.41687897,1003.61957,0,0
62.04,7.030608,-6.982255499999999,0.35059717,1003.5975300000001,0,0
62.08,7.0401664,-6.724861,0.07126715,1003.59265,0,0
62.12,7.0497255,-6.948889299999999,0.199096,1003.59015,0,0
62.16,6.944567999999999,-7.0680532000000005,0.22750229999999996,1003.6147,0,0
62.2,7.1644380000000005,-7.0537529999999995,0.37426874,1003.59467,0,0
62.24,7.0688405,-6.7582264000000025,0.39320624,1003.59515,0,0
62.28,6.968464,-6.8344913,0.08073541,1003.5921,0,0
62.32,6.7772703,-6.9202895,0.6346606,1003.5921,0,0
62.36,6.734250500000001,-6.8964567,0.67727023,1003.5869,0,0
62.4,6.7820472999999994,-7.0632863,0.5257691,1003.6022300000001,0,0
62.44,6.791606,-6.9584220000000006,0.38847128,1003.5997,0,0
62.48,6.944558,-7.006087299999999,0.6583321999999999,1003.62463,0,0
62.52,7.021034200000001,-7.034687,0.5020967000000001,1003.5973,0,0
62.56,7.0353723,-6.8583240000000005,0.2701108,1003.5971,0,0
62.6,7.1264715,-6.815432,0.05235406,1003.6051,0,0
62.64,6.839693,-7.201523299999999,0.24173119999999998,1003.5994,0,0
62.68,7.093032400000001,-6.672436,0.194388,1003.61725,0,0
62.72,7.2412160000000005,-6.6819695999999995,0.14704489999999998,1003.60455,0,0
62.76,6.8875210000000004,-6.967963,0.5305326,1003.60974,0,0
62.8,6.873191,-6.8869314,0.44531423,1003.61725,0,0
62.84,6.7680454,-7.3016224,0.3411582,1003.607,0,0
62.88,6.772835700000001,-7.2158240000000005,0.60628587,1003.57935,0,0
62.92,7.136111,-6.667670200000001,0.18019032,1003.6069,0,0
62.96,6.882789,-6.858333,0.17545664,1003.5922,0,0
63.0,6.949717999999999,-6.524675,0.099707246,1003.5943599999999,0,0
63.04,6.739416,-7.091895,0.56841415,1003.59955,0,0
63.08,6.8828210000000025,-7.1395607000000005,0.86668265,1003.6195,0,0
63.12,7.198297,-6.7582364,0.35536775,1003.60205,0,0
63.16,6.978436,-7.130028200000001,0.13285166,1003.57935,0,0
63.2,6.9688873,-6.753470399999999,0.038164556,1003.60187,0,0
63.24,7.0931716,-6.8202024,0.03343103,1003.60205,0,0
63.28,6.9880266,-7.015631699999999,0.4879348,1003.5892,0,0
63.32,7.169669,-6.477011,0.38377884,1003.6195,0,0
63.36,7.1314397,-6.7963705,0.29382595,1003.5893599999999,0,0
63.4,6.629571,-6.7630053,0.7293921999999999,1003.62445,0,0
63.44,6.930708,-6.710572999999999,0.09971723,1003.5971,0,0
63.48,6.873361,-7.554253599999999,0.42165774,1003.5971,0,0
63.52,6.968967,-7.1729293000000025,0.7909421999999999,1003.61975,0,0
63.56,7.2175259999999986,-6.5818768,-0.17960988,1003.61475,0,0
63.6,6.810623,-6.7343917,-0.18913545,1003.5941,0,0
63.64,6.758031,-7.1633806,0.3363822,1003.6143,0,0
63.68,7.149959599999999,-7.0680494000000005,0.39319366,1003.5941,0,0
63.72,7.106926400000001,-6.8535542000000005,0.14700319,1003.5966,0,0
63.76,6.8822613,-6.8392544000000015,0.13279869,1003.5939,0,0
63.8,6.934825,-6.8154210000000015,0.27956396,1003.5992,0,0
63.84,7.020844500000001,-6.8678527,0.4357977,1003.5939,0,0
63.88,6.9634724000000014,-6.810653,0.39318678,1003.5917,0,0
63.92,6.8917613,-6.948883500000001,0.3032318,1003.5967,0,0
63.96,6.915644599999999,-7.0585135999999995,0.43579376,1003.6041,0,0
64.0,6.949089,-6.8249526,0.36951074,1003.5994,0,0
64.04,6.829578999999999,-6.9584155,0.25114924,1003.6116300000001,0,0
64.08,6.733967999999999,-7.001314,0.33636716,1003.6017,0,0
64.12,6.8199887000000015,-7.010847,0.42631942,1003.60913,0,0
64.16,6.953808,-7.125244,0.38844278,1003.5913,0,0
64.2,7.011151299999999,-6.9155145000000005,0.29375342,1003.5859,0,0
64.24,7.0828342000000015,-6.753452,0.11384469,1003.5964,0,0
64.28,7.1879735,-6.8058834,0.12804644,1003.6166400000001,0,0
64.32,6.977647999999999,-7.1586084,0.35529658,1003.6112699999999,0,0
64.36,6.9107156000000005,-7.0251446,0.43578008,1003.58386,0,0
64.4,6.872461,-6.9107466,0.40737215,1003.6167,0,0
64.44,6.925024499999999,-7.025144,0.26533870000000004,1003.6087,0,0
64.48,7.034945,-7.2777705,0.56360483,1003.60913,0,0
64.52,7.1114073000000015,-7.020376700000001,0.3647585,1003.5962,0,0
64.56,7.149630499999999,-6.515121,-0.009260878,1003.5888,0,0
64.6,7.0594277000000005,-6.610467,-0.032876704,1003.6288,0,0
64.64,6.777429,-6.9012270000000004,0.48790870000000003,1003.6112699999999,0,0
64.68,6.691403,-7.163388,0.7293642,1003.6241,0,0
64.72,6.801348,-7.096656299999999,0.587333,1003.6188,0,0
64.76,6.9399757,-7.0442247,0.4595053,1003.6088,0,0
64.8,6.9830008,-7.034692,0.4500371,1003.5937,0,0
64.84,6.882637,-6.9393606,0.36481893,1003.6188,0,0
64.88,6.873088,-6.8201975999999975,0.15177168,1003.5964,0,0
64.92,6.8874345,-6.9488945000000015,0.17070994,1003.5935699999999,0,0
64.96,6.916125,-7.0251600000000005,0.28433678,1003.6063,0,0
65.0,6.8683380000000005,-7.2015224,0.42163549999999994,1003.5913,0,0
65.04,6.877905,-7.072825999999999,0.45477697,1003.6138,0,0
65.08,7.030867999999999,-6.743933,0.29380807,1003.5634,0,0
65.12,6.8874865000000005,-7.0918927,0.46898222,1003.6216,0,0
65.16,6.7823410000000015,-6.92983,0.43110790000000004,1003.5986300000001,0,0
65.2,6.9974427,-7.1872244000000025,0.28907675,1003.60834,0,0
65.24,6.863614999999999,-7.1633910000000025,0.5210632000000001,1003.5988,0,0
65.28,7.1312942999999995,-6.648604,0.2512031,1003.6186,0,0
65.32,7.0500484,-7.048994500000001,0.15178148,1003.6138,0,0
65.36,7.002262599999999,-7.0108630000000005,0.18965791,1003.6034,0,0
65.4,7.250822,-6.753468499999999,-0.18909363,1003.61115,0,0
65.44,7.2173734,-6.648605,-0.21276468,1003.5861,0,0
65.48,7.2126036,-6.5151415,0.26541102,1003.5984,0,0
65.52,6.830229300000001,-6.7677693,0.5778827,1003.6163,0,0
65.56,6.7633220000000005,-7.177693400000001,0.70097816,1003.5934,0,0
65.6,6.773270599999999,-7.1586365999999995,0.7199514,1003.5884,0,0
65.64,6.8688927,-6.7439466,0.58739036,1003.6134,0,0
65.68,6.8975964,-6.705814999999999,0.31753165,1003.6136,0,0
65.72,6.945418400000001,-6.7820800000000006,0.13762642,1003.5909,0,0
65.76,7.084058,-6.6486177,0.20864478,1003.57605,0,0
65.8,7.1079807,-6.915545,0.19917816,1003.62085,0,0
65.84,7.031531,-6.9060125,0.20864944,1003.6134,0,0
65.88,7.060233,-6.8726473,0.14710435,1003.6034,0,0
65.92,7.03636,-6.863115,0.28440443,1003.6084599999999,0,0
65.96,7.0650625,-6.8011503,0.27493779999999995,1003.5732,0,0
66.0,6.983833,-6.8154506999999995,0.34122196,1003.58075,0,0
66.04,7.060334700000001,-6.8154516,0.30808342,1003.5907,0,0
66.08,7.0794797,-6.88695,0.32228893,1003.6186,0,0
66.12,7.0078059999999995,-6.9107833,0.2844159,1003.6010000000001,0,0
66.16,7.112985000000001,-6.7963867,0.33649653,1003.61597,0,0
66.2,7.1608089999999995,-6.758255,0.12818503,1003.5932,0,0
66.24,7.093917,-7.1014475999999975,0.18500021,1003.6034,1,4
66.28,7.113060000000001,-7.292111,0.2938937,1003.60815,1,4
66.32,7.3042774,-6.6009603000000014,0.21341112,1003.60065,1,4
66.36,7.0844320000000005,-6.009908,-0.63404506,1003.57776,1,4
66.4,7.309108,-6.329268,-1.3536721,1003.61096,1,4
66.44,6.7259974,-6.777325,-1.3868108000000001,1003.5931,1,4
66.48,6.1285453,-7.5161419999999985,-1.5241063,1003.61035,1,4
66.52,5.4498370000000005,-8.288324000000001,-1.7844964,1003.5932,1,4
66.56,5.3686074999999995,-8.202527,-1.9691359,1003.5882,1,4
66.6,5.903528,-7.9546556,-1.0506993999999998,1003.6106599999999,1,4
66.64,6.582267,-7.0394773,-0.6009303,1003.6106,1,4
66.68,8.398601,-5.204353,-1.3821063999999998,1003.6106599999999,1,4
66.72,9.693934,-6.1052322,2.405418,1003.61096,1,4
66.76,13.546465,-4.6466660000000015,3.6742392,1003.6156599999999,1,4
66.8,14.564570000000002,-3.0165036,4.124008,1003.60046,1,4
66.84,13.818926999999999,-3.1213682,4.341792,1003.6282,1,4
66.88,13.866732999999998,-3.1595008,2.698954,1003.61035,1,4
66.92,12.929899,-5.852606,0.843068,1003.6129,1,4
66.96,11.524645,-8.593376,0.26547125,1003.60834,1,4
67.0,10.171967500000001,-9.989978,0.28914392,1003.61316,1,4
67.04,9.163436,-11.191151,0.3033478,1003.5857,1,4
67.08,5.688526,-12.177828,0.15658201,1003.6231,1,4
67.12,1.9077088,-13.002442,-0.44942114,1003.5855,1,4
67.16,-0.29099363,-11.944266,-2.130134,1003.5852699999999,1,4
67.2,-1.5624139,-11.891834,-2.2816343,1003.6056,1,4
67.24,0.56938624,-11.82987,-0.6956081000000001,1003.5931,1,4
67.28,3.3321202000000003,-11.648741000000001,0.67263556,1003.6156,1,4
67.32,4.828206,-12.111096,1.643189,1003.60065,1,4
67.36,7.4427657000000025,-11.219750999999999,1.0655923,1003.6056,1,4
67.4,10.090786,-10.986189999999999,0.9235610999999999,1003.58795,1,4
67.44,10.66437,-10.747862,2.1876477999999997,1003.60596,1,4
67.48,9.751434,-9.475192,3.0871854,1003.61597,1,4
67.52,10.133826,-8.445616000000001,2.7463088,1003.62335,1,4
67.56,12.031416,-5.8001765999999995,2.5569333999999997,1003.5981400000001,1,4
67.6,11.877775999999999,-3.61231,1.8230377,1003.60065,1,4
67.64,11.361537,-2.8734933999999996,1.2691107,1003.5907,1,4
67.68,10.893096,-3.6123092000000003,0.6204954,1003.5782,1,4
67.72,11.906395,-3.9840996,0.22753799,1003.54803,1,4
67.76,13.316417999999999,-5.1280737,0.3600995,1003.5907,1,4
67.8,14.243678,-8.116703999999999,0.7909285,1003.60315,1,4
67.84,14.023789,-9.451339,-0.13228223,1003.6052,1,4
67.88,13.813457500000002,-10.914672,-0.19383134,1003.6556,1,4
67.92,13.655704,-14.475289000000002,0.0996999,1003.6432,1,4
67.96,12.742741,-17.125494,0.9897662,1003.6481,1,4
68.0,11.055451,-15.876657000000002,2.3011944,1003.6755400000001,1,4
68.04,7.9198785,-13.445711,1.8608930000000001,1003.67535,1,4
68.08,5.6829114,-11.577221,0.45003867,1003.6528300000001,1,4
68.12,4.339765,-9.594334,-0.118091896,1003.6331,1,4
68.16,3.3407671000000003,-8.865048,-0.39742348,1003.6278,1,4
68.2,2.097998,-8.150065,0.09021832,1003.55804,1,4
68.24,0.4298259,-7.94987,0.41689038,1003.5978,1,4
68.28,-0.158109,-8.307361,-0.15597433,1003.6003,1,4
68.32,-0.0051755756,-8.850747,-0.7525111999999999,1003.5932,1,4
68.36,2.5854592,-9.732561,-0.39269817,1003.5576,1,4
68.4,5.013578,-12.525763000000001,0.1328188,1003.5626,1,4
68.44,7.441697599999999,-15.995816,1.4631846000000002,1003.5576,1,4
68.48,10.825781,-17.559244,2.888239,1003.5849599999999,1,4
68.52,14.071249,-17.921501,4.0671040000000005,1003.5852699999999,1,4
68.56,16.164782000000002,-13.860396,2.774609,1003.60504,1,4
68.6,15.338265,-8.927019,1.4206053,1003.5903,1,4
68.64,15.386059,-6.7439356,4.1381536,1003.6056,1,4
68.68,13.125207999999999,-7.1586266000000025,3.6221027,1003.62286,1,4
68.72,9.631167,-7.5304174,2.3106725,1003.58795,1,4
68.76,8.50791,-5.1423726,1.5531671999999999,1003.60504,1,4
68.8,10.008764,-3.63614,1.3306497,1003.5927,1,4
68.84,12.766707,-2.5302987,0.89034986,1003.6029699999999,1,4
68.88,15.467294,-3.6552059999999997,2.6894232999999996,1003.6052,1,4
68.92,14.50655,-5.7620244000000005,2.362749,1003.60004,1,4
68.96,12.69022,-7.935574499999999,0.59208137,1003.6156599999999,1,4
69.0,11.3805485,-10.809808,-1.7041054,1003.5754400000001,1,4
69.04,12.169214,-13.121588000000001,-1.6567616000000005,1003.62286,1,4
69.08,12.087953,-13.541045,0.39796978,1003.663,1,4
69.12,11.203686,-12.806995,0.8666754999999999,1003.6306,1,4
69.16,10.056529,-12.582967,0.07129516,1003.6227,1,4
69.2,7.6331644,-11.458060000000001,-1.0081495999999999,1003.63043,1,4
69.24,6.156201,-10.051925,-1.0744315,1003.6054,1,4
69.28,4.4402475,-8.722055000000001,-0.7477578,1003.62286,1,4
69.32,3.1783762,-8.107169,-1.1596514,1003.5980000000001,1,4
69.36,2.3227877999999995,-8.53616,-0.5583824000000001,1003.5980000000001,1,4
69.4,0.35350436,-8.845986,0.6583591999999999,1003.58026,1,4
69.44,0.46343535,-10.566711999999999,-0.14648996,1003.60046,1,4
69.48,3.4077910000000005,-11.867982000000001,-0.77616614,1003.5751300000001,1,4
69.52,6.8540254,-12.115844000000001,0.34588745,1003.5875,1,4
69.56,9.511593,-11.510489999999999,1.3495808,1003.6106,1,4
69.6,10.831444,-12.530549,1.3070283,1003.60565,1,4
69.64,11.132599,-13.936685,0.7246991999999999,1003.61835,1,4
69.68,11.199537,-11.648736999999999,1.520081,1003.59296,1,4
69.72,11.333392,-10.018576,2.6089964,1003.6106,1,4
69.76,10.994046,-9.989977,3.5180037000000004,1003.6455699999999,1,4
69.8,10.286659,-9.379858,3.6742410000000003,1003.6134,1,4
69.84,9.670078,-8.131021,4.0624638,1003.60504,1,4
69.88,10.563928,-4.751532,3.5558848,1003.59296,1,4
69.92,10.798161,-4.417873999999999,1.6100464,1003.61035,1,4
69.96,11.400436000000001,-4.279644,1.7331427,1003.5927,1,4
70.0,12.184346000000001,-4.088982,3.1913416,1003.6077,1,4
70.04,13.04473,-5.452218,1.9035852,1003.61035,1,4
70.08,13.637448999999998,-7.163411999999999,0.99458164,1003.59296,1,4
70.12,12.571571,-10.004281,1.3591323999999998,1003.6079,1,4
70.16,11.935880000000001,-12.602056,1.3686032,1003.6028,1,4
70.2,12.409103,-13.6697645,0.8146800999999999,1003.6532,1,4
70.24,12.456922,-13.560134,1.075074,1003.6455699999999,1,4
70.28,11.371927000000001,-13.703130999999999,1.226577,1003.6327,1,4
70.32,8.336772999999999,-13.927159,1.5485183999999999,1003.63043,1,4
70.36,5.4163346,-12.387561999999999,1.1792368999999998,1003.6409,1,4
70.4,3.9776342000000002,-9.866055000000001,0.49748456,1003.63043,1,4
70.44,3.0551534,-8.307391,-0.4967385,1003.6257,1,4
70.48,2.223489,-8.478987,-0.73345673,1003.6056,1,4
70.52,1.3440264,-8.493288,-0.17479502,1003.5978,1,4
70.56,1.1958715,-8.235894,-0.21740292,1003.5754400000001,1,4
70.6,2.5619688,-8.388401,-0.27430058,1003.59564,1,4
70.64,3.83816,-9.99473,-0.16541083,1003.5855,1,4
70.68,5.898239599999999,-11.248334,0.7057182,1003.5757,1,4
70.72,8.512775999999999,-12.225478,1.1223443000000002,1003.5981400000001,1,4
70.76,11.20857,-13.431416500000001,0.95663863,1003.5882,1,4
70.8,12.27923,-14.785117999999999,1.2359672,1003.58795,1,4
70.84,12.240973,-11.896585,0.4784608,1003.59564,1,4
70.88,12.503848,-8.540928,0.61102265,1003.6106,1,4
70.92,11.973272999999999,-7.3063892999999975,1.3117131000000002,1003.6028,1,4
70.96,9.980078,-7.8831425,1.2406955,1003.6156,1,4
71.0,8.866369,-7.053761,1.9555892,1003.61316,1,4
71.04,9.769735,-4.7562804000000005,1.8703685,1003.6128,1,4
71.08,11.265798,-3.8506339,1.0607836000000002,1003.6281,1,4
71.12,13.034308,-3.4931414,0.3411528,1003.6307,1,4
71.16,12.685367999999999,-4.980307,0.15650947,1003.62006,1,4
71.2,11.222732,-7.087125299999999,0.44057232,1003.6128,1,4
71.24,8.416969,-11.715451,0.8477296000000001,1003.5871,1,4
71.28,5.788061,-11.539088000000001,0.9234786,1003.607,1,4
71.32,6.4906760000000014,-9.394136999999999,2.2964544,1003.6329300000001,1,4
71.36,6.8921633,-11.038599000000001,0.11389238,1003.6102,1,4
71.4,7.9532637999999976,-12.540065,-0.37848714,1003.60004,1,4
71.44,7.2219377000000025,-13.040550999999999,1.6241646,1003.6327,1,4
71.48,3.4219773,-12.783158,1.5152716999999998,1003.61755,0,0
71.52,0.9794809000000001,-11.953776,-1.7325313999999998,1003.60046,0,0
71.56,2.3178117,-9.241605,-2.3243332000000003,1003.58795,0,0
71.6,5.038260500000002,-7.1252728,-0.43523803,1003.6154,0,0
71.64,5.6500883,-7.258736,-0.86606765,1003.6025400000001,0,0
71.68,5.2438183,-7.663893700000001,-0.88500416,1003.6028,0,0
71.72,5.8365282999999994,-7.7067933,1.2691514,1003.6329300000001,0,0
71.76,6.802063,-8.278780000000001,0.7720402,1003.62006,0,0
71.8,6.0229672999999995,-6.6772175,0.019271007,1003.5852699999999,0,0
71.84,6.8403273,-4.708629599999999,-0.10855669,1003.5846,0,0
71.88,8.365099,-6.038499400000001,-0.18430592,1003.6153,0,0
71.92,8.637561,-6.8869467,-0.5109787,1003.5700699999999,0,0
71.96,8.326888,-6.009901,1.0229698,1003.62,0,0
72.0,7.963636,-5.9288697,1.3827857,1003.6075,0,0
72.04,8.231319000000001,-6.028968,0.08556019,1003.6125,0,0
72.08,8.346048,-5.924104,-0.5535831999999999,1003.59045,0,0
72.12,7.9971356,-5.952704,-0.028063047999999997,1003.61755,0,0
72.16,7.8585353000000016,-6.505625,0.355425,1003.5950300000001,0,0
72.2,7.600441,-6.8059176999999975,-0.2174366,1003.6054,0,0
72.24,7.543095,-6.9250820000000015,0.03822237,1003.60004,0,0
72.28,6.9073953999999995,-6.753486,-0.0233236,1003.61505,0,0
72.32,6.6301820000000005,-6.963214999999999,-0.5961852,1003.5751300000001,0,0
72.36,7.390184,-6.2815980000000025,-0.42574546,1003.6129,0,0
72.4,7.490572999999999,-6.3530964999999995,0.22286928,1003.58514,0,0
72.44,7.552724,-6.681989,0.170792,1003.60004,0,0
72.48,7.0843167000000005,-6.4913273,0.11871484,1003.60004,0,0
72.52,6.9074782999999975,-5.9527072999999975,0.20393538,1003.5925,0,0
72.56,6.8501344,-6.00514,0.12818621,1003.5925,0,0
72.6,6.9304585,-6.710567,-0.018665731,1003.6156,0,0
72.64,7.265022,-7.4589157,0.023941832000000003,1003.6225599999999,0,0
72.68,7.207642,-7.6829433000000025,-0.52051675,1003.6003,0,0
72.72,7.4227085000000015,-7.2539525,-0.56786305,1003.60004,0,0
72.76,7.771609,-6.4627037000000005,0.033404022,1003.60004,0,0
72.8,7.513477000000001,-6.1957755,0.3742791,1003.6177,0,0
72.84,7.2266660000000025,-6.348305,0.5305124,1003.6246,0,0
72.88,6.844258,-7.025155499999999,0.4452909000000001,1003.6503,0,0
72.92,6.5813445999999995,-7.110953,0.29852214,1003.6125,0,0
72.96,6.834650999999999,-6.882158,0.23697281,1003.6195,0,0
73.0,7.0592766000000005,-6.901223,0.17542319,1003.6171,0,0
73.04,7.0640339999999995,-6.8297243000000005,0.21803078,1003.6225599999999,0,0
73.08,7.1882844,-6.5532637000000005,0.12334049,1003.6202,0,0
73.12,7.0400867,-6.5246634000000014,0.04758778599999999,1003.6145,0,0
73.16,6.9492474,-6.705792,0.21802431,1003.58966,0,0
73.2,6.79627,-7.153848,0.37899184,1003.6047,0,0
73.24,7.1308336,-6.9631853,0.60150677,1003.5944,0,0
73.28,7.350680400000001,-6.600925999999999,0.15173613,1003.617,0,0
73.32,6.9873914999999975,-6.6438246,-0.018704604,1003.607,0,0
73.36,7.049504799999999,-6.6295247,-0.12286374,1003.6047,0,0
73.4,7.32671,-6.762987599999999,-0.13233465,1003.622,0,0
73.44,7.43662,-6.791586,-0.013976853000000001,1003.58966,0,0
73.48,7.226288,-6.9536485999999975,0.13752218,1003.6047,0,0
73.52,6.9968314,-7.0585116999999995,0.45945933,1003.6145,0,0
73.56,6.915552000000001,-6.734386,0.22273704,1003.61194,0,0
73.6,6.8832026,-6.805911,0.34119868,1003.6171,0,0
73.64,6.8354235,-6.939375,0.41221648,1003.6271,0,0
73.68,6.916703,-6.8345113,0.45956263,1003.61414,0,0
73.72,6.9884205,-6.729647999999999,0.5968621999999999,1003.6120599999999,0,0
73.76,7.241771000000001,-6.6867494999999995,0.5684578,1003.61414,0,0
73.8,7.2895913,-6.7105827000000025,0.49270928,1003.61414,0,0
73.84,7.1509979999999995,-6.8345137000000005,0.46903923,1003.6044300000001,0,0
73.88,7.241834599999999,-6.6200194,0.37908733,1003.59406,0,0
73.92,7.2896543000000005,-6.5389886,0.50218385,1003.6041,0,0
73.96,7.4713087,-6.505623,0.43590415,1003.6191,0,0
74.0,7.1702012999999996,-6.896481,0.5495317,1003.6088,0,0
74.04,6.62533,-7.215841,0.48325253,1003.61414,0,0
74.08,6.620572599999999,-7.1300435,0.22286223,1003.6239999999999,0,0
74.12,7.108134,-6.753486,0.3128179,1003.6189999999999,0,0
74.16,7.280222999999999,-6.662922,0.41224188,1003.6166400000001,0,0
74.2,7.313706,-6.7868533,0.5732138000000001,1003.57654,0,0
74.24,7.1942267000000015,-6.8535851999999995,0.7531227,1003.6137,0,0
74.28,7.213374000000001,-6.9155507,0.421717,1003.6089999999999,0,0
74.32,7.270751,-6.667690299999999,0.38384348,1003.6137,0,0
74.36,7.2516527,-6.753489,0.5779561,1003.5916,0,0
74.4,7.323373299999999,-6.715357000000001,0.48327005,1003.6215,0,0
74.44,7.2373566999999985,-6.7296576,0.39805263,1003.6166400000001,0,0
74.48,6.988822,-6.9012537,0.54955494,1003.6065,0,0
74.52,6.525208,-7.10145,0.5637606,1003.6166400000001,0,0
74.56,6.8311367,-6.891722,0.23235421,1003.6138,0,0
74.6,6.8830395000000015,-6.853573,0.21335481,1003.60864,0,0
74.64,7.079005,-6.929838,0.41693359999999996,1003.6065,0,0
74.68,7.102898,-6.925071000000001,0.49268356,1003.6389999999999,0,0
74.72,7.165028599999999,-6.9346039999999975,0.35065085,1003.62897,0,0
74.76,6.9069133,-6.9679699999999976,0.28910297,1003.5988,0,0
74.8,6.577101,-7.0061016,0.5731666999999999,1003.61365,0,0
74.84,6.8495425999999995,-6.9775023,0.5494941,1003.6262,0,0
74.88,6.854317,-6.5866440000000015,0.14706914,1003.62646,0,0
74.92,7.7194552,-6.853571400000001,0.72940034,1003.63403,0,0
74.96,7.666871,-6.319717400000001,0.43586668,1003.60114,0,0
75.0,6.5866294000000005,-6.92507,1.3022621,1003.61865,0,0
75.04,6.495806,-7.0489999999999995,0.4169279,1003.6311599999999,0,0
75.08,6.854286,-6.767772999999999,0.04290942,1003.61365,0,0
75.12,7.3752785,-6.562811,0.31750432,1003.62866,0,0
75.16,7.547345,-6.538978,0.6962560999999999,1003.6363,0,0
75.2,7.112375999999999,-6.8631034,0.5447546,1003.6439999999999,0,0
75.24,6.8016830000000015,-6.9965672,0.27962732,1003.61865,0,0
75.28,6.629604,-7.1347966,0.27489236,1003.5959,0,0
75.32,6.849468700000001,-7.0966644,0.27489179999999996,1003.62366,0,0
75.36,6.8829210000000005,-6.8345037,0.29382885,1003.5984,0,0
75.4,6.8016586,-6.9965663000000005,0.36010996,1003.5985,0,0
75.44,6.5961204,-7.039465400000001,0.62523603,1003.6008,0,0
75.48,6.9259205,-6.7630053,0.5400162,1003.6138,0,0
75.52,6.964153,-6.743938000000001,0.23227932,1003.5931,0,0
75.56,6.9928255,-7.025164999999999,0.32696682,1003.6059,0,0
75.6,6.9882919999999995,-7.2253666,0.45481834,1003.61084,0,0
75.64,7.2033872999999975,-7.044237599999999,0.5779132,1003.6311599999999,0,0
75.68,7.2607484,-7.0347047000000025,0.49742866,1003.6084,0,0
75.72,7.131697,-6.8297424,0.5068978,1003.62866,0,0
75.76,7.083903,-6.7820773,0.32699078,1003.6034,0,0
75.8,6.792339,-6.8869414,0.43114802,1003.6259,0,0
75.84,6.6346089999999975,-7.0204053,0.5495085,1003.6313,0,0
75.88,6.481659,-7.2349005,0.52110237,1003.6010000000001,0,0
75.92,6.677634200000001,-7.4732285,0.44061786,1003.6209,0,0
75.96,6.6728587,-7.215834,0.40747735,1003.6084,0,0
76.0,6.9500910000000005,-7.2587337,0.45482174,1003.6209,0,0
76.04,7.0695896,-7.068071400000001,0.6489326999999999,1003.6284,0,0
76.08,6.964438,-6.891709,0.31752473,1003.6103,0,0
76.12,6.840167,-6.967973700000001,0.24177457,1003.6180400000001,0,0
76.16,6.6298594,-7.2492003,0.48796397,1003.61597,0,0
76.2,6.615523,-7.3254657000000005,0.43588582,1003.61584,0,0
76.24,6.854518,-6.934608,0.43115180000000003,1003.5955,0,0
76.28,7.017035000000001,-6.734413000000001,0.31279203,1003.5930000000001,0,0
76.32,7.1365333,-6.6390815000000005,0.5400438,1003.61053,0,0
76.36,7.021822,-6.910775,0.6394666,1003.63354,0,0
76.4,7.0791830000000004,-6.6629148,0.710483,1003.6030000000001,0,0
76.44,6.825857000000001,-6.8583436,0.6631393,1003.5878,0,0
76.48,6.5486325999999995,-7.110971000000001,0.70101494,1003.59265,0,0
76.52,6.7063694000000025,-6.939375,0.5873896,1003.6228,0,0
76.56,6.950144,-7.1205050000000005,0.6915468000000001,1003.6,0,0
76.6,7.012791,-6.972753999999999,0.60163987,1003.6002,0,0
76.64,7.0128107,-6.8488235,0.36965576,1003.6126,0,0
76.68,6.9363594,-7.349313,0.5353623000000001,1003.6226,0,0
76.72,7.0702167000000005,-7.458944,0.22762802,1003.6180400000001,0,0
76.76,6.9698668,-6.758261,0.36492813,1003.6002,0,0
76.8,6.9746690000000005,-6.6438646,0.6537289000000001,1003.6101,0,0
76.84,6.7452607,-6.882192599999999,0.37440106,1003.605,0,0
76.88,6.716606,-6.8678937000000015,0.31285602,1003.6253,0,0
76.92,7.1229134000000025,-6.696298,0.7247515,1003.6098599999999,0,0
76.96,7.285451400000001,-6.782097,0.7294881,1003.615,0,0
77.0,7.1229615000000015,-6.7725644,0.66320854,1003.6279,0,0
77.04,7.1038656000000024,-6.7820979999999995,0.63953865,1003.63275,0,0
77.08,7.1182284,-6.4770389999999995,0.40755498,1003.6123699999999,0,0
77.12,7.0991306,-6.686767999999999,0.49277622,1003.6226,0,0
77.16,6.845826,-6.9489293000000005,0.7815772,1003.6151,0,0
77.2,6.8888690000000015,-6.882198,0.70109457,1003.605,0,0
77.24,7.065746000000001,-6.972763499999999,0.5543303,1003.5999,0,0
77.28,7.252182,-6.605739,0.34128425,1003.6049,0,0
77.32,7.3000045,-6.6057396,0.36022407,1003.60205,0,0
77.36,7.180532,-6.6248059999999995,0.42177337,1003.6098599999999,0,0
77.4,7.08018,-6.472277,0.45491642,1003.64026,0,0
77.44,6.8937919999999995,-6.805936999999999,0.54960674,1003.6199,0,0
77.48,6.9416139999999995,-7.177728699999999,0.65850025,1003.6278,0,0
77.52,7.3957175999999984,-6.891736,0.50226694,1003.6355,0,0
77.56,7.8450437000000015,-7.006133599999999,0.23240806,1003.60736,0,0
77.6,7.4002934000000025,-6.877431,0.11402708,1003.6148699999999,0,0
77.64,7.491123700000001,-6.410309,0.14716917,1003.6024,0,0
77.68,7.4767975999999985,-6.4770412,0.07141991,1003.6274,0,0
77.72,6.9366937,-6.596205,0.36968870000000004,1003.6199,0,0
77.76,6.759853,-6.6057386,0.7295045,1003.6249,0,0
77.8,6.8172255,-6.7678020000000005,0.6111458000000001,1003.5999,0,0
77.84,6.7407619999999975,-6.8536005000000015,0.4927869000000001,1003.6173,0,0
77.88,7.041904400000001,-6.5914399999999995,0.33655290000000004,1003.6145,0,0
77.92,7.495999,-6.500876,0.23713155,1003.6173,0,0
77.96,7.529471400000001,-6.815469,0.2655393,1003.61456,0,0
78.0,7.443449,-6.9393991999999995,0.3981039,1003.612,0,0
78.04,7.419563,-6.562842,0.26554176,1003.6274,0,0
78.08,7.486494,-6.176751,-0.10847494,1003.6145,0,0
78.12,7.433928999999999,-6.257783,0.08090246,1003.6173,0,0
78.16,7.032439999999999,-6.7725716,0.50700027,1003.6170699999999,0,0
78.2,7.0324545,-7.0013666,0.7342529000000001,1003.6374,0,0
78.24,7.1424020000000015,-6.672475,0.35076728,1003.5995,0,0
78.28,7.1471963,-6.6677084,0.34129974,1003.612,0,0
78.32,7.214128,-6.624809299999999,0.45966122,1003.62994,0,0
78.36,7.257158299999999,-6.429380999999999,0.4312559,1003.6142,0,0
78.4,7.300192,-6.419848,0.31763157,1003.6346,0,0
78.44,7.085114,-6.701075599999999,0.46913376,1003.6217,0,0
78.48,7.0325494000000015,-6.6963095999999975,0.492807,1003.6321,0,0
78.52,7.0755820000000025,-6.5962119999999995,0.30343208,1003.6142,0,0
78.56,7.0947137000000025,-6.662944,0.18033873,1003.6399,0,0
78.6,7.17086,-6.624803,0.34601262,1003.6017,0,0
78.64,7.276015299999999,-6.5771380000000015,0.27026212,1003.6042,0,0
78.68,7.338153,-6.6867684999999994,0.13769878,1003.617,0,0
78.72,7.2138777,-6.748734,-0.02800538,1003.60187,0,0
78.76,7.1565204,-6.472274,-0.11795907,1003.6296,0,0
78.8,7.285575,-6.64387,0.31760618,1003.6192,0,0
78.84,7.252116,-6.7392005999999975,0.5164512,1003.6168,0,0
78.88,7.1947589999999995,-6.9155630000000015,0.5069823,1003.6242699999999,0,0
