Timestamp,Ax,Ay,Az,P,LPFRMSAcc,LPFPValue,Value,Type
0.0,7.5931087,-0.28485346,2.829974,1005.314,0.016852870329948536,3.6191303999999995,0,0
0.02,9.289936,0.43013006,4.6148443,1005.34393,0.05326185654713124,10.4232033,0,0
0.04,9.371189,-0.060825124,4.1224656,1005.34894,0.1065204750948608,20.017014766560003,0,0
0.06,8.917104,0.33479917,3.4549142999999995,1005.3715,0.17308483889211676,32.041382725252795,0,0
0.08,8.907383,-0.0036224127,3.8573241,1005.3441,0.2514530462385551,46.17000403574284,0,0
0.1,9.160704,0.1870401,3.4454297999999994,1005.3737,0.34014001211298395,62.10718713116316,0,0
0.12,9.538298,0.48256677,3.8999317,1005.4014,0.4387208767327488,79.58514128060438,0,0
0.14,9.017289,0.3395704,2.2712958,1005.39404,0.5435878997416941,98.36157360244043,0,0
0.16,9.609975,0.5588321999999999,3.8099763,1005.3537,0.6558093117609467,118.217600857046,0,0
0.18,8.912113,0.22994004,2.6879215,1005.3766,0.7719607736729229,138.95615893613012,0,0
0.2,9.3327265,0.620798,2.3044338,1005.3989,0.8918350582658037,160.39994272263874,0,0
0.22,10.049687,0.44443572,4.354430000000002,1005.3916,1.0173284492519106,182.3896400425963,0,0
0.24,9.170194,0.39200383,3.1092806,1005.369,1.1446942068249335,204.78246229035744,0,0
0.26,9.103265,0.2251746,3.4122818,1005.3865,1.2733254607807265,227.45093456423385,0,0
0.28,9.194071,0.49686855,3.1234822,1005.3687,1.402608645259338,250.28130062099987,0,0
0.30000000000000004,9.021989,0.4587363,2.8204794,1005.4267,1.5314638301703531,273.17273550652266,0,0
0.32,8.983741,0.08217853,3.786297,1005.38153,1.6600707065329638,296.0355590315472,0,0
0.34,8.916813000000003,0.06311259,3.1234794,1005.3913,1.7873693323979971,318.7908305657452,0,0
0.36000000000000004,9.141454,-0.008385539000000001,3.2560418,1005.38153,1.913585301382656,341.3691150113258,0,0
0.38,8.76384,-0.23241346,3.095071,1005.3868,2.037544741468289,363.7097508134002,0,0
0.4,8.883325,-0.57560533,3.9993415,1005.4041,2.1600239951726343,385.7600362651848,0,0
0.42,9.208342,-0.42784184,3.7010732,1005.3791,2.2811169831685056,407.47429711982704,0,0
0.44,10.092595,-0.17521407,3.4690864,1005.3687,2.402087386958483,428.81343786135767,0,0
0.46,9.031467999999998,-0.23717906,2.0392952,1005.3741,2.519579774083848,449.744321004273,0,0
0.48,9.103156,-0.5803709,2.3801715,1005.3968,2.633919340356295,470.2391982737377,0,0
0.5,9.657603,-0.10848142,3.4880214,1005.369,2.7468108807876535,490.2749391152513,0,0
0.52,9.127034,-0.59467006,2.422779,1005.37195,2.8563393725485096,509.83286896199786,0,0
0.54,9.265639,-0.64710194,3.014579,1005.3995,2.963132445339154,528.8982956463198,0,0
0.56,9.667133,-0.50887156,2.4464495,1005.36664,3.0675806795039247,547.4597927042598,0,0
0.5800000000000001,9.231911,-0.7662591999999999,2.825178,1005.407,3.1689575007024446,565.5093414509205,0,0
0.6,9.451759,-1.0570188,3.5874152,1005.3662,3.2682528942555167,583.0414074142465,0,0
0.62,9.413503,-0.9235546999999998,3.0524259,1005.359,3.364882477262303,600.05308423275,0,0
0.64,9.413482,-1.0951501,3.0382204,1005.3462,3.458835797614768,616.5436570863419,0,0
0.66,9.595094,-0.9950519,3.1660478,1005.33655,3.5505033890360584,632.5143816742648,0,0
0.68,9.45168,-1.2858115,2.687871,1005.369,3.6393170405039488,647.9683905461261,0,0
0.7000000000000001,9.389523,-1.3906751,2.3185856,1005.36926,3.724999938773729,662.9101959153368,0,0
0.72,9.838805,-1.2762773,3.213386,1005.3918,3.8089748974976407,677.345708914276,0,0
0.74,9.346465,-1.4002073,1.8167351000000005,1005.3741,3.889465552823503,691.2818304080472,0,0
0.76,9.4133625,-1.5956357,1.8546084,1005.402,3.9668003388917166,704.7266199704746,0,0
0.78,9.47548,-1.7290987,1.9871699,1005.3995,4.04129412857344,717.6888583959418,0,0
0.8,9.413323,-1.6290007,2.0865908,1005.37177,4.112892316370281,730.1779507504593,0,0
0.8200000000000001,9.336824,-1.5718014,2.1102607000000004,1005.33655,4.181512210040351,742.2038837122093,0,0
0.84,9.317686,-1.5622679,1.7977883,1005.36676,4.247080436763607,753.7773844318474,0,0
0.86,9.470619,-1.4335703000000002,2.0913196,1005.382,4.3101045763344255,764.9095062837648,0,0
0.88,9.532737,-1.4049704,2.1433961,1005.397,4.370793293925911,775.6116041294977,0,0
0.9,9.647434,-1.533667,2.3185675,1005.3566,4.429550661758603,785.8950597711212,0,0
0.92,9.590056,-1.6146979,2.1623302000000004,1005.3695,4.486229028873779,795.7716291608838,0,0
0.94,9.637833,-1.7862935000000002,1.8687952,1005.3844,4.540899595097239,805.2531718486985,0,0
0.96,9.695171,-1.6718957,1.7693709,1005.3845,4.5936357969032064,814.3515357489964,0,0
0.98,9.738168,-1.7958256,1.7599001,1005.36945,4.644600624737748,823.0785145826032,0,0
1.0,9.609097,-1.9197557,1.8025081000000005,1005.37195,4.693621112264422,831.4459294474808,0,0
1.02,9.241029,-1.7767583999999998,1.835647,1005.3895,4.7399661412864775,839.4655740760758,0,0
1.04,9.154974,-1.8816223,1.6841443,1005.3769,4.783591588429942,847.1490128432283,0,0
1.06,9.092817,-1.8959215,1.6510016,1005.37964,4.824526226334903,854.5077295956488,0,0
1.08,9.06506,-2.058007,2.143464,1005.3645,4.8631555922768515,861.552976091543,0,0
1.1,9.251489,-2.072307,2.3423107000000005,1005.38745,4.900078981982125,868.2959600013858,0,0
1.12,9.595653,-1.9007115,1.977763,1005.37744,4.9358072876628665,874.7475539121176,0,0
1.14,9.710384,-1.5193874,1.6179498,1005.3494,4.970311079777044,880.9183489375567,0,0
1.16,9.805998,-1.4335897,1.5043257,1005.38995,5.003739505300684,886.8189611858595,0,0
1.18,9.648283,-1.5718203000000002,1.4995931,1005.37463,5.035819028245973,892.4595425761908,0,0
1.2,9.332832000000002,-1.9340792,1.6416267,1005.3748,5.066137321464863,897.8500552194133,0,0
1.22,9.294611,-2.2677386000000004,1.7931292,1005.38495,5.094919888531242,903.0002378121746,0,0
1.24,9.304189,-1.9245467,1.8025997,1005.3648,5.1221104902984935,907.9194515750148,0,0
1.26,9.519298,-1.8578155,1.8215389,1005.38745,5.148207718668177,912.6169536501902,0,0
1.28,9.457175,-1.8816485,2.1103392000000003,1005.3447,5.173249712178892,917.1014863706746,0,0
1.3,9.438074,-1.8435166,1.9493709,1005.37,5.1971470303691545,921.3817861315599,0,0
1.32,9.447654,-1.9865136000000003,1.9493726,1005.3651,5.2200239081176365,925.4661989302048,0,0
1.34,9.371192,-2.01988,2.0582654,1005.362,5.241824885185966,929.3628109629387,0,0
1.36,9.395109,-1.9483819,1.9209694,1005.37744,5.262556266526647,933.079510019596,0,0
1.38,9.385569,-1.8435183,1.7363292,1005.3725,5.282134508743357,936.6238400699876,0,0
1.4,9.428603,-1.8816512,1.8688942,1005.37744,5.300775613576676,940.0031230622617,0,0
1.42,9.390383,-1.8959513,1.8073486,1005.3421,5.3184267438581125,943.2242778312108,0,0
1.44,9.404738,-1.7767878,1.9825231,1005.3748,5.335192397278167,946.2942320648621,0,0
1.46,9.242242,-1.8673527,1.826289,1005.3524,5.350761868450398,949.2194530302826,0,0
1.48,9.395214,-1.976984,1.7789468000000002,1005.36,5.3655511981473385,952.0062842444192,0,0
1.5,9.533847,-2.0627825,1.9588559,1005.3701,5.379982073348079,954.6608380419503,0,0
1.52,9.567323,-2.091382,2.129296,1005.38544,5.39419569516198,957.189010344498,0,0
1.54,9.385708,-1.9340861,1.71267,1005.3829,5.407569053851844,959.5964013937887,0,0
1.56,9.294907,-1.9007208,1.8783755,1005.36285,5.4200201702641335,961.8883313399248,0,0
1.58,9.10776,-1.9102356,1.6605258000000005,1005.3698,5.431157422964415,964.0700139275064,0,0
1.6,9.098189,-2.1533298,1.9682609,1005.36786,5.441304728563267,966.1464209077549,0,0
1.62,9.198552,-2.3106263,2.0913544,1005.38544,5.450868543117927,968.122394584234,0,0
1.64,9.246338,-2.3916574,2.0440094,1005.37054,5.459996169132377,970.002458248268,0,0
1.66,9.499656,-2.2867925,1.9729921,1005.3855,5.469123927393943,971.7910614521147,0,0
1.68,9.623918,-1.9579,1.8640996,1005.35284,5.4782774982273175,973.492293645806,0,0
1.7,9.547429,-1.9864988,1.4758772,1005.36786,5.4871435519642535,975.1102544510268,0,0
1.72,9.394463,-2.3344572,1.5942361,1005.3648,5.4956147597259095,976.648800982496,0,0
1.74,9.337091,-2.3153906,1.6794543000000002,1005.3528,5.503612690591097,978.1115950941652,0,0
1.76,9.4039955,-2.1628606,1.7173284,1005.40784,5.511237940259504,979.5023864528972,0,0
1.78,9.408764,-2.2152925,1.8877658,1005.383,5.518605200908843,980.8244599062426,0,0
1.8,9.403973,-2.3630555,1.901968,1005.35034,5.5257854232687045,982.0809371779559,0,0
1.82,9.360942,-2.1437938,1.7362627,1005.36035,5.532520699730148,983.2749663814012,0,0
1.84,9.35615,-2.2009919,1.8924968,1005.3526,5.538915713953093,984.4094900665924,0,0
1.86,9.155385,-2.3535213,1.8546205,1005.3576,5.544648612904286,985.4873683905876,0,0
1.88,9.174492,-2.4107199,1.8830258,1005.3453,5.549854308474343,986.5112702314636,0,0
1.9,9.241396,-2.1151931,1.7362581,1005.36536,5.554506899144802,987.4838646212282,0,0
1.92,9.093209,-2.2343564,1.9066954,1005.3804,5.558483166477291,988.4076765513879,0,0
1.94,9.212693,-2.36782,1.8451471,1005.37036,5.5621251372910425,989.2850224332919,0,0
1.96,9.317835,-2.5298824,1.939834,1005.3653,5.565788448621943,990.1181342537826,0,0
1.98,9.523355,-2.7205443,2.1292093,1005.3829,5.570044581884722,990.9092250150543,0,0
2.0,9.489883,-2.4774497,1.9398317,1005.3551,5.5745334458460585,991.66023796166,0,0
2.02,9.432516,-2.3487525,1.6084223999999998,1005.3751,5.5789099719616235,992.3732065046187,0,0
2.04,9.274769,-2.620446,1.7173126,1005.373,5.583040399187818,993.0499847657608,0,0
2.06,9.212618,-2.7062438,1.9635005,1005.3904,5.5869612277445135,993.6924115321486,0,0
2.08,9.322386,-2.5441766,1.9019378,1005.33765,5.590782770138818,994.3019826814134,0,0
2.1,9.331924,-2.1771514,1.7409662,1005.3576,5.594275613218163,994.8803999712508,0,0
2.12,9.503979,-2.1485515,1.6320732,1005.35785,5.597756760967525,995.4292083086543,0,0
2.14,9.398806,-2.253415,1.9256046,1005.37036,5.601164260649458,995.9499235016733,0,0
2.16,9.403564,-2.1914496,1.8971962,1005.3551,5.604463332107461,996.4438860816183,0,0
2.18,9.393988,-2.363045,1.8261786,1005.40533,5.607690290279908,996.9126126153644,0,0
2.2,9.241015,-2.4059436,1.8356458,1005.3806,5.610564722779964,997.3572641351668,0,0
2.22,9.350933,-2.4297757,1.8214409,1005.37787,5.6133412457970655,997.7790323991776,0,0
2.24,9.398711,-2.425009,1.726751,1005.3827,5.616077912655345,998.1790800406204,0,0
2.26,9.346115,-2.5060399,1.8356405,1005.3623,5.6187485835198405,998.5584217284534,0,0
2.28,9.3604355,-2.5870707000000004,1.7882948,1005.3776,5.621404965185598,998.9181570856,0,0
2.3,9.360416,-2.4536068,1.5421041000000002,1005.3801,5.623881422277205,999.2592822416666,0,0
2.32,9.369958,-2.6013696,1.5515712,1005.3578,5.626291011759231,999.5826550934974,0,0
2.34,9.34126,-2.496505,1.6036478,1005.37286,5.6285368721139255,999.889232083038,0,0
2.36,9.393818,-2.396407,1.8072256,1005.39014,5.63075568960371,1000.1799267794972,0,0
2.38,9.398582,-2.2295768,1.6415198,1005.39014,5.632810079501822,1000.4555413808824,0,0
2.4,9.355545,-2.3630400000000003,1.7267374,1005.39014,5.634721632209311,1000.716838997695,0,0
2.42,9.312507,-2.3678062,1.9445183,1005.3674,5.636502068617737,1000.9644635915193,0,0
2.44,9.360286,-2.2295754,1.7456715,1005.3648,5.638109601587473,1001.1991058936926,0,0
2.46,9.365047,-2.229575,1.7693418,1005.3674,5.639576877305324,1001.4214416906758,0,0
2.48,9.341129,-2.3821044,1.8072153,1005.34467,5.640956459748149,1001.6320212228037,0,0
2.5,9.283752,-2.434536,1.7930104,1005.3575,5.642161491857751,1001.83150102099,0,0
2.52,9.350652,-2.4107027000000003,1.6415077,1005.37964,5.643272864426987,1002.0205346709917,0,0
2.54,9.350634,-2.305838,1.6604437,1005.352,5.6442515485562526,1002.1995580793173,0,0
2.56,9.336274,-2.3344371,1.650973,1005.36206,5.645091699827686,1002.3691281698286,0,0
2.58,9.288646,-2.4202392,1.6841294999999998,1005.38715,5.645767158053813,1002.5298251803932,0,0
2.6,9.293414,-2.4107056,1.703066,1005.3524,5.646306035301445,1002.6819783282782,0,0
2.62,9.34598,-2.4583712,1.6604552,1005.3848,5.646835857047284,1002.826151007768,0,0
2.64,9.322071,-2.4488375,1.6841264,1005.36694,5.647311850666944,1002.9626888277368,0,0
2.66,9.379417,-2.453604,1.5752339,1005.3467,5.647817110211643,1003.0919160856816,0,0
2.68,9.403303,-2.4059381,1.6320458999999998,1005.392,5.648388606059853,1003.2143815928932,0,0
2.7,9.398515,-2.2534080000000003,1.5420911,1005.417,5.6489015552186395,1003.3305215413308,0,0
2.72,9.3937235,-2.3153732,1.6273093,1005.397,5.649410045736227,1003.4405821222217,0,0
2.74,9.427171,-2.3630383,1.6178395,1005.36945,5.649999629946005,1003.5447755758566,0,0
2.76,9.269425,-2.5298674,1.5752289,1005.392,5.650417990898992,1003.6434909194154,0,0
2.78,9.37457,-2.458369,1.7835417000000002,1005.39935,5.650927920766527,1003.7370368896742,0,0
2.8,9.436693,-2.3439713,1.5420858,1005.39404,5.651497537060269,1003.8256593201919,0,0
2.82,9.417565,-2.3010721000000003,1.5326161,1005.36664,5.652055569225321,1003.9095136302448,0,0
2.84,9.345857,-2.339204,1.5657558,1005.3737,5.652488187064956,1003.9888783695384,0,0
2.86,9.436663,-2.367803,1.5894269,1005.3813,5.653011297711491,1004.0640177710479,0,0
2.88,9.412753,-2.3487365,1.6888484,1005.3562,5.653589840223448,1004.1350628022462,0,0
2.9,9.374503,-2.3249035,1.5184087,1005.4188,5.6540694763244606,1004.2024596457248,0,0
2.92,9.3266945,-2.3773353,1.4900014,1005.3762,5.654381931036624,1004.266236961898,0,0
2.94,9.345801,-2.5441647,1.6130949,1005.3662,5.654711293290495,1004.3265504654056,0,0
2.96,9.388808,-2.4250004,1.5704842,1005.3738,5.655062654130459,1004.3836135754292,0,0
2.98,9.32666,-2.363035,1.5657487,1005.3837,5.655275577810732,1004.4376348505748,0,0
3.0,9.317086,-2.5441637000000004,1.5988883,1005.3988,5.65545213658594,1004.4888282438312,0,0
3.02,9.317078,-2.4917314,1.6320285,1005.4161,5.6555792417085025,1004.5374009044352,0,0
3.04,9.374424,-2.5203304,1.5846833,1005.4088,5.65577480879187,1004.5834567440886,0,0
3.06,9.331395,-2.4678981,1.5562758,1005.40106,5.655907692997775,1004.6270950557276,0,0
3.08,9.360063,-2.4392986,1.546806,1005.39343,5.656023591401852,1004.6684126736914,0,0
3.1,9.33147,-2.3916352,1.4947355,1005.393,5.656025896111204,1004.7075294352987,0,0
3.12,9.307562,-2.4583666,1.6178292,1005.4184,5.655955643446545,1004.744652139888,0,0
3.14,9.384032,-2.4107008,1.6604383000000005,1005.3679,5.6559633664571916,1004.7796974539592,0,0
3.16,9.455721,-2.334436,1.5562805,1005.413,5.656108950766207,1004.8129433826384,0,0
3.18,9.360118,-2.4250002,1.5326079,1005.39594,5.6562234348245495,1004.844418273042,0,0
3.2,9.345769,-2.4202332,1.5988886,1005.36255,5.656301112972901,1004.8740947604197,0,0
3.22,9.479596,-2.4345329,1.4710591999999998,1005.403,5.656577918778857,1004.9022209635287,0,0
3.24,9.383992,-2.3582678,1.6793721999999998,1005.4101,5.656870223222686,1004.9289016411276,0,0
3.26,9.32185,-2.3487346,1.660434,1005.3977,5.657040271441036,1004.9541643619457,0,0
3.28,9.374418,-2.3439677000000003,1.5610108,1005.39484,5.6571697630811055,1004.9780729343573,0,0
3.3,9.317053,-2.3439677000000003,1.5846821000000002,1005.3774,5.657156741118809,1005.0006361263768,0,0
3.32,9.350506,-2.372567,1.7125103,1005.4048,5.657143480702385,1005.0220279527904,0,0
3.34,9.379175,-2.3201346000000003,1.7977289,1005.40216,5.657192547666737,1005.042298245979,0,0
3.36,9.36005,-2.410699,1.7267123,1005.3974,5.657277442467875,1005.0614874433553,0,0
3.38,9.345702,-2.4392982000000005,1.6983051,1005.40466,5.657369650622934,1005.0796784393608,0,0
3.4,9.264439,-2.363033,1.6083506,1005.3941,5.657236080343722,1005.0968839210492,0,0
3.42,9.254869,-2.4631302,1.783523,1005.38214,5.656999734548802,1005.1131136065538,0,0
3.44,9.273983,-2.3916318,1.6320213,1005.4044,5.656618904110278,1005.128502787682,0,0
3.46,9.283534,-2.215269,1.5846766,1005.3637,5.656027361395483,1005.142947378091,0,0
3.48,9.345666,-2.2867672000000003,1.6746298,1005.39124,5.655441268798305,1005.1566044716153,0,0
3.5,9.2883,-2.3487322,1.7551138,1005.38934,5.654808219697868,1005.1695097273556,0,0
3.52,9.436465,-2.4917288,1.8782076,1005.4038,5.654549322025473,1005.1817562563092,0,0
3.54,9.388662,-2.4631293,1.7645813999999995,1005.3862,5.6544692009734785,1005.1933132867696,0,0
3.56,9.350417,-2.2962995,1.6225486,1005.3862,5.654336437189753,1005.2042194710524,0,0
3.58,9.321728,-2.3916306,1.6462197,1005.37866,5.654156422388253,1005.2144841613887,0,0
3.6,9.364741,-2.5012612,1.7835169999999998,1005.3958,5.654127169472631,1005.2242067787893,0,0
3.62,9.359951,-2.5060275,1.6935625,1005.37335,5.654191274505304,1005.2333345991203,0,0
3.64,9.426863,-2.477428,1.7267027,1005.37573,5.654466957494174,1005.241912564608,0,0
3.66,9.331766,-2.3916423,1.7693582,1005.38574,5.654711977941867,1005.2500098336806,0,0
3.68,9.341336,-2.3725765,1.6652021,1005.3803,5.6549003694154525,1005.2576336252316,0,0
3.7,9.398705,-2.4965072,1.745688,1005.3883,5.655244514593067,1005.2648404063956,0,0
3.72,9.441732,-2.4488418,1.7646265,1005.4006,5.655792400348747,1005.2716970527687,0,0
3.74,9.389161,-2.4202425,1.7598926,1005.40045,5.656397849991606,1005.2782190961141,0,0
3.76,9.27924,-2.386877,1.6699402,1005.40814,5.656784380959376,1005.284449688868,0,0
3.78,9.303147,-2.5632398,1.8261764,1005.39294,5.657174232722912,1005.2903456057456,0,0
3.8,9.264919,-2.5584733,1.6841452,1005.38513,5.657434744604764,1005.295896461718,0,0
3.82,9.408323,-2.5584738,1.7030836,1005.3876,5.657869978583808,1005.3011313307927,0,0
3.84,9.3653145,-2.4154773,1.7693663,1005.40265,5.6583222902252,1005.3061223283166,0,0
3.86,9.379663,-2.3296795,1.6699446,1005.36707,5.658737255409492,1005.3107517853467,0,0
3.88,9.288857,-2.4440773,1.7551648999999998,1005.38214,5.659026694308183,1005.3150993711513,0,0
3.9,9.327106,-2.5298755,1.7977754,1005.3769,5.659341035141519,1005.3191633802319,0,0
3.92,9.293656,-2.5680082000000004,1.7504323,1005.37726,5.659613092488033,1005.3229634864869,0,0
3.94,9.331905,-2.4583774,1.7551677,1005.3947,5.6598656727922325,1005.3265795118222,0,0
3.96,9.341475,-2.4488447,1.6983556,1005.3844,5.660093322574968,1005.3299827855659,0,0
3.98,9.370164,-2.501277,1.6936222,1005.3842,5.660380659161996,1005.3331851002181,0,0
4.0,9.279356,-2.5108106,1.7599046000000005,1005.3941,5.660569590617301,1005.3362339590835,0,0
4.02,9.308045,-2.53941,1.7030927,1005.3514,5.6607219703904335,1005.3389825285248,0,0
4.039999999999999,9.288936,-2.529877,1.6415464,1005.4117,5.660776745746036,1005.3416729473802,0,0
4.06,9.331965,-2.4297795,1.7551731,1005.40924,5.660818450902674,1005.3442934428699,0,0
4.079999999999999,9.322415,-2.4059472,1.6652203999999995,1005.40137,5.660784627295957,1005.3468143882907,0,0
4.1,9.293746,-2.3868810000000003,1.7788468999999998,1005.39636,5.660659311166433,1005.3492202598668,0,0
4.119999999999999,9.260298,-2.4536130000000003,1.7409724999999998,1005.38885,5.660407665341412,1005.3514887550557,0,0
4.14,9.403701,-2.391648,1.8072553,1005.37115,5.66032213158155,1005.3535639778861,0,0
4.159999999999998,9.408816,-2.3296912,1.7694105,1005.3908,5.6603487322139,1005.3555316944588,0,0
4.18,9.308461,-2.3630576000000003,1.6652555,1005.3936,5.660253799260911,1005.3574074147226,0,0
4.199999999999998,9.361062,-2.377358,1.7410081999999998,1005.38043,5.660190788605252,1005.3591476824547,0,0
4.22,9.303729,-2.563254,1.7930887999999998,1005.37,5.6601596408837676,1005.360724451366,0,0
4.239999999999998,9.341988,-2.4488573,1.7599498,1005.3876,5.660159115343133,1005.3622144363507,0,0
4.26,9.289433,-2.4583907000000003,1.7173423,1005.3852,5.660070935797862,1005.3636137351123,0,0
4.2799999999999985,9.236877,-2.5012906000000004,1.6510626,1005.35,5.6598005751102045,1005.364801146052,0,0
4.3,9.342054,-2.4965246,1.6984085999999998,1005.37256,5.659592528452934,1005.3658782742324,0,0
4.3199999999999985,9.29906,-2.477459,1.7031453,1005.37506,5.659346910663422,1005.3668630789052,0,0
4.34,9.30386,-2.3773618,1.7410223000000002,1005.387,5.6590406519822665,1005.3678057452304,0,0
4.3599999999999985,9.251307,-2.5108256,1.7362901000000002,1005.3922,5.658645762559724,1005.368726504512,0,0
4.38,9.318246,-2.5394256,1.6984169999999998,1005.3743,5.658307671434196,1005.3695601519972,0,0
4.4,9.366067,-2.4107292,1.7220911,1005.39484,5.658056710794969,1005.3703877703681,0,0
4.42,9.313512,-2.5823257,1.7031556,1005.3848,5.657863555993136,1005.3711709379872,0,0
4.44,9.323093,-2.4917617,1.6652822,1005.40186,5.657678864847328,1005.3719734255186,0,0
4.46,9.3422365,-2.4774628,1.6510811,1005.3868,5.657527681949303,1005.3727358791696,0,0
4.48,9.313578,-2.5727944,1.6984272,1005.36896,5.6574178179647685,1005.3733959900503,0,0
4.5,9.237124,-2.5680285,1.6984292,1005.3793,5.657191449228008,1005.3740005184607,0,0
4.52,9.323182,-2.6347606,1.6936968999999995,1005.3964,5.6570677399708424,1005.3746153178977,0,0
4.539999999999999,9.289746,-2.5346632,1.6605581000000005,1005.3865,5.656902576421418,1005.3752013395357,0,0
4.56,9.308888,-2.5632634,1.6937011000000002,1005.41895,5.656766467581006,1005.3758766434323,0,0
4.579999999999999,9.33759,-2.5251315,1.5658741000000005,1005.3915,5.656648515776639,1005.3765295860393,0,0
4.6,9.285036,-2.5489647,1.7031741000000002,1005.4138,5.6565036174930725,1005.377240699617,0,0
4.619999999999999,9.318517,-2.5298994,1.6463633000000002,1005.37573,5.656371083431815,1005.3778636010557,0,0
4.64,9.289859,-2.5203664,1.7221158,1005.40607,5.656215307963919,1005.3785155398033,0,0
4.659999999999998,9.280806,-2.61571,1.7032244,1005.40076,5.656066837400732,1005.379171672937,0,0
4.68,9.304749,-2.5585127,1.6842909,1005.3652,5.655934365279888,1005.3797011341516,0,0
4.699999999999998,9.319124,-2.520381,1.599075,1005.4006,5.655794667746303,1005.3802442019977,0,0
4.72,9.276145,-2.6681454,1.7695171000000005,1005.373,5.655706528785165,1005.3806979776193,0,0
4.739999999999998,9.314428,-2.4441182999999995,1.7363803,1005.38525,5.655605960426008,1005.3811153210394,0,0
4.76,9.32403,-2.4488857000000004,1.6843057,1005.4106,5.655497337537576,1005.3815902305296,0,0
4.7799999999999985,9.324072,-2.4965525,1.7979352,1005.39996,5.655449013359169,1005.3820759917253,0,0
4.8,9.290655,-2.630017,1.6701101000000005,1005.3871,5.655413762226767,1005.3825232967473,0,0
4.8199999999999985,9.290691,-2.6919832,1.6843168000000002,1005.38214,5.655430249690925,1005.3829171555963,0,0
4.84,9.333754,-2.6443186,1.5896326,1005.3768,5.6555175359211125,1005.3832431475156,0,0
4.8599999999999985,9.300337,-2.5823545,1.5612302,1005.3746,5.655557244017505,1005.3835000786439,0,0
4.88,9.281258,-2.6919863,1.6180465,1005.3893,5.65559770090227,1005.3837479827063,0,0
4.9,9.2813,-2.6919873,1.8358330000000005,1005.3944,5.655718382039144,1005.3840053779976,0,0
4.92,9.310018,-2.6347897,1.7506172999999998,1005.3712,5.655901442206724,1005.3841867131166,0,0
4.94,9.29094,-2.5823584,1.6227922,1005.3995,5.65602666134141,1005.3844020686604,0,0
4.96,9.290982,-2.6252582,1.6180615,1005.3966,5.656122505180918,1005.3846362693716,0,0
4.98,9.224107,-2.630026,1.6701438000000002,1005.38904,5.656081140747273,1005.3848590625504,0,0
5.0,9.319742,-2.6872256,1.6559442,1005.40375,5.656134261065217,1005.385123929978,0,0
5.02,9.2624235,-2.6586273,1.6843543,1005.3735,5.656151715717822,1005.3853161206888,0,0
5.039999999999999,9.338948,-2.5108650000000003,1.6654209999999998,1005.3835,5.656200829448912,1005.3854794023667,0,0
5.06,9.286408,-2.5871310000000003,1.6370182,1005.381,5.65620521852384,1005.3856075522084,0,0
5.079999999999999,9.272108,-2.6347978,1.6938346999999998,1005.3885,5.656188427469556,1005.3857311982208,0,0
5.1,9.310391,-2.5680668,1.627557,1005.3932,5.656168274274024,1005.3858673395239,0,0
5.119999999999999,9.31521,-2.6014338,1.6417636999999998,1005.3908,5.656177950857147,1005.386005391557,0,0
5.14,9.233998,-2.6395671000000003,1.6985807000000002,1005.406,5.6560952985940505,1005.3861993549235,0,0
5.159999999999998,9.285455,-2.6014072999999995,1.5848525,1005.3851,5.655971764312395,1005.3863667832768,0,0
5.18,9.285451,-2.634773,1.6606025000000002,1005.39044,5.6558572175807935,1005.38652938655,0,0
5.199999999999998,9.247209,-2.6586058,1.6795398,1005.38763,5.65569584479087,1005.3866770250104,0,0
5.22,9.361919,-2.6014068,1.6132578000000002,1005.40265,5.6556648469876025,1005.386864981064,0,0
5.239999999999998,9.275881,-2.5823407000000005,1.6037886,1005.3902,5.655565503628832,1005.3870430651014,0,0
5.26,9.314114,-2.5394416,1.717414,1005.3851,5.6554983723716035,1005.3871934251221,0,0
5.2799999999999985,9.381029,-2.5728073,1.6274598999999998,1005.3572,5.655578373392581,1005.387218306906,0,0
5.3,9.26153,-2.6300060000000003,1.7552886000000003,1005.3927,5.6556296605890575,1005.3872600265454,0,0
5.3199999999999985,9.342783,-2.4822426,1.6369281,1005.3897,5.655693027948675,1005.3873056739232,0,0
5.34,9.366678,-2.5156085,1.6321933000000002,1005.3922,5.6558301640757245,1005.3873636275202,0,0
5.3599999999999985,9.323656,-2.520375,1.6748028,1005.39185,5.655964336404537,1005.3874309862596,0,0
5.38,9.304533,-2.6157060000000003,1.6085205,1005.3945,5.6560864755799605,1005.3875159528908,0,0
5.4,9.309309,-2.6347720000000003,1.7268804,1005.37897,5.656259367100152,1005.387560263976,0,0
5.42,9.323646,-2.5156080000000003,1.6227232,1005.39185,5.656402805482857,1005.3876148603005,0,0
5.44,9.34276,-2.6300054,1.6937388999999998,1005.3863,5.656644649000123,1005.3876583681157,0,0
5.46,9.271059,-2.6681378,1.5848472,1005.3815,5.656814843803833,1005.3876746414958,0,0
5.48,9.333193,-2.5966392000000003,1.5801125,1005.4063,5.657002224319757,1005.3877560719452,0,0
5.5,9.232814,-2.672904,1.636925,1005.3865,5.6570682509949375,1005.3878235020312,0,0
5.52,9.2997265,-2.6633708,1.7316127,1005.38605,5.657186923773438,1005.387876698648,0,0
5.539999999999999,9.314063,-2.6586041,1.6227212,1005.39606,5.6573385946983175,1005.3879531630637,0,0
5.56,9.309279,-2.6300046000000004,1.5043606,1005.37054,5.657454176514473,1005.387958039634,0,0
5.579999999999999,9.266257,-2.7158027,1.5753764,1005.37537,5.6575245217732135,1005.3879170316287,0,0
5.6,9.266253,-2.634771,1.6416577,1005.3805,5.657531217099764,1005.3878540956416,0,0
5.619999999999999,9.25669,-2.625238,1.6558607,1005.3856,5.657462449216756,1005.3877903706592,0,0
5.64,9.290145,-2.67767,1.7079387,1005.3905,5.657441218779379,1005.3877438179304,0,0
5.6599999999999975,9.330568,-2.6157582,1.6229194,1005.3578,5.657477071927088,1005.3875948861943,0,0
5.68,9.316317,-2.6824923,1.6276618,1005.3804,5.657574153330541,1005.387437388522,0,0
5.6999999999999975,9.340282,-2.668194,1.6134648,1005.3904,5.657759271267869,1005.3873088889806,0,0
5.72,9.283012,-2.66343,1.6466136000000002,1005.39233,5.6579174097255445,1005.3872134227852,0,0
5.7399999999999975,9.273536,-2.6538987,1.6750276000000002,1005.3647,5.658037117738961,1005.3870480205327,0,0
5.76,9.273618,-2.7063330000000003,1.5708783000000002,1005.35205,5.65811654780048,1005.3867758782286,0,0
5.7799999999999985,9.249791,-2.6920352000000003,1.60876,1005.3746,5.658117788438071,1005.3864915801273,0,0
5.8,9.307237,-2.6968038,1.5424865,1005.39484,5.658143660723723,1005.3862704286361,0,0
5.8199999999999985,9.278635,-2.6968057,1.5898376,1005.35956,5.658150571094811,1005.3859788616356,0,0
5.84,9.230919,-2.6777413,1.6419235,1005.3645,5.658053776563747,1005.3856439091319,0,0
5.8599999999999985,9.259681,-2.68251,1.6135248,1005.3868,5.6579151895155055,1005.3853521070273,0,0
5.88,9.2979965,-2.6872785,1.6703446,1005.3717,5.6578380969824495,1005.3850451231018,0,0
5.9,9.317198,-2.5585835,1.6277425,1005.3843,5.657767080376921,1005.3847711896623,0,0
5.92,9.279042,-2.6396167,1.6892973000000002,1005.38403,5.657692760819702,1005.3845264737924,0,0
5.94,9.2265415,-2.701584,1.6514292000000002,1005.38135,5.657534232764737,1005.3842988075439,0,0
5.96,9.269637,-2.730185,1.6514362,1005.38654,5.657403089448509,1005.3841057099396,0,0
5.98,9.279285,-2.682522,1.6277722,1005.4141,5.657280005317029,1005.3840430683408,0,0
6.0,9.303266,-2.6443918,1.7366711,1005.381,5.657228982990185,1005.383976763178,0,0
6.02,9.269885,-2.701592,1.5567708,1005.3435,5.657145702042196,1005.3837724595887,0,0
6.039999999999999,9.279532,-2.7492597,1.6183261999999998,1005.3809,5.657101496994523,1005.3835815960826,0,0
6.06,9.3560915,-2.672997,1.6420056,1005.35535,5.657207137453978,1005.3833113153427,0,0
6.079999999999999,9.303591,-2.7063646,1.7272321,1005.34784,5.657390704344244,1005.382944798546,0,0
6.1,9.251096,-2.6634676,1.5899419,1005.3781,5.657466448623827,1005.3826035030291,0,0
6.119999999999999,9.265517,-2.7349682,1.6372935,1005.3477,5.657532295172089,1005.3821762817,0,0
6.14,9.275154,-2.6682384,1.6467694,1005.36273,5.65757316323078,1005.3817287823192,0,0
6.1599999999999975,9.30622,-2.7301447,1.665488,1005.36755,5.6576948769409645,1005.38128232825,0,0
6.18,9.229728,-2.7301443,1.6418145,1005.3776,5.657728966264664,1005.3808745850528,0,0
6.1999999999999975,9.253613,-2.6729453,1.651282,1005.3652,5.657702913187814,1005.3804578746576,0,0
6.22,9.277496,-2.706311,1.632343,1005.36273,5.657683263548655,1005.3800258490036,0,0
6.2399999999999975,9.301381,-2.6824777,1.6323417,1005.38495,5.657702749479352,1005.3796618380792,0,0
6.26,9.287025,-2.7349092999999995,1.6607466,1005.4077,5.657768463525767,1005.3794411354093,0,0
6.2799999999999985,9.243992,-2.6395779,1.6086667,1005.362,5.657717593908987,1005.3791833344427,0,0
6.3,9.330015,-2.6395774,1.637072,1005.37964,5.657743284598324,1005.3789571855046,0,0
6.3199999999999985,9.32522,-2.7015421,1.7696339,1005.3869,5.657909650682166,1005.3787859544352,0,0
6.34,9.368223,-2.692009,1.6276003,1005.3769,5.658228124933427,1005.3786278652262,0,0
6.3599999999999985,9.277391,-2.6395764,1.5660517,1005.3667,5.6584504027979925,1005.3784452372864,0,0
6.38,9.296495,-2.6681755000000003,1.5471126,1005.3617,5.6586344351067535,1005.3782235843843,0,0
6.4,9.200885,-2.7730393,1.7933005000000002,1005.3919,5.65874412294019,1005.3780769669768,0,0
6.42,9.234328,-2.6205091,1.6228604,1005.3843,5.6587037375418925,1005.3779698187536,0,0
6.44,9.243873,-2.7492058,1.584984,1005.3638,5.658610365645876,1005.3778241312366,0,0
6.46,9.18172,-2.8016374,1.6370608999999998,1005.33386,5.658397395793071,1005.377537130874,0,0
6.48,9.435038,-2.5108774,1.5944501,1005.3863,5.658400702442397,1005.3773150836826,0,0
6.5,9.372884,-2.5490093,1.6228551000000002,1005.35596,5.6585019552870355,1005.3770420044827,0,0
6.52,9.3728695,-2.7063053,1.5565719999999998,1005.3526,5.658754251644804,1005.3767127204857,0,0
6.539999999999999,9.229459,-2.7539706,1.6086489,1005.37836,5.658901814817119,1005.3764276953523,0,0
6.56,9.272461,-2.692005,1.6039133,1005.3629,5.659003389726043,1005.3761271474408,0,0
6.579999999999999,9.325026,-2.6157398,1.6607248,1005.37054,5.659144314339478,1005.3758414695758,0,0
6.6,9.195954,-2.7253702,1.6607233,1005.3704,5.659127703828237,1005.3755694553237,0,0
6.619999999999999,9.329776,-2.7253700000000003,1.6039093,1005.36053,5.659215369398925,1005.3752749614912,0,0
6.64,9.286741,-2.7253695,1.6607207,1005.3547,5.659329802432032,1005.3749406768795,0,0
6.6599999999999975,9.264336,-2.6968067,1.5519661,1005.37225,5.659369888778745,1005.3746356165601,0,0
6.68,9.302618,-2.672975,1.5756421,1005.3699,5.659413867497015,1005.3743490170418,0,0
6.6999999999999975,9.302659,-2.7063417000000003,1.6229899,1005.35675,5.6594962487360485,1005.3740324212463,0,0
6.72,9.269243,-2.6968098,1.6419313000000002,1005.3849,5.659547602940103,1005.3737918004848,0,0
6.7399999999999975,9.274069,-2.792142,1.5993258999999995,1005.3699,5.659621670324911,1005.3735651774983,0,0
6.76,9.202417,-2.730178,1.5472516,1005.37964,5.65952088493064,1005.3733868027887,0,0
6.7799999999999985,9.212018,-2.706346,1.6135371,1005.3618,5.6592933866829584,1005.3731874784047,0,0
6.8,9.2694235,-2.6872811000000003,1.6514167000000002,1005.3637,5.6590698873017065,1005.3729772004573,0,0
6.8199999999999985,9.479776,-2.48232,1.926016,1005.3743,5.659257074360392,1005.372796160941,0,0
6.84,9.518056,-2.196328,1.8502693,1005.3512,5.659712932378572,1005.3725584482453,0,0
6.8599999999999985,9.542001,-2.2821271,1.6893036,1005.3561,5.660432843983388,1005.3722891548932,0,0
6.88,9.393867,-2.5681214,1.4241806,1005.3611,5.661147962119582,1005.3720109263298,0,0
6.9,9.360454,-2.615788,1.4478569,1005.35333,5.661823348495388,1005.3716978322366,0,0
6.92,9.384397,-2.5347576000000003,1.6182994,1005.36847,5.6625197100045455,1005.3714095620996,0,0
6.94,9.389221,-2.6443896,1.7413981,1005.3485,5.663344832129281,1005.3710723721832,0,0
6.96,9.470525,-2.52046,1.5425575,1005.36584,5.664305945239429,1005.3707555946327,0,0
6.98,9.360632,-2.3726978,1.5520301,1005.3734,5.665092256141072,1005.3704852098488,0,0
7.0,9.222061,-2.6872916,1.5615028,1005.35583,5.665619693784125,1005.3701935390984,0,0
7.02,9.136066,-2.5728955,1.4431466,1005.34534,5.665643832488858,1005.3698463460823,0,0
7.039999999999999,9.030955,-3.073385,1.7082772000000002,1005.36835,5.665411913817314,1005.3695341794873,0,0
7.06,9.39426,-2.1868064,1.5189049,1005.3503,5.665106198569635,1005.3691891060381,0,0
7.079999999999999,9.36085,-2.4871006,1.8313799,1005.38513,5.664929570019081,1005.3689415863563,0,0
7.1,9.250957,-2.334572,1.4526313999999998,1005.36786,5.664438848817433,1005.3687189842548,0,0
7.119999999999999,9.518669,-2.1343777000000004,1.5567923,1005.3676,5.664145288393682,1005.3685182646948,0,0
7.14,9.528273,-2.2487762000000004,1.7603756999999998,1005.3726,5.664169540959954,1005.3683556031384,0,0
7.1599999999999975,9.490077,-2.0104494,1.5473313,1005.3528,5.664217356546928,1005.3681558752156,0,0
7.18,9.361065,-2.2201788,1.6088824,1005.35474,5.664142448002846,1005.3679310984727,0,0
7.1999999999999975,9.37545,-2.2487793,1.6846373,1005.35706,5.664028167809192,1005.367693349788,0,0
7.22,9.389834,-2.2583137000000004,1.8361422,1005.32916,5.663969173542883,1005.367344554991,0,0
7.239999999999997,9.4137745,-2.3345792000000003,1.7935363000000002,1005.3545,5.664027398878214,1005.3669901195103,0,0
7.26,9.370801,-2.3250473,1.5994298,1005.3695,5.664029243563952,1005.3666859758896,0,0
7.2799999999999985,9.303933,-2.5347772,1.6231066,1005.36456,5.663964989668593,1005.3664095810727,0,0
7.3,9.131899,-2.5061789,1.5378907,1005.3795,5.663457913824067,1005.3662124841208,0,0
7.3199999999999985,9.275346,-2.5538456000000003,1.623115,1005.3745,5.662899851609964,1005.3660681643112,0,0
7.34,9.26105,-2.5300138,1.7462136,1005.36194,5.662301793640566,1005.3659257819361,0,0
7.3599999999999985,9.495303,-2.1820562000000003,1.7414828999999998,1005.3717,5.66196004309886,1005.3658207600544,0,0
7.38,9.595715,-1.9627955,1.6988765,1005.3767,5.661936266215344,1005.3657671279835,0,0
7.399999999999999,9.476273,-2.0724275000000003,1.5284427,1005.3662,5.661942608323183,1005.365721297025,0,0
7.42,9.552782,-2.4585195,1.7272909,1005.3513,5.662379269420067,1005.3656288841206,0,0
7.439999999999999,9.098757,-2.3584232000000003,1.0597448,1005.3713,5.662040690980381,1005.3655676440953,0,0
7.46,9.576779,-2.4918878,1.8172535,1005.36414,5.66226987091895,1005.3655083928903,0,0
7.479999999999999,9.830151,-2.2678607000000004,2.6268406000000004,1005.3487,5.663755632764808,1005.3653955283113,0,0
7.5,9.390456,-1.9246697,1.7509798,1005.3537,5.6649320324939945,1005.3652536972676,0,0
7.52,8.941196000000003,-2.1105664,1.9072189,1005.36285,5.6650795302755474,1005.3651197220469,0,0
7.539999999999999,9.256697,-1.9914033,2.361725,1005.34033,5.665098399352086,1005.3649120985423,0,0
7.56,9.103798,-2.1105685000000003,2.0729313,1005.37103,5.664616560222258,1005.3647506668593,0,0
7.579999999999999,9.271133,-2.2916987,2.210233,1005.3604,5.664172504083222,1005.3645923634233,0,0
7.6,9.424119,-2.1534693,2.480097,1005.37335,5.664132356516472,1005.3644840139992,0,0
7.619999999999999,9.323788,-1.7673793999999998,2.2859905,1005.3553,5.663994425748387,1005.3643552139972,0,0
7.64,9.156536,-1.9532759,2.352276,1005.335,5.663546655419619,1005.3641357275453,0,0
7.659999999999997,9.485332,-1.6767911,2.7025294,1005.34515,5.6635558675873146,1005.3638734406971,0,0
7.68,9.35628,-1.7149236,2.5652318,1005.3222,5.663652145636588,1005.3634916596517,0,0
7.699999999999997,9.394522,-1.7673557,2.693061,1005.3322,5.663990144742937,1005.3630416679448,0,0
7.72,9.184212,-1.8674536,2.5652322999999995,1005.3801,5.6640945698961795,1005.3627054652684,0,0
7.739999999999997,9.260692,-1.7864221000000002,2.5604982000000005,1005.36,5.664108509605472,1005.3623986569086,0,0
7.76,9.246355,-1.9580183,2.4326696,1005.34973,5.664014664924648,1005.3620819538768,0,0
7.7799999999999985,9.1794405,-1.929419,2.5841708,1005.37476,5.663763629335997,1005.361847756044,0,0
7.8,9.361075,-1.910353,2.4942172,1005.34973,5.66367545373243,1005.3615971949173,0,0
7.8199999999999985,9.179445,-2.058116,2.498952,1005.37225,5.663439201180996,1005.3614141492038,0,0
7.84,9.303722,-1.7768893,2.6173122,1005.33966,5.663266783107733,1005.3611740950743,0,0
7.8599999999999985,9.184229,-1.9437189,2.8066885,1005.3693,5.663091943955786,1005.3609912365033,0,0
7.88,9.275048,-1.9055865,2.8161578,1005.3567,5.663082797089058,1005.3608142142184,0,0
7.899999999999999,9.337189,-1.7387573,2.7072666,1005.3492,5.663214528085648,1005.3606159861563,0,0
7.92,9.318072,-1.8817537,2.801955,1005.3668,5.663541983128646,1005.3604630942908,0,0
7.939999999999999,9.298955,-1.7911893,2.5699694,1005.37177,5.663837311684494,1005.3603687038986,0,0
7.96,9.298958,-1.9818516,2.6267827,1005.35425,5.664210372554289,1005.3602632732144,0,0
7.979999999999999,9.208144,-2.0342839,2.5415635,1005.3588,5.664448486640652,1005.3601648468781,1,1
8.0,9.031294,-1.9961514,2.7072678,1005.34607,5.664297690539391,1005.3600271359182,1,1
8.02,9.150792,-1.9198866,2.7830186,1005.3438,5.664049227874589,1005.3598470368248,1,1
8.04,9.088656,-1.9103534,2.8398318,1005.3512,5.663624567538651,1005.3596567719336,1,1
8.059999999999999,9.208155,-1.8769877,3.0481458,1005.3563,5.663394431101984,1005.3594765694966,1,1
8.08,9.260734,-1.6624926,3.0292084,1005.3559,5.663347182855515,1005.3593044669733,1,1
8.1,9.126902,-1.6434265,2.7924883,1005.3684,5.6630472742842946,1005.3591851411024,1,1
8.12,9.079106,-1.6910921000000003,2.797223,1005.3638,5.66245158249835,1005.3590963182547,1,1
8.139999999999999,9.322879,-1.5719283000000002,3.1807098,1005.3609,5.662273397723608,1005.359024327641,1,1
8.16,9.036737,-1.6529756999999998,3.0955498,1005.3509,5.661880770656973,1005.3589314691553,1,1
8.18,8.812114999999997,-1.6911088,3.185506,1005.3859,5.660941326922302,1005.3589465061084,1,1
8.2,8.855161,-1.4861475,3.1618366,1005.3556,5.6595176283475706,1005.3589477453377,1,1
8.219999999999999,8.707015,-1.5433469,3.3985593,1005.3499,5.657575359329081,1005.3589162684378,1,1
8.24,8.678364,-1.4670827,3.1334352,1005.3629,5.654910192513973,1005.3589027968826,1,1
8.26,7.9184003,-1.3669857,2.891983,1005.3782,5.649947835401266,1005.3589603633476,1,1
8.28,7.961447200000001,-1.2859548,3.460114,1005.3701,5.643462973807327,1005.3590513317682,1,1
8.299999999999999,9.672645,-0.8283662,3.4979918,1005.3478,5.638864166196941,1005.3590912066702,1,1
8.32,12.406721,1.7932397,5.6190076,1005.3776,5.643053362368518,1005.3591930717896,1,1
8.34,16.756369,7.627503999999999,7.3328648,1005.3575,5.66762944147567,1005.3592769847504,1,1
8.36,17.855751,8.194724,7.8394485,1005.35474,5.712906537985964,1005.3593347970976,1,1
8.379999999999999,15.116951,3.123107,5.5764055,1005.35974,5.766459793522321,1005.3593873388182,1,1
8.4,13.181159,0.15354128,3.9856482,1005.37225,5.821643547044804,1005.3594800702626,1,1
8.42,11.489135,-1.5481203,3.0245664,1005.3623,5.874348082634366,1005.359572159514,1,1
8.44,10.074338,-2.9447217,2.3996274,1005.33936,5.922148328188845,1005.3595807658023,1,1
8.459999999999999,8.033392,-4.5176870000000005,2.4753804,1005.3419,5.962900029924342,1005.3595247195616,1,1
8.48,6.2887907,-5.480532,2.2812724,1005.34143,5.995416494479375,1005.3594100561132,1,1
8.5,5.404553400000001,-6.047753,1.7794279999999998,1005.36444,6.019823389958979,1005.359326847288,1,1
8.52,3.181973,-8.583561999999999,0.27388984,1005.34937,6.038753473280474,1005.3592174793196,1,1
8.54,4.4247494000000005,-10.990673,0.09871941,1005.33655,6.058366884552242,1005.3590392388572,1,1
8.559999999999999,8.458933,-10.270925,1.2917919,1005.324,6.081672875909437,1005.358755604325,1,1
8.58,11.957775,-7.7112837,1.4006857,1005.35394,6.110088510195321,1005.3584876486766,1,1
8.6,15.064673,-7.74465,0.7899499,1005.36395,6.148445208026885,1005.3582705475303,1,1
8.62,18.075981,-7.196497,0.051385403,1005.33875,6.200641179223355,1005.3580084429866,1,1
8.639999999999999,19.390451,-5.3804393,1.8504616000000005,1005.3667,6.26644075296605,1005.3578081370167,1,1
8.66,16.904465,-4.0267253,3.034018,1005.3413,6.338686776148434,1005.3575717173687,1,1
8.68,14.567149,-2.7206886000000003,2.9298618,1005.38654,6.4111011031957394,1005.3574671027852,1,1
8.7,12.607437,-1.5814818000000002,2.3475308,1005.36615,6.47886281285663,1005.3574059237692,1,1
8.719999999999999,11.575008,-0.59480494,2.6836740000000003,1005.3862,6.540140437588207,1005.3574555246647,1,1
8.74,10.843705,1.9267036,3.0482242000000004,1005.3587,6.5944926394158045,1005.3575038321277,1,1
8.76,9.830395,3.156475,2.7310197,1005.3584,6.640975652073166,1005.357549742806,1,1
8.78,9.744365,3.437702,2.5416443,1005.34564,6.680257385909949,1005.3575474344074,1,1
8.799999999999997,11.489,3.971556,2.62213,1005.3458,6.7167648586920485,1005.3575031039425,1,1
8.82,12.645721,2.6369197,3.9903736,1005.3612,6.752943322481443,1005.3574772423692,1,1
8.84,14.189604999999998,-0.5995725000000001,4.487487000000002,1005.3234,6.791557360044327,1005.3573317130107,1,1
8.86,16.240149,-1.7292465,3.5548096,1005.3282,6.835967235540121,1005.3570982491028,1,1
8.879999999999997,18.27157,-3.2688446,4.089798,1005.33026,6.890103409177756,1005.3567953426973,1,1
8.9,20.19784,-6.4386053,4.733678,1005.3128,6.958280692193714,1005.3563693113632,1,1
8.92,21.765623,-8.602623,5.3065414,1005.3478,7.043351358499487,1005.3559620205556,1,1
8.94,21.397585,-9.865761,5.642685,1005.3329,7.143522136244999,1005.355519115124,1,1
8.959999999999997,17.07187,-10.15652,3.9098935,1005.3678,7.2483963835208085,1005.3551719750699,1,1
8.98,13.467907,-8.397661,3.2328742000000004,1005.3675,7.348634765320138,1005.3549096230084,1,1
9.0,9.91174,-7.635012,2.8683257,1005.3498,7.437429471252591,1005.3546594140836,1,1
9.02,6.608902499999999,-6.4433727,2.7404976000000003,1005.3623,7.5091258605165665,1005.3544658355873,1,1
9.04,4.1090727,-6.042982,1.5758344,1005.3603,7.5609817866407525,1005.3543157926193,1,1
9.06,1.3893719999999998,-8.807586,1.1118635,1005.3678,7.5982582701248385,1005.3542317577997,1,1
9.08,-0.82366955,-11.553122,-0.052799348,1005.3148,7.62791595359752,1005.3540155503051,1,1
9.1,2.665595,-10.599811,1.3201786,1005.3191,7.649543345508393,1005.3536988133817,1,1
9.12,7.980744,-10.514014,2.9109392000000005,1005.3472,7.669209590081472,1005.3533955489079,1,1
9.14,12.942187,-11.014503,4.1608230000000015,1005.35205,7.695343583929166,1005.3531227404428,1,1
9.16,19.819946,-10.161279,4.5158687,1005.342,7.73796762377671,1005.3528416450174,1,1
9.18,22.582664,-10.247077,3.147625,1005.35223,7.799730362128062,1005.3525910671776,1,1
9.2,25.087275,-7.782767,2.210212,1005.3416,7.881012262724711,1005.3523300887564,1,1
9.22,21.468956,-4.5272083,3.6021263999999995,1005.3569,7.970675501229756,1005.352115939904,1,1
9.24,18.53415,-2.968544,8.019325,1005.3741,8.06363238017318,1005.3520058605942,1,1
9.26,16.292416,-1.8579359,7.863089599999999,1005.37885,8.154538454549195,1005.3520052334179,1,1
9.28,12.79837,-1.9628003,4.335957,1005.3916,8.233887526337856,1005.3521472204046,1,1
9.3,9.9496,-0.2420729,2.0729108,1005.3991,8.295488265209109,1005.3524417101128,1,1
9.32,10.398894,2.68936,2.958244,1005.3511,8.34321095885025,1005.3526970910623,1,1
9.34,12.090937,5.2728333,3.3227925000000003,1005.3586,8.383615931310462,1005.3529439961417,1,1
9.36,13.878576,6.4644732000000005,5.2496943,1005.3511,8.42277723881189,1005.3531555230836,1,1
9.38,15.226473,1.2975258,5.9882610000000005,1005.35614,8.461172063006348,1005.3533531724063,1,1
9.4,16.31626,-2.3774893,6.2297144,1005.3311,8.501272832441654,1005.3534477039273,1,1
9.42,17.544662,-4.7798343,5.992994,1005.3536,8.545895972894915,1005.3535317802448,1,1
9.44,18.682247,-7.820897,6.1066194000000005,1005.33624,8.59852711810326,1005.3535438196704,1,1
9.46,19.67644,-9.28423,5.7420692,1005.3137,8.660846393707923,1005.3534110199556,1,1
9.48,20.412523,-10.942991,6.6747465,1005.3104,8.734830569914154,1005.3531388384564,1,1
9.5,18.366758,-11.62461,5.7894115,1005.3282,8.815510804222967,1005.3528085590648,1,1
9.52,14.127066,-9.889583,3.308583,1005.3455,8.891560076726543,1005.3524904133818,1,1
9.54,11.794514,-8.473915,3.5026932,1005.36566,8.957798625831497,1005.3522567103682,1,1
9.56,8.53468,-7.7493973,2.6457653,1005.3755,9.008662302337935,1005.352133886228,1,1
9.58,5.141012,-7.101146000000001,2.64103,1005.34015,9.04020453573813,1005.3519822168272,1,1
9.6,2.7415433,-7.577801700000001,1.3390679,1005.33264,9.052509423803173,1005.3517785697644,1,1
9.62,-0.17892472,-10.585498,1.9071957,1005.3757,9.053151875490864,1005.3516847443684,1,1
9.64,-0.088115595,-11.243283,1.3153946,1005.33014,9.044657023510927,1005.3515242791684,1,1
9.66,6.4236445,-11.0383625,2.821088,1005.3501,9.031774950405367,1005.351377364713,1,1
9.68,11.504631,-11.0907955,4.5728225999999985,1005.3601,9.022425019977527,1005.3512789525873,1,1
9.7,16.556942000000006,-9.317637,4.8900332,1005.3501,9.022457789728461,1005.3511877514037,1,1
9.72,19.506134,-8.774252,3.9100165,1005.3453,9.035198205678588,1005.3510859701328,1,1
9.74,21.829178,-8.268998,3.1004386000000004,1005.34503,9.062872246989961,1005.3509742347093,1,1
9.76,20.428753,-6.1860147,2.2245789,1005.36755,9.099303327972613,1005.350935178044,1,1
9.78,17.895512,-5.1993384,4.142018,1005.3674,9.138414740591001,1005.3509599409336,1,1
9.8,16.380377,-4.3222938,7.7354364,1005.3522,9.178783576445603,1005.3509862856357,1,1
9.82,14.4971895,-2.7350311,6.2299013,1005.3774,9.214695135810203,1005.351104653186,1,1
9.84,12.585327,-0.38035345,3.5265613,1005.3723,9.240430846686749,1005.351285546002,1,1
9.86,11.361754,2.6845412,2.655436,1005.36224,9.254790333922033,1005.3514848189287,1,1
9.88,11.720294,3.9476776,2.9726465,1005.3393,9.26059814836086,1005.3516170311387,1,1
9.9,13.316804,6.054494,3.2993252,1005.3473,9.263560359569318,1005.3517183125352,1,1
9.92,14.511817,2.675004,4.553948,1005.31964,9.264926670094958,1005.351692322852,1,1
9.94,15.324442,-1.1191766,6.078432,1005.34467,9.267124433386345,1005.3516440780056,1,1
9.96,15.654303,-2.9400027,6.433517,1005.3293,9.271408971732802,1005.3515210101787,1,1
9.98,15.721271,-5.9095693,6.286755,1005.3592,9.279091463364393,1005.35143991181,1,1
10.0,17.188736,-8.612208,6.348308,1005.3389,9.294556698937235,1005.3513231096092,1,1
10.02,19.397058,-9.060266,7.342539,1005.3218,9.321802930121637,1005.3511136199896,1,1
10.04,17.24621,-8.507347,6.973261,1005.3293,9.354835452358977,1005.3508499859296,1,1
10.06,15.492076999999998,-8.87914,6.125807,1005.324,9.389582228299334,1005.3505203789254,1,1
10.08,13.919577,-8.364353,4.643944,1005.3489,9.421587874748123,1005.3502233048121,1,1
10.1,11.20471,-7.501607400000001,3.5645049,1005.34607,9.444939128999918,1005.349945858228,1,1
10.12,8.623667999999999,-6.6912947,3.086335,1005.3614,9.455146763874156,1005.3497419413368,1,1
10.14,6.5923114,-5.9381804,2.5371494,1005.3539,9.449307930872509,1005.3495767293832,1,1
10.16,4.2960706,-6.8151793000000005,1.8694211,1005.3462,9.427320695660107,1005.349418591875,1,1
10.18,1.5715622,-8.717035000000001,2.357063,1005.341,9.393005218862234,1005.349248554642,1,1
10.2,0.8736904000000001,-10.113635,0.94620854,1005.341,9.350059789752562,1005.3490686149464,1,1
10.22,3.8467093,-9.322386,1.7131802,1005.34125,9.299714240981805,1005.3488814732173,1,1
10.24,9.520318,-8.145046,2.1818848,1005.32104,9.24818310067031,1005.348615885482,1,1
10.26,14.429156,-6.6578803,0.004056655,1005.3156,9.202385813943401,1005.3482623549713,1,1
10.28,18.109583,-8.626468,-0.25160307,1005.3586,9.170486360972092,1005.347987190934,1,1
10.3,20.475567,-9.150787,1.8694085,1005.35846,9.156062267349547,1005.3477817581037,1,1
10.32,19.90197,-7.811385,4.0235605,1005.3735,9.155572956608633,1005.3476928233252,1,1
10.34,17.755817,-4.9180845999999985,5.600116000000001,1005.378,9.162204697903423,1005.3477233463913,1,1
10.36,16.551289,-3.445218,7.49861,1005.3731,9.173520513191418,1005.3478416725252,1,1
10.38,15.102987,-1.4098978000000002,3.7678976,1005.3729,9.182980052794168,1005.348036435476,1,1
10.4,12.813441,0.0010033697,1.4953812,1005.37537,9.18509276103065,1005.3483069288518,1,1
10.42,12.564872,1.3833053999999998,2.5700893,1005.3659,9.180704146196637,1005.3486092718547,1,1
10.44,13.888858,4.009679,4.0566907,1005.3653,9.17498284406842,1005.3489365087537,1,1
10.46,14.83046,4.4053035000000005,5.098258,1005.3678,9.170754249200607,1005.3492935638457,1,1
10.48,14.027432999999998,0.5205599,5.3681173,1005.3553,9.165239348651133,1005.3496306808952,1,1
10.5,13.960496,-2.2202096,6.8641872,1005.33,9.160033253388061,1005.349857887069,1,1
10.52,13.496834,-3.3212836,7.034623599999999,1005.33215,9.15483577973198,1005.3499948980507,1,1
10.54,14.839939,-5.6854954000000015,7.7542515,1005.35,9.154038637052766,1005.3501159793213,1,1
10.56,17.593084,-7.7112820000000015,8.412332000000001,1005.32214,9.163965411375983,1005.350122253206,1,1
10.58,18.343496,-8.564494999999999,8.085656,1005.35004,9.185055560065805,1005.3501275006993,1,1
10.6,17.04815,-9.417709,8.104592,1005.33215,9.214470638673916,1005.3500674183816,1,1
10.62,15.652427,-9.679868,6.9209895,1005.35754,9.248156627659915,1005.3500412309396,1,1
10.64,13.12389,-8.883853,5.7279177,1005.3597,9.27965310018262,1005.3500528632846,1,1
10.66,10.672826,-7.921032,4.539671,1005.3547,9.303268509205273,1005.3500798713167,1,1
10.68,7.87666,-6.719861,3.7016828,1005.37714,9.31349701098853,1005.3502011520774,1,1
10.7,5.959976,-6.1288075,2.7832103,1005.35693,9.307692817650606,1005.35033253961,1,1
10.72,4.119772,-5.9143133,1.4291722,1005.3319,9.284329218303764,1005.3503822764908,1,1
10.74,3.2068465,-6.2813387,1.3392202,1005.3368,9.245182039082351,1005.3503773278037,1,1
10.76,2.9200783,-6.7341623,1.6706302,1005.3243,9.192955040972278,1005.3502790767633,1,1
10.78,4.2010846,-6.2432075,1.8600082,1005.3293,9.129823901953808,1005.3501167374679,1,1
10.8,6.648362,-5.861883,-0.14737777,1005.3316,9.059598935535519,1005.3499066342116,1,1
10.82,10.042043,-6.047779,-0.46458113,1005.3318,8.989317595562609,1005.3496558030913,1,1
10.84,13.784646,-6.7961287,-1.0232393,1005.3293,8.926869889294345,1005.3493608878218,1,1
10.86,16.838959,-8.612186999999999,-0.16157599,1005.3441,8.878866760691986,1005.349081361494,1,1
10.88,18.827377,-8.350028,1.5380771,1005.3442,8.84741435247331,1005.348816799129,1,1
10.9,18.335077,-5.3423305,2.1630204,1005.3489,8.82771956497806,1005.3485833313466,1,1
10.92,16.571344,-3.3594432,3.5738747,1005.3792,8.814457444245841,1005.3484872592212,1,1
10.94,15.491132,-1.5052531999999998,5.0983550000000015,1005.3514,8.805047722933713,1005.348412855758,1,1
10.96,12.871818,-1.2716922,2.953671,1005.3614,8.792610986031088,1005.3483938665773,1,1
10.98,11.409215,-1.0714973,1.5712265,1005.3539,8.774009285223617,1005.3483969098172,1,1
11.0,11.729482,-1.2907593000000002,1.978387,1005.3435,8.750855139514579,1005.3483819699487,1,1
11.02,14.17676,2.7036147,2.1488276,1005.3639,8.729220610875965,1005.3484246339892,1,1
11.04,17.202393,6.35003,5.865337,1005.36597,8.718694103114476,1005.3485254952533,1,1
11.06,14.473145,0.76839167,4.7006745,1005.3514,8.70967458195075,1005.3486249644832,1,1
11.08,13.813551,-2.64923,5.978966000000002,1005.3739,8.702115941353616,1005.3488038456222,1,1
11.1,12.905407,-3.588242,6.6417847000000005,1005.3542,8.695184990120309,1005.3489813311528,1,1
11.12,13.364285,-5.3518690000000015,6.300909,1005.3485,8.690420279797857,1005.3491364245752,1,1
11.14,15.658611,-7.5397186,6.812226299999999,1005.3385,8.693722686882207,1005.3492351739952,1,1
11.16,17.442201999999998,-8.006860000000001,7.067950200000001,1005.3657,8.70785257715203,1005.3493817023558,1,1
11.18,15.855353,-7.7447,7.626614,1005.33325,8.728944496873675,1005.3494531006868,1,1
11.2,14.158566,-7.215613,7.0821619999999985,1005.34326,8.752317982382836,1005.3494938930901,1,1
11.22,12.28015,-6.9486865999999985,5.0321690000000014,1005.3584,8.772598395143456,1005.3495619992419,1,1
11.24,10.846257,-7.0535526,3.962198,1005.33575,8.787060848968075,1005.3495724546408,1,1
11.26,8.929602000000003,-6.5339985,3.692341,1005.35077,8.792450996190926,1005.3495860041942,1,1
11.28,6.8265350000000025,-6.0954766,2.8496213,1005.34326,8.785483446405559,1005.3495752029646,1,1
11.3,5.665089599999999,-6.0144463,1.9642918000000005,1005.3555,8.765350838022183,1005.3495869882672,1,1
11.32,4.560999,-6.171744,1.61395,1005.34076,8.732305826536862,1005.3495656246033,1,1
11.34,3.614645,-6.2480097,1.107373,1005.3657,8.686849349025128,1005.3496048314212,1,1
11.36,4.164366200000001,-6.6865343999999975,1.1594554,1005.32825,8.631960390947684,1005.3495625971724,1,1
11.38,6.009417,-7.2680554000000015,1.7986044,1005.31287,8.572340050228773,1005.34939318564,1,1
11.4,9.106778,-6.4053097,1.5003412,1005.34033,8.512149417640806,1005.3492108661418,1,1
11.42,12.31885,-4.9133782,-0.42182308,1005.3378,8.455900877693875,1005.3490086895152,1,1
11.44,14.19258,-5.976322,-0.024128806000000003,1005.3378,8.407765801325302,1005.3487896949657,1,1
11.46,16.630325,-8.698028,2.3714843,1005.34546,8.374283632187016,1005.3485842044797,1,1
11.48,18.456257,-8.402500999999999,3.8344197,1005.378,8.357447206703448,1005.3485085299502,1,1
11.5,17.52424,-6.35765,3.4367337,1005.37286,8.351883032048361,1005.3485293292282,1,1
11.52,15.220423,-3.1306918,2.840203,1005.39996,8.349732147124195,1005.348732857885,1,1
11.54,13.695715,-1.171638,3.4036013999999994,1005.34247,8.347205376312733,1005.3488901495176,1,1
11.56,12.323955,-1.1716392,3.2379017000000005,1005.36285,8.341518687344022,1005.349079387866,1,1
11.58,10.66541,-1.1859399,2.7171216,1005.37286,8.329472580924621,1005.3493322090744,1,1
11.6,9.8051,-0.6473204,3.5172410000000003,1005.3475,8.310535340048983,1005.3495490059416,1,1
11.62,9.728656,-0.2755298,4.2037325,1005.3372,8.285919489243367,1005.3496961112317,1,1
11.64,10.8424015,0.8779758,4.5919585,1005.3575,8.258880824546123,1005.3498541874658,1,1
11.66,11.625084,0.4490152,4.430878,1005.36475,8.231132189241482,1005.3500474885514,1,1
11.68,11.625081,-2.3108213,4.170486,1005.3645,8.203096961348235,1005.3502703184315,1,1
11.7,12.471104,-4.2269773,3.4745278,1005.3346,8.177099754612337,1005.3504107977676,1,1
11.72,13.608695999999998,-5.208888,3.7538579,1005.35474,8.155966243288438,1005.3505505104367,1,1
11.74,13.704289,-6.109767,4.482956,1005.3696,8.140479765851701,1005.3507425387137,1,1
11.76,12.772223,-5.7808743,3.801201,1005.3347,8.127681384785964,1005.3508544617599,1,1
11.78,12.781782000000002,-6.9772797,3.483996,1005.36206,8.118234147834142,1005.3509936969012,1,1
11.8,13.078127,-8.893436,3.5692148,1005.35706,8.114359561100272,1005.3511385637632,1,1
11.82,12.389833,-8.86007,2.8401167000000003,1005.3361,8.11392869584071,1005.3512124292928,1,1
11.84,11.257017,-7.654131,2.3998168,1005.3346,8.113067649993736,1005.3512178921294,1,1
11.86,9.6892395,-6.5435233,2.7975063,1005.3795,8.108086751651367,1005.35132453468,1,1
11.88,8.432147,-5.1421556,2.3950818,1005.359,8.095619171456274,1005.3514463957132,1,1
11.9,7.6386967000000014,-4.093513,2.9584758,1005.33655,8.074492016458683,1005.351500445097,1,1
11.92,7.0698979999999985,-3.9123833,3.2046645,1005.32605,8.044822975081006,1005.3514565815306,1,1
11.94,6.4963190000000015,-4.5272694000000016,3.1715236,1005.33417,8.007374831008113,1005.3513555919895,1,1
11.96,6.166511,-4.8180294,2.6696763,1005.34155,7.9626446479640975,1005.3512310575003,1,1
11.98,6.2190857,-5.7904067,1.5997005,1005.35645,7.91242730075234,1005.3511398070184,1,1
12.0,5.817579,-5.256552,0.88953954,1005.33417,7.8559715135329675,1005.3509980867873,1,1
12.02,6.2095203,-4.632134,1.5334183,1005.35864,7.794219758625642,1005.3509003736784,1,1
12.04,8.336532,-4.4462376,1.2067442,1005.3461,7.731393774037633,1005.3507967530304,1,1
12.06,10.606936,-4.384272,0.6812252,1005.3356,7.67194486609458,1005.3506504855147,1,1
12.08,13.637329,-4.9753256,2.0636709,1005.34607,7.622272274550662,1005.3505047537902,1,1
12.1,15.185982999999998,-4.5511017,3.3703666,1005.3356,7.584628235933724,1005.3503223281247,1,1
12.12,16.146720000000002,-2.4871824,2.5560489,1005.348,7.5584305270286976,1005.3501527764256,1,1
12.14,15.912507000000002,0.7016441999999999,2.750159,1005.3911,7.541667395694915,1005.3501503705487,1,1
12.16,12.820715,-0.003824398,2.7502267,1005.3556,7.526959059106492,1005.3501678633825,1,1
12.18,10.555115,-0.78554034,1.9737868000000005,1005.3631,7.50924403384624,1005.3502298757418,1,1
12.2,9.971998,-1.3003288999999998,1.6802554,1005.3257,7.48774938434795,1005.3501963623096,1,1
12.22,10.072406,-1.4576261,1.9548539,1005.3729,7.463340679584392,1005.3502484829373,1,1
12.24,10.2540655,-1.3765953000000002,2.3525462000000004,1005.33545,7.436957910577385,1005.3502412621848,1,1
12.26,10.239746,-1.5577248,2.2767975,1005.33545,7.408914801280236,1005.3501816333844,1,1
12.28,10.029467,-2.5253367,2.021143,1005.34753,7.379366944890504,1005.3501193994957,1,1
12.3,9.948231,-2.6921668,1.7607523,1005.3626,7.348423871007415,1005.3501093397937,0,0
12.32,9.823987,-3.2164886000000004,1.4577533,1005.34503,7.316326179388782,1005.3500821654177,0,0
12.34,9.74276,-4.336631,1.3204582,1005.35046,7.283960526868618,1005.3500595143436,0,0
12.36,9.408191,-4.527293,1.310991,1005.38257,7.251011189453263,1005.3501565376027,0,0
12.38,8.925462,-4.460562,0.83755356,1005.34753,7.216605332402084,1005.3502328118193,0,0
12.4,8.67216,-4.660758,0.64344543,1005.36487,7.1807311700050755,1005.3503529015946,0,0
12.42,8.538350999999999,-4.2127023,0.5203532999999999,1005.38293,7.143000780860996,1005.3505762904742,0,0
12.44,8.31372,-4.4271984,0.32624456,1005.37787,7.103536221208537,1005.3508719342426,0,0
12.46,7.854893,-4.446265,0.38779485,1005.35736,7.061870094707088,1005.3511565221128,0,0
12.48,7.8692575,-4.236537,0.6481894,1005.36224,7.018255576073598,1005.3514478844755,0,0
12.5,8.280348,-3.6597843,1.211586,1005.3695,6.973436293918294,1005.3517703198752,0,0
12.52,8.911308,-3.3690248,1.7371073,1005.37976,6.928857359774924,1005.3521559866426,0,0
12.54,9.413212,-3.1735969,1.5714055,1005.36725,6.885427264545172,1005.3525511002464,0,0
12.56,9.786064,-2.7303076,1.737112,1005.35474,6.843688089266991,1005.3529081026658,0,0
12.58,10.359665,-2.315618,2.0448508000000003,1005.3691,6.804639207094443,1005.353281840834,0,0
12.6,10.13026,-1.8627956,1.4151771,1005.3645,6.7672484017113055,1005.3536524612524,0,0
12.62,10.115946,-1.9390614,1.3110226,1005.3494,6.7314288938461795,1005.3539646325937,0,0
12.64,9.910442,-2.2012224,1.1595242,1005.38214,6.696783266824236,1005.3543418985132,0,0
12.66,9.670221000000002,-2.5396178,1.4292726999999998,1005.36414,6.6630539795509565,1005.3547105238454,0,0
12.68,9.708437,-2.4204533,1.3203790000000002,1005.36664,6.630240364725393,1005.3550791873027,0,0
12.7,9.459864,-2.5634494,1.4529405,1005.3924,6.597971081851636,1005.3555392932595,0,0
12.72,9.278209,-2.7970104,1.7038618000000003,1005.3566,6.566155822214418,1005.3559496614273,0,0
12.74,9.144352,-2.9114068,1.6849221999999997,1005.3816,6.534657036554752,1005.3564046039592,0,0
12.76,9.187349,-3.1973999,1.8032802,1005.3617,6.503863326487423,1005.356825654606,0,0
12.78,9.101288,-3.3737617,1.6281052,1005.374,6.4736964647753,1005.357259522601,0,0
12.8,8.871837,-3.4166603,1.5854933999999998,1005.3416,6.4437685512012255,1005.35758651408,0,0
12.82,9.096462,-3.2879627,0.8990026,1005.39136,6.414317141823385,1005.3579970283,0,0
12.84,8.852672,-3.4929242,0.6244052,1005.33606,6.385025252744232,1005.358280785363,0,0
12.86,8.895667999999997,-3.6406868,0.95107716,1005.35345,6.356232248703858,1005.3585141222768,0,0
12.88,9.177655,-3.3642260000000004,0.7759022,1005.39136,6.32828882880214,1005.3588385439333,0,0
12.9,9.125054,-3.0829985,1.0126203,1005.371,6.300945827138082,1005.359168984151,0,0
12.92,9.12503,-2.9400015,1.3961049,1005.36847,6.274238441619843,1005.3594944447844,0,0
12.94,9.282743,-2.701673,1.4529159,1005.38605,6.248372543759396,1005.3598776217987,0,0
12.96,9.335299,-2.9114008,1.7559156000000002,1005.36334,6.223673126802533,1005.3602286615704,0,0
12.98,9.368734,-2.8494353,1.6422880000000002,1005.3687,6.200081011520762,1005.3605693371306,0,0
13.0,9.359152,-2.6349394,1.4481753000000002,1005.3485,6.1773465207640195,1005.3608269084424,0,0
13.02,9.449945,-2.5396078,1.2587969,1005.35785,6.155525729001868,1005.3610437815828,0,0
13.04,9.339987,-2.758869,1.2445916,1005.34045,6.1344915897322405,1005.3611612730756,0,0
13.06,9.287389,-2.9113982000000003,1.2871993999999998,1005.37823,6.114227517777448,1005.361326535976,0,0
13.08,9.258685,-3.011495,1.2729938,1005.3754,6.0947193838147005,1005.3615232267452,0,0
13.1,9.201306,-3.016261,1.3345394,1005.38074,6.075857137062989,1005.3617662030928,0,0
13.12,9.09613,-3.0829928,1.4197568,1005.39856,6.057496661083598,1005.362113354662,0,0
13.14,9.258619,-3.006727,1.2351127,1005.3679,6.0398615492300305,1005.3624409297121,0,0
13.16,9.126534,-3.0544355,1.3820393999999998,1005.3679,6.022744165043387,1005.3627500276793,0,0
13.18,9.260417,-2.9209733,1.2589492,1005.3754,6.006288498029615,1005.3630686865433,0,0
13.2,9.370396,-2.9162076,1.2021403,1005.3929,5.99067547659853,1005.363457646244,0,0
13.22,9.231828,-2.9114423,1.3773177,1005.3777,5.975635599538469,1005.3638526035093,0,0
13.24,9.341811,-2.830412,1.3015714,1005.3648,5.96130187835359,1005.364204998376,0,0
13.26,9.1745615,-2.9448104,1.2779034,1005.3749,5.947378462524427,1005.3645548764861,0,0
13.28,9.222409,-2.9591115,1.4767529,1005.3748,5.9340287810233665,1005.3649009112288,0,0
13.3,9.212894,-2.9114468,1.3678657,1005.3901,5.9211528058549865,1005.3652973842472,0,0
13.32,9.2559595,-2.96388,1.3584013,1005.3519,5.908856192366638,1005.3655994772232,0,0
13.34,9.251225,-2.9162157000000004,1.3820775,1005.37463,5.897083656988523,1005.3658989164585,0,0
13.36,9.213032,-2.9305165,1.2873936,1005.38226,5.885723627193464,1005.3662224008673,0,0
13.38,9.327794,-2.9638834,1.3915546,1005.3742,5.875044520692621,1005.3665369510479,0,0
13.4,9.198787,-2.906686,1.3868246000000002,1005.3868,5.864715544698206,1005.3668878345636,0,0
13.42,9.27053,-2.9066873,1.4152353000000002,1005.3769,5.854882355539773,1005.367233919034,0,0
13.44,9.318373,-2.7779913,1.3016136,1005.3749,5.845506660088923,1005.3675673171634,0,0
13.46,9.246722,-2.9114556,1.3489618,1005.3969,5.8365217250929735,1005.3679675054087,0,0
13.48,9.289787,-2.9400563,1.2921534,1005.3794,5.828000826225362,1005.3683622687226,0,0
13.5,9.189458,-3.0401552000000005,1.1643287,1005.37427,5.819754016085532,1005.3687323494196,0,0
13.52,9.285098,-2.987724,1.2921617,1005.3638,5.811966346263027,1005.3690415962656,0,0
13.54,9.414199,-2.8780944,1.1453995,1005.3843,5.804761141661937,1005.369369777032,0,0
13.56,9.447705,-2.7636983,1.1738101,1005.3863,5.79810204413213,1005.36972070636,0,0
13.58,9.2517805,-2.701734,1.2921746,1005.3638,5.791556744837107,1005.3700094729712,0,0
13.6,9.089311,-2.8494985,1.4815546999999998,1005.38617,5.784960144731246,1005.3703228050459,0,0
13.62,9.194513,-2.8399665,1.4862934,1005.3988,5.778543974081979,1005.3707021831692,0,0
13.64,9.342731,-2.749403,1.2779838,1005.3609,5.772487313767392,1005.3710021138196,0,0
13.66,9.2742195,-2.7302976,1.2683688,1005.3788,5.766620960568838,1005.3712952049324,0,0
13.68,9.317222,-2.8160954,1.1736794,1005.3763,5.7610548601674285,1005.371572197502,0,0
13.7,9.212048,-2.9114258,1.2068185,1005.38617,5.755633280011518,1005.3718695002252,0,0
13.72,9.274167,-2.692164200000001,1.1215975,1005.3709,5.750329141851622,1005.3721287067112,0,0
13.74,9.3362875,-2.7636619,1.2352216,1005.3734,5.745340853095232,1005.3723623182176,0,0
13.76,9.3840685,-2.8208604,1.2825643999999998,1005.35315,5.740790276293375,1005.3724995729992,0,0
13.78,9.403171,-2.7922606,1.2541562,1005.36285,5.7366561196257,1005.3725861128612,0,0
13.8,9.207181,-2.8971243,1.2683578000000002,1005.35565,5.732585463188803,1005.3726016094772,0,0
13.82,9.2167225,-2.8780577000000003,1.1168553,1005.37036,5.728553980741666,1005.372607232493,0,0
13.84,9.293183,-2.8399248,1.2068074,1005.3904,5.724721422114433,1005.3726762549527,0,0
13.86,9.297945,-2.8446908,1.3677756,1005.3929,5.7211346062906125,1005.3728100486804,0,0
13.88,9.340945,-2.8399239,1.2352105,1005.3725,5.717823227920379,1005.3729271526428,0,0
13.9,9.364827,-2.8828223,1.3677723,1005.388,5.714876395310682,1005.3730848879544,0,0
13.92,9.288333,-2.882822,1.3204267,1005.3979,5.712098382200805,1005.3733135972792,0,0
13.94,9.235738,-2.9781528,1.3488315,1005.4003,5.709443535351395,1005.3736128358884,0,0
13.96,9.321756,-2.8589883,1.2446729,1005.38745,5.7069738517696775,1005.3739270569142,0,0
13.98,9.402998,-2.8828208,1.3014843,1005.3824,5.704866384083457,1005.3742352052078,0,0
14.0,9.297822,-2.8351548,1.3346233,1005.3625,5.702859874265868,1005.3744652383012,0,0
14.02,9.326484,-2.8923528,1.3109498,1005.3824,5.701034224718858,1005.3746970606846,0,0
14.04,9.22131,-2.897119,1.3251514,1005.38745,5.699175072774477,1005.374947809524,0,0
14.06,9.307329,-2.882819,1.2683368999999998,1005.38745,5.697437769039857,1005.3752143790844,0,0
14.08,9.2690735,-2.982916,1.2493978,1005.39294,5.6957962705135365,1005.3755137321832,0,0
14.1,9.364654,-2.887585,1.2541306,1005.4099,5.694375469169159,1005.3759020311453,0,0
14.12,9.402874,-2.8828177000000004,1.2209883,1005.3847,5.693218620544244,1005.3762768047962,0,0
14.14,9.355058,-2.9066503,1.1689081,1005.3721,5.692206318219722,1005.3765929182969,0,0
14.16,9.256463,-3.0353906000000004,1.1832744,1005.367,5.691215935048407,1005.3768377016802,0,0
14.18,9.2135,-3.0210924,1.1596073,1005.37976,5.690149163444191,1005.3770645125516,0,0
14.2,9.175317,-3.0639927000000005,1.3442543,1005.3897,5.6890209959045865,1005.3773104103923,0,0
14.22,9.227944,-3.011562,1.3679309,1005.4149,5.687918493824773,1005.3776630082472,0,0
14.24,9.227998,-2.9734309,1.2921851999999998,1005.3846,5.686797139022282,1005.377999536882,0,0
14.26,9.24717,-3.0830631,1.325331,1005.38965,5.685780227480116,1005.3783388352507,0,0
14.28,9.180304,-3.0401652,1.2590538,1005.3791,5.684682485055642,1005.3786413794826,0,0
14.3,9.213812,-2.959135,1.2685273,1005.4016,5.683533694636653,1005.3789913585997,0,0
14.32,9.19953,-3.0020354,1.2069852,1005.3742,5.682326933928878,1005.3792833512566,0,0
14.34,9.228257,-2.9591377,1.2827402,1005.3662,5.6811224971103655,1005.3794942559036,0,0
14.36,9.290448,-2.9543722000000003,1.282745,1005.3817,5.680043541187593,1005.3796885519286,0,0
14.38,9.271379,-2.9877392999999994,1.2448743999999998,1005.4116,5.679052756191143,1005.3799751131093,0,0
14.4,9.204515,-2.9305422,1.2212074,1005.4067,5.677969973599915,1005.3803245281613,0,0
14.42,9.209349,-2.873345,1.2732906000000002,1005.4166,5.6767977320149745,1005.3807638629996,0,0
14.44,9.252419,-2.906712,1.3206395,1005.4041,5.675668952599863,1005.3812360693564,0,0
14.46,9.219014,-2.9400792,1.2590971000000002,1005.3963,5.6745208884510765,1005.3817075410434,0,0
14.48,9.176045,-2.9353137,1.3774619,1005.38367,5.67330592029438,1005.3821311982782,0,0
14.5,9.214332,-3.0020466,1.3490597,1005.38605,5.672145144711468,1005.3825196494972,0,0
14.52,9.214391,-2.8495183,1.2165018,1005.37103,5.670905206021457,1005.382821522256,0,0
14.54,9.319597,-3.0115826,1.2401785,1005.38074,5.669913554355283,1005.3830807635456,0,0
14.56,9.310086,-2.8495207,1.2780582,1005.3808,5.669035970365647,1005.3833016184004,0,0
14.58,9.252786,-2.7827904,1.297001,1005.39874,5.668114623224458,1005.3835523439236,0,0
14.6,9.281518,-2.8495235,1.2780683000000002,1005.38116,5.667249354986754,1005.383765272558,0,0
14.62,9.2959,-2.8924234,1.3112131,1005.3808,5.666500255775403,1005.383942741318,0,0
14.64,9.276842,-2.8685925,1.3254218,1005.4156,5.6658084370335535,1005.3842135188456,0,0
14.66,9.222454,-2.9877117,1.3536625,1005.4058,5.665145011818285,1005.3845304892012,0,0
14.68,9.255891,-2.9877112,1.3205197,1005.38525,5.664565174039419,1005.3848131544464,0,0
14.7,9.365808,-2.8590136000000004,1.1311417,1005.4156,5.6641489812119925,1005.3851737501004,0,0
14.72,9.475721,-2.9209785,1.3063128000000002,1005.3981,5.664177801370792,1005.3855389069206,0,0
14.74,9.427904,-2.8733122000000004,1.211623,1005.4006,5.664451807519655,1005.3859157794217,0,0
14.76,9.31317,-2.8971447999999995,1.1926836,1005.378,5.664724935108778,1005.386220287158,0,0
14.78,9.222333,-2.9448094,1.3820579,1005.3677,5.6648990165016615,1005.3864226771598,0,0
14.8,9.193634,-2.9352763,1.3631183999999998,1005.3752,5.664917193567263,1005.3865611073276,0,0
14.82,9.2844305,-2.9019096,1.5051486,1005.37506,5.664998113720665,1005.3866420202376,0,0
14.84,9.164916,-3.0353727000000004,1.3252396999999998,1005.38745,5.664930267210185,1005.386716423612,0,0
14.86,9.207915,-2.930508,1.2494874,1005.39496,5.664727947109804,1005.3868118433086,0,0
14.88,9.097959,-3.0735042,1.1405942,1005.39514,5.664256092823107,1005.3869261375163,0,0
14.9,9.212654,-3.0115387000000005,1.2447492,1005.38495,5.663758537170493,1005.3870200137835,0,0
14.92,9.250873,-2.9734058,1.3725764,1005.3949,5.663326234652094,1005.3871313308036,0,0
14.94,9.255631,-2.91144,1.3867778,1005.3623,5.662927988283992,1005.3871402977317,0,0
14.96,9.217373,-2.8876066,1.3915102,1005.3844,5.662472880287383,1005.3871383558374,0,0
14.98,9.193455,-2.954338,1.3204924,1005.4074,5.661943262124254,1005.3872095818988,0,0
15.0,9.265132,-2.949571,1.3488971,1005.4072,5.661495348143671,1005.3873444827514,0,0
15.02,9.322469,-2.8637724,1.2352695,1005.3869,5.6611501583653725,1005.3874620810068,0,0
15.04,9.284212,-2.8971379,1.2400022,1005.3844,5.660843213563267,1005.387554967334,0,0
15.06,9.245954,-2.9591026,1.2731411,1005.39984,5.660543296127116,1005.3876812678102,0,0
15.08,9.303291,-2.8685374,1.282608,1005.372,5.6603100170542415,1005.3877364143468,0,0
15.1,9.374968,-2.9686348,1.4151695,1005.3869,5.660376421031881,1005.387782130735,0,0
15.12,9.331929,-2.7398392999999994,1.325214,1005.3865,5.660459273278753,1005.3878179100647,0,0
15.14,9.236313,-2.8780692,1.3536185,1005.4045,5.660458428476511,1005.3879095802043,0,0
15.16,9.16559,-2.930525,1.3205669,1005.39154,5.660267860362457,1005.3880036494513,0,0
15.18,9.237307,-2.9781914,1.3489752,1005.39667,5.660089009495517,1005.3881179678993,0,0
15.2,9.318582,-2.9114597,1.282695,1005.387,5.660020677494768,1005.3882149549958,0,0
15.22,9.285143,-2.9209936,1.2542906,1005.39154,5.659982742039657,1005.3883126229564,0,0
15.24,9.141768,-2.973426,1.3205739,1005.394,5.659741543397933,1005.3884193969237,0,0
15.26,9.218263,-3.021092,1.32531,1005.3688,5.659503151851343,1005.3884431125721,0,0
15.28,9.309097,-2.98296,1.3253117,1005.3609,5.659421847816247,1005.3883649125136,0,0
15.3,9.289997,-2.9209955,1.3395166,1005.3858,5.6594075361301055,1005.3882865812574,0,0
15.32,9.251778,-2.920996,1.2211583,1005.37335,5.659345230307642,1005.3881635960664,0,0
15.34,9.151421,-2.9972613,1.2685038999999998,1005.3788,5.659104498633245,1005.3880212174057,0,0
15.36,9.218357,-2.973429,1.2590369,1005.37335,5.6588204330129575,1005.3878425952388,0,0
15.38,9.304411,-3.016328,1.3773987,1005.401,5.658727942383182,1005.3877321313491,0,0
15.4,9.376127,-2.830433,1.3111187,1005.4009,5.658812909153942,1005.3876819297833,0,0
15.42,9.318788,-2.7589352000000003,1.3347924,1005.3909,5.658905654631518,1005.3876491567328,0,0
15.44,9.247109,-2.9352982000000005,1.3111222,1005.3958,5.6589636708885225,1005.3876495415007,0,0
15.46,9.290147,-2.897166,1.2211702,1005.3907,5.659027658482575,1005.3876608631323,0,0
15.48,9.251927,-2.9543655,1.339532,1005.3778,5.6590891797132485,1005.3876353678188,0,0
15.5,9.208927,-3.0115645,1.4200186,1005.4059,5.659123856422839,1005.3876785928356,0,0
15.52,9.242404,-2.9352999,1.2448472,1005.36285,5.6591025440392055,1005.3876274035263,0,0
15.54,9.280661,-2.9448335,1.2164426000000002,1005.38275,5.659105554427304,1005.387564614,0,0
15.56,9.304583,-2.9591339,1.2353822,1005.35736,5.659190902140543,1005.387400396564,0,0
15.58,9.285479,-2.8924024,1.192774,1005.3833,5.65925883909343,1005.38724053261,0,0
15.6,9.2376995,-2.9734344,1.2590574,1005.39026,5.659284912962134,1005.3871101469027,0,0
15.62,9.275956,-2.9210026,1.2827309999999998,1005.3623,5.659322630118441,1005.3869056215633,0,0
15.64,9.256855,-2.8638043,1.2401232,1005.37256,5.659286379051758,1005.3866732587352,0,0
15.66,9.280839,-2.9496043,1.3774287,1005.4032,5.659323026489341,1005.3865274392093,0,0
15.68,9.25218,-2.88764,1.2164607,1005.3771,5.6592850235677385,1005.3863646542948,0,0
15.7,9.26176,-2.7970757,1.2306658,1005.3851,5.659148966634362,1005.3862162647888,0,0
15.72,9.3191395,-2.9114735,1.2306678,1005.3674,5.659109131818652,1005.3860174092682,0,0
15.74,9.252242,-2.878108,1.1880598999999998,1005.3622,5.658991324925065,1005.3857559578568,0,0
15.76,9.247485,-2.9210079,1.2732813,1005.37213,5.65884445343561,1005.3854758859413,0,0
15.78,9.410021,-2.8161442,0.9087341999999998,1005.37933,5.658845457892071,1005.3852062892076,0,0
15.8,9.266648,-2.949608,1.2448788999999998,1005.38184,5.6588519726807975,1005.3849559548925,0,0
15.82,9.295347,-2.8876436,1.4058505,1005.39233,5.658926590722567,1005.384761306054,0,0
15.84,9.324047,-2.854278,1.3632427,1005.3893,5.6590848582604485,1005.3846056536383,0,0
15.86,9.257151,-2.859045,1.4342607,1005.3868,5.659208832066888,1005.3844760188107,0,0
15.88,9.31931,-2.7970805,1.3679811000000002,1005.3893,5.659367577566321,1005.3843788398095,0,0
15.9,9.271539,-2.8447466,1.2070137,1005.3739,5.659446854051633,1005.3842552486208,0,0
15.92,9.324132,-2.85428,1.2212183,1005.3689,5.659568754559627,1005.3840907645513,0,0
15.94,9.357611,-2.830448,1.2543612,1005.38135,5.659788279176882,1005.383935559675,0,0
15.96,9.262037,-2.863814,1.2543631000000002,1005.3463,5.659924985835378,1005.3836629326316,0,0
15.98,9.309855,-2.8685815,1.3206468,1005.3564,5.660103157274313,1005.3833238928186,0,0
16.0,9.309877,-2.81615,1.1454757,1005.39185,5.660240048331307,1005.3830550112256,0,0
16.02,9.195187,-2.9639134,1.3585261999999998,1005.3739,5.660261851739948,1005.3827844694097,0,0
16.04,9.276466,-2.9305482000000005,1.2022928999999998,1005.39136,5.660278016403817,1005.382576290571,0,0
16.06,9.266921,-2.9257822,1.1596845,1005.38135,5.660256721010603,1005.3823879291033,0,0
16.08,9.290843,-2.878117,1.2638435,1005.371,5.660246923522379,1005.3821804963657,0,0
16.099999999999998,9.281304,-2.9305496,1.3017206,1005.3689,5.660271102428192,1005.3819493990117,0,0
16.12,9.319564,-2.9496162,1.2969882,1005.3788,5.660410916991313,1005.3817338635533,0,0
16.14,9.276566,-2.8447528,1.2259741000000002,1005.381,5.660484528832615,1005.3815407745135,0,0
16.16,9.314891,-2.8781207,1.1975756000000002,1005.376,5.66058787627239,1005.3813502142498,0,0
16.18,9.252775,-2.8781211,1.2780626,1005.36847,5.6606159333536255,1005.3811354664293,0,0
16.2,9.305379,-2.9734528,1.2685958000000002,1005.3784,5.660737282150572,1005.380935867576,0,0
16.22,9.314961,-2.9591540000000003,1.3822237,1005.36847,5.6609822338533045,1005.380714624906,0,0
16.24,9.310212,-2.7208266,1.1786472,1005.36304,5.661127748749943,1005.380455506233,0,0
16.259999999999998,9.257651,-2.8447576,1.28754,1005.3378,5.661183000429998,1005.3800729891514,0,0
16.28,9.276799,-2.8209257,1.325418,1005.3731,5.661192183706034,1005.3797098942968,0,0
16.3,9.190782,-2.897191,1.3206853,1005.3701,5.661036541108451,1005.379354468064,0,0
16.32,9.300747,-2.873359,1.2828128,1005.3475,5.660926944186791,1005.3789257373593,0,0
16.34,9.272093,-2.8828926,1.2591428999999998,1005.3551,5.660801460379803,1005.3784611382544,0,0
16.36,9.248211,-2.892426,1.3064885,1005.3704,5.660634162326769,1005.3780215983876,0,0
16.38,9.291252,-2.90196,1.1833961000000002,1005.3854,5.660488544948622,1005.3776597832073,0,0
16.4,9.243479,-2.940093,1.2544144,1005.4155,5.660310657710742,1005.3774763080941,0,0
16.419999999999998,9.219602,-2.9734595,1.3633078,1005.3575,5.660109308879539,1005.3772422747752,0,0
16.44,9.27699,-2.9257948,1.2828256000000002,1005.36554,5.659948133462643,1005.3769933547452,0,0
16.46,9.214876,-2.8971958,1.2118118,1005.3801,5.659664357859128,1005.3767845929297,0,0
16.48,9.281808,-2.982994,1.244954,1005.3674,5.6594670508781055,1005.376566346455,0,0
16.5,9.281841,-2.940096,1.292301,1005.35455,5.659332753667487,1005.3762942450228,0,0
16.52,9.348783,-2.816166,1.2544278999999998,1005.3674,5.6593008381248,1005.376021796915,0,0
16.54,9.24365,-2.9162642999999995,1.240227,1005.34973,5.659209432903923,1005.375686411298,0,0
16.56,9.258013,-2.9686968,1.2923074,1005.3949,5.659140757536093,1005.3754592334864,0,0
16.58,9.324953,-2.8590667,1.2923096,1005.3996,5.659156423611551,1005.3753454059314,0,0
16.599999999999998,9.215042,-2.820935,1.3680623,1005.35706,5.659028562923976,1005.3751790004424,0,0
16.62,9.224624,-2.8972,1.3254548000000002,1005.37714,5.658827443769598,1005.3750390241507,0,0
16.64,9.291566,-2.8447688,1.3728011,1005.3721,5.658675537356317,1005.3749047606124,0,0
16.66,9.281481,-2.854289,1.4248313999999995,1005.36237,5.658568986743437,1005.374741000212,0,0
16.68,9.233685,-2.9114878,1.3585501,1005.3895,5.658424425985812,1005.3746494339211,0,0
16.7,9.243248,-2.8590558,1.3680191000000002,1005.35925,5.658236162266087,1005.3745130879843,0,0
16.72,9.205011,-2.96392,1.4200977,1005.34674,5.658015321613162,1005.3742926295979,0,0
16.74,9.291051,-2.9257880000000003,1.3206753999999998,1005.36414,5.657882512866205,1005.3740612831017,0,0
16.759999999999998,9.295833,-3.011586,1.4200982,1005.3715,5.657919821607273,1005.3738476447176,0,0
16.78,9.267157,-2.8352232,1.391692,1005.377,5.657933618823867,1005.373670222321,0,0
16.8,9.267158,-2.8113906,1.3301449,1005.37646,5.6578945021336144,1005.3735234950908,0,0
16.82,9.276721,-2.8685894,1.4437708,1005.3816,5.657895488455948,1005.373422922328,0,0
16.84,9.281503,-2.9019551,1.3822237,1005.3866,5.6579432675483545,1005.3733814937144,0,0
16.86,9.291066,-2.8876555,1.382224,1005.38464,5.658042250615,1005.3733854180138,0,0
16.88,9.27195,-2.8924220000000003,1.3632866,1005.3818,5.6581459711739965,1005.3734191780197,0,0
16.9,9.219373,-2.9305546,1.2970053,1005.3589,5.658155095617207,1005.3733967393207,0,0
16.919999999999998,9.214597,-2.9114885,1.3632871000000002,1005.36865,5.658078142762113,1005.3733598242244,0,0
16.94,9.2432785,-3.0163527,1.4437722,1005.36395,5.658071508283508,1005.3732933306779,0,0
16.96,9.291079,-2.949621,1.3632876,1005.37646,5.658154702265465,1005.37324597699,0,0
16.98,9.314979,-2.863823200000001,1.4106318000000002,1005.3608,5.658325121940828,1005.373159329754,0,0
17.0,9.248065,-2.887656,1.3632879999999998,1005.3431,5.65844109495784,1005.3729745546692,0,0
17.02,9.2576275,-2.9353218,1.2449282,1005.3608,5.6585240232526175,1005.3727674590076,0,0
17.04,9.2815275,-2.9591546,1.3301477,1005.3503,5.65866250738611,1005.3725035864284,0,0
17.06,9.267191,-2.8018584,1.3774921,1005.3787,5.658738944323777,1005.3722927357063,0,0
17.08,9.2480755,-2.8781232999999995,1.3822266,1005.3407,5.658770089882586,1005.37199269416,0,0
17.099999999999998,9.252856,-2.8733568,1.3538203000000002,1005.3452,5.658759330778166,1005.3716311237503,0,0
17.12,9.300657,-2.8018584,1.3964303,1005.3528,5.6587750412236115,1005.3712438480908,0,0
17.14,9.209845,-2.8638237,1.424837,1005.3707,5.658681303108254,1005.3708996934653,0,0
17.16,9.238687,-2.8399951,1.3822423,1005.36584,5.658520657203883,1005.3705773835412,0,0
17.18,9.291273,-2.8828943,1.2591486,1005.38367,5.658396486945546,1005.370339723912,0,0
17.2,9.205245,-2.9114938,1.3348997,1005.3756,5.658174372051175,1005.3701486648572,0,0
17.22,9.305631,-2.8876612,1.3159631,1005.35535,5.658043783154991,1005.369926569883,0,0
17.24,9.238722,-2.8971946,1.3491046,1005.3802,5.6578782194617485,1005.3697673111122,0,0
17.259999999999998,9.219611,-2.9019613,1.3349022,1005.3802,5.657643697535748,1005.3696641477424,0,0
17.28,9.300877,-2.940094,1.3254342,1005.37,5.657529633163352,1005.3695742016567,0,0
17.3,9.272207,-2.9162614,1.3443726,1005.388,5.657456699382262,1005.3695610581696,0,0
17.32,9.296114,-2.8447633,1.3585767,1005.3577,5.657427826120249,1005.3695067447752,0,0
17.34,9.310462,-2.9305613,1.3869839,1005.3751,5.657526776117145,1005.3694788891784,0,0
17.36,9.257894,-2.9114954,1.3254375,1005.3727,5.657605654781508,1005.3694658719722,0,0
17.38,9.238783,-2.949628,1.3538445,1005.36,5.657660797117875,1005.3694202928295,0,0
17.4,9.286591,-2.9067295,1.3254391,1005.3703,5.6577539354129875,1005.3693831860452,0,0
17.419999999999998,9.310496,-2.782799,1.2307518,1005.3801,5.657827058922808,1005.3693889790204,0,0
17.44,9.19101,-2.7256005,1.4485351999999998,1005.34247,5.657675114966991,1005.3692971893691,0,0
17.46,9.214919,-2.8638308,1.5100833,1005.37494,5.6574738021807285,1005.3692363981512,0,0
17.48,9.320084,-2.887664,1.3443798,1005.3927,5.657400530409699,1005.369267151998,0,0
17.5,9.234055,-2.8590648,1.3727871,1005.37494,5.657262266871923,1005.3693147483497,0,0
17.52,9.286642,-2.8828979,1.2686309999999998,1005.3617,5.6571558297161175,1005.3693293913921,0,0
17.54,9.124138,-2.8971977000000004,1.4059294,1005.3803,5.656806705494295,1005.3693818241752,0,0
17.56,9.25798,-2.9257972000000003,1.391727,1005.3927,5.656520375334151,1005.3695120992153,0,0
17.58,9.301006,-2.8638322,1.3159773,1005.3774,5.656315407921138,1005.3696556066836,0,0
17.599999999999994,9.267557,-2.7875676,1.3065094,1005.3899,5.656068786869423,1005.3698552896983,0,0
17.62,9.2723465,-2.8257003,1.221291,1005.35425,5.655795550623425,1005.3699755505676,0,0
17.64,9.301033,-2.8161674,1.2212917,1005.36975,5.655550670694149,1005.3700810010894,0,0
17.66,9.263805,-2.935356,1.4154947,1005.3642,5.655385394170473,1005.3701530055664,0,0
17.68,9.2781925,-2.8686254,1.4012958999999998,1005.35675,5.6552740555766725,1005.3701683779024,0,0
17.7,9.2208805,-2.7732954,1.3870969,1005.3667,5.6550365843364245,1005.3701694747383,0,0
17.72,9.302186,-2.863861,1.2498035,1005.36676,5.654864497415407,1005.3701581697933,0,0
17.74,9.278335,-2.8733954,1.3729024,1005.3897,5.654743854008711,1005.3702185313324,0,0
17.759999999999994,9.27838,-2.9353616,1.3445001,1005.3943,5.6546991229739225,1005.3703585600757,0,0
17.78,9.264086,-2.8638644,1.3587075000000002,1005.3485,5.654653680031768,1005.3704035986568,0,0
17.8,9.264134,-2.9305973,1.3208368,1005.3743,5.65463811430674,1005.370457421792,0,0
17.82,9.235506,-2.8543339,1.2403566,1005.3868,5.65452389187162,1005.3705638131958,0,0
17.84,9.259453,-2.9782658,1.3539866000000005,1005.3868,5.654478056341329,1005.3707162709128,0,0
17.86,9.331193,-2.7733047,1.2498336,1005.34576,5.654480496125973,1005.370761139976,0,0
17.88,9.2834425,-2.9067695,1.3539948,1005.33575,5.654540449608271,1005.3706747461763,0,0
17.9,9.283493,-2.8591049,1.2971867,1005.3481,5.654606040545057,1005.3705171395288,0,0
17.919999999999995,9.307439,-2.8686395,1.1788309,1005.3661,5.654698288209167,1005.370361976593,0,0
17.94,9.264469,-2.9258394,1.2782577,1005.3812,5.654790196844733,1005.370263891507,0,0
17.96,9.33143,-2.897241,1.3208715,1005.3485,5.655007228379913,1005.3700988735156,0,0
17.98,9.317136,-2.8734093,1.3066725,1005.3961,5.655287460514658,1005.3700466676738,0,0
18.0,9.326743,-2.8209784,1.2214576,1005.35315,5.655587119468874,1005.3699397105884,0,0
18.02,9.355472,-2.7351816,1.1977899,1005.36816,5.655903157536372,1005.3698387963492,0,0
18.04,9.231244,-2.9163117,1.4203113,1005.3406,5.656158026960328,1005.3696443688608,0,0
18.06,9.154819,-2.9925783,1.4392537,1005.36816,5.656262078642768,1005.3694672290044,0,0
18.08,9.164421,-2.863882,1.3114285,1005.3706,5.656133067939111,1005.3693147862027,0,0
18.1,9.23139,-2.8781830000000004,1.3161677,1005.34784,5.655940345826862,1005.3691027785127,0,0
18.12,9.312694,-2.8924837,1.3256409,1005.35754,5.65586330988899,1005.3688738225153,0,0
18.14,9.30796,-2.81622,1.2593633,1005.3577,5.655815264214094,1005.3686312912347,0,0
18.16,9.23531,-2.8829284,1.3160889999999998,1005.3827,5.65570582225495,1005.3684676379468,0,0
18.18,9.187522,-3.0354583,1.3018867,1005.3606,5.655540944894936,1005.3682947104048,0,0
18.2,9.249668,-3.0259256000000003,1.3539659,1005.3654,5.6554577967318655,1005.3681314906717,0,0
18.22,9.311813,-3.0211592,1.3208258999999998,1005.4081,5.655556448762533,1005.3681311563487,0,0
18.24,9.292704,-2.9639606,1.3066236,1005.3652,5.655737896118753,1005.3681203087784,0,0
18.26,9.240134,-3.092658,1.2640146,1005.36255,5.655959684994916,1005.3680906707532,0,0
18.28,9.096748,-3.0592923,1.38711,1005.38007,5.6559492915786045,1005.3681076081799,0,0
18.3,9.192353,-3.0259268,1.4202516,1005.36505,5.655908620893311,1005.3681115667005,0,0
18.32,9.335757,-3.1593902000000003,1.4202524,1005.3823,5.656208044835581,1005.3681661428093,0,0
18.34,9.23061,-3.1212583,1.1882674,1005.3872,5.656512920154095,1005.3682828881447,0,0
18.36,9.225838,-3.059293,1.0320328,1005.36206,5.656734735890328,1005.3683636419256,0,0
18.38,9.335782,-3.1069589,0.90420467,1005.3921,5.657103070550303,1005.3685204468558,0,0
18.4,9.354911,-3.2642555,0.88053346,1005.3065,5.657737646746615,1005.3684357260832,0,0
18.42,9.130267,-3.5025835,0.7527054,1005.38495,5.65831600216549,1005.3684203181947,0,0
18.44,9.512662,-3.3595872000000004,0.5159859,1005.34937,5.659453033336363,1005.3683381226385,0,0
18.46,9.369275,-2.9353635,0.6343468000000001,1005.33905,5.660533253742857,1005.3681600574043,0,0
18.48,9.23545,-2.8924646000000003,1.1125225,1005.3668,5.661357226692543,1005.3679978227564,0,0
18.5,8.967789999999997,-3.1927583,1.4676036,1005.3618,5.661723427051383,1005.3678321600596,0,0
18.52,9.015596,-3.297623,1.4013228000000002,1005.3444,5.661828974876293,1005.3676014247244,0,0
18.54,9.331073,-3.1736927,1.2971667,1005.3536,5.662201675889124,1005.3673471418532,0,0
18.56,9.33108,-3.083128,0.97522795,1005.34186,5.662672941502532,1005.3670307037976,0,0
18.58,9.469705,-2.787602,0.7243054,1005.3763,5.663276362340617,1005.366784468598,0,0
18.6,9.240282,-2.9353652,0.6864309000000001,1005.37683,5.6636235319003925,1005.3666030590888,0,0
18.62,8.848347,-3.3071568,0.9846992,1005.36664,5.663281172885879,1005.3664428986335,0,0
18.64,9.202063,-3.1307945,1.1409353000000002,1005.3565,5.662932346450564,1005.3662655864202,0,0
18.66,9.163349,-2.9830196,1.4012842,1005.36664,5.662477654484483,1005.3661102612372,0,0
18.68,9.043844,-3.0020857000000003,1.6001283000000002,1005.3686,5.66177411297422,1005.3659819789654,0,0
18.7,8.890881,-3.2261136,2.0593648,1005.3686,5.660888951795897,1005.3658780536257,0,0
18.72,9.220676,-2.8495553,1.4296878999999998,1005.3863,5.660005653224228,1005.3658597442022,0,0
18.74,9.292365,-2.901987,1.6237975,1005.37366,5.659362443280963,1005.3658716469166,0,0
18.76,9.220656,-2.944886,1.7090158,1005.3511,5.658850050401306,1005.365828986226,0,0
18.78,9.077253,-3.0211504,1.6664054,1005.3687,5.658209080872999,1005.3658016268896,0,0
18.8,9.201518,-3.1212482,1.7516237,1005.3487,5.6577940421634505,1005.3657158863232,0,0
18.82,9.349682,-2.7637560000000003,1.4202145,1005.36847,5.657537308318377,1005.3656500407677,0,0
18.84,9.368792,-2.7494562,1.2592437,1005.36096,5.657405291145582,1005.3655749754882,0,0
18.86,9.282743,-2.9544177000000005,1.6664016,1005.41113,5.657463527868893,1005.3656726458956,0,0
18.88,9.239717,-2.8161874,1.7184794,1005.36597,5.6575399752588975,1005.3657600179422,0,0
18.9,9.287504,-2.4968278,1.5433053999999995,1005.346,5.657485237867022,1005.365766083818,0,0
18.92,9.292274,-2.4205627,1.9741353,1005.36096,5.657445489363729,1005.365754141724,0,0
18.94,9.40698,-2.349064,2.2392612,1005.3803,5.657726460945348,1005.3657959547796,0,0
18.96,9.536023,-2.4825275,2.2818696,1005.3612,5.6586297621079975,1005.3658163553586,0,0
18.98,9.536014,-2.5540257,2.0546176,1005.3935,5.660015331670418,1005.3659340424306,0,0
19.0,9.077143,-2.987782,2.2487273,1005.3936,5.661268309509327,1005.3661376281748,0,0
19.02,8.976758,-3.3166742,2.163507,1005.38824,5.662387455467987,1005.3663970850768,0,0
19.04,9.120142,-3.1164784,1.7516129,1005.35315,5.66335191299729,1005.3665786516893,0,0
19.06,8.909821,-3.192743,1.8178936,1005.3702,5.663847407753978,1005.3667521208017,0,0
19.08,9.120121,-3.1546106,1.9362527,1005.3802,5.664352886324378,1005.3669538104747,0,0
19.1,9.268285,-2.8066518,2.0404088,1005.3678,5.664977446271991,1005.3671350697521,0,0
19.12,9.502486,-2.4968252,1.9220479,1005.3877,5.665943434765468,1005.3673692641983,0,0
19.14,9.507256,-2.42056,1.9883285,1005.3927,5.667205019334422,1005.3676673890602,0,0
19.16,9.365203,-2.6160219,2.2393749,1005.40826,5.6686572127114765,1005.3680769455873,0,0
19.18,9.283987,-2.7161202,2.1020807999999995,1005.3927,5.670107707930543,1005.3685274727304,0,0
19.2,9.30793,-2.3204973,1.870099,1005.36273,5.671290628535693,1005.3689046876126,0,0
19.22,9.221936,-2.668457,2.09262,1005.3752,5.6723414860914945,1005.3692606578065,0,0
19.24,8.949531,-2.453963,2.2488592,1005.3752,5.672695730606085,1005.3695965747023,0,0
19.26,9.150322,-2.5016296,2.097362,1005.4048,5.6727797389104175,1005.3700201232024,0,0
19.28,9.341558,-2.0297415,2.0547564,1005.3873,5.672754865584327,1005.3704565782136,0,0
19.3,9.045253,-2.4158337000000003,2.3719652,1005.3848,5.672384972992897,1005.3708938661797,0,0
19.32,8.997496,-2.4777997000000003,2.0642326,1005.3748,5.671503492752544,1005.3712943159084,0,0
19.34,9.279548,-2.3252711,2.0026894,1005.38983,5.670621718707881,1005.3717148817512,0,0
19.36,9.289149,-2.2919064,1.836989,1005.36444,5.669677681249305,1005.372060304156,0,0
19.38,9.461264,-2.2919075,1.9222121,1005.4097,5.669056978332385,1005.3725010222977,0,0
19.4,9.365713,-2.1489117,1.9222163,1005.3848,5.668467704710888,1005.3729347171673,0,0
19.42,9.485251,-2.2585437,1.9174858,1005.39484,5.668194601705787,1005.3733967889723,0,0
19.44,9.52831,-2.2966769,2.002709,1005.3922,5.668340112864692,1005.3738727671788,0,0
19.46,9.51401,-2.4301417,2.1636822,1005.37726,5.668961635803693,1005.3743055355606,0,0
19.48,9.322863,-2.4825747,2.1400142000000004,1005.3872,5.6696423959286575,1005.3747343497744,0,0
19.5,9.131716,-2.4539764,1.9553767,1005.4119,5.669902326910738,1005.3752470463547,0,0
19.52,9.01226,-2.6875389,1.7186601,1005.3698,5.669590863079157,1005.375680455686,0,0
19.54,9.1939335,-2.7638047,1.803883,1005.37897,5.669208299226385,1005.3760752585307,0,0
19.56,9.38517,-2.739973,1.4724787,1005.39185,5.669011310712454,1005.3764808953937,0,0
19.58,9.672002,-2.6970751,1.4961545,1005.39435,5.669529061204679,1005.3769036449023,0,0
19.6,9.700723,-2.6637104,1.3635952,1005.40436,5.670676333186583,1005.3773760292464,0,0
19.62,9.208443,-2.7066104,1.7802266,1005.394,5.671564895873072,1005.3778532743477,0,0
19.64,9.012514,-3.011671,1.7896994,1005.38654,5.67203000627823,1005.3783062403315,0,0
19.66,9.001165,-2.7685325,1.7705978999999998,1005.39905,5.671938137500763,1005.3787811586096,0,0
19.68,9.283144,-2.4158068,1.4770621000000002,1005.3818,5.671610259517284,1005.3792116642293,0,0
19.7,9.292676,-2.4396389,1.7279830000000005,1005.359,5.671192147585702,1005.3795192970032,0,0
19.72,9.598555,-2.4348714,1.6474956000000005,1005.38934,5.6712714169645455,1005.3798264758534,0,0
19.74,9.555508,-2.5111357999999995,1.3871007,1005.3916,5.6716613806656335,1005.3801402837724,0,0
19.76,9.397746,-2.7923617000000003,1.6380215,1005.3816,5.672247291110108,1005.3804228194276,0,0
19.78,9.2925625,-2.7160962000000004,1.2971418,1005.3735,5.672647067974125,1005.3806475457827,0,0
19.8,9.278193,-2.8590922,1.5385936000000002,1005.37604,5.673009803594915,1005.3808295268254,0,0
19.82,9.412,-2.7446942,1.3066053,1005.3863,5.673464953352196,1005.3810100189784,0,0
19.84,9.368952,-2.5921636,1.2781961000000002,1005.39355,5.673821147110745,1005.381214645776,0,0
19.86,9.220752,-2.8543236000000003,1.3634131,1005.3661,5.673971475371469,1005.3813410412899,0,0
19.88,9.091665,-2.6112287,1.1835027,1005.3738,5.6734919195627915,1005.3814255766173,0,0
19.9,8.9912615,-2.6874926,1.495971,1005.401,5.6723948252944965,1005.3815707399568,0,0
19.92,9.301919,-2.677959,1.4580928999999998,1005.4113,5.671350725229495,1005.3818060316196,0,0
19.94,9.316233,-2.7113240000000003,1.5575131000000002,1005.3735,5.670436267573643,1005.3819840336188,0,0
19.96,9.344883,-2.6922572,1.5101665000000002,1005.41156,5.669669915802442,1005.3822477896646,0,0
19.98,9.392652,-2.7160892000000003,1.1266770000000002,1005.3885,5.669038536964173,1005.3825033524637,0,0
20.0,9.191869,-2.8686185,1.2166278,1005.4058,5.6682449232848136,1005.3828130356842,0,0
20.02,9.115365,-3.0592802000000003,1.2876413999999998,1005.41296,5.667300907319244,1005.3831952008493,0,0
20.04,9.077097,-3.0592792,1.0509186,1005.4108,5.666093060521134,1005.3836322592664,0,0
20.06,9.273042,-2.925815,1.1408697,1005.37585,5.664976767651521,1005.3839904279499,0,0
20.08,9.430746,-2.66842,0.9278189,1005.3908,5.6640585481768175,1005.3843314202584,0,0
20.1,9.497634,-2.6874855,1.0461763000000002,1005.37085,5.663487050337312,1005.384584187949,0,0
20.12,9.478487,-2.76375,1.2308155,1005.3981,5.6632734181379725,1005.3848561904041,0,0
20.14,9.4258795,-2.6827178,1.3207664,1005.393,5.663250378220733,1005.3851258494876,0,0
20.16,9.389155,-2.7256541000000003,1.4108588,1005.3831,5.663373467805855,1005.3853568271956,0,0
20.18,9.307929,-2.816219,1.2735637,1005.41003,5.663478966335559,1005.3856497425207,0,0
20.2,9.212363,-2.7780876,1.2830354,1005.3856,5.66335989501324,1005.3859083834288,0,0
20.22,9.336671,-2.8829525,1.2972416000000002,1005.3776,5.6633547397027675,1005.3861070083548,0,0
20.24,9.327141,-2.744723,1.2688378,1005.4006,5.663341521921057,1005.3863346881094,0,0
20.26,9.341512,-2.6017272,1.1788871,1005.3975,5.663245154227606,1005.3865760610634,0,0
20.28,9.437137,-2.568362,0.98951364,1005.38257,5.663204255927037,1005.3867749163857,0,0
20.3,9.265097,-2.782858,1.2499088,1005.36005,5.663054751705714,1005.3868544152492,0,0
20.32,9.332046,-2.6922941,1.1552235,1005.40497,5.6628653036370205,1005.3869898765506,0,0
20.34,9.298617,-2.7494936,1.1504921,1005.3851,5.6626069547805855,1005.3871027666008,0,0
20.36,9.222173,-2.7161283,1.2167767,1005.4046,5.662134681244512,1005.3872655062892,0,0
20.38,9.336921,-2.6160314,1.0605441,1005.37964,5.6616076379104685,1005.3873818512552,0,0
20.4,9.346509,-2.7304294,1.2404543,1005.37213,5.661162046819746,1005.3874297470027,0,0
20.42,9.38,-2.778096,1.2783325,1005.3851,5.6608940660603135,1005.3874636805963,0,0
20.44,9.322674,-2.739964,1.1978505,1005.38715,5.660627296363553,1005.3874925350693,0,0
20.46,9.303584,-2.7161322,1.1031651000000002,1005.4125,5.660287748070786,1005.3876080577553,0,0
20.48,9.298837,-2.6875336,1.0179486999999998,1005.4122,5.659839935442179,1005.3877986645924,0,0
20.5,9.303648,-2.7685657000000004,1.1978589,1005.3794,5.6593971596490835,1005.3879368496016,0,0
20.52,9.351478,-2.7161345,1.093705,1005.41003,5.658999284003737,1005.3881384852167,0,0
20.54,9.184214,-2.9067974,1.226271,1005.38184,5.658459202214727,1005.3882939758996,0,0
20.56,9.241602,-3.0021296000000004,1.4251187,1005.38184,5.658023982862831,1005.388408133154,1,2
20.58,9.265534,-3.068862,1.3541057,1005.37933,5.657751724898176,1005.3884763212244,1,2
20.6,9.0934925,-3.0783958,1.3730463,1005.4147,5.657300399494691,1005.3886309774472,1,2
20.62,9.165222,-2.9639993,0.98482805,1005.3763,5.65666063341149,1005.3887232401668,1,2
20.64,9.284746,-3.0736308,1.0274404,1005.3816,5.656171132400372,1005.388779119841,1,2
20.66,9.235825,-3.0402372000000004,1.1314944,1005.3913,5.655722369545965,1005.3888375702901,1,2
20.68,9.259709,-2.9925716,0.9799923,1005.38184,5.655293619061682,1005.3888640258534,1,2
20.7,9.173661,-2.868641,0.90424055,1005.3916,5.654621513176982,1005.3888972514962,1,2
20.72,9.326599,-2.9544384,0.7953479,1005.40436,5.6540724217561875,1005.3889822755687,1,2
20.74,9.015898,-2.9163055,0.7906122,1005.40436,5.652996149117764,1005.3891127626473,1,2
20.76,8.64306,-3.57409,0.81901735,1005.4116,5.651208382570504,1005.3893090150843,1,2
20.78,8.690844,-3.4024937000000004,0.7669376999999999,1005.3938,5.648748338890807,1005.3894985912834,1,2
20.8,8.958499,-3.1641657000000003,1.382409,1005.42944,5.646194291952453,1005.3898098898843,1,2
20.82,9.164019,-2.7065756000000003,1.6617377,1005.3913,5.643769754560911,1005.3900903177243,1,2
20.84,8.881996000000003,-1.7675637,2.4192414,1005.42175,5.640792799601454,1005.3904520786203,1,2
20.86,9.532035,0.6824469,1.5859847,1005.42413,5.637989860286071,1005.3908929710648,1,2
20.88,12.801408,3.675845,1.4628888,1005.3838,5.643065309069956,1005.3912570089328,1,2
20.9,15.406387,6.0543566,3.03471,1005.3963,5.662213744126617,1005.3915968275608,1,2
20.92,19.727312,5.8493958,5.9653053,1005.4141,5.703277278516502,1005.3919781027214,1,2
20.94,19.842016,1.2735013000000002,5.4350510000000005,1005.4091,5.761871094077102,1005.3923766362834,1,2
20.96,17.566817999999998,-1.8247603,4.104682,1005.401,5.830588613038343,1005.3927598246482,1,2
20.98,14.665463,-3.7170832,1.9978706,1005.39136,5.902035724983258,1005.3930933705186,1,2
21.0,10.076836,-6.066995,0.605954,1005.38885,5.9683989085183216,1005.3933728155156,1,2
21.02,6.7214009999999975,-6.4769190000000005,1.3492545,1005.3809,6.025153635831725,1005.3935748309793,1,2
21.04,3.1174119,-5.8763328,0.8710780999999999,1005.3858,6.0675555888963455,1005.3937253424516,1,2
21.06,2.1423213,-6.3196225,0.38343337,1005.3709,6.097070928626896,1005.3937761631556,1,2
21.08,1.6786662,-6.9774065,0.74324685,1005.37335,6.116197080304706,1005.3937475341423,1,2
21.1,4.7616253,-7.220500500000001,1.5954384,1005.3885,6.129358950994399,1005.3937033464232,1,2
21.12,8.805324,-7.287232,2.0688775,1005.3856,6.143065262749535,1005.3936351301074,1,2
21.14,12.380602,-7.9021177,2.8121777000000003,1005.36835,6.164143055474536,1005.3934838277023,1,2
21.16,13.887,-7.925969,3.8490815,1005.35815,6.194759748686444,1005.3932229351176,1,2
21.18,15.172784,-7.0489229999999985,4.1852264,1005.37335,6.235356197212802,1005.3929208678633,1,2
21.2,15.779834,-6.4626365,3.3188312000000004,1005.3883,6.284886786581037,1005.3926373261132,1,2
21.22,18.131514000000006,-5.690455,2.3009357,1005.3933,6.345812931874088,1005.3923891742488,1,2
21.24,16.85054,-2.1393702,1.4724164,1005.3958,6.412239077525015,1005.392182186234,1,2
21.26,13.624192,-0.46154273,3.4987433,1005.3957,6.477101076054336,1005.3920119557532,1,2
21.28,11.339463,-0.6998709,4.3840785,1005.4183,6.536406192838805,1005.3919561770604,1,2
21.3,9.924656,-0.8381013,3.4135268,1005.3753,6.587160609135378,1005.3918469287697,1,2
21.32,8.753621,-0.4758435,2.4335067,1005.4106,6.627203346297502,1005.3918179080364,1,2
21.34,8.854016,0.029411018,3.129466,1005.3802,6.658245687357419,1005.3917504408478,1,2
21.36,9.456285,-0.027788028,3.5034852,1005.37067,6.682665189799629,1005.3916149372528,1,2
21.38,10.942819,0.048476547,3.8112228,1005.3629,6.704269094095948,1005.391391832502,1,2
21.4,12.376777,0.28680408,3.5176911,1005.39325,6.725973060236582,1005.3912013865472,1,2
21.42,12.888235,-2.1918058,2.8312044,1005.3631,6.74873937147359,1005.3909319435097,1,2
21.44,14.164459,-2.5016327,1.1931018,1005.3453,6.774558798403528,1005.3905295886453,1,2
21.46,14.174036,-2.8257587,1.4061515,1005.35535,6.803166195630814,1005.3900474213684,1,2
21.48,16.062070000000002,-3.5216765,1.4582313,1005.34247,6.838263821346517,1005.3894500996453,1,2
21.5,17.954893,-6.5532074,2.6086934,1005.3279,6.884753132856697,1005.3887007258121,1,2
21.52,18.28471,-8.8459215,3.8917181,1005.36786,6.944031766977383,1005.38796355248,1,2
21.54,16.798208,-7.468387,5.1558056,1005.3929,7.011095706461662,1005.3873299573347,1,2
21.56,14.905423,-5.9192567,4.3178177,1005.40247,7.079634235612607,1005.3868246168184,1,2
21.58,10.594059,-6.3053484000000015,3.588721,1005.4075,7.141396025917765,1005.3864525293174,1,2
21.6,8.261531,-6.2100167,3.5082376,1005.3848,7.192944949243046,1005.3861178036957,1,2
21.62,6.26359,-5.909724,3.3472695,1005.37756,7.231802156999358,1005.3857912320433,1,2
21.64,4.700609,-4.999313,2.5376875,1005.3904,7.255308608415049,1005.385519264896,1,2
21.66,3.4001315,-4.918272,1.6665231,1005.3854,7.262860929684802,1005.3852785253708,1,2
21.68,2.3342364,-5.1899657,0.73384553,1005.36725,7.255313760526705,1005.385000905235,1,2
21.7,2.0044310000000003,-6.076545200000001,0.10890417,1005.37006,7.2358271290724465,1005.3847018128239,1,2
21.72,4.2652793,-7.268184700000001,-0.4166146,1005.36725,7.210096935666757,1005.3843747082435,1,2
21.74,8.251636999999999,-8.688619000000001,0.35982788,1005.3798,7.186321886480703,1005.3840692096867,1,2
21.76,14.498843,-10.395047,1.8038214,1005.35724,7.176712752331362,1005.3837026860068,1,2
21.78,19.120913,-8.455057,3.0158293,1005.3623,7.1862898474130885,1005.3833017760139,1,2
21.8,21.458239000000006,-3.8696291,1.1836145,1005.38983,7.2142677553848324,1005.3829710335505,1,2
21.82,18.75287,-1.143159,1.7470089,1005.3947,7.252235590562612,1005.3827210137888,1,2
21.84,17.639177,-1.2575564,6.5855710000000025,1005.3718,7.298897298395045,1005.382460780678,1,2
21.86,14.1451435,-2.9687502,4.843309400000001,1005.3972,7.345534021815131,1005.3822838998907,1,2
21.88,12.104169,-3.7123332,1.5481641000000002,1005.38226,7.386809005464148,1005.3821275219873,1,2
21.9,10.603312,-3.102214,-0.37400395,1005.4022,7.419662650670575,1005.3820616073928,1,2
21.92,9.3032055,-2.2490005,0.59181476,1005.41223,7.4419126792521055,1005.3821119714706,1,2
21.94,10.469479,0.2105429,1.8416976000000005,1005.39685,7.456880775158138,1005.3822095300724,1,2
21.96,11.329844,2.541389,2.6134057,1005.4094,7.46799933403353,1005.3823936185446,1,2
21.98,11.917762,2.922714,3.5318806000000005,1005.3918,7.477478936341144,1005.382590142092,1,2
22.0,11.449343,2.0266008,3.9058986,1005.384,7.4844302397296785,1005.3827688657867,1,2
22.02,11.315509,-0.54733974,3.8869612,1005.3718,7.4885222123955035,1005.3828872981267,1,2
22.04,11.248593,-2.8400533,4.4787617,1005.3718,7.4910271036781015,1005.3829520306688,1,2
22.06,12.59172,-5.1041684,5.7617855,1005.36694,7.496946905412908,1005.3829515850329,1,2
22.08,12.500905,-5.9144830000000015,10.013281,1005.369,7.510676157589331,1005.3829009655627,1,2
22.1,13.203537,-5.8096190000000005,13.4409895,1005.36646,7.536749124019378,1005.3827970507228,1,2
22.12,13.906169,-4.675178,13.152192,1005.3865,7.573607384894101,1005.3827185621876,1,2
22.14,15.827651,-5.1232343,12.726095,1005.3688,7.622444840713206,1005.3825991028942,1,2
22.16,14.346848499999998,-6.6199565,11.447891,1005.389,7.678711316938601,1005.3825165918919,1,2
22.18,12.960741,-7.463638,9.724571,1005.3915,7.737864081409597,1005.3824760254398,1,2
22.2,11.0536375,-6.748656,7.631968,1005.3662,7.793519489271732,1005.382381587231,1,2
22.22,9.175213,-6.333966,6.6188087,1005.37646,7.8415888722066,1005.3822768239155,1,2
22.24,7.937274499999999,-6.438831,6.3489504,1005.3865,7.8808412166175925,1005.382199458484,1,2
22.26,6.21659,-5.857312,4.9996495,1005.39685,7.907724085997957,1005.382183840338,1,2
22.28,5.5426730000000015,-5.4950547,4.2658205,1005.3762,7.921497080947434,1005.3821484983192,1,2
22.3,5.07907,-5.337758999999998,4.090651,1005.3537,7.9226656523728005,1005.3820148555172,1,2
22.32,5.189044,-5.018400700000001,2.7129426,1005.36865,7.911205108751558,1005.3818486552576,1,2
22.34,5.929951,-5.2996287,1.860753,1005.3288,7.8895746656488,1005.3815108255493,1,2
22.36,7.512102,-6.524635,1.5293479,1005.3737,7.86298308949261,1005.381184200247,1,2
22.38,10.49952,-6.219576,-0.061408293,1005.3609,7.836544651726407,1005.380822571009,1,2
22.4,12.951597,-5.9240502999999975,-1.3396941,1005.36395,7.814704470957977,1005.3804422941588,1,2
22.42,14.4333725,-7.249153999999999,-1.8036625,1005.37115,7.801052581776558,1005.3800728292747,1,2
22.44,16.383570000000002,-7.7687097,-2.4854130000000003,1005.3812,7.7989453109378255,1005.3797504279179,1,2
22.46,16.976303,-5.566561,-3.8394496,1005.3986,7.806987995606918,1005.3795334125388,1,2
22.48,15.442023,-3.7600367,-2.9209716,1005.4011,7.819576025414134,1005.3794192974644,1,2
22.5,13.554038,-2.4635344,-0.624782,1005.37836,7.831210854248825,1005.3793146519138,1,2
22.52,11.656494,-1.8820152,-1.8131143,1005.3808,7.838128002879927,1005.3792275343584,1,2
22.54,10.743588,-1.6055558,-0.4780087000000001,1005.43176,7.838622687135044,1005.3793396741628,1,2
22.56,10.318221,-0.8476743,0.071185514,1005.4083,7.832359526129374,1005.3795430180667,1,2
22.58,9.730346,-1.4577945,2.5851580000000003,1005.4052,7.819772872801554,1005.3798150578754,1,2
22.6,10.0267315,-0.83814305,3.5131050000000004,1005.39557,7.80265107063716,1005.380112150042,1,2
22.62,11.083106,-0.6093493000000001,5.2411660000000015,1005.39624,7.784945873538934,1005.3804327209399,1,2
22.64,11.522883,-1.3576996,5.851907700000001,1005.41327,7.768284955036393,1005.3808341915905,1,2
22.66,11.732006,-2.3920133,6.3063015999999985,1005.3806,7.753724512499584,1005.3811880879672,1,2
22.68,12.425069,-4.6799602999999985,5.5061860000000005,1005.3981,7.742820613865982,1005.381561673689,1,2
22.7,13.643907999999998,-6.381621400000001,5.676624,1005.3827,7.738768242504399,1005.3818958720076,1,2
22.72,13.911568,-7.0203395,5.6766233,1005.3855,7.7417979430944,1005.3822041445027,1,2
22.74,12.807423,-7.6304584,5.913343,1005.3757,7.749939140568713,1005.3824531191592,1,2
22.76,10.952849,-7.883086,4.923851,1005.4058,7.759089943380863,1005.3827571619363,1,2
22.78,8.978781,-6.815376799999999,3.5129976000000003,1005.4133,7.763783589640987,1005.3831357683516,1,2
22.8,6.9425729999999986,-5.981229,2.7318199,1005.3702,7.7598561069797825,1005.383423736214,1,2
22.82,5.9435844000000015,-6.1385255,1.6476401000000005,1005.3751,7.746536782612789,1005.3836482191667,1,2
22.84,6.1873435999999975,-6.405452,0.37881875,1005.373,7.725407363271983,1005.3838082387148,1,2
22.86,6.885186,-3.5931833,0.87119603,1005.39557,7.695169315105642,1005.3839919743283,1,2
22.88,8.414714,-1.2671032,1.4961364,1005.3802,7.65870648384742,1005.3841406720088,1,2
22.9,9.542736,0.66811913,0.07581410599999999,1005.4056,7.618799964472065,1005.3843493148596,1,2
22.92,9.93945,0.5775549,1.8938246,1005.39014,7.577175530498677,1005.3845545181496,1,2
22.94,10.035036,0.8969145000000001,0.6486753000000001,1005.3977,7.534102281384232,1005.3847831595108,0,0
22.96,10.130624,1.0923434,1.335163,1005.3852,7.490279189707545,1005.3849866876436,0,0
22.98,9.982438,0.7968172,2.2773087000000003,1005.3702,7.445937613759111,1005.3851132930264,0,0
23.0,10.125823,1.178142,1.6050223999999995,1005.37,7.40140113552545,1005.3851707536876,0,0
23.02,9.925062,1.0017797,2.5519023,1005.3625,7.356805008153907,1005.3851399112144,0,0
23.04,10.054105,1.182909,2.0074449,1005.3777,7.312366270978051,1005.3850858751248,0,0
23.06,9.915482,0.9541145,2.8028243,1005.38007,7.268283782910893,1005.3850200716852,0,0
23.08,9.523527,0.55372393,2.8028233,1005.38745,7.223832472161738,1005.3849706755084,0,0
23.1,9.666912,0.8349511000000001,2.4903514,1005.39496,7.179370259369247,1005.3849629906148,0,0
23.12,9.399234,0.47745955,2.8549,1005.3925,7.1346790403288205,1005.3849833334764,0,0
23.14,9.289288,0.5012925,2.7128668,1005.3721,7.089645934018779,1005.3849549284282,0,0
23.16,9.49003,0.66812223,2.4998176,1005.367,7.044776675173247,1005.3848651919853,0,0
23.18,9.270148,0.3487633,2.7412713,1005.3771,6.999874483465487,1005.3847579461733,0,0
23.2,9.164983,0.36306316,2.5803006,1005.3897,6.9548033597206835,1005.3846809751677,0,0
23.22,9.442202,0.48222727,2.5992372,1005.35956,6.910321139881103,1005.3845225280763,0,0
23.24,9.184724,0.30108273,2.5803576,1005.3767,6.865978515996622,1005.3843543631253,0,0
23.26,9.696175,0.8826023000000001,2.6750467,1005.38916,6.823066201200727,1005.3842230728676,0,0
23.28,9.571912,0.72053903,2.888096,1005.3742,6.781420458512892,1005.3840709817332,0,0
23.3,9.165639,0.32968128,2.760268,1005.37177,6.740116516427111,1005.3838923104727,0,0
23.32,9.42854,0.65380675,2.4951425,1005.3746,6.699672883429817,1005.3837009842294,0,0
23.34,9.352074,0.4917435000000001,2.6987228,1005.3897,6.660074927586608,1005.3835535248172,0,0
23.36,9.270828,0.3630463,2.6892552000000003,1005.3716,6.621187465648093,1005.3833801969918,0,0
23.38,9.31864,0.34397972,2.7366002000000003,1005.38666,6.583189229624112,1005.3832388518157,0,0
23.4,9.156137,0.053219505,2.9780562,1005.36414,6.545926804813147,1005.3830452033516,0,0
23.42,9.074892,0.03415291,2.5614293,1005.3691,6.509035268434572,1005.3828238928368,0,0
23.44,9.065344,0.03415267,2.310507,1005.38916,6.472449831729945,1005.3826511528515,0,0
23.46,9.046236,-0.28044033,2.4525402,1005.3992,6.436311833119914,1005.3825580956503,0,0
23.48,8.78336,-0.73803014,2.1874144,1005.3866,6.400085489102643,1005.3824904211632,0,0
23.5,8.802488,-0.8428945999999999,1.9743674,1005.3816,6.363867448716878,1005.38242741847,0,0
23.52,9.065391,-1.066923,1.8654772,1005.39905,6.328319522733956,1005.3824315905838,0,0
23.54,9.395207,-1.3147843,1.7376492,1005.3737,6.294173316087563,1005.3824038433374,0,0
23.56,9.705906,-1.0478574,1.6476966,1005.3737,6.261920256983137,1005.3823479920343,0,0
23.58,9.6629,-1.4720812,1.6619008000000002,1005.3992,6.2314857843848825,1005.3823593090519,0,0
23.6,9.811085,-1.5245136,1.9601693,1005.3687,6.20319552526386,1005.382320135256,0,0
23.62,9.997509,-1.54358,1.6761061999999998,1005.39905,6.177179048149491,1005.3823457488028,0,0
23.64,9.901925,-1.376751,1.2736828000000002,1005.39624,6.152899747841482,1005.3824184002373,0,0
23.66,10.131367,-1.4482495000000002,1.368372,1005.3886,6.130757118330767,1005.3825048488036,0,0
23.68,10.231754,-1.3958178,0.83811975,1005.39124,6.11065501818211,1005.3826126813016,0,0
23.7,10.059693,-1.6055466,1.1742635,1005.37335,6.09220795429477,1005.382674616444,0,0
23.72,10.250896,-1.5912472,1.576689,1005.3686,6.075785058515116,1005.3826786737164,0,0
23.74,10.145931,-1.4577882,1.4583462,1005.3862,6.060919993431115,1005.3826949354968,0,0
23.76,10.059915,-1.7151828000000002,1.5056921,1005.39343,6.0474064060777595,1005.3827479506384,0,0
23.78,9.529375,-2.0726752,1.4820218,1005.37573,6.034197377860228,1005.3827695301953,0,0
23.8,9.476814,-2.3491356,1.6524618999999998,1005.3886,6.021384684139107,1005.382809587583,0,0
23.82,9.510292,-2.311004,1.1553512,1005.3909,6.008869657552023,1005.3828741077756,0,0
23.84,9.610687,-2.4015687000000003,1.1364152,1005.3834,5.996904141661424,1005.3829330110296,0,0
23.86,9.582028,-2.3443704,1.1411513999999998,1005.40076,5.98538258059824,1005.3830492351053,0,0
23.88,9.419532,-2.7304623,1.2547788999999998,1005.3785,5.974204990468385,1005.383135553452,0,0
23.9,9.386092,-2.639898,1.003857,1005.37823,5.963194016988973,1005.3831941643506,0,0
23.92,9.295296,-2.5350344,0.9375773,1005.36835,5.952117323414501,1005.383192513949,0,0
23.94,9.314434,-2.7542965,0.9896575,1005.37787,5.941195209423461,1005.3831718946041,0,0
23.96,9.190178,-2.9497254,0.8144861999999999,1005.3832,5.9302886408004225,1005.3831537765303,0,0
23.98,9.228434,-2.9735587000000003,0.72453415,1005.3834,5.91951082079811,1005.3831386538046,0,0
24.0,9.30493,-2.7733638,0.8855056999999998,1005.36035,5.908941749804902,1005.3830432522107,0,0
24.02,9.214132,-2.8543959,0.9328515,1005.3932,5.898473365512142,1005.3829955196544,0,0
24.04,9.338426,-2.8067307,0.6535232,1005.3932,5.888301743018854,1005.3829900792964,0,0
24.06,9.405361,-2.859163,0.8807764000000001,1005.3777,5.878630041304286,1005.3829662279112,0,0
24.08,9.43884,-2.835331,0.9091847,1005.4002,5.8694923008260815,1005.3830071944066,0,0
24.1,9.500995,-2.797199,0.84763896,1005.3682,5.86094877202506,1005.3829900865021,0,0
24.12,9.529693,-2.7447672,0.77662456,1005.3929,5.852975699754541,1005.3830106456461,0,0
24.14,9.606188,-2.7590673,0.9565336,1005.4158,5.845728210720456,1005.3831468533814,0,0
24.16,9.395893,-2.306245,0.98020726,1005.3728,5.838491325079385,1005.3832299578644,0,0
24.18,9.300319,-2.5064406000000004,1.1790541,1005.3804,5.831247707637678,1005.3832932011368,0,0
24.2,9.22386,-2.5588734,1.2311343,1005.38245,5.823914124151304,1005.3833460473683,0,0
24.22,9.080483,-2.6065395,1.3636992,1005.38525,5.816307192504842,1005.3833995965283,0,0
24.24,9.233457,-2.6351392,1.4299826999999998,1005.39264,5.80882473015293,1005.3834801780182,0,0
24.26,9.47159,-2.6065187,1.2594656000000002,1005.40027,5.8018867441063176,1005.383611823182,0,0
24.28,9.361639,-2.5302536,1.3115427,1005.3929,5.795209028302393,1005.3837615822853,0,0
24.3,9.442882,-2.330058,1.2831349,1005.37744,5.7888363454719425,1005.3838711517324,0,0
24.32,9.543242,-2.1679945,0.94225645,1005.3623,5.7828003512071895,1005.38389031115,0,0
24.34,9.591025,-2.4253883,1.2689290000000002,1005.3826,5.7773794115436425,1005.383902595291,0,0
24.36,9.438056,-2.6398828,1.3352091,1005.38763,5.7723486229809575,1005.383926868215,0,0
24.38,9.45716,-2.5969834,1.2073789,1005.3847,5.767660846093293,1005.3839510990448,0,0
24.4,9.313752,-2.535018,1.2405186,1005.3801,5.762982660661472,1005.38395864545,0,0
24.42,9.261159,-2.487352,1.2168450000000002,1005.39496,5.758193234965187,1005.3840049183297,0,0
24.44,9.141648,-2.8877425,1.4582982,1005.3718,5.753387025623328,1005.3840018673402,0,0
24.46,9.041259,-2.7924109,1.5198442,1005.3773,5.748347904840134,1005.3839750447636,0,0
24.48,9.390168,-2.334821,1.3162633999999998,1005.37976,5.743497878961973,1005.3839361701737,0,0
24.5,9.423613,-2.0535939,1.4109502,1005.3647,5.738795469195392,1005.3838325703732,0,0
24.52,9.34234,-2.401552,1.4393553,1005.40765,5.734251720037308,1005.3838267723364,0,0
24.54,9.538298,-2.3443532000000005,1.5766515,1005.3922,5.730269903639183,1005.3838517928108,0,0
24.56,10.030602,-2.1965895,1.387274,1005.37225,5.727658755772276,1005.3838321344472,0,0
24.58,9.433111,-2.6541786,1.4204135,1005.40497,5.725312497548933,1005.3838908606336,0,0
24.6,9.041154,-2.592213,1.5813818000000002,1005.38983,5.722451419993175,1005.3839641319936,0,0
24.62,9.404403,-2.3443518,1.0890025,1005.3847,5.719594170684037,1005.384031523692,0,0
24.64,9.284893,-2.3443513,0.9848442,1005.3743,5.716487879220817,1005.3840560375116,0,0
24.66,9.289658,-2.353884,1.363595,1005.36676,5.7132828235282185,1005.3840154321872,0,0
24.68,9.265744,-2.6017447,1.5198288999999998,1005.3769,5.710134201291541,1005.383953937767,0,0
24.7,9.246613,-2.573145,1.4677495,1005.3893,5.706976500693679,1005.3839188471213,0,0
24.72,9.270493,-2.7113745,1.5103575,1005.38715,5.703960764036692,1005.3838994731772,0,0
24.74,9.075193,-2.778123,1.5624976000000002,1005.3766,5.700753796141515,1005.3838560762564,0,0
24.76,9.247278,-2.6303601000000003,1.2547622,1005.38434,5.697549408290207,1005.3838194728634,0,0
24.78,9.424144,-2.5826948,1.1695441999999998,1005.38934,5.694661744421508,1005.3838070040024,0,0
24.8,9.481514,-2.6255941000000003,1.6382513,1005.37646,5.69233957979829,1005.3837695373024,0,0
24.82,9.448068,-2.6589603,1.6524556,1005.39465,5.690482680284451,1005.383775601392,0,0
24.84,9.400283,-2.6827934,1.3541894,1005.37646,5.6888684510658525,1005.3837546234564,0,0
24.86,9.52935,-2.6303616,1.2973777,1005.3664,5.687685448462312,1005.3836736107086,0,0
24.88,9.438544,-2.778125,1.0464553,1005.4097,5.68672960487263,1005.3836957228458,0,0
24.9,9.156549,-2.9401884,1.2973799,1005.39136,5.6855824667243935,1005.383742852528,0,0
24.92,9.070526,-2.9640212000000004,1.1837554,1005.36395,5.684086556701352,1005.383713242046,0,0
24.94,9.0466385,-2.8591573,1.1553501,1005.38116,5.682167545158213,1005.3836778865527,0,0
24.96,9.08967,-2.7113943,1.1600857,1005.4014,5.679878139875559,1005.3837104460474,0,0
24.98,9.280873,-2.515966,1.1080081,1005.39154,5.677526085464401,1005.3837674020112,0,0
25.0,9.4147215,-2.4349349,0.98491496,1005.36395,5.675324111631096,1005.3837463856534,0,0
25.02,9.4768715,-2.6970956000000004,1.065401,1005.38385,5.673546128988343,1005.3837281886113,0,0
25.04,9.381287,-2.782894,1.4820296999999998,1005.38873,5.6721207446876525,1005.3837301162256,0,0
25.06,9.214007,-2.5874655,1.0512002,1005.379,5.670453013058858,1005.3837147910476,0,0
25.08,9.3765335,-2.5255005,1.1316861,1005.37604,5.668885666908093,1005.3836736204725,0,0
25.1,9.4817,-2.5302675,1.0843432,1005.39124,5.667613896542504,1005.3836644811188,0,0
25.12,9.625108,-2.3682046000000003,0.93757784,1005.36865,5.6667807649280215,1005.3836023534534,0,0
25.14,9.534305,-2.3586720000000003,0.9754542,1005.3834,5.666158705326723,1005.383546728976,0,0
25.16,9.257088,-2.4730697,1.3873485,1005.39105,5.665333828912869,1005.3835245909636,0,0
25.18,9.094587,-2.7924294,1.2027078000000002,1005.38116,5.664140861147728,1005.3834965172881,0,0
25.2,9.629936,-2.3586729,0.57776755,1005.37866,5.663337886989997,1005.3834542999263,0,0
25.22,9.830701,-2.4969034,1.2263821,1005.36365,5.663475401556307,1005.3833457011856,0,0
25.24,9.892851,-2.8782282,1.354212,1005.40393,5.664807056801901,1005.3833238468144,0,0
25.26,9.95936,-2.7876537,1.2878931999999998,1005.3682,5.667252167029568,1005.383250090443,0,0
25.28,9.586531,-2.5636256,0.9990941,1005.40125,5.669740218265632,1005.3832497189876,0,0
25.3,9.581749,-2.3586633,0.8191864000000001,1005.3707,5.672107956544554,1005.3832042117816,0,0
25.32,9.266277,-2.8210192000000003,1.1316568,1005.3505,5.6740497787624875,1005.383046266452,0,0
25.34,9.003385,-2.9687824000000003,1.396783,1005.3936,5.675255987640438,1005.3829446993992,0,0
25.36,9.084638,-2.9401832000000003,1.3589075000000002,1005.3787,5.6759371896957305,1005.3828396738336,0,0
25.38,9.15633,-2.821019,1.4867358999999998,1005.41113,5.676257893452741,1005.382848718418,0,0
25.4,9.275822,-2.5493252,1.1269208,1005.3656,5.6762377769912895,1005.3827946148268,0,0
25.42,9.361855,-2.5636249,0.95174766,1005.3734,5.676056916175625,1005.38271298828,0,0
25.44,9.366631,-2.6255898,1.1458579,1005.4032,5.6758216648234985,1005.3827146163053,0,0
25.46,9.184994,-2.5111923,1.2784209,1005.3905,5.6751497071528885,1005.3827440822098,0,0
25.48,9.2997055,-2.6684887,0.88073057,1005.39545,5.674317655005454,1005.3828158595873,0,0
25.5,9.079831,-2.8019524,1.2689514,1005.37866,5.6730804582294425,1005.3828643209832,0,0
25.52,9.141965,-2.825785,1.3020918,1005.3806,5.671635704641737,1005.3828989899173,0,0
25.54,9.141961,-2.792419,0.76236945,1005.3909,5.6698721728998605,1005.3829584270236,0,0
25.56,9.314031,-2.658955,0.79077554,1005.37006,5.668101610515271,1005.3829645113136,0,0
25.58,9.543456,-2.453993,0.9375417,1005.373,5.6667054449221625,1005.3829340151517,0,0
25.6,9.524334,-2.3872612,1.051167,1005.353,5.665596590307692,1005.382799306288,0,0
25.62,9.462193,-2.5445576,0.9044001,1005.3905,5.6646727366847,1005.3827080000335,0,0
25.64,9.438291,-2.601756,0.9801504,1005.39825,5.663914129243974,1005.3826832730272,0,0
25.66,9.433506,-2.6589546000000004,1.2594799,1005.4005,5.6633923943200495,1005.3827255644612,0,0
25.68,9.2948885,-2.6160557,1.3210268,1005.3625,5.662799782200032,1005.3826901211404,0,0
25.7,9.328342999999998,-2.7161534,1.4393866000000002,1005.3549,5.662304251348907,1005.3825587589861,0,0
25.72,9.314,-2.644655,1.1979315,1005.39545,5.661759602149428,1005.382489095854,0,0
25.74,9.380914,-2.587456,1.0985087,1005.378,5.661250420790412,1005.3824113807657,0,0
25.76,9.472735,-2.5636477,1.136476,1005.3674,5.660953326052223,1005.3822886707424,0,0
25.78,9.367617999999998,-2.7590775,1.1459483,1005.3751,5.660747839863277,1005.3821543649516,0,0
25.8,9.525387,-2.7495456000000003,1.1459515,1005.37494,5.660931224815951,1005.3820097206407,0,0
25.82,9.477621,-2.7590795,0.999188,1005.4055,5.661335365408123,1005.3819664779337,0,0
25.84,9.238668,-2.644683,0.80981535,1005.37494,5.661355946313161,1005.3819029733568,0,0
25.86,9.358198,-2.654217,0.8855688,1005.4179,5.661294714907098,1005.3819764500087,0,0
25.88,9.415593,-2.4873886,0.8761035,1005.395,5.661183010164702,1005.3820882587582,0,0
25.9,9.420415,-2.4158912,1.1554372,1005.3999,5.661059789920036,1005.3822511752376,0,0
25.92,9.430012,-2.3872926,1.3400823,1005.3849,5.660980283619076,1005.3824046640083,0,0
25.94,9.406138,-2.5970218,1.4726481000000002,1005.39496,5.661041937540912,1005.3825854858957,0,0
25.96,9.272347,-2.5636568,1.1838533000000002,1005.3946,5.660862758859137,1005.3827885123658,0,0
25.98,9.482694,-2.7876859,1.2690758,1005.3851,5.661037403460214,1005.3829762279103,0,0
26.0,9.339336,-2.744788,1.4111112,1005.357,5.661255874459712,1005.383048578945,0,0
26.02,9.1434,-2.8448863,1.534209,1005.36707,5.661225066034464,1005.3830549854351,0,0
26.04,9.129094,-2.7829218,1.2596167,1005.402,5.660825969336227,1005.3831288482622,0,0
26.06,9.14824,-2.7972224,1.164931,1005.3595,5.660124487052682,1005.3831090496024,0,0
26.08,9.325129,-2.6208606,0.8856045,1005.3849,5.6593450472248445,1005.383098002928,0,0
26.1,9.545039,-2.4969313,0.91401464,1005.412,5.65887706861909,1005.3831922892759,0,0
