Timestamp,Ax,Ay,Az,P,Value,Type
0.0,-2.586834,4.324616000000002,7.2132524999999985,1003.28754,0,0
0.04,-2.6442208,3.2998068,9.433686,1003.32806,0,0
0.08,-2.8832366,1.7506766,10.304814,1003.31067,0,0
0.12,-2.5008814,2.584825,11.531022,1003.31866,0,0
0.16,-1.8078408,2.2178009,9.088067,1003.3813,0,0
0.2,-1.9942789,1.3169222,9.504691,1003.4016,0,0
0.24,-1.311577,-0.060592905,8.358891999999999,1003.412,0,0
0.28,0.35173023,0.8450542999999999,6.7870630000000025,1003.3966,0,0
0.32,1.451028,-0.10825549,8.458302999999999,1003.4752,0,0
0.36,2.9805043,-0.38471442,23.30539,1003.4903,0,0
0.4,1.4939283,1.1024528,6.3751545,1003.4123,0,0
0.44,2.1678162,-0.527708,5.7928166,1003.42035,0,0
0.48,3.1332796000000003,-0.42760903,4.542928,1003.4632,0,0
0.52,2.0577626,-1.5858806,6.2046986,1003.4658,0,0
0.56,3.2239778,-2.56779,5.1157804,1003.4534,0,0
0.6,6.880466499999999,-1.895704,6.5834403,1003.43335,0,0
0.64,6.8804016,-3.030143,5.2483325,1003.4387,0,0
0.68,8.352525,-4.736569,3.5676134,1003.42114,0,0
0.72,8.514977,-7.048348,6.701784,1003.47394,0,0
0.76,8.510137,-7.849128,3.5486648,1003.4719,0,0
0.8,9.485159,-7.787161,2.3887303,1003.4695,0,0
0.84,11.052874,-9.097963,1.3944997,1003.4595,0,0
0.88,12.859574,-9.274323,1.7543086,1003.4848,0,0
0.92,12.214244,-6.6288839999999984,1.4986455,1003.4801,0,0
0.96,11.554571,-6.2427907,1.617,1003.45984,0,0
1.0,11.473256,-6.4811172,-1.2851952,1003.4625,0,0
1.04,11.616594,-4.798521,-3.9080608,1003.5107,0,0
1.08,10.23517,-4.0263376000000015,-3.0558734,1003.4705,0,0
1.12,9.795367,-5.6660314000000005,-0.06846963,1003.5186,0,0
1.16,8.891923,-7.906311,1.9057715,1003.5186,0,0
1.2,8.021938,-7.8252788,2.6064580000000004,1003.5213,0,0
1.24,7.645117999999999,-6.2189684000000005,2.365075,1003.49365,0,0
1.28,7.124095,-6.233268,1.0773146999999998,1003.50885,0,0
1.32,6.8372800000000025,-7.296209299999999,-0.07314801,1003.5041,0,0
1.36,6.4931087,-7.9396935,0.49971268,1003.4819,0,0
1.4,5.398501400000002,-8.416349,-1.0768472,1003.5122,0,0
1.44,5.618353400000001,-8.750008,-1.711259,1003.4772,0,0
1.48,6.0007114,-8.030256,-1.6449798,1003.5202,0,0
1.52,5.814272,-7.920625699999999,-1.4792781000000002,1003.4497,0,0
1.56,6.010215799999999,-6.6717863,-1.6213129,1003.4496,0,0
1.6,6.27308,-6.7528169999999985,-2.6581497000000005,1003.4801,0,0
1.64,5.7855153,-8.144651,-0.8448751,1003.50793,0,0
1.68,6.559817,-7.262837400000001,0.7269449,1003.4981,0,0
1.72,6.9039345,-6.7051497000000015,-0.22467299,1003.51843,0,0
1.76,6.7318362999999986,-6.7528143,-0.17259686,1003.5135,0,0
1.8,7.238469,-6.156994,-0.13945846,1003.51355,0,0
1.84,7.2288830000000015,-6.2618575,0.3576516,1003.48865,0,0
1.88,7.539544999999999,-6.7957115,0.58490074,1003.476,0,0
1.92,7.797628,-6.676547,-0.5229524,1003.4664,0,0
1.96,7.539485000000001,-6.862441499999999,-0.7075971999999999,1003.4767,0,0
2.0,7.386506599999999,-7.0721703,1.9626046,1003.4792,0,0
2.04,6.621718,-7.115068400000001,2.2040577,1003.46436,0,0
2.08,6.1150255,-7.0960009999999984,0.5801536999999999,1003.50476,0,0
2.12,6.3300967,-6.7528086,1.0441235,1003.4495,0,0
2.16,7.3386054,-6.3810167,-0.17735565,1003.47754,0,0
2.2,7.668385000000002,-6.9053372999999985,-0.36199987,1003.48773,0,0
2.24,7.3613032999999986,-7.539260400000001,0.1160675,1003.4953,0,0
2.28,7.050547,-7.539258500000001,-0.42839533,1003.4681,0,0
2.32,6.9166300000000005,-6.8910050000000025,-1.6262074,1003.4428,0,0
2.36,7.0790553,-6.2475176,-1.2285254,1003.48035,0,0
2.4,7.078986,-6.423878,-0.390542,1003.4756,0,0
2.44,7.0932527,-6.5811734,0.06868852,1003.46826,0,0
2.48,6.9784630000000005,-6.7623005,0.20597951,1003.4734,0,0
2.52,7.1504865,-6.5716367,0.16809966,1003.4736,0,0
2.56,7.2937837,-6.6145334,0.21070047,1003.4661,0,0
2.6,7.3176320000000015,-6.4048038,0.16335179,1003.4712,0,0
2.64,6.9447199999999984,-6.5096655,0.30537593,1003.4511,0,0
2.68,7.0975956999999985,-6.5382633000000006,0.28643113,1003.44135,0,0
2.72,7.360411,-6.9243526,0.3290341,1003.45935,0,0
2.76,7.6423507,-7.000616,0.26274607,1003.4845,0,0
2.8,7.752213,-6.5048923,-0.03079373,1003.48975,0,0
2.84,7.9863534,-6.0139346,-0.7741017,1003.5002,0,0
2.88,8.167909,-6.3189926,-1.0818450000000002,1003.4747,0,0
2.92,8.086583000000001,-6.3428245,-1.0723827,1003.4672,0,0
2.96,7.919220399999999,-6.1378603,-0.6462924,1003.47797,0,0
3.0,7.512859,-6.0139275,-0.17285912,1003.47015,0,0
3.04,7.2690199999999985,-6.2188883000000015,-0.068708524,1003.503,0,0
3.08,7.144671400000001,-6.8004065,0.17273937,1003.48315,0,0
3.12,7.1732817,-7.029199,0.42839095,1003.49854,0,0
3.16,7.120635000000001,-7.1531286,0.37630615,1003.47614,0,0
3.2,7.130116,-7.219858,0.18218839,1003.49615,0,0
3.24,6.959327,-7.219889599999999,-0.13489920000000002,1003.4963,0,0
3.28,6.6056027,-7.0625925,-0.3952932,1003.5015,0,0
3.32,6.6916202999999985,-7.0864252999999975,-0.60834306,1003.46405,0,0
3.36,6.7202800000000025,-6.6860337,-0.5846728,1003.4664,0,0
3.4,6.8684350000000025,-6.5049043,-0.6651594,1003.4664,0,0
3.44,6.925773,-6.609767999999999,-0.46158177,1003.4817,0,0
3.48,6.9257554999999975,-6.7670636,-0.14911273,1003.5172,0,0
3.52,7.0834713,-6.924359299999999,0.026058618,1003.4946,0,0
3.56,7.3415604,-6.895760000000001,0.19176093,1003.50757,0,0
3.6,7.6044307,-6.7336965,0.22016563,1003.50995,0,0
3.64,7.656991,-6.4381695,0.20122634,1003.4954,0,0
3.68,7.6043949999999985,-6.4334025000000015,-0.03549551,1003.4774,0,0
3.72,7.580475999999999,-6.3571370000000025,-0.13018546,1003.51044,0,0
3.76,7.456185,-6.452468,0.040251598,1003.47046,0,0
3.8,7.260194,-6.647896,0.1870164,1003.49304,0,0
3.84,7.08332,-6.762293,0.2201554,1003.52325,0,0
3.88,6.939908999999999,-6.800425,-0.002363268,1003.48566,0,0
3.92,6.772597,-7.0721187999999975,0.002369404,1003.49365,0,0
3.96,6.853834,-7.215114,-0.1491333,1003.49316,0,0
4.0,6.9589734,-7.1293163,-0.35271420000000003,1003.49603,0,0
4.04,6.762981,-7.291378,-0.29590320000000003,1003.4911,0,0
4.08,6.093789,-7.586905000000002,-0.34324896,1003.4909,0,0
4.12,6.151128,-7.3914757,-0.56576777,1003.5143,0,0
4.16,6.6290894,-7.16268,-0.7409424,1003.51166,0,0
4.2,6.968437700000001,-6.905286,-0.5420991,1003.4892,0,0
4.24,6.9674460000000025,-6.895728,-0.5895338999999999,1003.4942,0,0
4.28,7.019962,-6.881427,-0.49485147,1003.4766,0,0
4.32,7.34015,-6.495334,-0.43330958,1003.48663,0,0
4.36,7.387890299999999,-6.781326299999999,-0.44751817,1003.5017,0,0
4.4,7.593370399999999,-6.7860923,0.025917638,1003.49695,0,0
4.44,7.411675999999999,-6.6287947,0.28156984,1003.4817,0,0
4.48,7.0961504,-6.628792999999999,0.082719475,1003.48944,0,0
4.52,7.277728,-6.338031299999999,-0.0924585,1003.5403,0,0
4.56,7.621819500000001,-6.371396,0.09691268,1003.48486,0,0
4.6,7.636100999999999,-6.4238267,0.021156872,1003.4822,0,0
4.64,7.506987599999999,-6.7002854,-0.035661314,1003.50757,0,0
4.68,7.387434,-6.7908487000000015,0.030615,1003.5152,0,0
4.72,7.2631006,-6.8003800000000005,-0.016734395,1003.5208,0,0
4.76,7.133987400000001,-6.7956119999999975,-0.28186637,1003.5028,0,0
4.8,7.095695,-6.6764470000000005,-0.5185916,1003.49536,0,0
4.84,7.382428,-6.595414,-0.7884576999999999,1003.50323,0,0
4.88,7.1816144,-7.0577683,-1.0961998,1003.51575,0,0
4.92,6.885211999999999,-7.1054330000000006,-0.36710635,1003.50824,0,0
4.96,6.780001,-6.962435,-0.116187915,1003.51324,0,0
5.0,6.6700077,-6.6526070000000015,-0.4476016,1003.53107,0,0
5.04,6.736867,-6.45241,-0.3907941,1003.516,0,0
5.08,6.8849782999999976,-6.3570776,-0.50442547,1003.5035,0,0
5.12,6.994859,-6.5191393,-0.4334144,1003.50604,0,0
5.16,7.1620979999999985,-6.5620365000000005,-0.18249595,1003.4988,0,0
5.2,7.5970016,-6.4238050000000015,-0.20617335,1003.4887,0,0
5.24,7.826877,-6.233154,-0.51386887,1003.5088,0,0
5.28,7.683444500000001,-6.214087,-0.4475907,1003.5013,0,0
5.32,7.487438,-6.3189507,-0.2156081,1003.5014,0,0
5.36,7.473057700000001,-6.361848,-0.07831411,1003.489,0,0
5.4,7.6068570000000015,-6.266516,-0.25822476,1003.5091,0,0
5.44,7.697635000000001,-6.3761462999999985,-0.3197755,1003.5014,0,0
5.48,7.812311999999999,-6.4857764000000016,-0.2440285,1003.48395,0,0
5.52,7.9413285,-6.3666105,-0.35292324,1003.4914,0,0
5.56,7.640165299999999,-6.3237114000000005,0.0068882330000000005,1003.519,0,0
5.6,7.085673,-6.5477386,-0.47602433,1003.47894,0,0
5.64,6.908778999999999,-6.5906367,-0.13988529,1003.4842,0,0
5.68,7.0999336,-6.652601,-0.39554664,1003.5092,0,0
5.72,7.3627872,-6.390439,-0.29612738,1003.4942,0,0
5.76,7.4822440000000014,-6.438104,-0.27245888,1003.48663,0,0
5.8,7.3961697,-6.3999705,-0.19197746,1003.5071,0,0
5.84,7.348338,-6.442868,-0.02154193,1003.4641,0,0
5.88,7.2813807,-6.509599,-0.012076821,1003.5071,0,0
5.92,7.367381,-6.523899,0.068404794,1003.5071,0,0
5.96,7.3338847,-6.585862,0.12994859,1003.4723,0,0
6.0,7.2669296,-6.6239944,0.04946019,1003.49457,0,0
6.04,-2.586834,4.324616000000002,7.2132524999999985,1003.28754,0,0
6.08,-2.6442208,3.2998068,9.433686,1003.32806,0,0
6.12,-2.8832366,1.7506766,10.304814,1003.31067,0,0
6.16,-2.5008814,2.584825,11.531022,1003.31866,0,0
6.2,-1.8078408,2.2178009,9.088067,1003.3813,0,0
6.24,-1.9942789,1.3169222,9.504691,1003.4016,0,0
6.28,-1.311577,-0.060592905,8.358891999999999,1003.412,0,0
6.32,0.35173023,0.8450542999999999,6.7870630000000025,1003.3966,0,0
6.36,1.451028,-0.10825549,8.458302999999999,1003.4752,0,0
6.4,2.9805043,-0.38471442,23.30539,1003.4903,0,0
6.44,1.4939283,1.1024528,6.3751545,1003.4123,0,0
6.48,2.1678162,-0.527708,5.7928166,1003.42035,0,0
6.52,3.1332796000000003,-0.42760903,4.542928,1003.4632,0,0
6.56,2.0577626,-1.5858806,6.2046986,1003.4658,0,0
6.6,3.2239778,-2.56779,5.1157804,1003.4534,0,0
6.64,6.880466499999999,-1.895704,6.5834403,1003.43335,0,0
6.68,6.8804016,-3.030143,5.2483325,1003.4387,0,0
6.72,8.352525,-4.736569,3.5676134,1003.42114,0,0
6.76,8.514977,-7.048348,6.701784,1003.47394,0,0
6.8,8.510137,-7.849128,3.5486648,1003.4719,0,0
6.84,9.485159,-7.787161,2.3887303,1003.4695,0,0
6.88,11.052874,-9.097963,1.3944997,1003.4595,0,0
6.92,12.859574,-9.274323,1.7543086,1003.4848,0,0
6.96,12.214244,-6.6288839999999984,1.4986455,1003.4801,0,0
7.0,11.554571,-6.2427907,1.617,1003.45984,0,0
7.04,11.473256,-6.4811172,-1.2851952,1003.4625,0,0
7.08,11.616594,-4.798521,-3.9080608,1003.5107,0,0
7.12,10.23517,-4.0263376000000015,-3.0558734,1003.4705,0,0
7.16,9.795367,-5.6660314000000005,-0.06846963,1003.5186,0,0
7.2,8.891923,-7.906311,1.9057715,1003.5186,0,0
7.24,8.021938,-7.8252788,2.6064580000000004,1003.5213,0,0
7.28,7.645117999999999,-6.2189684000000005,2.365075,1003.49365,0,0
7.32,7.124095,-6.233268,1.0773146999999998,1003.50885,0,0
7.36,6.8372800000000025,-7.296209299999999,-0.07314801,1003.5041,0,0
7.4,6.4931087,-7.9396935,0.49971268,1003.4819,0,0
7.44,5.398501400000002,-8.416349,-1.0768472,1003.5122,0,0
7.48,5.618353400000001,-8.750008,-1.711259,1003.4772,0,0
7.52,6.0007114,-8.030256,-1.6449798,1003.5202,0,0
7.56,5.814272,-7.920625699999999,-1.4792781000000002,1003.4497,0,0
7.6,6.010215799999999,-6.6717863,-1.6213129,1003.4496,0,0
7.64,6.27308,-6.7528169999999985,-2.6581497000000005,1003.4801,0,0
7.68,5.7855153,-8.144651,-0.8448751,1003.50793,0,0
7.72,6.559817,-7.262837400000001,0.7269449,1003.4981,0,0
7.76,6.9039345,-6.7051497000000015,-0.22467299,1003.51843,0,0
7.8,6.7318362999999986,-6.7528143,-0.17259686,1003.5135,0,0
7.84,7.238469,-6.156994,-0.13945846,1003.51355,0,0
7.88,7.2288830000000015,-6.2618575,0.3576516,1003.48865,0,0
7.92,7.539544999999999,-6.7957115,0.58490074,1003.476,0,0
7.96,7.797628,-6.676547,-0.5229524,1003.4664,0,0
8.0,7.539485000000001,-6.862441499999999,-0.7075971999999999,1003.4767,0,0
8.04,7.386506599999999,-7.0721703,1.9626046,1003.4792,0,0
8.08,6.621718,-7.115068400000001,2.2040577,1003.46436,0,0
8.12,6.1150255,-7.0960009999999984,0.5801536999999999,1003.50476,0,0
8.16,6.3300967,-6.7528086,1.0441235,1003.4495,0,0
8.2,7.3386054,-6.3810167,-0.17735565,1003.47754,0,0
8.24,7.668385000000002,-6.9053372999999985,-0.36199987,1003.48773,0,0
8.28,7.3613032999999986,-7.539260400000001,0.1160675,1003.4953,0,0
8.32,7.050547,-7.539258500000001,-0.42839533,1003.4681,0,0
8.36,6.9166300000000005,-6.8910050000000025,-1.6262074,1003.4428,0,0
8.4,7.0790553,-6.2475176,-1.2285254,1003.48035,0,0
8.44,7.078986,-6.423878,-0.390542,1003.4756,0,0
8.48,7.0932527,-6.5811734,0.06868852,1003.46826,0,0
8.52,6.9784630000000005,-6.7623005,0.20597951,1003.4734,0,0
8.56,7.1504865,-6.5716367,0.16809966,1003.4736,0,0
8.6,7.2937837,-6.6145334,0.21070047,1003.4661,0,0
8.64,7.3176320000000015,-6.4048038,0.16335179,1003.4712,0,0
8.68,6.9447199999999984,-6.5096655,0.30537593,1003.4511,0,0
8.72,7.0975956999999985,-6.5382633000000006,0.28643113,1003.44135,0,0
8.76,7.360411,-6.9243526,0.3290341,1003.45935,0,0
8.8,7.6423507,-7.000616,0.26274607,1003.4845,0,0
8.84,7.752213,-6.5048923,-0.03079373,1003.48975,0,0
8.88,7.9863534,-6.0139346,-0.7741017,1003.5002,0,0
8.92,8.167909,-6.3189926,-1.0818450000000002,1003.4747,0,0
8.96,8.086583000000001,-6.3428245,-1.0723827,1003.4672,0,0
9.0,7.919220399999999,-6.1378603,-0.6462924,1003.47797,0,0
9.04,7.512859,-6.0139275,-0.17285912,1003.47015,0,0
9.08,7.2690199999999985,-6.2188883000000015,-0.068708524,1003.503,0,0
9.12,7.144671400000001,-6.8004065,0.17273937,1003.48315,0,0
9.16,7.1732817,-7.029199,0.42839095,1003.49854,0,0
9.2,7.120635000000001,-7.1531286,0.37630615,1003.47614,0,0
9.24,7.130116,-7.219858,0.18218839,1003.49615,0,0
9.28,6.959327,-7.219889599999999,-0.13489920000000002,1003.4963,0,0
9.32,6.6056027,-7.0625925,-0.3952932,1003.5015,0,0
9.36,6.6916202999999985,-7.0864252999999975,-0.60834306,1003.46405,0,0
9.4,6.7202800000000025,-6.6860337,-0.5846728,1003.4664,0,0
9.44,6.8684350000000025,-6.5049043,-0.6651594,1003.4664,0,0
9.48,6.925773,-6.609767999999999,-0.46158177,1003.4817,0,0
9.52,6.9257554999999975,-6.7670636,-0.14911273,1003.5172,0,0
9.56,7.0834713,-6.924359299999999,0.026058618,1003.4946,0,0
9.6,7.3415604,-6.895760000000001,0.19176093,1003.50757,0,0
9.64,7.6044307,-6.7336965,0.22016563,1003.50995,0,0
9.68,7.656991,-6.4381695,0.20122634,1003.4954,0,0
9.72,7.6043949999999985,-6.4334025000000015,-0.03549551,1003.4774,0,0
9.76,7.580475999999999,-6.3571370000000025,-0.13018546,1003.51044,0,0
9.8,7.456185,-6.452468,0.040251598,1003.47046,0,0
9.84,7.260194,-6.647896,0.1870164,1003.49304,0,0
9.88,7.08332,-6.762293,0.2201554,1003.52325,0,0
9.92,6.939908999999999,-6.800425,-0.002363268,1003.48566,0,0
9.96,6.772597,-7.0721187999999975,0.002369404,1003.49365,0,0
10.0,6.853834,-7.215114,-0.1491333,1003.49316,0,0
10.04,6.9589734,-7.1293163,-0.35271420000000003,1003.49603,0,0
10.08,6.762981,-7.291378,-0.29590320000000003,1003.4911,0,0
10.12,6.093789,-7.586905000000002,-0.34324896,1003.4909,0,0
10.16,6.151128,-7.3914757,-0.56576777,1003.5143,0,0
10.2,6.6290894,-7.16268,-0.7409424,1003.51166,0,0
10.24,6.968437700000001,-6.905286,-0.5420991,1003.4892,0,0
10.28,6.9674460000000025,-6.895728,-0.5895338999999999,1003.4942,0,0
10.32,7.019962,-6.881427,-0.49485147,1003.4766,0,0
10.36,7.34015,-6.495334,-0.43330958,1003.48663,0,0
10.4,7.387890299999999,-6.781326299999999,-0.44751817,1003.5017,0,0
10.44,7.593370399999999,-6.7860923,0.025917638,1003.49695,0,0
10.48,7.411675999999999,-6.6287947,0.28156984,1003.4817,0,0
10.52,7.0961504,-6.628792999999999,0.082719475,1003.48944,0,0
10.56,7.277728,-6.338031299999999,-0.0924585,1003.5403,0,0
10.6,7.621819500000001,-6.371396,0.09691268,1003.48486,0,0
10.64,7.636100999999999,-6.4238267,0.021156872,1003.4822,0,0
10.68,7.506987599999999,-6.7002854,-0.035661314,1003.50757,0,0
10.72,7.387434,-6.7908487000000015,0.030615,1003.5152,0,0
10.76,7.2631006,-6.8003800000000005,-0.016734395,1003.5208,0,0
10.8,7.133987400000001,-6.7956119999999975,-0.28186637,1003.5028,0,0
10.84,7.095695,-6.6764470000000005,-0.5185916,1003.49536,0,0
10.88,7.382428,-6.595414,-0.7884576999999999,1003.50323,0,0
10.92,7.1816144,-7.0577683,-1.0961998,1003.51575,0,0
10.96,6.885211999999999,-7.1054330000000006,-0.36710635,1003.50824,0,0
11.0,6.780001,-6.962435,-0.116187915,1003.51324,0,0
11.04,6.6700077,-6.6526070000000015,-0.4476016,1003.53107,0,0
11.08,6.736867,-6.45241,-0.3907941,1003.516,0,0
11.12,6.8849782999999976,-6.3570776,-0.50442547,1003.5035,0,0
11.16,6.994859,-6.5191393,-0.4334144,1003.50604,0,0
11.2,7.1620979999999985,-6.5620365000000005,-0.18249595,1003.4988,0,0
11.24,7.5970016,-6.4238050000000015,-0.20617335,1003.4887,0,0
11.28,7.826877,-6.233154,-0.51386887,1003.5088,0,0
11.32,7.683444500000001,-6.214087,-0.4475907,1003.5013,0,0
11.36,7.487438,-6.3189507,-0.2156081,1003.5014,0,0
11.4,7.473057700000001,-6.361848,-0.07831411,1003.489,0,0
11.44,7.6068570000000015,-6.266516,-0.25822476,1003.5091,0,0
11.48,7.697635000000001,-6.3761462999999985,-0.3197755,1003.5014,0,0
11.52,7.812311999999999,-6.4857764000000016,-0.2440285,1003.48395,0,0
11.56,7.9413285,-6.3666105,-0.35292324,1003.4914,0,0
11.6,7.640165299999999,-6.3237114000000005,0.0068882330000000005,1003.519,0,0
11.64,7.085673,-6.5477386,-0.47602433,1003.47894,0,0
11.68,6.908778999999999,-6.5906367,-0.13988529,1003.4842,0,0
11.72,7.0999336,-6.652601,-0.39554664,1003.5092,0,0
11.76,7.3627872,-6.390439,-0.29612738,1003.4942,0,0
11.8,7.4822440000000014,-6.438104,-0.27245888,1003.48663,0,0
11.84,7.3961697,-6.3999705,-0.19197746,1003.5071,0,0
11.88,7.348338,-6.442868,-0.02154193,1003.4641,0,0
11.92,7.2813807,-6.509599,-0.012076821,1003.5071,0,0
11.96,7.367381,-6.523899,0.068404794,1003.5071,0,0
12.0,7.3338847,-6.585862,0.12994859,1003.4723,0,0
12.04,7.2669296,-6.6239944,0.04946019,1003.49457,0,0
12.08,7.2907906,-6.5381956,-0.22513874,1003.5045,0,0
12.12,7.410247999999997,-6.55726,-0.17779817,1003.4971,0,0
12.16,7.362414,-6.5715594,-0.11625418,1003.4848,0,0
12.2,7.305018400000002,-6.509593,-0.14939849,1003.4949,0,0
12.24,7.1329074000000015,-6.6764216,-0.26776209999999995,1003.49207,0,0
12.28,7.157491,-6.643072599999999,-0.06885436,1003.4974,0,0
12.32,7.3438954,-6.6240063,0.030567348,1003.48944,0,0
12.36,7.3869047,-6.600173,-0.02151192,1003.52747,0,0
12.4,7.286519500000002,-6.4667096,-0.08306001,1003.4798,0,0
12.44,7.205255,-6.4810085,-0.030982327,1003.48694,0,0
12.48,7.3008419999999985,-6.571573299999999,-0.06412396,1003.4798,0,0
12.52,7.2721550000000015,-6.5668063,0.13945468,1003.4698,0,0
12.56,7.377300999999999,-6.4190426,-0.09253201,1003.4873,0,0
12.6,7.415531,-6.3999767,-0.06412634,1003.4898,0,0
12.64,7.343825999999999,-6.500074,-0.0593927,1003.4647,0,0
12.68,7.3581557,-6.490541,0.07316977,1003.51746,0,0
12.72,7.448963000000001,-6.4190416,-0.10673845,1003.4848,0,0
12.76,7.410716499999999,-6.4190416,-0.07359837,1003.4873,0,0
12.8,7.3198919999999985,-6.61447,-0.016786285,1003.5024,0,0
12.84,7.3485613,-6.5954039999999985,-0.049927946,1003.4823,0,0
12.88,7.3103137,-6.514373,-0.016787965,1003.4949,0,0
12.92,7.3581038,-6.4953059999999985,-0.035726335,1003.48486,0,0
12.96,7.2863975,-6.5906367,-0.10674322,1003.5229,0,0
13.0,7.3341875,-6.528671299999999,-0.08780634400000001,1003.4974,0,0
13.04,7.2481422,-6.6144690000000015,-0.08307275,1003.4898,0,0
13.08,7.2529125,-6.7383995,0.011614485,1003.4976,0,0
13.12,7.2385654000000015,-6.6192354999999985,-0.15882482,1003.4622,0,0
13.16,7.2767944,-6.6192350000000015,-0.2109041,1003.4823,0,0
13.2,7.324584,-6.614468,-0.08781035,1003.4902,0,0
13.24,7.386713,-6.5858684000000025,-0.08781111,1003.4876,0,0
13.28,7.3532449999999985,-6.5811020000000005,-0.1682969,1003.4873,0,0
13.32,7.401033999999999,-6.409506,-0.14936006,1003.4901,0,0
13.36,7.3293285,-6.5286694,-0.040469524,1003.49,0,0
13.4,7.3245406000000015,-6.542969,-0.031001475,1003.4722,0,0
13.44,7.3771095,-6.495303,0.044748165,1003.4926,0,0
13.48,7.271945,-6.523903,-0.021534272,1003.4698,0,0
13.52,7.2719355,-6.509602,-0.12095764,1003.4876,0,0
13.56,7.2814865000000015,-6.5572677,-0.031004708,1003.48254,0,0
13.6,7.319717,-6.6096992,-0.14463119,1003.4673,0,0
13.64,7.3244877000000015,-6.6335324999999985,-0.1304288,1003.4999,0,0
13.68,7.267122,-6.614464999999999,-0.26299295,1003.5077,0,0
13.72,7.2479935,-6.590633,-0.25352487,1003.4975,0,0
13.76,7.314901400000001,-6.5286674000000025,-0.24879138,1003.51764,0,0
13.8,7.3196735,-6.523901,-0.27246416,1003.5104,0,0
13.84,7.267086999999999,-6.5810995,-0.10676074,1003.4901,0,0
13.88,7.2431784,-6.4905343,-0.03101113,1003.4873,0,0
13.92,7.2718487,-6.581099000000001,-0.0972936,1003.4851,0,0
13.96,7.3291974,-6.552499299999999,-0.068887934,1003.4776,0,0
14.0,7.376671000000001,-6.490526,-0.059448894,1003.4898,0,0
14.04,7.352755,-6.5000589999999985,-0.19201374,1003.4572,0,0
14.08,7.352739,-6.5048246,-0.22515602,1003.4773,0,0
14.12,7.347944,-6.55249,-0.22989185,1003.50507,0,0
14.16,7.3670464,-6.595388400000001,-0.13993965,1003.4876,0,0
14.2,7.362250299999999,-6.600154400000001,-0.11153473,1003.4873,0,0
14.24,7.300096000000001,-6.581088,-0.19675554,1003.50775,0,0
14.28,7.209264,-6.7097845000000005,-0.22989784,1003.4951,0,0
14.32,7.271386,-6.609686999999999,-0.24410246,1003.4924,0,0
14.36,7.23313,-6.538188,-0.29618248,1003.5177,0,0
14.4,7.1422997000000015,-6.56202,-0.24410538,1003.4698,0,0
14.44,7.2330985,-6.528654,0.016285281999999998,1003.4798,0,0
14.48,7.304778999999999,-6.4523883,0.002080582,1003.4773,0,0
14.52,7.314323399999997,-6.614451,-0.083140075,1003.4798,0,0
14.56,7.433802,-6.562018400000001,-0.16362649,1003.47003,0,0
14.6,7.534161599999999,-6.6049175,-0.28198805,1003.4798,0,0
14.64,7.500688,-6.576318,-0.49503767,1003.4848,0,0
14.68,7.405075599999999,-6.5667839999999975,-0.49030477,1003.4876,0,0
14.72,7.3572625999999985,-6.6001496,-0.46663415,1003.5002,0,0
14.76,7.285547699999999,-6.442853,-0.2725252,1003.4723,0,0
14.8,7.247292999999999,-6.395187,-0.0926193,1003.49,0,0
14.84,7.2663965,-6.323688,0.12516192,1003.49506,0,0
14.88,7.438453999999999,-6.4190187000000005,0.18197338,1003.4773,0,0
14.92,7.467116000000001,-6.50005,0.054142855,1003.50745,0,0
14.96,7.4384217,-6.5334153,-0.116297126,1003.4875,0,0
15.0,7.333754499999999,-6.609692599999999,-0.27248779999999995,1003.4876,0,0
15.04,7.1091075,-6.657358,-0.57075495,1003.4773,0,0
15.08,7.0469737000000015,-6.5953927,-0.54708254,1003.4773,0,0
15.12,7.0087385,-6.5715600000000025,-0.47133178,1003.4951,0,0
15.16,7.1951547000000025,-6.5906262,-0.19200155,1003.5152,0,0
15.2,7.338553,-6.5381947,-0.106781885,1003.4873,0,0
15.24,7.453272,-6.5620270000000005,-0.12098476,1003.4823,0,0
15.28,7.262083,-6.6573585999999985,-0.026296336,1003.4898,0,0
15.32,7.1569314,-6.72409,-0.08784324,1003.4926,0,0
15.36,7.290769999999997,-6.5906270000000005,-0.24881269,1003.44745,0,0
15.4,7.238196,-6.495296,-0.39557886,1003.48486,0,0
15.44,7.2573184999999985,-6.442864,-0.39084417,1003.4698,0,0
15.48,7.3624782999999985,-6.4619303,-0.277218,1003.5024,0,0
15.52,7.4771975999999984,-6.3904314000000015,-0.16359200000000002,1003.4647,0,0
15.56,7.520219,-6.4142647,0.011581294,1003.4924,0,0
15.6,7.4533057,-6.480996,0.15834817,1003.48486,0,0
15.64,7.381612,-6.480996599999999,0.01631641,1003.51996,0,0
15.68,7.314698700000001,-6.4619307999999975,0.016316734,1003.5101,0,0
15.72,7.319483,-6.4905300000000015,-0.13044949,1003.5049,0,0
15.76,7.5489169999999985,-6.5858607000000005,-0.386107,1003.4973,0,0
15.8,7.55848,-6.790823,-0.3955755,1003.51245,0,0
15.84,7.453328,-6.600161,-0.45238802,1003.51764,0,0
15.88,7.434212,-6.361833,-0.4381844,1003.4773,0,0
15.92,7.195226,-6.1187387000000015,-0.2582767,1003.4597,0,0
15.96,7.113973,-6.1950035,-0.026290502,1003.4848,0,0
16.0,7.2718690000000015,-6.2903395,0.17730373,1003.4973,0,0
16.04,7.568227,-6.41427,0.26252395,1003.4695,0,0
16.08,7.639933,-6.6621313,0.11102389,1003.45184,0,0
16.12,7.482212,-6.790828,-0.31033704,1003.4698,0,0
16.16,7.1189575,-6.852794,-0.8121829,1003.4949,0,0
16.2,6.817839,-6.7526965,-1.0725744,1003.4798,0,0
16.24,6.7222532999999975,-6.8194284,-0.8074467,1003.48486,0,0
16.28,6.899114,-6.705031,-0.5139130000000001,1003.4619,0,0
16.32,7.30063,-6.504836,-0.1209562,1003.4697,0,0
16.36,7.439254300000001,-6.3809066,0.044748873,1003.4948,0,0
16.4,7.448821499999997,-6.404739,0.054218337,1003.4848,0,0
16.44,7.420153,-6.595402,0.21045467,1003.4923,0,0
16.48,7.472742999999999,-6.5858684000000025,0.10629889,1003.4695,0,0
16.52,7.5444502999999985,-6.3427744000000015,-0.18249889,1003.4545,0,0
16.56,7.5731363,-6.3809074999999975,-0.32453033,1003.51215,0,0
16.6,7.4727726,-6.39044,-0.4618269,1003.5049,0,0
16.64,7.515801400000001,-6.4381065,-0.4428884,1003.4948,0,0
16.68,7.506251299999999,-6.423807,-0.40974668,1003.5074,0,0
16.72,7.391546000000001,-6.4810057,-0.19669758,1003.51495,0,0
16.76,7.2720613,-6.361842,-0.177759,1003.4823,0,0
16.8,7.104778,-6.552505,-0.07833561,1003.4949,0,0
16.84,7.147806,-6.4714737,0.17258872,1003.51996,0,0
16.88,7.300769,-6.528672,0.082635894,1003.48944,0,0
16.92,7.305560000000002,-6.681203,-0.040457625,1003.4971,0,0
16.96,7.3199086,-6.652603,-0.13514487,1003.4967,0,0
17.0,7.2907286,-6.6764235,-0.47606784,1003.51465,0,0
17.04,7.3624152999999986,-6.623991499999999,-0.5281471999999999,1003.497,0,0
17.08,7.458002,-6.547726,-0.40031916,1003.48694,0,0
17.12,7.539249000000001,-6.333231,-0.39558572,1003.497,0,0
17.16,7.2954683,-6.4523945,-0.15886642,1003.4816,0,0
17.2,7.166403999999999,-6.5048265,-0.05471042,1003.4996,0,0
17.24,7.242871000000001,-6.6001573,0.0683832,1003.47955,0,0
17.28,7.2667603,-6.800353,-0.09732187,1003.4716,0,0
17.32,7.4005837,-6.60969,-0.012103591,1003.4892,0,0
17.36,7.2428412,-6.700254400000001,-0.30090305,1003.5195,0,0
17.4,7.2954082,-6.6096897,-0.111527875,1003.4765,0,0
17.44,7.5535083,-6.685954,-0.20621686,1003.5193,0,0
17.48,7.768588999999999,-6.828950999999999,0.09678413,1003.48663,0,0
17.52,7.830717,-6.647821,-0.02157683,1003.4791,0,0
17.56,7.6681933,-6.3570614,-0.16360994,1003.4892,0,0
17.6,7.4578743,-6.4333262000000015,-0.26303312,1003.46893,0,0
17.64,7.276228999999999,-6.7908173,0.002092391,1003.47894,0,0
17.68,7.1376057,-6.757451,0.092045225,1003.4765,0,0
17.72,7.0706778,-6.5953880000000025,-0.31038016,1003.46155,0,0
17.76,6.917714599999999,-6.5953875,-0.48555404,1003.46906,0,0
17.8,6.865127,-6.643053,-0.5376333000000001,1003.47894,0,0
17.84,6.932033500000001,-6.46669,-0.7270105,1003.47644,0,0
17.88,7.204472,-6.1854634000000015,-0.7222771,1003.4839,0,0
17.92,7.3860955000000015,-6.199763,-0.7648876,1003.4914,0,0
17.96,7.3908644,-6.5286550000000005,-0.47135532,1003.4989,0,0
18.0,7.5445113,-6.3904414,-0.4665575,1003.4762,0,0
18.04,7.4393725,-6.4381080000000015,-0.22036697,1003.5035,0,0
18.08,7.262536999999999,-6.466707,-0.43341357,1003.4837,0,0
18.12,7.033125,-6.4667080000000015,-0.3008486,1003.4889,0,0
18.16,7.3725085,-6.2379136,-0.46181673,1003.509,0,0
18.2,7.812266,-6.2617464000000025,-0.5091594,1003.5191,0,0
18.24,7.8553042,-6.5477405,0.04476778,1003.5014,0,0
18.28,7.334322500000002,-6.914765400000001,-0.007309135,1003.5088,0,0
18.32,6.765542999999999,-7.114961599999999,-0.25823095,1003.5165,0,0
18.36,6.8754954,-6.7431706999999985,-1.048875,1003.5035,0,0
18.4,7.535125,-6.2522160000000016,-1.006264,1003.5339,0,0
18.44,7.974885499999999,-5.9423900000000005,-0.91157407,1003.5088,0,0
18.48,7.7167916,-6.3618474,-0.58963305,1003.4887,0,0
18.52,6.9902805999999975,-6.867103,-0.3197703,1003.511,0,0
18.56,7.1050124000000014,-6.352315,-0.906835,1003.516,0,0
18.6,7.922378,-6.090154599999999,-1.3139921,1003.4988,0,0
18.64,7.664286,-6.423814299999999,-0.53281367,1003.5135,0,0
18.68,7.100286,-6.175954,-0.26295105,1003.506,0,0
18.72,6.727479,-6.276052,-0.19193336,1003.4957,0,0
18.76,6.7370553,-6.3141847,-0.44285527,1003.506,0,0
18.8,7.363225999999999,-6.4524155,-0.22980551,1003.501,0,0
18.84,7.7599673,-6.5000815,-0.17772546,1003.5183,0,0
18.88,7.6548295,-6.609712599999999,-0.15878624,1003.51825,0,0
18.92,7.2342257,-6.5239150000000015,-0.31028545,1003.50824,0,0
18.96,7.057389,-6.590647,-0.9399599,1003.4702,0,0
19.0,6.9893093,-6.8003472999999985,-0.8832533000000001,1003.5233,0,0
19.04,7.1326740000000015,-6.952876,-0.66547334,1003.51074,0,0
19.08,7.2999399999999985,-6.876610799999999,-0.8643209000000001,1003.503,0,0
19.12,7.338151,-6.676414500000001,-1.0252932,1003.50543,0,0
19.16,7.218625,-6.619215,-0.94954556,1003.5253,0,0
19.2,7.1707993000000005,-6.5810823,-1.0395017,1003.4802,0,0
19.24,7.256807000000001,-6.4905167,-0.7365025,1003.5204,0,0
19.28,7.3093557,-6.5477147,-0.4050968,1003.5253,0,0
19.32,7.404922,-6.5000486,-0.28200495,1003.51013,0,0
19.36,7.576967999999999,-6.3379846,-0.19678824,1003.5026,0,0
19.4,7.6056175,-6.2331195,-0.29621336,1003.5077,0,0
19.44,7.519553699999999,-6.337983,-0.31515348,1003.50793,0,0
19.48,7.414366999999999,-6.3856483,-0.32935956,1003.5077,0,0
19.52,7.4860353,-6.309383,-0.5234728,1003.4925,0,0
19.56,7.3951917,-6.5095773,-0.4571937,1003.495,0,0
19.6,7.290007000000001,-6.5667753,-0.4666651,1003.50507,0,0
19.64,7.189605,-6.6478057,-0.5234803,1003.50757,0,0
19.68,7.0748606,-6.7479033,-0.5282174,1003.5049,0,0
19.72,7.103510000000001,-6.7479024,-0.62764263,1003.5149,0,0
19.76,7.1082589999999986,-6.752668400000001,-0.6607863,1003.49475,0,0
19.8,7.1608095,-6.738367599999999,-0.7318048,1003.5024,0,0
19.84,7.141663,-6.7050009999999975,-0.6939320999999999,1003.50476,0,0
19.88,7.136854,-6.7336,-0.50929296,1003.502,0,0
19.92,7.160723700000001,-6.695467,-0.4477484000000001,1003.51996,0,0
19.96,7.203714999999999,-6.6811666,-0.39093804,1003.51746,0,0
20.0,7.247786,-6.6764255000000015,-0.32456,1003.49945,0,0
20.04,7.223901,-6.6859593,-0.39084035,1003.50226,0,0
20.08,7.1283179999999975,-6.7479253,-0.3955736,1003.5271,0,0
20.12,7.17135,-6.7431583,-0.43818194,1003.49677,0,0
20.16,7.1570240000000025,-6.6716604,-0.43818074,1003.4993,0,0
20.2,7.071001,-6.776525500000001,-0.60388356,1003.50934,0,0
20.24,7.080575,-6.8003589999999985,-0.53286624,1003.49426,0,0
20.28,7.080589,-6.733627,-0.59441227,1003.4917,0,0
20.32,7.1427383,-6.7050276,-0.47131658,1003.5092,0,0
20.36,7.166652,-6.6382957,-0.5091905,1003.48694,0,0
20.4,7.099748599999999,-6.6954949999999975,-0.44290763,1003.4992,0,0
20.44,7.2001395000000015,-6.6335305999999985,-0.35295257,1003.5042,0,0
20.48,7.3339868,-6.5525,-0.4476395,1003.5092,0,0
20.52,7.3770190000000015,-6.5667996,-0.33874688,1003.5346,0,0
20.56,7.295776400000001,-6.5715660000000025,-0.39555848,1003.5193,0,0
20.6,7.262331,-6.590633,-0.44763565,1003.4992,0,0
20.64,7.228886,-6.7288632,-0.43816563,1003.51917,0,0
20.68,7.1954411999999985,-6.6335324999999985,-0.39555475,1003.4941,0,0
20.72,7.1380973,-6.562034,-0.45236632,1003.51166,0,0
20.76,7.085532700000001,-6.576335,-0.5091779000000001,1003.48914,0,0
20.8,7.066427,-6.771764,-0.49023908,1003.4992,0,0
20.84,7.1285789999999984,-6.7479315,-0.29139277,1003.5088,1,1
20.88,7.248088,-6.6383004,-0.47603327,1003.509,1,1
20.92,7.300679700000001,-6.476238,-0.48550075,1003.4862,1,1
20.96,7.166859,-6.671667,-0.6606725,1003.4884,1,1
21.0,7.0714655,-6.7527037,-0.5896378999999999,1003.5143,1,1
21.04,7.071488400000002,-6.805136,-0.6227767,1003.5013,1,1
21.08,7.04283,-6.8003706999999975,-0.7648069000000001,1003.50635,1,1
21.12,6.8659987000000005,-6.7527050000000015,-0.93050915,1003.5188,1,1
21.16,6.7991033,-6.8861690000000015,-0.8831631,1003.4962,1,1
21.2,7.0620119999999975,-6.9004693,-0.7884732,1003.49603,1,1
21.24,6.9998975,-6.767007,-0.5848916000000001,1003.496,1,1
21.28,6.9616804000000005,-6.5143795,-0.8594852,1003.5009,1,1
21.32,6.9043449999999975,-6.4095163,-1.0393906,1003.5138,1,1
21.36,7.2437296,-6.5191474000000005,-1.0535921,1003.496,1,1
21.4,7.664374400000002,-7.114967299999999,-1.0299181999999998,1003.5188,1,1
21.44,8.032442,-6.9290724,-0.49019384,1003.49835,1,1
21.48,8.754213,-5.808932,-0.29608136,1003.5136,1,1
21.52,9.514223,-5.360875599999999,-1.0109746,1003.51825,1,1
21.56,10.704415,-5.889964,-0.9683631,1003.51843,1,1
21.6,12.219634,-5.422842,-0.7363751999999999,1003.4806,1,1
21.64,13.620139000000002,-4.193071,0.34307104,1003.51825,1,1
21.68,14.480521,-3.268359,2.3883355,1003.5207,1,1
21.72,11.789516,-5.6945375999999985,2.563511,1003.5157,1,1
21.76,9.50479,-7.982486,1.2189417,1003.4906,1,1
21.8,8.003952,-9.074026,-0.34341002,1003.51825,1,1
21.84,6.264125,-10.156036,-0.5801283,1003.49054,1,1
21.88,5.050076,-10.604093,-0.24398361,1003.4978,1,1
21.92,2.6793150000000003,-12.75381,-1.0961746,1003.49536,1,1
21.96,-0.9246368,-15.017926,-3.0846226000000003,1003.49304,1,1
22.0,-2.4875803,-15.075126,-1.6642964,1003.48785,1,1
22.04,5.451698,-11.833868,-2.3460484,1003.47784,1,1
22.08,9.8921585,-8.764205,-6.9857625999999975,1003.48553,1,1
22.12,9.982997,-12.291458,-5.5038924000000025,1003.4928,1,1
22.16,11.569916,-14.627071,0.8212745000000001,1003.50037,1,1
22.2,11.985778,-12.224728,4.310532599999998,1003.49286,1,1
22.24,11.703793,-9.121699,4.106955,1003.5003,1,1
22.28,10.819554,-8.177921000000001,1.3799404,1003.50793,1,1
22.32,10.8673725,-6.99105,0.5466871,1003.4749,1,1
22.36,10.355955,-4.989096,1.4272884,1003.50793,1,1
22.4,9.567311,-3.4542656000000003,2.075904,1003.4725,1,1
22.44,8.697410000000001,-3.4066002,0.98699313,1003.4928,1,1
22.48,8.568377499999999,-3.964288,0.006973287,1003.51776,1,1
22.52,9.591278,-4.5315094,1.6450793999999995,1003.48486,1,1
22.56,11.837808,-4.269349,2.0569746,1003.4978,1,1
22.6,13.592017000000002,-4.5648766,0.15848035,1003.4825,1,1
22.64,14.16084,-6.123541,-0.30075464,1003.4774,1,1
22.68,13.094964,-8.67365,0.20582858,1003.4895,1,1
22.72,11.923935,-11.543117,-0.20132814,1003.4975,1,1
22.76,11.857039,-13.9073305,0.10167575,1003.5126,1,1
22.8,11.728007,-14.770077,1.5930153,1003.53,1,1
22.84,9.9021435,-13.587972,2.2605684,1003.5096,1,1
22.88,7.2589345,-11.953044,0.9065307,1003.5172,1,1
22.92,6.8861322,-9.731829,-0.43330377,1003.50464,1,1
22.96,7.1968427,-8.135033,-0.63214666,1003.49426,1,1
23.0,6.747561,-6.9672265,0.47097147,1003.472,1,1
23.04,6.0103617,-7.610684,1.1904994,1003.4996,1,1
23.08,5.5706015,-8.158838000000001,0.97744954,1003.4971,1,1
23.12,4.62418,-8.3638,0.65550804,1003.48676,1,1
23.16,3.1471984,-7.968174,-0.27243724,1003.4749,1,1
23.2,2.6261804,-8.354265,-1.5223218,1003.467,1,1
23.24,2.301133,-8.749888,-1.7022313000000002,1003.4692,1,1
23.28,4.987362999999998,-8.950085000000003,-1.3234806,1003.477,1,1
23.32,8.428801,-10.503981,-2.0005023,1003.477,1,1
23.36,10.775664,-13.077922,-2.0667856,1003.4717,1,1
23.4,12.964794,-13.735705,-1.4986593,1003.4719,1,1
23.44,13.944634,-11.647953,-0.7553595000000001,1003.45905,1,1
23.48,14.360456,-9.00728,-0.9636751,1003.4993,1,1
23.52,14.317419,-7.591612,-1.4181798,1003.5118,1,1
23.56,13.117666,-6.533436,-0.64647377,1003.4766,1,1
23.6,11.468613,-4.860374,0.6081416000000001,1003.48413,1,1
23.64,10.015533,-4.2740870000000015,0.082620814,1003.5043,1,1
23.68,9.427597,-3.878462,-1.3850466,1003.48145,1,1
23.72,10.206685,-3.411339,-1.5365493,1003.46356,1,1
23.76,11.6788435,-3.3684394,-0.2629963,1003.4666,1,1
23.8,12.701701,-5.1177660000000005,0.40928733,1003.47107,1,1
23.84,13.150984,-7.1483183000000015,-0.13517106,1003.4939,1,1
23.88,12.639524,-8.82138,0.14415695,1003.50635,1,1
23.92,11.812596,-10.413408,0.5039697,1003.52893,1,1
23.96,12.457851,-13.192310999999998,0.48976484,1003.51874,1,1
24.0,13.083984,-16.19524,0.5891854999999999,1003.53644,1,1
24.04,11.1065,-15.170465,1.9007393,1003.50616,1,1
24.08,8.319906,-11.7909775,2.47834,1003.5108,1,1
24.12,6.4366970000000014,-8.95011,1.6356188,1003.49335,1,1
24.16,5.5190067,-8.101664,0.7266161,1003.50366,1,1
24.2,4.362335,-8.115964,0.2437105,1003.48816,1,1
24.24,3.6884105,-7.7537065,0.03539927,1003.4861,1,1
24.28,2.8041810000000003,-7.3342505,-0.48064768,1003.46533,1,1
24.32,2.4170492,-7.329484,-1.19554,1003.4808,1,1
24.36,3.1244924,-8.115967999999999,-1.943573,1003.4452,1,1
24.4,4.735322,-9.293307,-2.1282115000000004,1003.45026,1,1
24.44,7.961722,-12.272407,-2.4454136,1003.4482,1,1
24.48,9.59167,-13.48788,-1.3422941000000002,1003.4325,1,1
24.52,11.321993,-10.74711,-0.33386278,1003.4783,1,1
24.56,13.181369,-9.588837,-2.3175755,1003.4904,1,1
24.6,13.109708,-10.961606,-4.448054,1003.47046,1,1
24.64,12.067743,-12.181847,-2.3270376,1003.4653,1,1
24.68,11.059238,-11.605093,1.3279256000000002,1003.48505,1,1
24.72,10.877641,-8.054008999999999,2.6819685,1003.4879,1,1
24.76,10.820315,-4.3503957,1.2663845,1003.4982,1,1
24.8,10.686514,-3.0681922000000004,0.13486485,1003.4852,1,1
24.84,9.539405,-2.825099,-0.51374465,1003.45966,1,1
24.88,8.722093,-3.049128,-0.22020842,1003.45465,1,1
24.92,8.368421000000001,-4.8556542,0.049655743,1003.46497,1,1
24.96,8.741272,-6.0139275,0.17748703,1003.4854,1,1
25.0,9.79764,-6.156925,1.2995438999999998,1003.47974,1,1
25.04,10.820082,-6.609737400000001,1.4604737,1003.4443,1,1
25.08,11.976808,-9.941562,1.0107064,1003.45465,1,1
25.12,12.574299,-11.6813545,1.5551643,1003.4744,1,1
25.16,11.833443,-10.170357,1.8676363,1003.45685,1,1
25.2,12.52653,-13.201887,0.7408496,1003.4671,1,1
25.24,12.301894,-14.84635,0.39997375,1003.4645,1,1
25.28,9.510504,-13.935938,1.4841537,1003.46185,1,1
25.32,5.691451,-12.510737,1.4178731000000002,1003.47943,1,1
25.36,3.841685500000001,-8.449632000000001,-1.1623757,1003.47943,1,1
25.4,4.8741384000000005,-5.9853215,-1.5269235,1003.4642,1,1
25.44,5.1466017,-5.5181994,-0.9682626,1003.44904,1,1
25.48,4.3340507000000015,-5.8280263,0.33370036,1003.4616,1,1
25.52,3.9086635,-6.1712190000000025,0.6793133000000001,1003.4569,1,1
25.56,4.0472894,-7.2389274000000015,0.25321788,1003.44183,1,1
25.6,4.9602494,-9.584075,-0.7741463000000001,1003.4365,1,1
25.64,6.255591000000001,-10.818612,-0.77887934,1003.4569,1,1
25.68,7.364521499999999,-10.194195,-1.1386926000000002,1003.4769,1,1
25.72,8.301377,-10.275226,-0.6794541000000001,1003.4616,1,1
25.76,10.022122,-10.923478,-1.7352251,1003.4515,1,1
25.8,11.312683,-10.53262,-2.9898407,1003.4589,1,1
25.84,12.335574,-9.39818,-3.4869523,1003.44885,1,1
25.88,12.521999,-9.407714,-1.4795635,1003.44135,1,1
25.92,9.974384,-11.01881,2.1990707,1003.47144,1,1
25.96,8.72687,-7.605956,2.184869,1003.47437,1,1
26.0,8.951536,-5.1464133,1.6640857,1003.46906,1,1
26.04,8.626205,-4.7793813,0.5751449000000001,1003.47394,1,1
26.08,8.975133999999997,-4.2264610000000005,1.0959296,1003.4614,1,1
26.12,9.577391,-3.335114,1.8392314,1003.46906,1,1
26.16,10.418639,-3.5686755,2.1517024,1003.46906,1,1
26.2,11.350702,-3.7927039,1.2142904,1003.4765,1,1
26.24,13.324764000000002,-5.0796747,-0.22496833,1003.4661,1,1
26.28,13.7310505,-7.5201516,-0.23443694,1003.4636,1,1
26.32,13.970042,-10.427752,-0.007185351,1003.4433,1,1
26.36,12.603022,-10.327654,1.2379633999999995,1003.4836,1,1
26.4,11.169084,-9.126482,1.0959313999999998,1003.4609,1,1
26.44,11.957753,-12.124646,-0.53743786,1003.46106,1,1
26.48,12.029453,-15.175242,-0.23443575,1003.47845,1,1
26.52,8.922584,-15.203841,0.5372724,1003.46326,1,1
26.56,5.8300519999999985,-11.819587,0.68877363,1003.4809,1,1
26.6,5.1800013,-8.773756,-0.38593605,1003.50336,1,1
26.64,5.705782,-6.1378508,-0.21076289,1003.45306,1,1
26.68,5.127428,-5.7898917,0.91602576,1003.48615,1,1
26.72,4.740267,-6.218882,2.1943152,1003.4432,1,1
26.76,4.587315599999998,-6.986298599999999,1.7114061,1003.4306,1,1
26.8,4.821528400000001,-8.549729,0.5846180999999999,1003.4457,1,1
26.84,4.5299625,-9.7795,0.030692926,1003.4406,1,1
26.88,4.448709,-10.003529,0.57514966,1003.4406,1,1
26.92,5.7153587,-10.370553,0.98230875,1003.43304,1,1
26.96,6.9294314,-10.813845,0.12538171,1003.48596,1,1
27.0,10.222719,-9.503041,-2.928309,1003.4684,1,1
27.04,11.910248,-9.669876,-4.561655,1003.48584,1,1
27.08,12.59855,-11.581266,-3.449069,1003.43036,1,1
27.12,12.517308,-13.035067,-1.2617728,1003.47314,1,1
27.16,11.833809,-9.093123,-1.0771298,1003.4681,1,1
27.2,10.419,-6.0854269999999975,-1.5931787,1003.45557,1,1
27.24,10.1226635,-5.4610080000000005,-0.8025321,1003.4805,1,1
27.28,9.692493,-4.9938855,0.22483484,1003.4755,1,1
27.32,9.501314,-4.398066,1.593079,1003.45776,1,1
27.36,9.984086,-4.2598367,2.128068,1003.48035,1,1
27.4,10.404722,-5.2226815,2.1706786,1003.46265,1,1
27.44,11.704843,-5.1797830000000005,0.89239055,1003.4506,1,1
27.48,11.704854,-5.2465150000000005,-0.007145241,1003.48804,1,1
27.52,11.298583,-7.2961345,-0.27227083,1003.4828,1,1
27.56,10.586404,-9.150325,-0.059221443,1003.47253,1,1
27.6,10.50516,-11.323876,-0.07815784,1003.47015,1,1
27.64,11.422896,-13.120868,1.6593697,1003.4903,1,1
27.68,12.35497,-13.788185999999998,3.9176822,1003.49,1,1
27.72,9.883822,-13.564158,4.3248415,1003.4903,1,1
27.76,5.519874,-12.1341915,2.5257692000000005,1003.4852,1,1
27.8,4.138523,-10.723291,0.7503685999999999,1003.48004,1,1
27.84,3.4980428,-8.745171000000001,-0.30540243,1003.5003,1,1
27.88,2.9196985,-7.5249320000000015,-0.46163666,1003.46967,1,1
27.92,3.4932876000000004,-6.657419,-0.011867106,1003.4574,1,1
27.96,4.975038,-6.3618927,0.28640148,1003.4574,1,1
28.0,6.6766619999999985,-6.6717195999999985,-0.49477404,1003.46,1,1
28.04,7.8095193,-7.677464,-0.5752549,1003.427,1,1
28.08,8.808512,-8.344783,-0.8640523000000001,1003.4723,0,0
28.12,7.9194827,-7.882427000000002,-0.41428265,1003.48004,0,0
28.16,7.126049000000001,-7.200809,-0.9824099,1003.4494,0,0
28.2,7.570583999999997,-6.905283,-1.6120846000000002,1003.4772,0,0
28.24,8.0199,-7.496336500000001,-2.080789,1003.4822,0,0
28.28,8.416636,-8.0826235,-1.5315971000000002,1003.4772,0,0
28.32,8.746456,-7.920561,-0.24857228,1003.4594,0,0
28.36,9.310488,-6.9863157000000005,1.1859536,1003.50226,0,0
28.4,10.108728,-5.813743,1.3563935,1003.5096,0,0
28.44,10.070504,-5.2512903,0.2106688,1003.487,0,0
28.48,9.597317,-5.522983999999999,-0.23909844,1003.4797,0,0
28.52,8.875580000000003,-5.632615,0.0449671,1003.4795,0,0
28.56,8.502769,-5.951974400000001,0.20120375,1003.4971,0,0
28.6,8.397627,-6.500129,-0.38112685,1003.49713,0,0
28.64,7.9913583,-6.8194884999999985,-0.88297236,1003.49713,0,0
28.68,7.613766,-7.34381,-0.9823937,1003.4794,0,0
28.72,6.9685063,-7.744200999999999,-1.1575655,1003.4819,0,0
28.76,6.1750727,-8.0015955,-1.3895501,1003.5069,0,0
28.8,5.639749,-8.077862,-0.98712426,1003.47687,0,0
28.84,4.8224163,-7.9110317,-0.9350445,1003.4819,0,0
28.88,4.7794104000000015,-7.8061686,-0.7030576,1003.4717,0,0
28.92,5.467717,-7.4915756999999985,-0.3716479,1003.49445,0,0
28.96,6.318536,-7.0435195,-1.1102139,1003.48425,0,0
29.0,6.8060884,-7.0244535999999975,-1.0912752,1003.5118,0,0
29.04,7.374422999999997,-6.929111,-0.8877379999999999,1003.4868,0,0
29.08,7.7950406,-6.7527485,-0.5042515999999999,1003.4792,0,0
29.12,8.005348,-6.538253299999999,-0.27226627,1003.47687,0,0
29.16,8.120057000000001,-6.185528,0.030735157000000006,1003.48895,0,0
29.2,8.091374,-6.1140294,0.31953344,1003.504,0,0
29.24,7.833259599999999,-6.1473955999999985,0.4899716,1003.4892,0,0
29.28,7.489108,-6.4333887,0.65567523,1003.4792,0,0
29.32,7.164076299999999,-6.843312700000001,0.7645661,1003.49396,0,0
29.36,6.9776587,-6.948176400000001,0.62726796,1003.5115,0,0
29.4,7.106709,-6.862378,0.46156326,1003.48395,0,0
29.44,7.426951400000001,-6.771814,0.15856099,1003.49176,0,0
29.48,7.661156,-6.3761888,-0.17758228,1003.49396,0,0
29.52,7.627692,-6.3428235,-0.34328684,1003.43335,0,0
29.56,7.2405240000000015,-6.7670464999999975,-0.33381855,1003.46075,0,0
29.6,6.996749,-7.048273599999999,-0.063957915,1003.47833,0,0
29.64,7.135357400000001,-7.210335700000001,-0.045020778,1003.4609,0,0
29.68,7.3313246,-6.9815416,0.21063665,1003.4737,0,0
29.72,7.264402400000002,-6.7908789999999986,0.07333843400000001,1003.48346,0,0
29.76,7.1305633,-6.7670460000000014,0.05440037,1003.45074,0,0
29.8,6.9584845999999985,-6.60975,0.30532336,1003.4733,0,0
29.84,6.8198657,-6.8719100000000015,0.48996475,1003.49097,0,0
29.88,6.829420599999999,-7.0006070000000005,0.45682344,1003.4683,0,0
29.92,7.0540657000000015,-7.0387397,0.35266602,1003.49615,0,0
29.96,7.2261333,-6.8147116,0.2911183,1003.47565,0,0
30.0,7.283486999999999,-6.7241464,0.120679274,1003.478,0,0
30.04,7.111886,-6.7718240000000005,-0.12546654,1003.47833,0,0
30.08,7.025863,-7.0006185,-0.078121215,1003.5135,0,0
30.12,7.116693,-7.0292179999999975,0.016568067,1003.47833,0,0
30.16,7.312678,-6.981553,-0.11125964,1003.4806,0,0
30.2,7.1262794000000005,-6.747992,-0.026039083,1003.46045,0,0
30.24,6.8251667000000005,-6.633595,-0.11599143,1003.48303,0,0
30.28,6.7439240000000025,-6.6860275,-0.2911631,1003.4956,0,0
30.32,6.825193,-6.9291224,-0.20120832,1003.47546,0,0
30.36,7.045078,-6.9148226,0.15387332,1003.4931,0,0
30.4,7.394017,-6.733694,0.32431316,1003.47034,0,0
30.44,7.566105,-6.4810667,0.20121998,1003.4879,0,0
30.48,7.5613375,-6.514433,0.07339218,1003.4929,0,0
30.52,7.317582000000002,-6.819493,-0.016560163,1003.5132,0,0
30.56,7.2363386,-6.6288314,-0.08284061,1003.5032,0,0
30.6,6.997362599999999,-6.910058,-0.15385541,1003.5032,0,0
30.64,6.9017806,-7.224651299999999,-0.34796467,1003.4926,0,0
30.68,6.9878306,-7.258017999999999,-0.3905731,1003.47784,0,0
30.72,7.1838145,-6.914826,-0.61308897,1003.47534,0,0
30.76,7.5040765,-6.809962,-0.8782143,1003.5155,0,0
30.8,7.3367977,-6.357139599999999,-0.7551185,1003.4829,0,0
30.84,7.1408386,-6.409572,-0.7219765,1003.4826,0,0
30.88,6.7775874000000025,-6.819496000000001,-1.1054621,1003.4625,0,0
30.92,6.686785,-7.005392,-0.7077707,1003.5002,0,0
30.96,7.0644035,-6.852863,0.10654819,1003.5055,0,0
31.0,7.1026554000000015,-6.843329400000001,0.06393975,1003.4547,0,0
31.04,6.849340400000001,-6.7241664000000005,-0.13963829,1003.4898,0,0
31.08,6.6963997000000015,-6.6812676999999985,-0.42370138,1003.46234,0,0
31.12,6.662953999999999,-6.719401,-0.655686,1003.4822,0,0
31.16,6.6868668000000016,-6.824265,-0.39055812,1003.45715,0,0
31.2,6.6821003,-6.867164,-0.2721968,1003.4872,0,0
31.24,6.6247563,-7.119792,-0.22011705,1003.4998,0,0
31.28,6.615212,-7.1912913,-0.45683596,1003.4773,0,0
31.32,6.777737599999999,-7.1340923,-0.56572616,1003.4923,0,0
31.36,7.3178697,-6.8528660000000015,-0.79297614,1003.4797,0,0
31.4,7.781524,-6.3762107000000015,-1.4510573,1003.4747,0,0
31.44,7.8484564,-6.1950817,-1.522072,1003.5349,0,0
31.48,7.4326253,-6.5287414,-0.8545197,1003.5528,0,0
31.52,7.2318883,-6.6383724000000015,-0.31479627,1003.49475,0,0
31.56,7.4230943,-6.6050067,-0.4757648,1003.50726,0,0
31.6,7.5951815,-6.4810762,-0.30059052,1003.4822,0,0
31.64,7.642992,-6.4715443,-0.17749481,1003.4772,0,0
31.68,7.4183555,-6.5668755,-0.22957198,1003.4872,0,0
31.72,7.098122,-6.5001440000000015,-0.47575986,1003.47974,0,0
31.76,6.8734845999999985,-6.843336,-0.4189457,1003.48694,0,0
31.8,6.8782783,-6.829037,-0.41894448,1003.502,0,0
31.84,7.2654567,-6.6145425000000015,-0.4094743,1003.5197,0,0
31.88,7.432762599999997,-6.6908073,-0.6840685999999999,1003.4843,0,0
31.92,7.2415853000000014,-6.9529679999999985,-0.7361458000000001,1003.492,0,0
31.96,6.9261312,-6.9196033,-0.7740198,1003.47437,0,0
32.0,6.7684115999999985,-6.871937299999999,-0.9775978,1003.48914,0,0
32.04,6.8068222999999985,-6.8195095000000014,-0.98231655,1003.5171,0,0
32.08,6.9502362999999985,-6.6955800000000005,-0.8166106,1003.5146,0,0
32.12,7.141448,-6.776611999999999,-0.77873355,1003.47406,0,0
32.16,7.108009299999999,-6.833811,-0.56568354,1003.5019,0,0
32.2,7.1892867,-6.7289467000000025,-0.4567903,1003.4966,0,0
32.24,7.2179847000000015,-6.523986,-0.47572613,1003.4689,0,0
32.28,7.304041000000002,-6.457254,-0.5088652,1003.49695,0,0
32.32,7.3279619999999985,-6.5382867,-0.3999718,1003.48395,0,0
32.36,7.332761,-6.6193184999999986,-0.35736045,1003.48944,0,0
32.4,7.280203,-6.5478206,-0.42364028,1003.4938,0,0
32.44,7.237205,-6.595486,-0.55146736,1003.512,0,0
32.48,7.1464089999999985,-6.6193194,-0.58934075,1003.5091,0,0
32.52,7.122528999999999,-6.781383,-0.5988078,1003.52167,0,0
32.56,7.069970599999999,-6.848115400000001,-0.6745565,1003.4991,0,0
32.6,7.074772,-6.7384853000000025,-0.6934922,1003.4941,0,0
32.64,7.003092999999999,-6.7432523,-0.7029594,1003.5014,0,0
32.68,7.0126740000000005,-6.757552,-0.6035349,1003.4914,0,0
32.72,6.9170985,-7.0006475,-0.6366739,1003.4813,0,0
32.76,6.8549795,-6.9911146,-0.518312,1003.50653,0,0
32.8,7.13223,-6.6526895,-0.6319358,1003.49365,0,0
32.84,7.251744,-6.471561,-0.9254671,1003.5063,0,0
32.88,7.299561,-6.4477286,-0.8307771999999999,1003.48615,0,0
32.92,7.290023,-6.690823599999999,-0.6035238,1003.50616,0,0
32.96,7.356959,-6.800455,-0.48516196,1003.5059,0,0
33.0,7.543392,-6.619325999999999,-0.52303535,1003.48846,0,0
33.04,7.53385,-6.495396,-0.72187877,1003.48596,0,0
33.08,7.3713584,-6.6002607000000015,-0.80236155,1003.5087,0,0
33.12,7.29968,-6.624094,-0.6839998,1003.5034,0,0
33.16,7.1706457,-6.8528895000000025,-0.54196584,1003.49866,0,0
33.2,7.0368333,-6.805224000000001,-0.51355743,1003.52124,0,0
33.24,7.0511922999999985,-6.633628999999999,-0.61297804,1003.4833,0,0
33.28,6.8791375,-6.8147583,-0.5514291,1003.50604,0,0
33.32,6.821801,-6.843358,-0.47094226,1003.50073,0,0
33.36,7.0177937,-6.7575603000000015,-0.5703630000000001,1003.5059,0,0
33.4,7.0225964,-6.7861604999999985,-0.7928778000000001,1003.49084,0,0
33.44,7.0512915,-6.7480283,-0.7455323,1003.5135,0,0
33.48,7.0321975000000005,-6.7670955999999975,-0.68871707,1003.4856,0,0
33.52,6.975188,-6.762337700000002,-0.7265604999999999,1003.5083,0,0
33.56,7.1281789999999985,-6.709906,-0.6744787,1003.5082,0,0
33.6,7.0708485,-6.7146735,-0.6602729,1003.49817,0,0
33.64,7.1377880000000005,-6.738507000000001,-0.58452046,1003.5031,0,0
33.68,7.1999617,-6.6336429999999975,-0.5324386,1003.5182,0,0
33.72,7.1235146999999985,-6.628878,-0.5845144,1003.5157,0,0
33.76,7.118755,-6.6860766000000025,-0.52296525,1003.5104,0,0
33.8,7.1665883,-6.6527114,-0.6744631,1003.5031,0,0
33.84,7.1283755000000015,-6.762343400000002,-0.6649919,1003.4903,0,0
33.88,7.171419,-6.600281,-0.65552074,1003.5227,0,0
33.92,7.185789999999999,-6.5478489999999985,-0.71233076,1003.5003,0,0
33.96,7.10934,-6.595515700000001,-0.7170626,1003.48004,0,0
34.0,7.0998160000000015,-6.733747,-0.48507357,1003.49286,0,0
34.04,7.0950675,-6.7909465,-0.593962,1003.5054,0,0
34.08,7.152452499999999,-6.690849000000001,-0.5513498,1003.4848,0,0
34.12,7.1811604,-6.7623479999999985,-0.53240955,1003.4923,0,0
34.16,7.0903740000000015,-6.814781,-0.55134445,1003.4976,0,0
34.2,7.076064,-6.7909493,-0.5324042,1003.4951,0,0
34.24,7.1334490000000015,-6.647953,-0.712309,1003.5051,0,0
34.28,7.243405,-6.628887700000001,-0.76912,1003.49225,0,0
34.32,7.2577824999999985,-6.5526233,-0.57027155,1003.50476,0,0
34.36,7.315167999999999,-6.72422,-0.4708464,1003.5099,0,0
34.4,7.224381,-6.786186,-0.36195248,1003.4847,0,0
34.44,7.2339625,-6.619357000000001,-0.45190418,1003.5074,0,0
34.48,7.238778999999999,-6.6241245,-0.6176049,1003.4897,0,0
34.52,7.1656804,-6.705121000000001,-0.54198277,1003.50476,0,0
34.56,7.1943345,-6.671755,-0.4993754,1003.487,0,0
34.6,7.1034913,-6.70512,-0.7124261,1003.46387,0,0
34.64,7.1751619999999985,-6.6288550000000015,-0.69349086,1003.5122,0,0
34.68,7.2229333,-6.6812863,-0.6698213000000001,1003.49976,0,0
34.72,7.1655493,-6.733718,-0.6130109,1003.5172,0,0
34.76,7.132065299999999,-6.876713799999999,-0.470981,1003.51984,0,0
34.8,7.0842423,-6.7289495,-0.56093705,1003.49725,0,0
34.84,7.155913000000001,-6.662217599999999,-0.6887683000000001,1003.4996,0,0
34.88,7.194133,-6.643151,-0.72191095,1003.5197,0,0
34.92,7.184545,-6.724181,-0.5988189,1003.4945,0,0
34.96,7.1653943,-6.733714,-0.54200894,1003.48956,0,0
35.0,7.2705216,-6.543051,-0.68877804,1003.5296,0,0
35.04,7.2944007,-6.6002490000000025,-0.7834681,1003.5046,0,0
35.08,7.2513504,-6.657447,-0.5278130999999999,1003.49207,0,0
35.12,7.141389,-6.7670770000000005,-0.49940908,1003.49677,0,0
35.16,7.0409875,-6.7718434000000025,-0.47573936,1003.499,0,0
35.2,7.0792007,-6.7527766000000025,-0.51835126,1003.49176,0,0
35.24,7.165209299999999,-6.7956743,-0.53729147,1003.5018,0,0
35.28,7.241659599999997,-6.790907400000001,-0.8923743000000001,1003.48425,0,0
35.32,7.322893,-6.614544,-1.095956,1003.49927,0,0
35.36,7.3706710000000015,-6.4906135,-1.0486135,1003.48926,0,0
35.4,7.365856599999999,-6.3476157,-0.8734438,1003.49396,0,0
35.44,7.2272167,-6.4953785,-0.67460114,1003.5014,0,0
35.48,7.1172547,-6.7670712,-0.3147888,1003.47894,0,0
35.52,7.1661259999999976,-6.547836,-0.28628412,1003.52155,0,0
35.56,7.3095365,-6.419139,-0.5561437,1003.50397,0,0
35.6,7.1326994999999975,-6.509704,-0.5466734999999999,1003.5014,0,0
35.64,7.0132203,-6.566903599999999,-0.40463978,1003.50885,0,0
35.68,7.0036764000000025,-6.7670994,-0.47565448,1003.496,0,0
35.72,7.041931,-6.6145697,-0.627154,1003.5113,0,0
35.76,7.0849657000000015,-6.533539,-0.62241805,1003.5014,0,0
35.8,7.147119,-6.671769,-0.68869823,1003.48096,0,0
35.84,7.180594,-6.7099023,-0.7739161,1003.52637,0,0
35.88,7.304885400000001,-6.585972,-0.6934296999999999,1003.5161,0,0
35.92,7.309682,-6.628872,-0.76917857,1003.496,0,0
35.96,7.1280656,-6.614572,-0.67448896,1003.49335,0,0
36.0,7.027705,-6.6717710000000015,-0.61767477,1003.48346,0,0
36.04,6.9416842,-6.7575693,-0.4093595,1003.51355,0,0
36.08,7.156793,-6.6288733,-0.28626338,1003.496,0,0
36.12,7.2954240000000015,-6.6717725,-0.5324509,1003.51105,0,0
36.16,7.3288965,-6.714672,-0.44723034,1003.49084,0,0
36.2,7.3193545,-6.66224,-0.5371824000000001,1003.5006,0,0
36.24,7.1950949999999985,-6.6384077,-0.5040402,1003.50604,0,0
36.28,7.1759925,-6.6527076,-0.57505476,1003.4956,0,0
36.32,7.1664505000000025,-6.571676700000001,-0.60345954,1003.4831,0,0
36.36,7.2047032999999985,-6.652708500000001,-0.48036367,1003.4981,0,0
36.4,7.2811966,-6.686075,-0.43775257,1003.4783,0,0
36.44,7.1760583,-6.6145770000000015,-0.3667349,1003.4906,0,0
36.48,7.066139,-6.771874,-0.23417003,1003.5106,0,0
36.52,6.913653,-6.838617299999999,-0.10629834,1003.49316,0,0
36.56,6.9901643,-6.867217,-0.13470164,1003.5059,0,0
36.6,7.167049,-6.671789,-0.3335437,1003.50574,0,0
36.64,7.2961383,-6.6431910000000025,-0.4045566,1003.4956,0,0
36.68,7.291390400000001,-6.7242229999999985,-0.5465858,1003.5004,0,0
36.72,7.195828999999999,-6.843387599999999,-0.47556657,1003.49316,0,0
36.76,7.1432853000000005,-6.9911512999999985,-0.45662588,1003.4954,0,0
36.8,7.1385393,-6.8958216,-0.32879382,1003.5133,0,0
36.84,7.1098967,-6.7432922999999985,-0.47082263,1003.5006,0,0
36.88,7.0334496,-6.810025,-0.45188224,1003.5003,0,0
36.92,6.9952460000000025,-6.8862906000000015,-0.2530341,1003.5079,0,0
36.96,7.090876,-6.914891000000001,-0.31457824,1003.51794,0,0
37.0,7.1769422999999986,-6.686097,-0.390326,1003.5003,0,0
37.04,7.071825,-6.485903,-0.55129224,1003.5031,0,0
37.08,7.1053166,-6.6336665,-0.49921083,1003.51025,0,0
37.12,7.100571,-6.8481619999999985,-0.28142503,1003.5056,0,0
37.16,7.210541,-6.6098356,-0.328766,1003.5054,0,0
37.2,7.267932400000001,-6.500206,-0.6222959,1003.4828,0,0
37.24,7.1914897,-6.5049730000000014,-0.48026067,1003.5003,0,0
37.28,7.2775583,-6.7909675000000025,-0.20566227,1003.49,0,0
37.32,7.311051400000001,-6.724236500000001,-0.24353437,1003.4797,0,0
37.36,7.401901700000002,-6.4525432999999985,-0.4423762,1003.4925,0,0
37.4,7.330239,-6.4811435,-0.54652995,1003.50745,0,0
37.44,7.2012160000000005,-6.6479740000000005,-0.41396368,1003.50745,0,0
37.48,7.2251496,-6.724239999999999,-0.3287413,1003.50995,0,0
37.52,7.243689,-6.562162400000001,-0.49923295,1003.4822,0,0
37.56,7.162442,-6.695626299999999,-0.47082555,1003.4872,0,0
37.6,7.0764155,-6.6384277,-0.4566215,1003.50214,0,0
37.64,7.028628,-6.7289925,-0.3856045,1003.4872,0,0
37.68,7.143353,-6.6336617,-0.38560355,1003.4946,0,0
37.72,7.320214999999999,-6.438233,-0.43768114,1003.4897,0,0
37.76,7.387142,-6.443,-0.50869626,1003.50476,0,0
37.8,7.2772174,-6.6288958,-0.4424137,1003.4921,0,0
37.84,7.157731,-6.8052588000000025,-0.39506885,1003.49475,0,0
37.88,7.195980499999999,-6.690861,-0.39506787,1003.50726,0,0
37.92,7.21033,-6.6288967,-0.5797087,1003.49725,0,0
37.96,7.200779400000001,-6.7289944,-0.57023907,1003.4921,0,0
38.0,7.253367999999999,-6.714695,-0.3997995,1003.49976,0,0
38.04,7.320296000000001,-6.595532,-0.522893,1003.4797,0,0
38.08,7.248608,-6.5288,-0.4329385,1003.4897,0,0
38.12,7.2438392999999985,-6.5431,-0.37139028,1003.49963,0,0
38.16,7.2199490000000015,-6.748061999999999,-0.38559273,1003.4918,0,0
38.2,7.1387024000000014,-6.8386273,-0.42346692,1003.49695,0,0
38.24,7.167392,-6.7194633,-0.57970136,1003.4893,0,0
38.28,7.291676,-6.619366,-0.74067026,1003.4991,0,0
38.32,7.248667999999999,-6.6050663,-0.6128404000000001,1003.48926,0,0
38.36,7.1100636,-6.733764,-0.45660415,1003.50433,0,0
38.4,7.0957339999999975,-6.671798700000001,-0.46133757,1003.4687,0,0
38.44,7.1722207,-6.752830499999999,-0.38558626,1003.4943,0,0
38.48,6.976259,-6.824329,-0.18200594,1003.5038,0,0
38.52,6.860038,-6.8385916,-0.15373735,1003.5094,0,0
38.56,6.9173493000000015,-6.7003603000000025,-0.43307146,1003.5116,0,0
38.6,7.2040880000000005,-6.5954947,-0.5324985,1003.48914,0,0
38.64,7.385671,-6.547828,-0.54670626,1003.494,0,0
38.68,7.3330436,-6.5764265,-0.60352355,1003.50635,0,0
38.72,7.1322427,-6.8433523,-0.5277776,1003.48895,0,0
38.76,7.0700583,-6.767086,-0.5845948000000001,1003.49896,0,0
38.8,7.2420883,-6.69082,-0.6272084,1003.519,0,0
38.84,7.213357000000001,-6.6479197,-0.6177444000000001,1003.51636,0,0
38.88,7.1272774000000005,-6.8195148,-0.42837214,1003.48895,0,0
38.92,7.026849,-6.8290467,-0.31475124,1003.5038,0,0
38.96,6.9694386,-6.8481115999999975,-0.38577214,1003.4934,0,0
39.0,7.041086,-6.781378299999999,-0.33843258,1003.50146,0,0
39.04,7.0458198,-6.643147,-0.29109278,1003.48865,0,0
39.08,7.021871000000001,-6.728944,-0.23428448,1003.50366,0,0
39.12,6.9883630000000005,-6.9196053,-0.17747617,1003.5035,0,0
39.16,6.945296000000001,-7.0006356,-0.15380865,1003.52625,0,0
39.2,6.9548087,-6.9100695000000005,-0.34792346,1003.5035,0,0
39.24,6.988217999999999,-6.919602,-0.5278353,1003.506,0,0
39.28,6.992951400000001,-7.053064,-0.42368272,1003.5035,0,0
39.32,7.0120177,-6.8624005000000015,-0.5183755999999999,1003.47534,0,0
39.36,6.9880724,-6.900532000000001,-0.5467863000000001,1003.5133,0,0
39.4,6.89243,-7.0339947,-0.39528963,1003.4833,0,0
39.44,6.8159009999999975,-7.0864252999999975,-0.25799668,1003.52356,0,0
39.48,6.9257894,-6.8719287,-0.24853213,1003.49585,0,0
39.52,6.9852233,-6.8719797000000025,-0.28621729999999995,1003.50085,0,0
39.56,6.9661384,-6.9482455000000005,-0.30988622,1003.50336,0,0
39.6,6.937494,-6.871981599999999,-0.24833582,1003.4854,0,0
39.64,6.918409,-7.034045699999999,-0.26727033,1003.4979,0,0
39.68,6.9662384999999984,-7.0435789999999985,-0.3477522,1003.498,0,0
39.72,6.9997296,-6.924416000000001,-0.33828047,1003.50085,0,0
39.76,7.009323599999999,-6.94825,-0.5702632,1003.49304,0,0
39.8,6.8803034,-7.0721817,-0.33353984,1003.47784,0,0
39.84,6.846878500000001,-6.995917,-0.23884861,1003.5005,0,0
39.88,6.870812,-6.914886,-0.26725190000000004,1003.51794,0,0
39.92,6.851727,-6.9244204,-0.23410793,1003.4854,0,0
39.96,6.8804380000000025,-6.824323700000001,-0.1488857,1003.46277,0,0
40.0,6.942608,-6.8290906000000025,-0.31932136,1003.48785,0,0
40.04,7.038239999999999,-6.9053564,-0.23409872,1003.5131,0,0
40.08,7.0095953999999985,-7.005455,-0.23409559,1003.4953,0,0
40.12,7.1817007,-6.881525,-0.58443856,1003.4901,0,0
40.16,6.899726400000001,-7.0483556,-0.6459826999999999,1003.4827,0,0
40.2,6.7611465,-7.0483565000000015,-0.40452492,1003.49255,0,0
40.24,6.851997,-6.929194,-0.45660028,1003.51013,0,0
40.28,6.9571843,-6.8815284,-0.2388147,1003.5076,0,0
40.32,6.8568425,-7.0388259999999985,-0.06363861,1003.4875,0,0
40.36,6.990711,-6.9816284,-0.039963443,1003.50256,0,0
40.4,7.057661,-6.829099,-0.08257012,1003.50226,0,0
40.44,7.000337599999999,-6.8481655,-0.21513031,1003.49255,0,0
40.48,7.014709,-6.8481665,-0.33822188,1003.4925,0,0
40.52,6.971437,-6.953025,-0.3571828,1003.49994,0,0
40.56,6.9475593999999985,-7.005457400000001,-0.41399366,1003.4774,0,0
40.6,6.961921,-6.953026,-0.47553885,1003.482,0,0
40.64,6.8615665,-7.0292910000000015,-0.43766168,1003.4873,0,0
40.68,6.895048599999999,-6.976859599999999,-0.39504996,1003.5175,0,0
40.72,6.942869,-6.9911600000000025,-0.25775012,1003.46967,0,0
40.76,7.0145880000000025,-6.8767633,-0.24827935,1003.4945,0,0
40.8,7.0002713000000005,-6.905363,-0.23880844,1003.49475,0,0
40.84,7.019413,-6.8672314,-0.27194723,1003.4898,0,0
40.88,6.9572987999999985,-7.000695,-0.2577419,1003.5048,0,0
40.92,6.933421000000001,-6.9053645,-0.27194315,1003.47473,0,0
40.96,7.038599499999999,-6.905365,-0.24826904,1003.4995,0,0
41.0,6.9812645999999985,-6.8672338,-0.39029908,1003.5271,0,0
41.04,6.8665724,-6.943499,-0.17724878,1003.5095,0,0
41.08,6.880934700000001,-7.0912630000000005,-0.15830907,1003.48193,0,0
41.12,6.9669919999999985,-6.900600999999999,-0.2056512,1003.50226,0,0
41.16,7.000472500000001,-6.9578,-0.30033728,1003.4666,0,0
41.2,7.019615700000001,-6.843404,-0.5133833,1003.492,0,0
41.24,7.0913343,-6.8148050000000016,-0.48497492,1003.50684,0,0
41.28,7.0722375,-6.948269,-0.38081592,1003.48175,0,0
41.32,7.0292410000000025,-6.757607000000001,-0.27665702,1003.4968,0,0
41.36,6.9862466,-6.829106,-0.26245165,1003.4943,0,0
41.4,6.995829,-6.819572999999999,-0.10147978,1003.49225,0,0
41.44,6.9958490000000015,-6.981636999999999,-0.02572747,1003.51685,0,0
41.48,6.976754,-6.9435053,-0.06833489,1003.522,0,0
41.52,7.062621000000001,-6.810037,-0.20091379,1003.4893,0,0
41.56,7.1056547000000005,-6.867236599999999,-0.28139722,1003.51733,0,0
41.6,7.014852499999999,-6.9101357000000005,-0.4518345,1003.4741,0,0
41.64,6.9670687,-6.962567999999999,-0.31453547,1003.4843,0,0
41.68,7.081798599999999,-6.9387355,-0.38081583,1003.5169,0,0
41.72,7.1343913,-6.781439999999999,-0.3334704,1003.494,0,0
41.76,7.196542999999999,-6.709942,-0.38554755,1003.50653,0,0
41.8,7.1678815,-6.8243394,-0.1914354,1003.48895,0,0
41.84,7.134436999999999,-6.814807000000001,-0.30032533,1003.4861,0,0
41.88,7.1153326,-6.8052740000000025,-0.21983917,1003.4915,0,0
41.92,7.0532103,-6.814807400000001,-0.16775937,1003.504,0,0
41.96,7.0293259999999975,-6.819574,-0.25297722,1003.48615,0,0
42.0,7.04846,-6.748076400000001,-0.24824153,1003.4937,0,0
42.04,7.010237700000001,-6.9625716,-0.18669279,1003.51404,0,0
42.08,7.0245914,-6.92444,-0.17722265,1003.49603,0,0
42.12,7.077185000000001,-6.7099447,-0.35239413,1003.51117,0,0
42.16,7.0580792,-6.7194786,-0.46601868,1003.51404,0,0
42.2,7.048534,-6.824342999999999,-0.41867328,1003.49866,0,0
42.24,7.13937,-6.748079,-0.30978015,1003.4886,0,0
42.28,7.1393824000000015,-6.7099466,-0.2908414,1003.4861,0,0
42.32,7.1059384,-6.6908803,-0.34765290000000004,1003.4658,0,0
42.36,7.1059523,-6.767145599999999,-0.3097764,1003.5186,0,0
42.4,7.1107473,-6.729014,-0.32871267,1003.5236,0,0
42.44,7.144221300000001,-6.7194815000000006,-0.35711765,1003.49585,0,0
42.48,7.1681366,-6.7051816,-0.39025703,1003.4912,0,0
42.52,7.067261,-6.6956367,-0.32402107,1003.4887,0,0
42.56,7.0098977,-6.762368,-0.4092408,1003.48083,0,0
42.6,6.990773700000001,-6.900598,-0.41871008,1003.4806,0,0
42.64,7.0529065000000015,-6.933964,-0.37610093,1003.5059,0,0
42.68,7.105479700000001,-6.7719007,-0.5891496,1003.5006,0,0
42.72,7.0624557,-6.752834299999999,-0.64596283,1003.4856,0,0
42.76,7.0003133,-6.829099,-0.44711837,1003.4984,0,0
42.8,6.990749,-6.8719983,-0.27194583,1003.4909,0,0
42.84,7.1436977,-6.762367200000001,-0.32875920000000003,1003.5056,0,0
42.88,7.158032,-6.7862,-0.29561877,1003.5031,0,0
42.92,7.258403299999999,-6.8052660000000005,-0.3666353,1003.4727,0,0
42.96,7.306195,-6.8052660000000005,-0.4045111,1003.4753,0,0
43.0,7.1197789999999985,-6.7290009999999985,-0.51813716,1003.5029,0,0
43.04,7.019398,-6.695635,-0.6128256999999999,1003.498,0,0
43.08,7.038511,-6.7433,-0.57495105,1003.4929,0,0
43.12,7.091083500000001,-6.8052654000000015,-0.4045129,1003.4831,0,0
43.16,7.0385027,-6.7861996,-0.3571692,1003.47296,0,0
43.2,6.852084,-6.9482617,-0.21040331,1003.4829,0,0
43.24,6.8711977,-6.910129,-0.20093493,1003.4829,0,0
43.28,6.94767,-6.6908674,-0.41871795,1003.4853,0,0
43.32,7.009803,-6.7051669999999985,-0.5039377,1003.4903,0,0
43.36,7.1149545,-6.786198599999999,-0.4471252000000001,1003.508,0,0
43.4,7.3109199999999985,-6.7480660000000015,-0.49920422,1003.5255,0,0
43.44,7.3156953,-6.5812364,-0.49447024,1003.49506,0,0
43.48,7.210534,-6.557403599999999,-0.5181427,1003.498,0,0
43.52,7.220667,-6.5574174,-0.4423398,1003.4875,0,0
43.56,7.249368,-6.690881299999999,-0.2482272,1003.4875,0,0
43.6,7.292403699999999,-6.5717177,-0.19141272,1003.523,0,0
43.64,7.2924194,-6.6861157,-0.21981768,1003.5077,0,0
43.68,7.1968412,-6.7194824,-0.22928487,1003.5204,0,0
43.72,7.1633997,-6.68135,-0.37604982,1003.5101,0,0
43.76,7.1490784,-6.857713,-0.36184496,1003.49725,0,0
43.8,7.129978,-6.7528496,-0.43285933,1003.4722,0,0
43.84,7.2542696,-6.7147174,-0.38077936,1003.5275,0,0
43.88,7.130013000000001,-6.667052,-0.3997153,1003.49225,0,0
43.92,7.015314,-6.771917,-0.21980642,1003.5124,0,0
43.96,7.063128999999999,-6.8338823,-0.13458563,1003.4897,0,0
44.0,7.149183,-6.743318,-0.08723995,1003.4898,0,0
44.04,7.1253014000000015,-6.7004199999999985,-0.106175974,1003.4873,0,0
44.08,7.0249424,-6.810051,-0.15825288,1003.4998,0,0
44.12,6.958044,-6.8529506,-0.1203759,1003.5024,0,0
44.16,7.0297575,-6.867251,-0.21032812,1003.48224,0,0
44.2,6.9963183,-6.843417999999999,-0.21979515,1003.5097,0,0
44.24,7.0058940000000005,-6.876785000000001,-0.25293446,1003.48694,0,0
44.28,7.0489289999999984,-6.9101505,-0.24819855,1003.48474,0,0
44.32,7.020269,-7.0340820000000015,-0.33341609999999994,1003.49976,0,0
44.36,6.991608,-7.034082400000001,-0.32394567,1003.48206,0,0
44.4,7.1732559999999985,-6.8910860000000005,-0.38549152,1003.5398,0,0
44.44,7.130256,-6.833887599999999,-0.29553616,1003.5094,0,0
44.48,6.9104023,-6.943519,-0.22925289,1003.4872,0,0
44.52,6.8242210000000005,-7.0960449999999975,-0.101437196,1003.4843,0,0
44.56,6.9054904000000015,-7.005481,-0.06829527,1003.5019,0,0
44.6,7.001098,-6.953048700000001,-0.115638256,1003.50476,0,0
44.64,6.981989,-6.91015,-0.27187264,1003.50476,0,0
44.68,6.895965,-6.829119,-0.29554352,1003.48413,0,0
44.72,6.9915714000000015,-6.8195863,-0.38076186,1003.51917,0,0
44.76,7.0919585000000005,-6.838653,-0.39496413,1003.5146,0,0
44.8,7.1445484,-6.8863187,-0.29080606,1003.51917,0,0
44.84,7.1063199999999975,-6.814820299999999,-0.24346112,1003.5269,0,0
44.88,6.953378,-7.019783,-0.35235128,1003.5372,0,0
44.92,6.9103702999999985,-7.0769815000000005,-0.21505262,1003.4765,0,0
44.96,7.0442166,-6.867253999999999,-0.24819238,1003.5267,0,0
45.0,7.1685023,-6.7242570000000015,-0.35708270000000003,1003.4991,0,0
45.04,7.1207147,-6.6575255,-0.39969134,1003.4941,0,0
45.08,7.1016073,-6.7290235,-0.28606457,1003.5116,0,0
45.12,7.135078,-6.8434215,-0.31446993,1003.5216,0,0
45.16,7.1064105,-6.757623700000001,-0.3286721,1003.52167,0,0
45.2,7.120760400000001,-6.757623700000001,-0.4138904000000001,1003.5066,0,0
45.24,7.1637907000000025,-6.8672557,-0.44703013,1003.5241,0,0
45.28,7.1685815,-6.9816527000000015,-0.26238737,1003.5317,0,0
45.32,7.0729966,-6.862489,-0.26238632,1003.4915,0,0
45.36,7.001311,-6.6908937,-0.42335507,1003.52167,0,0
45.4,6.900946,-6.795758,-0.37601,1003.51373,0,0
45.44,6.8770585,-7.0245533,-0.30499288,1003.4991,0,0
45.48,6.8675103,-7.0436190000000005,-0.22924136,1003.4988,0,0
45.52,6.876564,-6.8863106,-0.66958725,1003.52167,0,0
45.56,6.919574000000001,-6.76238,-0.6175096,1003.50867,0,0
45.6,6.948243,-6.7480803,-0.45180634,1003.5166,0,0
45.64,7.1011887000000025,-6.690881299999999,-0.357119,1003.50604,0,0
45.68,7.282812,-6.6146164,-0.18194681,1003.52136,0,0
45.72,7.349721400000001,-6.419187,-0.1440724,1003.5038,0,0
45.76,7.426189999999999,-6.4048867,-0.17247947,1003.50867,0,0
45.8,7.430960000000002,-6.5192842,-0.4565447,1003.51373,0,0
45.84,7.321014999999999,-6.671814,-0.46601433,1003.511,0,0
45.88,7.24931,-6.8386436,-0.4896871,1003.506,0,0
45.92,7.1680465,-6.900608,-0.72640806,1003.51605,0,0
45.96,7.0246429999999975,-6.8100433,-0.9110506,1003.52136,0,0
46.0,6.991174000000001,-6.9006076,-0.78795695,1003.49347,0,0
46.04,6.8573312999999985,-6.972106,-0.4991591,1003.52136,0,0
46.08,6.9768176,-6.7623773,-0.47548783,1003.516,0,0
46.12,7.015047,-6.8005095,-0.3381909,1003.49066,0,0
46.16,7.110635,-6.6956453,-0.29558212,1003.5035,0,0
46.2,7.153644,-6.671811999999999,-0.34766138,1003.5359,0,0
46.24,7.1679754,-6.643213,-0.555976,1003.52356,0,0
46.28,7.297021400000001,-6.5478809999999985,-0.5607111,1003.5134,0,0
46.32,7.368709,-6.5002155,-0.6459313,1003.5158,0,0
46.36,7.273103999999999,-6.5240483,-0.645932,1003.49817,0,0
46.4,7.1583809999999986,-6.6670440000000015,-0.67907363,1003.5109,0,0
46.44,7.201390299999999,-6.57648,-0.698012,1003.5386,0,0
46.48,7.406913,-6.4811482000000025,-0.6885441,1003.49316,0,0
46.52,7.407935,-6.481173,-0.6032312,1003.5107,0,0
46.56,7.2932515,-6.5574393,-0.5085402,1003.5433,0,0
46.6,7.1546674,-6.6766033,-0.49906868,1003.5359,0,0
46.64,7.192939,-6.6194057,-0.35703343,1003.5282,0,0
46.68,7.269445399999999,-6.5526752,-0.4990629,1003.5058,0,0
46.72,7.2599177,-6.562208,-0.59848243,1003.5309,0,0
46.76,7.1882524000000005,-6.7481054999999985,-0.55113554,1003.5134,0,0
46.8,7.3938136,-6.695674,-0.8683379000000001,1003.52795,0,0
46.84,7.5037827,-6.8577375,-0.8825381,1003.54333,0,0
46.88,7.3508573,-6.7385745,-0.79258174,1003.5584,0,0
46.92,7.4799447,-6.2809854000000005,-0.9440797,1003.52325,0,0
46.96,7.6138077000000015,-6.095091,-1.057703,1003.54596,0,0
47.0,7.523027000000001,-6.2476214999999975,-0.37121093,1003.51324,0,0
47.04,7.3366422999999985,-6.352486,-0.1628946,1003.5384,0,0
47.08,7.0881243000000005,-6.771944500000001,-0.36173666,1003.5126,0,0
47.12,6.103518,-7.410663599999999,0.09750366,1003.5182,0,0
47.16,5.7832994000000015,-7.505995299999999,0.17799108,1003.5054,0,0
47.2,6.538542,-6.8672776,0.09277489,1003.48755,0,0
47.24,7.59491,-6.2476263,-0.91565037,1003.5023,0,0
47.28,7.9582067,-6.2714596,-1.1807742,1003.51764,0,0
47.32,7.513714999999999,-6.724283,-0.9724576,1003.52765,0,0
47.36,6.7680974,-6.981678,-0.39959177,1003.5378,0,0
47.4,6.624733,-7.053177400000001,-0.06344633,1003.50476,0,0
47.44,6.911553,-6.7147527,-0.28596044,1003.52527,0,0
47.48,7.375225500000001,-6.5479236,-0.59842825,1003.51514,0,0
47.52,7.748114,-6.3477297,-0.75939214,1003.49725,0,0
47.56,7.9441190000000015,-6.3572636,-0.63156027,1003.51984,0,0
47.6,7.819875200000001,-6.290533,-0.5889477,1003.5298,0,0
47.64,7.6143746,-6.3858643,-0.3711623,1003.5097,0,0
47.68,7.341958999999999,-6.552695,-0.16284549,1003.5448,0,0
47.72,7.2559547,-6.681392999999999,0.04547135,1003.49457,0,0
47.76,7.236869299999999,-6.695693,0.19697532,1003.52484,0,0
47.8,7.203442999999999,-6.657562,-0.044476297000000005,1003.5122,0,0
47.84,7.1317773,-6.7290606,-0.14863037,1003.51733,0,0
47.88,6.9597373,-6.957856,-0.17703378,1003.50476,0,0
47.92,6.921531699999999,-6.9673905,-0.24804683,1003.51715,0,0
47.96,6.9454618,-6.9816910000000005,-0.31432566,1003.48175,0,0
48.0,6.8737993,-6.9387919999999985,-0.40901053,1003.5298,0,0
48.04,6.9072895,-6.9816923,-0.3853357,1003.48956,0,0
48.08,7.041157000000001,-6.881595599999999,-0.25750378,1003.51434,0,0
48.12,7.1176643,-6.810097,-0.2054225,1003.5602,0,0
48.16,7.136818400000001,-6.771966,0.002894536,1003.51184,0,0
48.2,7.232445200000001,-6.619437,0.08811664599999999,1003.5298,0,0
48.24,7.127321,-6.6814035999999986,0.16386995,1003.52435,0,0
48.28,7.079556,-6.733836,0.08338809,1003.5046,0,0
48.32,7.179962,-6.7052374000000015,0.14020379,1003.5018,0,0
48.36,7.2851515,-6.652806299999999,0.06919071,1003.5394,0,0
48.4,7.1274524,-6.6814065000000005,-0.030228574,1003.5269,0,0
48.44,7.094025,-6.8339367,0.040790338,1003.49426,0,0
48.48,7.113175,-6.814872,0.092871636,1003.52686,0,0
48.52,7.102461,-6.743345,-0.063469455,1003.5344,0,0
48.56,7.0737667,-6.80531,-0.058736395,1003.50433,0,0
48.6,7.198028999999999,-6.8577414,-0.006659160999999999,1003.4939,1,2
48.64,7.3127312999999985,-6.7481103,-0.025597975,1003.53186,1,2
48.68,7.164542999999999,-6.824375,-0.11555293,1003.50903,1,2
48.72,6.782145,-6.924472,0.11169721,1003.5369,1,2
48.76,6.629177,-6.700443300000001,0.17324318,1003.46405,1,2
48.8,6.71042,-6.8529735,0.2631956,1003.52905,1,2
48.84,7.0163136,-6.8672724,0.47150812,1003.52905,1,2
48.88,7.097557000000001,-6.881572,0.3010684,1003.54663,1,2
48.92,7.1883583,-6.624177499999999,-0.12502941,1003.51904,1,2
48.96,7.8670774,-6.3715496,-0.6694871,1003.51135,1,2
49.0,8.292466000000001,-5.2514080000000005,-1.095585,1003.51385,1,2
49.04,7.8096924,-5.237108,-1.1003205,1003.51154,1,2
49.08,7.455973599999999,-6.8958697,-0.5179899,1003.51385,1,2
49.12,7.680611999999999,-8.216206,0.09274715,1003.53143,1,2
49.16,8.789512,-7.410657,0.9922826,1003.52637,1,2
49.2,8.722581,-6.3191156,1.153251,1003.501,1,2
49.24,8.091633,-6.638474499999999,0.7082159,1003.539,1,2
49.28,7.4702449999999985,-7.153262,0.2584462,1003.54663,1,2
49.32,6.533388,-8.468832,0.054865427,1003.5015,1,2
49.36,4.621454,-8.974086,-1.6495215,1003.4938,1,2
49.4,4.5115050000000005,-9.274379,-1.5169593,1003.5163,1,2
49.44,3.718043,-10.5470495,-0.7689246999999999,1003.51904,1,2
49.48,3.254388,-10.685279,-1.7820886000000002,1003.4985,1,2
49.52,4.2017093,-10.256311,-2.3453984,1003.52405,1,2
49.56,5.501836,-9.264869,-2.1370828,1003.4838,1,2
49.6,6.668131,-8.630917,-1.483733,1003.52905,1,2
49.64,7.662352999999999,-8.216227,-0.22911362,1003.5339,1,2
49.68,8.756952,-7.329648,0.8124574999999999,1003.52094,1,2
49.72,8.857348,-6.829159700000001,0.70830256,1003.49554,1,2
49.76,8.513227,-6.6337314,0.23012987,1003.51605,1,2
49.8,8.642302,-5.6375217000000015,0.85507315,1003.5361,1,2
49.84,8.575409,-5.4849925000000015,1.6267833,1003.52637,1,2
49.88,9.282842,-6.0093145,0.9071558,1003.53357,1,2
49.92,10.750263,-5.5850916,0.121246666,1003.52356,1,2
49.96,12.036053,-4.665146400000001,0.5899548000000001,1003.52356,1,2
50.0,13.039835,-1.7909130000000002,-0.6457225999999999,1003.5133,1,2
50.04,11.185294,-5.1704025,-2.009229,1003.5081,1,2
50.08,10.917647,-9.298242,-1.8009134999999998,1003.51843,1,2
50.12,12.84871,-11.338328,-0.5036844,1003.4985,1,2
50.16,13.030366,-11.71012,0.86456066,1003.51807,1,2
50.2,12.963471,-11.991347,1.1628302,1003.54114,1,2
50.24,10.788681,-13.006625,-0.07758188,1003.5283,1,2
50.28,7.6435933,-12.153411,-1.4505572,1003.5361,1,2
50.32,5.793832,-10.208657,-1.7014785,1003.53864,1,2
50.36,4.971727400000002,-8.7596245,-1.062332,1003.50323,1,2
50.4,4.202202,-8.221003999999999,-0.87768805,1003.5284,1,2
50.44,3.7624817,-7.553686,-0.42791763,1003.5286,1,2
50.48,3.4948354,-6.867303,0.20176028,1003.51605,1,2
50.52,3.2641122000000005,-8.092276,-1.1429291,1003.51575,1,2
50.56,3.498295,-10.0608635,-1.4411991000000002,1003.5109,1,2
50.6,4.4590063,-10.747247,0.088011086,1003.5007,1,2
50.64,6.9110165,-9.984597,0.8265756,1003.53107,1,2
50.68,9.75975,-10.88071,0.56618065,1003.50574,1,2
50.72,11.28926,-13.078092,0.49516192,1003.51605,1,2
50.76,11.576018,-12.668166,1.2621328,1003.51825,1,2
50.8,11.528191,-10.356385,2.0243692,1003.5335,1,2
50.84,11.39911,-8.363964999999999,2.0811799,1003.51843,1,2
50.88,10.806384,-7.2009234,1.3710161,1003.54065,1,2
50.92,10.271018,-6.59557,1.3047321000000005,1003.52106,1,2
50.96,9.644836,-5.4229965,2.1001098,1003.5309,1,2
51.0,9.295882,-4.464918,2.5072658,1003.5364,1,2
51.04,9.291075,-4.8081093,1.569851,1003.52075,1,2
51.08,10.634168,-5.146534,-0.7216039000000001,1003.51556,1,2
51.12,10.223075,-6.4049044,-2.3928514,1003.5082,1,2
51.16,10.767944,-6.8386607,-1.2802688,1003.5081,1,2
51.2,10.920869,-7.329614999999999,0.7460538000000001,1003.51807,1,2
51.24,9.491683,-6.967356,0.1826573,1003.498,1,2
51.28,8.793799,-7.186617,-1.3276206,1003.51074,1,2
51.32,8.726855,-9.241002,-2.369192,1003.5081,1,2
51.36,8.602551,-12.382162,-1.2992195,1003.5106,1,2
51.4,9.8596115,-12.339263,0.7129,1003.54065,1,2
51.44,8.999219,-10.427873,2.6540034,1003.55316,1,2
51.48,7.254551400000001,-9.13137,0.71289396,1003.55084,1,2
51.52,6.892262,-8.3020115,-0.27650726,1003.53815,1,2
51.56,6.591145,-7.115139,-0.115536615,1003.51556,1,2
51.6,6.643732000000001,-7.410665499999999,0.7650636,1003.5231,1,2
51.64,6.3043765999999986,-8.11135,1.6456636000000002,1003.5031,1,2
51.68,5.95546,-8.468842500000001,2.1569803,1003.51807,1,2
51.72,4.937371700000001,-8.640438,2.2611382,1003.5055,1,2
51.76,3.9957583,-8.716703,2.2658734000000003,1003.5157,1,2
51.8,4.105706700000002,-8.76437,1.0633355,1003.5257,1,2
51.84,4.693632,-10.041807,-0.32384405,1003.5131,1,2
51.88,5.181182,-10.075173,-1.6447421000000002,1003.5081,1,2
51.92,7.0070770000000016,-9.994142,-2.9845777,1003.49554,1,2
51.96,10.199997,-9.25056,-5.711594,1003.5081,1,2
52.0,10.697106,-8.201917,-6.4028160000000005,1003.48804,1,2
52.04,10.35775,-9.727215,-4.0924253,1003.5031,1,2
52.08,9.903679,-10.713892,-1.3085950000000002,1003.5406,1,2
52.12,8.441069,-9.984611,1.5699241000000002,1003.51544,1,2
52.16,6.8350635,-8.783438,2.4789307000000003,1003.50793,1,2
52.2,6.4909277,-8.649975,0.6987955,1003.49554,1,2
52.24,7.6141925000000015,-7.777695,-1.6873436000000002,1003.5026,1,2
52.28,9.516563,-6.581289,-2.1797206,1003.48755,1,2
52.32,11.156047,-5.3324513,-1.3985431000000002,1003.5053,1,2
52.36,11.978184,-3.487794,-0.43745792,1003.5129,1,2
52.4,11.132168,-3.4115293,-0.47533226,1003.53796,1,2
52.44,10.869288,-5.6851773,0.4668151,1003.51996,1,2
52.48,10.3483,-8.516513,2.6209702,1003.5278,1,2
52.52,10.157668,-10.42315,3.222291,1003.52527,1,2
52.56,9.450287,-14.579587,2.862479,1003.5577,1,2
52.6,6.118795,-14.031434,4.4295697,1003.5373,1,2
52.64,9.20658,-10.833075,6.6168675000000015,1003.5373,1,2
52.68,12.093614,-9.436475,5.954054,1003.52496,1,2
52.72,13.374629999999998,-10.165758,3.2933214,1003.54553,1,2
52.76,13.666231,-11.85312,1.3900933000000002,1003.53534,1,2
52.8,12.538229,-12.830265,2.0623817,1003.5278,1,2
52.84,10.707593,-13.669181,4.372774,1003.5628,1,2
52.88,8.929539,-13.249724,4.9314365,1003.5657,1,2
52.92,7.256636,-12.406044,3.8993392,1003.54755,1,2
52.96,5.4212254999999985,-10.756816,2.857773,1003.5352,1,2
53.0,4.2167463,-9.226752,1.1817968,1003.5403,1,2
53.04,4.264574,-8.478404,1.1817993999999998,1003.5027,1,2
53.08,4.5800633,-8.1304455,0.5426569,1003.4974,1,2
53.12,4.9959474,-7.915951700000001,-1.2800851,1003.4825,1,2
53.16,5.043775599999999,-8.273444,-1.2942857,1003.51025,1,2
53.2,5.7703370000000005,-9.112359,-0.101212725,1003.5073,1,2
53.24,5.6460940000000015,-8.178114,-2.222223,1003.5002,1,2
53.28,5.7034835999999975,-7.9159546,-4.551547,1003.4998,1,2
53.32,7.309528999999999,-9.436487,-5.948194,1003.4744,1,2
53.36,8.862995,-10.356433,-7.306965400000001,1003.48474,1,2
53.4,9.03988,-12.653914,-4.849806299999999,1003.487,1,2
53.44,11.047429,-11.400311,-3.0886047000000003,1003.5123,1,2
53.48,11.879145,-9.331626,-4.0402174,1003.55786,1,2
53.52,12.236499,-7.820599,-3.3917077000000004,1003.51025,1,2
53.56,12.489815,-6.4049315,-2.0282,1003.49725,1,2
53.6,11.643776,-5.7900457,-1.6778555,1003.535,1,2
53.64,10.195481,-5.956875,-1.9193116,1003.51984,1,2
53.68,9.626672,-5.7328462999999985,-1.5642323,1003.5398,1,2
53.72,9.664896,-5.4611526,-0.5747431,1003.5346,1,2
53.76,9.894312,-5.8758426,0.25377646,1003.5145,1,2
53.8,10.195426,-6.995983,1.0207487,1003.5424,1,2
53.84,10.573018,-8.464082000000001,1.3805623,1003.51733,1,2
53.88,10.157162,-9.894049,2.2232852000000003,1003.55206,1,2
53.92,9.416277,-10.437436,1.8918754,1003.5395,1,2
53.96,8.603698,-10.732963,1.6882948,1003.54736,1,2
54.0,7.5951443,-10.094243,1.3852917,1003.55457,1,2
54.04,7.7911024000000015,-9.9226465,0.736677,1003.55237,1,2
54.08,8.230831,-10.118074,0.6135811999999999,1003.54456,1,2
54.12,7.886670599999999,-9.889279,0.56623596,1003.5395,1,2
54.16,7.408677000000001,-9.646185,0.8360957,1003.517,1,2
54.2,6.185033,-9.345891,1.276394,1003.5145,1,2
54.24,5.0426470000000005,-7.8873253,0.96865654,1003.49695,1,2
54.28,4.330443,-6.614653999999999,0.6372471,1003.5098,1,2
54.32,3.7950904,-6.962612599999999,-0.1486655,1003.49927,1,2
54.36,3.4031336000000003,-7.782459700000001,-0.8635618,1003.492,1,2
54.4,3.6325502,-8.735771000000002,-1.0197985,1003.49695,0,0
54.44,4.440323,-9.107561,-0.98665875,1003.5095,0,0
54.48,5.974627,-9.46982,-0.85883117,1003.502,0,0
54.52,8.589683,-10.079951,-0.1770309,1003.5048,0,0
54.56,11.849515,-8.0208,0.6656936999999999,1003.5044,0,0
54.6,13.2978,-7.7729383,-0.5605166,1003.502,0,0
54.64,11.452804,-7.86827,-5.3659363,1003.512,0,0
54.68,9.96629,-5.675654,-5.493765,1003.5295,0,0
54.72,9.445297,-4.68421,-2.0376492,1003.5424,0,0
54.76,8.226455,-5.9902472,0.3911011,1003.55206,0,0
54.8,7.351756599999999,-6.87206,1.3616546,1003.5295,0,0
54.84,7.2035885,-7.4059149999999985,1.0065747,1003.5196,0,0
54.88,7.31353,-7.7491064,1.0870601,1003.5094,0,0
54.92,7.542967,-7.2009525,1.7120022,1003.5095,0,0
54.96,8.09265,-6.6575656,2.1191616,1003.5199,0,0
55.0,7.9444833,-6.424004599999999,1.0633899,1003.55237,0,0
55.04,7.7724160000000015,-6.3906384,-0.025522552,1003.5145,0,0
55.08,7.4999733,-6.662332000000001,-0.4326808,1003.5346,0,0
55.12,7.131934599999999,-7.229553,-0.40427375,1003.5094,0,0
55.16,6.849932000000001,-7.5679789999999985,-0.2764443,1003.52484,0,0
55.2,6.797361,-7.434514999999997,-0.48475754,1003.55286,0,0
55.24,6.883404,-7.2629194,-0.85404044,1003.55255,0,0
55.28,6.639639999999999,-7.3153515,-1.0339475,1003.53705,0,0
55.32,6.391096,-7.3344183,-1.0576188999999998,1003.48444,0,0
55.36,6.333745,-7.281986,-0.8019603,1003.53705,0,0
55.4,6.1855769999999985,-7.0960902999999975,-0.5983804,1003.51483,0,0
55.44,6.391115,-7.0531917,-0.54630136,1003.5145,0,0
55.48,6.649230499999999,-7.1866555,-0.35692462,1003.52484,0,0
55.52,6.8066163,-7.220013000000002,-0.44217575,1003.5123,0,0
55.56,6.8639660000000005,-7.024584,-0.27647227,1003.52484,0,0
55.6,6.902197,-6.872053599999999,-0.33328587,1003.52484,0,0
55.64,7.0838223,-6.9340186,-0.27173927,1003.5273,0,0
55.68,7.155512,-6.562227,-0.34275597,1003.48926,0,0
55.72,7.1650634,-5.928275,-0.45638245,1003.5295,0,0
55.76,7.231973,-6.104637,-0.6126185000000001,1003.5095,0,0
55.8,7.3753595,-6.7147565,-0.5321343000000001,1003.52234,0,0
55.84,7.566545,-7.2009444,0.021790411000000003,1003.54755,0,0
55.88,7.6334543,-7.024582400000001,0.16855626,1003.52484,0,0
55.92,7.2319429999999985,-6.724289,-0.23860325,1003.53534,0,0
55.96,6.954707000000001,-6.733822,-0.76885724,1003.53,0,0
56.0,6.835203999999999,-6.6194243,-1.0008439,1003.5373,0,0
56.04,6.8351965,-6.724288499999999,-0.93929726,1003.55023,0,0
56.08,7.026382400000001,-6.929250200000001,-0.7972657,1003.51483,0,0
56.12,7.136310000000001,-7.0531807,-0.44692045,1003.5048,0,0
56.16,7.141082300000001,-6.8577520000000005,-0.34749863,1003.5273,0,0
56.2,7.1458545,-6.5574580000000005,-0.48006266,1003.50226,0,0
56.24,6.949875,-6.700454700000001,-0.6362986999999999,1003.5048,0,0
56.28,6.87817,-7.1532774,-0.18653099,1003.52484,0,0
56.32,6.95942,-7.3344064,-0.21967246,1003.51984,0,0
56.36,7.035889,-7.0722460000000025,-0.6931136,1003.52026,0,0
56.4,6.9689646,-6.9101825,-1.1239452,1003.512,0,0
56.44,7.0549936,-6.838684,-1.0339922,1003.5275,0,0
56.48,7.179261,-6.7719520000000015,-0.80674136,1003.5229,0,0
56.52,7.2556663,-6.5812883,-0.73573184,1003.49945,0,0
56.56,7.217417200000001,-6.652786,-0.52741903,1003.54285,0,0
56.6,7.255646,-6.776716,-0.3475125,1003.502,0,0
56.64,7.18394,-6.5669875,-0.39485744,1003.51984,0,0
56.68,7.222167999999999,-6.624186,-0.5321561,1003.51245,0,0
56.72,6.944928999999999,-6.86728,-0.51795375,1003.50494,0,0
56.76,6.92102,-6.843447,-0.5179547000000001,1003.49475,0,0
56.8,6.8827715,-7.043642,-0.41853315,1003.53534,0,0
56.84,6.8110646999999975,-6.9721437,-0.65998864,1003.51025,0,0
56.88,6.7728167,-6.8482127,-0.7783496,1003.49976,0,0
56.92,6.920982,-6.8243800000000014,-0.7499441,1003.52527,0,0
56.96,6.868392,-6.767181,-0.68366355,1003.5095,0,0
57.0,6.8301444,-6.7195160000000005,-0.5511010000000001,1003.5098,0,0
57.04,6.90183,-6.805313000000001,-0.3475226,1003.52527,0,0
57.08,6.9782977,-6.7957797000000015,-0.30017942,1003.4948,0,0
57.12,7.011747,-6.609884,-0.22442983,1003.5048,0,0
57.16,6.9113603,-6.7576466,-0.27650923,1003.51483,0,0
57.2,6.916131,-6.995974499999999,-0.28124446,1003.492,0,0
57.24,7.2363677,-6.7338133,-0.33805823,1003.5199,0,0
57.28,7.786035000000001,-6.519318,-0.5984515,1003.52484,0,0
57.32,7.8003635,-6.5431504,-0.5795148,1003.51483,0,0
57.36,7.6904182,-6.6909137,-0.20076334,1003.49695,0,0
57.4,7.3845015,-6.795778,-0.14868572,1003.52234,0,0
57.44,7.107262599999999,-6.9769063,-0.020857792,1003.5145,0,0
57.48,6.892161,-6.900641,-0.03979634,1003.51733,0,0
57.52,6.893210400000001,-6.8673015,-0.21487318,1003.5199,0,0
57.56,7.007958,-6.619441,-0.5084034000000001,1003.5044,0,0
57.6,7.1131454,-6.8339367,-0.3048211,1003.5324,0,0
57.64,7.23267,-7.0246,-0.17698944,1003.52484,0,0
57.68,7.218362299999999,-6.571778,-0.33795628,1003.5145,0,0
57.72,6.7882137,-6.8911380000000015,-0.30007797,1003.51483,0,0
57.76,6.5396934,-7.0770339999999985,-0.10596469,1003.51495,0,0
57.8,6.7930555,-6.7338433,-0.039680105,1003.4978,0,0
57.84,7.1372304,-6.6718783,-0.30006963,1003.5073,0,0
57.88,7.4001535999999986,-6.6146803,-0.072815135,1003.5098,0,0
57.92,7.557917,-6.743378,0.1497046,1003.5275,0,0
57.96,7.4288917,-6.833943400000001,0.27753627,1003.5145,0,0
58.0,7.0560990000000015,-6.829178,-0.31899583,1003.51746,0,0
58.04,7.266444,-6.4144883,-0.81610525,1003.52234,0,0
58.08,7.639298399999999,-6.3382239999999985,-0.6882735,1003.52234,0,0
58.12,7.5293927,-6.395424,-0.13907991,1003.51776,0,0
58.16,7.343012,-6.5813203,-0.030185718,1003.535,0,0
58.2,7.2139893,-6.48599,-0.25743425,1003.5145,0,0
58.24,7.276159,-6.485991,-0.14854,1003.51245,0,0
58.28,7.1136765,-6.7195525,-0.07752107,1003.52496,0,0
58.32,7.094587299999999,-6.743386,-0.08698712,1003.49976,0,0
58.36,7.046821,-6.7433866999999985,-0.20534438,1003.5095,0,0
58.4,6.9130244,-6.814886,-0.24321614,1003.535,0,0
58.44,6.827013000000001,-6.967417,-0.12011927,1003.517,0,0
58.48,6.994336,-7.029382000000001,-0.45152488,1003.4995,0,0
58.52,7.194124,-6.781498,-0.71673965,1003.5044,0,0
58.56,7.1988964000000015,-6.562236,-0.95346075,1003.51746,0,0
58.6,7.1367509999999985,-6.5574694,-0.71674114,1003.4995,0,0
58.64,7.1606429999999985,-6.643267,-0.25277016,1003.4945,0,0
58.68,7.3183690000000015,-6.719532000000001,-0.039722655,1003.52234,0,0
58.72,7.34704,-6.7052320000000005,0.012355138,1003.5323,0,0
58.76,7.251436999999999,-6.6003675,0.036026478,1003.5273,0,0
58.8,7.3852634,-6.424005,-0.19122571,1003.527,0,0
58.84,7.557328999999997,-6.424004599999999,-0.26224240000000004,1003.5145,0,0
58.88,7.4521656,-6.462137,-0.17702383,1003.5378,0,0
58.92,7.151031,-6.7004647,-0.33325985,1003.5044,0,0
58.96,6.9215927,-6.8196282,-0.2527757,1003.527,0,0
59.0,6.9215856,-6.800562400000001,-0.47529334,1003.5321,0,0
59.04,7.4186773,-6.5384015999999985,-0.37113717,1003.5325,0,0
59.08,7.4043303,-6.4621363,-0.19596489,1003.5073,0,0
59.12,7.1796722000000015,-6.862526400000001,-0.15809032,1003.5098,0,0
59.16,6.8737574000000015,-7.0102897,-0.0681373,1003.5325,0,0
59.2,6.9167666,-6.8386936,-0.22910784,1003.507,0,0
59.24,7.0410357,-6.671864,-0.28592125,1003.5273,0,0
59.28,6.9454327000000005,-6.729062,-0.14862418,1003.512,0,0
59.32,7.0458007,-6.6718636,-0.35693866,1003.5295,0,0
59.36,7.2800035,-6.609897599999999,-0.5605188,1003.5094,0,0
59.4,7.423389999999999,-6.4764339999999985,-0.4042841,1003.522,0,0
59.44,7.447282,-6.6146636,-0.2385806,1003.49677,0,0
59.48,7.4663935,-6.485967,-0.25278452,1003.497,0,0
59.52,7.4851800000000015,-6.3381953,-0.51794165,1003.50684,0,0
59.56,7.528183500000001,-6.3810945,-0.40905163,1003.5169,0,0
59.6,7.537723,-6.4621252999999985,-0.1865365,1003.4819,0,0
59.64,7.4946847,-6.3334274000000015,-0.23861681,1003.5323,0,0
59.68,7.4755397,-6.3858595000000005,-0.30963520000000005,1003.5296,0,0
59.72,7.3130064,-6.6051207,-0.14866729,1003.5269,0,0
59.76,7.136133,-6.8386809999999985,-0.03977785,1003.50684,0,0
59.8,7.0166245,-6.9244785,0.026502527,1003.5319,0,0
59.84,6.8493056,-6.862512599999999,-0.28123605,1003.5296,0,0
59.88,7.112176,-6.6909164999999975,-0.446942,1003.5245,0,0
59.92,7.355931,-6.5669856,-0.57950664,1003.522,0,0
59.96,7.484964,-6.471654,-0.4990238,1003.5243,0,0
60.0,7.432367,-6.4716535,-0.3617278,1003.50684,0,0
60.04,7.121656,-6.7004470000000005,-0.21022910000000009,1003.50183,0,0
60.08,6.8922043,-6.829144,-0.10133964,1003.51685,0,0
60.12,6.968662299999999,-6.786245,-0.035059694,1003.5292,0,0
60.16,7.236310499999999,-6.5526834,-0.12501536,1003.51166,0,0
60.2,7.5469794000000014,-6.2476224999999985,-0.32859638,1003.51666,0,0
60.24,7.5134993,-6.366786,-0.2149726,1003.52435,0,0
60.28,7.4417815,-6.4621167,-0.14395842,1003.51917,0,0
60.32,7.307927,-6.6146455,-0.030334566,1003.5016,0,0
60.36,7.2218703999999985,-6.5765133,-0.22918142,1003.51666,0,0
60.4,7.3174524,-6.409683,-0.21024513,1003.5092,0,0
60.44,7.2170524999999985,-6.562212,-0.24812256,1003.5062,0,0
60.48,7.283948,-6.605111,-0.058748323,1003.5267,0,0
60.52,7.3279495,-6.6003685,-0.08706477,1003.52167,0,0
60.56,7.1654550000000015,-6.767198599999999,-0.11546944,1003.4937,0,0
60.6,7.275409700000001,-6.7338333,-0.18648379,1003.50903,0,0
60.64,7.4188194,-6.4573730000000005,-0.23856081,1003.4962,0,0
60.68,7.4522996,-6.543172,-0.39005983,1003.5291,0,0
60.72,7.294584299999999,-6.7195350000000005,-0.22908832,1003.52155,0,0
60.76,7.318503,-6.681403,-0.43266594,1003.5038,0,0
60.8,7.35676,-6.609905,-0.28589764,1003.51624,0,0
60.84,7.3806787,-6.4478426,-0.20541109,1003.5314,0,0
60.88,7.222963,-6.6003729999999985,-0.03970528,1003.5291,0,0
60.92,7.3233576,-6.5860734,-0.00656271,1003.50635,0,0
60.96,7.285138000000001,-6.543175,0.021845484,1003.5239,0,0
61.0,7.0127070000000025,-6.7100053,-0.058637764,1003.5112,0,0
61.04,6.716378,-6.9483333,0.10706814,1003.5363,0,0
61.08,6.9362674,-6.805337,-0.34269866,1003.53644,0,0
61.12,7.4333844,-6.581309,-0.5652140999999999,1003.5087,0,0
61.16,7.2708910000000015,-6.5241113,-0.3616328,1003.5158,0,0
61.2,7.395185499999997,-6.4287800000000015,-0.4089751,1003.5038,0,0
61.24,7.3426266,-6.60991,-0.2811444,1003.5438,0,0
61.28,7.19925,-6.76244,0.040796727000000005,1003.52356,0,0
61.32,7.237507000000001,-6.719541499999999,0.18756488,1003.51825,0,0
61.36,7.4143789999999985,-6.52888,-0.17698242,1003.51324,0,0
61.4,7.390498,-6.443082,-0.12963676,1003.51605,0,0
61.44,7.2901416,-6.5622463,-0.087025374,1003.50854,0,0
61.48,7.218463400000001,-6.7052436,-0.04441401,1003.501,0,0
61.52,7.113165,-6.810104400000001,-0.049161438,1003.51074,0,0
61.56,7.218332000000001,-6.7624393,-0.15331736,1003.52856,0,0
61.6,7.2326837,-6.757673,-0.20539466,1003.52124,0,0
61.64,7.1323214,-6.8005724,-0.18645577,1003.51825,0,0
61.68,7.1944704,-6.76244,-0.15804829,1003.50854,0,0
61.72,7.2136035,-6.5908446,-0.21012552,1003.5106,0,0
61.76,7.036762,-6.385883,-0.15804596,1003.52856,0,0
61.8,7.0176563,-6.786274400000001,-0.11070073,1003.51843,0,0
61.84,7.0272289999999975,-6.7290754,0.23964636,1003.5336,0,0
61.88,7.380946000000002,-6.514581,-0.12490171,1003.5059,0,0
61.92,7.686866,-6.4192495,-0.2148542,1003.54333,0,0
61.96,7.3283925,-6.5050483,-0.20064996,1003.51324,0,0
62.0,7.0463977,-6.8387080000000005,-0.04914774400000002,1003.51294,0,0
62.04,6.931694,-6.9149723,0.107088685,1003.50336,0,0
62.08,6.8552294000000025,-7.0484366,-0.21958412,1003.51825,0,0
62.12,7.0081954,-6.9769382,-0.07755084,1003.51544,0,0
62.16,7.199401400000001,-6.8291755000000025,-0.06808078,1003.5231,0,0
62.2,7.2472115000000015,-6.929274,-0.48944175,1003.5006,0,0
62.24,7.161187,-6.8863745,-0.2763923,1003.5309,0,0
62.28,6.9365479999999975,-7.0436716,-0.50837713,1003.5282,0,0
62.32,6.864864,-6.929275,-0.19590525,1003.5106,0,0
62.36,6.635445599999999,-7.153303,-0.16749772,1003.5084,0,0
62.4,6.8170910000000005,-6.953108,-0.4373576,1003.5282,0,0
62.44,7.4432573,-6.8625436,-0.105948135,1003.5182,0,0
62.48,7.5723248,-6.7052474,-0.31426078,1003.52795,0,0
62.52,7.6912518,-6.41924,-0.20542148,1003.533,0,0
62.56,7.442692299999999,-6.40494,-0.42320496,1003.54346,0,0
62.6,7.222811,-6.4526057,-0.31904903,1003.498,0,0
62.64,7.112866,-6.643267599999999,-0.0349856,1003.52045,0,0
62.68,7.0268190000000015,-6.8625289999999985,0.22067127,1003.54565,0,0
62.72,6.840397,-7.2343199999999985,0.3532337,1003.5259,0,0
62.76,6.6444154000000015,-7.2915187,0.1117782,1003.5202,0,0
62.8,6.6348452999999985,-7.2581525,-0.08706778,1003.523,0,0
62.84,6.5010014000000025,-7.0865564,-0.4326802,1003.5229,0,0
62.88,6.6109266,-6.953092,-0.6978076999999999,1003.51526,0,0
62.92,6.7160726,-7.077023,-0.74041826,1003.5253,0,0
62.96,6.682603,-7.196186,-0.51790226,1003.5331,0,0
63.0,6.5726580000000006,-7.3248835,-0.28118286,1003.5229,0,0
63.04,6.634786599999999,-7.2724509999999984,-0.42321584,1003.5331,0,0
63.08,6.716033,-7.277217,-0.42795122,1003.53796,0,0
63.12,6.701683,-7.372547999999999,-0.2811856,1003.51807,0,0
63.16,6.8259473,-7.019823,-0.4895004,1003.5282,0,0
63.2,7.060148700000001,-6.7671947,-0.61259574,1003.5202,0,0
63.24,7.3469257,-6.4192357000000015,-0.7925041,1003.5052,0,0
63.28,7.452072,-6.352504,-0.5794566999999999,1003.533,0,0
63.32,7.5237593999999985,-6.424002,-0.29539340000000003,1003.51483,0,0
63.36,7.4759509999999985,-6.667095699999999,0.07862363,1003.5277,0,0
63.4,7.346886599999999,-6.8482246,0.19224845,1003.5253,0,0
63.44,7.2130413,-6.8386917,0.08809057599999999,1003.5328,0,0
63.48,6.978822,-6.9626217000000015,-0.08234881,1003.5256,0,0
63.52,6.7832589999999975,-7.167594,-0.2574844,1003.52277,0,0
63.56,6.682889,-7.1389947,-0.3474375,1003.5327,0,0
63.6,6.544281,-7.367789299999999,-0.6362357,1003.5202,0,0
63.64,6.6351036999999975,-7.4440546,-0.8161425,1003.55286,0,0
63.68,6.845421000000001,-7.1675944000000005,-0.8776892,1003.5028,0,0
63.72,6.898005,-6.9387994000000015,-0.93923587,1003.51483,0,0
63.76,6.43437,-7.377323599999999,-0.3569035,1003.5303,0,0
63.8,6.051992,-7.486953999999999,0.040787067,1003.5303,0,0
63.84,6.080677,-7.4392886,0.21122618,1003.51495,0,0
63.88,6.8645710000000015,-7.1580619999999975,-0.10124394,1003.5427,0,0
63.92,7.500291000000002,-6.7719710000000015,-0.7025128,1003.5028,0,0
63.96,8.011737,-6.53841,-1.261172,1003.48486,0,0
64.0,7.9400460000000015,-6.4812117,-1.0244511,1003.5277,0,0
64.04,7.462072,-6.7290725999999985,-0.6930421999999999,1003.5351,0,0
64.08,7.151389999999999,-6.7529054,-0.23853885,1003.51776,0,0
64.12,6.9649844,-6.73384,-0.19592863,1003.5028,0,0
64.16,6.831156299999999,-6.957868,-0.20066245,1003.51276,0,0
64.2,6.87896,-6.9817009999999975,-0.120176986,1003.52234,0,0
64.24,6.998462,-6.8291710000000005,-0.16278605,1003.5023,0,0
64.28,6.883753,-6.814872,-0.3284897,1003.5074,0,0
64.32,6.769044,-7.0484333,-0.21012898,1003.52277,0,0
64.36,6.6160960000000015,-7.153298,-0.25273806,1003.52783,0,0
64.4,6.4918275,-7.200963000000002,-0.42791045,1003.512,0,0
64.44,6.444036,-7.0770326,-0.640958,1003.5145,0,0
64.48,6.434482599999999,-7.0484333,-0.71197355,1003.5199,0,0
64.52,6.443887,-7.448819999999999,-0.4563299,1003.52527,0,0
64.56,6.639859,-7.281991499999997,-0.5699556,1003.50433,0,0
64.6,6.9170880000000015,-6.934033,-0.80667585,1003.5353,0,0
64.64,7.1990967,-6.6671047,-1.0575993,1003.517,0,0
64.68,7.1417384,-6.7576694,-0.9108327,1003.50244,0,0
64.72,7.160858,-7.0198307,-0.23381285,1003.5195,0,0
64.76,7.256454,-6.9054337,-0.063374296,1003.52246,0,0
64.8,7.2899127,-6.738604,-0.2669537,1003.4945,0,0
64.84,7.352050299999997,-6.624206,-0.6172996000000001,1003.507,0,0
64.88,7.375949,-6.7338369999999985,-0.50840837,1003.5093,0,0
64.92,7.428527000000001,-6.6623387,-0.6977845,1003.51184,0,0
64.96,7.428527000000001,-6.5765410000000015,-0.8966296,1003.51434,0,0
65.0,7.184757,-6.814869,-0.551018,1003.517,0,0
65.04,6.921867999999999,-7.024597,-0.27642247,1003.502,0,0
65.08,6.8453913,-7.1771274000000025,-0.2148752,1003.512,0,0
65.12,6.7593546,-7.086562599999999,-0.35217297,1003.5271,0,0
65.16,6.701997,-7.096095599999999,-0.3805794,1003.49677,0,0
65.2,6.5633826,-7.1866603000000016,-0.42318904,1003.517,0,0
65.24,6.4725660000000005,-7.215259599999999,-0.39004824,1003.497,0,0
65.28,6.3148327,-7.2962914,-0.42318904,1003.4995,0,0
65.32,6.357851,-7.258158,-0.46106425,1003.48395,0,0
65.36,6.6016207,-7.115162,-0.47053307,1003.48395,0,0
65.4,6.687657400000001,-7.0436630000000005,-0.51314276,1003.4965,0,0
65.44,6.883629300000001,-7.0436630000000005,-0.54154915,1003.50653,0,0
65.48,7.055702,-7.010298,-0.6125651999999999,1003.48395,0,0
65.52,7.194895,-6.876848,-0.58884025,1003.4945,0,0
65.56,7.2713933000000015,-6.814883,-0.4041965,1003.5067,0,0
65.6,7.204499,-6.891149,-0.39946002,1003.52435,0,0
65.64,7.2427616,-6.776752,-0.49414593,1003.51184,0,0
65.68,7.414855999999999,-6.657588499999999,-0.46573746,1003.4967,0,0
65.72,7.457897,-6.595624000000001,-0.3947194000000001,1003.52167,0,0
65.76,7.448359,-6.543192,-0.33790448,1003.49164,0,0
65.8,7.247631500000002,-6.8005869999999975,-0.2148078,1003.51404,0,0
65.84,7.147276400000001,-6.8530197,-0.10591453,1003.49646,0,0
65.88,7.066043400000001,-6.8482537,-0.30002305,1003.49927,0,0
65.92,6.8939910000000015,-6.8339543,-0.44678763,1003.5067,0,0
65.96,6.827098,-7.0532165,-0.4373166,1003.5166,0,0
66.0,6.7458644,-7.119949,-0.4373145000000001,1003.46893,0,0
66.04,6.702866,-7.1390160000000025,-0.6266889,1003.49396,0,0
66.08,6.6550922,-7.1771493,-0.6550931,1003.47894,0,0
66.12,6.6933536999999985,-7.1676164,-0.56513727,1003.5092,0,0
66.16,6.7937493,-7.1580834000000015,-0.39469692,1003.4813,0,0
66.2,6.8941493000000005,-7.019854,-0.45624197,1003.4988,0,0
66.24,6.994547,-6.9531226,-0.50358397,1003.50653,0,0
66.28,7.0280270000000025,-6.824426,-0.46570683,1003.499,0,0
66.32,6.980252,-6.853026400000001,-0.41362628,1003.5067,0,0
66.36,6.9993940000000014,-6.948358,-0.23845123,1003.50385,0,0
66.4,7.0806746,-6.819661,-0.31893390000000005,1003.49365,0,0
66.44,7.037678,-6.8387284,-0.48937047,1003.5112,0,0
66.48,7.061597999999999,-6.876861,-0.51304054,1003.49115,0,0
66.52,7.047154400000001,-6.9006915,-0.52251893,1003.47864,0,0
66.56,7.0328326,-6.938824,-0.5414549,1003.4914,0,0
66.6,6.9898314,-6.886392599999999,-0.49410933,1003.5014,0,0
66.64,6.9802895000000005,-6.8816266000000015,-0.64087427,1003.48083,0,0
66.68,6.870371,-7.0389233,-0.503575,1003.504,0,0
66.72,6.8656087,-6.853028,-0.45149496,1003.4937,0,0
66.76,6.9516625,-6.8816276,-0.39468047,1003.48865,0,0
66.8,6.8656440000000005,-6.9626594,-0.42781964,1003.4708,0,0
66.84,6.832202400000001,-6.9483604,-0.2715828,1003.5112,0,0
66.88,6.946936599999999,-6.8816289999999976,-0.38047236,1003.4909,0,0
66.92,6.99475,-6.8577967000000015,-0.47515905,1003.48615,0,0
66.96,7.0186677,-6.9626613,-0.46095404,1003.4963,0,0
67.0,6.927868400000001,-6.905462700000001,-0.513031,1003.49585,0,0
67.04,6.951785000000001,-6.938828999999999,-0.55563897,1003.4909,0,0
67.08,6.975702,-6.857798,-0.4325429,1003.4909,0,0
67.12,6.9948373,-6.93883,-0.3757285,1003.5014,0,0
67.16,7.042658,-7.072294,-0.39939845,1003.51874,0,0
67.2,7.0331116,-7.2152910000000015,-0.31891242,1003.48334,0,0
67.24,7.0379086,-6.9292984,-0.41833326,1003.48334,0,0
67.28,7.143081,-6.805368400000001,-0.6124423999999999,1003.5007,0,0
67.32,7.143099,-7.0722960000000015,-0.5461590000000001,1003.5109,0,0
67.36,7.1909137,-7.2105265,-0.3378437,1003.48035,0,0
67.4,7.2578497,-7.034165,-0.3662484,1003.48584,0,0
67.44,7.224409,-6.967433,-0.6077014000000001,1003.51874,0,0
67.48,7.162288,-7.081831,-0.5082774,1003.51373,0,0
67.52,7.1856585000000015,-7.1819158,-0.35209045,1003.4884,0,0
67.56,7.29559,-7.2248144,-0.37576285,1003.52625,0,0
67.6,7.3194865999999985,-7.153316499999999,-0.44204473,1003.49585,0,0
67.64,7.2238855,-7.1628485,-0.48938918,1003.5058,0,0
67.68,7.1952043,-7.1962147,-0.4325766,1003.49835,0,0
67.72,7.161740299999999,-7.3725777,-0.5698748,1003.4984,0,0
67.76,7.214316,-7.334445,-0.4278429,1003.4957,0,0
67.8,7.290789,-7.2486467,-0.41364002,1003.49866,0,0
67.84,7.3577023,-7.1676154000000025,-0.5935477,1003.5059,0,0
67.88,7.2907804999999986,-7.272479,-0.5462041,1003.49036,0,0
67.92,7.262098,-7.4059424,-0.38996914,1003.5208,0,0
67.96,7.3720293,-7.382109599999999,-0.37576625,1003.47833,0,0
68.0,7.3768053,-7.305845,-0.5177987000000001,1003.4984,0,0
68.04,7.376802,-7.301077999999999,-0.5651431,1003.5009,1,3
68.08,7.386358,-7.258178999999997,-0.49412745,1003.4658,1,3
68.12,7.3720145000000015,-7.291544999999997,-0.5367373000000001,1003.4854,1,3
68.16,7.352892,-7.282012,-0.5651441999999999,1003.51825,1,3
68.2,7.3767877,-7.3249106,-0.47045624,1003.4929,1,3
68.24,7.372004,-7.334444,-0.47992557,1003.4954,1,3
68.28,7.2955227,-7.405942,-0.4751914,1003.47034,1,3
68.32,7.281179400000001,-7.310611,-0.47519177,1003.4954,1,3
68.36,7.3958917,-7.348743400000001,-0.62195873,1003.4879,1,3
68.4,7.3576493,-7.305844,-0.6645687,1003.47546,1,3
68.44,7.367205599999999,-7.320144,-0.59828734,1003.48285,1,3
68.48,7.362421,-7.343976,-0.58408445,1003.48285,1,3
68.52,7.414607000000001,-7.315367,-0.53677636,1003.46783,1,3
68.56,7.4002485,-7.377332000000001,-0.44209,1003.47034,1,3
68.6,7.390671,-7.3487325,-0.49890447,1003.46027,1,3
68.64,7.400213000000001,-7.315366,-0.57939094,1003.4728,1,3
68.68,7.404974,-7.234334,-0.62200236,1003.46027,1,3
68.72,7.443192999999999,-7.320132000000001,-0.5415191999999999,1003.43756,1,3
68.76,7.4383955,-7.301064500000002,-0.6030681,1003.4401,1,3
68.8,7.3523393,-7.343963599999999,-0.6409451999999999,1003.4225,1,3
68.84,7.361879300000001,-7.329663,-0.52258676,1003.4401,1,3
68.88,7.4383383,-7.2200317,-0.5509949000000001,1003.4149,1,3
68.92,7.4239798,-7.172366,-0.57940304,1003.4226,1,3
68.96,7.404841999999999,-7.134233,-0.56046724,1003.43256,1,3
69.0,7.342689,-7.186665,-0.50365573,1003.4226,1,3
69.04,7.333108,-7.1294656000000005,-0.50365776,1003.4153,1,3
69.08,7.299630599999999,-7.0770326,-0.4941907,1003.41455,1,3
69.12,7.2948312999999985,-7.0722666,-0.44211397,1003.41,1,3
69.16,7.184877,-7.0484333,-0.5178661,1003.41254,1,3
69.2,7.2183175,-7.038899400000001,-0.46105495,1003.405,1,3
69.24,7.1561613,-7.053198299999999,-0.5320727,1003.38257,1,3
69.28,7.1179039999999985,-7.015065700000001,-0.56994975,1003.405,1,3
69.32,7.098765400000001,-6.919734,-0.5036698000000001,1003.37756,1,3
69.36,7.065289,-7.1818943,-0.54628104,1003.3721,1,3
69.4,7.0557113,-7.024597,-0.39951614,1003.3746,1,3
69.44,7.318582000000001,-6.991231,-0.55101883,1003.3723,1,3
69.48,7.2659845,-6.995997,-0.5462861999999999,1003.367,1,3
69.52,7.1762476,-6.9245253,-0.6834852,1003.3625,1,3
69.56,7.090234,-7.0389233,-0.6361391,1003.3525,1,3
69.6,7.128496000000001,-6.8577943,-0.5319799,1003.35205,1,3
69.64,7.1858770000000005,-6.8577949999999985,-0.57932186,1003.365,1,3
69.68,7.123763,-6.9721932,-0.465694,1003.33466,1,3
69.72,7.0903300000000025,-6.9149947,-0.41834757,1003.3547,1,3
69.76,7.056893,-6.838731,-0.4798929,1003.34247,1,3
69.8,6.985221000000001,-6.738633,-0.58404744,1003.337,1,3
69.84,6.9326672999999985,-6.733867,-0.48935717,1003.3349,1,3
69.88,6.9231320000000025,-6.857798599999999,-0.51776135,1003.33215,1,3
69.92,6.9661740000000005,-6.9292974,-0.43727434,1003.33246,1,3
69.96,7.0139966000000005,-6.7958339999999975,-0.43253773,1003.3274,1,3
70.0,7.0713754,-6.8244348,-0.57930225,1003.31195,1,3
70.04,6.9375649999999975,-6.8625674,-0.5745657,1003.30695,1,3
70.08,6.966267599999999,-6.948366,-0.42779696,1003.3174,1,3
70.12,7.066667999999999,-6.967433,-0.40885714,1003.3271,1,3
70.16,7.0714710000000025,-6.853036,-0.5035430999999999,1003.2998,1,3
70.2,7.0523753,-6.8435035000000015,-0.5508850000000001,1003.29706,1,3
70.24,7.0093809999999985,-6.814905,-0.57455486,1003.2869,1,3
70.28,7.061984,-6.867337700000001,-0.43725476,1003.30164,1,3
70.32,7.0667853,-6.938836,-0.3851744,1003.28705,1,3
70.36,7.066808999999999,-6.8149070000000025,-0.49879795,1003.26404,1,3
70.4,6.9855766,-6.776775,-0.52720207,1003.26666,1,3
70.44,6.8900046,-6.9007053,-0.6076848000000001,1003.2565,1,3
70.48,6.8804674,-6.853040700000001,-0.49879146,1003.26666,1,3
70.52,7.065937,-6.7243204,-0.43733048,1003.249,1,3
70.56,6.951208,-6.857784,-0.43733174,1003.2491,1,3
70.6,6.8269186,-6.881616,-0.40419215,1003.23395,1,3
70.64,6.8794827000000005,-7.010313000000001,-0.41839668,1003.2495,1,3
70.68,6.9272676,-6.967414,-0.31897536,1003.2593,1,3
70.72,7.03719,-6.9721800000000025,-0.46100864,1003.22394,1,3
70.76,6.998937,-6.962646,-0.5841046,1003.22894,1,3
70.8,7.032383,-7.005545,-0.5983089,1003.2395,1,3
70.84,7.027589,-6.9340463,-0.53676295,1003.23145,1,3
70.88,7.037134599999999,-6.9149794999999985,-0.56990504,1003.2116,1,3
70.92,7.0658,-6.8768473,-0.45628062,1003.23914,1,3
70.96,7.0562277,-6.938812,-0.37106252,1003.2069,1,3
71.0,6.9606166,-6.991243400000001,-0.4468144,1003.2065,1,3
71.04,6.898466,-6.8482466,-0.5083629,1003.20386,1,3
71.08,6.9749293,-6.8005805,-0.62672424,1003.2047,1,3
71.12,6.8888783,-6.819647,-0.47049016,1003.1711,1,3
71.16,6.8123875,-6.9245104999999985,-0.39474097,1003.18396,1,3
71.2,6.850612,-6.9960084,-0.45155507,1003.1789,1,3
71.24,6.912737400000001,-6.8530115999999985,-0.5320411,1003.1787,1,3
71.28,6.946182,-6.8053455000000005,-0.51783913,1003.1789,1,3
71.32,6.9652863,-6.914975599999999,-0.4326212,1003.1461,1,3
71.36,7.075207700000001,-7.0246067,-0.44209132,1003.1561,1,3
71.4,7.0943136,-6.862543,-0.44682693,1003.1288,1,3
71.44,7.079961999999999,-6.8387103000000025,-0.51784414,1003.1762,1,3
71.48,6.974792,-6.843476299999999,-0.49890786,1003.13873,1,3
71.52,6.9421577,-6.9674273,-0.5793172,1003.10077,1,3
71.56,6.946955,-7.0293927,-0.36626738,1003.11346,1,3
71.6,7.0377902999999975,-6.8244314,-0.4088753,1003.131,1,3
71.64,7.033028599999999,-6.748167,-0.4325457,1003.12616,1,3
71.68,6.927892,-6.762467,-0.3804655,1003.1186,1,3
71.72,6.803634,-6.9340634,-0.36626074,1003.10846,1,3
71.76,6.923149,-6.9197645,-0.44200936,1003.08344,1,3
71.8,7.0522240000000025,-6.853033,-0.44200754,1003.04834,1,3
71.84,6.9709850000000015,-6.8482666,-0.5461628000000001,1003.09357,1,3
71.88,6.951884700000001,-6.919766,-0.56036425,1003.11115,1,3
71.92,6.956682700000001,-6.9197664,-0.53669065,1003.10596,1,3
71.96,7.0236187,-6.981732000000001,-0.49407923,1003.033,1,3
72.0,7.066655,-6.957899,-0.48460877,1003.05334,1,3
72.04,7.0810146,-6.867336,-0.5508886,1003.04584,1,3
72.08,6.9902177,-7.0627646,-0.5366835999999999,1003.05585,1,3
72.12,6.9902368,-7.0150995,-0.46093136,1003.04785,1,3
72.16,7.1336474,-6.957901,-0.57929003,1003.04803,1,3
72.2,7.1958046,-6.967435000000001,-0.54614735,1003.03827,1,3
72.24,6.966392999999999,-6.881637,-0.60769284,1003.01807,1,3
72.28,6.899494,-6.857805,-0.63609767,1003.0106,1,3
72.32,6.956869,-6.795839999999999,-0.612424,1003.0129,1,3
72.36,7.0763845000000005,-6.748175,-0.4419835999999999,1002.9901,1,3
72.4,7.10986,-6.7434087,-0.48932612,1003.0232,1,3
72.44,7.181576700000001,-6.6337785999999985,-0.5414026999999999,1003.01825,1,3
72.48,7.0955586,-6.6480784,-0.42777538,1002.9705,1,3
72.52,7.014193,-6.786307000000001,-0.38517568,1002.9705,1,3
72.56,6.9138308,-6.886404,-0.36150244,1002.9829,1,3
72.6,6.923404,-7.091367,-0.45145488,1002.9957,1,3
72.64,6.8373814,-7.148565299999999,-0.5603449,1002.96576,1,3
72.68,6.8230553,-7.053234599999999,-0.7355166,1002.948,1,3
72.72,6.9330044000000015,-6.97697,-0.83967227,1002.97284,1,3
72.76,7.009494,-6.8959394,-0.8159991,1002.9678,1,3
72.8,6.9569306,-6.9722047000000025,-0.60768396,1002.9652,1,3
72.84,7.038202,-6.957905,-0.4751193,1002.9577,1,3
72.88,7.1099114000000005,-6.75771,-0.4987902,1002.97046,1,3
72.92,7.0143304,-6.7434106,-0.5035233,1002.938,1,3
72.96,6.9617662,-6.700512,-0.62661654,1002.9325,1,3
73.0,6.9569993000000006,-6.743411,-0.58874005,1002.938,1,3
73.04,6.976133,-6.8864083,-0.47984743,1002.92505,1,3
73.08,6.985705,-6.819676400000001,-0.546128,1002.9254,1,3
73.12,6.923583,-6.8053775,-0.5840018,1002.91504,1,3
73.16,6.813661,-6.9912734,-0.5461253,1002.9354,1,3
73.2,6.8041142999999975,-7.019873,-0.52718645,1002.9329,1,3
73.24,7.0383387000000015,-6.957908,-0.55559164,1002.9176,1,3
73.28,7.0622506,-6.919776400000001,-0.7307634,1002.89264,1,3
73.32,7.009687,-6.953142,-0.54612035,1002.8979,1,3
73.36,6.9858017000000014,-6.953142,-0.51297826,1002.90295,1,3
73.4,7.0288343,-6.8196793000000016,-0.5887274,1002.8849,1,3
73.44,7.0336275,-6.8435125,-0.53664774,1002.89264,1,3
73.48,7.1244583,-6.8959455,-0.46089593,1002.90515,1,3
73.52,7.094828999999999,-6.8244232999999985,-0.44677976,1002.87225,1,3
73.56,6.9848675999999985,-6.667126,-0.5888142,1002.86707,1,3
73.6,6.9083686,-6.7386240000000015,-0.58881634,1002.85223,1,3
73.64,6.965702,-6.8291883,-0.31895748,1002.8421,1,3
73.68,6.975238,-6.99125,-0.4183821,1002.85974,1,3
73.72,6.951316,-6.9435844,-0.44679067,1002.8295,1,3
73.76,6.941732000000001,-6.767221000000001,-0.65510666,1002.8879,1,3
73.8,6.8891315,-6.8482523,-0.7687344,1002.8395,1,3
73.84,6.879546,-7.04368,-0.39945316,1002.8297,1,3
73.88,7.0276966,-7.1056447,-0.32843935,1002.8195,1,3
73.92,7.132831,-6.934048,-0.46100459,1002.83734,1,3
73.96,7.013306,-6.905449000000001,-0.479945,1002.8395,1,3
74.0,6.9415894,-7.000779,-0.46100911,1002.8195,1,3
74.04,7.0610614,-6.986478999999999,-0.47048002,1002.817,1,3
74.08,7.056259599999999,-6.8959136,-0.40893483,1002.8045,1,3
74.12,7.1470512999999976,-6.829181,-0.35212418,1002.8022,1,3
74.16,7.0131945999999985,-6.781515,-0.41367352,1002.78217,1,3
74.2,6.9605913,-6.8101134000000005,-0.47995746,1002.81964,1,3
74.24,6.9032106,-6.9531097000000015,-0.28111458,1002.7873,1,3
74.28,6.9175262,-6.872078,-0.31899208,1002.79193,1,3
74.32,6.9605190000000015,-6.8053455000000005,-0.49890178,1002.7895,1,3
74.36,6.8887987000000015,-6.8434777,-0.41841894,1002.7669,1,3
74.4,6.8075213,-7.081804300000001,-0.32373282,1002.79974,1,3
74.44,6.950889599999999,-7.048438000000001,-0.40421999,1002.7441,1,3
74.48,7.108598700000001,-6.929274,-0.47523826,1002.7716,1,3
74.52,7.0663276,-6.9245256999999985,-0.5367172,1002.7816,1,3
74.56,7.004196,-6.962658,-0.48463815,1002.7468,1,3
74.6,7.0233216,-6.967425,-0.47516882,1002.7265,1,3
74.64,7.0376678,-6.9054600000000015,-0.46569943,1002.7442,1,3
74.68,7.0472326,-6.957892,-0.39468285,1002.75684,1,3
74.72,7.0472392999999975,-6.8911605,-0.41835427,1002.7441,1,3
74.76,6.9516497,-6.9578924,-0.44202572,1002.7192,1,3
74.8,6.903857,-6.8291955,-0.40414992,1002.7368,1,3
74.84,7.028139,-6.738631,-0.4562278,1002.7362,1,3
74.88,7.0520463000000015,-6.853028299999999,-0.5083055000000001,1002.71936,1,3
74.92,6.9707937000000015,-6.8148966,-0.4325546,1002.71906,1,3
74.96,6.913442,-6.8625617,-0.41835082,1002.72186,1,3
75.0,6.951687,-6.791064,-0.49883515,1002.729,1,3
75.04,6.956473,-6.8863949999999985,-0.4088809000000001,1002.72186,1,3
75.08,6.9564786,-7.015092,-0.41834915,1002.7245,1,3
75.12,7.099881,-6.9197617,-0.5414429000000001,1002.67413,1,3
75.16,7.061649000000001,-6.8816289999999976,-0.5840519000000001,1002.6991,1,3
75.2,7.004296000000001,-6.895929,-0.63613003,1002.68365,1,3
75.24,7.023421300000001,-6.843497,-0.5509102,1002.66614,1,3
75.28,7.037767999999999,-6.9102286999999984,-0.35206446,1002.66156,1,3
75.32,7.080794,-6.7576990000000015,-0.28578216,1002.6966,1,3
75.36,7.181174799999999,-6.6528344,-0.4372826,1002.67645,1,3
75.4,7.1620607000000005,-6.5908704,-0.31418765,1002.684,1,3
75.44,7.0760317,-6.7529330000000005,-0.43728146,1002.6641,1,3
75.48,7.052138,-6.776766,-0.42781222,1002.6561,1,3
75.52,7.043363,-6.7767854000000005,-0.446678,1002.64355,1,3
75.56,6.943023700000001,-6.7910857,-0.5413627,1002.6486,1,3
75.6,6.8618016000000015,-6.891184299999999,-0.41353062,1002.66425,1,3
75.64,6.900067999999999,-6.9150176,-0.36144966,1002.6489,1,3
75.68,6.9765880000000005,-6.948385000000001,-0.295164,1002.65894,1,3
75.72,7.0148660000000005,-6.9245524000000005,-0.34723884,1002.6265,1,3
75.76,6.981435,-6.872121300000001,-0.29042348,1002.61584,1,3
75.8,7.043604400000001,-7.010352,-0.5318752,1002.6214,1,3
75.84,7.1296887,-6.9579214999999985,-0.4655891,1002.6186,1,3
75.88,7.2014203,-6.795859299999999,-0.56500846,1002.61096,1,3
75.92,7.2157965,-6.767261,-0.57920825,1002.6161,1,3
75.96,7.1536937000000025,-6.776795,-0.5034546,1002.62604,1,3
76.0,7.0963726,-6.9293255999999985,-0.37088796,1002.601,1,3
76.04,7.1967874000000025,-6.762497,-0.32827476,1002.5807,1,3
76.08,7.115565299999999,-6.657634,-0.48450696,1002.58856,1,3
76.12,7.048685000000001,-6.748199499999999,-0.49870682,1002.5857,1,3
76.16,7.0104814,-6.881664,-0.53184444,1002.5715,1,3
76.2,6.9770617,-6.7911,-0.37087113,1002.5808,1,3
76.24,6.9866550000000025,-6.786334,-0.39927438,1002.571,1,3
76.28,6.967573599999999,-6.7148369999999975,-0.3471926,1002.5582,1,3
76.32,7.0440845,-6.7720366,-0.47501832,1002.571,1,3
76.36,7.029782300000001,-6.9579330000000015,-0.25723237,1002.5684,1,3
76.4,7.2162313,-6.776805,-0.38505796,1002.5784,1,3
76.44,7.254506,-6.6481085,-0.60283715,1002.55597,1,3
76.48,7.0729103,-6.7339077000000005,-0.57442737,1002.55347,1,3
76.52,6.985939,-6.910247,-0.41354322,1002.5459,1,3
76.56,7.1197724,-6.819682000000001,-0.3851369,1002.54816,1,3
76.6,7.12933,-6.7005186000000005,-0.4230123,1002.5408,1,3
76.64,7.0241737,-6.78155,-0.5319036,1002.5234,1,3
76.68,6.981153999999999,-6.810149000000001,-0.41827807,1002.55096,1,3
76.72,6.962034,-6.76725,-0.3141213,1002.5284,1,3
76.76,7.0098305,-6.772017,-0.34726223,1002.50775,1,3
76.8,7.014609,-6.7005186000000005,-0.41354403,1002.49066,1,3
76.84,7.0910845,-6.6004205,-0.4561538,1002.4929,1,3
76.88,6.957248700000001,-6.891181,-0.399341,1002.5309,1,3
76.92,7.000266000000001,-6.857815,-0.2289026,1002.48785,1,3
76.96,7.1962366,-6.7291174,-0.41827887,1002.5007,1,3
77.0,7.143657000000001,-6.872114,-0.5034983000000001,1002.498,1,3
77.04,6.985923,-6.934079,-0.33305985,1002.49304,1,3
77.08,7.01938,-6.8864136,-0.34252873,1002.4755,1,3
77.12,7.1579933,-6.8578142999999985,-0.38987294,1002.4702,1,3
77.16,7.153212,-6.8530482999999975,-0.24784093,1002.46765,1,3
77.2,7.138871000000001,-6.7815495,-0.446686,1002.4526,1,3
77.24,7.0623937,-6.9054800000000025,-0.31412277,1002.46783,1,3
77.28,7.1054106,-6.757716,-0.24310683,1002.45807,1,3
77.32,7.1245284,-6.733884,-0.29991978,1002.44507,1,3
77.36,7.04327,-6.6433196,-0.24310707,1002.4628,1,3
77.4,6.971572,-6.881647,-0.24784158,1002.43,1,3
77.44,6.9667910000000015,-6.8959470000000005,-0.120012775,1002.4508,1,3
77.48,7.124523599999999,-6.710050999999999,-0.2951858,1002.4376,1,3
77.52,7.153685,-6.676697,-0.3472201,1002.4281,1,3
77.56,7.029428,-6.824461,-0.21465515,1002.42053,1,3
77.6,7.043784,-6.8435273,-0.25726327,1002.4002,1,3
77.64,7.2110963,-6.8578277000000005,-0.22885512,1002.39996,1,3
77.68,7.249351499999999,-6.7338977,-0.26199445,1002.4178,1,3
77.72,7.2111306,-6.7434306,-0.39929053,1002.4203,1,3
77.76,7.16335,-6.738664599999999,-0.29986638,1002.3954,1,3
77.8,7.163367299999999,-6.8006306,-0.28566155,1002.3901,1,3
77.84,7.182503,-6.743432,-0.21464397,1002.35736,1,3
77.88,7.21598,-6.657634700000001,-0.23831438,1002.3852,1,3
77.92,7.172979400000001,-6.624269,-0.23357834,1002.3525,1,3
77.96,6.9961443,-6.7815657000000025,-0.1909671,1002.3398,1,3
78.0,7.0917573,-6.7672668000000025,-0.13415271,1002.35986,1,3
78.04,7.216048700000001,-6.6004369999999986,-0.20043285,1002.32733,1,3
78.08,7.239967,-6.6528697,-0.25724400000000003,1002.34247,1,3
78.12,7.0201125,-6.8435326000000005,-0.24777366,1002.3499,1,3
78.16,6.9962306,-6.8292335999999985,-0.2288344,1002.33936,1,3
78.2,7.1061845,-6.795868,-0.26670805,1002.31964,1,3
78.24,7.1731195,-6.7863355,-0.3803321,1002.31476,1,3
78.28,7.2591724000000015,-6.8769007,-0.37559617,1002.3249,1,3
78.32,7.3069882,-6.7768035000000015,-0.41346976,1002.31726,1,3
78.36,7.2305293000000015,-6.652873,-0.43240577,1002.3223,1,3
78.4,7.2448864,-6.6767062999999975,-0.4039977,1002.3099,1,3
78.44,7.1540865999999985,-6.662407400000001,-0.23829205,1002.3121,1,3
78.48,7.1158657000000005,-6.676707,-0.29510325,1002.3223,1,3
78.52,7.0291047,-6.8482850000000015,-0.2572944,1002.28955,1,3
78.56,7.1868277,-6.805386500000001,-0.24309216,1002.29974,1,3
78.6,7.330210000000001,-6.657622999999999,-0.2620308,1002.2767,1,3
78.64,7.201144,-6.5813574999999975,-0.5034865,1002.2644,1,3
78.68,6.9621425000000015,-6.7386537,-0.5366283000000001,1002.2569,1,3
78.72,6.9430118,-6.7720194000000005,-0.5366294,1002.2693,1,3
78.76,7.1533127000000025,-6.7052869999999976,-0.52242714,1002.2294,1,3
78.8,7.287136,-6.6051892999999975,-0.51769376,1002.2292,1,3
78.84,7.177189,-6.724353,-0.42300677,1002.28705,1,3
78.88,7.1102614,-6.805383999999999,-0.45141414,1002.2194,1,3
78.92,7.1293683,-6.8482823,-0.51769686,1002.242,1,3
78.96,7.296651,-6.762484599999999,-0.48929143,1002.2317,1,3
79.0,7.4256945,-6.476491,-0.8349040999999999,1002.22186,1,3
79.04,7.287068400000001,-6.5622880000000015,-0.79702985,1002.2068,1,3
79.08,7.138883,-6.7958493,-0.47035694,1002.2468,1,3
79.12,7.1293125,-6.7481839999999975,-0.35199782,1002.2245,1,3
79.16,7.1532,-6.724351,-0.45142138,1002.21936,1,3
79.2,7.081492999999999,-6.671918400000001,-0.5792512,1002.1916,1,3
79.24,6.990665400000001,-6.819681,-0.5082362,1002.2242,1,3
79.28,7.0336723,-6.7052830000000005,-0.5934564999999999,1002.1966,1,3
79.32,7.014542,-6.648084599999999,-0.67394245,1002.19934,1,3
79.36,6.938053,-6.562286,-0.65974027,1002.1916,1,3
79.4,7.0240784,-6.6194844,-0.5366468000000001,1002.1816,1,3
79.44,7.157902,-6.552753,-0.44669417,1002.19385,1,3
79.48,7.3443027,-6.5050870000000005,-0.4514295999999999,1002.1612,1,3
79.52,7.181682,-6.6099479999999975,-0.38042337,1002.16644,1,3
79.56,6.985695,-6.6909795,-0.5177224,1002.15906,1,3
79.6,6.9761205,-6.8196759999999985,-0.47984862,1002.1637,1,3
79.64,7.1864165999999985,-6.5813479999999975,-0.71183586,1002.1212,1,3
79.68,7.368034,-6.4049845,-0.84440064,1002.14655,1,3
79.72,6.985633999999999,-6.562281,-0.74497944,1002.13654,1,3
79.76,6.737071,-6.7720094,-0.44197878,1002.15405,1,3
79.8,6.7944136,-6.733876,-0.38516733,1002.129,1,3
79.84,7.181561,-6.4383497000000025,-0.56981057,1002.129,1,3
79.88,7.2054462,-6.3477845,-0.5698119,1002.1315,1,3
79.92,7.0668187000000025,-6.2905855000000015,-0.6029539,1002.1187,1,3
79.96,7.1002607000000015,-6.2715187000000014,-0.574549,1002.129,1,3
80.0,7.038108,-6.219086,-0.54140955,1002.1267,1,3
80.04,6.9855160000000005,-6.2619843,-0.36623788,1002.0961,1,3
80.08,6.8707848,-6.443114,-0.36623937,1002.0911,0,0
80.12,6.765615,-6.638542,-0.34730300000000003,1002.0987,0,0
80.16,6.7894974,-6.428813,-0.29049164,1002.0936,0,0
80.2,6.846841,-6.3954473,-0.44199395,1002.10895,0,0
80.24,6.746451,-6.409746599999999,-0.6692467,1002.10394,0,0
80.28,6.6269402999999985,-6.5241437000000015,-0.6171696,1002.0885,0,0
80.32,6.4930916,-6.6337740000000025,-0.5982333000000001,1002.08105,0,0
80.36,6.464397,-6.48601,-0.6361100000000001,1002.0835,0,0
80.4,6.521739,-6.4192777,-0.5650953000000001,1002.0662,0,0
80.44,6.5599623,-6.4288106,-0.4420022,1002.0662,0,0
80.48,6.564728,-6.3334794,-0.3236434,1002.05865,0,0
80.52,6.627461,-6.257229,-0.34252647,1002.06104,0,0
80.56,6.6704880000000015,-6.281062,-0.2620408,1002.0788,0,0
80.6,6.670497,-6.319195,-0.1531487,1002.03107,0,0
80.64,6.617928,-6.447892,-0.29044557,1002.0436,0,0
80.68,6.5366797,-6.4669585,-0.30464804,1002.0484,0,0
80.72,6.598827,-6.3477945,-0.44667935,1002.061,0,0
80.76,6.6514130000000025,-6.404993,-0.5366321999999999,1002.06116,0,0
80.8,6.5128074,-6.5193910000000015,-0.43247452,1002.0639,0,0
80.84,6.4219995,-6.6719213,-0.33305126,1002.0461,0,0
80.88,6.579742,-6.486026,-0.41353527,1002.0487,0,0
80.92,6.656227,-6.333496,-0.44194096,1002.0511,0,0
80.96,6.608438499999999,-6.46696,-0.39459613,1002.04065,0,0
81.0,6.594107000000001,-6.5050919999999985,-0.30464163,1002.0384,0,0
81.04,6.6227946,-6.4955597,-0.34725052,1002.0234,0,0
81.08,6.704060000000001,-6.486027,-0.3235777,1002.0434,0,0
81.12,6.6371517,-6.4097620000000015,-0.28570163,1002.01556,0,0
81.16,6.6610594,-6.5336924000000005,-0.45613948,1002.026,0,0
81.2,6.5989312999999985,-6.600425,-0.43246654,1002.0331,0,0
81.24,6.665857000000001,-6.4478955,-0.43720016,1002.0231,0,0
81.28,6.737562,-6.419296,-0.432465,1002.0234,0,0
81.32,6.7088914000000015,-6.433596,-0.36144814,1002.0511,0,0
81.36,6.637204,-6.519394,-0.13893028,1002.0256,0,0
81.4,6.6276536,-6.538460700000001,-0.29516479999999995,1002.0587,0,0
81.44,6.498607,-6.319199,-0.11525664,1002.02106,0,0
