Timestamp,Ax,Ay,Az,P,Value,Type
0.0,1.7831457,-3.0005567,7.6639314,997.35205,0,0
0.04,2.6482852,-3.448613,10.343605,997.4329,0,0
0.08,3.092802,-2.9671907,7.739681,997.4024699999999,0,0
0.12,3.3604665000000002,-3.7775053999999995,8.430904,997.3874,0,0
0.16,3.5851116000000003,-3.5820760000000003,9.855959,997.3191,0,0
0.2,4.407233,-4.0825644,8.615544,997.3723,0,0
0.24,4.870869,-4.154063,8.217853999999999,997.42523,0,0
0.28,4.359425,-4.239861,6.773860000000001,997.4632,0,0
0.32,5.611728,-4.206494999999999,6.911157000000001,997.4479,0,0
0.36,6.309575,-4.306592500000002,6.7785934999999995,997.4428,0,0
0.4,7.6335754,-3.5296432999999996,4.856425,997.4504,0,0
0.44,6.749663000000001,-5.1836476,7.403567,997.4552,0,0
0.48,7.00778,-4.2827682000000005,5.722853700000001,997.4428,0,0
0.52,7.753439,-5.9891963,5.3583055,997.47833,0,0
0.56,8.121492,-4.115939,5.7228556,997.4426,0,0
0.6,8.126282000000002,-4.001542,3.5592330000000003,997.44006,0,0
0.64,7.935097,-5.69367,4.2457223,997.4730000000001,0,0
0.68,7.5957399999999975,-5.626939,4.132098,997.4527,0,0
0.72,7.543171000000001,-5.503008,3.5497668,997.4454,0,0
0.76,6.54898,-5.984431,2.9532325,997.44293,0,0
0.8,6.4342737,-5.6078730000000006,1.6228656000000001,997.4506,0,0
0.84,7.5145183000000015,-5.8462014,2.2051979999999998,997.4403699999999,0,0
0.88,7.3328940000000005,-6.0559297,2.7070458,997.4579,0,0
0.92,6.8358006,-6.2132263,1.6560085,997.453,0,0
0.96,6.568143400000001,-6.2179933,-0.7301304,997.46545,0,0
1.0,7.4571958,-6.823346000000001,2.8822212000000005,997.4351,0,0
1.04,7.2564525999999985,-6.303792,2.205202,997.4476300000001,0,0
1.08,7.055708999999999,-6.851946000000001,0.8038192,997.41754,0,0
1.12,7.4142036,-6.418189,-0.4413285,997.4175,0,0
1.16,7.8396144,-6.3419247,0.40139633,997.4354,0,0
1.2,7.581514,-7.066441,1.3719501,997.4377,0,0
1.24,7.500266000000001,-7.157006299999999,1.3435443999999999,997.4299,0,0
1.28,7.3425407000000025,-6.828114500000001,1.2393882,997.4402,0,0
1.32,7.4381460000000015,-6.608853,-0.1477914,997.45526,0,0
1.36,6.8597990000000015,-6.9854107,-0.91476417,997.4426,0,0
1.4,6.353148,-7.3286032999999975,-0.40818205,997.4377,0,0
1.44,6.2762923,-7.271395,-0.38454476,997.4326,0,0
1.48,6.1950293,-7.419158500000001,-0.48870218,997.42755,0,0
1.52,6.381436,-7.581221,-0.71595424,997.43005,0,0
1.56,6.9932437000000025,-7.1617637,-0.3419368,997.4452,0,0
1.6,6.9502196,-7.3190603,-0.010529078999999998,997.4653,0,0
1.64,7.0983872,-6.909136,0.6238807,997.4602699999999,0,0
1.68,6.9597690000000005,-7.361959,0.16937733,997.4301,0,0
1.72,6.5152407,-7.29046,-0.39875183,997.4351,0,0
1.76,6.687305499999999,-6.4420133,-0.52658147,997.46277,0,0
1.8,7.0410047,-6.303783,-0.5076444,997.4529,0,0
1.84,6.792449,-6.8471699999999975,0.088890046,997.4326,0,0
1.88,6.491315,-7.15223,0.56232995,997.46783,0,0
1.92,6.5295467,-7.147462400000001,0.66648626,997.47284,0,0
1.96,6.6060175999999995,-7.5287875999999985,0.5291879,997.4529,0,0
2.0,6.6920475999999995,-7.6670175,0.57653147,997.4349,0,0
2.04,7.02185,-7.118863,0.54339015,997.4452,0,0
2.08,6.9979434000000005,-6.9996990000000014,0.10308984,997.4477,0,0
2.12,6.969259700000001,-7.128396,-0.19991252,997.4477,0,0
2.16,6.892775,-7.347657000000001,-0.15730360000000002,997.4426,0,0
2.2,6.9357866999999995,-7.2713923,-0.2283202000000001,997.46783,0,0
2.24,6.9740186,-7.242792999999999,-0.19518,997.4377,0,0
2.28,6.8879776,-7.314291000000001,-0.081554696,997.4427,0,0
2.32,6.5103655,-7.719448,0.31613459999999993,997.45026,0,0
2.36,6.4577813,-7.5001864000000005,0.44869736,997.4452,0,0
2.4,6.5199127,-7.357189,0.42029038,997.4502,0,0
2.44,6.5202293,-7.524027,0.39664733,997.4880400000001,0,0
2.48,6.6301713000000015,-7.4096293000000015,0.48660162,997.4602699999999,0,0
2.52,6.6540766000000025,-7.228501,0.32089797,997.4351,0,0
2.56,6.9552107,-6.832876700000001,0.074709535,997.45776,0,0
2.6,6.86918,-7.018772599999999,0.041569273999999996,997.47046,0,0
2.64,6.7544710000000014,-7.304766000000001,0.24041484,997.4374,0,0
2.68,6.8309526,-7.3333660000000025,0.40138504,997.4501,0,0
2.72,6.8452997,-7.0950375,0.12205586,997.4501,0,0
2.76,6.878764599999999,-7.157003,0.18360367,997.44495,0,0
2.8,6.7879534,-7.238034700000001,0.39191794,997.4477,0,0
2.84,6.6254478,-7.347666,0.41085628,997.425,0,0
2.88,6.5441970000000005,-7.381032,0.20727745,997.425,0,0
2.92,6.5298624000000025,-7.4286976,0.24988748,997.4527,0,0
2.96,6.5442095,-7.3524327000000005,0.23568499999999998,997.4198,0,0
3.0,6.486858,-7.500196000000001,0.2735608,997.4602699999999,0,0
3.04,6.620699,-7.4429979999999984,0.13626362,997.4223,0,0
3.08,6.5633479999999995,-7.419165,0.23568670000000005,997.4527,0,0
3.12,6.6159315,-7.1188717000000015,0.20728084,997.4399400000001,0,0
3.16,6.8405886,-6.9425097000000004,0.19781259,997.4526,0,0
3.2,6.955311,-7.142705,0.19307879999999997,997.4878,0,0
3.24,6.931417999999999,-7.2046703999999995,0.41086203,997.44745,0,0
3.28,7.012678599999999,-7.1665387,0.38719037,997.46265,0,0
3.32,6.9266496,-6.9901757,0.20728366,997.4374,0,0
3.36,6.8692990000000025,-7.061674000000001,0.23569071,997.4399400000001,0,0
3.4,6.702012,-7.290469,0.2972386,997.4526400000001,0,0
3.44,6.5536504,-7.481127000000001,0.26408052,997.43744,0,0
3.48,6.6827039999999975,-7.257098700000001,0.103110656,997.45514,0,0
3.52,6.797417,-7.1760674,0.00842246,997.42,0,0
3.56,6.811756,-7.090269,0.036828768,997.4727,0,0
3.6,6.630122,-7.1998997000000005,0.036828678,997.4425699999999,0,0
3.64,6.352893,-7.5478587,0.26881438,997.4627,0,0
3.68,6.4484873,-7.4191613,0.32562709999999995,997.4147,0,0
3.72,6.687475699999999,-7.1570009999999975,0.34456465,997.46515,0,0
3.76,6.7926307,-7.1427007,0.17886034,997.43005,0,0
3.8,6.7974086,-7.1665339999999995,0.18832903,997.4577,0,0
3.84,6.773509,-7.2237325,0.30668905,997.45514,0,0
3.88,6.763947999999999,-7.271398,0.19306323,997.4326,0,0
3.92,6.787846000000001,-7.1856,0.11731267,997.42725,0,0
3.96,6.7352667,-7.1856,0.074702874,997.4674699999999,0,0
4.0,6.663568,-7.3381295,0.15518764,997.4323,0,0
4.04,6.6253285,-7.3428960000000005,0.25461003,997.4499,0,0
4.08,6.625327,-7.2237325,0.33036038,997.4700300000001,0,0
4.12,6.783060000000001,-7.0855026,0.21673457,997.4627,0,0
4.16,6.725701299999999,-7.2094326,0.107843176,997.465,0,0
4.2,6.572746,-7.314296700000001,0.38243848,997.4321,0,0
4.24,6.5392857000000015,-7.423928,0.33982876,997.4323,0,0
4.28,6.5775237,-7.314296700000001,0.28301582,997.42725,0,0
4.32,6.7209163,-7.261864,0.24040599999999998,997.4599599999999,0,0
4.36,6.6157594,-7.428694,0.24040592,997.4501,0,0
4.4,6.955124400000001,-7.0044699999999995,0.18359292,997.4675,0,0
4.44,6.9131064,-7.118892,0.06059002,997.45245,0,0
4.48,6.798429,-7.152259299999999,0.3209858,997.4801,0,0
4.52,6.769786,-7.171326,0.29731703,997.45746,0,0
4.56,6.784163499999999,-7.209460000000001,0.32099253,997.45746,0,0
4.6,6.741173700000001,-7.285725,0.39674565,997.4474,0,0
4.64,6.664733,-7.347691499999999,0.35887364,997.4422599999999,0,0
4.68,6.636089999999999,-7.333392599999999,0.42042416,997.4523300000001,0,0
4.72,6.5644426,-7.185631,0.24999014,997.4295699999999,0,0
4.76,6.574039999999999,-7.295263,0.13163354,997.44464,0,0
4.8,6.5931954,-7.586023,0.27366894,997.4625,0,0
4.84,6.5980177,-7.6289234,0.25946963,997.4700300000001,0,0
4.88,6.7127666,-7.3238645,0.13164376,997.4295699999999,0,0
4.92,6.7223644,-7.2761993,0.008552719,997.43225,0,0
4.96,6.7032804000000015,-7.314333,0.08430645,997.455,0,0
5.0,6.6746373,-7.3286333,0.2689515,997.422,0,0
5.04,6.703354400000001,-7.347701,0.2736894,997.4775400000001,0,0
5.08,6.7033944000000005,-7.290503,0.3731156,997.43933,0,0
5.12,6.684314,-7.228539,0.42046311,997.47015,0,0
5.16,6.5887527000000015,-7.3000380000000025,0.35891914,997.4624,0,0
5.2,6.421496,-7.385836999999999,0.49148571,997.437,0,0
5.24,6.445435,-7.3715386,0.34945729999999997,997.4269400000001,0,0
5.28,6.5315094,-7.352473299999999,0.2784447,997.42944,0,0
5.32,6.5219736,-7.4811707,0.29265009999999997,997.45734,0,0
5.36,6.5507026,-7.438273,0.16009133,997.4423,0,0
5.4,6.651114,-7.2714443,0.23111065,997.4524,0,0
5.44,6.5974770000000005,-7.381049000000001,0.21681048,997.4524,0,0
5.48,6.5018769999999995,-7.5192795,0.297295,997.45465,0,0
5.52,6.6882834,-7.3524494,0.33990416,997.44714,0,0
5.56,6.64526,-7.3524494,0.25941876,997.42444,0,0
5.6,6.592677,-7.390581599999999,0.29255912,997.44714,0,0
5.64,6.616572,-7.3429160000000016,0.30676198,997.4317599999999,0,0
5.68,6.52575,-7.4239473,0.24047975,997.4446,0,0
5.72,6.535304,-7.395347599999999,0.2546825,997.4468400000001,0,0
5.76,6.611776,-7.3190827,0.25941643,997.41675,0,0
5.8,6.5305142,-7.4382467000000005,0.17419669,997.43695,0,0
5.84,6.5544080000000005,-7.357214999999999,0.2452123,997.4419,0,0
5.88,6.64522,-7.3762813,0.2594151,997.4217,0,0
5.92,6.6738940000000015,-7.3190827,0.23100820000000002,997.4116,0,0
5.96,6.630872,-7.2952495,0.31149274,997.4317599999999,0,0
6.0,6.53527,-7.323848700000001,0.29255465,997.4544,0,0
6.04,1.7831457,-3.0005567,7.6639314,997.35205,0,0
6.08,2.6482852,-3.448613,10.343605,997.4329,0,0
6.12,3.092802,-2.9671907,7.739681,997.4024699999999,0,0
6.16,3.3604665000000002,-3.7775053999999995,8.430904,997.3874,0,0
6.2,3.5851116000000003,-3.5820760000000003,9.855959,997.3191,0,0
6.24,4.407233,-4.0825644,8.615544,997.3723,0,0
6.28,4.870869,-4.154063,8.217853999999999,997.42523,0,0
6.32,4.359425,-4.239861,6.773860000000001,997.4632,0,0
6.36,5.611728,-4.206494999999999,6.911157000000001,997.4479,0,0
6.4,6.309575,-4.306592500000002,6.7785934999999995,997.4428,0,0
6.44,7.6335754,-3.5296432999999996,4.856425,997.4504,0,0
6.48,6.749663000000001,-5.1836476,7.403567,997.4552,0,0
6.52,7.00778,-4.2827682000000005,5.722853700000001,997.4428,0,0
6.56,7.753439,-5.9891963,5.3583055,997.47833,0,0
6.6,8.121492,-4.115939,5.7228556,997.4426,0,0
6.64,8.126282000000002,-4.001542,3.5592330000000003,997.44006,0,0
6.68,7.935097,-5.69367,4.2457223,997.4730000000001,0,0
6.72,7.5957399999999975,-5.626939,4.132098,997.4527,0,0
6.76,7.543171000000001,-5.503008,3.5497668,997.4454,0,0
6.8,6.54898,-5.984431,2.9532325,997.44293,0,0
6.84,6.4342737,-5.6078730000000006,1.6228656000000001,997.4506,0,0
6.88,7.5145183000000015,-5.8462014,2.2051979999999998,997.4403699999999,0,0
6.92,7.3328940000000005,-6.0559297,2.7070458,997.4579,0,0
6.96,6.8358006,-6.2132263,1.6560085,997.453,0,0
7.0,6.568143400000001,-6.2179933,-0.7301304,997.46545,0,0
7.04,7.4571958,-6.823346000000001,2.8822212000000005,997.4351,0,0
7.08,7.2564525999999985,-6.303792,2.205202,997.4476300000001,0,0
7.12,7.055708999999999,-6.851946000000001,0.8038192,997.41754,0,0
7.16,7.4142036,-6.418189,-0.4413285,997.4175,0,0
7.2,7.8396144,-6.3419247,0.40139633,997.4354,0,0
7.24,7.581514,-7.066441,1.3719501,997.4377,0,0
7.28,7.500266000000001,-7.157006299999999,1.3435443999999999,997.4299,0,0
7.32,7.3425407000000025,-6.828114500000001,1.2393882,997.4402,0,0
7.36,7.4381460000000015,-6.608853,-0.1477914,997.45526,0,0
7.4,6.8597990000000015,-6.9854107,-0.91476417,997.4426,0,0
7.44,6.353148,-7.3286032999999975,-0.40818205,997.4377,0,0
7.48,6.2762923,-7.271395,-0.38454476,997.4326,0,0
7.52,6.1950293,-7.419158500000001,-0.48870218,997.42755,0,0
7.56,6.381436,-7.581221,-0.71595424,997.43005,0,0
7.6,6.9932437000000025,-7.1617637,-0.3419368,997.4452,0,0
7.64,6.9502196,-7.3190603,-0.010529078999999998,997.4653,0,0
7.68,7.0983872,-6.909136,0.6238807,997.4602699999999,0,0
7.72,6.9597690000000005,-7.361959,0.16937733,997.4301,0,0
7.76,6.5152407,-7.29046,-0.39875183,997.4351,0,0
7.8,6.687305499999999,-6.4420133,-0.52658147,997.46277,0,0
7.84,7.0410047,-6.303783,-0.5076444,997.4529,0,0
7.88,6.792449,-6.8471699999999975,0.088890046,997.4326,0,0
7.92,6.491315,-7.15223,0.56232995,997.46783,0,0
7.96,6.5295467,-7.147462400000001,0.66648626,997.47284,0,0
8.0,6.6060175999999995,-7.5287875999999985,0.5291879,997.4529,0,0
8.04,6.6920475999999995,-7.6670175,0.57653147,997.4349,0,0
8.08,7.02185,-7.118863,0.54339015,997.4452,0,0
8.12,6.9979434000000005,-6.9996990000000014,0.10308984,997.4477,0,0
8.16,6.969259700000001,-7.128396,-0.19991252,997.4477,0,0
8.2,6.892775,-7.347657000000001,-0.15730360000000002,997.4426,0,0
8.24,6.9357866999999995,-7.2713923,-0.2283202000000001,997.46783,0,0
8.28,6.9740186,-7.242792999999999,-0.19518,997.4377,0,0
8.32,6.8879776,-7.314291000000001,-0.081554696,997.4427,0,0
8.36,6.5103655,-7.719448,0.31613459999999993,997.45026,0,0
8.4,6.4577813,-7.5001864000000005,0.44869736,997.4452,0,0
8.44,6.5199127,-7.357189,0.42029038,997.4502,0,0
8.48,6.5202293,-7.524027,0.39664733,997.4880400000001,0,0
8.52,6.6301713000000015,-7.4096293000000015,0.48660162,997.4602699999999,0,0
8.56,6.6540766000000025,-7.228501,0.32089797,997.4351,0,0
8.6,6.9552107,-6.832876700000001,0.074709535,997.45776,0,0
8.64,6.86918,-7.018772599999999,0.041569273999999996,997.47046,0,0
8.68,6.7544710000000014,-7.304766000000001,0.24041484,997.4374,0,0
8.72,6.8309526,-7.3333660000000025,0.40138504,997.4501,0,0
8.76,6.8452997,-7.0950375,0.12205586,997.4501,0,0
8.8,6.878764599999999,-7.157003,0.18360367,997.44495,0,0
8.84,6.7879534,-7.238034700000001,0.39191794,997.4477,0,0
8.88,6.6254478,-7.347666,0.41085628,997.425,0,0
8.92,6.5441970000000005,-7.381032,0.20727745,997.425,0,0
8.96,6.5298624000000025,-7.4286976,0.24988748,997.4527,0,0
9.0,6.5442095,-7.3524327000000005,0.23568499999999998,997.4198,0,0
9.04,6.486858,-7.500196000000001,0.2735608,997.4602699999999,0,0
9.08,6.620699,-7.4429979999999984,0.13626362,997.4223,0,0
9.12,6.5633479999999995,-7.419165,0.23568670000000005,997.4527,0,0
9.16,6.6159315,-7.1188717000000015,0.20728084,997.4399400000001,0,0
9.2,6.8405886,-6.9425097000000004,0.19781259,997.4526,0,0
9.24,6.955311,-7.142705,0.19307879999999997,997.4878,0,0
9.28,6.931417999999999,-7.2046703999999995,0.41086203,997.44745,0,0
9.32,7.012678599999999,-7.1665387,0.38719037,997.46265,0,0
9.36,6.9266496,-6.9901757,0.20728366,997.4374,0,0
9.4,6.8692990000000025,-7.061674000000001,0.23569071,997.4399400000001,0,0
9.44,6.702012,-7.290469,0.2972386,997.4526400000001,0,0
9.48,6.5536504,-7.481127000000001,0.26408052,997.43744,0,0
9.52,6.6827039999999975,-7.257098700000001,0.103110656,997.45514,0,0
9.56,6.797417,-7.1760674,0.00842246,997.42,0,0
9.6,6.811756,-7.090269,0.036828768,997.4727,0,0
9.64,6.630122,-7.1998997000000005,0.036828678,997.4425699999999,0,0
9.68,6.352893,-7.5478587,0.26881438,997.4627,0,0
9.72,6.4484873,-7.4191613,0.32562709999999995,997.4147,0,0
9.76,6.687475699999999,-7.1570009999999975,0.34456465,997.46515,0,0
9.8,6.7926307,-7.1427007,0.17886034,997.43005,0,0
9.84,6.7974086,-7.1665339999999995,0.18832903,997.4577,0,0
9.88,6.773509,-7.2237325,0.30668905,997.45514,0,0
9.92,6.763947999999999,-7.271398,0.19306323,997.4326,0,0
9.96,6.787846000000001,-7.1856,0.11731267,997.42725,0,0
10.0,6.7352667,-7.1856,0.074702874,997.4674699999999,0,0
10.04,6.663568,-7.3381295,0.15518764,997.4323,0,0
10.08,6.6253285,-7.3428960000000005,0.25461003,997.4499,0,0
10.12,6.625327,-7.2237325,0.33036038,997.4700300000001,0,0
10.16,6.783060000000001,-7.0855026,0.21673457,997.4627,0,0
10.2,6.725701299999999,-7.2094326,0.107843176,997.465,0,0
10.24,6.572746,-7.314296700000001,0.38243848,997.4321,0,0
10.28,6.5392857000000015,-7.423928,0.33982876,997.4323,0,0
10.32,6.5775237,-7.314296700000001,0.28301582,997.42725,0,0
10.36,6.7209163,-7.261864,0.24040599999999998,997.4599599999999,0,0
10.4,6.6157594,-7.428694,0.24040592,997.4501,0,0
10.44,6.955124400000001,-7.0044699999999995,0.18359292,997.4675,0,0
10.48,6.9131064,-7.118892,0.06059002,997.45245,0,0
10.52,6.798429,-7.152259299999999,0.3209858,997.4801,0,0
10.56,6.769786,-7.171326,0.29731703,997.45746,0,0
10.6,6.784163499999999,-7.209460000000001,0.32099253,997.45746,0,0
10.64,6.741173700000001,-7.285725,0.39674565,997.4474,0,0
10.68,6.664733,-7.347691499999999,0.35887364,997.4422599999999,0,0
10.72,6.636089999999999,-7.333392599999999,0.42042416,997.4523300000001,0,0
10.76,6.5644426,-7.185631,0.24999014,997.4295699999999,0,0
10.8,6.574039999999999,-7.295263,0.13163354,997.44464,0,0
10.84,6.5931954,-7.586023,0.27366894,997.4625,0,0
10.88,6.5980177,-7.6289234,0.25946963,997.4700300000001,0,0
10.92,6.7127666,-7.3238645,0.13164376,997.4295699999999,0,0
10.96,6.7223644,-7.2761993,0.008552719,997.43225,0,0
11.0,6.7032804000000015,-7.314333,0.08430645,997.455,0,0
11.04,6.6746373,-7.3286333,0.2689515,997.422,0,0
11.08,6.703354400000001,-7.347701,0.2736894,997.4775400000001,0,0
11.12,6.7033944000000005,-7.290503,0.3731156,997.43933,0,0
11.16,6.684314,-7.228539,0.42046311,997.47015,0,0
11.2,6.5887527000000015,-7.3000380000000025,0.35891914,997.4624,0,0
11.24,6.421496,-7.385836999999999,0.49148571,997.437,0,0
11.28,6.445435,-7.3715386,0.34945729999999997,997.4269400000001,0,0
11.32,6.5315094,-7.352473299999999,0.2784447,997.42944,0,0
11.36,6.5219736,-7.4811707,0.29265009999999997,997.45734,0,0
11.4,6.5507026,-7.438273,0.16009133,997.4423,0,0
11.44,6.651114,-7.2714443,0.23111065,997.4524,0,0
11.48,6.5974770000000005,-7.381049000000001,0.21681048,997.4524,0,0
11.52,6.5018769999999995,-7.5192795,0.297295,997.45465,0,0
11.56,6.6882834,-7.3524494,0.33990416,997.44714,0,0
11.6,6.64526,-7.3524494,0.25941876,997.42444,0,0
11.64,6.592677,-7.390581599999999,0.29255912,997.44714,0,0
11.68,6.616572,-7.3429160000000016,0.30676198,997.4317599999999,0,0
11.72,6.52575,-7.4239473,0.24047975,997.4446,0,0
11.76,6.535304,-7.395347599999999,0.2546825,997.4468400000001,0,0
11.8,6.611776,-7.3190827,0.25941643,997.41675,0,0
11.84,6.5305142,-7.4382467000000005,0.17419669,997.43695,0,0
11.88,6.5544080000000005,-7.357214999999999,0.2452123,997.4419,0,0
11.92,6.64522,-7.3762813,0.2594151,997.4217,0,0
11.96,6.6738940000000015,-7.3190827,0.23100820000000002,997.4116,0,0
12.0,6.630872,-7.2952495,0.31149274,997.4317599999999,0,0
12.04,6.53527,-7.323848700000001,0.29255465,997.4544,0,0
12.08,6.40621,-7.514511,0.4109142,997.4393,0,0
12.12,6.482681299999999,-7.347681,0.36356977,997.4217,0,0
12.16,6.5878320000000015,-7.3619804,0.30675640000000004,997.4416,0,0
12.2,6.606947,-7.395346000000001,0.24520874,997.42676,0,0
12.24,6.6212807,-7.319082000000001,0.18366095,997.4217,0,0
12.28,6.540021,-7.423946000000001,0.16472304,997.4468400000001,0,0
12.32,6.5447935999999975,-7.3715134,0.22153527,997.42926,0,0
12.36,6.592587,-7.3810463,0.27834767,997.4518400000001,0,0
12.4,6.5352239999999995,-7.4048789999999975,0.30675367,997.4368,0,0
12.44,6.587797,-7.3762794000000005,0.33989406,997.42645,0,0
12.48,6.592573599999999,-7.395345,0.29254967,997.429,0,0
12.52,6.6069064,-7.4096449999999985,0.27834582,997.4365,0,0
12.56,6.592561999999999,-7.4477773,0.2641422,997.44916,0,0
12.6,6.5686584,-7.3762794000000005,0.17892244,997.4415,0,0
12.64,6.6164513,-7.338146000000001,0.15524995,997.434,0,0
12.68,6.5065102999999995,-7.414411500000001,0.31621924,997.4163,0,0
12.72,6.487386,-7.423944500000001,0.31621876,997.4594,0,0
12.76,6.525621,-7.4763765,0.28307763,997.43896,0,0
12.8,6.568633,-7.409644,0.35409313,997.4264,0,0
12.84,6.5256095,-7.3619785,0.23099813,997.41895,0,0
12.88,6.5542836,-7.3858112999999985,0.23573206,997.4263,0,0
12.92,6.578178,-7.4573092,0.32095093,997.4213,0,0
12.96,6.5590534,-7.3715115,0.19312154,997.434,0,0
13.0,6.5733875999999976,-7.3143125,0.08422976,997.44135,0,0
13.04,6.5542636,-7.443010000000001,0.39196559999999997,997.43146,0,0
13.08,6.544699,-7.433476,0.33515236,997.4339,0,0
13.12,6.702428,-7.3095455000000005,0.3540895,997.4187,0,0
13.16,6.645065,-7.3953433,0.34462020000000004,997.4339,0,0
13.2,6.5542436,-7.462075,0.23572844,997.4189,0,0
13.24,6.6880729999999975,-7.276179300000001,0.32094726,997.4263,0,0
13.28,6.7071886,-7.24758,0.23572758,997.4387,0,0
13.32,6.592467299999999,-7.3858104,0.25466469999999997,997.4213,0,0
13.36,6.5303245,-7.4811406000000025,0.36355552,997.41364,0,0
13.4,6.5303197,-7.4811406000000025,0.24992935,997.4438,0,0
13.44,6.459678,-7.4287350000000005,0.2026819,997.4085,0,0
13.48,6.383218,-7.4573345,0.33524677,997.4363,0,0
13.52,6.4453664,-7.481167299999999,0.2594973,997.4085,0,0
13.56,6.540983,-7.4192023,0.26896802,997.4236,0,0
13.6,6.6604905,-7.333405,0.27370355,997.43616,0,0
13.64,6.646172,-7.2905064,0.21215820000000005,997.41846,0,0
13.68,6.6366277,-7.285740400000001,0.2973789,997.4034,0,0
13.72,6.584065400000001,-7.366772,0.24530187,997.4438,0,0
13.76,6.6796789999999975,-7.362006,0.29738194,997.4110000000001,0,0
13.8,6.593657,-7.3191074999999985,0.22636715,997.42584,0,0
13.84,6.579336,-7.390606,0.30685377,997.43854,0,0
13.88,6.5172143,-7.438272,0.31632397,997.4133,0,0
13.92,6.608046000000001,-7.3429413,0.35420066,997.4335,0,0
13.96,6.5889429999999996,-7.419206599999999,0.17429477,997.4385,0,0
14.0,6.545942,-7.476406,0.28792199999999996,997.4106400000001,0,0
14.04,6.526839,-7.266678,0.22164185,997.40576,0,0
14.08,6.641570599999999,-7.2476115000000005,0.13642408,997.4208,0,0
14.12,6.5651107,-7.2857447,0.12695676,997.42084,0,0
14.16,6.6511593,-7.304811,0.31159973,997.4485,0,0
14.2,6.589041,-7.400142999999999,0.38261756,997.42566,0,0
14.24,6.4600015,-7.476408,0.3636813,997.4209599999999,0,0
14.28,6.4552402,-7.3191123,0.2689949,997.4234,0,0
14.32,6.50783,-7.4096766,0.29266804,997.41815,0,0
14.36,6.550863,-7.409677,0.29266936,997.4208,0,0
14.4,6.6225830000000006,-7.4001449999999975,0.30214027,997.43585,0,0
14.44,6.6038837,-7.333423599999999,0.23116267,997.4259599999999,0,0
14.48,6.623026400000001,-7.3620234,0.29271199999999997,997.4281,0,0
14.52,6.59917,-7.419223,0.24063753,997.4382,0,0
14.56,6.5800740000000015,-7.447823,0.30692127,997.4105,0,0
14.6,6.584890400000001,-7.2809944,0.30692467,997.4307,0,0
14.64,6.666174400000001,-7.3048277000000015,0.36373997,997.4231,0,0
14.68,6.5658436,-7.3191285000000015,0.35427532,997.40796,0,0
14.72,6.575423700000001,-7.3477283,0.45369970000000004,997.4131,0,0
14.76,6.5659037,-7.33343,0.36374962,997.4483,0,0
14.8,6.637635,-7.433528,0.354284,997.4382300000001,0,0
14.84,6.6759048,-7.4525957,0.37795883,997.43286,0,0
14.88,6.613802400000001,-7.285767,0.11283539,997.42804,0,0
14.92,6.5660357000000005,-7.3715660000000005,0.103369415,997.4105,0,0
14.96,6.537383,-7.466897,0.34956092,997.3927,0,0
15.0,6.6138906,-7.4335318,0.36376697,997.41534,0,0
15.04,6.637828999999999,-7.347735000000001,0.28802007,997.418,0,0
15.08,6.6091833,-7.3096036999999985,0.46793047,997.4128,0,0
15.12,6.5183983,-7.404935000000001,0.46793329999999994,997.4128,0,0
15.16,6.5710006,-7.4001694,0.40638828,997.41785,0,0
15.2,6.5710416,-7.5813,0.4442673,997.4101,0,0
15.24,6.7001295,-7.462136,0.2359565,997.3925,0,0
15.28,6.7575199999999995,-7.2857747,0.16967784,997.4227,0,0
15.32,6.652386999999999,-7.1618443,0.1412735,997.4278,0,0
15.36,6.4707956,-7.223811,0.41587275,997.3901400000001,0,0
15.4,6.523404,-7.352508500000001,0.6431271,997.39764,0,0
15.44,6.6190276,-7.3572755,0.6289262,997.4202,0,0
15.48,6.7233789999999996,-7.371556299999999,0.71407187,997.39764,0,0
15.52,6.565645,-7.4001554999999986,0.4868205,997.4253,0,0
15.56,6.4509300000000005,-7.32389,0.11280249,997.4126,0,0
15.6,6.4700489999999995,-7.3810887,0.17434976,997.42285,0,0
15.64,6.6038833,-7.443053999999999,0.23589702,997.4328,0,0
15.68,6.737717999999999,-7.4525875999999975,0.2927099,997.4429,0,0
15.72,6.6086636,-7.404921499999999,0.2216938,997.43536,0,0
15.76,6.474829,-7.4478206999999985,0.25956905,997.4731400000001,0,0
15.8,6.393572,-7.457354,0.3211163,997.4276,0,0
15.84,6.4413705000000006,-7.5479183,0.4205388,997.4123,0,0
15.88,6.527407,-7.4478206999999985,0.41107,997.4428,0,0
15.92,6.6421220000000005,-7.371556299999999,0.34952274,997.4149,0,0
15.96,6.6373425,-7.362023,0.35899156,997.425,0,0
16.0,6.6134434,-7.362023,0.4205388,997.43756,0,0
16.04,6.6038833,-7.414455,0.41580442,997.4273699999999,0,0
16.08,6.589544,-7.404921499999999,0.27850667,997.4172,0,0
16.12,6.5321865,-7.395388599999999,0.29744428,997.43256,0,0
16.16,6.517847,-7.466887,0.3211163,997.45245,0,0
16.2,6.44615,-7.4478206999999985,0.31638190000000005,997.4298,0,0
16.24,6.522627,-7.466887,0.31638190000000005,997.4526400000001,0,0
16.28,6.5321865,-7.4001554999999986,0.38739797,997.435,0,0
16.32,6.6086636,-7.3143573,0.36846036,997.435,0,0
16.36,6.6516814,-7.333423599999999,0.33058512,997.43756,0,0
16.4,6.565645,-7.362023,0.3921324,997.45514,0,0
16.44,6.5282183,-7.46214,0.33539382,997.4299,0,0
16.48,6.485233,-7.4621406000000015,0.325928,997.4678,0,0
16.52,6.504383,-7.457375,0.34486845,997.4273699999999,0,0
16.56,6.623913000000001,-7.3572783,0.24071474,997.4324,0,0
16.6,6.6765137,-7.414478,0.231248,997.4374,0,0
16.64,6.6048493000000015,-7.3763460000000025,0.33540794,997.4325,0,0
16.68,6.557092699999999,-7.419246,0.32594290000000004,997.465,0,0
16.72,6.471089,-7.362048,0.28807068,997.4399400000001,0,0
16.76,6.557161,-7.4526134000000015,0.3922308,997.4422599999999,0,0
16.8,6.49983,-7.4812136,0.38276443,997.44476,0,0
16.84,6.4903054000000004,-7.443082,0.23126668,997.44495,0,0
16.88,6.499895599999999,-7.5193477,0.26914477,997.4574,0,0
16.92,6.5142665,-7.4287839999999985,0.21706913,997.42224,0,0
16.96,6.705491,-7.362052999999999,0.18866573,997.46,0,0
17.0,6.5430107,-7.462150999999999,0.18866873,997.4298,0,0
17.04,6.39965,-7.4573855,0.36384475,997.43475,0,0
17.08,6.3948946,-7.443086599999999,0.24075249,997.4548300000001,0,0
17.12,6.4905300000000015,-7.428787700000001,0.32124093,997.43475,0,0
17.16,6.624391,-7.3954225000000005,0.45380676,997.4473,0,0
17.2,6.7009077,-7.290559299999999,0.40646625,997.4549,0,0
17.24,6.6722554999999995,-7.342992,0.31178066,997.44476,0,0
17.28,6.509773,-7.381125,0.34018990000000005,997.475,0,0
17.32,6.6675477,-7.328694299999999,0.25023997,997.4574,0,0
17.36,6.576756,-7.3239284,0.23603903,997.4448,0,0
17.4,6.5337687,-7.333462,0.26918268,997.4496,0,0
17.44,6.462105,-7.4383273,0.30706096,997.43695,0,0
17.48,6.4381156,-7.471691000000001,0.3117871,997.4269400000001,0,0
17.52,6.5002747,-7.443092299999999,0.35439876,997.4497,0,0
17.56,6.581558,-7.428792999999999,0.36386999999999997,997.44714,0,0
17.6,6.624604,-7.3525285999999985,0.26445,997.4749,0,0
17.64,6.5577164,-7.381129,0.16503023,997.4774,0,0
17.68,6.653338400000001,-7.333464,0.24078313,997.4295,0,0
17.72,6.543431299999999,-7.438328999999999,0.40648982,997.4371,0,0
17.76,6.6533995,-7.2381344,0.31180477,997.4571,0,0
17.8,6.6725454,-7.3143997,0.36862004,997.45465,0,0
17.84,6.6343274,-7.4764633,0.38282517,997.46967,0,0
17.88,6.443168599999999,-7.50983,0.34495297,997.45465,0,0
17.92,6.4240723,-7.481231,0.28340775,997.4596,0,0
17.96,6.4336660000000006,-7.4097339999999985,0.3733647,997.46967,0,0
18.0,6.519724,-7.4383339999999984,0.20766239999999997,997.44714,0,0
18.04,6.562775,-7.395435000000001,0.2644783,997.4419,0,0
18.08,6.5962553,-7.4192686000000005,0.3402307,997.4269400000001,0,0
18.12,6.648862400000001,-7.3954363,0.39231187,997.44965,0,0
18.16,6.56285,-7.3382382,0.3970485,997.4595,0,0
18.2,6.639357,-7.3716054,0.28342548,997.4669,0,0
18.24,6.672842,-7.314407000000001,0.3165687,997.4418,0,0
18.28,6.596392599999999,-7.3620734,0.35918093,997.4518400000001,0,0
18.32,6.634657400000001,-7.400206599999999,0.25976079999999996,997.4594,0,0
18.36,6.5534334,-7.381141,0.27870145,997.4446,0,0
18.4,6.5869164000000024,-7.357309,0.2976413,997.4695,0,0
18.44,6.515246,-7.4240417,0.34972218,997.43933,0,0
18.48,6.5339746,-7.376366,0.29760802,997.4468400000001,0,0
18.52,6.5339856,-7.3763666,0.3260154000000001,997.4694,0,0
18.56,6.4527392,-7.4621644,0.27867225,997.4442,0,0
18.6,6.5818086,-7.4287990000000015,0.30234570000000005,997.467,0,0
18.64,6.682195,-7.3239354999999975,0.34495628,997.4443,0,0
18.68,6.7156625,-7.2762699999999985,0.21712816,997.47705,0,0
18.72,6.658315700000001,-7.3906674,0.3733645,997.46185,0,0
18.76,6.5961905,-7.3906674,0.3828344,997.4443,0,0
18.8,6.5484037000000015,-7.3430023,0.4396483,997.477,0,0
18.84,6.5531935999999975,-7.381135499999999,0.3686332000000001,997.4442,0,0
18.88,6.51497,-7.385902400000001,0.39230657,997.4794300000001,0,0
18.92,6.4576199999999995,-7.4574003,0.36863524,997.4847,0,0
18.96,6.4528522000000015,-7.5003,0.31182352,997.46185,0,0
19.0,6.567578999999999,-7.37637,0.25974602,997.4667400000001,0,0
19.04,6.653626400000001,-7.400202799999999,0.24554387,997.4291400000001,0,0
19.08,6.5962806,-7.343004,0.27868572,997.4743699999999,0,0
19.12,6.5676130000000015,-7.4002037,0.35443723,997.4692,0,0
19.16,6.5915246,-7.3573046,0.35443842,997.46686,0,0
19.2,6.644111,-7.314406,0.3591737,997.46686,0,0
19.24,6.6106644,-7.4288034,0.35444033,997.48175,0,0
19.28,6.51508,-7.4335704,0.42545745,997.44635,0,0
19.32,6.495971,-7.424038,0.4017864,997.4565,0,0
19.36,6.5198817,-7.371606,0.32603696,997.4791,0,0
19.4,6.5581320000000005,-7.3668394,0.31656927,997.4716,0,0
19.44,6.553362,-7.4335713000000005,0.31657007,997.47925,0,0
19.48,6.5437183,-7.40497,0.33550006,997.46155,0,0
19.52,6.5915227,-7.2715070000000015,0.27395338,997.4716,0,0
19.56,6.562851400000001,-7.41927,0.35443896,997.4870599999999,0,0
19.6,6.620217,-7.385905,0.40651816,997.5172,0,0
19.64,6.701482,-7.242908,0.3118308,997.4742,0,0
19.68,6.7445083,-7.2286085999999985,0.2550187,997.4767,0,0
19.72,6.5963407000000025,-7.4335704,0.37337940000000003,997.46136,0,0
19.76,6.4864120000000005,-7.4335710000000015,0.46806812,997.4739,0,0
19.8,6.572457000000001,-7.3763723,0.21241100000000002,997.47644,0,0
19.84,6.5151080000000015,-7.443104300000001,0.34497514,997.5018,0,0
19.88,6.5533524000000005,-7.404972,0.33077249999999997,997.44604,0,0
19.92,6.6346164000000005,-7.390672,0.34497637,997.4815,0,0
19.96,6.6298437,-7.3287077000000025,0.32130504,997.4765,0,0
20.0,6.6107326,-7.3334740000000025,0.21714879999999998,997.4967,0,0
20.04,6.668097,-7.2667427,0.28816554,997.5042,0,0
20.08,6.6776648000000005,-7.343007000000001,0.34971353,997.4788,0,0
20.12,6.6346545,-7.3430076,0.42546472,997.4612400000001,0,0
20.16,6.6442227,-7.338241,0.27869898,997.4612400000001,0,0
20.2,6.5581937,-7.3287086,0.37812215,997.46906,0,0
20.24,6.5486417,-7.362074400000001,0.45387330000000004,997.4689,0,0
20.28,6.5390887000000015,-7.3763742,0.47281158,997.4862699999999,0,0
20.32,6.5008583,-7.4002075,0.23135768,997.48645,0,0
20.36,6.596462,-7.3906740000000015,0.45860973,997.4814,0,0
20.4,6.639487700000001,-7.2858104999999975,0.37812558,997.4788,0,0
20.44,6.6825113,-7.323942999999999,0.13667142,997.4738,0,0
20.48,6.596419,-7.300109,0.24555759,997.4889,0,0
20.52,6.5534050000000015,-7.366840400000001,0.43019979999999997,997.4915,0,0
20.56,6.5534099999999995,-7.3096422999999975,0.34971538,997.4788,0,0
20.6,6.6442323000000005,-7.347775,0.5390921,997.4687,0,0
20.64,6.577319,-7.3382416,0.54856133,997.4711,0,0
20.68,6.562985,-7.390673599999999,0.4538737,997.45355,0,0
20.72,6.6490273,-7.276277,0.30710770000000004,997.4989,0,0
20.76,6.639472500000001,-7.319176,0.2976393,997.48615,0,0
20.8,6.620358,-7.338242,0.26449886,997.47864,0,0
20.84,6.539105999999999,-7.447872999999999,0.32131220000000005,997.46106,0,0
20.88,6.601248299999999,-7.3811417,0.34971902,997.461,0,0
20.92,6.744648,-7.304876299999999,0.35445395,997.4586,0,0
20.96,6.730314,-7.2381449999999985,0.33078238,997.4738,0,0
21.0,6.677739999999999,-7.3382429999999985,0.34498602,997.49365,0,0
21.04,6.5630307,-7.381142,0.39706507,997.4761,0,0
21.08,6.543916,-7.357309299999999,0.392331,997.4687,0,0
21.12,6.668197,-7.2905774,0.38286275,997.456,0,0
21.16,6.6634210000000005,-7.3191776,0.31184703,997.4736,0,0
21.2,6.6729856,-7.281045,0.34498832,997.4886,0,0
21.24,6.591733500000001,-7.381142599999999,0.39233276,997.4659,0,0
21.28,6.610858,-7.352543400000001,0.34498920000000005,997.4861,0,0
21.32,6.6013036,-7.338244,0.30711445,997.471,0,0
21.36,6.6156479999999975,-7.2953452999999975,0.33552137,997.4911,0,0
21.4,6.6108727,-7.352544,0.3876002,997.466,0,0
21.44,6.5535207,-7.304877799999999,0.40180394,997.4709,0,0
21.48,6.578487400000001,-7.3382707,0.33088562,997.49603,0,0
21.52,6.5641947,-7.433603,0.38770273,997.4834599999999,0,0
21.56,6.707633,-7.2858405,0.3261595,997.4836,0,0
21.6,6.774597,-7.2191100000000015,0.2977574,997.4834,0,0
21.64,6.5882286999999975,-7.3335085000000015,0.37351188,997.47064,0,0
21.68,6.526141,-7.390708,0.35457882,997.4959,0,0
21.72,6.564425999999999,-7.381175999999999,0.39245838,997.5085,0,0
21.76,6.559691,-7.3525777,0.2930399,997.4833,0,0
21.8,6.6409945000000015,-7.3382797,0.36406025,997.4658,0,0
21.84,6.6123714000000025,-7.3573464999999985,0.27884606,997.4834,0,0
21.88,6.664984,-7.3573475,0.27411490000000005,997.4984,0,0
21.92,6.6459117,-7.3811817,0.21257192,997.4632,0,0
21.96,6.6650753,-7.3096847999999985,0.28359202,997.4757699999999,0,0
22.0,6.6221039999999975,-7.300153,0.31200275,997.48584,0,0
22.04,6.569576,-7.400252,0.34514812,997.4580000000001,0,0
22.08,6.5027050000000015,-7.36212,0.40196526,997.4657,0,0
22.12,6.579223,-7.357353999999999,0.4303755,997.4706,0,0
22.16,6.5506,-7.352589,0.41617736,997.4833,0,0
22.2,6.6414576,-7.2572600000000005,0.31202424,997.4858,0,0
22.24,6.732315,-7.266793700000001,0.23627749,997.49854,0,0
22.28,6.684564,-7.3525925,0.29782906,997.4956699999999,0,0
22.32,6.6129136,-7.395492999999999,0.40672466,997.4706,0,0
22.36,6.526924,-7.3096960000000015,0.36885375,997.4882,0,0
22.4,6.5030722999999995,-7.376428999999999,0.36885804,997.4730000000001,0,0
22.44,6.6255926999999994,-7.333487,0.45865113,997.47046,0,0
22.48,6.7116027,-7.290586999999999,0.30714777,997.4653300000001,0,0
22.52,6.654221499999999,-7.328719,0.31661442,997.46326,0,0
22.56,6.644638499999999,-7.347785000000001,0.3734252,997.4783,0,0
22.6,6.592034,-7.400216,0.32607865,997.46045,0,0
22.64,6.606342,-7.390682000000001,0.33081020000000005,997.47284,0,0
22.68,6.510724,-7.452647,0.37341785,997.4755,0,0
22.72,6.467681400000001,-7.4049809999999985,0.40655637,997.47046,0,0
22.76,6.6588416,-7.2667503,0.26452136,997.4602699999999,0,0
22.8,6.601464,-7.3525475999999985,0.40181726,997.4779699999999,0,0
22.84,6.5775380000000006,-7.338247,0.41601804,997.5032,0,0
22.88,6.6444287,-7.247681599999999,0.26924905,997.4580000000001,0,0
22.92,6.634838,-7.2905803,0.33079344,997.4909,0,0
22.96,6.553561,-7.4049773000000005,0.39707324,997.4981,0,0
23.0,6.563094,-7.3525443,0.40653965,997.51605,0,0
23.04,6.5630673999999996,-7.390675999999999,0.32605229999999996,997.4779699999999,0,0
23.08,6.6634116,-7.362075999999999,0.45861274,997.4678,0,0
23.12,6.6968502999999995,-7.3001103,0.36865726,997.4756,0,0
23.16,6.6490273,-7.3048759999999975,0.27396685,997.4680000000001,0,0
23.2,6.5390635,-7.390673,0.36391795,997.4703,0,0
23.24,6.6250740000000015,-7.419272,0.34971228,997.4602699999999,0,0
23.28,6.6154839999999995,-7.3763723,0.34497514,997.4728,0,0
23.32,6.658478999999999,-7.3430057,0.38284826,997.4450699999999,0,0
23.36,6.558078,-7.390671,0.43965885,997.4753,0,0
23.4,6.5341525,-7.381137400000001,0.3686403,997.46277,0,0
23.44,6.5532464999999975,-7.509833299999999,0.31655958,997.45514,0,0
23.48,6.5925527000000015,-7.357329400000001,0.35926694,997.4652,0,0
23.52,6.7120643,-7.2667660000000005,0.26931474,997.48035,0,0
23.56,6.6834016000000025,-7.3525643,0.24564423,997.4779699999999,0,0
23.6,6.6165004000000005,-7.404997,0.32613057,997.45514,0,0
23.64,6.5400395,-7.3334990000000015,0.32139766,997.4677,0,0
23.68,6.578295699999999,-7.371632000000001,0.4066185,997.4677,0,0
23.72,6.5783095000000005,-7.314433599999999,0.39241666,997.4526,0,0
23.76,6.5735470000000005,-7.343033,0.41609016,997.4549599999999,0,0
23.8,6.6165814,-7.2810683,0.37348208,997.45514,0,0
23.84,6.654836,-7.2906017000000025,0.34981152,997.4499,0,0
23.88,6.664411500000001,-7.3096685,0.3876882,997.47015,0,0
23.92,6.669212,-7.2810698,0.32140840000000004,997.4851,0,0
23.96,6.592747999999999,-7.3430347000000005,0.41136333,997.46,0,0
24.0,6.511507,-7.357334599999999,0.46817762,997.4474,0,0
24.04,6.578444,-7.400234700000001,0.36402246,997.46265,0,0
24.08,6.5402190000000004,-7.366869,0.39243013,997.4726,0,0
24.12,6.645389999999999,-7.219106,0.3450875,997.46,0,0
24.16,6.678864999999999,-7.290605,0.29301053,997.4398,0,0
24.2,6.5976295,-7.3668704,0.3829661,997.46,0,0
24.24,6.545064,-7.3859367,0.37823287,997.46265,0,0
24.28,6.6072164,-7.290605999999999,0.33089024,997.46246,0,0
24.32,6.554659399999999,-7.3621050000000015,0.44451782,997.4647,0,0
24.36,6.6311507,-7.405004499999999,0.3687687,997.4597,0,0
24.4,6.6216050000000015,-7.333506599999999,0.3687699,997.4372599999999,0,0
24.44,6.5977229999999984,-7.357339,0.30248985,997.43964,0,0
24.48,6.5976095,-7.424069,0.28827623,997.48236,0,0
24.52,6.6263,-7.35257,0.4303094,997.4547,0,0
24.56,6.6597686000000005,-7.2334070000000015,0.39716953,997.4572,0,0
24.6,6.6789,-7.295373,0.36402979999999996,997.4698,0,0
24.64,6.5785356,-7.300139,0.35929647,997.46246,0,0
24.68,6.6120043000000015,-7.352571000000001,0.4161102,997.4522,0,0
24.72,6.6311350000000004,-7.2858399999999985,0.34036085,997.4851,0,0
24.76,6.745862,-7.2715406000000025,0.33089307,997.4977,0,0
24.8,6.650276700000001,-7.3049064,0.3829725,997.45734,0,0
24.84,6.549915,-7.357339,0.29302009999999995,997.47504,0,0
24.88,6.5690436000000005,-7.366873,0.34983382,997.4674,0,0
24.92,6.6550913000000005,-7.333507000000001,0.32142842,997.45715,0,0
24.96,6.6790004000000005,-7.228643400000001,0.4019142000000001,997.4597,0,0
25.0,6.6025357000000024,-7.3430405,0.38297772,997.4723,0,0
25.04,6.573868300000001,-7.3192086,0.36877555,997.4648,0,0
25.08,6.5021815,-7.3287416,0.39718297,997.4599,0,0
25.12,6.5977893,-7.3049088000000015,0.42085603,997.48,0,0
25.16,6.6217,-7.309676,0.42085707,997.4848599999999,0,0
25.2,6.5978107,-7.3239756,0.36877957,997.4725,0,0
25.24,6.6551804999999975,-7.295377,0.2504205,997.45966,0,0
25.28,6.569159,-7.2953773,0.3498444000000001,997.4419,0,0
25.32,6.698220699999999,-7.266777999999999,0.27882898,997.4898699999999,0,0
25.36,6.7412505000000005,-7.3049100000000005,0.31670526,997.4772,0,0
25.4,6.683903699999999,-7.314444,0.39719114,997.4825400000001,0,0
25.44,6.6026583,-7.3335104000000015,0.31670725,997.4697,0,0
25.48,6.555650999999999,-7.433627599999999,0.45407745,997.4695,0,0
25.52,6.579584,-7.381196000000001,0.4067365,997.44965,0,0
25.56,6.6369815,-7.242967,0.312052,997.4672,0,0
25.6,6.598787299999999,-7.3478327000000005,0.27891523,997.4368,0,0
25.64,6.5797076,-7.4479313,0.39254454,997.47455,0,0
25.68,6.62755,-7.2954025,0.36887659999999994,997.4594,0,0
25.72,6.6514883000000005,-7.2954035,0.37361459999999996,997.4721,0,0
25.76,6.5989494,-7.32877,0.37835258,997.4645,0,0
25.8,6.5750923,-7.285872,0.42570046,997.4672,0,0
25.84,6.6229324000000025,-7.4241037,0.43517312,997.4594,0,0
25.88,6.622985000000001,-7.381205599999999,0.4446467000000001,997.47705,0,0
25.92,6.7281694000000005,-7.2334433,0.35469565,997.4671,0,0
25.96,6.704312299999999,-7.2668104000000024,0.2694802,997.467,0,0
26.0,6.690011999999999,-7.3144765,0.31209347,997.4393,0,0
26.04,6.584908500000001,-7.347844,0.36417666,997.4393,0,0
26.08,6.589722599999999,-7.3430777,0.3641798,997.4696,0,0
26.12,6.647119,-7.3097134000000015,0.3925898,997.4744,0,0
26.16,6.666283,-7.3001814,0.39732829999999997,997.4495,0,0
26.2,6.642423,-7.23345,0.35472223,997.4795,0,0
26.24,6.7093797,-7.309716000000001,0.35946023,997.4416,0,0
26.28,6.609056,-7.343083,0.37366825,997.4493,0,0
26.32,6.5947504,-7.3287845,0.3310617,997.4694,0,0
26.36,6.599572,-7.257287,0.37840959999999996,997.4795,0,0
26.4,6.547034,-7.3812184000000025,0.42102283,997.4619,0,0
26.44,6.5183919999999995,-7.4098186,0.35001007,997.4621,0,0
26.48,6.5798005999999996,-7.409801,0.43516275,997.45166,0,0
26.52,6.689748,-7.2477384,0.34521008,997.4644,0,0
26.56,6.7471166,-7.2143726,0.27419505,997.4440300000001,0,0
26.6,6.761467,-7.3573694000000005,0.34994653,997.43896,0,0
26.64,6.6563229999999995,-7.309705,0.34047878,997.4868,0,0
26.68,6.637214999999999,-7.2334394,0.35468304,997.4566,0,0
26.72,6.598988,-7.242973299999999,0.3830905,997.4490400000001,0,0
26.76,6.6850357,-7.266806599999999,0.42570119999999995,997.4440300000001,0,0
26.8,6.7615232,-7.242974,0.47778059999999994,997.47925,0,0
26.84,6.6085806,-7.2954063,0.49198484,997.4466,0,0
26.88,6.6420509999999995,-7.3097059999999985,0.3830946,997.5021,0,0
26.92,6.6946425000000005,-7.2811074000000024,0.30261096,997.45917,0,0
26.96,6.6755323,-7.2620406000000015,0.2647365,997.4667,0,0
27.0,6.6420850000000025,-7.262041,0.35942572,997.4566699999999,0,0
27.04,6.608637299999999,-7.390739,0.31208268,997.4617,0,0
27.08,6.632547,-7.3287735000000005,0.40677172,997.47406,0,0
27.12,6.7616130000000005,-7.1953106,0.4446479999999999,997.4614,0,0
27.16,6.680370299999999,-7.328774,0.34996116,997.4617,0,0
27.2,6.5847836,-7.357373700000001,0.41624367,997.46405,0,0
27.24,6.584794500000001,-7.324008,0.3546974,997.4641,0,0
27.28,6.713862,-7.2477436,0.30735454,997.4465,0,0
27.32,6.646955,-7.2525105,0.34523076,997.4591,0,0
27.36,6.685203,-7.300175999999999,0.43991977,997.45905,0,0
27.4,6.6517589999999975,-7.2572775,0.45412427,997.4641,0,0
27.44,6.651768700000001,-7.242978,0.41151547,997.4616,0,0
27.48,6.7038417,-7.2238994000000005,0.41146925,997.46155,0,0
27.52,6.6894913,-7.247732000000001,0.35938987,997.4288,0,0
27.56,6.641686,-7.2858649999999985,0.38779563,997.4540400000001,0,0
27.6,6.6129999999999995,-7.2953972999999985,0.3593885,997.44653,0,0
27.64,6.6321087,-7.2906303,0.28363708,997.4667,0,0
27.68,6.6321015,-7.343062400000001,0.41619977,997.4741,0,0
27.72,6.6942296,-7.2810974,0.34044844,997.4716,0,0
27.76,6.689441,-7.290629400000001,0.37358844,997.4639,0,0
27.8,6.5938362999999995,-7.3382955,0.3688533,997.44385,0,0
27.84,6.5986075,-7.271563,0.42566532,997.47406,0,0
27.88,6.6511759999999995,-7.3764270000000005,0.41146123,997.4791,0,0
27.92,6.6033697,-7.328761599999999,0.43986693,997.4817,0,0
27.96,6.708516,-7.266796,0.40672526,997.4765,0,0
28.0,6.689389,-7.2477300000000024,0.28362998,997.43365,0,0
28.04,6.5651044999999995,-7.4002589999999975,0.33570758,997.4739,0,0
28.08,6.6320133000000006,-7.3287606,0.42092609999999997,997.46405,0,0
28.12,6.6845820000000025,-7.257262,0.3451748,997.44147,0,0
28.16,6.603317,-7.323993700000001,0.41145566,997.4515,0,0
28.2,6.59853,-7.2286625,0.48247102,997.4486699999999,0,0
28.24,6.6224194,-7.347825999999999,0.38778207,997.4563,0,0
28.28,6.61285,-7.357358500000001,0.41618767,997.4664,0,0
28.32,6.756234,-7.2381945000000005,0.326233,997.45386,0,0
28.36,6.756227,-7.242961,0.25048187,997.4764,0,0
28.4,6.6701827000000025,-7.2810936,0.3593725,997.4689,0,0
28.44,6.660614,-7.3287587,0.39251247,997.48926,0,0
28.48,6.6512384,-7.247731699999999,0.42567015,997.4565,0,0
28.52,6.6655765,-7.31923,0.43040448,997.4638699999999,0,0
28.56,6.593878299999999,-7.2953972999999985,0.50615484,997.4486699999999,0,0
28.6,6.665573599999999,-7.3239965,0.34991935,997.4816,0,0
28.64,6.7229304,-7.3144636,0.42093533,997.4638699999999,0,0
28.68,6.6225533,-7.2953972999999985,0.34045032,997.4736300000001,0,0
28.72,6.5747539999999995,-7.338296400000001,0.41620070000000003,997.48645,0,0
28.76,6.6655690000000005,-7.271564,0.37832534,997.49677,0,0
28.8,6.694247,-7.195299,0.39252844,997.4563,0,0
28.84,6.660786999999999,-7.276331,0.34044987,997.451,0,0
28.88,6.6464457999999995,-7.4336267000000005,0.5298259,997.4612400000001,0,0
28.92,6.8137380000000025,-7.247731,0.32624640000000005,997.44104,0,0
28.96,6.8567550000000015,-7.119034299999999,0.4067312,997.4636,0,0
29.0,6.483929,-7.4860587,0.38779348,997.46106,0,0
29.04,6.4170110000000005,-7.376428,0.3073085,997.46375,0,0
29.08,6.6559997000000015,-7.219132000000001,0.29783955,997.446,0,0
29.12,6.8519697,-7.271564,0.49194998,997.45605,0,0
29.16,6.8089509999999995,-7.3335295,0.4824811,997.4635599999999,0,0
29.2,6.938003999999999,-7.295397,0.17001024,997.44604,0,0
29.24,6.8424067,-7.1762333,0.070587635,997.4611,0,0
29.28,6.5986357,-7.219132000000001,0.080056325,997.4711,0,0
29.32,6.7468085,-7.004637,0.22208838,997.47614,0,0
29.36,6.851962599999999,-7.161933,0.49668375,997.4687,0,0
29.4,6.775484599999999,-7.1524,0.46354276,997.471,0,0
29.44,6.5699520000000025,-7.3335295,0.61504364,997.4862,0,0
29.48,6.5232472,-7.324022999999999,0.3074074,997.4837,0,0
29.52,6.9056729999999975,-6.8950334,0.24586396,997.4912,0,0
29.56,6.795777,-7.1714945000000005,0.26480517,997.4559300000001,0,0
29.6,6.609403599999999,-7.328792,0.19379269,997.4937,0,0
29.64,6.901016,-7.1571975000000005,0.3263601,997.4533,0,0
29.68,6.9966539999999995,-6.9999021999999975,0.3026919,997.4685,0,0
29.72,6.6095289999999975,-7.347861999999999,0.31689870000000003,997.4787,0,0
29.76,6.647811999999999,-7.1333675,0.2648243,997.47614,0,0
29.8,6.800808,-7.1810339999999995,0.20801528,997.4811,0,0
29.84,6.896443,-7.1381364000000005,0.3311134,997.4862,0,0
29.88,6.920383999999999,-7.0761724,0.38319567,997.471,0,0
29.92,6.8057050000000014,-7.1858034,0.44474632,997.4836,0,0
29.96,6.6671357,-7.157205,0.31218705,997.4382,0,0
30.0,6.7579910000000005,-7.2001050000000015,0.41161314,997.4735,0,0
30.04,6.8584137,-7.166740400000001,0.31219497,997.4760000000001,0,0
30.08,6.882349499999999,-7.171508,0.2932607,997.4608,0,0
30.12,6.748556599999999,-7.2859063,0.2648581,997.4735,0,0
30.16,6.715142999999999,-7.2096424,0.32640943,997.4836,0,0
30.2,6.753423,-7.1619779999999995,0.288538,997.4937,0,0
30.24,6.763022,-7.190579,0.31221366,997.4683,0,0
30.28,6.724825,-7.333576,0.4684528,997.5012,0,0
30.32,6.6914062,-7.295445,0.44478437,997.4861,0,0
30.36,6.686665,-7.228714,0.34063109999999996,997.49097,0,0
30.4,6.677150699999999,-7.2334814,0.45426086,997.4331,0,0
30.44,6.758446000000001,-7.190583,0.47793648,997.4886,0,0
30.48,6.719413799999999,-7.2715955,0.35003486,997.44824,0,0
30.52,6.6620630000000025,-7.257295599999999,0.27428496,997.4608,0,0
30.56,6.6668520000000004,-7.2906619999999975,0.34056753,997.4886,0,0
30.6,6.647741000000001,-7.2525296,0.40684995,997.45844,0,0
30.64,6.685989,-7.262063,0.4683981,997.4734,0,0
30.68,6.638198399999999,-7.242997,0.49680519999999995,997.4834,0,0
30.72,6.709906599999999,-7.228698,0.3547741,997.4708,0,0
30.76,6.599978,-7.3573947,0.487338,997.4733,0,0
30.8,6.652564999999999,-7.2048654999999995,0.44946367,997.47833,0,0
30.84,6.7290529999999995,-7.176266,0.37371415,997.47845,0,0
30.88,6.666921,-7.3001966,0.35004264,997.4886,0,0
30.92,6.681269599999999,-7.3383293000000025,0.3595123,997.47815,0,0
30.96,6.8246720000000005,-7.233465,0.43052912,997.50366,0,0
31.0,6.85336,-7.266832000000001,0.39265475,997.4708,0,0
31.04,6.705195,-7.347863,0.43526518,997.4555,0,0
31.08,6.614387,-7.3573966,0.25062415,997.4734,0,0
31.12,6.5809374000000025,-7.295431599999999,0.3453131,997.4455,0,0
31.16,6.5713862999999995,-7.3955293000000015,0.5062836,997.48584,0,0
31.2,6.666991,-7.3240314,0.43053395,997.4834,0,0
31.24,6.6335416,-7.3144984,0.38319075,997.4606,0,0
31.28,6.623989999999999,-7.2858990000000015,0.42580113,997.4607,0,0
31.32,6.6765776,-7.271600200000001,0.32164505,997.47565,0,0
31.36,6.6287885,-7.3097324000000015,0.44474047,997.4655,0,0
31.4,6.600117,-7.2573004,0.37845945,997.4607,0,0
31.44,6.690942999999999,-7.257300999999999,0.3831947,997.47327,0,0
31.48,6.7771807,-7.171507400000001,0.34060353,997.4580699999999,0,0
31.52,6.753298,-7.2382399999999985,0.26485455,997.4731400000001,0,0
31.56,6.5908012000000005,-7.362170699999999,0.35480976,997.4808,0,0
31.6,6.552578,-7.357404700000001,0.41635844,997.4907,0,0
31.64,6.7007685,-7.2430080000000014,0.29799983,997.4833,0,0
31.68,6.5526114,-7.343106,0.34534538,997.4909,0,0
31.72,6.6004270000000025,-7.381239,0.39742544,997.4982,0,0
31.76,6.662580999999999,-7.223942299999999,0.32167646,997.4985,0,0
31.8,6.705614999999999,-7.209643400000001,0.3264123,997.49835,0,0
31.84,6.801226,-7.2573094,0.41163298,997.4909,0,0
31.88,6.7534432,-7.1858115000000025,0.35482153,997.47327,0,0
31.92,6.6578636,-7.3192754,0.28380698,997.48816,0,0
31.96,6.576623,-7.347875,0.41163734,997.49585,0,0
32.0,6.691356699999999,-7.252544,0.33115414,997.4808,0,0
32.04,6.6961517000000015,-7.247778,0.23646744,997.4780000000001,0,0
32.08,6.6005726,-7.343109599999999,0.37850112,997.49316,0,0
32.12,6.6770697,-7.247778999999999,0.38797182,997.48334,0,0
32.16,6.748778999999999,-7.2811455999999986,0.30275366,997.46796,0,0
32.2,6.6962166,-7.309745299999999,0.44005284,997.4831,0,0
32.24,6.7105722000000005,-7.324045,0.4258510999999999,997.50085,0,0
32.28,6.767946,-7.2287145000000015,0.39271167,997.4906,0,0
32.32,6.638908,-7.29068,0.35483795,997.49316,0,0
32.36,6.5528865,-7.414611,0.4731995,997.46277,0,0
32.4,6.5768023,-7.3764787,0.37851290000000004,997.49316,0,0
32.44,6.753672,-7.2334824000000015,0.30749846,997.4907,0,0
32.48,6.6912284,-7.252541000000001,0.51104975,997.4630000000001,0,0
32.52,6.6290945999999975,-7.44797,0.42583084,997.4705,0,0
32.56,6.6721163,-7.3192735,0.3358775,997.4982,0,0
32.6,6.6864595,-7.2763740000000015,0.33114344,997.46265,0,0
32.64,6.605207000000001,-7.3192735,0.32167494,997.5081,0,0
32.68,6.7103661999999975,-7.285907300000001,0.35955057,997.4731,0,0
32.72,6.686471000000001,-7.262075,0.4542390000000001,997.4930400000001,0,0
32.76,6.6530166,-7.4003053,0.34061366,997.5004,0,0
32.8,6.681699000000001,-7.33834,0.31220755,997.4703400000001,0,0
32.84,6.681703,-7.247775,0.27906707,997.47046,0,0
32.88,6.595670699999999,-7.352639999999999,0.33114590000000005,997.4880400000001,0,0
32.92,6.6530309999999995,-7.3288074000000005,0.39269343,997.49554,0,0
32.96,6.633915400000001,-7.3049740000000005,0.383225,997.4652,0,0
33.0,6.6195803,-7.3288074000000005,0.44477257,997.49054,0,0
33.04,6.633922999999999,-7.3431067,0.39269447,997.5131,0,0
33.08,6.5909095,-7.2239428,0.35481966,997.48035,0,0
33.12,6.6243715,-7.309741499999999,0.3074759,997.5005,0,0
33.16,6.590916,-7.3431070000000025,0.4163675,997.48535,0,0
33.2,6.791672,-7.22871,0.3642895,997.4931,0,0
33.24,6.7008589999999995,-7.290675,0.37849298,997.4981,0,0
33.28,6.5431294,-7.3478746,0.35008693,997.4880400000001,0,0
33.32,6.643509,-7.2620764000000015,0.35955605,997.4880400000001,0,0
33.36,6.7295494000000025,-7.2620764000000015,0.29800913,997.503,0,0
33.4,6.667414999999999,-7.2525429999999975,0.43057280000000003,997.498,0,0
33.44,6.6387405,-7.2811426999999975,0.37376025,997.5028699999999,0,0
33.48,6.7002372999999995,-7.3144927,0.2979512,997.4903,0,0
33.52,6.7432327,-7.295426400000001,0.33582434,997.52325,0,0
33.56,6.6284975999999975,-7.290659,0.3310881,997.4828,0,0
33.6,6.6236973,-7.338324000000001,0.25060132,997.49536,0,0
33.64,6.585439,-7.285891499999999,0.27900591,997.4779699999999,0,0
33.68,6.7479233999999995,-7.2715917,0.4589107,997.4880400000001,0,0
33.72,6.7335696,-7.2334585,0.38315886,997.4677,0,0
33.76,6.623611500000001,-7.3621554000000025,0.43050084,997.5006,0,0
33.8,6.618811,-7.295422999999999,0.3594829,997.4828,0,0
33.84,6.7048273,-7.1953244000000005,0.40209073,997.4777,0,0
33.88,6.6426630000000015,-7.3097210000000015,0.37368179999999995,997.5004,0,0
33.92,6.5518317,-7.295421000000001,0.35947725,997.49036,0,0
33.96,6.618726299999999,-7.352619,0.38788158,997.4778,0,0
34.0,6.5804677,-7.4050508000000015,0.45889579999999996,997.49786,0,0
34.04,6.604343400000001,-7.300186,0.41628405,997.4853,0,0
34.08,6.613883,-7.25252,0.45889187,997.5079300000001,0,0
34.12,6.575625,-7.271586,0.4636244000000001,997.4727,0,0
34.16,6.4991245000000015,-7.343083,0.3452622,997.50037,0,0
34.2,6.441747,-7.4479475000000015,0.6435278,997.4878,0,0
34.24,6.518203,-7.3383155,0.41154003,997.5028699999999,0,0
34.28,6.680695,-7.266817,0.29317805,997.4878,0,0
34.32,6.7714887,-7.447945599999999,0.34052002,997.4675,0,0
34.36,6.3938637,-7.2143836,0.17954838,997.4749,0,0
34.4,6.412962,-7.314481,0.61037725,997.4749,0,0
34.44,6.4463987000000005,-7.6052402999999975,0.7429386,997.4649,0,0
34.48,6.7533145,-7.166742,0.79037505,997.4775400000001,0,0
34.52,6.772453,-7.271607,0.6814854,997.4951,0,0
34.56,6.7724720000000005,-7.190575999999999,0.8235193000000001,997.5054,0,0
34.6,6.7007937,-7.1381440000000005,0.86613077,997.4802,0,0
34.64,6.7677298,-7.0475802,0.8850699000000001,997.49005,0,0
34.68,6.700832000000001,-7.023747999999999,1.0081663,997.48,0,0
34.72,6.9063826,-7.176278,1.1217936000000002,997.4951,0,0
34.76,7.1071525,-7.028515,0.9892321,997.4901,0,0
34.8,6.9398785000000025,-7.2048783,1.0129058000000002,997.48505,0,0
34.84,6.9255567,-7.1667460000000025,1.0649859,997.4951,0,0
34.88,6.782181,-7.109547599999999,1.1075972,997.4875,0,0
34.92,6.743962299999999,-7.419374499999999,1.1170678,997.48,0,0
34.96,6.715306299999999,-7.1143155,0.8566777,997.4925,0,0
35.0,6.6292839999999975,-7.2668456999999975,1.0081799,997.49,0,0
35.04,6.6436424,-7.085717,0.9040248,997.5075699999999,0,0
35.08,6.901771000000001,-6.9570208,0.83301044,997.4875,0,0
35.12,6.6723576,-7.333578599999999,1.0271226,997.4649,0,0
35.16,6.7106166,-7.3717117,1.0602653,997.475,0,0
35.2,6.5098825,-7.262081599999999,0.8046091999999999,997.4775,0,0
35.24,6.4095244000000005,-7.2477818,0.6957194999999999,997.48004,0,0
35.28,6.548159,-7.2620826,0.77620614,997.4723,0,0
35.32,6.710691499999999,-7.1619850000000005,0.8424896000000001,997.49255,0,0
35.36,6.658131599999999,-7.2239504,1.1076177,997.5151400000001,0,0
35.4,6.6581516,-7.3526482999999985,1.1928389,997.4976,0,0
35.44,6.6581697,-7.1524534,0.95612043,997.50006,1,1
35.48,6.863333,-6.9284163,0.70989764,997.4748,1,1
35.52,6.8155384,-7.0475807,0.8756021999999999,997.4673,1,1
35.56,6.8729,-6.856917999999999,0.95135295,997.4748,1,1
35.6,6.8824625,-7.1286119999999995,1.0271038000000001,997.5101300000001,1,1
35.64,6.748632400000001,-6.9951487000000006,0.9986976999999999,997.4595,1,1
35.68,7.1979380000000015,-6.861684299999999,1.325372,997.4873699999999,1,1
35.72,6.98285,-6.651956,0.8566663,997.48236,1,1
35.76,6.8299,-6.842619,0.7525097,997.4975,1,1
35.8,6.557455,-6.909350999999999,0.7998541,997.4672,1,1
35.84,6.581358,-6.957016499999999,0.9040113000000001,997.5024400000001,1,1
35.88,6.4475265,-7.004681599999999,0.95135564,997.4799,1,1
35.92,6.8490350000000015,-6.9951490000000005,1.0981226,997.4747,1,1
35.96,8.101347,-6.5613923,1.8461589,997.4798,1,1
36.0,10.510371000000001,-5.074227,1.7088613999999998,997.4822,1,1
36.04,13.684166000000001,-3.8825872,1.969254,997.5101,1,1
36.08,15.643888,-3.2391023999999997,4.3033155999999995,997.5024400000001,1,1
36.12,14.477621,-5.288722,2.882995,997.49225,1,1
36.16,11.973007,-7.2334776,1.8366917,997.495,1,1
36.2,9.100348,-7.748265700000001,1.9171770000000001,997.49475,1,1
36.24,6.7343493,-7.028515299999999,2.0213342,997.49225,1,1
36.28,4.7363944,-6.113336599999999,1.6141756999999999,997.4897,1,1
36.32,3.3837144,-5.5747155999999976,0.9560939,997.50256,1,1
36.36,3.3645989999999997,-6.346898,0.26960555,997.4973,1,1
36.4,3.8808214999999997,-8.611013,-0.44528922,997.4898,1,1
36.44,4.884583999999999,-10.51287,-0.22277181,997.4747,1,1
36.48,5.2006345000000005,-12.085848,-0.42156342,997.48724,1,1
36.52,6.0753655,-12.314642999999998,0.12289554,997.4696,1,1
36.56,5.3249607,-12.815131,0.8756681000000001,997.462,1,1
36.6,6.782829799999999,-11.204037,0.59160644,997.4847,1,1
36.64,9.249233,-9.249748,-2.2916439,997.4721699999999,1,1
36.68,11.046467,-8.234473,-3.5462582,997.4469,1,1
36.72,10.740585000000001,-8.854125999999997,-0.8997238999999999,997.452,1,1
36.76,8.694857,-9.340314999999999,1.4769497,997.47705,1,1
36.8,7.738925,-8.115312,2.8073203999999996,997.47955,1,1
36.84,7.853662,-7.9532479999999985,3.493811,997.5024,1,1
36.88,8.317328999999999,-6.0418595999999996,2.2486650000000004,997.4921,1,1
36.92,9.359354,-4.211501999999999,1.3112552,997.4897,1,1
36.96,10.100247999999999,-3.5060525,1.7373539,997.4494,1,1
37.0,10.692969999999999,-4.168605,1.7989035,997.4569,1,1
37.04,12.33725,-4.969386599999999,1.8841252,997.4545,1,1
37.08,12.628844,-6.537585,1.6284698,997.4721,1,1
37.12,12.552392999999999,-8.658703,0.48748067,997.4619,1,1
37.16,12.839208,-9.287889,0.37385738,997.4545,1,1
37.2,12.633702,-11.399475,1.055614,997.5047599999999,1,1
37.24,12.648066499999999,-14.087813,1.2923366000000005,997.4719,1,1
37.28,13.111733,-14.788498,2.2818296,997.4921,1,1
37.32,10.454189999999999,-13.854254000000001,3.1340249,997.49475,1,1
37.36,8.183808,-13.058238000000001,2.371788,997.5224,1,1
37.4,6.759454700000001,-11.075352,1.0366884,997.4971300000001,1,1
37.44,5.5645304000000015,-9.855114,0.3454679,997.4844400000001,1,1
37.48,4.626683,-8.658684,0.7998786999999999,997.4921,1,1
37.52,4.3685594000000005,-7.996132000000001,1.0365976000000001,997.47455,1,1
37.56,3.3265486000000006,-8.420355,0.80461055,997.47687,1,1
37.6,1.2043016000000002,-9.140105,0.17019899,997.47186,1,1
37.64,0.59725356,-10.703535,-1.5105159,997.4669,1,1
37.68,2.2988498,-11.623481,-0.45947933,997.46185,1,1
37.72,6.4907236,-11.60918,-0.42633972,997.4468,1,1
37.76,9.535446,-12.204999,-1.5673326,997.45435,1,1
37.8,12.255138,-14.826604999999999,-2.0360398,997.46686,1,1
37.84,14.688047000000001,-15.246062,-2.0549786,997.4693599999999,1,1
37.88,14.649794,-12.233597999999999,-0.8477068000000001,997.4643,1,1
37.92,12.761758,-9.82172,1.3443213,997.47687,1,1
37.96,11.423399,-8.482318,2.0734183999999996,997.50714,1,1
38.0,11.275212,-7.3240433000000005,0.60101736,997.487,1,1
38.04,11.040988,-5.4603195,-2.2632987,997.4767,1,1
38.08,12.221586,-4.8692660000000005,-0.46896064,997.4894400000001,1,1
38.12,13.320927,-3.5727620000000004,0.9987034,997.48193,1,1
38.16,14.726173000000001,-3.0007745999999997,2.4237580000000003,997.4466,1,1
38.2,13.617248000000002,-5.522283,2.3716786,997.5021,1,1
38.24,12.594356,-8.754008,2.485303,997.5096,1,1
38.28,11.781774,-10.284073,3.1528525000000003,997.4995,1,1
38.32,11.461513499999999,-11.656839999999999,4.085529,997.4794,1,1
38.36,13.077075,-13.892356,4.2843733,997.50964,1,1
38.4,12.83807,-16.232735,2.2533119,997.5069,1,1
38.44,10.658464,-15.641681,3.1623162999999996,997.49194,1,1
38.48,9.369064,-13.677888000000001,4.057224,997.492,1,1
38.52,8.451373,-12.505316,2.8404846,997.4717,1,1
38.56,7.179977,-11.695003,1.1929146000000002,997.4792,1,1
38.6,5.9276995999999995,-9.626317,1.6521548,997.49194,1,1
38.64,6.061566,-7.729228,1.91255,997.4868,1,1
38.68,4.9240026,-7.757828,0.7100139,997.4591,1,1
38.72,3.3371377,-8.019989,0.07560642,997.4667400000001,1,1
38.76,1.3678999,-8.282150999999999,0.3407369,997.47424,1,1
38.8,1.1528306000000001,-8.077189,-0.12323278,997.4540400000001,1,1
38.84,2.0801444,-8.191587,-0.39309096,997.4189,1,1
38.88,4.5752334999999995,-8.410851,-2.1164113999999996,997.4516,1,1
38.92,7.462267,-9.5405245,-3.0869612999999996,997.434,1,1
38.96,10.158106,-13.430036999999999,-2.3199852,997.4591,1,1
39.0,12.28993,-16.390068,-1.0464274,997.4617,1,1
39.04,13.513592000000001,-16.275673,-0.8901891,997.4692,1,1
39.08,14.971460999999998,-14.083056,-1.0464218,997.50183,1,1
39.12,15.568971,-10.646371,-0.60138464,997.48175,1,1
39.16,15.349128,-8.301226,0.004621722,997.4968,1,1
39.2,14.278485,-5.2601624000000005,1.5717127,997.4616,1,1
39.24,10.8227215,-5.8321505,-1.7139609,997.49176,1,1
39.28,10.225273,-5.4222269999999995,-2.5188074,997.4717,1,1
39.32,12.194587,-4.74061,-0.6061046999999999,997.47644,1,1
39.36,13.738492,-5.1410017,0.4449359000000001,997.4766,1,1
39.4,14.622786999999999,-6.637701,0.9893953999999999,997.4767,1,1
39.44,12.940329,-8.30123,1.841591,997.51184,1,1
39.48,12.0598755,-10.527188,2.5327256,997.4766,1,1
39.52,12.074207000000001,-13.992475500000001,2.523256,997.5345,1,1
39.56,12.002502999999999,-15.851432,2.7221002999999997,997.5144,1,1
39.6,11.768286,-14.288001000000001,4.6253304,997.5016,1,1
39.64,10.98917,-12.305114,4.6916113,997.5042,1,1
39.68,10.406025999999999,-11.490032000000001,3.5553536,997.4865,1,1
39.72,9.306663499999999,-11.313669,2.5658622,997.5094,1,1
39.76,7.934852,-10.736917,2.4096262000000004,997.5093400000001,1,1
39.8,6.2905927,-9.902768,2.4711727999999997,997.4739400000001,1,1
39.84,4.2926269999999995,-9.530977,2.2675927000000002,997.4842,1,1
39.88,2.834779,-8.572898,1.5858375,997.4766,1,1
39.92,1.8071139999999999,-7.667252,0.9040826999999999,997.43896,1,1
39.96,1.5011994,-6.9332027,0.3264847,997.4490400000001,1,1
40.0,2.2229414,-7.633886,-1.1222438999999995,997.45886,1,1
40.04,3.5851789,-8.415602,-2.4573467,997.45886,1,1
40.08,5.411055999999999,-9.998097,-2.604114,997.4262,1,1
40.12,8.809489,-12.886631,-0.8571191999999999,997.4664,1,1
40.16,13.096967,-15.012514999999999,-1.8608136999999998,997.45654,1,1
40.2,15.171393,-15.546370000000001,-3.1154314999999997,997.4641,1,1
40.24,14.052912,-13.387119,-1.7519237,997.4739400000001,1,1
40.28,12.900971,-10.612983,0.64368427,997.4765,1,1
40.32,11.878085,-8.70636,0.21758711,997.4992699999999,1,1
40.36,10.826521000000001,-7.857912,-1.2642822,997.47144,1,1
40.4,10.018727,-7.3288245,-0.50677806,997.4815,1,1
40.44,9.693693,-6.5471087,0.22231948,997.4866300000001,1,1
40.48,10.210548,-5.9036393,1.2923533,997.4739,1,1
40.52,10.765023,-5.0456595,0.7526328,997.4663,1,1
40.56,11.104407,-4.678635,0.47803885,997.4739,1,1
40.6,10.793738000000001,-5.760644,0.6248071,997.47144,1,1
40.64,10.119802,-8.196356,0.53012055,997.4965,1,1
40.68,9.837812,-11.080122,0.53012216,997.4839,1,1
40.72,10.081599,-12.629254,0.989361,997.48645,1,1
40.76,10.3110485,-12.691219,1.2828957,997.5042,1,1
40.8,10.081634,-12.591123,1.2355533,997.4737,1,1
40.84,10.358879,-12.853283,1.3444461,997.5143,1,1
40.88,9.627587,-13.606400500000001,1.2024156000000001,997.4713,1,1
40.92,7.1277669999999995,-13.358539000000002,1.2923708999999999,997.45874,1,1
40.96,4.7713410000000005,-11.747442,1.4391388999999999,997.4965,1,1
41.0,4.207344,-8.892277,1.2402958,997.4763,1,1
41.04,4.393773,-7.1620164000000015,0.63429356,997.45105,1,1
41.08,4.0114074,-6.5852637000000005,0.5348727,997.4536,1,1
41.12,3.8202307,-6.9046235000000005,0.74318796,997.4814,1,1
41.16,3.6959733999999997,-7.405112299999999,0.90415937,997.4511,1,1
41.2,3.1941109,-7.6863394,0.9373017,997.43854,1,1
41.24,4.4034176,-7.500444,1.0130537,997.44116,1,1
41.28,6.5973663,-7.83887,0.16086258,997.45874,1,1
41.32,8.060005,-8.191596,-1.4772398000000002,997.4813,1,1
41.36,11.726132000000002,-7.848403999999999,0.08038096,997.4941,0,0
41.4,14.340703,-6.7759295,0.56329185,997.4814,0,0
41.44,14.154307999999999,-6.2611413,0.20821312,997.4638,0,0
41.48,13.068566,-5.8893330000000015,-0.27002817,997.4839,0,0
41.52,11.940521,-5.2124809999999995,-0.41206133,997.4989,0,0
41.56,10.6212845,-4.764424299999999,-0.35051509999999997,997.46625,0,0
41.6,9.407204,-5.3888435,0.66738087,997.4688,0,0
41.64,8.432113000000001,-6.0895267,1.5337758999999995,997.5065300000001,0,0
41.68,7.4904795,-7.1477017000000025,2.0640283,997.50397,0,0
41.72,6.740039,-7.681556,1.7846973000000002,997.49396,0,0
41.76,6.4866977,-7.6148243,1.1834267,997.4989,0,0
41.8,6.544044,-7.543325999999999,0.8425486999999999,997.4839,0,0
41.84,6.610951400000001,-7.519492,0.38804495,997.4713,0,0
41.88,6.696975999999999,-7.386029,-0.20375676,997.4739,0,0
41.92,6.577470299999999,-7.59099,-0.838168,997.48645,0,0
41.96,6.386265799999999,-7.6481886,-1.2784686,997.4738,0,0
42.0,6.089907,-7.829317599999999,-1.3447514999999999,997.4939,0,0
42.04,6.357566,-7.672021000000001,-0.8429054,997.4687,0,0
42.08,6.716037299999999,-7.223964,-0.12327716,997.4839,0,0
42.12,6.8068433000000015,-7.0142355,0.009285271,997.4862699999999,0,0
42.16,6.806832000000001,-7.0428348,0.24600443,997.4764,0,0
42.2,6.7016664000000015,-7.190597500000001,0.46852055,997.48895,0,0
42.24,6.5056825,-7.343127000000001,0.71944296,997.4789,0,0
42.28,6.5439095,-7.266862400000001,0.7478483,997.4764,0,0
42.32,6.7924485,-6.9665685,0.5821430999999999,997.46375,0,0
42.36,7.232178999999999,-6.8235717000000005,0.31701544,997.4586,0,0
42.4,7.366003,-6.7520729999999975,0.24599837,997.49396,0,0
42.44,7.279954400000001,-6.9951669999999995,0.22232525,997.4663,0,0
42.48,7.175142999999999,-7.138172,0.20341907,997.4486699999999,0,0
42.52,6.9648337,-7.1953710000000015,-0.13272342,997.4738,0,0
42.56,6.845341,-7.119106299999999,-0.27475533,997.4839,0,0
42.6,6.721068400000001,-7.0428414,-0.156395,997.4789,0,0
42.64,6.6876125,-7.157238499999999,-0.08537868,997.4688,0,0
42.68,6.587239299999999,-7.238270299999999,0.032981675,997.4713,0,0
42.72,6.596800999999999,-7.3526672999999985,0.11820117,997.4888,0,0
42.76,6.6015835,-7.3908,0.28390554,997.4738,0,0
42.8,6.658943700000001,-7.247803,0.1939521,997.4838,0,0
42.84,6.778441,-7.2239704,0.09452984,997.4839,0,0
42.88,6.8214625999999985,-7.2525697000000005,0.08506127,997.4713,0,0
42.92,6.9122806,-7.152473,-0.023829825,997.4789,0,0
42.96,6.8501460000000005,-7.2144375,-0.09011127,997.4788,0,0
43.0,6.749772,-7.2954693,-0.06170462400000001,997.4914,0,0
43.04,6.692417599999999,-7.228738000000001,0.028249327,997.4764,0,0
43.08,6.7019787,-7.114340299999999,0.10400000000000001,997.4611,0,0
43.12,6.6302843,-7.204905,-0.0048910677000000005,997.4711,0,0
43.16,6.5968279999999995,-7.26687,0.26023579999999996,997.4839,0,0
43.2,6.6063905,-7.2907033,0.2886425,997.45605,0,0
43.24,6.606393,-7.2954698,0.29811153,997.4937,0,0
43.28,6.663753,-7.214438,0.19395484,997.4738,0,0
43.32,6.711553599999999,-7.2954698,0.20342389,997.4864,0,0
43.36,6.7067766,-7.2668705000000005,0.05665758,997.4663,0,0
43.4,6.850173,-7.1143410000000005,-0.18006244,997.4635599999999,0,0
43.44,6.9170929999999995,-6.999943300000001,-0.27948472,997.4635599999999,0,0
43.48,6.846398,-7.257362400000001,0.033077712999999995,997.4736300000001,0,0
43.52,6.774742599999999,-7.309796,0.16091046,997.4738,0,0
43.56,6.6696240000000016,-7.228764999999999,0.19405465,997.4636,0,0
43.6,6.6075300000000015,-7.228766,0.1893243,997.4658,0,0
43.64,6.5693335999999976,-7.2621326,0.29821947,997.4711,0,0
43.68,6.6076117,-7.338399000000001,0.39291114,997.4738,0,0
43.72,6.75105,-7.219236,0.33136797,997.4661,0,0
43.76,6.803669999999999,-7.128672,0.21774610000000005,997.4862,0,0
43.8,6.770248,-7.142973,0.113592535,997.4839,0,0
43.84,6.7989690000000005,-7.0810084,-0.042638999999999996,997.4713,0,0
43.88,6.7559949999999995,-7.1954074000000015,-0.07104136,997.4888,0,0
43.92,6.7512565,-7.142976299999999,0.07572903,997.4687,0,0
43.96,6.7704130000000005,-7.176342999999999,-1.8093734999999998e-05,997.4888,0,0
44.0,6.8612733,-7.066713,0.047330007,997.4586,0,0
44.04,6.8517556,-7.10008,0.16095956,997.4864,0,0
44.08,6.832673,-7.123914,0.19883814,997.4710699999999,0,0
44.12,6.8757334000000006,-7.0714827000000025,0.123091504,997.4864,0,0
44.16,6.8805570000000005,-7.1382155,-0.01893659,997.4862,0,0
44.2,6.851920599999999,-7.1477494,-0.0047295317,997.4787,0,0
44.24,6.8997600000000014,-7.0953183000000015,-0.04260092,997.4837,0,0
44.28,6.8089832999999995,-7.138219,-0.004722111,997.4913,0,0
44.32,6.8233647,-7.1572857,0.06629781400000001,997.4914,0,0
44.36,6.952456,-7.123921000000001,0.19886446,997.4761,0,0
44.4,6.976404,-7.1668214999999975,0.1467906,997.4787,0,0
44.44,6.914306599999999,-7.061958,0.052106085999999996,997.4862699999999,0,0
44.48,6.8167490000000015,-7.1381745,-0.04276154,997.4634,0,0
44.52,6.7067814,-7.171539999999999,-0.07117091,997.4736,0,0
44.56,6.7067422999999975,-7.2192044000000015,-0.023830444,997.4989,0,0
44.6,6.773617999999999,-7.176304300000001,0.14660434,997.4661,0,0
44.64,6.7783656,-7.147703599999999,0.30757117,997.4761,0,0
44.68,6.792670200000001,-7.147703,0.26495835,997.46326,0,0
44.72,6.768733,-7.181068400000001,0.37384608,997.48114,0,0
44.76,6.740019,-7.228733,0.25548282,997.45575,0,0
44.8,6.8260190000000005,-7.195366,0.15605693,997.45325,0,0
44.84,6.8020830000000005,-7.142933,0.12291275,997.45074,0,0
44.88,6.7877089999999995,-7.1238665999999995,0.047159106,997.4634,0,0
44.92,6.7685537,-7.1858296,-0.21323654,997.4887,0,0
44.96,6.8115369999999995,-7.2477946,-0.00019146875,997.4837,0,0
45.0,7.150866499999999,-6.9761,0.15130612,997.461,0,0
45.04,7.155608999999999,-6.828336,0.14656836,997.4988,0,0
45.08,7.1412330000000015,-6.899833,0.1891746,997.4710699999999,0,0
45.12,7.002581599999999,-6.9379644,0.2507185,997.4583,0,0
45.16,7.0885815999999995,-6.928431,0.18916789,997.45074,0,0
45.2,7.0264077,-6.947496000000001,0.22230534,997.48596,0,0
45.24,6.978575,-6.995161,0.2507086,997.4381,0,0
45.28,6.9641967000000005,-7.018992999999999,0.26017386,997.44073,0,0
45.32,6.8207726,-7.071424499999999,0.13707662,997.4608,0,0
45.36,6.777710400000001,-7.1190885999999995,0.11813499,997.4710699999999,0,0
45.4,6.887612,-7.400314999999999,0.099194214,997.4609,0,0
45.44,6.9736156000000005,-7.447978999999999,0.18914495,997.4484,0,0
45.48,6.8797545,-7.3669906,0.037802815,997.45575,0,0
45.52,6.6216803,-7.362225,0.08988447,997.4657599999999,0,0
45.56,6.406618,-7.3431587,0.39288902,997.4734,0,0
45.6,6.3684125,-7.3622265,0.29820395,997.4736,0,0
45.64,6.3684473,-7.419426,0.2603319,997.4535,0,0
45.68,6.3589187,-7.405127,0.11356817,997.4633,0,0
45.72,6.5644855,-7.319329700000001,0.09936817,997.4735,0,0
45.76,6.712688000000001,-7.2287664000000005,-0.018989306,997.4507,0,0
45.8,6.789198,-7.2478333,0.018888945,997.4758,0,0
45.84,6.8657080000000015,-7.2430673,0.12778328,997.4407,0,0
45.88,6.894417999999999,-7.138203999999999,0.21773982,997.461,0,0
45.92,6.9661503,-7.1572704,0.18933658,997.46326,0,0
45.96,7.056997,-7.1143727,0.14672978,997.4635,0,0
46.0,6.932753,-7.023809,0.061513322999999995,997.4736,0,0
46.04,6.779833999999999,-7.1477394,0.10412617,997.4659,0,0
46.08,6.669932000000001,-7.3002705999999975,0.28877097,997.4482,0,0
46.12,6.607825,-7.238306,0.31718022,997.4659,0,0
46.16,6.6938949999999995,-7.1858745,0.29351124,997.45825,0,0
46.2,6.7321644,-7.2192416,0.20356035,997.4685,0,0
46.24,6.650942,-7.2049426999999975,0.26511082,997.4709,0,0
46.28,6.617514599999999,-7.2430759999999985,0.09940949,997.47614,0,0
46.32,6.564967599999999,-7.2859755,0.06153709,997.4758,0,0
46.36,6.732297999999999,-7.12868,-0.07575728,997.4962,0,0
46.4,6.842264,-7.200178999999999,-0.056816813,997.45825,0,0
46.44,6.8661966,-7.1620474000000005,-0.014204182,997.4658,0,0
46.48,6.750190299999999,-7.1381830000000015,-0.00011907890400000001,997.47833,0,0
46.52,6.6975937000000005,-7.209681,-0.009589635,997.4657599999999,0,0
46.56,6.7501526,-7.2573466,-0.0379978,997.4532,0,0
46.6,6.869629400000001,-7.0571504,0.03775107,997.4482,0,0
46.64,6.9508657000000005,-7.119115400000001,0.07562445,997.4710699999999,0,0
46.68,6.965189,-7.138180999999999,0.08982612,997.4633,0,0
46.72,6.812214999999999,-7.1763134000000015,-0.06641109,997.45825,0,0
46.76,6.773959599999999,-7.162012599999999,-0.11375666,997.4657599999999,0,0
46.8,6.7309217000000015,-7.176312400000001,0.023539242999999998,997.48596,0,0
46.84,6.721342999999999,-7.1620116,0.07088152,997.4608,0,0
46.88,6.640067,-7.281175599999999,0.14663026,997.4658,0,0
46.92,6.5779114000000005,-7.295474499999999,0.042471725,997.4709,0,0
46.96,6.472737,-7.3717394,0.15136132,997.45575,0,0
47.0,6.5969925000000025,-7.3288392999999985,0.14662516,997.4683,0,0
47.04,6.721248599999999,-7.2192082,-0.033283975,997.4633,0,0
47.08,6.7260094,-7.219208,-0.14217702,997.47833,0,0
47.12,6.635174,-7.271639299999999,-0.0711627,997.4633,0,0
47.16,6.687734,-7.2287399999999975,-0.061695497,997.45325,0,0
47.2,6.687715,-7.238272,0.075600505,997.4683,0,0
47.24,6.730714999999999,-7.2287393,0.009317078000000001,997.4379,0,0
47.28,6.835851,-7.085742,0.08033139,997.4683,0,0
47.32,6.9792274999999995,-7.0619087,0.12767382,997.4833,0,0
47.36,6.9696484,-7.2430369999999975,0.20815696,997.4530599999999,0,0
47.4,6.8740335,-7.233503999999999,0.1797488,997.448,0,0
47.44,6.874013400000001,-7.147705,0.10873087,997.448,0,0
47.48,6.817767,-7.071467999999999,0.033082099999999996,997.4683,0,0
47.52,6.832133,-6.957071000000001,0.09936623,997.48596,0,0
47.56,6.7604619999999995,-7.081001799999999,-0.014257163,997.4555,0,0
47.6,6.6648893,-7.2382990000000005,0.11357395,997.4555,0,0
47.64,6.7222724000000005,-7.2954984,0.17985794,997.4681,0,0
47.68,6.813112299999999,-7.2668996,0.12778167,997.47064,0,0
47.72,6.837036599999999,-7.247833999999999,-0.06632662,997.4658,0,0
47.76,6.7844843999999975,-7.2240020000000005,0.018894982,997.45575,0,0
47.8,6.8084083,-7.204936,-0.033181135,997.4580699999999,0,0
47.84,6.837113,-7.076239599999999,-0.028444398,997.46075,0,0
47.88,6.8323565,-7.2144704,0.018901814,997.4580699999999,0,0
47.92,6.8515015,-7.2097044000000015,0.14673308,997.4909,0,0
47.96,6.818067999999999,-7.128673599999999,0.14673540000000002,997.4682,0,0
48.0,6.822872,-7.1715729999999995,0.13253437,997.4403699999999,0,0
48.04,6.689062599999999,-7.1858735000000005,0.18461512,997.4403699999999,0,0
48.08,6.760787,-7.133442,0.13253914,997.4756,0,0
48.12,6.7655899999999995,-7.1954082999999995,0.06152525,997.4555,0,0
48.16,6.789513,-7.2335410000000016,0.11360587,997.453,0,0
48.2,6.7035017,-7.219241999999999,0.047326528,997.4630000000001,0,0
48.24,6.6127104999999995,-7.3145732999999975,0.0757353,997.4630000000001,0,0
48.28,6.708334,-7.2955084,-0.004747141,997.4682,0,0
48.32,6.727477,-7.23831,-0.033151392,997.4606,0,0
48.36,6.7561793,-7.1763452999999995,-0.03788362,997.4429,0,0
48.4,6.7896633,-7.123914,0.01419715,997.4580699999999,0,0
48.44,6.842267,-7.0047502999999995,-0.12783267,997.4555,0,0
48.48,6.975253599999999,-7.023796000000001,0.042528300000000005,997.453,0,0
48.52,7.1234207,-6.97613,0.3407952,997.47064,0,0
48.56,7.061274000000001,-6.9189315,0.3786696,997.4756,0,0
48.6,6.860513,-7.147726,0.2887151,997.4505,0,0
48.64,6.702771,-7.2811894,0.1703542,997.42523,0,0
48.68,6.688422999999999,-7.243057,0.037790064,997.4606,0,0
48.72,6.7170925000000015,-7.2382894,-0.17999342,997.4505,0,0
48.76,6.740983,-7.3431539999999975,-0.2699479,997.45294,0,0
48.8,6.6836166,-7.2239895,-0.10897893,997.4504,0,0
48.84,6.697947999999999,-7.243056,-0.042698015,997.4555,0,0
48.88,6.697939,-7.328853599999999,0.08039568,997.4554400000001,0,0
48.92,6.750508,-7.2621210000000005,0.14194211,997.44775,0,0
48.96,6.7696185,-7.157257,0.15141015,997.4630000000001,0,0
49.0,6.7552705,-7.1191244000000005,0.15614377,997.45294,0,0
49.04,6.8221793,-7.1191244000000005,0.07565808,997.44525,0,0
49.08,6.831729400000001,-7.1286570000000005,0.14667335,997.44525,0,0
49.12,6.8460600000000005,-7.157255999999999,0.14193812,997.4655,0,0
49.16,6.860392,-7.104823599999999,0.1750783,997.4630000000001,0,0
49.2,6.8460426,-7.080991,0.056717277,997.47046,0,0
49.24,6.807794599999999,-7.2001543,0.05198198,997.4301,0,0
49.28,6.803008,-7.104823,0.07565337,997.44525,0,0
49.32,6.764760000000001,-7.238286,-0.037973206,997.4730000000001,0,0
49.36,6.750412,-7.195387400000001,0.09458929,997.4705,0,0
49.4,6.7886415,-7.2049202999999995,0.12772934,997.44775,0,0
49.44,6.826871400000001,-7.162020699999999,0.11352536,997.4502,0,0
49.48,6.750708,-7.1429625,0.0046627447,997.4554,0,0
49.52,6.8558674,-7.2716600000000025,-0.052149754000000006,997.4602699999999,0,0
49.56,6.9801464000000015,-7.1048303,-0.009539805,997.44525,0,0
49.6,7.104425,-7.1238966,-0.009539451,997.4327,0,0
49.64,6.984934,-7.219228,-0.07108639,997.4301,0,0
49.68,6.870222,-7.1858619999999975,-0.061617192,997.4403,0,0
49.72,6.7889695,-7.0905309999999995,-0.01900724,997.4425699999999,0,0
49.76,6.6599183,-7.200162,-0.0048036575,997.4502,0,0
49.8,6.6360225999999995,-7.2144613,0.22244808,997.4454,0,0
49.84,6.688604400000001,-7.200162,0.2887301,997.45526,0,0
49.88,6.688608,-7.376524400000001,0.23665197,997.4529,0,0
49.92,6.6360339999999995,-7.2144613,0.1751051,997.4350599999999,0,0
49.96,6.645597,-7.128664,0.042542055,997.4427,0,0
50.0,6.6981792,-7.247828,-0.04741125,997.46045,0,0
50.04,6.679064,-7.223994999999999,-0.09002055,997.4527,0,0
50.08,6.769883999999999,-7.166796700000001,-0.09002021,997.46796,0,0
50.12,6.769888000000001,-7.328859299999999,-0.094754264,997.46796,0,0
50.16,6.750772,-7.17633,-0.04267548400000002,997.47546,0,0
50.2,6.822473,-7.1286645,0.17984189,997.47046,0,0
50.24,6.841595599999999,-7.114364999999999,0.17037342,997.4325,0,0
50.28,6.765122,-7.0857660000000005,0.11829528,997.4680000000001,0,0
50.32,6.6790899999999995,-7.204929400000001,0.22245257,997.4451,0,0
50.36,6.640855,-7.333627000000001,0.17984325,997.4527,0,0
50.4,6.7412350000000005,-7.2621284,-0.037939016,997.4527,0,0
50.44,6.798596400000001,-7.257362400000001,-0.13736117,997.46277,0,0
50.48,6.845880499999999,-7.147719,-0.26997152,997.46014,0,0
50.52,6.802847,-7.1858505999999975,-0.17055045,997.4476300000001,0,0
50.56,6.774151,-7.305014,-0.07586394,997.4577,0,0
50.6,6.755016,-7.262115,-0.0048492774,997.46277,0,0
50.64,6.688083,-7.276414,0.11824383,997.43756,0,0
50.68,6.707186999999999,-7.209682000000001,0.14191444,997.45514,0,0
50.72,6.6593714,-7.233515,0.13717842,997.4577,0,0
50.76,6.735833,-7.2954793,0.10403617,997.4401,0,0
50.8,6.8122929999999995,-7.1572485,0.08983146,997.4526,0,0
50.84,6.8887550000000015,-7.0285509999999976,-0.075874135,997.4527,0,0
50.88,6.869619,-7.1048155,-0.052203592,997.4425699999999,0,0
50.92,6.8026839999999975,-7.1953797,0.018810842,997.4577,0,0
50.96,6.850467,-7.1715465,0.0046062283,997.4703,0,0
51.0,6.8600106,-7.162013000000001,0.018808015,997.4325,0,0
51.04,6.8265357,-7.085748,0.16083866,997.45514,0,0
51.08,6.759602,-7.185845,0.23185322,997.4425699999999,0,0
51.12,6.7022266,-7.195378,0.13242911,997.4325,0,0
51.16,6.6926520000000025,-7.2144429999999975,0.20817816,997.4476300000001,0,0
51.2,6.6209393,-7.1477113,0.12295748,997.45514,0,0
51.24,6.6304820000000015,-7.19061,0.08034632,997.4677,0,0
51.28,6.726062,-7.16201,0.10875122,997.4725,0,0
51.32,6.716487,-7.2621080000000005,0.07087457,997.4325,0,0
51.36,6.802508,-7.2096753,0.21763971,997.4803,0,0
51.4,6.874188,-7.1667757,0.061402767999999996,997.4599,0,0
51.44,6.9076295,-7.1429424,0.08980769,997.4501,0,0
51.48,6.92305,-7.119136,0.04729702,997.4677,0,0
51.52,6.8561583,-7.114371,0.09464334,997.4801,0,0
51.56,6.9183226,-7.3288660000000005,0.15619305,997.4501,0,0
51.6,7.0569630000000005,-7.3812985,0.23668037,997.4576400000001,0,0
51.64,7.047430499999999,-7.0476410000000005,-0.07105349,997.4649699999999,0,0
51.68,7.0331160000000015,-6.8808117,-0.26042742,997.4325,0,0
51.72,6.889748,-7.014276,-0.118392825,997.4426,0,0
51.76,6.775059700000001,-7.0857754,0.17987712,997.4476,0,0
51.8,6.7989855,-7.133441,0.47814703,997.4549599999999,0,0
51.84,6.8276906,-6.9809117,0.40713343,997.46014,0,0
51.88,6.7273397,-7.0428777,0.39293249999999996,997.4450699999999,0,0
51.92,6.665228999999999,-7.0953100000000004,0.39293495,997.4450699999999,0,0
51.96,6.665255499999999,-7.290739500000001,0.3503277,997.4576400000001,0,0
52.0,6.832573399999999,-7.1477437,0.16095379999999998,997.4476,0,0
52.04,7.033354300000001,-6.9999814,-0.02368537,997.4425699999999,0,0
52.08,6.9903603,-6.904650999999999,-0.10416797,997.4501300000001,0,0
52.12,6.9234695,-6.8617525,-0.07575913,997.4828,0,0
52.16,6.9234962,-7.061948299999999,0.061541066,997.4677,0,0
52.2,6.856603999999999,-7.185879700000001,0.25091955,997.4476,0,0
52.24,6.8279520000000025,-7.257378599999999,0.44029814,997.46265,0,0
52.28,6.7849603000000025,-6.961853,0.40715975,997.46265,0,0
52.32,6.8710217,-6.809323299999999,0.17044179999999998,997.4449,0,0
52.36,6.7754525999999995,-7.090551,0.2982732,997.455,0,0
52.4,7.052707700000001,-7.0524197,0.30774444,997.4803,0,0
52.44,6.922745,-7.157261,-0.080559835,997.46246,0,0
52.48,6.8128023,-7.3526897,-0.17524864,997.4346300000001,0,0
52.52,6.8940472999999995,-7.2335258,-0.085295975,997.4425699999999,0,0
52.56,6.851018400000001,-7.1953929999999975,0.052000772,997.4702,0,0
52.6,6.8988047,-6.9951973,0.23190708,997.46246,0,0
52.64,6.994389,-6.966597999999999,0.23664038,997.4649699999999,0,0
52.68,7.046956,-6.976130499999999,0.35026512,997.4423,0,0
52.72,7.113863,-6.8903327,0.45442107,997.4498,0,0
52.76,7.2333465,-6.5614395000000005,-0.19892788,997.4476,0,0
52.8,6.6119595,-7.2096906,0.16562021,997.45734,0,0
52.84,6.7410035000000015,-7.290722,0.40233946,997.4674,0,0
52.88,7.0086617,-7.019028,0.21296223,997.4472,0,0
52.92,6.9847517,-7.1667914,0.31238377,997.4552,0,0
52.96,7.085115400000001,-7.1191254,0.2839762,997.4649699999999,0,0
53.0,7.161581,-7.209689599999999,0.53016424,997.4901,0,0
53.04,7.051634299999999,-7.228756,0.26977098,997.4677,0,0
53.08,7.0420630000000015,-7.2954874000000025,0.35972363,997.4449,0,0
53.12,7.285823,-7.1810894,-0.023764148,997.4552,0,0
53.16,7.161536,-7.2335214999999975,0.05671969,997.46014,0,0
53.2,6.8125997000000025,-7.0190262999999975,0.1087971,997.4549,0,0
53.24,6.7600117,-7.162022,-0.023767155,997.4702,0,0
53.28,6.7217603000000015,-7.2621193,0.30764005,997.45465,0,0
53.32,6.960739599999999,-7.3622174,0.6532505999999999,997.4727,0,0
53.36,6.846012599999999,-7.285952,0.5254206,997.4299,0,0
53.4,6.822103500000001,-6.6710663,0.24608976,997.4476,0,0
53.44,6.540083999999999,-6.5995669999999995,-0.59663534,997.45465,0,0
53.48,6.588806,-6.966614999999999,-0.27934557,997.4398,0,0
53.52,6.8230405,-6.9094167,-0.37876594,997.4649,0,0
53.56,6.8135047,-6.928484,-0.009480197,997.4624,0,0
53.6,6.890008,-7.0238156,-0.37402686,997.45734,0,0
53.64,6.8709145000000005,-7.0381155,-0.19411722,997.4498,0,0
53.68,6.923516,-7.123914699999999,0.014198771,997.4471,0,0
53.72,6.7084503,-7.090549,-0.033142935,997.44464,0,0
53.76,6.789732000000001,-7.0571837,-0.1041567,997.4372599999999,0,0
53.8,6.6989410000000005,-6.914187400000001,-0.3598122,997.4497,0,0
53.84,7.0144334000000015,-6.8617563,-0.033135954,997.43976,0,0
53.88,7.0048976,-6.8331574999999996,-0.3692765,997.45715,0,0
53.92,6.88065,-6.909422999999999,0.26040176,997.4345,0,0
53.96,6.9619303,-7.0142875,-0.07573880000000001,997.4599599999999,0,0
54.0,6.746865,-7.061953999999999,-0.66280264,997.4371,0,0
54.04,6.7134295,-6.8093266,-0.42134583,997.44965,0,0
54.08,6.9428854000000015,-6.7187634,-0.8427055,997.44464,0,0
54.12,6.952471000000001,-7.1763535,-0.629655,997.44714,0,0
54.16,6.9620557000000005,-7.2097197,-0.18461862,997.43744,0,0
54.2,7.110253,-6.9332600000000015,-0.33611742,997.4295,0,0
54.24,7.1676364,-6.933260400000001,-0.07098843,997.44965,0,0
54.28,7.0577254,-6.795031,-0.24615909,997.455,0,0
54.32,6.909577400000001,-6.833164,-0.17514068,997.47015,0,0
54.36,7.4162607000000005,-6.4613733,-0.87583035,997.4371,0,0
54.4,7.1438369999999995,-6.5805383,-1.4818319,997.4597,0,0
54.44,7.062606,-6.766433999999999,-0.8994978000000001,997.43713,0,0
54.48,7.726023,-6.637713400000001,-0.6344604,997.4751,0,0
54.52,7.4870186,-6.690144999999999,-1.4393106000000002,997.45465,0,0
54.56,7.286254,-6.7950087,-0.21310091,997.45966,0,0
54.6,7.224102499999999,-7.1191344,0.10410297,997.447,0,0
54.64,7.2384276,-6.976137599999999,-0.42615159999999996,997.4647,0,0
54.68,7.0042032999999995,-6.6901436,-0.87118703,997.4269400000001,0,0
54.72,6.8607955,-6.9761367,-0.34093487,997.4501,0,0
54.76,6.9468190000000005,-7.104833,-0.061606232000000004,997.4773,0,0
54.8,7.243152,-6.9618363,0.17511263,997.44714,0,0
54.84,7.2622589999999985,-6.6138773,-0.41668904,997.4346,0,0
54.88,7.0232550000000025,-6.6424766,-0.33147106,997.4727,0,0
54.92,6.836827799999999,-6.756873599999999,-0.18944027,997.44965,0,0
54.96,7.0184474,-6.7473399999999994,0.023606744,997.4852,0,0
55.0,7.0949106,-6.675841,-0.11369219400000001,997.44464,0,0
55.04,7.047097999999999,-6.861737,-0.037943084,997.4622,0,0
55.08,6.9084716,-6.947534599999999,0.09935354,997.4802,0,0
55.12,6.9275759999999975,-6.971367,0.08988338,997.4497,0,0
55.16,6.918003,-7.0047320000000015,0.13722625,997.4724,0,0
55.2,6.860632400000001,-7.1000633,0.23191312,997.47015,0,0
55.24,6.8080397,-7.0333314,-0.019011687,997.4673,0,0
55.28,6.7602277000000015,-7.028564,0.004659094,997.45715,0,0
55.32,6.8319106,-7.0190306,-0.09476471,997.4751,0,0
55.36,7.03265,-6.8903337,-0.061625052,997.45465,0,0
55.4,7.156910400000001,-6.952298,-0.08529836,997.4647,0,0
55.44,7.295511999999999,-7.1477265,0.13248307,997.4572,0,0
55.48,7.3347697,-6.94279,0.018950643,997.45465,0,0
55.52,7.20096,-6.728295,0.17992267,997.4572,0,0
55.56,7.1531887,-6.6615644,0.17992511,997.45984,0,0
55.6,7.0958576,-6.8569937,-0.08519909,997.4799,0,0
55.64,7.033747,-7.066723,0.2604149,997.46967,0,0
55.68,6.8951573,-7.2812185,0.35510525,997.44476,0,0
55.72,6.8951839999999995,-7.1906548,0.265154,997.4471,0,0
55.76,6.928667999999999,-7.023826,0.17046820000000001,997.4295699999999,0,0
55.8,7.139006,-6.909428999999999,0.15153304,997.4496,0,0
55.84,7.2967676999999975,-6.766433,-0.13726307,997.4596,0,0
55.88,7.2489944,-6.7998,-0.033103887,997.44714,0,0
55.92,7.019591,-6.895131,0.24622844,997.45715,0,0
55.96,6.732829,-6.861766,0.35038778,997.4596,0,0
56.0,6.5751224000000015,-6.8998990000000004,0.58237606,997.4572,0,0
56.04,6.536908599999999,-6.9523315000000006,0.6202535,997.4671599999999,0,0
56.08,6.6803293,-7.05243,0.7338816999999999,997.45465,0,0
56.12,6.8189699999999975,-7.2001940000000015,0.83330667,997.45465,0,0
56.16,6.599124400000001,-7.347958,0.7338864,997.45465,0,0
56.2,6.436637999999999,-7.314592999999999,0.36933973,997.4571,0,0
56.24,6.4557834000000005,-7.328892999999999,-0.004675813,997.4521,0,0
56.28,6.6517800000000005,-7.295528,-0.34555063,997.46234,0,0
56.32,6.819102,-7.557689,-0.014139742,997.44714,0,0
56.36,7.029439999999999,-7.5672229999999985,0.10895719999999999,997.4421,0,0
56.4,7.3162527000000015,-7.257397,-0.09935431,997.46967,0,0
56.44,7.5600495,-6.7569094,-0.15616472,997.4647,0,0
56.48,7.3635864,-6.613900699999999,0.132589,997.45966,0,0
56.52,6.966869,-7.0095253,0.582358,997.44464,0,0
56.56,6.5653714999999995,-7.6005783,0.833282,997.4799,0,0
56.6,6.4411025,-7.505247,0.662844,997.4898699999999,0,0
56.64,6.8139334000000025,-6.9809265,0.4639996,997.46234,0,0
56.68,7.1294074000000025,-6.842696000000001,0.53501624,997.46967,0,0
56.72,7.1485324000000015,-7.081024,0.61076736,997.47473,0,0
56.76,7.0672820000000005,-7.3288856,0.6865183000000001,997.4848,0,0
56.8,6.8760962,-7.1477559999999984,0.57762766,997.4496,0,0
56.84,6.574975500000001,-7.1525229999999995,0.44979924,997.45966,0,0
56.88,6.2451744000000025,-7.204955,0.35037729999999995,997.4572,0,0
56.92,5.963173,-7.486182,0.4024564000000001,997.48224,0,0
56.96,6.379022,-7.2812204,0.60130185,997.4496,0,0
57.0,7.153356,-7.009527,0.5160832000000001,997.4572,0,0
57.04,7.6361227,-6.871297,0.43086448,997.45465,0,0
57.08,7.6456880000000025,-6.795032000000001,0.44033384,997.45966,0,0
57.12,7.2155122999999985,-6.899896000000001,0.34564635,997.45715,0,0
57.16,6.761437400000001,-7.18589,0.34091258,997.46466,0,0
57.2,6.4316373,-7.4146852,0.48294523,997.4773,0,0
57.24,6.355166400000001,-7.543382000000001,0.44507060000000004,997.4345,0,0
57.28,6.5129066,-7.4909506,0.33144543,997.4343,0,0
57.32,6.598948,-7.290755,0.22255464,997.4925,0,0
57.36,6.3408456,-7.486183599999999,0.3740562,997.4446,0,0
57.4,6.38387,-7.7531114,0.10893006599999999,997.4798,0,0
57.44,6.9000955,-7.386087,-0.16566479,997.4621599999999,0,0
57.48,7.0954914,-7.166811,-0.052091795999999996,997.4772,0,0
57.52,7.090696,-6.8474509999999995,0.16095498,997.45715,0,0
57.56,7.076339999999999,-6.6520220000000005,0.32192326,997.4749,0,0
57.6,6.631800999999999,-6.9332485,0.45448500000000003,997.4496,0,0
57.64,6.187266,-7.2335410000000016,0.6533287,997.432,0,0
57.68,6.215928,-7.176342,0.96579796,997.4671599999999,0,0
57.72,6.631754400000001,-7.0810103,0.71487296,997.4245,0,0
57.76,6.842050599999999,-7.142975999999999,0.39293206,997.45966,0,0
57.8,7.023665400000001,-6.985678699999999,0.22722627,997.4749,0,0
57.84,7.157483,-7.0381103000000005,0.05205181,997.4722,0,0
57.88,7.233944,-6.8283815,-0.0615754,997.437,0,0
57.92,7.4203405,-6.8712797000000005,-0.14679612,997.4496,0,0
57.96,7.3725266000000005,-7.1477394,0.39292452,997.4418300000001,0,0
58.0,7.315153,-7.2955027,0.8142851,997.44965,0,0
58.04,7.281678,-7.204938,0.62017304,997.4471,0,0
58.08,6.9757543,-7.243069999999999,0.6533123000000001,997.44714,0,0
58.12,6.884921,-7.324101,0.7385301,997.4674,0,0
58.16,6.5742173,-7.6148605,1.0415305000000001,997.4521,0,0
58.2,6.35911,-7.910386999999999,1.2214364,997.4395,0,0
58.24,6.5120482000000015,-7.4337300000000015,0.6627751999999999,997.48975,0,0
58.28,6.741461999999999,-7.243067999999999,0.54441357,997.4395,0,0
58.32,6.91352,-6.8855759999999995,0.51127136,997.46234,0,0
58.36,6.837025,-6.2706895,0.004688427,997.4572,0,0
58.4,6.7318544000000005,-6.680613,0.16565676,997.45715,0,0
58.44,6.698378999999999,-7.1525016,-0.07106498,997.45715,0,0
58.48,6.9184600000000005,-7.314569500000001,-0.14206186,997.50256,0,0
58.52,7.1000857,-7.276437299999999,-0.5208148,997.4545,0,0
58.56,6.971023599999999,-7.295503,-0.35984576,997.4775,0,0
58.6,7.0570517000000015,-6.890346000000001,-0.65337956,997.4346,0,0
58.64,6.8276134000000015,-7.0619416,-0.63444275,997.4646,0,0
58.68,6.727231,-7.085774400000001,-0.2367533,997.4672,0,0
58.72,6.6937633000000005,-6.9761434000000015,-0.70546025,997.4497,0,0
58.76,6.593381,-7.147738499999999,-0.061581757,997.4699,0,0
58.8,6.6841893,-7.142972500000001,0.05204324,997.46967,0,0
58.84,6.660283,-7.0095085999999975,-0.047379915,997.4548300000001,0,0
58.88,7.033100599999999,-6.8140793,0.33137178,997.4621599999999,0,0
58.92,7.047432400000001,-6.7664137,-0.30777353,997.437,0,0
58.96,6.803654700000001,-6.8808107000000005,-0.080522835,997.45715,0,0
59.0,6.832325999999999,-6.9141765,-0.16100836,997.4596,0,0
59.04,6.994832499999999,-6.9523087,-1.0463427,997.4597,0,0
59.08,6.8705490000000005,-6.828378,-1.017937,997.4596,0,0
59.12,6.8992205,-6.8331447,-0.41666827,997.46234,0,0
59.16,6.99003,-6.7521133,-0.57763875,997.45465,0,0
59.2,6.9995823,-6.8998756,-0.6107802,997.45984,0,0
59.24,7.3293815,-6.9475417,-0.29831013,997.4572,0,0
59.28,7.506227,-6.8903427,-0.43087417,997.45966,0,0
59.32,7.668731699999999,-6.54715,-0.596579,997.4848599999999,0,0
59.36,7.9268335999999975,-6.57575,-0.75754964,997.48236,0,0
59.4,7.8407907,-6.4994845,-0.7528157,997.48236,0,0
59.44,7.706947299999999,-6.513783999999999,-0.79069173,997.4975,0,0
59.48,7.4926867,-6.5328703,-0.6154428000000001,997.4799,0,0
59.52,7.2202663000000005,-6.542404,-0.27456304,997.4471,0,0
59.56,7.3971424,-6.871297,-0.066247076,997.4748,0,0
59.6,7.3541484,-7.1143923,-0.26035549999999996,997.45984,0,0
59.64,7.182100999999999,-7.147758500000001,0.08525838,997.4749,0,0
59.68,6.9001193,-7.023828999999999,0.08526085,997.4646,0,0
59.72,6.785428,-6.680638,-0.5112720000000001,997.4775,0,0
59.76,6.8284698000000015,-6.623439299999999,-0.7574588000000001,997.4724,0,0
59.8,6.8571754,-6.7187715,-0.21299984,997.45715,0,0
59.84,6.9671350000000025,-7.100096700000001,0.37880296,997.4747,0,0
59.88,6.8189864,-6.8474693,-0.018884756000000003,997.4873699999999,0,0
59.92,6.7568727,-6.880836,-0.21772753,997.4672,0,0
59.96,6.6804179999999995,-6.7283063,-0.33608565,997.4572,0,0
60.0,6.9576755000000015,-6.866537599999999,-0.3928959,997.45984,0,0
60.04,7.096315,-6.809339,-0.37869033,997.4497,0,0
60.08,7.407025999999999,-6.566245599999999,-0.16563997,997.4722,0,0
60.12,7.5169854,-6.4899817,-0.49704609999999994,997.4721699999999,0,0
60.16,7.402295,-6.637745,-0.53965336,997.4699,0,0
60.2,7.1728916,-6.909439599999999,-0.13722658,997.4419,0,0
60.24,7.0821004,-6.8665414,-0.052004945,997.4621599999999,0,0
60.28,6.981748599999999,-6.9523395999999975,-0.16562851,997.4548300000001,0,0
60.32,7.091709,-6.8808419999999995,-0.14195414,997.4522,0,0
60.36,6.9817976999999996,-6.876075999999999,-0.1608896,997.4446,0,0
60.4,6.8575463,-7.0095406,-0.028324064,997.45715,0,0
60.44,6.871913,-6.8665442,-0.15141612,997.4698,0,0
60.48,7.1055345999999995,-6.7759657,-0.15146998,997.4671599999999,0,0
60.52,7.258489999999999,-6.685401,-0.35504925,997.4722,0,0
60.56,7.115097500000001,-6.7473664000000015,-0.44973725,997.47473,1,2
60.6,7.464024,-6.6377354,-0.57283163,997.46234,1,2
60.64,7.903767,-6.5281043,-0.4686746,997.4548300000001,1,2
60.68,7.8081727,-6.4661393,0.056844412999999996,997.48224,1,2
60.72,7.40667,-6.790265,0.17047024,997.4545,1,2
60.76,7.2393785,-6.6901674,0.23201758,997.45715,1,2
60.8,7.2107009999999985,-6.8712964,0.54448843,997.4621599999999,1,2
60.84,6.111347,-8.01527,0.65811425,997.46967,1,2
60.88,3.9795562999999996,-9.082979,-0.13253123,997.4472,1,2
60.92,2.94712,-10.079188,-1.6570093999999995,997.432,1,2
60.96,2.5838558999999997,-12.205074,-1.8085102,997.4596,1,2
61.0,3.7596888999999996,-12.371903,-2.2156689999999997,997.45465,1,2
61.04,5.0502367,-11.294661999999999,-2.2393408,997.4496,1,2
61.08,6.94782,-9.726464,-2.4476544999999996,997.4747,1,2
61.12,8.013719,-8.854184,-2.1209803,997.45715,1,2
61.16,8.319628,-8.501458999999999,-1.0178641,997.45715,1,2
61.2,8.534719,-7.9294720000000005,0.98952365,997.4395,1,2
61.24,9.04138,-6.895128999999999,2.3530324,997.46466,1,2
61.28,9.041382,-6.1563134,1.5339803,997.4395,1,2
61.32,8.376989,-6.0180836,0.8048821999999999,997.45465,1,2
61.36,8.702017999999999,-5.57956,1.5671214,997.46967,1,2
61.4,9.337732,-5.1887026,1.8038418,997.4395,1,2
61.44,10.365392,-4.731113,1.0510716,997.4545,1,2
61.48,11.498206,-5.827421,0.70072573,997.46967,1,2
61.52,12.788753999999999,-6.456606400000001,1.0131965,997.42676,1,2
61.56,12.979948,-7.6625457,0.26989514,997.4395,1,2
61.6,12.812656,-11.509155999999999,0.06158144400000001,997.4421,1,2
61.64,12.564107,-14.678917000000002,-0.39765573,997.4295,1,2
61.68,11.880597,-15.498764999999999,0.13259774,997.4064300000001,1,2
61.72,10.456217,-14.149829,0.74807054,997.45715,1,2
61.76,8.123673,-12.867625,0.705461,997.47974,1,2
61.8,6.0779185,-11.318495,0.08051961,997.4722,1,2
61.84,4.3428510000000005,-9.4595375,-0.2650918,997.4723,1,2
61.88,3.210039,-8.058169,-0.037840236,997.44464,1,2
61.92,3.0521022999999996,-7.9723672999999975,-0.2225006,997.4647,1,2
61.96,2.3638060000000003,-7.7817050000000005,0.066297635,997.4371,1,2
62.0,1.6420508999999999,-8.725482000000001,-0.0331253,997.4069,1,2
62.04,1.9097157999999999,-9.735992,-0.14675139,997.4245,1,2
62.08,4.0558434000000005,-11.7379465,-0.52076966,997.437,1,2
62.12,5.623615,-14.059257999999998,0.6533621999999999,997.427,1,2
62.16,8.295523,-13.863829999999998,1.9221823,997.4371,1,2
62.2,12.090682000000001,-14.164124,1.5102886999999998,997.46967,1,2
62.24,14.045617000000002,-16.065979000000002,0.5728762,997.4496,1,2
62.28,13.792283,-14.2880535,0.9042841999999999,997.4446,1,2
62.32,13.405114999999999,-10.670237,2.310402,997.4597,1,2
62.36,13.605863000000001,-7.6244073000000006,4.582916,997.4748,1,2
62.4,11.880347,-6.122942,2.670216,997.485,1,2
62.44,9.992322,-5.7654495,1.5955055,997.4471,1,2
62.48,9.160631,-5.093365,1.5102859,997.44965,1,2
62.52,8.477115,-5.3984246,1.1362675,997.4597,1,2
62.56,9.45697,-5.160096599999998,1.0131726,997.45966,1,2
62.6,11.894667,-5.050466,-0.10888165,997.4245,1,2
62.64,12.922319,-5.8274145,-0.19410132,997.41437,1,2
62.68,12.582949000000001,-7.5100089999999975,-0.42608756,997.4446,1,2
62.72,12.267478,-8.749313,-0.53024477,997.45465,1,2
62.76,11.560063000000001,-10.031518,-0.028398338999999998,997.4067,1,2
62.8,11.827727000000001,-13.091647,0.97529507,997.44965,1,2
62.84,13.1278305,-15.370060999999998,2.9353385,997.4621599999999,1,2
62.88,11.703444000000001,-15.965879999999999,3.7259836,997.4848,1,2
62.92,8.357656,-14.636012,5.046889299999999,997.4949,1,2
62.96,6.9906289999999975,-12.681724,4.762824500000002,997.48224,1,2
63.0,6.2258596,-11.137360000000001,4.8906529999999995,997.4471,1,2
63.04,4.7106605,-9.6740265,4.2941184,997.4496,1,2
63.08,3.9554503,-9.0210085,3.8348812999999993,997.4421,1,2
63.12,3.0711858,-8.081997,3.238346,997.4421,1,2
63.16,1.5368671,-7.700672,1.907978,997.42706,1,2
63.2,0.9346108,-7.991433,0.6154854999999999,997.437,1,2
63.24,2.3446517000000004,-8.553885000000001,-0.15622260000000002,997.432,1,2
63.28,4.572039,-10.70837,-2.7033324,997.4219400000001,1,2
63.32,9.523914999999999,-12.233667,-5.3025208,997.41943,1,2
63.36,13.921332999999999,-10.646403999999999,-7.395128,997.4144,1,2
63.4,14.327616,-11.504385000000001,-6.4577155,997.41925,1,2
63.44,13.505488,-11.213625,-4.246748999999999,997.46466,1,2
63.48,11.569666,-8.887545,-2.9353187000000003,997.4999,1,2
63.52,11.043886,-7.9866657000000005,-2.1210012000000003,997.4923,1,2
63.56,9.853714,-7.9866657000000005,-1.3019495,997.47455,1,2
63.6,8.950329,-8.010498,0.17518470000000005,997.4923,1,2
63.64,9.342272,-7.3860800000000015,0.5255305,997.4622,1,2
63.68,10.044902,-6.733061,0.19412209,997.4496,1,2
63.72,11.29243,-5.5747876,-0.16095838,997.4974,1,2
63.76,11.517078999999999,-4.4975457,-0.61072695,997.4696,1,2
63.8,11.23029,-4.7787724,0.20359054,997.4848599999999,1,2
63.84,11.450159,-7.104852,2.2346501,997.4798,1,2
63.88,11.3880205,-9.650194,5.8327975,997.47455,1,2
63.92,11.354656,-11.847579,8.200009,997.5021,1,2
63.96,8.677969000000001,-12.757991,11.087996,997.4898699999999,1,2
64.0,7.6216345,-12.696026,9.170562,997.52,1,2
64.04,7.7124534,-10.927633,6.699203,997.4671,1,2
64.08,7.803272,-11.523453,5.3546324,997.457,1,2
64.12,6.7995157000000015,-9.979088,6.666063,997.4797,1,2
64.16,7.1675634000000015,-10.0791855,5.368836,997.4672,1,2
64.2,7.091089,-9.554864,5.127382,997.4873,1,2
64.24,6.8998990000000004,-10.312747,4.0147967000000016,997.4672,1,2
64.28,6.952478999999999,-10.636873,2.7791173,997.46466,1,2
64.32,6.7517304000000005,-9.378503,0.5444785,997.4418300000001,1,2
64.36,7.277511,-8.715950999999999,0.7101828,997.43933,1,2
64.4,7.851089999999999,-8.19163,1.0179194,997.4519,1,2
64.44,7.9084496,-8.091533,0.7243864999999999,997.45715,1,2
64.48,7.597766,-7.9962015,0.1325861,997.4496,1,2
64.52,7.6455655,-7.824605,-0.29351008,997.4469,1,2
64.56,6.460178,-7.824605,-1.0084049000000002,997.4468,1,2
64.6,5.652393,-7.7483406000000015,-1.4534388,997.45215,1,2
64.64,6.474521599999999,-7.6720757,-1.6475491999999998,997.4396,1,2
64.68,6.4458456,-6.675864999999999,-0.95632577,997.4594,1,2
64.72,6.402829,-5.5557246,0.31249487,997.4518,1,2
64.76,8.099663,-3.9875276,-0.5965106,997.4496,1,2
64.8,8.983929,-4.406985,0.1751976,997.4773,1,2
64.84,9.208583,-5.045703400000002,0.5302781999999999,997.4468,1,2
64.88,9.586189,-4.726344,1.1504854,997.44214,1,2
64.92,9.223184,-5.560498,1.4345733999999999,997.4645,1,2
64.96,8.611382,-5.6224637,1.59081,997.45465,1,2
65.0,7.9900174,-5.2316065,0.8901190999999999,997.4543,1,2
65.04,7.626765,-5.21254,1.2309973,997.4545,1,2
65.08,8.76437,-4.774017,1.9837688000000002,997.462,1,2
65.12,8.568412,-4.8407493,1.1221082,997.427,1,2
65.16,8.888671,-4.9646797,0.91379577,997.45715,1,2
65.2,8.816987,-5.517601,0.6960142,997.4446,1,2
65.24,8.05701,-5.860793,1.1978621,997.4496,1,2
65.28,7.789353,-5.6367655,0.9658776,997.45685,0,0
65.32,7.8897414,-5.2649745999999995,0.7575649,997.4823,0,0
65.36,8.22434,-5.3603053,1.1789279,997.4671,0,0
65.4,7.918444,-5.693965,0.41195554,997.4443,0,0
65.44,7.813302,-6.0371574999999975,1.690246,997.457,0,0
65.48,7.617342,-5.975193,2.1116092,997.4593,0,0
65.52,7.9471630000000015,-5.6749,1.5198098,997.4393,0,0
65.56,8.482512,-5.279276,1.5576861000000002,997.45465,0,0
65.6,8.028444,-5.570036,1.5434841000000001,997.4393,0,0
65.64,7.4357595000000005,-6.0085597,1.4156562,997.4696,0,0
65.68,7.3401766,-6.2230554000000025,1.1315931000000001,997.4643599999999,0,0
65.72,7.0486207,-6.2230554000000025,0.6392161999999999,997.462,0,0
65.76,6.938698,-6.3231535,0.6628894000000001,997.44965,0,0
65.8,6.938709700000001,-6.661579,0.8664699,997.4569,0,0
65.84,7.034319,-6.828409,1.2546921,997.4593,0,0
65.88,7.1777253,-6.5281160000000025,0.93748826,997.4619,0,0
65.92,7.4834857,-6.4852137999999995,0.6486761,997.4518,0,0
65.96,7.6794634,-6.4613814000000005,0.15629853,997.4696,0,0
66.0,7.459599000000001,-6.8093395,0.30780009999999997,997.45966,0,0
66.04,7.416587,-6.9428034,0.6297401999999999,997.45966,0,0
66.08,7.9041333,-6.8617716,0.7907105,997.4820599999999,0,0
66.12,7.779865299999999,-6.718775999999999,0.13736326,997.4518400000001,0,0
66.16,7.8515687000000005,-6.6663429999999995,-0.15143482,997.4772300000001,0,0
66.2,7.6078033,-6.6901765,-0.13249677,997.45215,0,0
66.24,7.555232000000001,-6.742609,0.014270393000000001,997.4619,0,0
66.28,7.3066883,-6.6663437000000005,0.14209989,997.44934,0,0
66.32,7.0629253,-6.7902746,0.02847477,997.4468,0,0
66.36,6.833500999999999,-7.0095367,0.033209767,997.4317599999999,0,0
66.4,6.718792,-7.042902499999999,0.2793994,997.4518,0,0
66.44,6.5754046000000015,-7.2001987000000005,0.21311828,997.4643599999999,0,0
66.48,6.6136484,-7.0143036999999975,0.27466613,997.44434,0,0
66.52,6.671013,-7.114401299999999,0.19891624,997.4694,0,0
66.56,6.6662393,-7.224032000000001,0.10422869,997.4595,0,0
66.6,6.7044835,-7.2383323000000015,-0.042537276,997.4795,0,0
66.64,6.628013,-7.2383323000000015,-0.25085053,997.4744,0,0
66.68,6.757074,-7.0953355,-0.35974124,997.46185,0,0
66.72,6.9817314,-7.2859982999999975,-0.28399014,997.4619,0,0
66.76,6.92438,-7.1859006999999995,-0.2555832,997.4393,0,0
66.8,7.1155777,-7.1191688,-0.1940354,997.467,0,0
66.84,7.163381599999999,-7.071503999999999,-0.35500455,997.4595,0,0
66.88,7.086912,-6.9904722999999995,-0.18456544,997.47705,0,0
66.92,7.019361,-6.9284916,0.047362402000000005,997.4717400000001,0,0
66.96,6.952423599999999,-7.019056,0.1515175,997.4317599999999,0,0
67.0,7.1340394,-6.866525,0.014218207,997.4543,0,0
67.04,7.1674789999999975,-6.914190299999999,0.15624861,997.4595,0,0
67.08,7.162681,-6.9809220000000005,0.31248236,997.4619,0,0
67.12,7.129204,-7.071486,0.29354298,997.4518,0,0
67.16,7.0383679999999975,-7.0476527,0.25093160000000003,997.48193,0,0
67.2,6.8806148,-7.152517,0.2130545,997.4595,0,0
67.24,6.660725599999999,-7.2430806,-0.052073773,997.4645,0,0
67.28,6.694167,-7.1334496,-0.15149793,997.46185,0,0
67.32,6.8757806,-7.0285845,-0.14203085,997.4694,0,0
67.36,7.000037,-6.923719999999999,-0.265127,997.4566699999999,0,0
67.4,6.9665589999999975,-7.0095177,-0.26512885,997.467,0,0
67.44,6.7610087,-7.123914699999999,-0.2603961,997.4469,0,0
67.48,6.646275999999999,-7.233544999999999,-0.06628713,997.45416,0,0
67.52,6.655815,-7.2526107,0.0047270954,997.4518400000001,0,0
67.56,6.531521,-7.209711,-0.061556313,997.45917,0,0
67.6,6.5936418,-7.152512,-0.16571477,997.45685,0,0
67.64,6.521925,-7.233542999999999,-0.07576293,997.4518400000001,0,0
67.68,6.5266857000000025,-7.2907410000000015,-0.028420601,997.45166,0,0
67.72,6.861253,-7.200176,-0.056828763,997.4568,0,0
67.76,6.9185915,-7.238308,-0.1373154,997.4595,0,0
67.8,6.9568119999999976,-7.1096106,-0.15152022,997.4544,0,0
67.84,6.9854717000000015,-7.0476449999999975,-0.19413164,997.50226,0,0
67.88,6.9376545,-7.0428777,-0.23200859,997.4643,0,0
67.92,6.9515266,-6.942769,-0.15156649,997.45166,0,0
67.96,6.8989142999999995,-7.109597,0.01413448,997.4543,0,0
68.0,6.8558593,-7.123896,-0.12790102,997.4493,0,0
68.04,6.846263,-7.190627,-0.066357106,997.4695,0,0
68.08,6.7936482000000025,-7.290723299999999,-0.01901646,997.467,0,0
68.12,6.6932383,-7.209691499999999,0.09460612,997.4920699999999,0,0
68.16,6.8031387,-7.057161,0.03305571,997.4669,0,0
68.2,6.702726400000001,-7.338386999999999,-0.037963722000000005,997.4493,0,0
68.24,6.645336,-7.3622190000000005,0.089862265,997.4645,0,0
68.28,6.760012599999999,-7.4241834,-0.10425193599999999,997.46686,0,0
68.32,6.736077000000001,-7.295485,-0.24628742,997.4619,0,0
68.36,6.7694993000000006,-7.1715539999999995,-0.3457133,997.44934,0,0
68.4,6.7933607,-7.2764172999999985,-0.34571663,997.4719,0,0
68.44,6.759865799999999,-7.443246,-0.23209429999999998,997.4719,0,0
68.48,6.879324,-7.305014599999999,-0.18001924,997.4393,0,0
68.52,6.778911,-7.32408,-0.17528819,997.4769,0,0
68.56,6.70718,-7.185848700000001,-0.2368386,997.4671,0,0
68.6,6.6067667000000005,-7.347911,-0.052200172,997.4493,0,0
68.64,6.5780516,-7.305011,-0.18950132,997.46686,0,0
68.68,6.9412823,-6.9475183000000005,-0.104285195,997.4723,0,0
68.72,6.993823,-6.99995,-0.17057021,997.4367699999999,0,0
68.76,6.91253,-6.8521857000000015,-0.047479074,997.4669,0,0
68.8,6.8646949999999975,-6.866484599999999,0.13242497,997.4519,0,0
68.84,6.63045,-7.1095777,0.15135942,997.45685,0,0
68.88,6.420102,-7.314539,0.28391940000000004,997.4697,0,0
68.92,6.630376299999999,-7.247806,0.056664585999999996,997.45215,0,0
68.96,6.8454304000000015,-7.0666759999999975,-0.19899663,997.4647,0,0
69.0,6.702002,-7.204905999999999,-0.36943832,997.45215,0,0
69.04,6.553791,-7.462298,-0.34576967,997.4471,0,0
69.08,6.5011769999999975,-7.5004300000000015,-0.61089975,997.462,0,0
69.12,6.697114,-7.371732700000001,-0.7150598000000001,997.4519,0,0
69.16,6.7496529999999995,-7.3049994000000025,-0.56829685,997.4696,0,0
69.2,6.7735199999999995,-6.9904056,-0.6771911,997.4446,0,0
69.24,7.022031,-6.9856386,-0.658257,997.4396,0,0
69.28,7.007654,-7.0476027000000006,-0.2511016,997.4645,0,0
69.32,7.069758,-7.071435000000001,0.08503797,997.44214,0,0
69.36,7.007583,-7.061901,0.18445712,997.4597,0,0
69.4,6.9996996,-6.880812599999999,0.12779766,997.45966,0,0
69.44,6.947132000000001,-6.9761443,0.089923374,997.45966,0,0
69.48,6.951919599999999,-6.980911,0.14200258,997.45465,0,0
69.52,6.8706727,-7.2335386,0.28876999999999997,997.4545,0,0
69.56,6.6986094,-7.4432673,0.38345897,997.4622,0,0
69.6,6.832453699999999,-7.1572742,-0.0757774,997.4722,0,0
69.64,6.899379700000001,-6.985678,-0.30776238,997.4873,0,0
69.68,6.9041695999999995,-6.9952119999999995,-0.42138723,997.4724,0,0
69.72,6.9089584,-7.138209,-0.30302623,997.4471,0,0
69.76,6.803812,-7.142975999999999,-0.30302542,997.4647,0,0
69.8,6.7130054999999995,-7.181108,-0.14205474,997.46234,0,0
69.84,6.6317580000000005,-7.271673,-0.04736587,997.4621599999999,0,0
69.88,6.7464832999999995,-7.147742299999999,0.033119913,997.45984,0,0
69.92,6.7990694000000005,-7.614865299999999,0.16568406,997.4646,0,0
69.96,6.579208,-7.748328999999999,-1.9241124e-05,997.49994,0,0
70.0,6.832546700000001,-7.262140299999999,-0.26514503,997.4597,0,0
70.04,6.942492,-7.0190470000000005,-0.33142585,997.44476,0,0
70.08,6.8947034,-6.823618,-0.33615938,997.4799,0,0
70.12,7.0094274999999975,-7.0571795,0.018921753,997.4775,0,0
70.16,6.851704,-7.152511,0.08520433,997.4674,0,0
70.2,6.975988,-7.0381136,0.12308043,997.465,0,0
70.24,6.9807777,-6.9856815,0.0047212057,997.45984,0,0
70.28,6.889970299999999,-6.995215400000001,-0.094700485,997.45966,0,0
70.32,6.8517404000000015,-7.123912299999999,-0.10416850400000001,997.4575,0,0
70.36,6.7561545,-7.0524144,-0.17044923,997.4622,0,0
70.4,6.8375020000000015,-7.119148,-0.11836246,997.45734,0,0
70.44,6.937889599999999,-6.9761515,-0.137299,997.44965,0,0
70.48,6.9283423,-7.014284599999999,-0.38348696,997.48004,0,0
70.52,7.0048323,-7.0095186,-0.17990634,997.49286,0,0
70.56,6.9427075,-7.033351400000001,0.004736636,997.45245,0,0
70.6,6.7993255,-7.1048503,-0.14202882,997.4674,0,0
70.64,6.957072,-7.0524187000000005,-0.30299740000000003,997.4476,0,0
70.68,7.014442,-6.9141884000000005,-0.25091779999999997,997.4777,0,0
70.72,6.9523160000000015,-7.0095199999999975,-0.11361897,997.4498,0,0
70.76,6.937988799999999,-6.999987,-0.042601835,997.4677,0,0
70.8,6.875864999999999,-7.057186,0.009477878,997.4903,0,0
70.84,6.923675500000001,-7.038120299999999,0.023682225,997.4526400000001,0,0
70.88,6.85677,-7.095319,-0.085207984,997.4627,0,0
70.92,6.6990504,-7.1143856,-0.10887879,997.4398,0,0
70.96,6.5269895,-7.152518700000001,-0.1278153,997.4627,0,0
71.0,6.574799499999999,-7.3622475000000005,-0.11361099999999999,997.4728,0,0
71.04,6.8233624000000015,-7.4146800000000015,0.089969635,997.4775400000001,0,0
71.08,6.8950705999999995,-7.3098154000000015,-0.047327112000000005,997.45746,0,0
71.12,7.081497,-6.933258,-0.18462351,997.46246,0,0
71.16,6.9142156,-6.990457000000001,-0.5491716999999999,997.4602,0,0
71.2,6.7995133,-7.128687400000001,-0.44027913,997.4602,0,0
71.24,7.0432960000000016,-6.885593400000001,-0.18935454,997.4577,0,0
71.28,7.0767655,-6.780729300000001,-0.23196314,997.4576400000001,0,0
71.32,6.9572845,-6.999992,-0.15621144,997.4956,0,0
71.36,6.8521399999999995,-7.324117699999999,0.23201084,997.4501300000001,0,0
71.4,7.1244081999999995,-7.028587,0.42137048,997.4476300000001,0,0
71.44,7.382522,-7.019054,0.28880757,997.4526,0,0
71.48,7.1291975999999995,-7.081019,0.11363503,997.4727,0,0
71.52,6.9284514999999995,-7.1811169999999995,-0.16095994,997.4604,0,0
71.56,6.8185205,-7.0762529999999995,-0.23670994,997.46277,0,0
71.6,6.8137455000000005,-7.233549000000001,-0.30299118,997.4577,0,0
71.64,6.765952599999999,-7.1191516,-0.17042741,997.4353,0,0
71.68,6.7611785000000015,-7.0047545,-0.123082876,997.4730000000001,0,0
71.72,6.794641499999999,-7.133452,-0.24144255,997.4425699999999,0,0
71.76,6.9476,-7.0142880000000005,-0.14675401,997.4554,0,0
71.8,7.119677499999999,-6.8855910000000025,0.05682583,997.4981,0,0
71.84,7.1244625999999975,-6.8140925999999995,0.0947015,997.47546,0,0
71.88,6.933275699999999,-6.933257000000001,-0.08047098,997.4376,0,0
71.92,6.9619594,-6.8426924,0.056827214,997.48315,0,0
71.96,6.785112,-7.181118,0.10417174,997.4705,0,0
72.0,6.899832000000001,-6.966624,-0.023656745,997.4352,0,0
72.04,7.1053686,-7.0381217000000005,-0.056797105999999986,997.4781,0,0
72.08,6.7803473,-7.1048535999999975,-0.23670398,997.4504,0,0
72.12,6.6943160000000015,-7.133453,-0.13728110000000002,997.48834,0,0
72.16,6.7755766,-7.305049,-0.14201507,997.45276,0,0
72.2,6.947655,-7.052422,-0.17988981,997.4757699999999,0,0
72.24,7.028916400000001,-6.880826,-0.17515492,997.4655,0,0
72.28,6.918986299999999,-6.9999899999999995,-0.29351458,997.47565,0,0
72.32,6.8425145,-7.0476556,-0.31245178,997.4656,0,0
72.36,6.8090606,-7.15252,-0.18462239,997.4633,0,0
72.4,6.880180999999999,-7.0142755999999995,-0.09472151,997.46326,0,0
72.44,6.851485,-6.999975699999999,-0.30303693,997.4708,0,0
72.48,7.0617785,-6.823612700000001,-0.18467844,997.4504400000001,0,0
72.52,6.9996243,-7.0190410000000005,0.08518110000000001,997.4633,0,0
72.56,6.9374685,-6.876044,0.05677305,997.4708,0,0
72.6,7.047386599999999,-6.7616460000000025,-0.033182252,997.47833,0,0
72.64,7.0282516,-7.0095066999999975,-0.16574702,997.4658,0,0
72.68,6.875279400000001,-7.12867,-0.080529466,997.4811,0,0
72.72,6.7653255,-7.3383985,0.07570429,997.4708,0,0
72.76,6.4976389999999995,-7.3336315,-0.0047822185,997.4633,0,0
72.8,6.468943,-7.3765297000000025,-0.071065545,997.48364,0,0
72.84,7.0138235,-7.0238039999999975,-0.3219905,997.4735,0,0
72.88,7.104622,-7.076236,-0.26517928,997.4535,0,0
72.92,6.8990725999999984,-7.2096987000000015,-0.123148754,997.4585,0,0
72.96,6.827358199999999,-7.1667995,-0.0568687,997.49115,0,0
73.0,6.832121000000001,-7.104833999999999,-0.18469918,997.48364,0,0
73.04,6.932478999999999,-6.999969,-0.16102877,997.4761,0,0
73.08,6.8464255000000005,-7.0142684000000015,-0.113686234,997.4734,0,0
73.12,6.8655276,-7.181097500000001,0.18931402,997.4913,0,0
73.16,6.8511690000000005,-7.190630400000001,0.13249944,997.4608,0,0
73.2,6.8368144,-7.076232400000001,-0.108956635,997.4734,0,0
73.24,6.841575,-6.9904337,-0.13263039999999998,997.46075,0,0
73.28,6.712503999999999,-7.2144613,-0.11842866,997.4862,0,0
73.32,6.817640299999999,-7.1667957,-0.11369599400000001,997.4635599999999,0,0
73.36,6.784165400000001,-7.2192273,-0.08529109,997.4764,0,0
73.4,6.7266619999999975,-7.3097887,-0.15158607,997.4862699999999,0,0
73.44,6.688402000000001,-7.22399,-0.14211923,997.4713,0,0
73.48,6.755296,-7.3002543000000015,-0.23680942,997.4813,0,0
73.52,6.8556479999999995,-7.1810894,-0.04743546,997.4636,0,0
73.56,6.822166999999999,-7.076225,0.04251614,997.49396,0,0
73.6,6.96554,-6.9046283,-0.16579965,997.4839,0,0
73.64,6.9750776,-6.9427604999999994,0.009371415,997.4839,0,0
73.68,6.879459,-7.0714570000000005,0.15613586,997.4687,0,0
73.72,7.0228285999999995,-7.0809894,0.13246159999999998,997.4862699999999,0,0
73.76,6.8698520000000025,-7.0333232999999975,0.03303701,997.4486699999999,0,0
73.8,6.8985095,-7.095287299999999,-0.00010576844,997.48645,0,0
73.84,6.8220100000000015,-7.219218,-0.08532713,997.4562400000001,0,0
73.88,6.845886999999999,-7.1763186,-0.10426675,997.4613,0,0
73.92,6.8745437,-7.1906175999999995,-0.12320642,997.4737,0,0
73.96,6.774146000000001,-7.2573490000000005,-0.15634923,997.4612400000001,0,0
74.0,6.6689663,-7.209682000000001,-0.127945,997.4664,0,0
74.04,6.7645407,-7.2525806,-0.13741581,997.4512300000001,0,0
74.08,6.6832614,-7.2382803,-0.12321466,997.48676,0,0
74.12,6.7549339999999995,-7.233513999999999,-0.08060725,997.4689300000001,0,0
74.16,6.9891229999999975,-7.0380845,-0.0853436,997.48676,0,0
74.2,6.817027,-7.1715474000000015,-0.26051867,997.48425,0,0
74.24,6.769208,-7.0523824999999984,0.0046060532,997.4641,0,0
74.28,6.802644,-7.0571485,0.0046039633000000005,997.45905,0,0
74.32,6.8217416,-7.0476149999999995,0.042477205,997.49176,0,0
74.36,7.0893880000000005,-6.8855515,0.028271914,997.4742,0,0
74.4,7.008334599999999,-6.799759,0.113509804,997.4868,0,0
74.44,6.8266883,-7.114351299999999,0.0803677,997.4868,0,0
74.48,6.9174904999999995,-6.671061,-0.50196534,997.4794,0,0
74.52,6.802761,-7.25258,0.35969505,997.5069,0,0
74.56,6.8648853,-7.057151299999999,0.20819290000000001,997.4795,0,0
74.6,7.213797599999999,-6.294502,-0.27945206,997.5119,0,0
74.64,6.8839770000000025,-7.1381820000000005,0.23186235,997.47424,0,0
74.68,7.132513,-7.0619172999999975,-0.0048590859999999994,997.4540400000001,0,0
74.72,7.0034447,-7.1715474000000015,-0.056938794,997.47687,0,0
74.76,7.132486,-7.133414299999999,-0.071143284,997.48425,0,0
74.8,7.2758656,-6.828354400000001,-0.15636386,997.492,0,0
74.84,7.036863,-6.723489999999999,-0.066411346,997.487,0,0
74.88,7.1754630000000015,-6.794987700000001,0.4733095000000001,997.48975,0,0
74.92,7.3427419999999985,-6.7282557,0.37388572,997.492,0,0
74.96,7.2614713,-6.814054,0.19397707,997.5047599999999,0,0
75.0,7.232779499999999,-6.8569520000000015,0.38808647,997.487,0,0
75.04,7.2949033,-6.6662893,0.27919388,997.47705,0,0
75.08,7.141936299999999,-6.823585499999999,0.051941253,997.48724,0,0
75.12,7.060664699999999,-6.818819,0.18923762,997.4923,0,0
75.16,6.9841747000000005,-6.7949853000000004,0.47803512,997.47955,0,0
75.2,6.9602619999999975,-6.8140516,0.27445444,997.50256,0,0
75.24,6.855092,-7.0619125,0.30285963,997.4998,0,0
75.28,6.797722,-7.1334100000000005,0.23657674,997.4822,0,0
75.32,6.864625,-7.076211,0.26971632,997.49994,0,0
75.36,6.9888844,-7.0237784,0.33599663,997.4671599999999,0,0
75.4,6.893534,-6.9141536,0.25553417,997.452,0,0
75.44,6.9317694,-6.9761190000000015,0.4117692,997.4673,0,0
75.48,6.9891229999999975,-6.990418400000001,0.36915925,997.4671599999999,0,0
75.52,6.912642,-7.0476174,0.41176850000000004,997.4698,0,0
75.56,7.051253,-7.028550599999999,0.6390196,997.4748,0,0
75.6,6.9795523,-6.937986,0.5490656,997.495,0,0
75.64,6.950869,-7.0047179999999996,0.582206,997.4698,0,0
75.68,6.9747642999999995,-7.0666833,0.5301273,997.5102,0,0
75.72,7.017779400000001,-6.995185,0.46857968,997.4699,0,0
75.76,6.9604177,-7.052383,0.4922513,997.4976,0,0
75.8,7.0034323,-7.057149400000001,0.29814044,997.4725,0,0
75.84,6.8600345,-7.052383,0.4685786,997.4547,0,0
75.88,6.9221683,-7.0619164,0.36442137,997.5027,0,0
75.92,6.8600273000000005,-7.133414299999999,0.33128029999999997,997.4825400000001,0,0
75.96,6.69751,-7.1858460000000015,0.44017115,997.48004,0,0
76.0,6.702286,-7.162013000000001,0.44017085,997.4875,0,0
76.04,6.7883186,-7.0285497,0.36442003,997.4649,0,0
76.08,6.888691400000001,-7.038083,0.52538943,997.475,0,0
76.12,6.812209599999999,-6.99995,0.4685762,997.4873699999999,0,0
76.16,6.917362,-7.066682000000001,0.4401695,997.4597,0,0
76.2,6.912578599999999,-6.9856505,0.5064508,997.48236,0,0
76.24,6.8695564,-7.0905147,0.4922472,997.50037,0,0
76.28,7.0081672999999975,-6.9141517000000015,0.43069965,997.4851,0,0
76.32,6.955585000000001,-7.042848599999999,0.35968320000000004,997.4799,0,0
76.36,6.9938199999999995,-7.0428479999999976,0.5159182,997.4752,0,0
76.4,6.968433,-6.9760804000000025,0.4968444,997.5028699999999,0,0
76.44,6.9396925000000005,-7.0237446,0.3690098,997.50037,0,0
76.48,6.968312700000001,-6.9903770000000005,0.47316134,997.49036,0,0
76.52,6.968246499999999,-6.9760756,0.41160804,997.4647,0,0
76.56,6.882148299999999,-7.018974000000001,0.50629044,997.4647,0,0
76.6,6.8629704,-7.0523380000000015,0.5773012,997.4853,0,0
76.64,6.9537287,-6.9570054999999975,0.45893574,997.4677,0,0
76.68,7.0062440000000015,-6.8998046,0.35477313,997.4727,0,0
76.72,6.9249177,-6.985601400000001,0.47312683,997.48785,0,0
76.76,7.001339999999999,-7.038032,0.46838748,997.4873699999999,0,0
76.8,6.910462,-7.0094313999999995,0.43997538,997.5129400000001,0,0
76.84,6.977321000000001,-6.9093323,0.47784525,997.4903,0,0
76.88,6.972475,-6.9903617,0.51571447,997.4828,0,0
76.92,6.929398,-6.961761,0.43995863,997.5081,0,0
76.96,6.972354400000001,-7.0141915999999975,0.47782820000000004,997.5028699999999,0,0
77.0,6.929274,-6.9808245,0.46835370000000004,997.4928,0,0
77.04,6.9339957,-7.0666210000000005,0.46361396,997.5031,0,0
77.08,6.953053,-6.9903545,0.3925922,997.4853,0,0
77.12,6.9721093,-6.904555,0.45886818,997.46265,0,0
77.16,6.795195,-6.9236193,0.48253453,997.47015,0,0
77.2,6.6565259999999995,-6.6948237000000015,0.36416942,997.4828,0,0
77.24,6.8428683,-6.6137904999999995,0.31208459999999993,997.5106,0,0
77.28,7.057902,-7.142877,0.54406506,997.5006,0,0
77.32,7.0052576,-7.409802,0.87073296,997.5079300000001,0,0
77.36,6.9717445000000025,-7.152406699999999,0.6671486,997.4677,0,0
77.4,6.6914506,-6.632894,0.17492737,997.4752,0,0
77.44,6.591082000000001,-6.4279327,0.047099113,997.4828,0,0
77.48,6.7536024999999995,-6.6042957,0.3548361,997.4981,0,0
77.52,7.059518,-7.0714183,0.62469786,997.48785,0,0
77.56,7.0786443,-7.15245,0.7856684,997.4928,0,0
77.6,6.8348823,-6.6948605,0.4400575,997.50037,0,0
77.64,6.595898599999999,-6.3945675,0.11811861400000001,997.49554,0,0
77.68,6.5863476,-6.499432,0.23647946,997.51044,0,0
77.72,6.7201889999999995,-6.8187914,0.55841964,997.49536,0,0
77.76,6.88271,-6.8426247,0.72885895,997.47546,0,0
77.8,6.8874974,-6.6328960000000015,0.511077,997.4752,0,0
77.84,6.576817999999999,-6.671028999999999,0.46373364,997.46265,0,0
77.88,6.562485700000001,-6.618597,0.40692145,997.49786,0,0
77.92,6.7250065999999995,-6.399335400000001,0.47320379999999995,997.498,0,0
77.96,6.7202344,-6.3945694,0.3927196,997.49054,0,0
78.0,6.638985000000001,-6.609064,0.44479874,997.4752,0,0
78.04,6.5290565,-6.699628999999999,0.59630036,997.48785,0,0
78.08,6.529064,-6.523267,0.41639367,997.4829,0,0
78.12,6.734603999999999,-6.404103,0.40692556,997.4903,0,0
78.16,6.6581345,-6.361204,0.5252864,997.5056,1,3
78.2,6.533867,-6.3945704,0.52055264,997.4928,1,3
78.24,6.6581491999999995,-6.2611065,0.40219322,997.518,1,3
78.28,6.7155147,-6.370737999999999,0.29803702,997.5079300000001,1,3
78.32,6.672504400000001,-6.475601999999999,0.6199773000000001,997.49054,1,3
78.36,6.7489880000000015,-6.3087725999999975,0.492149,997.4931,1,3
78.4,6.638575599999999,-6.327828,0.46369883,997.5081,1,3
78.44,6.5381885,-6.466057299999999,0.46843225,997.5205,1,3
78.48,6.5047182999999995,-6.5566216,0.51104087,997.5028699999999,1,3
78.52,6.6720000000000015,-6.4136242999999995,0.53471184,997.518,1,3
78.56,6.7006683,-6.432691,0.49683565,997.5006,1,3
78.6,6.63852,-6.370725,0.46842813,997.5281,1,3
78.64,6.57637,-6.3945574999999995,0.37847334,997.54083,1,3
78.68,6.5667995999999995,-6.4183900000000005,0.36900356,997.5182,1,3
78.72,6.7101820000000005,-6.4851217000000005,0.52523786,997.52325,1,3
78.76,6.700611,-6.4660554,0.51576805,997.51044,1,3
78.8,6.5954447,-6.4565215,0.3690005,997.54065,1,3
78.84,6.628892,-6.4231553,0.48735958,997.5383,1,3
78.88,6.6432199999999995,-6.404089,0.49682733,997.5331,1,3
78.92,6.552393,-6.542319,0.5489048000000001,997.51807,1,3
78.96,6.628858599999999,-6.518486,0.586779,997.528,1,3
79.0,6.6670856,-6.6471824999999995,0.5583715,997.5481599999999,1,3
79.04,6.609717,-6.623349,0.40686962,997.5456,1,3
79.08,6.638383999999999,-6.58045,0.33111802,997.5129,1,3
79.12,6.7387479999999975,-6.632882,0.38319543,997.56335,1,3
79.16,6.662261,-6.6376479999999995,0.5583674,997.5532,1,3
79.2,6.762625,-6.699613,0.5015535,997.5481599999999,1,3
79.24,6.8964479999999995,-6.6090484,0.3784579,997.57104,1,3
79.28,6.805621,-6.7139125,0.44947302,997.5783,1,3
