Timestamp,Ax,Ay,Az,P,LPFRMSAcc,LPFPValue,Value,Type
0.0,-2.3016713,4.5862300000000005,6.2305355,1003.2516,0.016776511022633552,3.61170576,0,0
0.02,-1.7807325,5.115319,7.0779886,1003.3141,0.05006444629205792,10.4019375888,0,0
0.04,-0.5714979,5.4203800000000015,9.554077,1003.419,0.10215932513558652,19.976647857408,0,0
0.06,-0.2656501,2.9894380000000003,7.5182776,1003.3795,0.16464808528070402,31.977112118463353,0,0
0.08,-2.211086,3.8331199,7.172661,1003.2196,0.2367873926720513,46.0771952959054,0,0
0.1,-0.9253822,2.1981926,11.755559,1003.28705,0.3246085215453276,61.98198426842792,0,0
0.12,0.58497626,2.1076293,9.54932,1003.3146,0.4214005776810241,79.42425322118248,0,0
0.14,0.3554898,2.3316586,7.518256,1003.3524,0.5217863163734802,98.16238339624016,0,0
0.16,1.2157985,1.7120078999999997,8.072175999999999,1003.3674,0.6259447787282707,117.97813327869464,0,0
0.18,2.9842665,1.7024762999999998,8.716049,1003.3975,0.7351984099757707,138.67483959502815,0,0
0.2,2.4440928,2.4698932,8.195260000000001,1003.3908,0.8475895716122865,160.07542675359832,0,0
0.22,2.9411328,1.0065618,7.2720455999999984,1003.41583,0.9602848120349669,182.021011018598,0,0
0.24,2.9362931,-0.28517365,8.446173,1003.43604,1.0750003819919405,204.36922337948468,0,0
0.26,3.4046547,0.26774842,6.6092179999999985,1003.4162,1.1879556240524127,226.99267293739803,0,0
0.28,4.2458434,-1.0287538,5.927459,1003.3935,1.2987908642733952,249.77779594419565,0,0
0.30000000000000004,4.5086737,-3.1403368,6.329878,1003.41156,1.4094708066460513,272.6238121836029,0,0
0.32,7.1853004,-1.5006399,4.426641,1003.40686,1.5200096432506829,295.44137110488225,0,0
0.34,7.237822,-3.850551,6.0173964999999985,1003.36426,1.6333469543320207,318.1514885677471,0,0
0.36000000000000004,7.8588204,-4.760955,5.5486559999999985,1003.3993,1.7499216221006015,340.6850404790905,0,0
0.38,9.350048,-4.4463599999999985,3.2098532000000004,1003.38684,1.8691569417028773,362.9814134262288,0,0
0.4,11.759001,-4.799083,7.1678095,1003.43713,1.9980958487099183,384.9881291419858,0,0
0.42,10.028645,-6.1480174000000005,5.7001370000000025,1003.4501,2.1320016678411826,406.6597262435176,0,0
0.44,10.917611,-5.0231075,4.3602940000000014,1003.44745,2.269217285865201,427.9571852479543,0,0
0.46,9.010401,-6.6342025,3.3045156,1003.4356,2.4065413083129075,448.84734231738196,0,0
0.48,9.650828,-6.0002484,2.679568,1003.4532,2.5434847148461084,469.30246619158567,0,0
0.5,10.080937,-5.976414,2.101964,1003.44073,2.680078238692132,489.29951139654236,0,0
0.52,10.35331,-5.452091,2.4712408,1003.46075,2.815980802522822,508.81988099861456,0,0
0.54,10.013876,-5.7190166,2.0498722,1003.4638,2.950271122300478,527.8487976874105,0,0
0.56,9.153444,-5.9001446,1.0651097,1003.46124,3.0810520047461507,546.3749532659559,0,0
0.5800000000000001,8.814,-5.475919,2.0640624,1003.4438,3.2075079528295545,564.3901121834012,0,0
0.6,7.5855184000000015,-6.057437,1.5290676,1003.42096,3.3281225153029244,581.8888176549957,0,0
0.62,7.4324965,-6.8105506999999985,0.7999633,1003.4463,3.4437350352028195,598.8682807461386,0,0
0.64,7.8626113,-6.50549,1.3586168,1003.4463,3.5548906552800172,615.3278152027863,0,0
0.66,7.174243,-7.577963400000002,0.9325134,1003.45404,3.6620859269552635,631.26871425795,0,0
0.68,7.2315326,-7.2586020000000016,1.2733842,1003.44183,3.7650800929401638,646.6939158797643,0,0
0.7000000000000001,7.0402727,-7.520761500000001,2.196587,1003.47925,3.8644246879586888,661.6080512356323,0,0
0.72,7.3078694,-6.462584,2.0924237,1003.46686,3.9590312456852432,676.0168729476288,0,0
0.74,5.7878017,-6.5483794,-0.047535647,1003.4399,4.046538192110428,689.9272307097374,0,0
0.76,6.3469663,-6.6866083,0.8377914000000001,1003.4499,4.1285326172750185,703.3471044377817,0,0
0.78,6.8487915999999975,-6.858203,1.5716193,1003.4423,4.20652838331106,716.2852475679052,0,0
0.8,6.6957474,-7.096528,-0.21325965,1003.4648,4.280585762163477,728.7512372264383,0,0
0.8200000000000001,7.3027190000000015,-6.805767,1.3490881,1003.4428,4.351549387734441,740.7550753147027,0,0
0.84,7.034973599999999,-6.7962317,0.56790423,1003.4778,4.418952171144152,752.3074684583604,0,0
0.86,7.6717963,-5.509289,1.1550718999999998,1003.48285,4.482378438738847,763.4193944136463,0,0
0.88,6.9643598,-7.711436999999999,1.4864779,1003.47284,4.544102057539947,774.1020845918476,0,0
0.9,7.3037004,-5.981177,-0.21791004,1003.4681,4.601908719304499,784.3670272887758,0,0
0.92,7.5378857,-6.1337056,-0.24158438,1003.46533,4.656624809918017,794.2258845455417,0,0
0.94,7.595217699999999,-6.4244650000000005,1.088781,1003.46606,4.709007929867116,803.6904354492565,0,0
0.96,7.25583,-6.824856,1.230811,1003.4381,4.759202661729083,812.7724042201613,0,0
0.98,7.236685,-6.9344854000000025,1.4580601,1003.4413,4.807472891503516,821.4836398509401,0,0
1.0,7.628602000000001,-6.4530625,1.1739935,1003.44855,4.853728146365156,829.835961330833,0,0
1.02,7.4039288,-6.2766995,0.60112846,1003.4387,4.897338991853191,837.8410424496753,0,0
1.04,7.466039,-6.362497,0.85204947,1003.4335,4.9387082089656715,845.5104649734656,0,0
1.06,7.3417406,-6.7199880000000025,1.1834555,1003.4309,4.978315055020824,852.8556802815822,0,0
1.08,7.1887617,-6.7867193,1.1219059999999998,1003.4391,5.016069792748043,859.8880128388201,0,0
1.1,7.150504,-6.834384,0.9277937,1003.45935,5.0520210236891225,866.6186387001759,0,0
1.12,7.174373599999999,-6.8105506999999985,0.6626643,1003.46185,5.086206847839018,873.0584552719494,0,0
1.14,7.0022745,-6.7867174,0.63899,1003.47186,5.118414637437637,879.2181654517892,0,0
1.16,7.0548286,-6.5293226,0.45908037,1003.45685,5.148449396323236,885.1081446310692,0,0
1.18,7.126499000000001,-6.6008205,0.29810813,1003.4572,5.176652941210644,890.7385868332094,0,0
1.2,6.8444667,-6.843914,0.22235548,1003.43463,5.203060679556511,896.1193513184207,0,0
1.22,6.940036,-7.0298089999999975,0.10399291,1003.46027,5.228196495546425,901.2602221248072,0,0
1.24,7.116866,-6.991676299999999,-0.019103631,1003.4324,5.252321087264134,906.1705154096808,0,0
1.26,6.939987,-7.2109375,-0.23688872,1003.42236,5.2755363855010895,910.8593571967205,0,0
1.28,6.8061285000000025,-7.2633686,0.13712706,1003.4405,5.297748225169038,915.3357099138403,0,0
1.3,7.0594325,-6.8868103000000005,0.04717103,1003.438,5.3188012248312235,919.6081834189978,0,0
1.32,7.116764999999999,-6.7533455,-0.1611451,1003.42053,5.338650533554682,923.6850654558464,0,0
1.34,7.092840700000001,-6.758111500000001,0.19866736,1003.45874,5.357337029796031,927.5745836519648,0,0
1.36,7.202657,-6.5531473,0.321751,1003.43335,5.374812394547988,931.284453488908,0,0
1.38,7.4750770000000015,-6.4530487,0.34542036,1003.4432,5.391441971342192,934.8222659642707,0,0
1.4,7.2264979999999985,-6.524546599999999,0.406965,1003.4558,5.4069804848425465,938.19535779003,0,0
1.42,7.0878562999999986,-6.5722112999999975,0.4732441,1003.42664,5.421359665837243,941.410654343227,0,0
1.44,6.9157543000000015,-6.8153048,0.60580474,1003.42645,5.434768450712251,944.474947241996,0,0
1.46,7.083018300000001,-6.8915696,0.65788054,1003.452,5.447637042993802,947.3948738372773,0,0
1.48,7.0495305,-6.8343697,0.2649223,1003.41675,5.4598111977010895,950.1765997310533,0,0
1.5,6.748375,-7.0965295,0.40695196,1003.447,5.471284731001996,952.8263061717622,0,0
1.52,6.8296046000000015,-6.8057690000000015,0.20337002,1003.417,5.48177043270884,955.3497132805544,0,0
1.54,6.743537400000001,-6.7581024,0.25071123,1003.4393,5.491151354539207,957.752518314073,0,0
1.56,6.7817482999999985,-6.915398,0.4211473,1003.4198,5.49982278334136,960.0400390557594,0,0
1.58,6.882097,-6.9868960000000015,0.20809656,1003.44507,5.508073839670222,962.2175504945128,0,0
1.6,6.7673526,-7.0488605,0.41640773,1003.41205,5.515863657733148,964.289899800015,0,0
1.62,6.743422,-7.234755499999999,0.73361,1003.4429,5.523502433646387,966.2619784470767,0,0
1.64,6.6812577000000015,-7.072692,0.44480884,1003.42505,5.530610849565764,968.1382941972107,0,0
1.66,6.9010997000000005,-7.025026,0.22702353,1003.4377,5.537455036725227,969.9232846549196,0,0
1.68,7.125721,-6.9249268,0.10866073,1003.4357,5.544221216362875,971.6211469185932,0,0
1.7,7.1973886,-6.6675324000000025,0.12759571,1003.4382,5.550634404126717,973.2359194058683,0,0
1.72,6.939253999999999,-6.6770644,0.369048,1003.42035,5.556349034349207,974.7713963257636,0,0
1.74,6.819728,-6.8486600000000015,0.5820934,1003.4335,5.561520415756101,976.23132730541,0,0
1.76,6.857937,-6.967824,0.55368423,1003.4585,5.566421213730083,977.6193401407263,0,0
1.78,6.8722509999999986,-6.882025,0.57261956,1003.436,5.570962028586832,978.9387282575052,0,0
1.8,7.111212299999999,-6.576965,0.33589664,1003.4059,5.575063677405225,980.192621415764,0,0
1.82,7.139862,-6.576964,0.46845734,1003.4288,5.578817647249124,981.3842116533044,0,0
1.84,7.2067494,-6.839123700000001,0.3974386,1003.4264,5.582717629831481,982.5164526652437,0,0
1.86,7.0869083,-6.9678125,0.4021413,1003.4114,5.586739652412769,983.5921226337981,0,0
1.88,7.0820894,-6.862947,0.22223032,1003.4114,5.5906839170879685,984.6139340165312,0,0
1.9,7.230218400000001,-6.9964094,0.17961660000000002,1003.42426,5.594957550227828,985.5845237278543,0,0
1.92,7.3114386,-7.0488405,0.34531742,1003.4142,5.599712825930362,986.5063236313594,0,0
1.94,7.206241,-6.88201,0.3311104,1003.4349,5.6044779507246885,987.3817689010235,0,0
1.96,7.4308476,-6.5531169999999985,0.14646448,1003.4349,5.609107135815635,988.2131036132553,0,0
1.98,7.368674,-6.429185,0.35477498,1003.4126,5.613343651133079,989.0023891519752,0,0
2.0,7.3781886,-6.7914424,0.42578697,1003.4301,5.61774064445286,989.7517416130412,0,0
2.02,7.425945299999999,-6.6961107,0.4021111,1003.4301,5.622201557183695,990.4631115378322,0,0
2.04,6.909684,-6.2909517,0.79506284,1003.4326,5.625395660335308,991.1383681618413,0,0
2.06,7.167754,-6.3147835999999975,0.8755441999999999,1003.44763,5.627904584355547,991.7793382574333,0,0
2.08,6.914383,-6.6818075,0.5015223,1003.42554,5.629873340299518,992.3876257601712,0,0
2.1,6.8235273,-6.3481474,0.12750079,1003.4151,5.6307181345430175,992.964807504854,0,0
2.12,7.1293955,-6.3910456,1.0696437,1003.418,5.6312183258937685,993.5124367874382,0,0
2.14,7.2775254,-6.6532050000000025,0.8092474000000001,1003.42084,5.6319512730808245,994.0319922730948,0,0
2.16,7.688548599999999,-6.371978,0.78557175,1003.43854,5.63314306857757,994.5249350720378,0,0
2.18,7.5690117,-6.2337465,0.92760015,1003.4593,5.634388343137496,994.9926630429246,0,0
2.2,7.406459299999999,-6.2051463,0.99387825,1003.43353,5.6353934858875485,995.4363345990456,0,0
2.22,7.4303136,-6.381508,0.8234355,1003.40356,5.636423618810366,995.8570447974776,0,0
2.24,7.525868400000001,-6.534036,0.8613069999999999,1003.4317,5.637835035610356,996.2560530875412,0,0
2.26,7.492370599999999,-6.6150664999999975,1.2589933,1003.42896,5.639723786196528,996.634439277526,0,0
2.28,7.329815400000001,-6.5674005000000015,1.2637239,1003.447,5.641712993268459,996.9933065335975,0,0
2.3,7.4540505,-6.648431,1.1690322,1003.43677,5.644062320508089,997.3335981095418,0,0
2.32,7.1481013,-6.92489,1.0648714,1003.4318,5.646623222649305,997.6562332728514,0,0
2.34,6.9377483999999985,-6.9916205,1.4294168,1003.432,5.649244710481589,997.9621064633697,0,0
2.36,6.8521457,-6.905833199999999,1.3489716,1003.45465,5.651637411795591,998.2521491712434,0,0
2.38,7.043314,-6.7723694000000005,1.4247198,1003.42163,5.653929190425117,998.5270410389044,0,0
2.4,6.7851844,-6.8391009999999985,1.1879978,1003.4321,5.655775416010711,998.7875937054292,0,0
2.42,6.7469215,-6.901065299999999,1.2021986999999998,1003.43475,5.6572606182147975,999.0345478042312,0,0
2.44,7.119725,-6.8962984,1.4057761,1003.412,5.659014848477553,999.2685152738372,0,0
2.46,7.229637599999997,-6.843865400000001,1.4815246000000002,1003.4296,5.661111816628196,999.4902288349956,0,0
2.48,7.358671000000001,-6.705634599999999,1.5099292,1003.405,5.663513822916036,999.7002281138288,0,0
2.5,7.148337,-6.5149717,1.3726293,1003.4577,5.665551467750895,999.8993103753962,0,0
2.52,6.928443,-6.44824,1.0459533,1003.4122,5.666747995462433,1000.0878658643657,0,0
2.54,6.9905577,-6.4291730000000005,1.1501081,1003.4202,5.667289310621412,1000.2664698973074,0,0
2.56,7.0478897,-6.7056320000000005,1.4767796999999998,1003.4406,5.6678167475782635,1000.4357112891844,0,0
2.58,7.0430927,-6.800963,1.4199653,1003.40753,5.6684411911136365,1000.5959515304056,0,0
2.6,7.186462400000001,-6.972558500000001,1.3063372,1003.4354,5.669574728962244,1000.7477618220396,0,0
2.62,7.239019,-6.7294636,1.3868203,1003.4309,5.6709101384688605,1000.891560693168,0,0
2.64,7.353711,-6.3958044,1.1974419,1003.43304,5.672083712799777,1001.0277707012016,0,0
2.66,7.186394,-6.376737,0.8186874,1003.41296,5.672742685164412,1001.1567125457756,0,0
2.68,7.085992299999999,-6.195607,0.8092163,1003.4234,5.672538944330428,1001.2788056344763,0,0
2.7,6.9808125,-6.5769315000000015,0.7666044,1003.42065,5.671935927613838,1001.3943977273683,0,0
2.72,7.047708,-6.362436,0.8092121,1003.4106,5.6707901976798665,1001.5037932288292,0,0
2.74,6.866053999999999,-6.548331,1.0411959000000002,1003.4134,5.669201939533881,1001.6073296782962,0,0
2.76,6.8612504,-6.543564,0.84234875,1003.4385,5.667173552739648,1001.7054066982034,0,0
2.78,6.6700354000000015,-6.7008600000000005,0.89915955,1003.4435,5.664719286883647,1001.79832468888,0,0
2.8,6.689133,-6.7580576,0.8991575,1003.4288,5.662009385468982,1001.8862967365616,0,0
2.82,6.9376615999999975,-6.6674924,0.927562,1003.42596,5.6593237441704165,1001.9695716256416,0,0
2.84,7.181407000000001,-6.8152556,1.1264046,1003.4364,5.6572877453488575,1002.0484338997804,0,0
2.86,7.2860746,-6.5054173,1.0032655,1003.41846,5.655531027488317,1002.1230486991701,0,0
2.88,7.481994,-6.5006495000000015,0.9085727,1003.441,5.654306007971521,1002.1937229605936,0,0
2.9,7.2095065,-6.786642,0.88489705,1003.411,5.6535295426771786,1002.2605529353295,0,0
2.92,6.9561353000000015,-7.125066800000001,0.7333923000000001,1003.42596,5.6532433553047206,1002.3237993664392,0,0
2.94,6.6788615999999985,-7.6112537,0.74285704,1003.4312,5.6537421145788525,1002.3836705552484,0,0
2.96,6.588017,-7.0630994000000005,0.4398525,1003.4263,5.653925260300952,1002.440326203681,0,0
2.98,6.6596613,-6.6007419999999986,0.15578343,1003.44635,5.6532245719645475,1002.4940088203032,0,0
3.0,6.8412547,-7.492087400000001,0.29307756,1003.4264,5.653349961632582,1002.5447993885973,0,0
3.02,7.018066,-7.5206857,0.7097014,1003.406,5.654539799743506,1002.5927782569428,0,0
3.04,6.9033084,-7.3395553,1.1642003,1003.4164,5.6563165913943525,1002.6381374232884,0,0
3.06,6.941508,-6.748501299999999,1.0553053999999995,1003.42114,5.657765139982718,1002.6810355919472,0,0
3.08,7.1804585,-6.4911065,0.4587669,1003.4313,5.658818247918255,1002.7216413656433,0,0
3.1,7.180414,-6.4005404000000015,0.28358979999999995,1003.4263,5.659378442413797,1002.7600573983644,0,0
3.12,7.1325746,-6.6770000000000005,0.6954792,1003.4513,5.659857940102838,1002.7964902782428,0,0
3.14,7.271149,-6.91056,1.1310407,1003.4342,5.660887753954184,1002.830978125902,0,0
3.16,7.672611,-6.6817645999999975,1.1357713,1003.4417,5.6626965942655225,1002.86365018684,0,0
3.18,7.4287996,-6.6912966,0.99373543,1003.4317,5.664792076636902,1002.8945641992124,0,0
3.2,7.452659,-6.4434342,0.97479427,1003.4264,5.666827177377505,1002.9237944294276,0,0
3.22,7.5864515,-6.3862348,0.875368,1003.4242,5.668916152958722,1002.9514237208997,0,0
3.24,7.3713190000000015,-6.6769940000000005,0.7948791999999999,1003.4392,5.671091709552273,1002.977592957449,0,0
3.26,7.122727,-6.8867210000000005,0.8280162,1003.4472,5.673262412373291,1003.0024066802173,0,0
3.28,7.065330499999999,-6.924853,0.8658878000000001,1003.4267,5.675397633383263,1003.0258595416066,0,0
3.3,6.893215,-6.8771863,0.66230464,1003.4267,5.677137933054572,1003.0480255155804,0,0
3.32,6.883614,-6.986816,0.69544166,1003.4342,5.678674995295498,1003.0690015983272,0,0
3.34,6.926593,-6.8628839999999975,0.91322064,1003.4292,5.679945129691912,1003.0888327792887,0,0
3.36,6.9313307,-6.9105490000000005,0.7001685999999999,1003.43207,5.681014951789957,1003.1075912647807,0,0
3.38,6.8978333,-6.9629803,0.69543064,1003.42206,5.681931185012375,1003.1252983500084,0,0
3.4,6.7878555999999985,-7.0440106,0.68595797,1003.4295,5.682667837509004,1003.1420394564552,0,0
3.42,6.687438,-7.039242999999999,0.82325184,1003.4472,5.683114193887919,1003.1579304760687,0,0
3.44,6.7638755,-7.0487757,0.6338720999999999,1003.4217,5.683396767201378,1003.1729213512854,0,0
3.46,6.725592999999999,-7.125039,0.47763264,1003.4497,5.683575055611283,1003.187163691762,0,0
3.48,6.6538562999999975,-7.058306,0.3687378,1003.4192,5.68344772771156,1003.2005835545167,0,0
3.5,6.964502,-6.9868070000000015,0.6859390999999999,1003.4495,5.683428494217595,1003.2133374444506,0,0
3.52,6.907102,-6.8533425,0.48709023,1003.4292,5.683200276194963,1003.2253838867964,0,0
3.54,6.8258033,-6.967739,0.4870864,1003.4371,5.682837721322068,1003.2367903012604,0,0
3.56,6.926140299999999,-6.953438,0.6007085,1003.4572,5.682496096604918,1003.2476624839965,0,0
3.58,7.1364098,-6.83904,0.8800344999999999,1003.4572,5.682362797893009,1003.2580234797194,0,0
3.6,7.1363707,-6.758007000000001,0.85162455,1003.4471,5.682293104323169,1003.2678591310132,0,0
3.62,7.0311704,-6.824738000000001,0.71905714,1003.4547,5.6821962341022765,1003.2772225396252,0,0
3.64,6.9498744000000015,-6.7913710000000025,0.72852236,1003.4547,5.6819081828720215,1003.2861349663316,0,0
3.66,6.9737315,-6.8009033,0.72378415,1003.4346,5.681500693389928,1003.2945444606908,0,0
3.68,7.155325,-6.839034599999999,0.7616558000000001,1003.4547,5.681320728756165,1003.302551649848,0,0
3.7,6.949752,-6.943898,0.6290886,1003.4245,5.681170191630808,1003.310065816248,0,0
3.72,6.9497128,-6.9152975,0.55806893,1003.41455,5.680995333419608,1003.3170814767404,0,0
3.74,7.217339,-6.6150036,0.41129857,1003.4346,5.680755768534894,1003.3237035810353,0,0
3.76,7.1647196,-6.729399000000001,0.7095623000000001,1003.4497,5.680576650807524,1003.3300084594985,0,0
3.78,6.8874497,-6.8580956,0.7332305,1003.43207,5.680227498018116,1003.3359468716542,0,0
3.8,6.8826303,-7.153621,0.70008606,1003.4572,5.680154249891638,1003.3416305638973,0,0
3.82,6.882586,-6.748463,0.75689477,1003.42676,5.6797370819431565,1003.3469591403333,0,0
3.84,7.257154499999999,-6.70084,0.71917915,1003.3845,5.6795060294243225,1003.3518026175667,0,0
3.86,7.123315,-6.85337,0.6197562,1003.442,5.679441270545663,1003.3564070246272,0,0
3.88,6.87476,-6.9963665,0.44931716,1003.43225,5.679346532168058,1003.3607485134168,0,0
3.9,7.1328645,-6.805704,0.55820805,1003.4395,5.6793410638886535,1003.3648681582632,0,0
3.92,7.2571344,-6.8438363,0.62922364,1003.44464,5.679664820881706,1003.3687954550796,0,0
3.94,6.9368824999999985,-6.786638000000001,0.63395756,1003.43207,5.679717674055951,1003.3724934029083,0,0
3.96,6.989455,-6.862902,0.5582066,1003.4295,5.679709996000669,1003.3759661333597,0,0
3.98,6.98945,-6.67224,0.7333791999999999,1003.42224,5.679397930532246,1003.379201223906,0,0
4.0,6.9894447,-6.67224,0.85173875,1003.46497,5.678838133577236,1003.3823685175064,0,0
4.02,7.099375200000001,-6.6770062,0.95589525,1003.43475,5.678253456537224,1003.3853557114693,0,0
4.039999999999999,6.9033979999999975,-6.886734,0.6244864,1003.4195,5.677603930593874,1003.3881181154933,0,0
4.06,6.955971000000001,-6.8962674,0.59134513,1003.43207,5.676986441136227,1003.3907172024733,0,0
4.079999999999999,7.042002,-6.591208,0.5345318,1003.42224,5.6760820330145965,1003.3931272377997,0,0
4.1,7.4196024,-6.657939999999999,0.70970434,1003.42725,5.675621381712536,1003.395379586958,0,0
4.119999999999999,7.438716,-6.958232400000001,0.7428446999999999,1003.43475,5.676009225823831,1003.3975114961612,0,0
4.14,6.7790979999999985,-7.101228999999999,0.7097034000000001,1003.4596,5.676376863081428,1003.399618769747,0,0
4.159999999999998,6.9607259999999975,-6.7056046,0.4871859000000001,1003.4192,5.676381076372683,1003.4015512491163,0,0
4.18,7.20927,-6.648406,0.66709286,1003.442,5.676380146036861,1003.4034044033904,0,0
4.199999999999998,6.994174,-6.8629007,0.9890319,1003.4346,5.676414406259135,1003.4051541546544,0,0
4.22,6.9750495,-6.786636,1.007969,1003.4295,5.676345152110593,1003.4067878799148,0,0
4.239999999999998,6.9033475000000015,-6.877200599999999,0.7996548000000001,1003.407,5.676170422264582,1003.4082322031873,0,0
4.26,6.740829,-7.0201974,0.54873085,1003.4373,5.675842606864856,1003.4096130512993,0,0
4.2799999999999985,6.6739073000000015,-7.063095599999999,0.6434185,1003.43207,5.675361430865434,1003.4109140137062,0,0
4.3,6.831635,-7.0821614,0.67655885,1003.4497,5.675005582791468,1003.4122031736397,0,0
4.3199999999999985,6.989363000000001,-6.8438339999999975,0.5108542,1003.41675,5.67462053114725,1003.413358643932,0,0
4.34,7.1565274999999975,-6.7961649999999985,0.4871704000000001,1003.42706,5.674389666082301,1003.414428942364,0,0
4.3599999999999985,7.1278380000000015,-6.9439282,0.48716944,1003.43207,5.674465596163406,1003.4154381658659,0,0
4.38,6.984435,-6.891495699999999,0.5203094,1003.43207,5.674527092439786,1003.4163897903552,0,0
4.4,7.11826,-6.6770005,0.5392462,1003.42975,5.674469251482141,1003.4172787425084,0,0
4.42,7.4862943,-6.481571,0.72388697,1003.452,5.6746265000643525,1003.4181892171581,0,0
4.44,7.342890700000001,-6.6865335,0.9227311,1003.43475,5.675067206130683,1003.4190533313767,0,0
4.46,7.1612472999999985,-6.82953,0.8848548,1003.4295,5.675676371952995,1003.4198544707076,0,0
4.48,7.0895405,-6.8152300000000015,0.43508554,1003.44476,5.676241922559482,1003.4206520173256,0,0
4.5,6.7549443,-7.067857000000001,0.7759617,1003.4497,5.6766915652978085,1003.4214613022548,0,0
4.52,6.8505306,-6.853362,0.7996329000000001,1003.4472,5.676861765435146,1003.4222690457304,0,0
4.539999999999999,7.156428,-6.4243712,0.55817735,1003.4245,5.676597685013943,1003.4229907993007,0,0
4.56,7.137299499999999,-6.8962603000000025,0.5487076999999999,1003.43225,5.67658817299204,1003.423661873878,0,0
4.579999999999999,7.218542999999999,-6.6245660000000015,0.8327707000000001,1003.417,5.676581330834984,1003.4242308526283,0,0
4.6,7.438407400000001,-6.6579320000000015,0.8611766,1003.42206,5.6769656870382175,1003.4247257871828,0,0
4.619999999999999,7.022554,-6.810461,0.66233057,1003.44226,5.677247463367815,1003.4252262345212,0,0
4.64,6.7883330000000015,-6.8056946,0.4871567,1003.427,5.677063066188707,1003.4256748153454,0,0
4.659999999999998,6.8361216,-6.748495599999999,0.7049384,1003.4672,5.676482038929157,1003.426220672026,0,0
4.68,7.0081843999999975,-6.5816655,0.7617503999999999,1003.442,5.67557868558921,1003.4267597965696,0,0
4.699999999999998,7.022514299999999,-6.5768995,0.8611719999999999,1003.4317,5.674426045172672,1003.427253951749,0,0
4.72,7.122880499999999,-6.762795,0.8990463,1003.447,5.673479534498241,1003.4277616730393,0,0
4.739999999999998,7.323622,-6.543533,0.86117023,1003.417,5.67270969061251,1003.4281715535479,0,0
4.76,7.3666306,-6.653163,0.67179304,1003.42206,5.672286365127152,1003.4285117223732,0,0
4.7799999999999985,7.098951,-6.8199925000000015,0.6055104,1003.4139,5.671991446683212,1003.4287596933464,0,0
4.8,6.9937825,-6.7675600000000005,0.54396206,1003.43976,5.671570952803369,1003.429018401602,0,0
4.8199999999999985,7.218425,-6.7294273,0.36405388,1003.4471,5.671307367842723,1003.4293120899713,0,0
4.84,7.218542,-6.595967,0.32618937,1003.4263,5.670992768940892,1003.4295607494902,0,0
4.8599999999999985,6.7023187,-7.034489999999999,0.6812693,1003.4621,5.670543601631652,1003.4298976063428,0,0
4.88,6.7357707,-7.0011234,0.71440953,1003.417,5.669980076708063,1003.4301488216754,0,0
4.9,7.022554,-6.834294,0.7901596,1003.442,5.669503528521424,1003.430413459785,0,0
4.92,7.1038070000000015,-6.8533607000000005,1.2446619,1003.43207,5.669350763400142,1003.4306532575633,0,0
4.94,7.3571300000000015,-6.6579320000000015,0.7002049,1003.4595,5.669480871448372,1003.4309689911532,0,0
4.96,7.4144830000000015,-6.4768019999999975,0.7191420999999999,1003.4092,5.669702618041563,1003.4311696049847,0,0
4.98,7.376239999999999,-6.367171,0.7428137,1003.4317,5.6697993623544205,1003.4313487767888,0,0
5.0,7.156364999999999,-6.581666,0.33092013,1003.4366,5.669693627976103,1003.4315259973981,0,0
5.02,7.381009,-6.839060000000001,1.0079393,1003.452,5.6702082873764335,1003.4317562959379,0,0
5.039999999999999,7.304527799999999,-6.8962584000000025,0.9463917,1003.4295,5.671222174302585,1003.4319516650625,0,0
5.06,7.218486,-6.8867254,1.2920027,1003.4367,5.6726108794465455,1003.4321413872265,0,0
5.079999999999999,7.361875,-6.534,1.1499701999999998,1003.44635,5.6740145802714075,1003.4323601767368,0,0
5.1,7.352311999999999,-6.2575393,0.8232959000000001,1003.4395,5.67496818901677,1003.4325792025116,0,0
5.119999999999999,6.8934440000000015,-6.4482017,1.1215627,1003.442,5.675137968734624,1003.4328066485573,0,0
5.14,6.869540700000001,-6.576899000000001,1.1026247999999998,1003.4317,5.674756728490977,1003.4330036359484,0,0
5.159999999999998,6.989031,-6.624564,1.5192518,1003.44385,5.674253286213786,1003.4332167409179,0,0
5.18,7.223236,-6.5244665,1.5239858999999998,1003.4313,5.673858597591341,1003.4333981402016,0,0
5.199999999999998,7.323607000000001,-6.557832,1.5381887,1003.44135,5.673765054218928,1003.433587051304,0,0
5.22,7.3522805999999985,-6.4625010000000005,1.4529688,1003.4317,5.673825321264367,1003.4337471797693,0,0
5.239999999999998,7.3809547,-6.33857,1.0316064,1003.4442,5.673787775645572,1003.433926299434,0,0
5.26,7.4096284,-6.2623053,1.4103583,1003.4295,5.673705109704128,1003.4340686348918,0,0
5.2799999999999985,7.170634,-6.4815664,1.329873,1003.4289,5.673486080506157,1003.4341757954164,0,0
5.3,7.423958,-6.3004375,1.5760616000000005,1003.4339,5.6733695286586405,1003.434269489593,0,0
5.3199999999999985,7.3379164,-6.271838,1.4861073,1003.4313,5.673142230148156,1003.4343415876046,0,0
5.34,7.462186,-6.2956705,1.6139358,1003.4493,5.673085861068125,1003.4344591436923,0,0
5.3599999999999985,7.457401799999999,-6.2575379999999985,1.5381849,1003.4312,5.673097717824858,1003.434551283334,0,0
5.38,7.2901034,-6.3242699999999985,1.6660133999999998,1003.4188,5.6730409761750265,1003.4345759933017,0,0
5.4,7.400034,-6.3767014,1.7843729,1003.4413,5.673207209115271,1003.4346220334528,0,0
5.42,7.256634700000001,-6.2337045999999985,1.6281371999999998,1003.42596,5.673100042668174,1003.43463153121,0,0
5.44,7.223171000000002,-6.28137,1.6565433,1003.4063,5.672773659688494,1003.4345379299159,0,0
5.46,7.361780599999999,-6.28137,1.7512308,1003.4388,5.672503995861758,1003.4344705672653,0,0
5.48,7.395234599999997,-6.2861366,1.7133552,1003.4313,5.6723300028773735,1003.4343996315844,0,0
5.5,7.356991000000002,-6.214638,1.7843707999999998,1003.4114,5.672113232342568,1003.4342541541432,0,0
5.52,7.309187400000001,-6.2051050000000005,1.6944166,1003.4187,5.6717389322424685,1003.4340696153216,0,0
5.539999999999999,7.328302000000001,-6.257537,1.7796354,1003.43365,5.67135757289875,1003.4339050462033,0,0
5.56,7.199242599999999,-6.3290358,1.7985728,1003.4134,5.670874908342223,1003.433685814764,0,0
5.579999999999999,7.3378515,-6.2146377999999975,1.7985723000000002,1003.3935,5.6703661759092725,1003.4333474329312,0,0
5.6,7.1992326,-6.209871,1.708618,1003.4438,5.669580760775639,1003.4330860679852,0,0
5.619999999999999,7.2183466,-6.2384705999999985,1.6612735,1003.4459,5.668604416982143,1003.4329012560744,0,0
5.64,7.3856350000000015,-6.1717386,1.9548062,1003.4334,5.6677480694799565,1003.4327397517476,0,0
5.6599999999999975,7.3378315,-6.271836,1.8695865000000005,1003.4459,5.667023657682729,1003.4326444234184,0,0
5.68,7.304367999999997,-6.2623024,2.0494933,1003.43097,5.6664285335159015,1003.4325541633824,0,0
5.6999999999999975,7.457316400000002,-6.257536,2.0447588,1003.4435,5.666178675094496,1003.4325138146263,0,0
5.72,7.433413000000002,-6.20987,1.7985691,1003.4385,5.666035711490884,1003.4324997127327,0,0
5.7399999999999975,7.1179414,-6.6007276,1.9500694,1003.4281,5.666091306788865,1003.432471413334,0,0
5.76,6.7881300000000016,-6.5911946,1.8648497,1003.4457,5.665786477455901,1003.432494030897,0,0
5.7799999999999985,7.0749125,-6.262302,1.5381753,1003.4281,5.665016805183864,1003.4324981972644,0,0
5.8,7.495530599999999,-6.1622043,1.7748951000000002,1003.4131,5.664445391147474,1003.4324320451567,0,0
5.8199999999999985,7.552883,-6.0287404,1.9121925,1003.4234,5.664024041594331,1003.4323410777918,0,0
5.84,7.658413,-6.1002483,1.6471,1003.42596,5.663897474846778,1003.4322377271479,0,0
5.8599999999999985,7.242580999999999,-6.2575445,1.7843987,1003.4484,5.6636321700521375,1003.4322045907013,0,0
5.88,7.242590400000001,-6.4291405999999975,1.9974478,1003.4131,5.663561146516588,1003.4321065348106,0,0
5.9,7.233041,-6.3576427,1.9595735,1003.4181,5.663535293539593,1003.4319694691002,0,0
5.92,7.347766,-6.281378299999999,1.9264336,1003.4359,5.663610698845468,1003.4318625077498,0,0
5.94,7.223501,-6.3338103,1.8459495,1003.4256,5.6636215467081925,1003.4317454516728,0,0
5.96,7.1709337,-6.4911075,1.7370593999999997,1003.43317,5.663667575792352,1003.4316471492967,0,0
5.98,7.1709433,-6.5101733,1.6613097,1003.4256,5.663743530382909,1003.4315385195804,0,0
6.0,7.0227785,-6.5721393,1.6613104,1003.4555,5.663708520440951,1003.431528795692,0,0
6.02,7.233101,-6.553073,1.6802491000000002,1003.4456,5.663872739162848,1003.43157086,0,0
6.039999999999999,7.295248,-6.3290453,1.585562,1003.443,5.663970445723589,1003.4316491729263,0,0
6.06,7.233119999999999,-6.4482093,1.5429531,1003.4256,5.664060639991669,1003.4316965932055,0,0
6.079999999999999,7.1518745,-6.491109,1.7607368000000003,1003.4377,5.664155081237003,1003.4317601060287,0,0
6.1,7.0180497000000015,-6.5387745000000015,1.7844096,1003.4456,5.664126439843128,1003.4318660495776,0,0
6.119999999999999,7.018059700000001,-6.3719454,1.7844106,1003.4303,5.663758428064095,1003.431954023519,0,0
6.14,7.218821000000001,-6.252781400000001,2.0542727,1003.42255,5.66334771062066,1003.4319979028087,0,0
6.1599999999999975,7.2475095,-6.2909145,2.115821,1003.42725,5.663022712164384,1003.4320195820993,0,0
6.18,7.0945663,-6.452977,2.2199788,1003.44794,5.662808794329367,1003.4320960514248,0,0
6.1999999999999975,7.180612599999999,-6.514943,2.2483861000000003,1003.42255,5.662920452270639,1003.4321292539354,0,0
6.22,7.285778,-6.4148455,2.2436526000000003,1003.42255,5.663340870730603,1003.4321241063598,0,0
6.2399999999999975,7.410063,-6.3290477,2.3714824,1003.43256,5.664170139488598,1003.4321211271788,0,0
6.26,7.3861747000000015,-6.133619,2.0448093000000003,1003.42755,5.664914491448719,1003.4321020387172,0,0
6.2799999999999985,7.3575053,-6.1336193,1.92645,1003.4403,5.665486399741107,1003.4321146848127,0,0
6.3,6.8508559999999985,-6.6436414999999975,2.2673283,1003.41754,5.665983239373436,1003.4320733900377,0,0
6.3199999999999985,6.7122517,-6.5483103,2.0968907,1003.42004,5.665996504584025,1003.43199358177,0,0
6.34,7.2432940000000015,-6.4958897,2.096935,1003.4172,5.666297228123027,1003.4318698062905,0,0
6.3599999999999985,7.3245783,-6.033535,2.1726878,1003.4477,5.666398451412091,1003.431817426974,0,0
6.38,7.2146735,-6.186065,2.210566,1003.4597,5.666369090350466,1003.4318715218733,0,0
6.4,7.1860203999999985,-6.4148602,2.4851637,1003.4396,5.666621025287589,1003.4319471426468,0,0
6.42,7.334225,-6.3528957,2.3857439,1003.4472,5.667211973729285,1003.4320688714492,0,0
6.44,7.15262,-6.1908336,1.9454468,1003.44214,5.667405323821777,1003.4322126870816,1,1
6.46,7.0427117,-6.2575665,1.9927933,1003.44214,5.667188143829741,1003.4323755009008,1,1
6.48,7.1096581999999975,-6.386264,2.0638123,1003.40424,5.666915606696987,1003.4324180753883,1,1
6.5,7.004534,-6.6293592000000015,2.2579257,1003.43964,5.666861168372091,1003.4324816931343,1,1
6.52,7.439522699999999,-6.376732,2.1679745,1003.4321,5.6672705608452105,1003.4325365316793,1,1
6.539999999999999,7.48257,-6.119339,1.8460375,1003.43713,5.667684021438777,1003.4326015235034,1,1
6.56,7.3870015,-6.1956042999999985,1.8981184,1003.43756,5.668069272236838,1003.4326768007946,1,1
6.579999999999999,7.224517999999999,-6.1288733,1.9265275,1003.4345,5.668098979616421,1003.4327498793264,1,1
6.6,7.2627854,-6.152707,1.8176389,1003.44214,5.667861599948994,1003.4328482559514,1,1
6.619999999999999,7.243692999999999,-6.64843,2.0401585,1003.4321,5.6681187500520585,1003.4329324878156,1,1
6.64,5.9818544000000005,-8.369158,1.5146421,1003.4495,5.6695526899158715,1003.4330665581352,1,1
6.6599999999999975,4.2850533,-9.150873,-1.7284223,1003.4321,5.671716099336481,1003.4331815430597,1,1
6.68,4.3328805,-8.788615,-1.9225302,1003.41675,5.673963931907277,1003.4332239901843,1,1
6.6999999999999975,5.0929036,-9.179474,-0.68211305,1003.4445,5.677388790541945,1003.4333020900988,1,1
6.72,5.6521626,-8.864881500000003,-0.7057829999999999,1003.4341,5.681877418004267,1003.433373971659,1,1
6.7399999999999975,7.0383330000000015,-8.354861,0.31211647,1003.437,5.688103950011781,1003.4334505399077,1,1
6.76,7.4637647,-8.188032000000002,0.8660445,1003.4341,5.696226748873827,1003.4335205336683,1,1
6.7799999999999985,7.377757000000001,-8.116535,1.0838296,1003.4443,5.705806400638442,1003.4336211862344,1,1
6.8,7.903563,-7.773343,1.4625846000000002,1003.44147,5.716970796391912,1003.4337383785708,1,1
6.8199999999999985,8.434157,-7.0821934,1.4483848,1003.41895,5.7293423513794925,1003.4337886915564,1,1
6.84,7.907456,-6.8104770000000014,0.63398254,1003.4393,5.7413790677308665,1003.4338529888213,1,1
6.8599999999999985,8.633979,-6.843843,0.20788543,1003.4468,5.754249121517353,1003.4339564111248,1,1
6.88,10.144389,-6.982073,0.5676995,1003.4465,5.770529127536186,1003.4340929519916,1,1
6.9,12.629876,-6.452985,1.6897523,1003.4515,5.793827327446136,1003.4342762648747,1,1
6.92,12.677665,-6.8343086,2.068504,1003.45386,5.823797957911369,1003.4345087415848,1,1
6.94,11.205477,-7.4110622,1.5855938,1003.4518,5.857431284294809,1003.434776406536,1,1
6.96,9.561215,-8.216610000000001,1.5003738000000002,1003.43396,5.892450442300402,1003.4350099762233,1,1
6.98,8.28978,-8.869629,1.5240451000000002,1003.4389,5.927612069578773,1003.4352303624846,1,1
7.0,7.0040020000000025,-9.565545,1.5382473,1003.4508,5.96218947000373,1003.4354811464799,1,1
7.02,6.4686556,-10.404459,1.0600717,1003.4515,5.996837335901747,1003.4357604070913,1,1
7.039999999999999,5.966768,-11.23384,0.8706948,1003.4515,6.032363716042781,1003.4360638243018,1,1
7.06,4.547156299999998,-12.034621,1.1736958,1003.4311,6.068888805795642,1003.4363140539813,1,1
7.079999999999999,0.98619443,-13.683849,0.3215022,1003.4339,6.107837317738046,1003.4365264663319,1,1
7.1,-2.0011919,-15.21868,-2.1687953,1003.4134,6.152484622821063,1003.4366308986064,1,1
7.119999999999999,-2.4935205000000003,-16.367418,-1.614871,1003.43604,6.204360897806245,1003.4367210477286,1,1
7.14,0.6181234999999999,-14.603794,-1.5201836000000002,1003.40356,6.2584075306712315,1003.4366813237214,1,1
7.1599999999999975,4.355921,-14.212935,-2.836349,1003.4161,6.315087506193235,1003.4365721308233,1,1
7.18,8.375728,-13.774413,-4.2093267,1003.4159,6.377065902590691,1003.4364012283072,1,1
7.1999999999999975,10.106009,-13.59805,-2.751131,1003.40814,6.444547535221899,1003.4361484784224,1,1
7.22,10.975924,-12.468376,1.4198785,1003.45105,6.515625523494368,1003.435978794102,1,1
7.239999999999997,10.005614,-10.514089,3.2142172,1003.4458,6.585871596657682,1003.4358642173773,1,1
7.26,8.423492,-9.38918,2.399899,1003.42316,6.650919800162157,1003.4357172422012,1,1
7.2799999999999985,8.595556,-8.350069,1.4956264,1003.4407,6.709553811708131,1003.4356053128633,1,1
7.3,9.584967,-5.3566723,1.7986276999999995,1003.42065,6.760334575056444,1003.4354525729742,1,1
7.3199999999999985,10.101177,-3.0258257,2.5750694,1003.43317,6.803427927786702,1003.4353093947457,1,1
7.34,10.36393,-2.2059746,2.6981516,1003.4434,6.839739244509055,1003.4352120086417,1,1
7.3599999999999985,11.291198,-2.1678414,1.8459573,1003.4434,6.871403846527295,1003.435155435049,1,1
7.38,12.003375,-4.265126,2.1442235,1003.4309,6.901494814232379,1003.4350901270562,1,1
7.399999999999999,12.146757,-8.140336999999999,1.836486,1003.4405,6.933868253735089,1003.4350518964566,1,1
7.42,12.830255,-10.328186,1.5429516,1003.4409,6.971895272931204,1003.4350391690716,1,1
7.439999999999999,12.983194,-10.642778,1.2446828,1003.4432,7.0153857958823975,1003.4350573021454,1,1
7.46,13.078776,-13.278685,0.4729737,1003.4251,7.067309616877798,1003.4350374782416,1,1
7.479999999999999,14.407549,-15.790658,0.68602073,1003.45294,7.1321987106208935,1003.4350844109184,1,1
7.5,15.831916,-18.517128,1.4245865,1003.463,7.214581893175637,1003.4352263767528,1,1
7.52,10.927825,-18.3074,2.1300116,1003.48065,7.305938307057702,1003.4355153428077,1,1
7.539999999999999,7.01315,-15.547564,3.1715796000000003,1003.4755,7.396417605680488,1003.4359146179794,1,1
7.56,5.775167,-12.191908,1.533474,1003.4605,7.477958177425313,1003.4363559248964,1,1
7.579999999999999,4.6566790000000005,-10.814373,0.9653443000000002,1003.48553,7.547641417417504,1003.4369228903587,1,1
7.6,3.9588144,-9.112712,1.6707691999999998,1003.46545,7.602982469717361,1003.437526558636,1,1
7.619999999999999,2.7590697,-8.745687,2.101599,1003.4201,7.644065883806868,1003.4379972243145,1,1
7.64,0.41695273,-9.084111,1.6092194,1003.4227,7.672043057826886,1003.4383580345008,1,1
7.659999999999997,-1.8534681,-10.566509,0.8138383000000001,1003.39496,7.691505791012701,1003.4385206134567,1,1
7.68,-1.7196485,-11.915445,-1.7995544999999995,1003.403,7.706314019882113,1003.438536394014,1,1
7.699999999999997,1.2007996,-13.884033,-2.3203402000000004,1003.3801,7.721019740202465,1003.4383399666963,1,1
7.72,6.3438535000000025,-15.852620000000002,-0.3981731,1003.39246,7.74171707268709,1003.4380012356378,1,1
7.739999999999997,11.635084,-13.8459,-0.58281606,1003.39764,7.769744505422133,1003.4375566324263,1,1
7.76,12.801342,-15.704857,-1.094133,1003.3927,7.808711970137664,1003.4370022971519,1,1
7.7799999999999985,13.523079,-18.764986,-0.85741407,1003.4126,7.863140146206025,1003.4364246382337,1,1
7.8,14.321291,-17.897470000000006,-1.0278541,1003.4401,7.930615967682924,1003.435927450116,1,1
7.8199999999999985,14.50769,-14.680046,1.6281457,1003.4472,8.004718439604506,1003.4355287158747,1,1
7.84,14.154321,-13.822073,4.9564629999999985,1003.46497,8.083768863929464,1003.4352823829221,1,1
7.8599999999999985,14.288155,-10.032661,6.0832515,1003.4749,8.162943144533559,1003.4352073465463,1,1
7.88,13.265277,-4.841881,5.283137,1003.44226,8.234852381601604,1003.4351664339572,1,1
7.899999999999999,11.114365,-3.4405127,2.5987294,1003.41223,8.293524066729367,1003.4350477124314,1,1
7.92,10.488211,-3.1878853,0.9180158000000002,1003.4473,8.338373501442554,1003.4349869183262,1,1
7.939999999999999,12.44315,-2.0248454,1.2115486999999998,1003.4275,8.374307829087874,1003.434906247749,1,1
7.96,13.662,-4.665518,3.19053,1003.4349,8.406641977522478,1003.4348349447353,1,1
7.979999999999999,13.709798,-7.358622599999999,3.2331398,1003.43994,8.437979775897293,1003.4347903195912,1,1
8.0,13.877091,-9.7419,2.2247117000000003,1003.4275,8.470835880272992,1003.434724643663,1,1
8.02,13.308295,-13.497948,1.9075062,1003.41974,8.508969464589619,1003.4346126676961,1,1
8.04,13.026286,-17.253994,1.1263295,1003.42676,8.557027355972965,1003.4344854561276,1,1
8.059999999999999,13.585523,-19.499043,1.1121264,1003.47675,8.61813486119573,1003.4345252043436,1,1
8.08,13.341754000000002,-19.384645000000006,2.2389147,1003.4717,8.690235907302037,1003.434694155132,1,1
8.1,10.98053,-17.702051,2.9064658,1003.47675,8.766375569985524,1003.43499484109,1,1
8.12,8.146107,-16.863135999999994,2.451963,1003.4688,8.841350493881679,1003.4353822257747,1,1
8.139999999999999,6.645247500000001,-13.783941,1.8412247,1003.4789,8.907803841928828,1003.4358811828688,1,1
8.16,5.913938,-10.957373,1.2115486999999998,1003.4667,8.9604560077998,1003.4364330090992,1,1
8.18,4.785904,-9.222346,1.0931886,1003.44635,8.996436674987887,1003.4369563039237,1,1
8.2,3.375862,-8.612227,1.1642046999999998,1003.42584,9.015219951477476,1003.4373786685363,1,1
8.219999999999999,1.4113625,-8.230903,1.1689392,1003.4213,9.016888570377107,1003.4376939867017,1,1
8.24,-0.4145224,-7.487319500000001,0.6670923000000001,1003.4164,9.001549647044081,1003.43789594348,1,1
8.26,-1.0645758,-7.463487,-0.36974233,1003.3859,8.971279007019119,1003.4378872070928,1,1
8.28,-0.22333032,-9.084116,-1.6480317,1003.40674,8.931430057308495,1003.4377673576756,1,1
8.299999999999999,0.9572813,-11.653291,-1.6243597,1003.37885,8.888602265375086,1003.4374493562433,1,1
8.32,5.5841312000000025,-14.885016,-0.29399183,1003.3938,8.851809670302606,1003.4370112324948,1,1
8.34,11.277226,-17.697292,-0.36971048,1003.39343,8.831056477817251,1003.4364672139136,1,1
8.36,15.913648,-20.05197,-1.6669363,1003.381,8.834247045582105,1003.4357868371254,1,1
8.379999999999999,17.419298,-19.599148,-0.9236334,1003.39343,8.859796769022791,1003.4350331715816,1,1
8.4,15.975812,-16.048063,2.23895,1003.42834,8.897772148299989,1003.4343431372894,1,1
8.42,14.647041,-11.591335,4.501997,1003.4739,8.939229953502076,1003.4338758276946,1,1
8.44,12.835509,-9.818176,4.0522300000000016,1003.4809,8.978308740599742,1003.433632199957,1,1
8.459999999999999,9.642614,-9.308155,1.9454207,1003.4483,9.008664948669503,1003.433469734568,1,1
8.48,7.797623,-7.0774064,1.6944987,1003.4209,9.025225401601537,1003.433280929106,1,1
8.5,8.658002999999999,-4.8704915,2.3289104,1003.43835,9.028574485299252,1003.4331323492547,1,1
8.52,9.781269,-3.5644546000000004,2.5893037,1003.41565,9.021327925409937,1003.4329381276413,1,1
8.54,11.865279,-3.1211655,2.2910376,1003.42816,9.00838935692379,1003.4327493121637,1,1
8.559999999999999,11.941768,-4.1364427,1.945427,1003.41833,8.991103371874377,1003.4325305652844,1,1
8.58,11.0192795,-5.4853787,1.405706,1003.42566,8.969211773426348,1003.4323125465063,1,1
8.6,10.393139,-7.7590265,1.5051298999999998,1003.4208,8.944717659329017,1003.4320784599468,1,1
8.62,9.298578,-12.487451,0.09901312,1003.4357,8.923234305210869,1003.4318846586067,1,1
8.639999999999999,7.6591179999999985,-15.447482999999998,-1.2455567,1003.40076,8.908058196260946,1003.431601366972,1,1
8.66,6.49286,-16.705853,-2.7984400000000003,1003.4208,8.900283685077296,1003.4313121655624,1,1
8.68,7.037770299999999,-15.414117999999998,-1.3449767,1003.4183,8.89670291995928,1003.4310097834008,1,1
8.7,6.3590517,-11.7724695,0.31206626,1003.4208,8.889328520402398,1003.4307058433023,1,1
8.719999999999999,4.2272735,-10.704761,-1.5201471000000002,1003.4454,8.87494010427901,1003.4304901807956,1,1
8.74,3.7588682,-9.899213,-1.6243027,1003.4254,8.852542637074947,1003.430281296754,1,1
8.76,3.8449178,-9.784816,-1.4633318000000002,1003.45825,8.822944880721362,1003.4301974141464,1,1
8.78,3.0132492,-10.618964,-0.38862026,1003.4409,8.787986403517591,1003.4301618247833,0,0
8.799999999999997,1.9330262,-10.137542,-0.31760296,1003.43036,8.746920612025582,1003.4301310914526,0,0
8.82,3.4673576,-8.17372,-0.78630775,1003.4382,8.697672333885372,1003.4301329835524,0,0
8.84,5.0548677,-6.5197400000000005,-1.2076135,1003.4208,8.640174492292994,1003.4301010566713,0,0
8.86,6.4697304,-6.691337599999999,-1.3922515,1003.43536,8.57782548257845,1003.4300917782747,0,0
8.879999999999997,7.621699,-8.359633,-0.606337,1003.4429,8.515400166473912,1003.4301296894822,0,0
8.9,9.289889,-9.837268,0.55833,1003.42523,8.457732223322175,1003.4301455489427,0,0
8.92,10.991535,-8.340569,0.8187255,1003.44293,8.405057597580893,1003.4302055863859,0,0
8.94,11.593819,-6.0240230000000015,0.35475647,1003.43286,8.35542208818613,1003.4302681913596,0,0
8.959999999999997,9.887479,-4.7751865,0.17011926,1003.4552,8.304309274922558,1003.4304132636256,0,0
8.98,7.937353599999999,-5.8476624,0.18432574,1003.4398,8.24974527622296,1003.4305752417308,0,0
9.0,7.034006599999999,-7.1584663,0.51573735,1003.45294,8.1927203607938,1003.4307988787144,0,0
9.02,6.8810906,-7.973547999999999,1.1690886,1003.4452,8.134864531921801,1003.4310483283896,0,0
9.04,6.742505,-7.7781205,1.4531555,1003.4627,8.076064827319012,1003.4313826881404,0,0
9.06,6.7999100000000015,-6.657981,-0.16600654,1003.46045,8.014818663568905,1003.4317827707387,0,0
9.08,6.776039599999999,-6.624615,-1.008728,1003.4526,7.951655597663906,1003.432211225748,0,0
9.1,6.96727,-7.0250072,-1.9129958,1003.4273,7.888164146317999,1003.4325721281816,0,0
9.12,7.3640294000000015,-7.206136999999999,-2.0550246,1003.4175,7.82550245808249,1003.4328367619106,0,0
9.14,7.459672999999999,-7.2871704,-0.79093415,1003.4323,7.763699861586375,1003.4330686599304,0,0
9.16,6.8000979999999975,-7.363436,-0.7861963000000001,1003.4348,7.702038274450317,1003.4332797978453,0,0
9.18,6.2886925000000025,-7.339604,-0.7388491,1003.4799,7.63997425491608,1003.4336341920343,0,0
9.2,6.0688615,-7.315772,-0.22752981,1003.4476,7.577392729542741,1003.4339976116484,0,0
9.22,5.920726,-7.678031,0.22224213,1003.46,7.514974567022221,1003.4344123378177,0,0
9.24,5.9781218,-7.6208339999999986,0.6436076000000001,1003.452,7.452943958322361,1003.4348421054448,0,0
9.26,6.1693497000000015,-7.444472,0.7525022,1003.4501,7.391459610203617,1003.43527677654,0,0
9.28,6.0833488,-7.3825073,0.6388798000000001,1003.4702,7.330449657032478,1003.4357865755246,0,0
9.3,6.078607,-7.3157763,0.22225562,1003.4398,7.269926476030992,1003.4362514822352,0,0
9.32,6.346311599999999,-7.334844,0.009210674,1003.4398,7.2104359964360665,1003.4366750484688,0,0
9.34,6.636841,-7.353884,0.23163258,1003.44226,7.152507337013635,1003.4370694174183,0,0
9.36,7.0478992,-7.2633199999999984,0.2505698,1003.4445,7.096614486650168,1003.4374446319194,0,0
9.38,7.124370599999999,-7.210887,0.21269405,1003.4119,7.0427532129004335,1003.4376842107775,0,0
9.4,7.0096507,-7.282386,0.23163122,1003.4575,6.990821738051764,1003.437967239498,0,0
9.42,6.780214999999999,-7.6827765,0.35472527,1003.4798,6.941078405597391,1003.4383679216133,0,0
9.44,6.517321,-7.8496055999999985,0.46835056,1003.4448,6.893365223203839,1003.438745119812,0,0
9.46,6.4742975,-7.682776,0.24109869,1003.4371,6.847277984026908,1003.4390724897096,0,0
9.48,6.4073753,-7.430148599999999,0.18901974,1003.4723,6.8023012825582265,1003.4394813727878,0,0
9.5,6.3739120000000025,-7.535012700000001,0.35945788,1003.4473,6.758598149845684,1003.4398708089336,0,0
9.52,6.350008,-7.515947,0.46834874,1003.45483,6.716124889173393,1003.4402687678,0,0
9.54,6.5125155,-7.5731449999999985,0.6103804,1003.4545,6.675216407123668,1003.4406716366904,0,0
9.56,6.761061,-7.434914,0.35472214,1003.4295,6.635939130390849,1003.4409873937497,0,0
9.58,6.6845784,-7.349117,0.28370556,1003.4494,6.598001112865845,1003.4412966820696,0,0
9.6,6.5698595,-7.434914,0.39733085,1003.4594,6.561364763107009,1003.4416351411741,0,0
9.62,6.19225,-7.7161407,0.22689179,1003.43427,6.5259407834933985,1003.4419076891304,0,0
9.64,5.9245753,-7.787638999999999,0.113265604,1003.4444,6.491486050692346,1003.4421574848236,0,0
9.66,6.001047,-7.787638999999999,0.16060922,1003.4594,6.458109772420004,1003.4424402773532,0,0
9.68,6.0822987999999985,-7.902035700000001,-0.033501852,1003.48444,6.426095383853617,1003.4428413518332,0,0
9.7,6.3451830000000005,-7.7304406,-0.18026884,1003.4589,6.395463701386039,1003.4432535523777,0,0
9.72,6.593728,-7.468279400000001,-0.42645827,1003.457,6.366099615809293,1003.4436672599901,0,0
9.74,6.469448000000001,-7.3252826,-0.49274045,1003.4516,6.3375743634336565,1003.4440613699,0,0
9.76,6.349948,-7.525478,-0.47853774,1003.44135,6.310044019198713,1003.444399844485,0,0
9.78,6.4694379999999985,-7.5064116,-0.59689826,1003.42413,6.283636061370759,1003.4446259491882,0,0
9.8,6.3881764,-7.616042,-0.45013222,1003.4516,6.258362945702679,1003.4448508418867,0,0
9.82,6.273456,-7.5588436,-0.27969405,1003.47394,6.233926620522539,1003.4451542780446,0,0
9.84,6.115781,-7.606510000000001,-0.27968872,1003.43866,6.210187098475593,1003.4453990148326,0,0
9.86,6.0058427000000005,-7.639876400000001,-0.27495453,1003.4364,6.187060571791853,1003.445582867805,0,0
9.88,6.216152,-7.2728515,-0.22761072,1003.4565,6.164243624004879,1003.4457846219673,0,0
9.9,6.426461,-7.101255,-0.31283024,1003.4541,6.141808228729067,1003.4459928273061,0,0
9.92,6.445577,-7.296684,-0.13765751,1003.4614,6.120111441116729,1003.4462322633653,0,0
9.94,6.436015,-7.325283,0.05171843,1003.46643,6.099175122672893,1003.4465165409188,0,0
9.96,6.3595357,-7.382481599999997,0.17954712,1003.4364,6.078974636781876,1003.446731309018,0,0
9.98,6.2830562999999975,-7.415847999999999,-0.118720576,1003.4487,6.05944459906179,1003.4469281653978,0,0
10.0,6.2400355,-7.320517,-0.13765842,1003.45386,6.040368928467543,1003.4471270622996,0,0
10.02,6.3451886,-7.2919173,-0.32703483,1003.4639,6.021870443379627,1003.4473631901776,0,0
10.04,6.431223,-7.3014503,-0.4501296,1003.4234,6.004091386118063,1003.4474855652865,0,0
10.06,6.7419080000000005,-7.415847999999999,-0.2749568,1003.45886,5.987606047977836,1003.4476346438972,0,0
10.08,7.004794,-7.239484299999999,-0.32230112,1003.4434,5.9724325045920885,1003.44775112504,0,0
10.1,7.1625257,-7.0392895000000015,-0.29389492,1003.45135,5.958406447156421,1003.4478670037273,0,0
10.12,6.8374963000000015,-7.044055499999999,-0.18026945,1003.4609,5.944970089285937,1003.4480163129216,0,0
10.14,6.4837885,-7.144153599999999,-0.2276137000000001,1003.4412,5.9317538143116835,1003.4481237037998,0,0
10.16,6.4407682,-7.3252826,-0.099785,1003.4659,5.918996261499608,1003.4482825890456,0,0
10.18,6.3929667000000014,-7.277617,-0.13766044,1003.4534,5.906550931151849,1003.4484414027287,0,0
10.2,6.6223955000000005,-6.9391913,-0.109254286,1003.4484,5.894228765080747,1003.4485815814488,0,0
10.22,6.7084293000000015,-7.1298532,-0.3175683,1003.4534,5.882479845871982,1003.4487227896733,0,0
10.24,6.6176105,-7.840070699999999,-0.22761483,1003.46625,5.872251007413715,1003.4489106592172,0,0
10.26,6.6462865,-7.5588436,-0.32230318,1003.42566,5.863003652391461,1003.448992958373,0,0
10.28,6.885274400000001,-7.1918187000000025,-0.30336577,1003.4407,5.8544294020171845,1003.449035823257,0,0
10.3,6.760997,-7.2061186,-0.32703805,1003.44775,5.846326299511483,1003.4490690697047,0,0
10.32,6.38817,-7.263317,-0.2607566,1003.46545,5.838231618138941,1003.4491574176152,0,0
10.34,6.3268504,-7.3777339999999985,-0.2086033,1003.448,5.830266849004334,1003.4492313151253,0,0
10.36,6.360339,-7.596997,-0.38850787,1003.4304,5.82284941542307,1003.4492288182305,0,0
10.38,6.3651480000000005,-7.592231,-0.3600988,1003.44293,5.815938907730883,1003.4492039362287,0,0
10.4,6.446433,-7.4111023,-0.31748655,1003.458,5.809321687320467,1003.4492136163216,0,0
10.42,6.5181646,-7.1632422999999985,-0.4169059,1003.49084,5.802709612902382,1003.449372024633,0,0
10.44,6.542092,-7.2442746,-0.44057533,1003.46545,5.796286087192872,1003.4495698749284,0,0
10.46,6.647276,-7.287174,-0.2369933,1003.43304,5.790250504601237,1003.4496851878994,0,0
10.48,6.776363000000001,-7.392039299999999,-0.1612399,1003.46545,5.784918120375996,1003.4498438317644,0,0
10.5,6.8241897,-7.249042999999999,-0.113893226,1003.46277,5.780074840769073,1003.4500305436889,0,0
10.52,6.805101,-7.0393149999999975,-0.21804734,1003.46027,5.775342059864968,1003.4502323843884,0,0
10.54,6.8146910000000025,-7.03455,-0.28432620000000003,1003.45294,5.770734228253825,1003.4504204782463,0,0
10.56,6.8242793000000015,-7.1298814,-0.22277634,1003.46277,5.766406591916312,1003.4506311362576,0,0
10.58,6.872108,-7.315778,-0.009725373,1003.465,5.7626856800402315,1003.4508690015859,0,0
10.6,6.8816957,-7.201381,-0.23223977,1003.4625,5.759360983408638,1003.4511210509844,0,0
10.62,6.7574515,-7.2299820000000015,-0.44055077,1003.4499,5.756278925334736,1003.4513393660492,0,0
10.64,6.633205,-7.3014803,-0.34586006,1003.4778,5.753348871357907,1003.4516275275224,0,0
10.66,6.594997,-7.2538157,-0.2511692,1003.45764,5.750431038971867,1003.4519037919014,0,0
10.68,6.504211,-7.349148,-0.21802558,1003.45026,5.747554354421742,1003.4521419814557,0,0
10.7,6.480341,-7.420646700000002,-0.18014774,1003.4572,5.744801626109148,1003.4523706546128,0,0
10.72,6.5138316,-7.392048,-0.09965989,1003.4572,5.742167179155612,1003.4525900958577,0,0
10.74,6.51386,-7.296717599999999,-0.3079711,1003.4572,5.739507559384147,1003.4528005897964,0,0
10.76,6.4469733,-7.406349,-0.24168663,1003.4268,5.736910380019733,1003.4528929801177,0,0
10.78,6.3992057,-7.411116000000002,-0.19907421,1003.4599,5.734318197630763,1003.4529998414772,0,0
10.8,6.5569677,-7.272887,-0.27955645,1003.45966,5.731745359997058,1003.4531182407447,0,0
10.82,6.643031,-7.196623,-0.29849163,1003.44714,5.729203489436,1003.453201336671,0,0
10.84,6.6714606,-7.301481,-0.14701353,1003.46185,5.726891441178808,1003.4533058954194,0,0
10.86,6.657139,-7.2442827,-0.10440226,1003.4343,5.7246819065252215,1003.4533298623061,0,0
10.88,6.5998,-7.253816,-0.08546287,1003.43646,5.722504731110287,1003.4532903079428,0,0
10.9,6.6046004,-7.301482000000001,-0.038116988,1003.4541,5.720443446027257,1003.4532582725988,0,0
10.92,6.67632,-7.282417,-0.090193376,1003.4516,5.718563753603957,1003.4532239963876,0,0
10.94,6.748036,-7.239517699999999,-0.19908296,1003.46674,5.716890297198467,1003.4532423675404,0,0
10.96,6.7432694,-7.311017,-0.09965925,1003.4515,5.715504208978476,1003.4532523277676,0,0
10.98,6.6237936,-7.444481,-0.13753273,1003.47186,5.714416826871673,1003.4533281162444,0,0
11.0,6.714632000000001,-7.139422,-0.2511564,1003.4589,5.713261589856553,1003.4534151417242,0,0
11.02,6.604717,-7.3443837,-0.22274809,1003.4641,5.7122080095174965,1003.4535305029281,0,0
11.04,6.5760503,-7.315785000000001,-0.13279334,1003.4692,5.711160650377519,1003.4536888462767,0,0
11.06,6.571295299999999,-7.287186,-0.052306134,1003.4663,5.71007019715045,1003.4538741586135,0,0
11.08,6.6573505000000015,-7.282420599999999,-0.12332049,1003.45593,5.709059803898767,1003.4540453016232,0,0
11.1,6.6478085999999985,-7.3157864,-0.18960054,1003.471,5.708163861690013,1003.4542575605008,0,0
11.12,6.6382685,-7.2490554,-0.19906762,1003.4463,5.707256852003223,1003.4544164652267,0,0
11.14,6.686083999999999,-7.182324,-0.23694117,1003.4381,5.706310596426059,1003.4544981341684,0,0
11.16,6.6574240000000025,-7.272889,-0.20379864,1003.45105,5.705429411790439,1003.4545578835615,0,0
11.18,6.6000857,-7.239523399999999,-0.104374394,1003.4456,5.704474094017181,1003.4545784297452,0,0
11.2,6.695696000000001,-7.2490573,-0.08543545,1003.4481,5.703605285212728,1003.4545732620056,0,0
11.22,6.638356699999999,-7.3062559999999985,-0.12330906,1003.443,5.702824033195468,1003.4545270320476,0,0
11.24,6.772216,-7.096528,-0.21326044,1003.42554,5.7019967500004025,1003.4543818299416,0,0
11.26,6.7770133,-7.1680274000000015,-0.14697716,1003.4605,5.701243845652961,1003.4542755547728,0,0
11.28,6.767472,-7.2061600000000015,-0.118569106,1003.44104,5.7006026582723655,1003.4541340020364,0,0
11.3,6.800949,-7.2299933,-0.052285697,1003.4631,5.700145049875246,1003.4540412036313,0,0
11.32,6.820087400000001,-7.101297,-0.023877535,1003.4606,5.69968459185796,1003.4539828186273,0,0
11.34,6.6946898,-7.2442656,-0.052386712,1003.43787,5.699261069428427,1003.4538732234907,0,0
11.36,6.6659822,-7.191833,-0.023982879,1003.438,5.6987509697028695,1003.4537192416237,0,0
11.38,6.7185335,-7.1537,-0.17075187,1003.4479,5.698185794426537,1003.4535622339757,0,0
11.4,6.6133533,-7.1918316,-0.042925257,1003.4579,5.697480332813842,1003.453439117976,0,0
11.42,6.5559699999999985,-7.277628999999999,-0.033458706,1003.46014,5.696704977712628,1003.4533544558541,0,0
11.44,6.618081,-7.2585625999999985,-0.15655568,1003.45776,5.695930458391664,1003.4532955083616,0,0
11.46,6.6228365999999985,-7.315760000000001,-0.057135466,1003.4277,5.695251854540957,1003.4531512785272,0,0
11.48,6.7518654000000025,-7.291926400000001,-0.12815382,1003.4577,5.694806381155328,1003.4530402124433,0,0
11.5,6.7566156,-7.1632289999999985,-0.31753278,1003.46277,5.6943887324868445,1003.4529771016864,0,0
11.52,6.5510607000000025,-7.258559700000001,-0.17550273,1003.4547,5.6938457046813165,1003.4529275394556,0,0
11.54,6.6036104999999985,-7.301458,-0.18023974,1003.4726,5.6933333834483575,1003.4529545671263,0,0
11.56,6.7421994000000005,-7.167994,-0.21338284,1003.4677,5.692842805308953,1003.4530315323344,0,0
11.58,6.6513553,-7.1489267000000005,0.047006815999999986,1003.4529,5.692210699941407,1003.4530990652762,0,0
11.6,6.660889,-7.1918254,0.051738925,1003.4423,5.691534694168682,1003.4531198607484,0,0
11.62,6.7277822,-7.2204237,0.013861414,1003.4748,5.690960245357133,1003.4532162841288,0,0
11.64,6.6751776,-7.306221000000002,0.065937415,1003.46234,5.690534956669969,1003.4533343292053,0,0
11.66,6.6894917000000005,-7.2966875999999985,0.013856702,1003.4599,5.690248029574245,1003.4534622702491,0,0
11.68,6.6894655,-7.291919999999997,-0.21813156,1003.44476,5.690082028018468,1003.4535439907828,0,0
11.7,6.5699434000000005,-7.368184599999997,-0.16132120000000005,1003.43744,5.689972140567657,1003.4535582246796,0,0
11.72,6.660731299999999,-7.167989,-0.1849958,1003.44434,5.689732432538407,1003.453537616142,0,0
11.74,6.7276244000000025,-7.2585526,-0.13291962,1003.4469,5.689609648314374,1003.45349551102,0,0
11.76,6.6654615,-7.258552000000001,-0.00035857037000000004,1003.45685,5.689501154109482,1003.4534703830948,0,0
11.78,6.6510954,-7.2299523,0.056451835,1003.4594,5.689342042769643,1003.4534695266805,0,0
11.8,6.6701880000000005,-6.9820905,-0.033504266,1003.46686,5.688789846814212,1003.4535169756572,0,0
11.82,6.751417599999999,-7.1441526,0.089587815,1003.46655,5.688253520722054,1003.4536058204601,0,0
11.84,6.8047924,-7.220436999999999,0.03284791,1003.42377,5.687923866396979,1003.4535769147743,0,0
11.86,6.7522216,-7.287169500000001,-0.08551155,1003.439,5.687805402693231,1003.4534988968177,0,0
11.88,6.6614113,-7.3062353,-0.1375895,1003.45154,5.687776646434653,1003.4534229081224,0,0
11.9,6.5419226,-7.320535,-0.16599537,1003.4488,5.687683837855383,1003.4533391220418,0,0
11.92,6.5562687,-7.296703,-0.08550985,1003.45654,5.687515633690762,1003.4532766118216,0,0
11.94,6.503697,-7.363435000000001,0.042319644,1003.45905,5.687311711646878,1003.4532421619887,0,0
11.96,6.613639,-7.28717,-0.019227058,1003.43896,5.68711114364419,1003.4531603063333,0,0
11.98,6.532388,-7.406333999999997,0.009179927,1003.4585,5.686986211381296,1003.4531072015732,0,0
12.0,6.4463573,-7.4444666,-0.00975721,1003.461,5.686870573222508,1003.4530886922817,0,0
12.02,6.656675999999999,-7.2395043,-0.052366186,1003.4389,5.6867370369795225,1003.4530212581793,0,0
12.04,6.785736,-7.220439,0.013916045,1003.4638,5.686741512458072,1003.4530004768767,0,0
12.06,6.7379436,-7.1489406,-0.00975547,1003.44324,5.686691612498709,1003.4529469768013,0,0
12.08,6.694933,-7.263337599999999,0.032854802999999995,1003.4635,5.686706931067604,1003.4529376950184,0,0
12.1,6.527645,-7.3968015,0.15121545,1003.4838,5.686755231932375,1003.4530405979324,0,0
12.12,6.6375866,-7.3014708,0.18909122,1003.46075,5.686838726088253,1003.4531592767952,0,0
12.14,6.632814,-7.268105,0.17015424,1003.4513,5.686894359005293,1003.4532574480417,0,0
12.16,6.6041408,-7.3014708,0.17962357,1003.46326,5.686936774782637,1003.453380201342,0,0
12.18,6.494212,-7.4492345,0.065998465,1003.4737,5.687042348047742,1003.4535618174333,0,0
12.2,6.542016,-7.444468,-0.07129869999999999,1003.44574,5.687261407638001,1003.4536941348688,0,0
12.22,6.585041499999999,-7.411102,-0.16125177,1003.4557,5.687589395072781,1003.4538182716693,0,0
12.24,6.723661,-7.2633386,0.018656109,1003.4357,5.687975822782966,1003.4538627331683,0,0
12.26,6.7045483999999975,-7.2967052,0.17962646,1003.47064,5.688439892579979,1003.4539624175096,0,0
12.28,6.4416647000000005,-7.35867,-0.113906115,1003.45825,5.688699933951051,1003.4540659338902,0,0
12.3,6.494249,-7.3443704,0.09440827,1003.4655,5.68882820569858,1003.4541985636024,0,0
12.32,6.5563927,-7.3634377,0.13228412,1003.45074,5.688955853881807,1003.4543033043867,0,0
12.34,6.576211,-7.363455,0.05186321,1003.4653,5.689108372263155,1003.454435441448,0,0
12.36,6.604926,-7.2347584,-0.08543119,1003.473,5.689124272722144,1003.4546190301663,0,0
12.38,6.5380435,-7.3825226,-0.08542806,1003.448,5.689154825717836,1003.4547574206492,0,0
12.4,6.5046163,-7.353924,-0.05228428,1003.4479,5.6891071779423275,1003.4548550157657,0,0
12.42,6.5524487,-7.3443913,-0.019140325,1003.4577,5.6890415666506255,1003.4549514927536,0,0
12.44,6.633739500000001,-7.263361,0.0140036605,1003.4655,5.688948497877567,1003.4550747144464,0,0
12.46,6.6289940000000005,-7.1489644,-0.06647812,1003.4479,5.688650314455384,1003.455157764162,0,0
12.48,6.786760000000001,-7.1013,-0.06647517,1003.46783,5.688324596481391,1003.4552767669397,0,0
12.5,7.035344,-7.191865400000001,-0.19903539,1003.44745,5.6884738226356415,1003.4553537414332,0,0
12.52,6.8728630000000015,-7.249064999999999,-0.08067231,1003.45026,5.688890124049385,1003.4554034186264,0,0
12.54,6.5717690000000015,-7.434961,-0.14221641,1003.4653,5.689404740288197,1003.4554829410872,0,0
12.56,6.3901687,-7.225233,-0.58724755,1003.47,5.689462792301812,1003.4556054685457,0,0
12.58,6.7295713,-7.344398,-0.4499465,1003.48535,5.689757285283494,1003.4558208141214,0,0
12.6,7.025950999999999,-7.4635630000000015,-0.15641046,1003.4825,5.690841712850442,1003.4561071385408,0,0
12.62,7.083341000000001,-7.1871033,-0.279502,1003.4446,5.6922946653166235,1003.4563187090996,0,0
12.64,7.0738176999999975,-6.8677449999999975,-0.24635787,1003.44684,5.6935846968018495,1003.4564715294922,0,0
12.66,6.638889999999999,-7.1299066999999985,-0.17060423,1003.47034,5.694479547443278,1003.4566564880852,0,0
12.68,6.395154,-6.8915796,-0.6535104,1003.44714,5.6943583172552525,1003.4567856581406,0,0
12.7,6.3282666,-7.206173,-0.49727225,1003.46216,5.693711570496233,1003.4569191404324,0,0
12.72,6.0462947,-7.6399307,-0.118516594,1003.45734,5.6928947051120184,1003.4570386004798,0,0
12.74,6.313994,-7.549367,-0.056966599999999985,1003.46716,5.692134476512245,1003.457180592416,0,0
12.76,6.4144063,-7.4349704,-0.57774776,1003.46967,5.691415883614902,1003.457351018358,0,0
12.78,6.557834,-7.168044,-0.6629639,1003.46967,5.690531561829481,1003.4575459550543,0,0
12.8,6.7012606,-7.048881,-0.5019912,1003.4673,5.6895061251383146,1003.457753315681,0,0
12.82,6.6773979999999975,-7.048882000000001,-0.15164195,1003.4443,5.688301104159048,1003.4578881075943,0,0
12.84,6.6395063,-7.210953,-0.099531755,1003.4443,5.687132766789516,1003.4579582925412,0,0
12.86,6.64433,-7.25862,0.18453655,1003.4696,5.68608335741092,1003.4580622181076,0,0
12.88,6.8355694000000025,-6.977394,0.2366193,1003.4446,5.684994052528112,1003.4581055827526,0,0
12.9,7.1176243,-6.753367,0.066185035,1003.4468,5.683959166644289,1003.4581031996553,0,0
12.92,7.4474807,-6.6389710000000015,0.023579944,1003.45917,5.68331939061712,1003.4581049344316,0,0
12.94,7.399727,-6.858233500000001,0.27924183,1003.45416,5.6832721085532825,1003.458092265516,0,0
12.96,6.9600285999999985,-7.249092,0.40234038,1003.4568,5.683674661856282,1003.4580764191064,0,0
12.98,6.8596992,-7.3444247,0.3076566,1003.4692,5.684466780318776,1003.45810246211,0,0
13.0,7.1465435,-6.8916035,-0.047418673,1003.45917,5.685338031343282,1003.4581293168443,0,0
13.02,7.1322392999999975,-7.0822660000000015,-0.16577561,1003.4642,5.686534593113929,1003.4581749001468,0,0
13.04,7.0462503,-7.101334,0.14196502,1003.4636,5.687915219281295,1003.4582347079124,0,0
13.06,6.45361,-7.740054,0.05675082,1003.46625,5.6896048242028,1003.4583164091057,0,0
13.08,6.601822,-7.1156354,-0.31252924,1003.4717,5.690800237109366,1003.4584367812074,0,0
13.1,6.1047754,-7.720989,0.14197844,1003.454,5.691829758059101,1003.458527169584,0,0
13.12,5.951871400000001,-7.4778967,-0.42141113,1003.4515,5.692132819383263,1003.4585817389432,0,0
13.14,6.233924,-7.573228999999999,-0.4024695,1003.4792,5.69231361142977,1003.4587041821686,0,0
13.16,6.410826,-7.435,-0.33618325,1003.4742,5.692397710609927,1003.4588681579468,0,0
13.18,6.41087,-7.4493003,-0.06631820000000001,1003.45374,5.692407152876338,1003.4589945855755,0,0
13.2,6.5256324,-7.334903999999999,0.09939027,1003.4842,5.692329313517847,1003.4591970365207,0,0
13.22,6.5352244000000015,-7.168075599999999,0.08519,1003.4636,5.691930047946363,1003.4593917728439,0,0
13.24,6.597422999999999,-6.9011497,-0.0521021,1003.456,5.690930394767383,1003.4595516314772,0,0
13.26,6.7169623,-7.0012490000000005,0.27457586,1003.46625,5.689733725026432,1003.4597169966922,0,0
13.28,6.927318,-7.0393824999999985,0.06153167,1003.4687,5.6887211391383365,1003.459895452208,0,0
13.3,7.2954125,-6.777222599999999,0.18463072,1003.4588,5.68804706161289,1003.4600491918736,0,0
13.32,7.132942699999999,-7.125183,0.26038525,1003.4506,5.687936547531755,1003.4601510191516,0,0
13.34,7.121556299999999,-7.1489699999999985,0.19393632,1003.4588,5.688339542244147,1003.4602361300656,0,0
13.36,7.0880766,-7.2157016,0.18920001,1003.4455,5.689244295174482,1003.4602582840007,0,0
13.38,6.8347125,-7.268133,-0.028585788,1003.4658,5.690299191784961,1003.4602978093956,0,0
13.4,6.806014,-7.1585016,-0.18482292,1003.4481,5.691279914795543,1003.4602888219208,0,0
13.42,6.7295046,-7.268132,-0.061731424000000014,1003.47833,5.692245739172126,1003.4603458288287,0,0
13.44,6.86809,-7.215698700000001,-0.08067159,1003.4607,5.693312897068084,1003.4603974751492,0,0
13.46,6.9206405,-7.048869,-0.13748698,1003.46075,5.6942936669322535,1003.4604443789273,0,0
13.48,6.6099253,-7.3348618,0.108699486,1003.44775,5.69518430460022,1003.4604401233412,0,0
13.5,6.566878999999999,-7.5874887000000015,0.25546348,1003.4607,5.696331961859128,1003.4604372986612,0,0
13.52,6.5811906,-7.5255227,0.37855545,1003.4552,5.697633079600491,1003.4604159484993,0,0
13.54,6.628961,-7.439724000000001,0.4827098,1003.45575,5.6990065208332625,1003.4603802860814,0,0
13.56,6.533339,-7.630385,0.3785505,1003.4656,5.7005971754105484,1003.460367565739,0,0
13.58,6.4281587999999985,-7.6065516,0.29332897,1003.4501,5.702188810969258,1003.4603193628078,0,0
13.6,6.5524054000000005,-7.23476,0.004527744,1003.4552,5.703355016163527,1003.4602583409917,0,0
13.62,6.5571556,-7.1108284,-0.00020940602,1003.4527,5.703957623809573,1003.4601772120874,0,0
13.64,6.561908,-7.0917616,-0.4026363,1003.46277,5.704055088425669,1003.4601148606239,0,0
13.66,6.494964,-7.3396215,-0.13751207,1003.4827,5.703979080634777,1003.4601410733728,0,0
13.68,6.413679599999999,-7.363454300000001,-0.42157888,1003.4424,5.703692727939582,1003.4601003670937,0,0
13.7,6.6335225000000015,-7.253823,-0.5872856,1003.44257,5.703373341431585,1003.4600012897037,0,0
13.72,6.7051940000000005,-7.172789999999999,-0.4925999,1003.4752,5.702992615985342,1003.4599684602788,0,0
13.74,6.686046000000001,-7.229988599999999,-0.16119416,1003.45483,5.702596103724844,1003.4599209537422,0,0
13.76,6.5378440000000015,-7.315785400000001,0.14653958,1003.4675,5.7021113441425,1003.4599062615328,0,0
13.78,6.49958,-7.425416,0.018708266,1003.4594,5.7016661121511785,1003.4598914569552,0,0
13.8,6.638167,-7.291951700000001,-0.07598239,1003.4423,5.701242861097822,1003.4598150463852,0,0
13.82,6.5903406,-7.392049,-0.06651613,1003.4674,5.700928449796393,1003.4597748358387,0,0
13.84,6.4380884000000025,-7.430198700000001,-0.07118629,1003.45734,5.700562053608695,1003.4597305403908,0,0
13.86,6.3950714999999985,-7.372999999999997,-0.20374951,1003.48004,5.7000065313294375,1003.4597645149877,0,0
13.88,6.576705499999999,-7.187104,-0.37418798,1003.4445,5.6992590477145875,1003.4597395826872,0,0
13.9,6.7296605,-7.2300034,-0.3694534,1003.4424,5.698625200990048,1003.4596551300093,0,0
13.92,6.686642999999999,-7.2586026,-0.20848358,1003.4723,5.698067132743003,1003.4596260291548,0,0
13.94,6.6197276,-7.2729025,-0.12326418,1003.452,5.697503054870357,1003.4595728619348,0,0
13.96,6.6675267000000025,-7.172804400000001,-0.19901454,1003.452,5.696852427518009,1003.4594986210762,0,0
13.98,6.7726836,-7.1537384999999984,-0.15640478,1003.4719,5.696246682160065,1003.4594776668176,0,0
14.0,6.7248864,-7.210936999999999,-0.09012298,1003.4445,5.695699661035984,1003.4594052320343,0,0
14.02,6.825264,-7.1489716,-0.11379491,1003.4744,5.695256513490577,1003.4593952098244,0,0
14.04,6.806146000000001,-7.091773,0.0803158,1003.4545,5.694792706087855,1003.4593687314444,0,0
14.06,6.5289183,-7.244302999999999,0.108722344,1003.4848,5.6941525968109366,1003.4594368877147,0,0
14.08,6.6245160000000025,-7.420665299999999,0.051909592,1003.4545,5.693763581700008,1003.4594793377993,0,0
14.1,6.930424,-7.406366,-0.23688896,1003.4645,5.694010347096976,1003.4595349210778,0,0
14.12,6.672316,-7.5445967,0.04244104,1003.4395,5.6946639379683175,1003.4595119087468,0,0
14.14,6.2803736,-7.649461,0.08978519,1003.45917,5.695312742751162,1003.4594903441797,0,0
14.16,6.2994943,-7.23477,-0.1990134,1003.4466,5.6953258536499725,1003.4594248844893,0,0
14.18,6.3472934,-7.134672599999999,-0.3268422,1003.46674,5.694694012941812,1003.4593933787227,0,0
14.2,6.5002484,-7.473098299999997,-0.50674945,1003.44403,5.694248000320815,1003.4593102320636,0,0
14.22,6.8539553,-7.363467,-0.28423232,1003.45135,5.694271626666608,1003.4592081068404,0,0
14.24,7.2363405,-6.843912599999999,-0.32684186,1003.4415,5.694505965148455,1003.4590541198088,0,0
14.26,7.360616999999999,-6.6961493,-0.19427843,1003.45917,5.694898957969519,1003.458918474036,0,0
14.28,6.414217,-7.5684295,0.20814610000000008,1003.4491,5.695369211748997,1003.4587632709247,0,0
14.3,5.4630375,-8.302479,0.41646004,1003.4563,5.695956536093577,1003.4586172656803,0,0
14.32,5.6255517,-7.916387599999997,0.37385052,1003.45154,5.696170275311303,1003.45846277729,0,0
14.34,6.2617083,-7.296746700000001,0.33601576,1003.44635,5.6958498783228775,1003.4582826653498,0,0
14.36,6.9309005999999975,-7.1156178,-0.43095598,1003.44135,5.6957270040455725,1003.4580625608444,0,0
14.38,7.255946000000002,-7.053653,-0.6345337,1003.45917,5.696187954579786,1003.457872063284,0,0
14.4,7.1890473,-6.8915906000000025,-0.42148376,1003.4765,5.696806347828263,1003.457770800212,0,0
14.42,6.5581303,-7.2443165999999986,-0.18002751,1003.4289,5.697158127823235,1003.4575773892807,0,0
14.44,6.2474647,-7.5064774,0.29341490000000003,1003.4438,5.697266947448782,1003.4573568927808,0,0
14.46,6.2427015,-7.6733074,0.4543862,1003.4487,5.697434681864937,1003.4571308972592,0,0
14.48,6.4052352999999975,-7.5350776,0.2839495,1003.4536,5.6976357713587475,1003.4569184963864,1,2
14.5,6.534308,-7.730507000000001,0.6200938,1003.4211,5.698379899759263,1003.456601872388,1,2
14.52,6.410051,-7.616110000000001,0.77159643,1003.45886,5.699275534076681,1003.4563302326824,1,2
14.54,7.581122,-6.17661,0.99411523,1003.4737,5.699979028979215,1003.4561527430008,1,2
14.56,9.942365,-5.04217,0.61063015,1003.4264,5.703285774675818,1003.4558888032435,1,2
14.58,11.983359,-3.4310741,-0.22262333,1003.436,5.7115876787456274,1003.4555839863824,1,2
14.6,11.902121,-3.941096,-0.50195163,1003.44366,5.724441422134047,1003.4552717238524,1,2
14.62,11.830441,-5.032638,1.1408885,1003.4487,5.742017515805577,1003.4549721504757,1,2
14.64,10.616393,-6.281477,1.1550936,1003.484,5.76262752128608,1003.4548119476981,1,2
14.66,9.354543,-7.268155,0.76213974,1003.4309,5.7847659276228205,1003.4545843095116,1,2
14.68,7.982757,-7.983138,0.92784566,1003.45593,5.8070463577936176,1003.4543880128964,1,2
14.7,5.3060846,-9.136645,0.5254228,1003.4635,5.827815393180566,1003.4542473683605,1,2
14.72,0.8226479999999999,-11.295897,-0.8996312,1003.45593,5.84880118363496,1003.4541291523224,1,2
14.74,-0.4487608,-11.958448,-2.0169490000000003,1003.4534,5.871512014154787,1003.4540220716827,1,2
14.76,0.80834544,-12.020413,-0.8664870000000001,1003.4434,5.89554692914963,1003.4538892157716,1,2
14.78,2.0033157,-12.292109,0.14194289999999998,1003.42316,5.9214476377309,1003.4536611991116,1,2
14.8,2.6199281,-12.587635,-1.5813787,1003.4432,5.949941255005905,1003.4534220632744,1,2
14.82,4.8234353,-12.644834,-2.3152099,1003.4184,5.982236047917137,1003.4530846834205,1,2
14.84,7.991898,-12.659121,-1.4346608,1003.41077,6.02049437784582,1003.4526342417212,1,2
14.86,10.563429,-11.753474,-0.019074034,1003.45557,6.065471296836113,1003.4522468001658,1,2
14.88,10.945809,-11.219621,0.51117885,1003.48096,6.115973407319037,1003.4520078243266,1,2
14.9,11.098761,-10.74773,1.1881984,1003.45593,6.1707861915563615,1003.4518107851076,1,2
14.92,13.029797,-7.9497614,2.1114073,1003.4882,6.229030610397606,1003.4517676824272,1,2
14.94,12.537474,-6.4053974,2.4333463,1003.49066,6.287767308065286,1003.4518696092424,1,2
14.96,12.236341,-4.4272766,3.0014744,1003.45557,6.344787509534839,1003.4519729931827,1,2
14.98,11.428552,-4.1222167,2.546971,1003.45325,6.398130010961226,1003.4520689404567,1,2
15.0,12.456205,-3.5549958,1.3018223999999998,1003.4357,6.449289294837898,1003.4520947912828,1,2
15.02,14.415920000000002,-1.9724991000000005,0.3265348,1003.4281,6.501525918413006,1003.452031251824,1,2
15.04,14.286862,-3.9267871,0.41175374,1003.44574,6.555084491323298,1003.4519524598512,1,2
15.06,13.813657999999998,-8.636146,0.18450195,1003.4858,6.6126731435268935,1003.4520046904092,1,2
15.08,15.013386,-12.349293,0.6295356,1003.4627,6.6801789518379655,1003.4520893444444,1,2
15.1,15.266711,-14.537143,0.13242279999999998,1003.4904,6.759594966823378,1003.4523020631101,1,2
15.12,14.492378,-16.534328,-0.53986293,1003.4858,6.8511445950121725,1003.4526106138956,1,2
15.14,11.3424835,-17.149214,-1.0464448,1003.48285,6.950163908038026,1003.45299211116,1,2
15.16,8.737489,-15.890842999999998,-0.8760064000000001,1003.47284,7.050372728256963,1003.4534006545424,1,2
15.18,5.611492,-12.0776,-0.46411353,1003.50073,7.1412327213753795,1003.4539320291188,1,2
15.2,3.6039708,-9.985081,-0.73870933,1003.47034,7.217925590231677,1003.4544606203896,1,2
15.22,1.4865131,-8.469315,-1.3068385,1003.45294,7.277784331738622,1003.4549222094032,1,2
15.24,-9.775162e-06,-7.863962,-1.6335127,1003.4452,7.321169333285053,1003.4552950695016,1,2
15.26,-0.5496908,-8.059391,-1.586169,1003.43286,7.350258765672921,1003.4555437624347,1,2
15.28,0.5687795,-8.907838,-1.4678091,1003.44824,7.368302719882207,1003.4557372139653,1,2
15.3,3.0447142000000005,-10.471267999999998,-0.5540694,1003.4579,7.380415199530157,1003.4559159337678,1,2
15.32,5.1287055,-11.934602,0.58692193,1003.45306,7.391574904501808,1003.4560635692231,1,2
15.34,7.241217599999999,-13.259701000000002,2.0924478,1003.4472,7.406527300287185,1003.4561621110628,1,2
15.36,11.7629,-12.444619,2.258151,1003.42505,7.4289756159556735,1003.456137179032,1,2
15.38,12.580236,-13.683924,2.7410593,1003.4579,7.461118783241735,1003.4561214952456,1,2
15.4,14.066747,-14.236844,3.0440605,1003.4749,7.504737225924416,1003.4561752396687,1,2
15.42,15.586717000000002,-11.252978,2.0119593,1003.4345,7.5564366988767055,1003.4561446973782,1,2
15.44,14.033268,-8.13565,3.2760444,1003.4652,7.609310656861595,1003.4561503092998,1,2
15.46,12.991262,-6.7056830000000005,2.1066456,1003.4627,7.659337133944045,1003.45617884688,1,2
15.48,10.520092,-5.9811664,-0.58723176,1003.45996,7.7011490400720275,1003.4562176748374,1,2
15.5,10.042101,-4.274739,-1.1411582,1003.457,7.733178058665626,1003.4562547995912,1,2
15.52,10.563088,-2.987768,-0.8712979,1003.4445,7.756527527463704,1003.4562452857448,1,2
15.54,11.76759,-2.325216,-1.0038621,1003.47943,7.774254155035777,1003.4563203442816,1,2
15.56,14.152703,-1.9581914,-0.00016923249,1003.48755,7.7916261618167155,1003.4564990927652,1,2
15.58,14.678471,-4.1412745000000015,1.675809,1003.48737,7.810816605189757,1003.4567681701916,1,2
15.6,12.216862,-8.674269,2.3291562000000003,1003.4973,7.831170254532948,1003.4571518415926,1,2
15.62,11.891825,-12.191988,2.163451,1003.49976,7.856645566457522,1003.4576442430127,1,2
15.64,11.781879,-12.158622,3.6216466,1003.5044,7.886857290327983,1003.458247649633,1,2
15.66,11.777091,-12.959404,5.1366553,1003.5268,7.923089816555714,1003.4590276081838,1,2
15.68,10.868917,-13.817384,7.527528299999997,1003.5244,7.96632968469996,1003.4599521201696,1,2
15.7,9.229436,-12.930803,6.770022999999999,1003.5367,8.011750768671208,1003.461045311328,1,2
15.72,8.8374815,-13.62672,4.464367,1003.50507,8.058052059086856,1003.4621697439146,1,2
15.74,9.081242,-12.010858,6.4480815,1003.51483,8.104000274238063,1003.4633528694701,1,2
15.76,7.312703,-11.524668,6.7179418,1003.4642,8.147044589438844,1003.4644013288807,1,2
15.78,5.69234,-10.380695,6.1498127,1003.4495,8.18347789300131,1003.4652741028322,1,2
15.8,4.353985,-9.3034525,5.3970413,1003.4748,8.210327105303545,1003.4660795791252,1,2
15.82,3.7899582,-8.183311999999999,4.511707,1003.48694,8.225452970776631,1003.4668663954933,1,2
15.84,3.3415668,-7.411151400000001,3.2524383,1003.4493,8.2274058026818,1003.467498387412,1,2
15.86,3.962968,-7.8830414000000015,3.3092535000000005,1003.41644,8.21909862894407,1003.4678730052768,1,2
15.88,4.1398454,-7.506483999999999,3.602789,1003.42645,8.201496627758068,1003.4680548948033,1,2
15.9,4.957218,-6.753368400000001,3.2619142999999995,1003.4393,8.175103704639637,1003.4681120947673,1,2
15.92,5.4686837,-9.289178,2.608569,1003.40393,8.145403788087702,1003.4679315811144,1,2
15.94,6.8978705,-12.2921095,1.1409056,1003.3865,8.11922976595355,1003.4674789255588,1,2
15.96,9.378616,-11.720122,-2.4714427000000003,1003.40686,8.098492277502041,1003.4668607309776,1,2
15.98,11.347921,-9.918365,-4.564047,1003.38385,8.083744363551327,1003.4660156556143,1,2
16.0,10.846067,-8.693361,-4.7013426,1003.389,8.072110116379548,1003.4649916906633,1,2
16.02,9.187502,-8.607563,-3.4183164,1003.4593,8.05988507372563,1003.4640664251456,1,2
16.04,7.404659700000002,-8.717195,-3.404111,1003.4215,8.044870581611915,1003.4630956214039,1,2
16.06,6.893248599999999,-8.08801,-3.7213132,1003.4839,8.026045099400067,1003.462312714981,1,2
16.08,7.4572906,-7.296761999999997,-3.1531825,1003.49677,8.00317107633083,1003.4617449850915,1,2
16.099999999999998,7.514675,-5.5236034000000025,-1.8464847,1003.4964,7.97390886635965,1003.4613680970148,1,2
16.12,7.4955807,-4.9849834,0.3266095,1003.45844,7.938069066710637,1003.4610245375612,1,2
16.14,7.247057400000001,-5.2995763,2.4050155,1003.4964,7.897142418805494,1003.4608483200923,1,2
16.16,7.729844,-7.501726,3.5886192,1003.51117,7.856147965226707,1003.4608737723848,1,2
16.18,7.4048443,-9.13189,3.5696843,1003.45825,7.817180795164561,1003.4608868164496,1,2
16.2,7.14198,-10.080434,3.6264992,1003.4614,7.781368456134317,1003.4609001896463,1,2
16.22,7.2232633,-9.865941,3.233546,1003.4535,7.747999812338199,1003.4608853655203,1,2
16.24,7.008199,-10.056603,3.6359727,1003.48364,7.717196756223682,1003.4609541836064,1,2
16.259999999999998,6.4824457,-9.966039,3.2761605,1003.4815,7.6878287672235555,1003.4610889562064,1,2
16.28,6.616307000000001,-9.374987,2.7127688,1003.47614,7.658709926814892,1003.4612622250336,1,2
16.3,6.625893,-9.093761,2.48552,1003.4711,7.629359019424808,1003.4614507413588,1,2
16.32,6.36303,-8.969830499999997,1.443953,1003.4511,7.5990130180486775,1003.4615800517148,1,2
16.34,5.9365783,-8.431185000000001,0.3596783,1003.43097,7.566288010514691,1003.4615841141597,1,2
16.36,5.8839836,-7.6304026,-0.5493289000000001,1003.45325,7.530193243419171,1003.4615577009247,1,2
16.38,6.0034623,-7.30151,-0.918614,1003.4387,7.490930842365875,1003.4614520744667,1,2
16.4,5.8839517,-7.4588056,-0.93755305,1003.4459,7.449113044995793,1003.4613027554608,1,2
16.419999999999998,5.6688433,-7.997425999999999,-0.3126132,1003.4484,7.405731097469362,1003.4611243672673,1,2
16.44,5.4967555999999975,-8.583712,-0.10430071,1003.4511,7.361924751438925,1003.4609306557373,1,2
16.46,5.0044193,-8.22622,-0.34102243,1003.4609,7.316740288466371,1003.4607593818688,1,2
16.48,6.29017,-7.325340700000001,-0.5588065999999999,1003.4484,7.270576996963864,1003.4605635505037,1,2
16.5,6.2184577,-6.824852000000001,-1.2121559,1003.46826,7.222968087906097,1003.4604182211276,1,2
16.52,7.336914,-5.7714424000000015,-0.93282753,1003.4711,7.1743969731043125,1003.4603282624953,1,2
16.54,8.053869,-6.2909966,-1.9554604,1003.45825,7.1272782176400264,1003.4602412933023,1,2
16.56,8.818622,-6.710453,-2.1732447,1003.40027,7.083456969535952,1003.4599485506676,1,2
16.58,10.056575,-5.5712457,-2.2063868,1003.42053,7.043567526778947,1003.4595479764937,1,2
16.599999999999998,9.894045,-4.92776,-2.0927627,1003.4686,7.006346328256236,1003.4592266164377,1,2
16.62,9.071902,-5.251885400000001,-1.9459976000000003,1003.47034,6.970394442535554,1003.4589826708733,0,0
16.64,7.9151729999999985,-5.5617113,-1.9270614,1003.456,6.934035629400093,1003.4587563829573,0,0
16.66,7.422838700000002,-6.1622972,-1.3873408,1003.4709,6.897204482191514,1003.458600151976,0,0
16.68,7.1264744,-6.858214,-0.94704264,1003.5035,6.860481560484784,1003.4586237457338,0,0
16.7,7.06432,-7.0298089999999975,-0.57776046,1003.47546,6.824084349110709,1003.4587052036937,0,0
16.72,7.40367,-6.3481917,-0.4404643,1003.4858,6.787648201164267,1003.4588747212136,0,0
16.74,7.351076600000002,-6.567453,-0.13746378,1003.4861,6.751508051427248,1003.459122517898,0,0
16.759999999999998,7.1646466,-7.0155087,-0.22268467,1003.478,6.7161159643622765,1003.4594094299837,0,0
16.78,7.069035,-7.196637,-0.48781276,1003.4577,6.681657008027109,1003.4596567915547,0,0
16.8,7.011661,-7.120372,-0.5588304000000001,1003.4652,6.647957936588103,1003.4598953157894,0,0
16.82,6.90649,-7.001208,-0.47834688,1003.44507,6.614713485899126,1003.4600527046664,0,0
16.84,6.9746795,-7.0393715,-0.44508958,1003.4879,6.582143069801448,1003.4602920237407,0,0
16.86,7.1372304,-7.4874287,-0.49243015,1003.4552,6.551192415745518,1003.46048515479,0,0
16.88,7.1946263,-7.7543570000000015,-0.26517529999999995,1003.4627,6.522252856602616,1003.4606637788277,0,0
16.9,7.2137785,-8.040351,-0.08526485,1003.4652,6.495654240694022,1003.4608379414234,0,0
16.919999999999998,6.5255203,-7.5160313,-0.14207467,1003.4627,6.469457519318845,1003.460998534904,0,0
16.94,6.18141,-6.4912214000000015,-0.5018862000000001,1003.4652,6.441679683598571,1003.4611555605777,0,0
16.96,6.339179,-6.319627,-0.1610058,1003.46747,6.412552741969582,1003.4613170404448,0,0
16.98,6.3678927000000005,-6.4483247000000015,0.037842456,1003.45746,6.382567437457293,1003.46144583871,0,0
17.0,6.673835799999999,-6.6437545,-0.39298514,1003.4702,6.352685045883319,1003.4615911598378,0,0
17.02,6.750348599999999,-7.096578,-0.16573046,1003.45496,6.323771316154637,1003.4616956934108,0,0
17.04,6.788622,-7.091812599999999,0.29351005,1003.46747,6.295871540511928,1003.4618088467796,0,0
17.06,6.90815,-7.1299452999999975,-0.26041225,1003.4648,6.269195536028571,1003.461919597248,0,0
17.08,6.81737,-7.668566999999999,-0.6628334,1003.4555,6.244426581501836,1003.4619943458116,0,0
17.099999999999998,7.171117999999999,-6.7867555999999984,-0.047356915,1003.4476,6.2205826109423175,1003.4620085739977,0,0
17.12,7.3432119999999985,-6.7057247,-0.06155811,1003.4952,6.197789258771437,1003.4621406351564,0,0
17.14,6.8843913,-7.2062144,-0.5823389,1003.47,6.1760866203443765,1003.4622856181096,0,0
17.16,6.5689597000000015,-6.9869533,-0.09942643,1003.49225,6.154609839339418,1003.4625215968216,0,0
17.18,6.5355372,-6.8201240000000025,-0.14203282,1003.4825,6.1331117682476375,1003.4628020298636,0,0
17.2,6.846255,-6.9726553,0.07575264599999999,1003.4702,6.112347897551402,1003.4630764531917,0,0
17.22,7.080500999999999,-7.1680850000000005,-0.20830843,1003.4419,6.09294241895769,1003.4632426984127,0,0
17.24,7.0853186,-7.139487,-0.10888244,1003.4697,6.074768631032689,1003.4634128389757,0,0
17.259999999999998,6.8272424,-7.053689,-0.26984918,1003.4644,6.057252246295028,1003.4635667289572,0,0
17.28,6.765149000000001,-7.187154,-0.57758135,1003.4544,6.040518746370196,1003.4636697059204,0,0
17.3,6.7460637000000006,-7.048925,-0.41187418,1003.4644,6.0242845146499935,1003.4637633254235,0,0
17.32,6.765209,-7.0822910000000014,-0.38346532,1003.4873,6.008625040012404,1003.4639307796452,0,0
17.34,6.884047,-7.139474000000001,-0.3361814,1003.4572,5.993782818249053,1003.4640545113887,0,0
17.36,6.8983955,-7.082275,-0.27936772,1003.4673,5.9796478976038,1003.4641755245165,0,0
17.38,6.7932477,-7.1347074999999975,-0.04738121,1003.4745,5.9661077668350755,1003.4643196198276,0,0
17.4,6.8649526,-6.9583454,-0.094724566,1003.4619,5.952983152931035,1003.4644382318132,0,0
17.419999999999998,6.778923,-7.2205059999999985,-0.10419275,1003.48444,5.940541751490443,1003.4646150437288,0,0
17.44,6.8076089999999985,-7.020311,-0.25569296,1003.4594,5.928494738676901,1003.4647525005806,0,0
17.46,6.946232000000001,-7.0346107,0.009434439,1003.4468,5.9170553954646525,1003.4648093284522,0,0
17.48,6.9271183,-7.101342,-0.07578439999999999,1003.472,5.906265925739852,1003.4648854279776,0,0
17.5,6.965365400000001,-6.934513000000001,-0.6060369000000001,1003.4444,5.895937206252763,1003.4648789219774,0,0
17.52,6.841097,-7.0298443,-0.5823643000000001,1003.45886,5.886009199566377,1003.4648515051564,0,0
17.54,6.759847,-7.1490088000000025,-0.17520481,1003.4544,5.876500181418059,1003.4647896542348,0,0
17.56,6.9510460000000025,-7.096576700000001,-0.033172037,1003.47174,5.8675895399529505,1003.4647600240053,0,0
17.58,6.8793592000000015,-6.9583473,-0.30303220000000003,1003.46686,5.85894004876628,1003.464741402648,0,0
17.599999999999994,6.812448,-6.9631133,-0.13732750000000002,1003.4918,5.850454254522482,1003.4648223597673,0,0
17.62,6.7216406000000015,-7.177609,0.018908676,1003.4694,5.842333239795475,1003.4649103729828,0,0
17.64,6.755106,-7.0155463000000005,-0.009497102,1003.44635,5.834367383341129,1003.4649213241169,0,0
17.66,6.8793893,-6.920215,-0.3598423,1003.46924,5.8266200981683625,1003.4649465477723,0,0
17.68,6.8746160000000005,-6.929749,-0.26988798,1003.45166,5.819094870109218,1003.4649210038224,0,0
17.7,6.903303,-7.0727452999999985,-0.17993358,1003.4544,5.812042262835967,1003.4648605575743,0,0
17.72,6.779035,-7.1728429999999985,-0.12785448,1003.46686,5.805402104053324,1003.4648143452624,0,0
17.74,6.903318,-7.1013449999999985,-0.34563634,1003.4815,5.799232568668884,1003.4648335804204,0,0
17.759999999999994,6.9081054,-6.972648,-0.4450582,1003.46155,5.793325569706296,1003.4648387557164,0,0
17.78,6.874654,-7.0632133,-0.35983825,1003.4694,5.787750093369097,1003.4648597490876,0,0
17.8,6.855542,-7.020314,-0.28882146,1003.46686,5.782391232935552,1003.4648854997338,0,0
17.82,6.9224663,-6.967882,-0.208336,1003.46405,5.7772587958334825,1003.4649052452057,0,0
17.84,6.846060799999999,-7.0346160000000015,-0.11837573,1003.4619,5.772329353607862,1003.4649118734218,0,0
17.86,6.8890895999999975,-7.053682000000001,-0.06156194,1003.4742,5.7676867456015,1003.4649511673692,0,0
17.88,6.9225574000000005,-7.0679820000000015,-0.04735786,1003.46136,5.763384020899202,1003.4649729592984,0,0
17.9,6.9130073,-6.8916197,-0.17992032,1003.45386,5.759125996649495,1003.464952207994,0,0
17.919999999999995,6.922577,-6.9202194000000015,-0.3030139,1003.4644,5.75498517175442,1003.4649318841923,0,0
17.94,6.9178066,-6.9917173,-0.24620019,1003.4742,5.751057826028093,1003.464947291298,0,0
17.96,6.865239,-7.087049499999999,-0.11363591,1003.50433,5.747393358849942,1003.4651026827679,0,0
17.98,6.788773,-7.006017699999999,-0.24619828,1003.4893,5.743747908413727,1003.4653270970133,0,0
18.0,6.774444,-6.958353,-0.22252528,1003.4719,5.740039411174967,1003.4655490518907,0,0
18.02,6.7218757,-7.249113,-0.09942995,1003.4516,5.736647172444334,1003.4656949546336,0,0
18.04,6.798362299999999,-7.196681,-0.06628822,1003.4719,5.733575079809949,1003.4658462124607,0,0
18.06,6.8796287,-7.063217999999999,-0.17991301,1003.4541,5.730716612131403,1003.4659375775118,0,0
18.08,6.951335,-6.953587,-0.36928833,1003.4815,5.728010677927793,1003.4660743323919,0,0
18.1,6.8939886,-7.0203190000000015,-0.3266777,1003.48175,5.725460759621352,1003.4662516014073,0,0
18.12,6.874878999999999,-7.067985,-0.23672314,1003.47943,5.7230956051606885,1003.4664556785443,0,0
18.14,6.965706,-7.0346199999999985,-0.16570611,1003.48694,5.720981934970511,1003.4667097446596,0,0
18.16,7.0469713,-6.967888,-0.27459654,1003.4588,5.719124547068192,1003.4669057623987,0,0
18.18,6.922706,-6.958355,-0.07101627,1003.4865,5.717296021913596,1003.467149502928,0,0
18.2,6.8605785,-7.072752499999999,-0.16096902,1003.47174,5.7155809089469685,1003.4673813978493,0,0
18.22,6.865368400000001,-7.0393867,-0.28406265,1003.46155,5.713935203601313,1003.4675653071691,0,0
18.24,6.808021000000001,-7.020321000000001,-0.16096716,1003.46405,5.7122394690164295,1003.4677151543386,0,0
18.26,6.855829700000001,-7.0632205,-0.028402876,1003.4389,5.71063615404442,1003.467743824742,0,0
18.28,6.8606186000000005,-6.9392896,-0.14676213,1003.48694,5.7089454382573015,1003.4678382641413,0,0
18.3,6.8654094,-6.944057000000001,-0.29352772,1003.4541,5.707204502470356,1003.4678722530437,0,0
18.32,6.8701987,-7.0679874000000025,-0.24144839,1003.4867,5.705613349670241,1003.4679700655266,0,0
18.34,6.8840423,-7.0870419999999985,-0.19888411,1003.46136,5.704206743120147,1003.4680326964008,0,0
18.36,6.9413905,-6.9440446,-0.39299566,1003.46906,5.702852400820253,1003.4680917353343,0,0
18.38,6.9891770000000015,-6.929745,-0.34091812,1003.4794,5.701594444183513,1003.4681846118884,0,0
18.4,6.9796085,-6.9297447,-0.13733962,1003.46924,5.700401788764252,1003.4682704770092,0,0
18.42,6.840984,-7.015542,-0.14680935,1003.48444,5.699195264554751,1003.4684045577123,0,0
18.44,6.860092999999999,-7.087040400000001,-0.14681029999999998,1003.44653,5.698115077228651,1003.4684442830144,0,0
18.46,6.9461207,-6.9535766,-0.20835838,1003.4593,5.697080301755882,1003.4684464648718,0,0
18.48,7.056045,-7.034608,-0.13734327,1003.4915,5.696367422408441,1003.4685313854877,0,0
18.5,6.8791823,-6.977409,-0.1136722,1003.494,5.695597428546185,1003.4686981083563,0,0
18.52,6.8265944,-6.9964747,-0.21782999,1003.46136,5.69473516889394,1003.4688190074927,0,0
18.54,7.0034375,-6.9488087,-0.21783088,1003.43646,5.693982914854388,1003.4688093415429,0,0
18.56,7.0416656,-6.90591,-0.21783178,1003.4842,5.693324520838293,1003.4688562070801,0,0
18.58,6.965179400000001,-6.910675500000001,-0.26044235,1003.4664,5.692647394559785,1003.4688887751227,0,0
18.6,6.8695726,-6.929742299999999,-0.19889607,1003.4765,5.691840728952731,1003.4689449526552,0,0
18.62,6.802646000000001,-7.0584383,-0.113677636,1003.4541,5.691013721263072,1003.4689411492932,0,0
18.64,6.8360944,-7.010773,-0.20363227,1003.44653,5.690152003245786,1003.4688571085053,0,0
18.66,6.9030023,-7.0203056,-0.17996112,1003.48694,5.689373186286672,1003.4688479484739,0,0
18.68,7.0272665,-6.863009,-0.20363407,1003.4765,5.6886235466073085,1003.4688674020564,0,0
18.7,6.9029820000000015,-6.9154406,-0.28411984,1003.4917,5.687799562924982,1003.468966788594,0,0
18.72,6.793036999999999,-6.8963747,-0.26518315,1003.47156,5.686722778008767,1003.4690639420998,0,0
18.74,6.8742833,-6.7533774000000015,-0.15629275,1003.46405,5.685331040296345,1003.469131736746,0,0
18.76,6.902952,-6.9535728,0.04255133,1003.4888,5.683999286264116,1003.469262445843,0,0
18.78,7.0033183,-7.2300330000000015,0.08042571,1003.4661,5.6832821410960985,1003.469366555596,0,0
18.8,7.118023,-7.120402,-0.13262352,1003.4585,5.683116597266396,1003.469419427374,0,0
18.82,7.0319767,-7.058436,-0.37881342,1003.4767,5.683234694555143,1003.4694923549381,0,0
18.84,6.994012400000001,-7.015544,-0.49241406,1003.4795,5.683494604688518,1003.4695928212559,0,0
18.86,6.9701147,-6.939278599999999,-0.42613226,1003.4666,5.683725458647047,1003.4696708191376,0,0
18.88,6.9940147,-6.853481,-0.23202156,1003.45386,5.683826369332854,1003.4696828191176,0,0
18.9,6.89842,-6.886847,-0.06631732,1003.4664,5.683714357174286,1003.4696816041507,0,0
18.92,6.6833304999999985,-7.0965757,0.07571497599999999,1003.4742,5.683415970786573,1003.469696796831,0,0
18.94,6.7072306,-7.0346107,0.052043032,1003.4967,5.682894338785896,1003.4698074326147,0,0
18.96,6.893644,-6.867781,0.04257439,1003.45636,5.682200316057588,1003.469856779636,0,0
18.98,7.00358,-7.058443,0.0757153,1003.46136,5.6817987815414375,1003.4698697942572,0,0
19.0,7.146976,-6.9488125,-0.09945756,1003.45636,5.6817090819500775,1003.4698326587172,0,0
19.02,7.013143,-7.0346107,-0.38825613,1003.4664,5.681837356830852,1003.4697874881824,0,0
19.04,6.778933500000001,-7.010778,-0.42613125,1003.4385,5.681784945854697,1003.4696349405408,0,0
19.06,6.9079895,-6.74385,-0.35984945,1003.44617,5.68136361899043,1003.4694156756584,0,0
19.08,7.070504700000001,-6.720018,-0.0994571,1003.4586,5.680813870395711,1003.4691829967765,0,0
19.1,6.898432700000001,-6.963112,0.23668575,1003.4813,5.680255570017331,1003.4690210229274,0,0
19.12,6.8745350000000025,-6.9774117,0.19881062,1003.47864,5.679676211152303,1003.468912531152,0,0
19.14,6.9032154000000014,-6.9821787,0.014168967,1003.4764,5.679125084780028,1003.4688436227073,0,0
19.16,7.089628,-7.0155444000000005,-0.1515351,1003.4813,5.6789262226663295,1003.4688275781637,0,0
19.18,7.0418315,-6.9488125,-0.175207,1003.44885,5.678872015943365,1003.4687414819234,0,0
19.2,6.8171820000000025,-6.815349,-0.2983014,1003.48627,5.6784254175666975,1003.4687285099507,0,0
19.22,6.7359266,-7.044144,-0.39772373,1003.4964,5.677862881667619,1003.4688166652797,0,0
19.24,6.922340400000001,-6.805816,-0.03317454,1003.4842,5.677102550156312,1003.4689499393337,0,0
19.26,7.242588499999999,-6.596088000000001,0.04257607,1003.4635,5.676354144172612,1003.4690480805057,0,0
19.28,7.127875,-6.7200184000000025,-0.08998713,1003.46136,5.675619825850295,1003.4691071209558,0,0
19.3,6.9510226,-6.7200184000000025,-0.014236577,1003.4635,5.674633885579528,1003.4691391034621,0,0
19.32,6.922345,-6.9059143,0.26982784,1003.46387,5.673665085299974,1003.4691483944321,0,0
19.34,7.0376334,-7.0155587,0.033160057,1003.49365,5.673037889483418,1003.4692448097132,0,0
19.36,6.9994190000000005,-7.2491207,-0.15621397,1003.4635,5.673007485911302,1003.4693093209404,0,0
19.38,6.9468656000000015,-7.0298595,-0.18461818,1003.4636,5.673103247014573,1003.4693457695056,0,0
19.4,7.157201,-6.7772326000000005,-0.17988156,1003.4685,5.673255064792628,1003.4693749306875,0,0
19.42,6.9708066,-6.9869614,-0.33138087,1003.4379,5.673490711825478,1003.4692873877576,0,0
19.44,7.0281925,-6.9440637,-0.23669015,1003.4585,5.673815565996624,1003.4691712002284,0,0
19.46,6.9660783,-7.282489999999999,-0.32664177,1003.4485,5.674634066576762,1003.468994120607,0,0
19.48,6.994782400000001,-6.8677997999999985,-0.13252884,1003.4808,5.675305079469365,1003.4688801542192,0,0
19.5,6.8466320000000005,-6.767702000000001,-0.10412021,1003.44073,5.675477297587498,1003.468678112964,0,0
19.52,6.7414947,-6.9678983999999975,-0.023633655,1003.4711,5.6753491691457185,1003.468508308104,0,0
19.54,6.817999,-6.972666,0.07105689999999999,1003.4709,5.675074566028948,1003.4683668786203,0,0
19.56,6.956639,-6.9393,0.09946568,1003.4684,5.674825496546779,1003.468242030766,0,0
19.58,7.047478,-6.8630357,-0.042564403,1003.4839,5.6746222317688835,1003.4681880838907,0,0
19.6,6.865869,-6.9726677,-0.10410945,1003.48114,5.6743541559060535,1003.4681870433301,0,0
19.62,7.0523043,-6.820138,-0.17038904,1003.4684,5.674083782354777,1003.4681868905346,0,0
19.64,7.257860000000001,-6.615176700000001,-0.21773086,1003.4789,5.6738341784118855,1003.4682253227188,0,0
19.66,7.147947,-7.0394006,-0.40237054,1003.4635,5.674056257553066,1003.4682422702347,0,0
19.68,7.205328999999999,-6.944070299999999,-0.24139865,1003.44794,5.674630764714048,1003.4681841568868,0,0
19.7,7.353525,-6.7772417,-0.3076782,1003.45074,5.675504727976806,1003.4680700089681,0,0
19.72,7.281853999999999,-6.925005400000001,-0.3928952,1003.4585,5.676747422401018,1003.4679346958344,0,0
19.74,7.109803,-6.610413,-0.58226925,1003.4685,5.677623306967452,1003.4678171682448,0,0
19.76,7.0190115,-6.6247130000000025,-0.7290336,1003.4502,5.678075410979358,1003.4676498990608,0,0
19.78,6.9282193,-6.843975500000001,-0.45443597,1003.4527,5.678297132666718,1003.4674482803732,0,0
19.8,6.8469863,-7.072771,-0.07094698,1003.4659,5.678512180357263,1003.4672645562912,0,0
19.82,7.2341747,-6.820143700000001,-0.4875723,1003.47565,5.67894889290368,1003.4671324052904,0,0
19.84,7.1907363,-6.7105026,-0.1230617,1003.43994,5.679334909065366,1003.4669177440063,0,0
19.86,6.903953,-6.6008716,-0.3503126,1003.4381,5.6790966899155615,1003.4666243254177,0,0
19.88,6.4976764000000005,-6.801067999999999,-0.75273645,1003.4455,5.678054121952663,1003.4662890131813,0,0
19.9,6.9087460000000025,-6.70097,-0.36451465,1003.4426,5.676710702482152,1003.4659074508417,0,0
19.92,7.300696,-6.6866702999999985,-0.43553013,1003.4834,5.675684344961076,1003.4656332755353,0,0
19.94,7.4440966,-6.6580714999999975,-0.48760802,1003.458,5.675127756982841,1003.4653635344426,0,0
19.96,7.109516,-6.6056395000000006,-0.55388916,1003.4502,5.6744090008529495,1003.4650706024893,0,0
19.98,7.1190820000000015,-6.4197435,-0.49707574,1003.46783,5.673297260154906,1003.4648217016464,0,0
20.0,7.324619999999999,-6.4006777,-0.5254814999999999,1003.4477,5.672138174556084,1003.4645401347352,0,0
20.02,7.023498,-6.4578760000000015,-0.58229387,1003.453,5.6705621296028745,1003.4642497977278,0,0
20.04,7.0474043,-6.448343799999999,-0.4307923,1003.43994,5.668629841515744,1003.4639057406764,0,0
20.06,6.717604,-7.044163,-0.11832102,1003.44794,5.666748176816169,1003.4635442551988,0,0
20.08,7.047416,-6.596107000000001,-0.118320525,1003.46,5.664749520719666,1003.4632120873123,0,0
20.1,7.3533300000000015,-6.6104074000000015,-0.44499382,1003.47,5.663162655783867,1003.4629430202536,0,0
20.12,7.420253,-6.324414,-0.5444158,1003.46295,5.661669237772384,1003.4627052977277,0,0
20.14,7.587552499999997,-6.6247067,-0.5822904000000001,1003.45496,5.660938146904229,1003.4624673630316,0,0
20.16,7.5923386,-6.400678599999999,-0.48760176,1003.44507,5.660577535241875,1003.4621944934274,0,0
20.18,7.6066837,-6.3768463,-0.22720896,1003.4501,5.660517061936157,1003.4619098456687,0,0
20.2,7.319903,-6.2386165,-0.54441345,1003.4602,5.6601079058372274,1003.4616521754648,0,0
20.22,7.0426800000000025,-6.877335,-0.38817757,1003.44244,5.6598454925031625,1003.461355334241,0,0
20.24,6.7367787,-7.1013637,-0.05676866,1003.45245,5.659583412520151,1003.4610609861323,0,0
20.26,6.8753996,-7.0822973,-0.20353468,1003.4577,5.659497494263734,1003.4607888005936,0,0
20.28,7.152634,-6.734338799999999,-0.47339505,1003.4449,5.659489933962734,1003.4604910977694,0,0
20.3,7.4776672999999985,-6.3291817,-0.55861384,1003.4501,5.659504087987286,1003.4601906396016,0,0
20.32,7.601948299999999,-6.629475,-0.6106917,1003.47797,5.660145379663848,1003.4599891604623,0,0
20.34,7.3152924,-6.8773394,-0.46864742,1003.45514,5.661226974042237,1003.459793676517,0,0
20.36,7.2340474000000015,-6.6247115,-0.16091011,1003.45245,5.662192807150228,1003.4595945096677,0,0
20.38,7.382232000000001,-6.41975,-0.22719069,1003.4549,5.6630017555573975,1003.4594016256044,0,0
20.4,7.539977,-6.496015,-0.20825215,1003.4752,5.6640198553960355,1003.4592880673944,0,0
20.42,7.1241455,-6.896406699999999,0.08054760000000001,1003.47253,5.665138294378745,1003.4592353983172,0,0
20.44,7.1050377000000005,-6.839208599999999,6.378069499999999e-05,1003.46,5.666229545811891,1003.4591916124864,0,0
20.46,7.105049,-6.4054513,-0.07095127,1003.4652,5.666678798277313,1003.4591745535216,0,0
20.48,7.085940400000001,-6.510316,-0.10882552,1003.4476,5.666677227771407,1003.4591178118277,0,0
20.5,6.966457000000001,-6.6533127000000025,0.12316136,1003.4907,5.666299620137526,1003.4591813707443,0,0
20.52,6.732258,-6.872575,0.18470965,1003.44214,5.665566975274207,1003.4591761824679,0,0
20.54,6.846984,-6.7534113,-0.023603141,1003.4751,5.664512519718418,1003.4592289238506,0,0
20.56,7.0573053,-6.68668,-0.21297835,1003.45996,5.663400199500357,1003.4592781580104,0,0
20.58,7.3632244999999985,-6.70098,-0.25085256,1003.46497,5.662728657154688,1003.4593421519447,0,0
20.6,7.1816034,-7.0394053,0.023743954,1003.4574,5.6626510912233865,1003.4593917052383,0,0
20.62,7.2294116,-6.9536076,-0.2839914,1003.4799,5.66305400100039,1003.45950932039,0,0
20.64,7.4684149999999985,-6.4674196,-0.37867835,1003.46515,5.663572274312664,1003.4596335515844,0,0
20.66,7.4779854000000014,-6.486486,-0.45916224,1003.4674,5.664238646063688,1003.4597712814818,0,0
20.68,7.253344500000001,-6.6914477,-0.175097,1003.49286,5.664950627811548,1003.460012099006,0,0
20.7,7.014367,-6.867811,0.16104685,1003.4751,5.665592346619487,1003.4602792018139,0,0
20.72,7.1529927,-6.848745,0.19892314,1003.46497,5.66635051431184,1003.4605321007283,0,0
20.74,7.277278999999999,-6.7343483,0.033220015,1003.4549,5.66722994127174,1003.4607352866467,0,0
20.76,7.0382996,-6.9488435,0.019017762,1003.46747,5.668162251699562,1003.4609390666924,0,0
20.78,6.8805770000000015,-6.753415,-0.19402939,1003.4625,5.6686233804087,1003.4611247461003,0,0
20.8,7.2342935,-6.5913520000000005,-0.2177004,1003.4521,5.668970246994285,1003.4612563233393,0,0
20.82,7.215186,-6.7534156,-0.03305753,1003.46497,5.669409342577526,1003.4613859542236,0,0
20.84,7.065857,-6.7486205,-0.07577294,1003.43964,5.66969646970713,1003.4614222106379,0,0
20.86,7.1422963,-6.7676854,-0.06157319,1003.48486,5.669990495161695,1003.4615386228473,0,0
20.88,7.0323277000000015,-6.8677826,-0.1278579,1003.4621,5.670270396424999,1003.4616435056332,0,0
20.9,7.0561905,-6.834415400000001,-0.04264188,1003.4724,5.670522475918782,1003.4617749034423,0,0
20.92,7.2138886,-6.577021,-0.033176307,1003.4801,5.670621465437938,1003.4619569768944,0,0
20.94,7.304669400000001,-6.6199193,-0.018976316,1003.4674,5.6707843451391,1003.4621374518796,0,0
20.96,6.9987270000000015,-6.8296466,0.06623969,1003.45245,5.6708389029987885,1003.4622620447498,0,0
20.98,7.008253,-6.834412,-0.09473312,1003.44476,5.67081912677553,1003.4623091276487,0,0
21.0,7.161173299999999,-6.8105783,0.0046863370000000005,1003.45465,5.670927367115332,1003.4623231572388,0,0
21.02,7.017744,-7.072739,-0.028457742,1003.46497,5.671316608105174,1003.4623450824188,0,0
21.04,7.0750660000000005,-6.9106746,-0.09947707,1003.46716,5.671801018223058,1003.4623817892108,0,0
21.06,7.3283619999999985,-6.443551,-0.22257464,1003.4518,5.672098060992384,1003.4623761288907,0,0
21.08,7.0893345000000005,-6.5436482000000025,-0.10421798,1003.47455,5.671994499875888,1003.4624149533684,0,0
21.1,6.7547145,-6.8010416,0.123030394,1003.4674,5.671408381726921,1003.4624672048444,0,0
21.12,6.754681,-6.7057095,0.23191866,1003.4522,5.670262073387433,1003.4624764123114,0,0
21.14,6.993633999999999,-6.7200084,-0.028477032000000006,1003.46515,5.6689952061719975,1003.4624941729448,0,0
21.16,7.007940299999999,-7.1585307,0.13248967,1003.46674,5.668290791998568,1003.462525151218,0,0
21.18,7.046142999999999,-7.1203970000000005,-0.061624166,1003.45166,5.668083681401366,1003.4625134090758,0,0
21.2,7.1464853,-6.9440339999999985,-0.042689625,1003.4618,5.668206654199006,1003.4625004654463,0,0
21.22,7.1655674,-6.734305,-0.5161335,1003.475,5.6683762902452335,1003.4625340267792,0,0
21.24,7.0269194000000015,-6.786736,-0.54454297,1003.47723,5.6684564584944654,1003.462616587077,0,0
21.26,7.1224804000000015,-6.9058990000000025,-0.13265306,1003.4568,5.6687425750252105,1003.4626685976424,0,0
21.28,7.108098,-6.853466,0.10406333,1003.4767,5.669111691086487,1003.4627650672268,0,0
21.3,6.907309,-7.1108584000000015,0.05671583,1003.46716,5.669633963324211,1003.4628661295093,0,0
21.32,6.9741925999999985,-6.853464,0.22715133,1003.4418,5.6700134403753815,1003.462879590076,0,0
21.34,6.850711,-6.867783,0.075723015,1003.45917,5.6700993140122335,1003.4628781293084,0,0
21.36,6.865047,-7.0250793000000025,0.24616127,1003.4393,5.670184832492407,1003.4627919573088,0,0
21.38,7.0084399999999984,-6.9392809999999985,0.36452124,1003.4618,5.670360859312272,1003.4627122446836,0,0
21.4,7.1566104999999975,-6.7533854999999985,-0.028434653,1003.45667,5.670555206057173,1003.4626200585268,0,0
21.42,7.156608,-6.901149,-0.23201428,1003.4643,5.670982568216803,1003.4625446506284,0,0
21.44,7.0227710000000005,-6.924981,-0.17046723,1003.4543,5.671447138962782,1003.4624483394667,0,0
21.46,7.2569785000000016,-6.6914196,0.018908706,1003.47705,5.671957180638598,1003.4624158049023,0,0
21.48,7.1231427,-6.7819843,-0.094717175,1003.4572,5.6724321850109565,1003.4623682804636,0,0
21.5,6.7503147,-7.053678,0.099393114,1003.4667,5.672724736178324,1003.4623418820596,0,0
21.52,6.9128256,-6.944047500000001,0.23669064,1003.45917,5.6729327791473745,1003.4623071376544,0,0
21.54,7.0370984,-6.7676845000000005,0.17987762,1003.4642,5.672990159498896,1003.4622832518028,0,0
21.56,6.984518,-6.9678802,0.033110846,1003.45386,5.673123980032308,1003.4622318225577,0,0
21.58,6.817222,-7.2157399999999985,0.033110637000000005,1003.4493,5.673451565065478,1003.4621398251156,0,0
21.6,6.774201400000001,-7.1299424,-0.17520346,1003.44916,5.673761358749499,1003.4620118088052,0,0
21.62,6.9701705,-6.6818867,-0.3977207,1003.4488,5.67369538675517,1003.4618511310817,0,0
21.64,7.041865,-6.81535,-0.19887598,1003.4364,5.673584568694527,1003.4616175321734,0,0
21.66,6.788533,-7.0584440000000015,-3.1169504000000005e-05,1003.44635,5.673416428108776,1003.4613561610618,0,0
21.68,7.0561996,-7.201441,0.061515857,1003.4717,5.673799403868892,1003.461162451368,0,0
21.7,6.9845,-7.0346117,-0.123126164,1003.4667,5.674317646446286,1003.4610112246576,0,0
21.72,6.8793416,-6.739084700000001,-0.38351867,1003.4613,5.6743798672290575,1003.4608786403276,0,0
21.74,6.9558163,-6.7581506,-0.19887713,1003.4692,5.674168742069628,1003.4607914457083,0,0
21.76,6.9271350000000025,-6.8248824999999975,-0.023704335,1003.47925,5.673767058633107,1003.4607808513382,0,0
21.78,6.936692,-7.0203114,0.17987485,1003.4563,5.67350286656311,1003.460755359088,0,0
21.8,6.970148599999999,-6.9106803,0.033108074,1003.4613,5.673245688214557,1003.460734794843,0,0
21.82,7.156558,-6.715251400000001,-0.014236253,1003.46387,5.672992409494928,1003.4607279110147,0,0
21.84,6.9565350000000015,-6.948831,0.028440077,1003.44385,5.672782559200555,1003.4606610679843,0,0
21.86,6.9135394,-7.1251940000000005,-0.014167428,1003.4363,5.6728101241235995,1003.4605143056378,0,0
21.88,7.080861,-7.0203304000000015,-0.037836853,1003.4641,5.673137138405652,1003.4603975349282,0,0
21.9,7.104787,-6.734338,-0.44972762,1003.45386,5.673370817157547,1003.4602708212036,0,0
21.92,7.1908503,-6.715272,-0.3645059,1003.4817,5.673616880488501,1003.460236002,0,0
21.94,6.990123,-6.991733,0.042655203,1003.46387,5.673958520379598,1003.4602183181444,0,0
21.96,6.9088917,-7.0775320000000015,0.17048642,1003.44635,5.674394451476372,1003.4601527667444,0,0
21.98,7.004514,-6.9107027,0.052128702,1003.4788,5.674803680253003,1003.4601619755673,0,0
22.0,6.9854217000000025,-6.796306,-0.03308813,1003.4667,5.674992925576178,1003.4601936493707,0,0
22.02,6.856392,-7.0489345000000005,0.01899261,1003.45636,5.675168738174078,1003.460207835206,0,0
22.04,6.9185557,-7.0346354999999985,0.0568703,1003.4689,5.675401448235518,1003.4602516616033,0,0
22.06,7.0571985,-6.839207000000001,-0.12303449,1003.46924,5.675603200699836,1003.460322744626,0,0
22.08,6.9042697,-6.896406699999999,-0.17037626,1003.4488,5.675635161206995,1003.4603440717044,0,0
22.1,7.0285697,-6.8058424,-0.014138624,1003.4713,5.675566121330407,1003.4604023576525,0,0
22.12,7.1002936000000005,-6.848741499999999,-0.113558665,1003.4663,5.675578582422872,1003.4604750906288,0,0
22.14,6.890009,-6.9345407,-0.10408746,1003.4613,5.675476622920852,1003.4605423271603,0,0
22.16,7.052549000000001,-6.8439765,0.0095407255,1003.4663,5.675380763569442,1003.4606224649817,0,0
22.18,7.0047755,-6.834444,-0.023597814,1003.45917,5.675205706847714,1003.460688045887,0,0
22.2,6.990463,-6.891644,-0.07093944,1003.4713,5.6750237830773385,1003.4607841962096,0,0
22.22,6.990489,-6.958376,0.08056395,1003.4385,5.674934248837182,1003.4607889315283,0,0
22.24,6.976176700000001,-6.9202447,-0.0188561,1003.4613,5.6748490611277465,1003.4607949555024,0,0
22.26,6.980982000000001,-6.8630460000000015,-0.15615156,1003.4613,5.674694141969928,1003.4608020964461,0,0
22.28,6.9810085000000015,-6.905946000000001,-0.11353946,1003.46387,5.674539590449202,1003.4608194506368,0,0
22.3,6.9953747,-6.9488460000000005,-0.066193,1003.4563,5.6744689974294245,1003.4608185147772,0,0
22.32,6.933261999999999,-6.905947,-0.089862734,1003.4488,5.674318830520872,1003.4607744211987,0,0
22.34,6.990392699999999,-6.9917393,-0.19404037,1003.4438,5.674312005967165,1003.4606743521964,0,0
22.36,6.937831,-6.9726740000000005,-0.014131498,1003.4588,5.674322721390957,1003.4605791835576,0,0
22.38,7.0669007,-6.820144,-0.104083866,1003.4764,5.6743186999267055,1003.4605520474879,0,0
22.4,7.076478999999999,-6.777246000000001,-0.033066097999999995,1003.4463,5.674253198538863,1003.460476762686,0,0
22.42,6.95222,-6.944076,-0.028330158,1003.4588,5.674191399097742,1003.460404204689,0,0
22.44,6.971355,-6.925009700000001,0.004812088,1003.451,5.674133221781645,1003.4603062373061,0,0
22.46,6.9140124000000025,-6.9011770000000014,-0.07567139,1003.45844,5.673959653461305,1003.460212954872,0,0
22.48,6.8566713,-6.963143,-0.05199785,1003.46375,5.673691820070468,1003.460143263876,0,0
22.5,6.9427223,-7.0298753,-0.004652489,1003.4563,5.673565714377882,1003.4600678491616,0,0
22.52,7.0000973,-6.8535132,-0.104073405,1003.4634,5.673392305586437,1003.4600132084636,0,0
22.54,7.024013,-6.891646400000001,-0.13721271,1003.466,5.673269541716449,1003.4599864803916,0,0
22.56,6.9475527,-6.944079,-0.11827357,1003.4535,5.6731552233679325,1003.4599395121382,0,0
22.58,6.9953666,-6.820148,-0.07566254,1003.47845,5.672937671550969,1003.459964648746,0,0
22.6,6.880667699999999,-6.910713,-0.08512981,1003.4634,5.672592794862716,1003.4599992267167,0,0
22.62,6.852003,-6.886881,-0.047253247000000005,1003.4381,5.672058984940943,1003.4599509425957,0,0
22.64,6.957176,-7.0155783,0.12792131,1003.4713,5.671705469639681,1003.4599491353528,0,0
22.66,6.9093933000000005,-6.944081,0.12792273,1003.4413,5.671337129549372,1003.459880401586,0,0
22.68,6.794696000000001,-7.101377499999999,9.540841e-05,1003.4458,5.6710227973805925,1003.4597689789838,0,0
22.7,6.9906845,-6.963147,-0.094591185,1003.4709,5.670838213994932,1003.4597105976483,0,0
22.72,7.1197543,-6.84875,-0.03777692,1003.46387,5.670793536771113,1003.4596739857484,0,0
22.74,7.119771000000001,-6.8487506,-0.10879147,1003.4434,5.6708737622323575,1003.4595830491252,0,0
22.76,6.9716134000000025,-6.805852400000001,-0.12772761,1003.4381,5.6707813661809965,1003.459425358548,0,0
22.78,6.8091164000000015,-6.9488497,0.08532214,1003.4787,5.6705067307068395,1003.4593554118633,0,0
22.8,6.842592,-7.0203485,0.20368375,1003.4484,5.670230589210386,1003.4592541674898,0,0
22.82,6.7804694,-7.0298815,0.2178884,1003.4709,5.669879108773857,1003.4592066329584,0,0
22.84,6.908878,-6.886869,0.1562819,1003.45593,5.669435127912988,1003.4591528355679,0,0
22.86,6.9614452999999985,-6.896402,0.014248865,1003.4534,5.6689998987255095,1003.4590845899857,0,0
22.88,6.9662156,-6.9964995,0.061592016,1003.4788,5.6687282945995126,1003.4590952636653,0,0
22.9,7.009224400000001,-7.0393977,-0.033096936,1003.4409,5.668728218991027,1003.4590391919792,0,0
22.92,6.9422964999999985,-6.9821997000000025,-0.047301132,1003.4538,5.668785797142756,1003.4589707859462,0,0
22.94,6.9422880000000005,-7.006032,-0.028364267,1003.4455,5.668929103227235,1003.4588618475462,0,0
22.96,6.9613953,-6.882101,0.10893236,1003.4506,5.668994878505285,1003.4587358469247,0,0
22.98,6.9709454,-7.001264599999999,0.15154114,1003.4606,5.669181950812744,1003.4586312237268,0,0
23.0,6.932697,-7.0107979999999985,0.161009,1003.4532,5.669433915381132,1003.4585192262635,0,0
23.02,6.9374660000000015,-7.0107975000000025,0.1799457,1003.4484,5.669749961024547,1003.4583838360904,0,0
23.04,6.9135585000000015,-6.9249990000000015,0.07105358,1003.468,5.669957105005762,1003.4582988235236,0,0
23.06,6.8992085,-6.948831599999999,0.14680314,1003.4862,5.67008308891255,1003.4583241506548,0,0
23.08,6.9087577000000016,-6.910699,0.009504413,1003.451,5.670092489442362,1003.4583201627654,0,0
23.1,6.8513910000000005,-7.0012630000000025,0.018972348,1003.4684,5.670048852799942,1003.4583529264804,0,0
23.12,6.8943996,-7.0203295,0.13733159,1003.4385,5.670051340626638,1003.4583104059641,0,0
23.14,6.8752694000000005,-7.082294,0.09945534,1003.4432,5.670157996820959,1003.458218437374,0,0
23.16,6.9804163,-6.8963985,0.023704078,1003.47845,5.670234772068193,1003.4582100075534,0,0
23.18,6.946947,-6.896398,-0.028375369,1003.45593,5.670235465564718,1003.4581943509364,0,0
23.2,6.932597,-6.9202309999999985,0.089983836,1003.4631,5.670183513860287,1003.4581981770866,0,0
23.22,7.0855412,-6.872565,-0.009439554,1003.4406,5.670241488695946,1003.4581382044353,0,0
23.24,7.023395,-6.8534985,0.07577895,1003.4532,5.670276767471307,1003.4580674350647,0,0
23.26,6.9708066,-6.8868637,0.146794,1003.468,5.670264135027101,1003.4580406604823,0,0
23.28,6.9660160000000015,-6.839198599999999,0.14205864,1003.47534,5.670132465320022,1003.4580792800841,0,0
23.3,6.9182076,-6.982195,0.09471365,1003.4631,5.670034146134737,1003.4581314789557,0,0
23.32,6.8226004,-7.1204243,0.1799319,1003.42535,5.67003521173568,1003.458059588554,0,0
23.34,6.8998623,-6.9583807,0.10425331,1003.4432,5.6699927351784885,1003.4579425716768,0,0
23.36,6.847306,-6.7724857000000025,-0.108792916,1003.4705,5.669561732261283,1003.4578843823056,0,0
23.38,6.8282075,-6.977448,-0.033040594,1003.43286,5.669061864477313,1003.4577428784012,0,0
23.4,6.799548599999999,-7.149044,0.13266543,1003.4632,5.6687200070655575,1003.457637491189,0,0
23.42,6.9525194,-7.0203479999999985,-0.004630726,1003.4457,5.668546631265628,1003.45750139608,0,0
23.44,7.086374799999999,-6.7677207,-0.03776971,1003.453,5.668353483904076,1003.4573649374156,0,0
23.46,6.9907985,-6.8535194000000015,-0.04723664,1003.4609,5.668124892311611,1003.4572570887652,0,0
23.48,6.943029400000001,-6.767722,-0.028296437,1003.453,5.6676699990350565,1003.4571464681784,0,0
23.5,6.923931,-6.691457700000001,0.000111959875,1003.4432,5.666877812949573,1003.4569985165421,0,0
23.52,6.909613,-6.6866918,0.02852036,1003.473,5.665762256250787,1003.4569253918168,0,0
23.54,6.8427114,-6.734358,0.15635064,1003.4631,5.664337222925633,1003.4568830073987,0,0
23.56,6.8140592999999985,-6.8010902,0.23683795,1003.4705,5.662702613965562,1003.4568945777008,0,0
23.58,6.7567214999999985,-6.7009925999999975,0.0095884055,1003.4532,5.660651443291888,1003.4568915007396,0,0
23.6,6.575111,-6.7295922999999975,-0.014081668,1003.4504,5.658015864190973,1003.4568654125342,0,0
23.62,6.6181507,-6.686694,-0.06142373,1003.4504,5.654872933998963,1003.4568190855107,0,0
23.64,6.642068400000001,-6.767726,0.05693812700000001,1003.43536,5.651447811166768,1003.4567008982448,0,0
23.66,6.694667999999999,-6.6247296,-0.08509204,1003.4428,5.647652665977856,1003.4565464247432,0,0
23.68,6.680351299999999,-6.5294,-0.12296519,1003.458,5.643384965910967,1003.4564151648276,0,0
23.7,6.51308,-6.7629614,0.004865717,1003.4477,5.63881301508775,1003.4562678089734,0,0
23.72,6.5800185,-6.7152963,0.0238053,1003.47284,5.634014628903827,1003.456197265228,0,0
23.74,6.6326156,-6.5961328,0.0096038375,1003.4479,5.6289346164996426,1003.4561050626199,0,0
23.76,6.6708755,-6.6199660000000025,0.18951319,1003.4705,5.6237193352298025,1003.45607541417,0,0
23.78,6.637438,-6.5913672000000005,0.20371835,1003.46265,5.6183127447065475,1003.4560728853083,0,0
23.8,6.647017999999999,-6.5580015,0.06642249,1003.46265,5.612717823309071,1003.4560943284192,0,0
23.82,6.694839,-6.4388385,0.118503034,1003.4803,5.6068760891682174,1003.4562004159696,0,0
23.84,6.794346000000001,-6.491249,0.14682993,1003.4481,5.601062801018188,1003.456264993432,0,0
23.86,6.674836599999999,-6.4197507000000025,6.210059e-05,1003.4756,5.5950110391016805,1003.4563916601013,0,0
23.88,6.526651,-6.57228,-0.05201746,1003.48785,5.5887735011937645,1003.4566168327935,0,0
23.9,6.3880230000000005,-6.696211,0.04740375,1003.4756,5.582377832208133,1003.4568841347867,0,0
23.92,6.5027237,-6.6628440000000015,-0.056754407,1003.48535,5.575981203243992,1003.4572227999423,0,0
23.94,6.5361699999999985,-6.5150805,-0.12303729,1003.44763,5.569438681763427,1003.4574875103942,0,0
23.96,6.4596795999999985,-6.5865784,0.0710721,1003.46765,5.562783211637933,1003.457757993512,0,0
23.98,6.349728,-6.577045,-0.0094142,1003.46014,5.555877764694087,1003.4580055676184,0,0
24.0,6.3210362999999985,-6.6008773000000005,0.07580389,1003.48785,5.548771314994223,1003.4583317640552,0,0
24.02,6.421399,-6.605643700000001,0.1894284,1003.4951,5.541668206024621,1003.4587523568764,0,0
24.04,6.5026410000000014,-6.505546,0.17995822,1003.48505,5.534563604825967,1003.4592186642084,0,0
24.06,6.493069,-6.553211,0.12787867,1003.46246,5.527537633478742,1003.4596423621756,0,0
24.08,6.4882746,-6.529378,0.06159564,1003.47003,5.5205628373371045,1003.4600541371956,0,0
24.1,6.454803,-6.629475,0.071063265,1003.48004,5.513758044746941,1003.4604899307094,0,0
24.12,6.5169272000000005,-6.610409,0.07106206,1003.48505,5.507190020794988,1003.4609634141077,0,0
24.14,6.354399,-6.5722755999999976,-0.028361794,1003.51294,5.500561674665747,1003.4615688997476,0,0
24.16,6.340047,-6.472178,-0.014159799,1003.48987,5.493733918540994,1003.4622057908196,0,0
24.18,6.4212885,-6.6485405,0.15627743,1003.5026,5.487137767484108,1003.4629139669245,0,0
24.2,6.5407705,-6.5865746,0.29830837,1003.49506,5.480858968349343,1003.4636554370494,0,0
24.22,6.4833994000000015,-6.6485395,0.20361899,1003.5328,5.474886024188759,1003.4645595204784,0,0
24.24,6.5933213,-6.6866713,0.13733613,1003.51526,5.469418833833792,1003.4655408903227,0,0
24.26,6.5263915,-6.624706,0.04264687,1003.5328,5.4642269470284965,1003.466650161512,0,0
24.28,6.521596400000001,-6.7057366,0.061583124,1003.5377,5.459410613733794,1003.4678860929532,0,0
24.3,6.488125,-6.8392005000000005,0.07105072,1003.5199,5.455095463035982,1003.4691654120401,0,0
24.32,6.578925999999999,-6.739102000000001,-0.0899204,1003.52484,5.4512199837859106,1003.470496246902,0,0
24.34,6.651622,-6.7295933,-0.070891395,1003.525,5.4478383939716135,1003.471868386097,0,0
24.36,6.5369334000000014,-6.8630576,-0.09929538,1003.522,5.444939000019616,1003.4732612820998,0,0
24.38,6.5273986,-6.8773584,-0.03301141,1003.53015,5.442483036175211,1003.4746968443924,0,0
24.4,6.642142,-6.9011910000000025,0.09955448,1003.5373,5.440629276845756,1003.4761906785942,0,0
24.42,6.666065700000001,-6.796328,0.056947134,1003.54486,5.439191907085371,1003.477757840052,0,0
24.44,6.5704985,-6.791562,0.123231396,1003.55005,5.437983251761065,1003.479402835692,0,0
24.46,6.5896425,-6.915493,0.26053143,1003.5445,5.437200118468404,1003.4810907036307,0,0
24.48,6.6757054,-6.7391315,0.24159622,1003.5275,5.4366565386783785,1003.4827491772087,0,0
24.5,6.7426476,-6.6819334,0.19898888,1003.5498,5.436338828317531,1003.484455987424,1,3
24.52,6.7092175,-6.6867009999999985,0.10903779,1003.5726,5.436176510796832,1003.4862814433756,1,3
24.54,6.599305,-6.7915649999999985,0.07589907,1003.557,5.43614599135487,1003.4881490030583,1,3
24.56,6.68059,-6.8964300000000005,0.118511304,1003.57025,5.436507002963125,1003.4900947423828,1,3
24.58,6.8001103,-6.877364599999999,0.15638885,1003.5745,5.437359216775152,1003.4921178565774,1,3
24.6,6.7427793000000005,-6.8773656,0.11378163,1003.57983,5.438557556967727,1003.494221243996,1,3
24.62,6.7236867,-6.8392334,0.019095952,1003.56494,5.4399717062240995,1003.4963343846408,1,3
24.64,6.804968,-6.929799000000001,0.042770296,1003.5791,5.441824282335223,1003.4984995119296,1,3
24.66,6.9053707,-6.9965315000000015,0.14692962,1003.5998,5.444304912666046,1003.5007773001593,1,3
24.68,6.914955,-6.8583016,0.08538467,1003.5945,5.447140719568175,1003.5031273555583,1,3
24.7,6.9866804999999985,-6.882135400000001,-0.04717609,1003.5898,5.450420460277737,1003.505515886029,1,3
24.72,6.967587,-7.1109304,0.075920716,1003.6148,5.454389710032717,1003.5080198143633,1,3
24.74,6.9628334,-7.101398,0.14220484,1003.5995,5.458934366648365,1003.5105616141074,1,3
24.76,6.9294014000000015,-7.0966315,0.11380084,1003.6273,5.463914657742678,1003.5132278065507,1,3
24.78,7.0919414000000005,-7.0346675,0.15167850000000002,1003.61206,5.469409504344332,1003.5159394500901,1,3
24.8,7.015489,-7.0156016,0.08539912,1003.5946,5.475197047985362,1003.5186186363013,1,3
24.82,6.905579,-7.0156026,-0.15605323,1003.6265,5.4810632967975215,1003.5213743381464,1,3
24.84,6.957112,-6.977444,-0.009382363,1003.63226,5.486994448659661,1003.5242084646795,1,3
24.86,6.914076299999999,-6.9297786,0.18472673,1003.629,5.492831898214319,1003.5270899484116,1,3
24.88,6.8232455000000005,-7.0394087,0.0616308,1003.6294,5.498592410792616,1003.5300043436226,1,3
24.9,6.713292,-7.034642,0.13737966,1003.6466,5.504100256916899,1003.532999247594,1,3
