Timestamp,Ax,Ay,Az,P,LPFRMSAcc,LPFPValue,Value,Type
0.0,2.2533693,3.08047,6.7969035999999985,1005.6305,0.01620198216817158,3.6202697999999995,0,0
0.02,4.1652274,3.3045,9.80798,1005.6458,0.05364787311379099,10.426432103999998,0,0
0.04,4.356368,2.1843605,9.71802,1005.65546,0.10913789677582113,20.023181616239995,0,0
0.06,4.337185,2.3702576,7.800581,1005.6584,0.17696979961840525,32.05115627143679,0,0
0.08,4.9202614,2.6753187,8.439719,1005.6513,0.25732155681377433,46.1840351941915,0,0
0.1,5.0636,2.041368,8.094103,1005.6639,0.3476866184199744,62.125974523638476,0,0
0.12,5.80919,2.3845615,7.696408,1005.679,0.4469271847496257,79.60906300685272,0,0
0.14,5.708754,2.2796986,7.686934,1005.644,0.5534645738253162,98.39084576379616,0,0
0.16,6.2344766,2.2892332000000004,7.298708,1005.6523,0.6661191072942073,118.2525702430817,0,0
0.18,6.0766873,2.4226982999999995,6.517526,1005.6419,0.7824559189451787,138.99699158010333,0,0
0.2,6.3251734000000015,1.955577,5.864172,1005.64734,0.9008166958143806,160.44670352780724,0,0
0.22,6.654920599999999,1.521822,5.6747904,1005.6574,1.0206085417967996,182.4424275120984,0,0
0.24,6.1051910000000005,0.5065466,4.6474199999999986,1005.6624,1.1387647584019382,204.84144112557442,0,0
0.26,7.3765554,1.7363199,5.078245,1005.6201,1.2580284501304029,227.51601272638973,0,0
0.28,7.596367,0.8068426,4.8935976,1005.61804,1.3777369612891484,250.35243149105517,0,0
0.30000000000000004,6.8841205,-0.108334854,3.274426,1005.6506,1.4943976453053816,273.2497645181457,0,0
0.32,7.768324400000001,-0.8137839,4.3491306,1005.6382,1.6106806869943002,296.1184463486177,0,0
0.34,9.283463,-0.7422840999999999,4.6947364999999985,1005.65857,1.7293072160742933,318.87955805916766,0,0
0.36000000000000004,8.7337265,-2.0006535,4.3727913,1005.64105,1.8486224709507435,341.4636177375966,0,0
0.38,9.63705,-2.4153423,3.7431104,1005.64355,1.96946109590768,363.80994062560114,0,0
0.4,10.043281,-1.6050266000000002,4.6095014,1005.64655,2.0923532151733437,385.86576332318964,0,0
0.42,11.0422,-1.5192271000000002,6.0913650000000015,1005.6743,2.2198090077561243,407.58559899081536,0,0
0.44,12.566895,0.6447911999999999,6.4843144,1005.6898,2.3538600777391157,428.9304209103626,0,0
0.46,11.439381,0.7019771,3.8094234,1005.6647,2.488936139403436,449.86694896319716,0,0
0.48,10.770172,-0.10357006,3.2128851000000003,1005.6851,2.6226903725048083,470.36741049441434,0,0
0.5,10.602841,-0.008238003,3.1181939,1005.67255,2.754404771086608,490.4087168056179,0,0
0.52,8.925094,-0.7089211,2.4790456,1005.7055,2.8801808198877525,509.97228348169716,0,0
0.54,9.011096,-1.6431652,3.6247687000000006,1005.68054,3.0014224449355376,529.0432007201466,0,0
0.56,8.848546,-1.5383,4.235503,1005.66046,3.118385302714186,547.610085325448,0,0
0.5800000000000001,8.571280499999999,-1.5668985,3.170259,1005.6655,3.2297792758599067,565.6647840555207,0,0
0.6,9.86657,-1.2713711,4.779953,1005.69855,3.339519586516648,583.2020374108132,0,0
0.62,8.733723,-1.4715657,3.3454254,1005.69116,3.4441418744922934,600.2189153168706,0,0
0.64,8.332182000000001,-1.5192302,2.829372,1005.69885,3.5427471480298527,616.7147563995222,0,0
0.66,9.388481,-1.6622261000000005,3.9608915,1005.699,3.638579941457543,632.6908248571149,0,0
0.68,8.790975,-1.5192286,2.9429913,1005.6814,3.72968433279062,648.1500450167581,0,0
0.7000000000000001,9.331051,-0.9043419,3.0518787,1005.6888,3.817248901356277,663.0969514677587,0,0
0.72,9.2258625,-1.0378047,2.9950633,1005.6589,3.9011546663576855,677.5372610225786,0,0
0.74,8.556650999999999,-0.9949047,2.5216193,1005.6944,3.9799054575825172,691.4780842455361,0,0
0.76,8.494475999999999,-1.8147515,3.0802753,1005.69464,4.054317418723324,704.9273752460577,0,0
0.78,8.924624,-1.5811893999999995,3.4400868,1005.6642,4.125621918355876,717.8938213432327,0,0
0.8,9.048863,-1.9958789,2.9808464,1005.6846,4.194006089711882,730.3870199178609,0,0
0.8200000000000001,10.057365,-1.2999606,3.7714884,1005.6748,4.261820121358124,742.417046186698,0,0
0.84,9.359481,-1.2475278,2.441118,1005.68256,4.32666866529854,753.9945332475702,0,0
0.86,9.880441,-0.6898398,1.6220622,1005.665,4.389253175285886,765.130414494866,0,0
0.88,9.760911,-1.3285575,2.7062378,1005.6627,4.44998484141192,775.8359953927948,0,0
0.9,9.39283,-1.2284589,2.1570435000000003,1005.67,4.507820283989632,786.1228490907907,0,0
0.92,9.650902,-0.9662973,2.4411044,1005.6627,4.563483528512243,796.002656481613,0,0
0.94,9.708223,-0.60403824,2.4931793,1005.66785,4.617109759546157,805.4872489888098,0,0
0.96,9.043893,-1.0568626,2.5215917,1005.67303,4.66750989615674,814.5885037398091,0,0
0.98,9.158572,-0.74703544,2.5926046,1005.64545,4.715085000325263,823.3181774443287,0,0
1.0,9.2684765,-0.87573177,2.8009157000000005,1005.6856,4.760354790576009,831.6882398508427,0,0
1.02,9.311462,-0.8232989,2.4221601,1005.6787,4.803288559737786,839.7103926497757,0,0
1.04,9.225394,-0.4944057,2.0292015,1005.6814,4.8435928660263965,847.3962624893733,0,0
1.06,9.26838,-0.27037668,2.0528708,1005.6639,4.881507658645144,854.7572605746802,0,0
1.08,9.254009,-0.32757467,1.4658015,1005.6817,4.916921528109724,861.8047664647884,0,0
1.1,9.292215,-0.33234042,1.3237663999999998,1005.6667,4.950033034406103,868.5498456300148,0,0
1.12,9.899216,0.07281792,1.3332319,1005.6613,4.98223169423854,875.0033988161407,0,0
1.14,9.688872,-0.19887514,1.214869,1005.69476,5.013046235821972,881.1762473116635,0,0
1.16,9.841794,-0.17027493,1.4231798999999998,1005.68195,5.042898579892337,887.0787967719854,0,0
1.18,10.214585,0.010855049,1.6788347,1005.68976,5.072637145873401,892.7212889427467,0,0
1.2,10.228891,-0.051109478,1.4657835,1005.6976,5.102130437771473,898.1137097446375,0,0
1.22,10.1571665,-0.20840518,1.631485,1005.67236,5.1312093041638365,903.2656639061076,0,0
1.24,9.741288,-0.3085019,1.2385261,1005.67236,5.15885098384944,908.1865947091203,0,0
1.26,9.5930805,-0.55636215,1.6504163,1005.69006,5.184968101078499,912.8857416417096,0,0
1.28,9.463994,-1.0377836,1.5462564,1005.69763,5.209427033036207,917.3720306694356,0,0
1.3,9.76509,-1.1664796999999998,2.029163,1005.70294,5.233156229606265,921.6541069279241,0,0
1.32,10.133105,-0.9043185,2.2090676,1005.68036,5.2569217111787,925.740244020984,0,0
1.34,10.023136,-0.58972484,1.7877023999999997,1005.6855,5.280192902820689,929.6385576779364,0,0
1.36,9.994425,-0.42289454,1.8208401,1005.7183,5.302879873085963,933.3569946975788,0,0
1.38,9.841437,-0.4228937,1.2243022,1005.70575,5.324467161100703,936.9030611672237,0,0
1.4,10.209451,-0.971047,1.513098,1005.6857,5.3459200694171525,940.2839829995996,0,0
1.42,9.884394,-1.0377781,1.1438116000000005,1005.7058,5.366424147486313,943.5068840718884,0,0
1.44,9.320342,-0.6707523,0.3484285,1005.6907,5.38465798854957,946.5785011967042,0,0
1.46,9.458925,-0.52775484,0.6656308000000001,1005.67847,5.4011237683635125,949.5053419758832,0,0
1.48,9.889076,-0.5182209,1.1864122,1005.6633,5.41695833803046,952.2936671372528,0,0
1.5,10.324002,-0.6087847,1.7498032,1005.7015,5.433249525052807,954.9496994481444,0,0
1.52,10.171018,-0.651683,2.1474905,1005.6688,5.449733266393883,957.4791583600353,0,0
1.54,9.664326,-0.48008615,1.9533768,1005.72186,5.465196666706069,959.8878619804857,0,0
1.56,9.382286,-0.42288655,1.6124969,1005.6759,5.478991556802057,962.181029436386,0,0
1.58,9.291437,-1.2427336000000002,1.9912462,1005.6918,5.491374933334546,964.3639109744483,0,0
1.6,8.779964,-1.3952626,1.603022,1005.6994,5.501323721773697,966.4415128619728,0,0
1.62,9.243573,-1.6002237,1.4183773000000002,1005.67926,5.510029487178736,968.4185377794856,0,0
1.64,9.50165,-2.1531434,1.1248411,1005.6768,5.518269834039809,970.2995667405941,0,0
1.66,9.750168,-1.3571277,0.594585,1005.67426,5.52618323216558,972.0889928263632,0,0
1.68,9.903091,-0.9186037,0.4667532,1005.68176,5.533975553215943,973.791063677574,0,0
1.7,9.649727,-0.60877675,0.68926704,1005.6845,5.5410859889168655,975.4098298524648,0,0
1.72,9.425045,-0.8375707,1.3094711,1005.662,5.54727508200809,976.9490794571292,0,0
1.74,9.563628,-0.94243413,1.6503453999999995,1005.71014,5.5530398800755405,978.4127002257652,0,0
1.76,9.91252,-0.9233673,1.8586563000000005,1005.68726,5.559192223638432,979.8041439521187,0,0
1.78,10.003306,-0.7851362,1.9628104,1005.69226,5.565866037453376,981.1268208464976,0,0
1.8,9.630448,-0.6516718,1.3378658,1005.67487,5.571979977431455,982.3839111273234,0,0
1.82,9.453561,-1.0329955,1.0774704,1005.64734,5.577215403244437,983.5784244434024,0,0
1.84,9.625601,-1.2236569,1.4088758,1005.68506,5.582142382180663,984.7134802974936,0,0
1.86,9.749845,-1.1521579,1.4514827,1005.69006,5.587027629587281,985.7919313370976,0,0
1.88,9.745034,-1.090192,1.465683,1005.6905,5.591838372954097,986.8164855228785,0,0
1.9,9.611167,-1.123557,1.5177584,1005.65497,5.596316891254021,987.7896001455516,0,0
1.92,9.587235,-1.2713194,1.5319586,1005.69037,5.600479124237752,988.7138869976221,0,0
1.94,9.529843,-1.1378549,1.5224866,1005.69086,5.604192676399824,989.5917039629196,0,0
1.96,9.605843,-0.96624726,1.3898796,1005.6881,5.607571877067038,990.4252900591904,0,0
1.98,9.816088,-1.0949426000000002,1.5934529,1005.6934,5.611164812042158,991.2168119296416,0,0
2.0,9.730016,-1.1187747,1.5603089,1005.7009,5.6147527478733155,991.9683433714264,0,0
2.02,9.686947,-1.2474704,1.5176946000000002,1005.6984,5.618253768609972,992.6818247572496,0,0
2.04,9.486144,-1.2570021999999998,1.4419395000000002,1005.7158,5.621235021690245,993.3591792206372,0,0
2.06,9.514775,-1.376165,1.5650296,1005.693,5.623877713238323,994.002091379292,0,0
2.08,9.47649,-1.3904635,1.5744941,1005.70123,5.626141432202943,994.612285461714,0,0
2.1,9.495555,-1.3666294,1.5366138,1005.7163,5.628081205164566,995.19142740528,0,0
2.12,9.528964,-1.4142938,1.5792189,1005.6909,5.629823890628425,995.7409553279558,0,0
2.14,9.624512,-1.2188636999999998,1.4987297,1005.7141,5.6314995077970345,996.2624215212517,0,0
2.16,9.610121,-1.1759634,1.4371778,1005.69073,5.633050432757213,996.7571309601713,0,0
2.18,9.619631,-1.1950284,1.4561107,1005.6915,5.6345156065146025,997.2264199489439,0,0
2.2,9.480968,-1.3523237,1.7164987,1005.70905,5.635748441956878,997.6716211676072,0,0
2.22,9.552615,-1.4953191,1.8301197,1005.6938,5.637002422236716,998.0938808082147,0,0
2.24,9.590801,-1.4619519,1.7306925,1005.679,5.63829994015699,998.494295855746,0,0
2.26,9.557293,-1.2808216,1.6738751,1005.6962,5.6394903217816825,998.8740294466639,0,0
2.28,9.471199,-1.185489,1.4229463,1005.689,5.640298339924137,999.2340959415911,0,0
2.3,9.504603,-1.3141847,1.5697081,1005.7036,5.640915231778507,999.5755409111188,0,0
2.32,9.533232,-1.2855841,1.5365624,1005.69904,5.641400290439976,999.8992862829136,0,0
2.34,9.63834,-1.3618479,1.5365582,1005.70105,5.642002258986162,1000.2062340428132,0,0
2.36,9.652641,-1.3904462,1.4986795,1005.6817,5.642730615938816,1000.4971647609061,0,0
2.38,9.886805,-1.4381107,1.6549106,1005.7019,5.644108902867534,1000.7729681902738,0,0
2.4,9.6859865,-1.1330495,1.546013,1005.6815,5.64553031152315,1001.034338814978,0,0
2.42,9.609474,-1.0520171,1.4844626,1005.6786,5.6467901281287824,1001.2820052392328,0,0
2.44,9.46603,-1.361842,1.7685223,1005.7144,5.647789213847156,1001.5167999128433,0,0
2.46,9.500263,-1.481025,1.882219,1005.6866,5.648703704643787,1001.7392757667592,0,0
2.48,9.476347,-1.4905578000000002,1.6549659,1005.6718,5.64940933640202,1001.9500125185184,0,0
2.5,9.514573,-1.461958,1.4939951,1005.68445,5.649942245969463,1002.1496634873068,0,0
2.52,9.624488,-1.4476578000000002,1.4561177,1005.6768,5.650527623478178,1002.3387727747736,0,0
2.54,9.672267,-1.3427931,1.3803657,1005.6919,5.651200978316907,1002.5179409991902,0,0
2.56,9.700928,-1.2379284,1.508193,1005.68445,5.6520184321712446,1002.6876534746876,0,0
2.58,9.677012,-1.2617608,1.5792073999999998,1005.69183,5.652940870541968,1002.8484264535284,0,0
2.6,9.614858,-1.4571892,1.6691596999999998,1005.6669,5.653913239939919,1003.000631962399,0,0
2.62,9.481005,-1.6144851,1.6833612,1005.6944,5.654711795019593,1003.1448183149727,0,0
2.64,9.500106,-1.5668192,1.6502186999999997,1005.7046,5.655364580312063,1003.2814365901727,0,0
2.66,9.547886,-1.6907491999999995,1.5602635,1005.6994,5.6559949664660145,1003.4108571664148,0,0
2.68,9.500072,-1.5620519,1.5081835,1005.6894,5.6564450990177955,1003.5334159417836,0,0
2.7,9.57653,-1.4476539,1.4513689,1005.6969,5.656834983780197,1003.6494974183087,0,0
2.72,9.523936,-1.4285874,1.621806,1005.6694,5.657113312612325,1003.7593386602604,0,0
2.74,9.633855,-1.3570886,1.5223818999999998,1005.67694,5.657460989378585,1003.863297746472,0,0
2.76,9.662517,-1.4428862,1.5555211000000002,1005.66394,5.657962958086996,1003.9616383071614,0,0
2.78,9.571681,-1.5668162,1.5413163,1005.6892,5.6584499311055305,1004.0547512486804,0,0
2.8,9.490407,-1.6716799999999998,1.5649866,1005.66437,5.658801320505463,1004.1428204713117,0,0
2.82,9.571648,-1.6955124,1.598126,1005.7094,5.659215360332675,1004.226278122732,0,0
2.84,9.657666,-1.5191493,1.59339,1005.68445,5.65979604620517,1004.3052707222847,0,0
2.86,9.648089,-1.3904518,1.5839196000000002,1005.6767,5.6604599555598964,1004.3800057286496,0,0
2.88,9.542916,-1.3713852,1.5081676000000002,1005.7124,5.6609509726913165,1004.4508381996504,0,0
2.9,9.547678,-1.476249,1.5223691,1005.7119,5.6613334693743855,1004.517965593508,0,0
2.92,9.55722,-1.5668132,1.4560857,1005.7094,5.6616463582948695,1004.5815685225841,0,0
2.94,9.595442,-1.5668128,1.4324121,1005.7044,5.661966917882007,1004.641810264034,0,0
2.96,9.620064,-1.5334644,1.4892913,1005.7019,5.662349694946598,1004.6988561898288,0,0
2.98,9.510139,-1.5191652,1.5603083,1005.7119,5.6625815230715855,1004.752908927578,0,0
3.0,9.52449,-1.5096323,1.6597319,1005.6867,5.662739172946553,1004.8040315745136,0,0
3.02,9.5340605,-1.4762667,1.6881393,1005.6768,5.6628495940636885,1004.8523455116778,0,0
3.04,9.557972,-1.476267,1.6644683999999998,1005.6944,5.6629578661340725,1004.898067102714,0,0
3.06,9.586661,-1.5001,1.4987652,1005.68933,5.663074015141126,1004.9413152469837,0,0
3.08,9.610572,-1.5858985,1.4372191,1005.6946,5.6632541100296825,1004.9822411323712,0,0
3.1,9.581903,-1.6478639,1.5745177,1005.6767,5.663496777223952,1005.0209032966233,0,0
3.12,9.562796,-1.5477664,1.5224403999999998,1005.6942,5.6637042984753965,1005.0574890530884,0,0
3.14,9.567587,-1.6287982,1.6171294,1005.6715,5.663948400371813,1005.09202666691,0,0
3.16,9.5198,-1.5334673,1.6408025000000002,1005.6817,5.664103554798919,1005.1246669264816,0,0
3.18,9.500691,-1.5477673,1.5366466,1005.689,5.664110339975772,1005.155539458904,0,0
3.2,9.620198,-1.4238372,1.5035069,1005.7069,5.664178698215054,1005.1848033265004,0,0
3.22,9.596311,-1.514402,1.446695,1005.6867,5.664263106241286,1005.212467707933,0,0
3.24,9.696697,-1.6287996,1.5555873,1005.6718,5.664637081417919,1005.2385655516183,0,0
3.26,9.663251,-1.724131,1.6266044,1005.69904,5.665254933031428,1005.2632833143127,0,0
3.28,9.491189,-1.6526330000000002,1.4656357,1005.684,5.665660223437366,1005.286638509498,0,0
3.3,9.390825,-1.6907655,1.4230272,1005.6865,5.665673593753161,1005.3087146613296,0,0
3.32,9.495991,-1.743198,1.5887322,1005.6918,5.665625706917847,1005.3296002563072,0,0
3.34,9.634617,-1.6907662,1.4987796999999998,1005.6942,5.665755597581444,1005.3493673271067,0,0
3.36,9.610729,-1.6812334,1.5461247,1005.7086,5.6660055568647385,1005.3681267484875,0,0
3.38,9.481685,-1.8528297,1.4656408,1005.6687,5.666138611890662,1005.3857846369252,0,0
3.4,9.476916,-1.828997,1.4372355,1005.669,5.666140154936558,1005.4024067224556,0,0
3.42,9.453028,-1.7336663,1.5366589,1005.68604,5.665972579927077,1005.4181150770296,0,0
3.44,9.261847,-1.8099315,1.3520181,1005.7111,5.665241798182963,1005.4330497248538,0,0
3.46,9.271419,-1.9338622,1.4514418,1005.7086,5.664116045028764,1005.4472379606618,0,0
3.48,9.381365,-1.8909633,1.361489,1005.6962,5.662821759233492,1005.4606709491632,0,0
3.5,9.615587,-1.8146988,1.3094115,1005.7113,5.661811675607924,1005.4734426023863,0,0
3.52,9.653836,-1.7384343,1.2810063,1005.70325,5.661097621764872,1005.4855549418054,0,0
3.54,9.677747,-1.7003021,1.3662264,1005.69104,5.660706111575942,1005.4969971511257,0,0
3.56,9.572602,-1.867132,1.512994,1005.6859,5.660495318810941,1005.5077875375372,0,0
3.58,9.558274,-1.9672298,1.5319327,1005.7183,5.660462582667253,1005.5180797678348,0,0
3.6,9.510488,-1.881432,1.4230424,1005.6834,5.6604221750064045,1005.527769135362,0,0
3.62,9.381444,-1.9433973,1.0584944,1005.6959,5.660043060938449,1005.5369359316214,0,0
3.64,9.4053545,-2.0577953,1.4656543,1005.6784,5.659573543774028,1005.5455449834427,0,0
3.66,9.586998,-1.9624643,1.5461401,1005.70807,5.659375914276061,1005.5537370316914,0,0
3.68,9.56789,-1.8766665,1.4372499,1005.6905,5.659311934517298,1005.5614678722096,0,0
3.7,9.477084,-1.9910641,1.4561883,1005.693,5.659235938790397,1005.568772358552,0,0
3.72,9.515333,-1.8671341,1.2857508999999998,1005.7006,5.659126341813934,1005.5757011821933,0,0
3.74,9.524906,-1.8528347,1.0916414,1005.6652,5.658952103987124,1005.5821456865068,0,0
3.76,9.534475,-2.0005982,1.309425,1005.6828,5.6588565886348725,1005.5882024060468,0,0
3.78,9.45801,-2.0291977,1.531943,1005.65247,5.658756330883866,1005.5937854867703,0,0
3.8,9.490717,-2.0053465,1.4750613,1005.693,5.658689611819147,1005.5990758691454,0,0
3.82,9.485931,-2.0482454,1.4561232,1005.70044,5.6586556867216125,1005.6041153618828,0,0
3.84,9.466806,-1.9910464,1.3709033000000002,1005.67487,5.658562300481166,1005.6088229743633,0,0
3.86,9.581514,-1.9624469,1.3661683,1005.6649,5.658634540852326,1005.6131844980432,0,0
3.88,9.567168,-2.0387118,1.3046204,1005.67255,5.6588387688268265,1005.6172520561736,0,0
3.9,9.505024,-2.0530114,1.375636,1005.6949,5.659060041220063,1005.6211256831357,0,0
3.92,9.471559,-2.010112,1.2998848,1005.68756,5.659188205216478,1005.6247875834599,0,0
3.94,9.720102,-2.0148785,1.4797916000000002,1005.6799,5.659788698747184,1005.628221643286,0,0
3.96,9.739215,-1.8528154,1.4987286,1005.6747,5.6607838189334965,1005.6314233006324,0,0
3.98,9.504997,-1.900481,1.4703217,1005.6874,5.661661540668688,1005.6344538011812,0,0
4.0,9.332918,-1.9672124,1.4324456,1005.6647,5.662101779415267,1005.6372404377825,0,0
4.02,9.275555,-1.8718812,1.6123526,1005.6695,5.662058218361016,1005.6398188443068,0,0
4.039999999999999,9.44762,-2.0148778000000003,1.5129294,1005.6617,5.661959183036194,1005.6421758964723,0,0
4.06,9.528871,-2.0577767,1.5034598999999995,1005.6996,5.661990110767273,1005.6444653145384,0,0
4.079999999999999,9.471505,-1.995811,1.0868318,1005.6896,5.661879153130761,1005.6466507292093,0,0
4.1,9.528858,-2.0339434,1.1389096,1005.67957,5.661787738319124,1005.6487002709872,0,0
4.119999999999999,9.586209,-1.9576786,1.4797863000000002,1005.69934,5.661891598136102,1005.6506935491267,0,0
4.14,9.557524,-1.8480475,1.579208,1005.6972,5.662097961472398,1005.6526222329139,0,0
4.159999999999998,9.48104,-1.9195457,1.6076138999999998,1005.72,5.6622783052169785,1005.65456897787,0,0
4.18,9.481033,-1.9338453,1.4797844,1005.7018,5.6623989770902075,1005.6564591533928,0,0
4.199999999999998,9.481027,-1.9290783,1.2998763,1005.6996,5.662411354904767,1005.6582846195323,0,0
4.22,9.495359,-1.9576776,1.3188133999999998,1005.7121,5.662374012116468,1005.6600913367827,0,0
4.239999999999998,9.490573,-1.9481444,1.4087665,1005.7144,5.6623053206352205,1005.6618832633333,0,0
4.26,9.528805,-1.8814123,1.5081885,1005.71466,5.6622898599054015,1005.663656605885,0,0
4.2799999999999985,9.418862,-2.0434754,1.546063,1005.68445,5.662180232613388,1005.6652983875824,0,0
4.3,9.395656,-2.1388233,1.5413921,1005.6814,5.661982230025388,1005.6668070316953,0,0
4.3199999999999985,9.371779,-2.105458,1.4182996,1005.6917,5.661604996203681,1005.668229684319,0,0
4.34,9.467397,-1.929096,1.4419734,1005.6789,5.661194267240888,1005.6695251533141,0,0
4.3599999999999985,9.543895,-1.7289008999999995,1.4609131000000002,1005.6864,5.660837910297179,1005.6707305791658,0,0
4.38,9.687309,-1.681236,1.4135709,1005.6839,5.660789809448388,1005.6718431033637,0,0
4.4,9.596514,-1.7527346999999998,1.4893234,1005.6864,5.6608793299882825,1005.6728785345726,0,0
4.42,9.644332,-1.8385332,1.4041058000000002,1005.6965,5.661193245027183,1005.6738784788645,0,0
4.44,9.620456,-1.943398,1.4372486999999998,1005.72144,5.661707531615305,1005.6749332511168,0,0
4.46,9.591799,-2.0291965,1.394641,1005.66064,5.662362372753442,1005.675813792175,0,0
4.48,9.520123,-2.0196643,1.3567679,1005.704,5.662979689639872,1005.676693308602,0,0
4.5,9.524925,-1.9005005,1.4798644,1005.6759,5.663558824033668,1005.677467593406,0,0
4.52,9.429348,-1.9195673,1.4514598,1005.6834,5.663908490382688,1005.6781731081226,0,0
4.539999999999999,9.477168,-1.952934,1.5272121,1005.6958,5.664188139862738,1005.6788599577368,0,0
4.56,9.49631,-1.9529345,1.4183228,1005.71356,5.66440941910478,1005.6795917782083,0,0
4.579999999999999,9.5441265,-1.8623703,1.3851838,1005.66815,5.6646283273736655,1005.6801972243753,0,0
4.6,9.544149,-1.9338691000000003,1.4277955,1005.6857,5.664885756028126,1005.6807520066003,0,0
4.619999999999999,9.505931,-1.9767687,1.4988135,1005.6731,5.665139045853009,1005.6812146649513,0,0
4.64,9.505952,-1.9910688,1.4893466,1005.6781,5.665390818455554,1005.6816122570758,0,0
4.659999999999998,9.501194,-1.9577036,1.5177549,1005.69574,5.6656258742926155,1005.6820144293516,0,0
4.68,9.649388,-1.6907767,1.4230688,1005.7233,5.666012457074099,1005.6825184168292,0,0
4.699999999999998,9.625511,-1.7861085,1.5556341,1005.6781,5.666559454264053,1005.6829478338634,0,0
4.72,9.859741,-1.4810493999999998,1.7071368999999998,1005.6854,5.667667733682046,1005.683336094553,0,0
4.739999999999998,9.654232,-1.3380531999999998,1.2668393,1005.675,5.6686715646080135,1005.683649151758,0,0
4.76,9.601675,-1.4667507,1.5414367,1005.6954,5.669592184343821,1005.683968072158,0,0
4.7799999999999985,9.663835,-1.447685,2.4741162999999995,1005.6954,5.6709460347554135,1005.6842910251636,0,0
4.8,9.352196,-1.4142958,2.1142147,1005.69293,5.671871210844811,1005.684607486749,0,0
4.8199999999999985,9.275701,-1.5286927,2.322527,1005.6956,5.672396682120901,1005.6849266852533,0,0
4.84,9.117951,-1.4524274,2.540308,1005.6851,5.672343698874906,1005.6852093529848,0,0
4.8599999999999985,9.141832,-1.3523293,2.3414614,1005.66974,5.671691094144763,1005.6854034285216,0,0
4.88,9.409485,-1.2474645,2.6207898,1005.6849,5.671162938781692,1005.6855731013237,0,0
4.9,9.160917,-1.4095271,2.8859148,1005.70294,5.670456960389703,1005.6857855450462,0,0
4.92,9.309073,-1.3237287,2.71074,1005.6976,5.669758632360573,1005.6860157923576,0,0
4.94,9.318616,-1.1425991000000002,3.0090060000000003,1005.6824,5.669221623005053,1005.6862062220292,0,0
4.96,9.179985,-1.0901666,3.2551935000000003,1005.6919,5.668708630344362,1005.686394983288,0,0
4.98,9.294681,-0.7517406,3.1936443,1005.6974,5.668334874618009,1005.6866013907962,0,0
5.0,9.2659855,-0.818472,3.098955,1005.6789,5.66797727972728,1005.6867560474636,0,0
5.02,9.361564,-0.99483424,3.4208927000000005,1005.6739,5.668075579042221,1005.6868464203244,0,0
5.039999999999999,9.160794,-0.9662344,3.0137324,1005.6664,5.667901966059481,1005.6868526666707,0,0
5.06,9.11298,-1.1521297,3.0326684,1005.6864,5.667449492511888,1005.6868565563423,0,0
5.079999999999999,9.433208,-0.94240063,3.359341,1005.6664,5.667551547652447,1005.6867863496533,0,0
5.1,9.089046000000002,-0.9805327,3.217307,1005.6839,5.667381738063662,1005.686713924164,0,0
5.119999999999999,9.132048,-1.0758633999999998,3.4492915,1005.6642,5.667241405192916,1005.6865688788748,0,0
5.14,9.036431,-1.1092288,3.5345089999999995,1005.69885,5.667014170077428,1005.6864849288934,0,0
5.159999999999998,8.936039,-1.1282947,3.6197263999999993,1005.6817,5.666588012986928,1005.6863935249456,0,0
5.18,9.022058,-1.1711931999999998,3.7049441,1005.6839,5.666228942528116,1005.6863037837276,0,0
5.199999999999998,9.127196,-1.0806283,4.230461,1005.6764,5.666542735900401,1005.686188834766,0,0
5.22,8.778253999999999,-1.0424954,3.657597,1005.6737,5.666304550078127,1005.6860423060583,0,0
5.239999999999998,8.873834,-1.0520281,3.9842694,1005.65076,5.666030995306171,1005.6857858169903,0,0
5.26,8.75432,-1.1807246999999998,4.112097,1005.67615,5.665643671547405,1005.6855244943088,0,0
5.2799999999999985,8.725622,-1.2045571000000002,4.0742197,1005.6633,5.665076544308734,1005.6852135814079,0,0
5.3,8.746008999999999,-1.195055,4.1216800000000005,1005.6756,5.664429789838147,1005.6849042498757,0,0
5.3199999999999985,8.875098,-1.171223,4.202168,1005.6656,5.664020798696932,1005.684561429234,0,0
5.34,8.750854499999999,-1.2331891,4.1453576000000005,1005.7034,5.6635573374537245,1005.6843263317699,0,0
5.3599999999999985,8.832149000000003,-1.3094548,3.9607193,1005.67834,5.663060891594973,1005.6840970488561,0,0
5.38,8.669669,-1.4619856000000002,3.7950184,1005.6605,5.662138875330635,1005.6838095050977,0,0
5.4,8.631461999999999,-1.4810525,3.9275846,1005.66785,5.6608895468931175,1005.6834979772143,0,0
5.42,8.688853,-1.4905864,3.8518374,1005.65497,5.6594023413851415,1005.6831200104587,0,0
5.44,9.0282545,-1.3714233999999998,3.9133878,1005.68036,5.6583639665303735,1005.6827761029956,0,0
5.46,9.085644,-1.352358,3.5961854,1005.65753,5.657579535919397,1005.6823813403907,0,0
5.48,9.224291,-1.3428255,3.5961885,1005.6902,5.6572853647076045,1005.6820606753276,0,0
5.5,9.229105,-1.4047917,3.4115498,1005.68005,5.6573175300182434,1005.6817700972464,0,0
5.52,9.066626,-1.6526535,3.3073962,1005.6625,5.657330897814242,1005.681443970104,0,0
5.539999999999999,9.157476,-1.6002222,3.4257593,1005.68756,5.6575683922715685,1005.6811778218686,0,0
5.56,9.162291,-1.8862164,3.3736839999999995,1005.67755,5.658079629692027,1005.6809295931288,0,0
5.579999999999999,9.20056,-1.9386494,3.0186067000000003,1005.6669,5.658687603529866,1005.6806597516793,0,0
5.6,8.870788000000003,-2.7489647999999995,2.2090266,1005.6849,5.6586946713672015,1005.6804365846684,0,0
5.619999999999999,8.775225,-2.8681297000000003,1.9770435,1005.7049,5.657953132012312,1005.6803274625928,0,0
5.64,8.7083435,-3.6450794,2.104876,1005.6647,5.657032663500358,1005.6801747834613,0,0
5.6599999999999975,8.579323,-3.8166764,1.9249715,1005.6772,5.65577662042037,1005.6800291669605,1,1
5.68,8.641492999999999,-4.0311723,2.1285539,1005.6967,5.654612930780712,1005.6799605152188,1,1
5.6999999999999975,8.545931,-3.8834093,2.3274024,1005.67975,5.653329138274673,1005.6798990966852,1,1
5.72,8.947466,-3.4544203,2.3842177,1005.6764,5.6523843263343325,1005.6798322305212,1,1
5.7399999999999975,9.736171,-2.1817505,3.141726,1005.6889,5.6529427912543895,1005.6798057915488,1,1
5.76,9.78878,-1.07591,3.7714047,1005.64355,5.655003448011625,1005.6796519092227,1,1
5.7799999999999985,10.35283,-0.40382636,3.23642,1005.6888,5.659026734163343,1005.6795488719266,1,1
5.8,11.480147,1.0452244000000002,3.0043685,1005.66113,5.6669693023533085,1005.6793915202327,1,1
5.8199999999999985,13.062266,2.6610873,3.3405118,1005.656,5.682150037127613,1005.6791682748033,1,1
5.84,14.462751999999998,3.8527267,4.4152217,1005.6662,5.7075419019043565,1005.6789243293524,1,1
5.8599999999999985,15.781981,3.8431933,5.7029805,1005.6962,5.745212240833171,1005.6787709715663,1,1
5.88,14.955079,0.7973631,4.8460535999999985,1005.67096,5.7905317340603215,1005.6786073451287,1,1
5.9,14.563139,-1.6621803,4.419957599999999,1005.64545,5.841550532387247,1005.6783433983665,1,1
5.92,13.803155,-3.4115067000000003,4.154831,1005.67084,5.896389621723912,1005.6780831627726,1,1
5.94,11.609228,-5.1274676,3.6340468,1005.69086,5.951056594810686,1005.6778992152164,1,1
5.96,10.581574,-5.160834,2.9854338,1005.693,6.003180780851438,1005.6777910419808,1,1
5.98,9.238454,-5.565991,2.4788527,1005.68567,6.050628166724138,1005.6777238243584,1,1
6.0,7.546406299999999,-7.806273,1.659801,1005.6957,6.093599552337196,1005.6777291451,1,1
6.02,4.4156384000000015,-10.156185,-0.4186022,1005.6605,6.13266659561985,1005.6776718215848,1,1
6.039999999999999,5.644051599999999,-10.566109,-1.5595934,1005.688,6.170216780149418,1005.6776583519687,1,1
6.06,6.2128525,-10.69004,-0.05405238,1005.67004,6.206882351806498,1005.6776190241493,1,1
6.079999999999999,7.546421,-9.555599,1.1816275,1005.6575,6.242361758331341,1005.6775118456006,1,1
6.1,10.409528,-8.82155,1.252644,1005.6572,6.27971810856745,1005.6773440199913,1,1
6.119999999999999,13.296532,-8.645187,1.5745839,1005.6775,6.32324547662879,1005.6771962908103,1,1
6.14,17.1156,-7.272419,2.8244672000000004,1005.6346,6.378038059109483,1005.6769124106596,1,1
6.1599999999999975,17.6366,-5.2085004,4.5572596,1005.6521,6.442870141038751,1005.6765722494799,1,1
6.18,13.817543,-3.4877727,3.3783932,1005.65717,6.507402382302423,1005.6762018349634,1,1
6.1999999999999975,13.420822,-2.4915624,3.7050674,1005.64154,6.570394257431804,1005.6757497540907,1,1
6.22,13.048001,0.049012154,3.4304721,1005.6818,6.6304420381549605,1005.675372076317,1,1
6.2399999999999975,11.551927,1.2597176,3.49202,1005.6818,6.684850210530379,1005.6750615007612,1,1
6.26,10.7441435,2.4275239,3.842366,1005.66144,6.73310693275602,1005.6747380387976,1,1
6.2799999999999985,10.748928,2.6038864,3.591443,1005.66943,6.775676424904817,1005.6744331188668,1,1
6.3,12.178093,2.6277192000000005,3.2268941000000004,1005.66144,6.815647120040878,1005.6741169163879,1,1
6.3199999999999985,15.390872,0.9784718,4.6993627999999985,1005.66644,6.859937939434742,1005.6738098829788,1,1
6.34,17.374520999999998,-1.0568486,4.5952085999999985,1005.6816,6.9117959968506835,1005.6735666326796,1,1
6.3599999999999985,16.781857000000002,-1.9148295,3.989208,1005.6686,6.968807902218027,1005.6733338168376,1,1
6.38,16.504662,-5.799575,3.956070200000001,1005.62604,7.031374571251732,1005.6729578430188,1,1
6.4,18.034231,-8.940736,3.3690069,1005.61096,7.103764493912866,1005.6724024403177,1,1
6.42,18.923307,-10.871193,4.3679695,1005.62335,7.188414025686755,1005.671735097706,1,1
6.44,16.906260999999994,-10.242008,4.6567707,1005.64557,7.279540988222334,1005.6710512394224,1,1
6.46,13.087239,-8.1923895,2.895576,1005.67346,7.366505150032957,1005.6704556537812,1,1
6.48,12.0930605,-7.467873599999999,2.7630146,1005.66534,7.446921592432909,1005.669910977955,1,1
6.5,9.449867,-7.0674834,2.6777990000000003,1005.6552,7.51631887251935,1005.6693767428744,1,1
6.52,6.26655,-6.7719580000000015,2.5263007,1005.6405,7.570462434297083,1005.6688007364827,1,1
6.539999999999999,4.2877519999999985,-5.432556,1.4563289,1005.6581,7.605749659604871,1005.6682532545841,1,1
6.56,2.5049167000000003,-6.5908303,0.58046705,1005.6681,7.624253125415832,1005.6677689478612,1,1
6.579999999999999,0.4305128,-9.474598,0.6562203000000001,1005.6424,7.632915506059319,1005.667249686229,1,1
6.6,3.695153700000001,-9.746293,1.0302415,1005.6656,7.634861000064154,1005.6667849277803,1,1
6.619999999999999,7.060156299999999,-10.141916,2.0528748,1005.6552,7.635130824956884,1005.6663325614752,1,1
6.64,11.992947,-9.956022,4.1076093,1005.62714,7.641385705727665,1005.6657917573863,1,1
6.6599999999999975,17.418064,-8.159032,3.7525332,1005.64185,7.660135015596901,1005.665227712567,1,1
6.68,19.616808,-8.73102,2.1712449,1005.6168,7.693981870979631,1005.6645549827994,1,1
6.6999999999999975,22.021082,-8.125667,2.0718253,1005.66986,7.745166805133662,1005.6639796568387,1,1
6.72,20.24302,-5.7328563,2.4931896,1005.6669,7.8065462173482025,1005.663481812055,1,1
6.7399999999999975,17.121847,-2.8824560000000004,5.5563525999999985,1005.6944,7.870568205140578,1005.6631532218807,1,1
6.76,16.041632,-1.9100788,6.6310644,1005.6715,7.935099973644041,1005.6628929280043,1,1
6.7799999999999985,12.189156,-2.0959756,2.597356,1005.68695,7.989821133012736,1005.6627495377941,1,1
6.8,10.496665,-1.0377892,2.228032,1005.67664,8.031816427771643,1005.662672843868,1,1
6.8199999999999985,10.415423,1.0737951,2.3227215,1005.6943,8.062300762404279,1005.6627189348774,1,1
6.84,11.6964245,2.627692,2.7724915,1005.6611,8.085786615818494,1005.6627538327276,1,1
6.8599999999999985,13.249871,3.6286688,3.6957014,1005.6787,8.106998468070406,1005.6628420746704,1,1
6.88,14.932378,1.5504497,5.7504344000000005,1005.6839,8.129970020626649,1005.6629958537816,1,1
6.9,14.459191,-2.9110477,5.295933,1005.6633,8.153571955609447,1005.6631328279312,1,1
6.92,14.468765,-4.484012,4.5242260000000005,1005.6834,8.17793187075422,1005.6633268201092,1,1
6.94,14.325384,-7.115152,4.590509,1005.6884,8.204602900591992,1005.6635884950454,1,1
6.96,15.467771,-8.454555000000001,4.5052910000000015,1005.6608,8.236448796577523,1005.6638096724364,1,1
6.98,17.198072,-9.045608,6.2191467000000005,1005.64545,8.277343050411652,1005.6639390099583,1,1
7.0,17.178963,-8.826346000000003,6.7872759999999985,1005.64014,8.326228294236742,1005.6639676161573,1,1
7.02,15.04241,-8.368757,5.750443,1005.67303,8.377170380153498,1005.6640255171762,1,1
7.039999999999999,13.316914,-8.6309185,4.931392,1005.6852,8.426564461532687,1005.6641529066549,1,1
7.06,10.253075,-8.511756,3.918231,1005.6905,8.46874296121721,1005.664360317534,1,1
7.079999999999999,5.382467,-9.045609,4.2165,1005.68,8.499092072714094,1005.6645998886439,1,1
7.1,3.838604,-8.440257,3.2506826,1005.6678,8.515733661020214,1005.6648230940773,1,1
7.119999999999999,3.0021522000000003,-7.639475999999997,1.5794387,1005.6571,8.517154917153869,1005.6649925152595,1,1
7.14,3.465808,-8.349692999999998,1.6788626,1005.6625,8.506860402056853,1005.6651332427617,1,1
7.1599999999999975,4.7563667,-9.384036,1.8824432,1005.6697,8.48935342056946,1005.6652740299085,1,1
7.18,6.644400599999999,-9.13141,1.5415671,1005.65967,8.467012214953513,1005.6653782549232,1,1
7.1999999999999975,10.453922,-7.9874363,0.7319855,1005.6595,8.444177065424544,1005.665449186429,1,1
7.22,14.272999,-7.2581534,0.3627031,1005.6745,8.426890726894097,1005.665544444436,1,1
7.239999999999997,16.52908,-5.8234205,-0.77828705,1005.67456,8.417740469531514,1005.6656610704114,1,1
7.26,16.52909,-6.8053308,0.5946914000000001,1005.68933,8.416524930298735,1005.6658493292696,1,1
7.2799999999999985,16.055906,-6.443073,1.7451531000000002,1005.69135,8.421292166822719,1005.6661074772113,1,1
7.3,15.2676935,-4.712824,2.1428845,1005.70685,8.428695906283863,1005.6664822498143,1,1
7.3199999999999985,14.034536,-3.5021190000000004,2.696813,1005.6663,8.435477305429142,1005.6668127427873,1,1
7.34,13.561367,-1.9339225,2.2565162,1005.6885,8.439957272403674,1005.6671828405043,1,1
7.3599999999999985,13.169453,0.86404526,1.5368893,1005.71436,8.441148336312637,1005.6676796966212,1,1
7.38,13.078666,1.7839901000000002,2.038739,1005.6686,8.439573161544281,1005.6681220317779,1,1
7.399999999999999,13.093038,2.6705692,2.4316976,1005.6583,8.436028684654971,1005.6684775198083,1,1
7.42,13.747903,3.0423596,3.7478652,1005.6779,8.432811854351042,1005.6688255499607,1,1
7.439999999999999,13.36555,-0.29899746,4.671077,1005.68304,8.429045333661566,1005.6691842414232,1,1
7.46,13.164827,-2.463015,4.761033,1005.67053,8.424916556877353,1005.6695060259308,1,1
7.479999999999999,12.189781,-3.4687595,3.9798596,1005.6854,8.418548764100189,1005.6698475730279,1,1
7.5,12.959359,-4.6603994,5.7931395,1005.68304,8.413669086530872,1005.6701968567802,1,1
7.52,17.414167000000006,-5.5469800000000005,8.842098,1005.67523,8.42126683394756,1005.6705236032193,1,1
7.539999999999999,18.996313,-7.911192999999999,8.316583999999999,1005.6449,8.443794823213958,1005.6707200714012,1,1
7.56,17.39989,-9.350694,7.450189599999999,1005.65216,8.477182397876202,1005.6708268544298,1,1
7.579999999999999,15.73655,-9.650987,7.3128943,1005.6472,8.517435631259941,1005.670836151238,1,1
7.6,13.81988,-9.021803,5.849966,1005.70496,8.558734709853448,1005.6709672117532,1,1
7.619999999999999,10.832535,-8.035127000000001,4.4438515,1005.64905,8.593930366694371,1005.6710041148621,1,1
7.64,8.6147375,-6.9817185,3.9325383,1005.71246,8.618544875673413,1005.6711859636356,1,1
7.659999999999997,6.9752946,-5.8901772,3.033004,1005.63904,8.629262681506372,1005.6712309197426,1,1
7.68,6.0719433,-5.5565190000000015,2.5453634,1005.66943,8.625574018721888,1005.6712641596476,1,1
7.699999999999997,5.0729957,-6.2190714000000025,2.1145356,1005.6641,8.608513048871421,1005.6712677394532,1,1
7.72,4.552027,-8.120928,2.0435221,1005.65155,8.582257842940061,1005.6711999187073,1,1
7.739999999999997,3.185035,-7.286782,2.7110763,1005.6489,8.545625592788017,1005.6710597125888,1,1
7.76,5.7709403,-5.017901,2.0861378,1005.644,8.498968746176006,1005.6708384114974,1,1
7.7799999999999985,9.159853,-5.413526,-0.15796748,1005.66113,8.449263688958617,1005.6706079195717,1,1
7.8,11.716921,-7.1628494000000025,-2.075413,1005.6635,8.403794371334005,1005.6703786683952,1,1
7.8199999999999985,14.565709,-7.1819167,-1.5830327,1005.6736,8.367278353590581,1005.6701876988498,1,1
7.84,14.6278715,-7.506042999999999,-1.3605133,1005.661,8.339179932253751,1005.6699858824437,1,1
7.8599999999999985,14.895564000000002,-7.072286599999999,-0.006471384300000001,1005.67566,8.318603365612109,1005.66982798429,1,1
7.88,15.971047,-7.758671799999999,2.3986087000000005,1005.66815,8.307715058781394,1005.6696824247383,1,1
7.899999999999999,16.888794,-6.018879,1.5038083,1005.67065,8.30558248784887,1005.6695572915892,1,1
7.92,15.617391,-2.8634186,1.276559,1005.7086,8.306905766586603,1005.6695872776892,1,1
7.939999999999999,14.866985,-0.25134617,2.8815246,1005.72076,8.30964999545666,1005.6697979952072,1,1
7.96,13.954067000000002,1.1357213,3.080372,1005.70074,8.311954961949052,1005.6700955764234,1,1
7.979999999999999,12.964675,1.8507042,1.8731011,1005.69324,8.311565335889679,1005.6704418391107,1,1
8.0,12.69225,0.8020611,2.0482762,1005.68304,8.308073033744181,1005.6707931502008,1,1
8.02,11.793671,-1.0092311,3.8284147000000006,1005.693,8.300935261482255,1005.6711835133392,1,1
8.04,10.383653,-1.6527168999999995,4.316060500000002,1005.6723,8.288368210998474,1005.6715324575599,1,1
8.059999999999999,10.3072,-2.915855,4.0035915,1005.6776,8.27119395889142,1005.6718626278264,1,1
8.08,11.540418,-5.3610997000000005,3.970454,1005.70996,8.25394823918311,1005.6722915168136,1,1
8.1,12.907465,-6.290579,6.044125,1005.6823,8.241376067228094,1005.6727065136622,1,1
8.12,13.261197,-6.781534700000001,6.6501316999999975,1005.6848,8.23450165389716,1005.6731167414284,1,1
8.139999999999999,12.161866,-7.086595,6.3566008,1005.67944,8.230884316740488,1005.6735019824137,1,1
8.16,11.397124,-8.344967,5.021501,1005.69965,8.22921633114165,1005.6739365142113,1,1
8.18,9.934526,-8.902655000000003,3.2839763,1005.67206,8.226671514298491,1005.6743137110568,1,1
8.2,7.9987309999999985,-7.763447800000002,2.1571906000000003,1005.6892,8.218404916422465,1005.6747005928293,1,1
8.219999999999999,7.3343634999999985,-5.9187910000000015,2.0577703,1005.67163,8.201564643952835,1005.6750313874294,1,1
8.24,7.3343887,-4.221897599999999,1.9867563,1005.67914,8.175226604629367,1005.6753384685434,1,1
8.26,8.027484,-3.8119738,1.4801772,1005.6717,8.1412484083737,1005.6755967069287,1,1
8.28,7.783739,-4.1265674,2.2140124,1005.6691,8.100797284378206,1005.6758014982214,1,1
8.299999999999999,8.30017,-3.7404811,2.5407057,1005.6841,8.05553729338593,1005.676012326414,1,1
8.32,8.247628,-4.064608,2.3844736,1005.6717,8.006288835467451,1005.6761830898296,1,1
8.34,7.454212700000001,-3.9454448,1.8968327,1005.6787,7.951917804498803,1005.6763430372604,1,1
8.36,7.712355,-3.230462,1.1582687,1005.6612,7.892793858722447,1005.676429851876,0,0
8.379999999999999,8.424577000000001,-3.2304628,-0.4514261,1005.6457,7.830914700699665,1005.6763959338035,0,0
8.4,9.098564,-3.735719,-1.2420685,1005.6408,7.768652300854749,1005.6762378184333,0,0
8.42,10.016315,-3.893016,-0.12474631,1005.6634,7.708007286358364,1005.6760518915455,0,0
8.44,11.048786,-3.587957100000001,0.2871499,1005.6807,7.650824882416981,1005.675904339738,0,0
8.459999999999999,12.468422,-3.2161665,0.27768415,1005.67053,7.599525148351858,1005.6757546153377,0,0
8.48,12.478014,-2.324821,0.49073538,1005.6627,7.553239485735268,1005.6755753222426,0,0
8.5,11.134919,-1.0712175,0.7511304,1005.6676,7.508452513653777,1005.6753881877036,0,0
8.52,9.944783,-1.3572117,1.9063283,1005.6571,7.463082703817017,1005.6751569981493,0,0
8.54,9.605449,-2.243792,2.0483634,1005.66,7.4170662450926175,1005.6748981538657,0,0
8.559999999999999,9.677176,-2.8920443,2.0199597,1005.6675,7.371113002634098,1005.6746428057028,0,0
8.58,9.629412,-3.4544992,2.701717,1005.665,7.3259649901727775,1005.6743824659654,0,0
8.6,9.06065,-2.982611,3.02366,1005.67255,7.280497249260135,1005.674145832896,0,0
8.62,8.974642999999997,-2.591754,2.8106143,1005.65497,7.234387649496047,1005.6738677109172,0,0
8.639999999999999,9.247124,-2.4201586,2.07205,1005.7001,7.1879299777154015,1005.673716398578,0,0
8.66,9.6247635,-2.586989,1.2530012,1005.6697,7.141881216740173,1005.6735682399598,0,0
8.68,9.753851,-2.9635477000000003,0.8505799,1005.657,7.0967434813223615,1005.673377681341,0,0
8.7,9.572249,-3.421138,0.69434744,1005.6795,7.052488791011764,1005.6732313440924,0,0
8.719999999999999,9.58184,-3.7690973,0.40555158,1005.6616,7.009413838046608,1005.6730601676613,0,0
8.74,9.275969,-3.9883602,-0.42770046,1005.6538,6.967124083850871,1005.6728395795627,0,0
8.76,8.774119,-3.9692943,-0.654949,1005.6713,6.924737410941937,1005.6726391254326,0,0
8.78,8.635539999999999,-3.873964,-0.24305268,1005.6613,6.882033943298921,1005.6724211833116,0,0
8.799999999999997,8.568779,-3.8835008,0.55707604,1005.64905,6.839113706460923,1005.6721444733936,0,0
8.82,8.506680000000001,-3.7500384,1.4329443000000002,1005.65607,6.796119340512964,1005.6718421044056,0,0
8.84,8.726586,-3.387781,1.3287908000000002,1005.6488,6.753315230246588,1005.671491979592,0,0
8.86,8.913034,-3.1494539,1.106277,1005.6888,6.710963584542191,1005.6712449181804,0,0
8.879999999999997,9.113826,-3.1637547,1.5276426,1005.6611,6.6696836545329825,1005.6709900930116,0,0
8.9,9.376754,-2.7967310000000003,1.702819,1005.6988,6.62984114127961,1005.6708650451576,0,0
8.92,9.644458,-2.5488706000000003,1.4613677,1005.67377,6.591724033891711,1005.6707650107112,0,0
8.94,9.74487,-2.31531,0.99739945,1005.6763,6.555234678781574,1005.6706965462358,0,0
8.959999999999997,9.577618,-2.2867117,1.0258095,1005.67865,6.519970824016879,1005.6706646834587,0,0
8.98,9.673249,-2.2628798,0.9689999,1005.6761,6.486086048192648,1005.6706560966487,0,0
9.0,9.811901,-2.2914803,1.1110355,1005.6761,6.4538649005361926,1005.6706681073953,0,0
9.02,9.687664,-2.2485821,1.1157734,1005.6709,6.422960771009718,1005.6706795549044,0,0
9.04,9.639902,-2.2104506,1.1489174,1005.6608,6.393225620568846,1005.6706541035257,0,0
9.06,9.482209,-2.334382,1.0494987,1005.7161,6.364349762068522,1005.6707952199147,0,0
9.08,9.35319,-2.5584114,1.1015803999999998,1005.68866,6.336207417659348,1005.6709842235648,0,0
9.1,9.233733,-2.8491720000000003,1.1536624,1005.6809,6.308757940809354,1005.6711869239847,0,0
9.12,9.300685,-3.0493681,1.0684464,1005.6831,6.282256501911055,1005.6714089171496,0,0
9.14,9.2624855,-3.0064702000000003,0.86013603,1005.68536,6.256542971004183,1005.6716552942083,0,0
9.16,9.209945,-3.0446037999999995,0.69916975,1005.6906,6.231512605138204,1005.6719411939183,0,0
9.18,9.224322,-3.049371,0.7559861,1005.6831,6.2072162128907635,1005.6722339866037,0,0
9.2,9.291273,-3.0446055,0.74652034,1005.65265,6.1837830161793885,1005.672422195869,0,0
9.22,9.37257,-2.8920765,0.8601498,1005.6881,6.161280912556324,1005.6726449376704,0,0
9.24,9.429967,-2.801513,0.43879122,1005.66504,6.139684246234897,1005.6728143745507,0,0
9.26,9.482582,-2.9349773,0.76073426,1005.655,6.119190706546246,1005.6728999572298,0,0
9.28,9.473061,-2.8968458,1.0495363000000002,1005.6954,6.099758184513807,1005.6730565782386,0,0
9.3,9.46672,-2.6632464,1.0541278,1005.68756,6.081185587591804,1005.6732471808807,0,0
9.32,9.069969,-2.7538102,1.049391,1005.66754,6.06270427328085,1005.6733950515242,0,0
9.34,8.878751,-2.920639,1.3523903999999998,1005.667,6.044177673333434,1005.6735026878392,0,0
9.36,8.840486,-2.872973,1.1914183,1005.68976,6.025527118822786,1005.6736563216107,0,0
9.38,8.964733,-3.0159688,1.1819471,1005.6796,6.00716753357457,1005.6738134696536,0,0
9.4,9.198917,-3.0112016,1.0825222,1005.6572,5.989562521252003,1005.6738925171736,0,0
9.42,9.423542,-2.934936,0.9878317,1005.68225,5.97306121578363,1005.6739924505,0,0
9.44,9.53823,-2.7156740000000004,0.7037649,1005.6645,5.957642185634312,1005.6740465787656,0,0
9.46,9.557326,-2.610809,0.4244329000000001,1005.7022,5.94318168389509,1005.6741957588181,0,0
9.48,9.490382,-2.753805,0.5854001999999999,1005.6818,5.929583960483957,1005.6743549495799,0,0
9.5,9.5668335,-2.8062367000000004,0.8363214,1005.6946,5.917017374302183,1005.6745684927192,0,0
9.52,9.552466,-2.782403,1.1109142,1005.66925,5.905420307709157,1005.6747380328627,0,0
9.54,9.456846,-2.8586674,1.0967088,1005.68726,5.894573851207633,1005.6749329176157,0,0
9.56,9.318205,-2.8586667,1.1393158,1005.6645,5.884165816547263,1005.6750675592798,0,0
9.58,9.184343,-2.9444642000000005,1.1629856,1005.7095,5.873977815653302,1005.6753104854407,0,0
9.6,9.279914,-2.872965,1.0114824,1005.66425,5.8641296572014685,1005.6754853172495,0,0
9.62,9.380263,-2.8443651,0.95466685,1005.6995,5.854786488781001,1005.6757262514927,0,0
9.64,9.385015,-2.839598,1.0304149,1005.682,5.845945570216776,1005.6759617264853,0,0
9.66,9.337192,-2.9063292,0.9262556,1005.66943,5.837504684902778,1005.6761462779727,0,0
9.68,9.208113,-2.801464,0.97833186,1005.7121,5.829139235839191,1005.6764387810667,0,0
9.7,9.222425,-2.80623,1.1582367,1005.66425,5.820942923785688,1005.6766533571887,0,0
9.72,9.265417,-2.8348289,1.1913751,1005.69147,5.813035942461642,1005.6768962965643,0,0
9.74,9.284512,-2.7585633,1.1582321000000002,1005.6718,5.805397078528353,1005.677092611129,0,0
9.76,9.179327,-2.8586602,1.2481831,1005.6793,5.797898297638638,1005.6772740212782,0,0
9.78,9.322695,-2.9158583,1.0730077,1005.69385,5.79082458438138,1005.6774939888094,0,0
9.8,9.429704,-2.825339,0.9264108,1005.65125,5.784277796468213,1005.6775938737602,0,0
9.82,9.291139,-2.9397378,1.0684474,1005.69403,5.778045877436731,1005.6777413021573,0,0
9.84,9.315086,-2.9445055,1.1252648,1005.6588,5.7721779320171125,1005.6778033812013,0,0
9.86,9.367714,-2.9254405,1.0968629,1005.68896,5.7667379507465935,1005.6778983980721,0,0
9.88,9.315182,-2.9397414,1.106336,1005.7169,5.761603231340136,1005.678122760746,0,0
9.9,9.310451,-2.8730109,1.1110749,1005.69147,5.756707456844502,1005.6783690576656,0,0
9.92,9.25314,-2.8777785,1.1300167,1005.70135,5.751934827400434,1005.6786694170167,0,0
9.94,9.210172,-2.9206786,1.1820996,1005.70435,5.7472429578773925,1005.6790272646381,0,0
9.96,9.387071,-2.9588122,1.0400718,1005.71387,5.742977970794308,1005.6794688926434,0,0
9.98,9.272408,-3.0541446,1.0258735,1005.6938,5.7389372943152726,1005.6799107071356,0,0
10.0,9.291577,-2.9683478,1.1300348,1005.70404,5.735116108351423,1005.680387959875,0,0
10.02,9.329862,-2.915917,0.94066286,1005.68854,5.731503919340098,1005.68083900774,0,0
10.04,9.258214,-2.9206846,1.0874339,1005.70135,5.727982630071608,1005.6813113932055,0,0
10.06,9.272599,-2.9731178,1.1868607,1005.6885,5.7246394483033045,1005.6817546719876,0,0
10.08,9.253533,-2.9921854,1.0827086,1005.66327,5.721415203321753,1005.6820798083003,0,0
10.1,9.258363,-3.0446188,1.1347916,1005.696,5.71836296089191,1005.682417211436,0,0
10.12,9.334883,-3.0303202,0.9501538,1005.6935,5.7155741580929735,1005.6827552388856,0,0
10.14,9.655179,-2.9778893,0.77971977,1005.71387,5.71359706054196,1005.6831659330804,0,0
10.16,9.607433,-2.6966636000000004,0.61402047,1005.7038,5.712060746118982,1005.6836031051117,0,0
10.18,9.478424,-2.5441349,0.64716554,1005.6784,5.710582004720143,1005.6839706591395,0,0
10.2,9.315958,-2.544136,0.83654594,1005.7085,5.708864379883617,1005.6843837355065,0,0
10.22,9.134375,-2.7252665,1.1537554,1005.7263,5.706751792474699,1005.684899628336,0,0
10.24,8.967133500000003,-2.9826617000000004,1.6603416000000002,1005.7061,5.704283470340399,1005.6854317925785,0,0
10.26,8.96718,-2.8777988,1.5230482,1005.7011,5.701395571007171,1005.6859584184496,0,0
10.28,9.359174,-2.6633048,1.4567709999999998,1005.68823,5.698769155883875,1005.6864319227627,0,0
10.3,9.506114,-2.744306,1.1489218,1005.6807,5.696636010468907,1005.6868296762524,0,0
10.32,9.573029,-2.401114,0.6376059000000001,1005.6985,5.694799533501634,1005.6872231444008,0,0
10.34,9.501329,-2.6871073,0.6707465,1005.71356,5.693245556793629,1005.6876656255373,0,0
10.36,9.2957945,-2.8062713,0.5476517,1005.6733,5.691591014200663,1005.6880048856173,0,0
10.38,9.262335,-2.7109400000000003,0.77016854,1005.69885,5.689762141793555,1005.6883436982356,0,0
10.4,9.381827,-2.8205707,1.1015767,1005.67847,5.688153276272106,1005.6886075277516,0,0
10.42,9.46308,-2.6775740000000003,1.0068883,1005.6834,5.6868020079912815,1005.6888219004124,0,0
10.44,9.515656,-2.3486814,1.0258256,1005.706,5.685618278024018,1005.6890731612536,0,0
10.46,9.085471,-2.9063687,1.2104672,1005.6784,5.684089566397972,1005.6892567519524,0,0
10.48,8.703084,-3.0016997,1.3193582,1005.7158,5.681606272970503,1005.689514528387,0,0
10.5,8.860814999999997,-2.911135,1.4424525,1005.6709,5.678574059426966,1005.6896752873424,0,0
10.52,9.290996,-2.706173,1.4945308000000002,1005.7108,5.6758038300060365,1005.6898933829207,0,0
10.54,9.525203,-2.606075,1.3146232,1005.721,5.673629614748454,1005.6901980759957,0,0
10.56,9.386586,-2.5250437000000003,1.0589652,1005.7108,5.671606174111174,1005.6905414697226,0,0
10.58,9.429603,-2.5822423,1.0305585,1005.7009,5.669833710902598,1005.6908821831288,0,0
10.6,9.549095,-2.572709,1.2767472,1005.7009,5.668581880413162,1005.6912193016354,0,0
10.62,9.60645,-2.5059772,1.3998415000000002,1005.70306,5.667907796057329,1005.6915598060616,0,0
10.64,9.219282000000002,-2.6728067,1.5324046999999998,1005.6857,5.667111301393232,1005.6918395804712,0,0
10.66,9.343555,-2.6918728,1.6886398,1005.71356,5.6665185170655885,1005.6921649826497,0,0
10.68,9.529965,-2.582242,1.7075771,1005.70306,5.66642182117265,1005.6924917300772,0,0
10.7,9.515624,-2.6346738,1.8448746,1005.68823,5.6668143827991235,1005.6927651018756,0,0
10.72,9.501282000000002,-2.644207,1.6223576000000002,1005.6831,5.667534749690452,1005.69297185883,0,0
10.74,9.24317,-2.9540331,1.6223573999999998,1005.70306,5.6682169168259025,1005.6931908665832,0,0
10.76,9.219268,-2.9492667,1.6886386999999998,1005.71826,5.668836453553627,1005.6934746307139,0,0
10.78,9.424798,-2.663273,1.5039967,1005.7312,5.6695708598698245,1005.6938611760297,0,0
10.8,9.520922,-2.548889,1.5703267,1005.7185,5.670553440941773,1005.6942914272367,0,0
10.82,9.0812,-2.930214,1.7123605,1005.7135,5.6711576396300805,1005.6947407480652,0,0
10.84,8.999961,-3.0303118,1.2862659,1005.7185,5.6711935240313425,1005.6952233012564,0,0
10.86,9.272428,-2.8634827,1.3336115,1005.6981,5.671168939883024,1005.6956600413713,0,0
10.88,9.372823,-2.6060894,1.399895,1005.7208,5.671159353814909,1005.696136448788,0,0
10.9,9.463657,-2.582257,1.286271,1005.70557,5.67129817418729,1005.696591363166,0,0
10.92,9.473238,-2.6585224,1.4283049,1005.6884,5.671668918641001,1005.6969638366028,0,0
10.94,9.38244,-2.7061884,1.2957432,1005.7009,5.6720524050283165,1005.6973071243198,0,0
10.96,9.497171,-2.4201953,1.4661833999999998,1005.7009,5.672568909365001,1005.6976233876989,0,0
10.98,9.167384,-2.858719,1.6224205,1005.7058,5.672845891095418,1005.6979322738248,0,0
11.0,9.043128,-2.9349844,1.4141085,1005.7156,5.672646711231216,1005.6982688094199,0,0
11.02,9.124405,-2.7776887,1.2578748,1005.7082,5.672044864849696,1005.6986019245579,0,0
11.04,9.392097,-2.844421,1.0590321000000005,1005.6956,5.671608844545893,1005.6988854581656,0,0
11.06,9.344312,-3.0398502,1.0400956,1005.7006,5.671343530634035,1005.699142160812,0,0
11.08,9.38735,-2.8539548,0.7891739999999999,1005.6855,5.671151139266758,1005.6993198714913,0,0
11.1,9.6072445,-2.415432,1.044834,1005.6956,5.671268925090383,1005.69946350511,0,0
11.12,9.272676,-2.6013284,0.85072505,1005.7135,5.671051309052558,1005.6996409511572,0,0
11.14,9.12452,-2.8396566,1.2247446000000002,1005.7006,5.670467839209977,1005.6998011950604,0,0
11.16,9.26315,-2.6060956,1.3667781,1005.7185,5.6697398906719165,1005.7000101022712,0,0
11.18,9.487819,-2.477399,1.1442628,1005.698,5.669205143577972,1005.700187456314,0,0
11.2,9.435266,-2.8634906000000004,1.4993454,1005.6954,5.6690531535918725,1005.700326931504,0,0
11.22,9.4974165,-2.949289,1.2862984,1005.70557,5.669352345597282,1005.7004690468283,0,0
11.24,9.430522,-2.8444257,0.6518901999999999,1005.7258,5.6697249866416515,1005.70068581136,0,0
11.26,9.526136,-2.8491924,0.48618785,1005.7006,5.670334270951394,1005.7008770355794,0,0
11.28,9.832065,-2.806294,0.396236,1005.67303,5.67172705300909,1005.7009457519716,0,0
11.3,9.817648,-2.4869328,0.46251062,1005.688,5.67361154189559,1005.7009598650689,0,0
11.32,9.39704,-2.7633932,0.9454213,1005.71796,5.6753046731464085,1005.7010335358873,0,0
11.34,9.048129,-2.9349897,1.2626276,1005.7007,5.676313868762282,1005.7010974306927,0,0
11.36,8.856952,-2.8396592000000003,1.1016593,1005.7156,5.676237836071553,1005.7012060973932,0,0
11.38,8.847407,-2.939757,1.1253326,1005.70306,5.675254390707269,1005.7013087893383,0,0
11.4,9.105533,-2.8301267999999995,1.3525854,1005.7156,5.673971477680694,1005.7014509762996,0,0
11.42,9.330197,-2.6775973,1.0353818,1005.7158,5.672701265568018,1005.7016282691844,0,0
11.44,9.315873,-2.834894,1.3667915000000002,1005.72815,5.671594936002817,1005.7018804034076,0,0
11.46,9.554878,-3.0827553,1.2957768,1005.72046,5.6712402079862105,1005.7021700757556,0,0
11.48,9.860802,-2.8825605,0.6518991999999999,1005.7082,5.671906296511812,1005.7024477379692,0,0
11.5,9.645724,-2.6204002,0.5572123999999999,1005.72314,5.672883135774478,1005.7027675724446,0,0
11.52,9.483227,-2.5107696,0.57615143,1005.70795,5.673748671656128,1005.7030688349263,0,0
11.54,9.143876,-2.6442337000000005,0.4057142,1005.69794,5.673889823220514,1005.7033165666493,0,0
11.56,8.904900999999997,-3.0446246,0.6850455,1005.67535,5.673200699971348,1005.7034347827596,0,0
11.58,8.818878,-3.1923883,0.969111,1005.7131,5.671765755603419,1005.703574033297,0,0
11.6,9.201278,-2.8634963,0.9643781,1005.70795,5.670208724971776,1005.7037128285518,0,0
11.62,9.55022,-2.5822697,1.2153028,1005.7049,5.6691373164381895,1005.7038397418562,0,0
11.64,9.688848,-2.3153427000000004,1.3478675,1005.71545,5.668675307396217,1005.7039936793813,0,0
11.66,9.636285,-2.3439426,1.2105712,1005.7027,5.668625484141085,1005.7041250413324,0,0
11.68,9.531144,-2.515539,0.9785868,1005.7124,5.668763584026685,1005.7042709026041,0,0
11.7,9.545499,-2.6680694,0.97858816,1005.7024,5.669178611160375,1005.7043930503745,0,0
11.72,9.535953999999998,-2.491707,0.9359799,1005.7002,5.669714002948054,1005.7044858851624,0,0
11.74,9.282639,-2.3630104,0.9407156,1005.7052,5.6697808084537575,1005.7045704847948,0,0
11.76,9.206178,-2.606105,1.1727028999999998,1005.6898,5.669464034249014,1005.7045920632847,0,0
11.78,9.187073,-2.6347048,1.1395632,1005.6898,5.6687794603793975,1005.7045578786103,0,0
11.8,9.23391,-2.744312,1.1773505,1005.70483,5.667937943622987,1005.7045286526692,0,0
11.82,9.267344,-2.7633777000000004,1.2862397,1005.7027,5.6670667138656485,1005.704496245478,0,0
11.84,9.506311,-2.7157116,1.2483624,1005.68225,5.666607550366327,1005.7043875240004,0,0
11.86,9.687919,-2.434484,0.9122174,1005.70233,5.6666504321231255,1005.704284050616,0,0
11.88,9.506264,-2.3915844,0.8506681,1005.6999,5.666739039242778,1005.7041768389515,0,0
11.9,9.377187,-2.4392495,0.88380677,1005.7202,5.666639406500933,1005.7041397901044,0,0
11.92,9.362822,-2.5298135,0.9879614,1005.6974,5.66641390105088,1005.7040827904988,0,0
11.94,9.32934,-2.50598,1.2388827,1005.7199,5.666058030427287,1005.7040893676016,0,0
11.96,9.319756,-2.563178,1.3761781000000002,1005.6974,5.665638366724018,1005.704071097406,0,0
11.98,9.291056,-2.6156096,1.2814881,1005.72473,5.665109033740487,1005.7041293259108,0,0
12.0,9.31493,-2.6918743,1.1678601999999998,1005.697,5.6645455182158075,1005.704155111044,0,0
12.02,9.310125,-2.5965424,1.1205138,1005.69226,5.663878989548647,1005.704135072388,0,0
12.04,9.439157000000002,-2.572709,1.0258235999999998,1005.69434,5.6633461399266745,1005.7040821039712,0,0
12.06,9.596867,-2.6442068,0.997415,1005.7074,5.663280867325533,1005.7040472455037,0,0
12.08,9.544265,-2.691872,1.035288,1005.7043,5.663558688958495,1005.704017354478,0,0
12.1,9.35305,-2.6156065,0.9642699,1005.68176,5.663700411403393,1005.7039108162917,0,0
12.12,9.333906,-2.3915777,1.0116117,1005.707,5.6635732458900225,1005.7038278002117,0,0
12.14,9.410359,-2.410643,1.0542191,1005.7195,5.663381191937878,1005.7038108671222,0,0
12.16,9.453354,-2.4583082000000003,1.2625307,1005.71686,5.663294121248616,1005.7038428819228,0,0
12.18,9.477229,-2.5202727000000005,1.3193414,1005.71405,5.663395622498162,1005.703907915826,0,0
12.2,9.415068,-2.5727043,1.2719953000000002,1005.6938,5.663554915310504,1005.7039289912856,0,0
12.22,9.329007,-2.463073,1.1441641000000002,1005.7343,5.663501789752673,1005.7040569491933,0,0
12.24,9.252508,-2.5917695,1.1630996,1005.71387,5.663183228621348,1005.7042053397834,0,0
12.26,9.285942,-2.6728005,1.1157534,1005.72186,5.662731794257428,1005.7044000144854,0,0
12.28,9.395854,-2.6727998,1.1062823999999998,1005.7288,5.662380552299575,1005.7046598689999,0,0
12.3,9.560481,-2.6204195,1.0354599,1005.67865,5.662401695810517,1005.7047958409206,0,0
12.32,9.460168,-2.5822887000000003,0.9739183,1005.71387,5.662517961600213,1005.7049486526823,0,0
12.34,9.402867,-2.6537883,0.954986,1005.7114,5.662639352412733,1005.7051069020056,0,0
12.36,9.355121,-2.5489254,0.86030257,1005.7089,5.662593349756906,1005.7052603862604,0,0
12.38,9.374317,-2.5870595,1.1207018,1005.7113,5.662513648171758,1005.7054177475572,0,0
12.4,9.407834,-2.5870610000000003,1.3195522,1005.6938,5.662522461527032,1005.7055149681081,0,0
12.42,9.498713,-2.6204286,0.94553995,1005.69574,5.6627194374884375,1005.7055656823012,0,0
12.44,9.336258,-2.725294,0.96448296,1005.7065,5.662821732163491,1005.7056138569064,0,0
12.46,9.073434,-2.7586617,0.9834266,1005.72614,5.662342813982161,1005.7057303181024,0,0
12.48,9.15953,-2.815862,0.80352455,1005.7161,5.661522149278965,1005.7058705540704,0,0
12.5,9.298205,-2.7062327999999995,0.83667105,1005.70105,5.660618377245477,1005.7059771125766,0,0
12.52,9.441658,-2.6156695,1.1112717,1005.68604,5.659935409591951,1005.7059994940677,0,0
12.54,9.67593,-2.3964093,0.6520403,1005.7161,5.6597191080964135,1005.7060556321744,0,0
12.56,9.374865,-2.7110035,0.82721895,1005.7086,5.65950938780855,1005.7061143955298,0,0
12.58,9.183731,-2.796803,1.1491637,1005.6827,5.659045843499622,1005.7060820270067,0,0
12.6,9.523159,-2.3821144,0.8177611,1005.7231,5.658737719170784,1005.7061146908824,0,0
12.62,9.551901,-2.386882,1.1160343,1005.72577,5.658688768625455,1005.7062143117956,0,0
12.64,9.523284,-2.482215,1.1255088,1005.7236,5.658862659071323,1005.7063649253123,0,0
12.66,9.604603,-2.539415,1.059233,1005.74585,5.6594101943917785,1005.7066401536844,0,0
12.68,9.489945,-2.5489497,1.2628175,1005.7108,5.660111669761357,1005.7068983209207,0,0
12.7,9.43265,-2.472686,1.0308374,1005.6977,5.660735849257683,1005.7070933235353,0,0
12.72,9.408813,-2.5394197,0.9077486,1005.7178,5.661252008690759,1005.7073041718812,0,0
12.74,9.3562975,-2.6776512,0.8698790999999999,1005.7027,5.661635622990085,1005.7074739024604,0,0
12.76,9.4901905,-2.696719,0.8888219999999999,1005.7102,5.6621816346081815,1005.7076336903516,0,0
12.78,9.375541,-2.7920516,0.8604216999999998,1005.6997,5.6626911727183975,1005.707746317647,0,0
12.8,9.3160095,-2.7681656,0.7560657,1005.7074,5.663016433174037,1005.7078445883817,0,0
12.82,9.3351,-2.668067,0.7750008,1005.7102,5.663160725164112,1005.7079398998843,0,0
12.84,9.244256,-2.6871326,0.77026385,1005.70734,5.6629738972887935,1005.7080219574887,0,0
12.86,9.158195,-2.7252645,0.81760544,1005.6923,5.662354548772553,1005.7080378645413,0,0
12.88,9.172505,-2.7061975,0.64716434,1005.7222,5.6613454010743025,1005.7081029037004,0,0
12.9,9.425807,-2.725263,0.8980853000000001,1005.68976,5.660551723274377,1005.708094337848,0,0
12.92,9.3923235,-2.8491929,0.9028174,1005.7227,5.659958596522423,1005.7081393494444,0,0
12.94,9.4783325,-2.863492,0.82233006,1005.69214,5.6597092537468985,1005.7081215240332,0,0
12.96,9.430506,-2.6156301,1.182142,1005.69714,5.659602738841087,1005.7080662400133,0,0
12.98,9.468717,-2.5965633,0.91701305,1005.7274,5.659629791282097,1005.7080869925893,0,0
13.0,9.368316,-2.7252598,0.77024406,1005.6995,5.659620956140733,1005.708074416392,0,0
13.02,9.325269,-2.83489,0.89807045,1005.6845,5.6595823656845425,1005.7079784361653,0,0
13.04,9.396938,-2.7586246,0.70395726,1005.68195,5.659581675974572,1005.7077999256663,0,0
13.06,9.435146,-2.8301222000000004,0.9122684,1005.70166,5.65976798392104,1005.7076200900574,0,0
13.08,9.339526,-2.7300239,0.8791253000000001,1005.7094,5.659863976646798,1005.707467594989,0,0
13.1,9.420753,-2.6918907,0.8885914,1005.70215,5.6600212070493825,1005.7073137070047,0,0
13.12,9.444627,-2.7300224,0.86491704,1005.7142,5.6602969090797774,1005.7072025222363,0,0
13.14,9.554533,-2.8396525,0.8649145,1005.72473,5.660958533459383,1005.7071673782953,0,0
13.16,9.573625,-2.9206834,0.8791151,1005.7267,5.662047576147728,1005.7072066425467,0,0
13.18,9.492342,-2.830118,0.8175654,1005.7116,5.6632841828398,1005.7072571525264,0,0
13.2,9.401496,-2.6346886,0.65185857,1005.71387,5.664327658752378,1005.7073255893953,0,0
13.22,9.387131,-2.8539493,0.9595925,1005.73456,5.665347974790376,1005.7074841040908,0,0
13.24,9.267608,-2.79675,0.97852755,1005.7239,5.666077162893583,1005.7076832649008,0,0
13.26,9.095507,-2.896847,1.0826819,1005.6709,5.666291123738732,1005.7077268236392,0,0
13.28,9.1624,-2.9826446,0.992726,1005.7134,5.6662148617997445,1005.7077857355748,0,0
13.3,9.335071,-2.7872305,0.83654535,1005.7088,5.666072584599595,1005.7078414415137,0,0
13.32,9.32551,-2.672833,0.8460139000000001,1005.7488,5.665788661854383,1005.7080381140912,0,0
13.34,9.454561,-2.7443314,0.90756094,1005.7185,5.66568974363518,1005.7082495567703,0,0
13.36,9.5023575,-2.6442335,0.7276534,1005.6907,5.6657622713013245,1005.7083732091174,0,0
13.38,9.320722,-2.6347005,0.90756047,1005.711,5.665649648677168,1005.7084919247784,0,0
13.4,9.28726,-2.6728327000000003,0.9407011,1005.70825,5.6653354440591706,1005.7085959510068,0,0
13.42,9.511908,-2.720498,0.9170289,1005.71576,5.665313602406541,1005.7087136591588,0,0
13.44,9.535806,-2.6585329,0.9122942,1005.69775,5.665562011119912,1005.7087781969092,0,0
13.46,9.449765,-2.444038,0.85074675,1005.68054,5.665749642725863,1005.7087335649563,0,0
13.48,9.2346735,-2.7729301,0.9454346,1005.6753,5.665655384194041,1005.7085737673292,0,0
13.5,9.124735,-2.9635923,0.88388705,1005.7029,5.665200814093393,1005.7084121445832,0,0
13.52,9.100832,-2.930226,1.1016695,1005.7156,5.6644079373792895,1005.7082952110044,0,0
13.54,9.406738,-2.653766,0.9359652,1005.6998,5.663723093541106,1005.7081613057344,0,0
13.56,9.52623,-2.4154382,0.92176163,1005.7328,5.663244671937343,1005.7081316863374,0,0
13.58,9.444972,-2.6299330000000003,0.92176145,1005.7104,5.662901947728584,1005.7081136805673,0,0
13.6,9.344593,-2.6680655,0.86021405,1005.7029,5.662490179991997,1005.7080790014188,0,0
13.62,9.368489,-2.7872295,1.0022458,1005.72003,5.6621634310941875,1005.708091382518,0,0
13.64,9.344587,-2.7776961,1.00698,1005.6748,5.661861001877326,1005.7079824734803,0,0
13.66,9.320686,-2.7776961,0.9312294,1005.7124,5.661518178910398,1005.70790214455,0,0
13.68,9.521435,-2.7014313,0.8460098,1005.715,5.661479848774578,1005.7078567181868,0,0
13.7,9.516654,-2.6203997,0.93596333,1005.69684,5.661672802977598,1005.7077769192668,0,0
13.72,9.444954,-2.6680650000000004,0.8270716999999999,1005.7024,5.6619327731105145,1005.7076870520316,0,0
13.74,9.449732,-2.5870335,0.7560555,1005.7398,5.662203700694753,1005.7077232519556,0,0
13.76,9.397151,-2.691898,0.89808744,1005.69464,5.662461910626951,1005.7077081385013,0,0
13.78,9.315891,-2.7538629,0.99277526,1005.70184,5.662601369546041,1005.707673658954,0,0
13.8,9.383089,-2.6728384,0.86497194,1005.69714,5.6626969679951475,1005.7076052716542,0,0
13.82,9.497812,-2.668072,0.87444144,1005.7224,5.662981066609732,1005.707598105658,0,0
13.84,9.249271,-2.8158355,1.0780216,1005.7142,5.663065283207474,1005.7076155406037,0,0
13.86,9.297077,-2.6013408,0.91705275,1005.722,5.662908761644392,1005.7076827301753,0,0
13.88,9.521737,-2.4345114,0.9596632,1005.7044,5.662908331895933,1005.7077302810519,0,0
13.9,9.459609,-2.5727417,1.0969616000000002,1005.7166,5.663024267274263,1005.7078042279946,0,0
13.92,9.416599,-2.7205052000000003,1.0590873,1005.6891,5.663230868533278,1005.7078022322928,0,0
13.94,9.36403,-2.6394740000000003,0.8318366,1005.6995,5.663320749220003,1005.7077705808543,0,0
13.96,9.402278,-2.596575,0.99280727,1005.7266,5.6633907464661135,1005.7078103995523,0,0
13.98,9.206314,-2.739572,1.0022768,1005.7089,5.663136988925334,1005.7078495059152,0,0
14.0,9.129847,-2.7157395,0.6756036999999999,1005.70905,5.662372959134902,1005.7078883820762,0,0
14.02,9.082057,-2.9826667,1.3762963,1005.7114,5.66138680392312,1005.7079353748767,0,0
14.04,9.45489,-2.6299422000000003,1.1206393,1005.7015,5.660664691949247,1005.7079537303656,0,0
14.06,9.641312,-2.601343,1.1537809,1005.70874,5.6605420046076205,1005.7079727798464,0,0
14.08,9.555284,-2.658542,0.9596712,1005.72144,5.6607665761479575,1005.70803809396,0,0
14.1,9.60787,-2.4678795,0.7655613,1005.7262,5.6612653865158205,1005.7081611883724,0,0
14.12,9.431026,-2.6013434,0.9170631,1005.7216,5.661748745549315,1005.7083183343174,0,0
14.14,9.32588,-2.8444378,0.8365790000000001,1005.7133,5.662133039403223,1005.7084751224704,0,0
14.16,9.431045,-2.6347098,0.78923583,1005.72144,5.6625075350605085,1005.7086603340421,0,0
14.18,9.364136,-2.7157416000000003,1.2958179,1005.7055,5.662896577869358,1005.7088126097838,0,0
14.2,9.297226,-2.763407,1.1253799999999998,1005.7083,5.663148598800553,1005.708945315234,0,0
14.22,9.273335,-2.7062087000000004,1.1348497,1005.7008,5.663200248578132,1005.7090332506352,0,0
14.24,9.40718,-2.6251776,1.1774601,1005.7033,5.6633048659285405,1005.7090903106532,0,0
14.26,9.459766,-2.6728435,0.8697246999999999,1005.6905,5.663520741861817,1005.7090738037667,0,0
14.28,9.526691,-2.5060142999999995,0.81764704,1005.6977,5.663867694374398,1005.7090182725883,0,0
14.3,9.622295,-2.4488156,0.89339817,1005.6955,5.664504771572004,1005.7089205394575,0,0
14.32,9.254978,-2.8253913,1.1396537,1005.7202,5.6649270106103335,1005.7088747885216,0,0
14.34,9.298028,-2.7157612,0.8224516,1005.71545,5.66511185997294,1005.7088580337556,0,0
14.36,9.489258,-2.6680968,1.1112536,1005.71265,5.665498415050366,1005.7088568803232,0,0
14.38,9.302884,-2.8396938,1.1538669,1005.7077,5.665802376621988,1005.7088516963806,0,0
14.4,9.384175,-2.7062309,0.6993672,1005.72784,5.666025538614272,1005.7089154737422,0,0
14.42,9.331633,-2.7443642999999995,1.0733882,1005.7178,5.666164562385223,1005.7090038117134,0,0
14.44,9.350786,-2.7491317000000004,0.86507773,1005.6849,5.6662266395277845,1005.7089950934227,0,0
14.46,9.542014,-2.5298707,0.86981547,1005.69226,5.666480492725617,1005.7089271436045,0,0
14.48,9.537273,-2.5584712000000005,1.0497264,1005.67487,5.6669448337910895,1005.708744497428,0,0
14.5,9.097567,-2.9445632,1.0734015,1005.69476,5.666953667951844,1005.708532767076,0,0
14.52,9.322253,-2.7348359,1.0449984,1005.6894,5.666869434683857,1005.7082768041755,0,0
14.54,9.437006,-2.5823069,1.0260643,1005.7069,5.666841325383851,1005.7080456788617,0,0
14.56,9.403584,-2.6299732,1.0450052,1005.7274,5.666826746712159,1005.7079111320903,0,0
14.58,9.475318,-2.5537092999999995,0.9219141,1005.7044,5.6668998939567885,1005.7077796064876,0,0
14.6,9.389315,-2.6156752,1.0639492,1005.7172,5.666942462406997,1005.7076973038817,0,0
14.62,9.370234,-2.5966096000000003,1.0686871,1005.7041,5.666910400684844,1005.7076116310052,0,0
14.64,9.303353,-2.6395097,1.1302377,1005.70905,5.666717850522892,1005.7075411085796,0,0
14.66,9.322507,-2.796807,1.1917881,1005.69653,5.666528280154526,1005.7074391549736,0,0
14.68,9.365563,-2.6728776,1.0971036,1005.7266,5.666332490503893,1005.7074180478096,0,0
14.7,9.456414,-2.558481,0.9456059,1005.7116,5.666216779663731,1005.7074144525473,0,0
14.72,9.317837,-2.6156805,0.98348457,1005.70654,5.665935118729829,1005.7074081277444,0,0
14.74,9.231835,-2.801577,1.0592381000000002,1005.7036,5.665461472392111,1005.7073888298886,0,0
14.76,9.437401,-2.7586792,0.9408812,1005.69867,5.665176779838108,1005.7073403905156,0,0
14.78,9.475677,-2.701481,1.0829166,1005.71655,5.665133491367991,1005.7073307440796,0,0
14.8,9.532635,-2.5108092,0.9361136,1005.6962,5.66528189126811,1005.7072821498103,0,0
14.82,9.484855,-2.539409,1.0970848999999998,1005.69867,5.66555322514581,1005.7072082081746,0,0
14.84,9.446636,-2.4679112,0.95505464,1005.69116,5.665787273849848,1005.707085099796,0,0
14.86,9.394078,-2.591842,1.1160262,1005.7315,5.665984379254938,1005.7070642148732,0,0
14.88,9.370197,-2.7634382,1.116028,1005.68616,5.666197956217732,1005.706970505782,0,0
14.9,9.341538,-2.7682056,1.0923576000000002,1005.7111,5.6663658166197335,1005.706902570608,0,0
14.92,9.3176565,-2.7729726,0.9882024,1005.7086,5.666425161078808,1005.7068486538342,0,0
14.94,9.322454,-2.6919417,0.9740008,1005.7132,5.666347818151166,1005.7068238778188,0,0
14.96,9.379829,-2.7157748,1.0260806999999998,1005.7237,5.6662886853549805,1005.7068627397716,0,0
14.98,9.375071,-2.6871758,0.98820764,1005.6962,5.666211954326676,1005.70685869233,0,0
15.0,9.475466,-2.5775456,0.92192763,1005.69574,5.666245586837912,1005.7068150887179,0,0
15.02,9.422906,-2.5775461,1.0734302,1005.7057,5.66630367783855,1005.7067725462473,0,0
15.04,9.356008,-2.6490447999999995,1.0923694,1005.7108,5.66629398747394,1005.7067494545537,0,0
15.06,9.389484,-2.5298812,0.90299505,1005.71295,5.666185373308524,1005.7067513726964,0,0
15.08,9.370385,-2.7062442000000004,1.1207794,1005.69037,5.6660965005191954,1005.706694094626,0,0
15.1,9.317825,-2.76821,1.0876403,1005.6929,5.665949435895952,1005.7065938249823,0,0
15.12,9.317844,-2.7491443,0.9882196,1005.6824,5.665718388168473,1005.706418128955,0,0
15.14,9.437358,-2.6395137,0.9929557,1005.71045,5.66558987887225,1005.7062773986812,0,0
15.16,9.3704605,-2.6585808,0.9361446,1005.7074,5.665418340539483,1005.7061570907756,0,0
15.18,9.423057,-2.7300794,0.93141186,1005.71295,5.6653538464775615,1005.706075241184,0,0
15.2,9.489993,-2.6252155,1.0403048,1005.6997,5.6654808640171925,1005.7059799680163,0,0
15.22,9.456552,-2.5775506,1.0545098,1005.71045,5.6656870414872005,1005.7059118767604,0,0
15.24,9.337075,-2.6585824,0.9408858,1005.7125,5.665745392130396,1005.7058754285704,0,0
15.26,9.322754,-2.7920465,1.0497787,1005.725,5.6657449182618675,1005.7059120714067,0,0
15.28,9.399254,-2.6156845,1.0781871,1005.70465,5.6657496109111385,1005.7059399055603,0,0
15.3,9.384303,-2.5823035,0.9739744,1005.7072,5.6656879834690175,1005.705969036158,0,0
15.32,9.360397,-2.6776345,0.95977056,1005.69214,5.665570724448558,1005.705944991424,0,0
15.34,9.384292,-2.6967006,1.0402548,1005.7097,5.665480155914433,1005.705937263528,0,0
15.36,9.365167,-2.701467,1.0260513,1005.7398,5.665375127327378,1005.7060523410105,0,0
15.38,9.3556,-2.4917383,0.92662805,1005.7145,5.665102039546688,1005.7061844350459,0,0
15.4,9.240878,-2.8873625,1.2627701999999998,1005.71466,5.664759355767273,1005.7063316653696,0,0
15.42,9.212193,-3.063725,1.0733935,1005.6842,5.66436469080732,1005.7063820840888,0,0
15.44,9.446398,-2.5298703,0.7135781,1005.67664,5.664004181541968,1005.7063195625658,0,0
15.46,9.704499,-2.4250062000000003,1.0781267,1005.71936,5.664206264295652,1005.706311264123,0,0
15.48,9.53242,-2.5918353,0.9787037,1005.7192,5.664626268174508,1005.7063503310679,0,0
15.5,9.389022,-2.7157657000000004,0.9124216,1005.71643,5.665007725000782,1005.7064211374292,0,0
15.52,9.283857,-2.7348318,0.94556165,1005.68146,5.665162478149409,1005.7063938418346,0,0
15.54,9.393787,-2.6633334,1.1491405,1005.7065,5.665338885836524,1005.7063701056168,0,0
15.56,9.360323,-2.6585665,1.1349367,1005.6786,5.665461213492893,1005.7062491599146,0,0
15.58,9.388995,-2.6585662,0.9834351999999998,1005.7089,5.665558284475964,1005.7061518353163,0,0
15.6,9.341192,-2.7729635,0.95976263,1005.7034,5.66559875230648,1005.7060559326942,0,0
15.62,9.360303,-2.811096,0.9881685,1005.69104,5.665655359904133,1005.7059171357796,0,0
15.64,9.350739,-2.7062316,0.9313551,1005.72864,5.665634139122987,1005.705876297137,0,0
15.66,9.384191,-2.582301,1.0449802,1005.6882,5.66556503063772,1005.7057765774427,0,0
15.68,9.427204,-2.6633322,1.0591829,1005.7184,5.665587617096254,1005.705733909442,0,0
15.7,9.355499,-2.7729628,1.0828542,1005.70074,5.665617167882783,1005.7056782299228,0,0
15.72,9.24078,-2.8063288,1.049713,1005.68054,5.6654380398161885,1005.7055385338716,0,0
15.74,9.212092,-2.9016597,1.0639155,1005.6855,5.6650799590255465,1005.7053429597188,0,0
15.76,9.446298,-2.7300632,0.83192915,1005.6728,5.664879573652049,1005.7050529957428,0,0
15.78,9.570565,-2.4869688,0.93135107,1005.68787,5.664952589226475,1005.7047349247888,0,0
15.8,9.58968,-2.601366,1.0165699,1005.7029,5.665383187881307,1005.7044472715643,0,0
15.82,9.317747,-2.672877,1.0450236,1005.71826,5.66563266746243,1005.7042428269976,0,0
15.84,9.293862,-2.839707,1.1255096000000002,1005.708,5.665790359456973,1005.7040757056012,0,0
15.86,9.231739,-2.896906,1.1586518,1005.69257,5.66578686836603,1005.7038866165954,0,0
15.88,9.408604,-2.663345,1.007152,1005.685,5.665818295287348,1005.7036515457303,0,0
15.9,9.408619,-2.7586765,1.0308254,1005.70483,5.665940151335369,1005.7034480795488,0,0
15.92,9.48033,-2.6967115,0.8556537000000001,1005.685,5.666213662017001,1005.7032018837448,0,0
15.94,9.365627,-2.7968097000000003,0.89353013,1005.6848,5.666457197308955,1005.7029180983507,0,0
15.96,9.365642,-2.7777436,1.0260947,1005.7079,5.666689083765798,1005.7026852804223,0,0
15.98,9.365656,-2.8587756,1.1160498,1005.69257,5.666978464966308,1005.7024431474913,0,0
16.0,9.499503,-2.7157793,1.0497691999999998,1005.68207,5.66748399342438,1005.7021558555026,0,0
16.02,9.303545,-2.8778424,1.1681306,1005.6851,5.667913873635492,1005.7018406032216,0,0
16.04,9.236642,-2.6728810000000003,0.97402126,1005.67206,5.667977157639589,1005.7014548361343,0,0
16.06,9.2557745,-2.6728811,1.002429,1005.6923,5.6677603222891655,1005.701081014926,0,0
16.08,9.298805,-2.6013832000000003,0.98822695,1005.70264,5.667338880362313,1005.7007563188527,0,0
16.099999999999998,9.423096,-2.6538155,1.1302603,1005.6971,5.667046667925543,1005.7004562546542,0,0
16.12,9.360971,-2.691948200000001,1.0734488000000002,1005.70264,5.6667546033566065,1005.7001989794119,0,0
16.14,9.375324,-2.7157817000000004,1.0213716,1005.71515,5.666494316473688,1005.7000254746818,0,0
16.16,9.317981,-2.7634473,1.0213729,1005.7096,5.666177011109056,1005.6999066341934,0,0
16.18,9.322774,-2.6681163,0.8462011999999999,1005.6968,5.665729956165968,1005.6997904428548,0,0
16.2,9.380146,-2.7348485,1.0734538,1005.6917,5.6653685181549145,1005.6996586505936,0,0
16.22,9.404058,-2.6299849,1.0261110999999998,1005.70154,5.6650615208569635,1005.6995489718097,0,0
16.24,9.356275,-2.792048,1.116066,1005.70166,5.664822245087332,1005.6994596593377,0,0
16.259999999999998,9.3180485,-2.7920485,1.0166446,1005.6912,5.664545524220076,1005.6993510080637,0,0
16.28,9.3802,-2.6728847,0.90775466,1005.6967,5.664268708894019,1005.6992454601692,0,0
16.3,9.366598,-2.734868,0.93149424,1005.6941,5.664005942654427,1005.6991336743927,0,0
16.32,9.376197,-2.715803,0.96463865,1005.6867,5.663771251012361,1005.6989901392528,0,0
16.34,9.47184,-2.6776714,1.0167214,1005.6942,5.663741551784584,1005.6988460671016,0,0
16.36,9.400184,-2.630007,0.9504434000000002,1005.6863,5.6637099943758615,1005.6986735991077,0,0
16.38,9.390666,-2.610942,1.064073,1005.6763,5.663671624463395,1005.6984406614313,0,0
16.4,9.261656,-2.7396398,1.1398274,1005.70386,5.663462335152088,1005.6982543473192,0,0
16.419999999999998,9.290374,-2.706275,1.0120022,1005.71136,5.663110896289227,1005.6981369005196,0,0
16.44,9.409915,-2.8445063,1.1445698,1005.6885,5.6629833943587125,1005.6979984316856,0,0
16.46,9.457754,-2.6252456000000004,0.9788693000000002,1005.68585,5.6629860076869045,1005.6978323462697,0,0
16.48,9.3861,-2.6061804,0.940998,1005.7008,5.662942525763526,1005.6976962767495,0,0
16.5,9.309666,-2.7253454,1.0025492,1005.6683,5.662786768858233,1005.6974702191254,0,0
16.52,9.319263,-2.7873116,1.0214902,1005.7158,5.662591819232833,1005.6973364618198,0,0
16.54,9.333649,-2.7587132000000003,1.0925105,1005.66327,5.662390534186742,1005.6970956346021,0,0
16.56,9.443625,-2.720582,1.054639,1005.6807,5.662371836192977,1005.6968238153876,0,0
16.58,9.333732,-2.7301161,1.0404397,1005.6983,5.662298783303747,1005.6965889501944,0,0
16.599999999999998,9.29554,-2.7825494,0.9930999,1005.6958,5.662122773827468,1005.6963785830893,0,0
16.62,9.391176,-2.7396512000000004,0.9362908,1005.68335,5.662009342373174,1005.696145799816,0,0
16.64,9.362537,-2.8159175,1.0546545,1005.6878,5.661964539125638,1005.6959100676364,0,0
16.66,9.3817005,-2.7158206000000003,0.92682964,1005.67755,5.661933159017174,1005.6956356784387,0,0
16.68,9.400863,-2.7062888,0.9883808,1005.7005,5.661958840790308,1005.6954107397014,0,0
16.7,9.338768,-2.7253559,0.9789159,1005.70306,5.661920518991499,1005.6952395211704,0,0
16.72,9.381827,-2.8159215,1.0404668,1005.68506,5.66197744574246,1005.6950515861998,0,0
16.74,9.367528,-2.744424,1.0499393999999995,1005.7026,5.662050077863237,1005.6949127011496,0,0
16.759999999999998,9.391472,-2.6395607000000005,0.9647243,1005.715,5.662105912756967,1005.6948622965953,0,0
16.78,9.367617,-2.7730258,1.0641507,1005.6727,5.6621971692845,1005.6947379748633,0,0
16.8,9.35819,-2.7348964,0.9884123,1005.6923,5.662261998637582,1005.6946193474713,0,0
16.82,9.367801,-2.7444308,1.04523,1005.6799,5.662340090007413,1005.6944615386568,0,0
16.84,9.420423,-2.6776998,1.0310309000000002,1005.69507,5.662492756339064,1005.6943242892488,0,0
16.86,9.396571,-2.6538684,1.0168319,1005.67224,5.662646826205201,1005.6941235122313,0,0
16.88,9.367936,-2.658636,0.98369515,1005.70233,5.662740271771411,1005.6939756490144,0,0
16.9,9.3871,-2.7110693,1.0310431999999998,1005.6825,5.6628578509571526,1005.6938036847392,0,0
16.919999999999998,9.34891,-2.7444363,1.0736573,1005.68225,5.662949334222182,1005.6936101438408,0,0
16.94,9.3632965,-2.7206047000000004,1.0736616,1005.6845,5.663032157986995,1005.693406334585,0,0
16.96,9.406359,-2.6681738,1.0357904,1005.6974,5.663154210678552,1005.6932406259219,0,0
16.98,9.310807,-2.7206068,1.0452633,1005.6793,5.663152791525258,1005.6930440194943,0,0
17.0,9.3968935,-2.7349079,0.9742518,1005.69965,5.66320619669506,1005.6928940795843,0,0
17.02,9.32046,-2.7587416,1.0073966,1005.67926,5.6631770416781775,1005.6927125099936,0,0
17.04,9.396982,-2.6634116000000003,0.9458534,1005.68427,5.6631594311419535,1005.6925216820673,0,0
17.06,9.354013,-2.7158449,1.0594838,1005.6613,5.663120734678067,1005.692240668456,0,0
17.08,9.35884,-2.6586473,1.0074096,1005.67926,5.663029075074053,1005.6919456344223,0,0
17.099999999999998,9.382783,-2.706314,1.0263512,1005.68896,5.66296973514492,1005.6916741940668,0,0
17.12,9.36371,-2.7063153,1.0594963,1005.6816,5.662908618998905,1005.6913980822698,0,0
17.14,9.373315,-2.7301490000000004,1.0547658000000002,1005.7015,5.662877878797295,1005.6911904767898,0,0
17.16,9.382927,-2.6395857000000005,0.95534825,1005.6786,5.662820483311548,1005.6909617108713,0,0
17.18,9.387748,-2.7492175,0.97428966,1005.6662,5.662815768961794,1005.6906704311464,0,0
17.2,9.354336,-2.7873514,0.99796605,1005.6838,5.662818639505644,1005.6903883228293,0,0
17.22,9.349603,-2.6872544,1.0737207,1005.69116,5.662777342519016,1005.6901418299583,0,0
17.24,9.383109,-2.6777227000000003,0.9837714,1005.6912,5.662738690674457,1005.6899278382697,0,0
17.259999999999998,9.306676,-2.6824906000000004,1.0169162,1005.6963,5.662560380122701,1005.6897616949956,0,0
17.28,9.397535,-2.7253902,0.9979827,1005.70654,5.662460344756006,1005.6896752926967,0,0
17.3,9.391142,-2.7825494,1.0451789,1005.68854,5.662460572805357,1005.6895948605716,0,0
17.32,9.357662,-2.6538517,1.0688488,1005.71606,5.662414185700679,1005.6896190652479,0,0
17.34,9.419779,-2.6443183,1.0120341999999998,1005.6633,5.662432457525897,1005.6895457038652,0,0
17.36,9.4245405,-2.6443179,0.945751,1005.7032,5.662503565016445,1005.6895300372133,0,0
17.38,9.381501,-2.7301154,1.0214994000000002,1005.67535,5.662600032697334,1005.6894651460257,0,0
17.4,9.381481,-2.7205818,1.0641071000000002,1005.7032,5.662722424588513,1005.6894572536464,0,0
17.419999999999998,9.376681,-2.6443162,1.0546366000000005,1005.7184,5.662812288393325,1005.6895544738272,0,0
17.44,9.343204,-2.7110474,1.0167595,1005.7057,5.662836171540544,1005.6896985014732,0,0
17.46,9.328845,-2.711047,1.1019771,1005.66815,5.6627923633153205,1005.6897481896956,0,0
17.48,9.333606,-2.7110465,1.0451626,1005.7004,5.662685377925353,1005.6898304407263,0,0
17.5,9.300125,-2.7205794,1.0640981000000005,1005.70526,5.662466301305119,1005.6899586641504,0,0
17.52,9.390921,-2.6967459,1.0972371,1005.7182,5.6623230148445405,1005.6901736311768,0,0
17.54,9.343104,-2.7444112,1.0688289,1005.68744,5.662173301682014,1005.6903537349692,0,0
17.56,9.405222,-2.6681457,0.95520157,1005.69995,5.662073731733674,1005.6905474212344,0,0
17.58,9.371742,-2.7253437000000003,1.0309501,1005.70544,5.662000864367733,1005.6907721757016,0,0
17.599999999999994,9.419519,-2.5918798,1.016745,1005.6824,5.661968688010046,1005.6909406289168,0,0
17.62,9.40516,-2.6157122000000004,0.94572705,1005.69745,5.661942346215848,1005.6911129079132,0,0
17.64,9.414702,-2.5394468,1.0640854,1005.70526,5.661923828998332,1005.691316063166,0,0
17.66,9.323866,-2.65861,1.139834,1005.69244,5.66181503753394,1005.6914996173199,0,0
17.68,9.472017999999998,-2.6204772000000003,1.0262064,1005.70496,5.661874170210616,1005.691710263148,0,0
17.7,9.433762,-2.5871108,1.1161584999999998,1005.6899,5.662007260294177,1005.6918898728543,0,0
17.72,9.409841,-2.7015076,0.96465564,1005.6799,5.662188218223853,1005.6920054124487,0,0
17.74,9.457619,-2.630009,1.0119978,1005.6949,5.662475564184139,1005.6921179237494,0,0
17.759999999999994,9.46238,-2.6109421000000004,1.1019497,1005.70496,5.662874858671062,1005.6922635702092,0,0
17.78,9.405002,-2.6586072,1.0025253,1005.6772,5.6632618543603295,1005.6923380345684,0,0
17.8,9.386208,-2.6776814,0.97414875,1005.7021,5.663604041025944,1005.6924389743516,0,0
17.82,9.481796,-2.6109498,1.0356953000000002,1005.68726,5.664071518394498,1005.6925095204364,0,0
17.84,9.472232,-2.6300156,0.98835075,1005.6892,5.664629391609168,1005.6925599406834,0,0
17.86,9.524803,-2.420287,1.0404286,1005.6795,5.665269879246929,1005.6925574762273,0,0
17.88,9.563035,-2.201025,0.8794583,1005.7021,5.665918651432593,1005.6925896517192,0,0
17.9,9.539131,-2.2915895,0.98834914,1005.67413,5.666588607844843,1005.6925516272375,0,0
17.919999999999995,9.199758,-2.6347816,0.9504732,1005.6941,5.6667688089397075,1005.692523602948,0,0
17.94,9.257109,-2.639548,0.7516276999999999,1005.6941,5.6665959825265935,1005.6925045157147,0,0
17.96,9.281002,-2.582349,0.936269,1005.684,5.666160852845558,1005.692457033979,0,0
17.98,9.319234,-2.7539449,1.0025499,1005.6688,5.665683112440788,1005.692329913795,0,0
18.0,9.405264,-2.4870176,0.72795403,1005.6662,5.665141414839064,1005.6921235227104,0,0
18.02,9.333562,-2.877875,0.84157914,1005.6842,5.6646441556920815,1005.6919126308667,0,0
18.04,9.266639,-2.5728152,0.4912326,1005.68896,5.663827031819062,1005.6917156573624,0,0
18.06,9.4387045,-2.6109478,0.8841876000000001,1005.6938,5.663152760046352,1005.6915491152074,0,0
18.08,9.390901,-2.5680485,0.76582694,1005.6763,5.662467408321838,1005.6913470617444,0,0
18.1,9.48649,-2.5203826,0.87945205,1005.6963,5.661959995265452,1005.6911863578824,0,0
18.12,9.58208,-2.3058875,0.87945145,1005.6913,5.661694517616235,1005.6910447690616,0,0
18.14,9.505597,-2.3392534,1.0262175,1005.6708,5.661535811035582,1005.6908467800107,0,0
18.16,9.433894,-2.4917830000000003,0.93152887,1005.70123,5.661386686642781,1005.6907092164772,0,0
18.18,9.476906,-2.458417,0.90785617,1005.70386,5.661310576265166,1005.6906350081599,0,0
18.2,9.486459,-2.410751,0.8699804,1005.6887,5.661286750606292,1005.6905624716612,0,0
18.22,9.386077,-2.615713,0.86997986,1005.7136,5.6612176055648264,1005.6905813135132,0,0
18.24,9.424309,-2.625246,0.9078545,1005.7006,5.661197331643398,1005.6906340294447,0,0
18.26,9.366944,-2.5537474,0.9599324,1005.7263,5.661076913283802,1005.690809006736,0,0
18.28,9.347819,-2.6395452,0.9930727,1005.6807,5.660884665510168,1005.690927224246,0,0
18.3,9.367932,-2.5490053,0.9221475,1005.7188,5.660605234032103,1005.6911320232307,0,0
18.32,9.497023,-2.6205041,0.960026,1005.69073,5.660553988119853,1005.6913115363301,0,0
18.34,9.477937,-2.6777036,0.8937473,1005.69824,5.6606854382902085,1005.6914950965738,0,0
18.36,9.387155,-2.7158372,0.86534405,1005.68304,5.6608135818429455,1005.6916268520572,0,0
18.38,9.286812,-2.7635033,1.0026449,1005.67804,5.660794173522373,1005.6916943585353,0,0
18.4,9.348984,-2.734905,0.9647729,1005.67535,5.660743102116058,1005.6916951675688,0,0
18.42,9.387255,-2.7778049,1.0357918,1005.693,5.660780227978875,1005.6917005798268,0,0
18.44,9.473326,-2.7015407,0.96477884,1005.68286,5.661007105520854,1005.6916735360112,0,0
18.46,9.42556,-2.749207,0.90323454,1005.6979,5.6613211053872465,1005.6916720553661,0,0
18.48,9.387356,-2.715842,0.92217535,1005.7106,5.661619422217539,1005.6917388876683,0,0
18.5,9.43519,-2.7301424,0.9316475,1005.68,5.662007965519526,1005.6917556806952,0,0
18.52,9.511699,-2.6205127,0.96952564,1005.70807,5.6625730864318475,1005.6918292505634,0,0
18.54,9.253621,-2.9017403,1.0736854,1005.685,5.6629670646137935,1005.6918696715967,0,0
18.56,9.397052,-2.6252809,0.6759988,1005.7104,5.663256409554608,1005.6919720968042,0,0
18.58,9.817709,-2.3488214,1.3482873,1005.67474,5.664292254794293,1005.6920005641687,0,0
18.6,9.707809,-2.243958,1.2725402,1005.68,5.665693619694692,1005.6919825159011,0,0
18.62,9.588344,-2.563318,1.1636517,1005.67944,5.667305530665004,1005.6919214153947,0,0
18.64,9.268128,-2.4727542,1.5518756,1005.6848,5.668524020932544,1005.691841789892,0,0
18.66,8.990935,-2.3535912,1.6465671000000002,1005.707,5.668811789059629,1005.691826002354,0,0
18.68,9.129584,-2.4155574,1.9259,1005.7047,5.66869078994534,1005.6918583988768,0,0
18.7,9.120056,-2.5108893,2.2667801,1005.67224,5.6683941787266425,1005.6918163982083,0,0
18.72,9.158332,-2.0294678,2.3804092,1005.67694,5.667840837906502,1005.6917257313844,0,0
18.74,9.359113,-1.8960049,2.5981946,1005.6973,5.667516929932067,1005.6916656855452,0,0
18.76,9.297012,-1.7387096000000002,2.50351,1005.707,5.667163161331217,1005.6916678325744,0,0
18.78,9.44044,-1.7911426,2.7733738,1005.6973,5.667235648863173,1005.691690005492,0,0
18.8,9.458435,-1.8197142,2.669114,1005.6843,5.667671607641581,1005.6916829934621,0,0
18.82,9.0999365,-2.086641,2.503409,1005.66425,5.667743436410627,1005.691578038856,0,0
18.84,9.348474,-1.7625148000000002,2.929504,1005.674,5.6680920599804265,1005.6914220200264,0,0
18.86,9.109471,-1.6052183,2.8774245,1005.6894,5.6681291085576415,1005.691276882516,1,2
18.88,9.181157,-1.4050226,3.2040975,1005.6944,5.668177813055856,1005.691159882235,1,2
18.9,9.071209,-1.3096911,3.398207,1005.6889,5.668132290765746,1005.6910483652106,1,2
18.92,9.123774,-1.2715584,3.3934712,1005.6841,5.668091282716907,1005.690924814653,1,2
18.94,9.013825,-1.0951954,3.3271885,1005.7093,5.667749687704455,1005.6908817960476,1,2
18.96,9.1046295,-1.195293,3.4550161,1005.6912,5.6674362041143045,1005.6908449303422,1,2
18.98,8.946883999999997,-1.0761286,3.6254537,1005.68115,5.6669452085027565,1005.6907774540556,1,2
19.0,8.927752,-1.1952922,3.6159837,1005.6714,5.666284159165907,1005.690648073174,1,2
19.02,9.238428,-1.2334244,3.5923107000000005,1005.69617,5.666062603537473,1005.6905536311638,1,2
19.04,9.472626,-1.1190268,3.4029331,1005.69867,5.666518272257648,1005.6904994011313,1,2
19.06,9.716382,-1.7434453999999997,3.1236022,1005.70386,5.668041745530736,1005.6904995816304,1,2
19.08,9.678132000000002,-4.2887864,2.2808770000000003,1005.71625,5.671490118542183,1005.6905924426258,1,2
19.1,8.683919,-6.052412,1.6227937,1005.6912,5.676377287818206,1005.6906766818075,1,2
19.12,8.115111,-7.7111740000000015,-0.4982208,1005.68616,5.683551033069109,1005.6907348554944,1,2
19.14,7.3694487,-8.845614,-0.4650811,1005.69324,5.6933782135258975,1005.690795276284,1,2
19.16,9.104505,-9.465265,-0.8201626000000001,1005.64026,5.708915551026074,1005.6906667370993,1,2
19.18,12.192243,-7.7397722999999985,0.1929985,1005.67834,5.73211087281463,1005.690508783622,1,2
19.2,12.708452,-6.181108,1.3765988,1005.6832,5.761482308038017,1005.6903429043083,1,2
19.22,12.306936,-4.4603806,1.9257885,1005.69073,5.794194079274246,1005.6901977268914,1,2
19.24,11.446559,-2.6204891,1.8689746,1005.66034,5.826953020119403,1005.6899619603087,1,2
19.26,10.065181,-1.0427583,2.29507,1005.68787,5.8564880189526285,1005.6897461058992,1,2
19.28,9.415114,0.36814263,3.0573077,1005.66534,5.882090832051362,1005.689467514962,1,2
19.3,8.733201,0.9925225,3.0385165,1005.66534,5.902867244726241,1005.6891344929558,1,2
19.32,9.072616,0.9162563,3.3604605000000003,1005.67786,5.920173985413653,1005.6887996465364,1,2
19.34,9.627125,1.2594472,3.9380624,1005.6881,5.935930478730953,1005.6885012575128,1,2
19.36,10.105154,1.4644079,4.4304447,1005.6775,5.951617823832383,1005.6881979964444,1,2
19.38,10.9798975,0.1583704,4.5914183,1005.68787,5.9687917694771695,1005.6879288541774,1,2
19.4,13.417648000000002,-1.5528249,4.615094999999998,1005.67,5.992146719544937,1005.6876264961952,1,2
19.42,14.139461,0.87335104,1.6655666,1005.68756,6.020858557198903,1005.6873590932956,1,2
19.44,14.650942,-0.17529233,0.548251,1005.6575,6.055028148650261,1005.687015323358,1,2
19.46,16.935736,-3.7549777,0.8654606,1005.665,6.099522241596537,1005.6866323130766,1,2
19.48,19.516897,-7.530092999999999,2.6266654,1005.64484,6.160700024443238,1005.6861434328653,1,2
19.5,18.799976,-9.451016,2.5840602,1005.7002,6.236641476025205,1005.685762061952,1,2
19.52,16.304966,-8.02105,0.6429587,1005.66956,6.319083006976056,1005.68536675519,1,2
19.54,13.714367,-7.4490647,1.7650172999999998,1005.7001,6.401824566724082,1005.6850705018164,1,2
19.56,9.943153,-7.449066,2.02068,1005.6773,6.478050479036755,1005.6847807585292,1,2
19.58,7.1040015,-6.724550999999999,2.025419,1005.69507,6.542845357313082,1005.6845617826297,1,2
19.6,5.3020678,-5.6425433,1.4383577,1005.6772,6.592912205953457,1005.6843417931073,1,2
19.62,3.8394966,-5.494782,0.31157386,1005.6923,6.627364399584267,1005.6841760599104,1,2
19.64,2.8740249,-5.6759124000000005,-0.57375544,1005.70734,6.647224835408058,1005.6841130082418,1,2
19.66,3.4476535000000004,-5.9428405999999985,-0.062434915,1005.66205,6.655124147492647,1005.6839778689576,1,2
19.68,6.143514,-6.1144376,0.58618325,1005.66943,6.656202170281901,1005.683806087558,1,2
19.7,9.054468,-8.230789999999999,2.3331833,1005.67706,6.659083453852742,1005.6836300155979,1,2
19.72,11.592594,-8.683615,4.1085896,1005.67706,6.668949327357278,1005.683450786358,1,2
19.74,14.350591,-6.5863304000000005,4.3311114,1005.6722,6.6876894025351294,1005.6832519165707,1,2
19.76,16.874378,-6.8770924,4.226959,1005.66943,6.719051685280763,1005.683026436327,1,2
19.78,18.394405,-8.006766,5.396362,1005.67456,6.765753965213605,1005.6827967228128,1,2
19.8,17.94374,-6.9533243,4.960671400000002,1005.67944,6.823968570030223,1005.6825816637497,1,2
19.82,16.13697,-3.8979614,4.245776,1005.7046,6.886456003534888,1005.6824709035718,1,2
19.84,14.530951500000002,-2.9112837000000003,5.0695624000000015,1005.6865,6.9494332617848755,1005.6823875406261,1,2
19.86,12.819777,-2.1152687,3.682381200000002,1005.69434,7.008131311187626,1005.6823569099806,1,2
19.88,11.586582,-1.2668215,3.1663306,1005.67865,7.0598713970372,1005.6823164998664,1,2
19.9,10.606718,0.34427476,3.4361913,1005.684,7.103358108160447,1005.68228685409,1,2
19.92,10.195649,1.4262832,3.8102086,1005.64056,7.139026966893375,1005.6821104424074,1,2
19.94,10.76922,2.7609193,3.1663291,1005.66565,7.168869656434954,1005.6818953074519,1,2
19.96,12.633339,3.1994429,2.7686388,1005.6588,7.197122117878938,1005.6816220710983,1,2
19.98,14.038597,1.812375,3.1142497,1005.65576,7.226300808160336,1005.6812875360004,1,2
20.0,14.225004,-1.2477546,3.521408,1005.669,7.256637196150031,1005.680947705658,1,2
20.02,14.487887,-2.9351153,4.2173653,1005.67084,7.289268741991882,1005.6806110438274,1,2
20.04,14.497442,-5.1324983,4.8470407,1005.6608,7.325375568682648,1005.6802422496761,1,2
20.06,14.803346,-7.6873727,5.2541986,1005.6581,7.367257000323438,1005.6798366710652,1,2
20.08,16.065208,-8.97911,5.5051217,1005.6198,7.417668412926698,1005.6792621697883,1,2
20.1,17.422667,-8.674049,5.4767145999999975,1005.6706,7.477531442676318,1005.6787233566494,1,2
20.12,16.466701999999998,-7.749337,5.476714,1005.6552,7.5430089383091925,1005.6781625772757,1,2
20.14,14.334905,-7.706438499999999,6.802347,1005.6477,7.610372954600604,1005.6775574073426,1,2
20.16,12.236566,-7.525309,5.9075440000000015,1005.6599,7.6747824423284605,1005.6769591125236,1,2
20.18,10.491932,-7.439511299999999,5.036413,1005.6827,7.732774737639617,1005.6764511264163,1,2
20.2,8.078127,-6.3003035,4.335721,1005.6731,7.7793000133104995,1005.6759902058368,1,2
20.22,6.687198,-5.5853205,3.2846828,1005.62494,7.8117578038179865,1005.675399155672,1,2
20.24,5.023821,-5.3755918,2.5981936,1005.6506,7.828533352506525,1005.6747876267856,1,2
20.26,3.4703796,-5.442323,2.1578937,1005.6477,7.829319097805421,1005.6741497644052,1,2
20.28,3.183587,-5.604386,1.6607807,1005.65,7.815662104964355,1005.6734992100543,1,2
20.3,4.293787,-5.4947870000000005,1.5898821,1005.6298,7.790324414398851,1005.6727670630736,1,2
20.32,5.885509,-6.4671655,0.7045529,1005.6703,7.758124527355076,1005.672111256574,1,2
20.34,9.379592,-5.8808804000000015,0.1316942,1005.6323,7.724755208144258,1005.6713884654275,1,2
20.36,12.754163,-6.286038,-2.07927,1005.617,7.697329123678322,1005.670554008695,1,2
20.38,16.683220000000002,-7.739839599999999,-6.7947316,1005.6548,7.6861357850732235,1005.6697599682947,1,2
20.4,18.050293,-7.801806,-1.4779909,1005.6802,7.689561843877088,1005.6690959383113,1,2
20.42,17.787449,-5.566292,1.4100001,1005.6569,7.703755843944597,1005.66846529604,1,2
20.44,17.137444,-3.7931337,-0.5026951,1005.64386,7.725060670334238,1005.6678194814633,1,2
20.46,16.434856,-2.0009096,-2.5479536,1005.6595,7.7508919566245424,1005.66721888957,1,2
20.48,14.934048,-2.048576,-0.649453,1005.67926,7.7771728480708,1005.6667315545708,1,2
20.5,13.839517,-1.9341795,0.41579205,1005.66925,7.801454134334342,1005.6663100117688,1,2
20.52,13.232526000000002,-0.9999358,-0.2375518,1005.68445,7.822409965905986,1005.6660028405064,1,2
20.54,13.203893,0.86378676,0.39686278,1005.6691,7.84028066837824,1005.6657425737536,1,2
20.56,12.845454,2.2460873,3.5215743,1005.6695,7.855920985742433,1005.6655261287848,1,2
20.58,11.808285,1.2927746,5.386933999999999,1005.64386,7.868569304651477,1005.6652568799472,1,2
20.6,10.584702,-1.476596,6.745712299999999,1005.64417,7.877686250988579,1005.6649430589059,1,2
20.62,10.431795,-2.8207664,6.722044500000001,1005.67413,7.883833941700199,1005.6646988396224,1,2
20.64,10.235865,-3.726413,7.825164999999997,1005.63904,7.888761374951493,1005.6643906756406,1,2
20.66,12.076138,-5.4852743,9.027708,1005.6544,7.898063249059721,1005.664082415514,1,2
20.68,13.084723,-5.0610514,9.666857,1005.6591,7.913260888150003,1005.6637921001704,1,2
20.7,14.169783,-5.3565793,10.19238,1005.6566,7.936150649834548,1005.6635096859717,1,2
20.72,14.5330925,-6.0667973,10.324946,1005.6739,7.966946213762277,1005.6632975499167,1,2
20.74,16.053116,-6.8389807000000005,10.410171,1005.664,8.007707602351543,1005.6631126353185,1,2
20.76,15.498709,-5.9476357,13.075645,1005.6762,8.05881842986642,1005.6629963592925,1,2
20.78,13.386079999999998,-7.592098700000001,9.25025,1005.6637,8.112287683565812,1005.6628961509024,1,2
20.8,11.77533,-8.307083,6.4995650000000005,1005.6787,8.163186342295901,1005.6628645006258,1,2
20.82,11.660665,-6.8485184000000014,6.352803,1005.66614,8.209827068196015,1005.6628483262393,1,2
20.84,11.918821,-5.895208,5.557427,1005.6787,8.251437568261718,1005.6628911005763,1,2
20.86,11.187558,-5.5091186,4.6010823,1005.6687,8.286126688724949,1005.6629498080188,1,2
20.88,9.7519,-5.6520730000000015,3.748732,1005.6839,8.311636912925888,1005.6630771026062,1,2
20.9,8.427878999999999,-5.985731,3.0480387,1005.65375,8.326655903496505,1005.6631560025342,1,2
20.92,7.142099000000001,-6.238359,2.8823333,1005.64886,8.33055104367876,1005.6631742529013,1,2
20.94,5.923234,-5.6425385000000015,1.9685918,1005.63385,8.321491334489815,1005.6630848116156,1,2
20.96,5.0676346,-5.1897154,1.035913,1005.6337,8.298758009735753,1005.6628999959732,1,2
20.98,5.7224536,-4.54623,0.8039258,1005.64124,8.264077442936733,1005.6626587168864,1,2
21.0,7.0129867,-4.250703,0.13637348,1005.63873,8.22073007731393,1005.6623593793043,1,2
21.02,7.6964855,-4.7559576,-0.24238013,1005.64124,8.171645082640026,1005.6620188548517,1,2
21.04,9.799585,-4.736891,-0.3370695,1005.62616,8.12148928958689,1005.6615888755673,1,2
21.06,11.77841,-5.0181174,0.16477601,1005.6388,8.074546654725394,1005.6611269059198,1,2
21.08,13.350951,-5.0085835,-0.11455515,1005.6386,8.033638578770677,1005.6606376126781,1,2
21.1,13.336597,-4.3078995,0.09849182,1005.63873,7.997701646003735,1005.660126405764,1,2
21.12,12.103393,-3.6310482,1.3720452,1005.6613,7.963574515012104,1005.6596789282738,1,2
21.14,13.102357,-3.4928174,0.04167624,1005.67163,7.932934819206438,1005.6593265610218,1,2
21.16,14.7418165,-2.9637294,0.7092261,1005.6587,7.908591129811964,1005.6590129536984,1,2
21.18,16.104046,-0.6138168,1.5661521,1005.6789,7.892263854177678,1005.6588074436336,1,2
21.2,16.094473,2.1650863,3.2989428,1005.67865,7.88386739141419,1005.6586972881438,1,2
21.22,13.408209,1.3357056,1.9780425,1005.6841,7.876372889000383,1005.6586914045157,1,2
21.24,11.027851,-0.35642165,-0.024611913,1005.6689,7.864328787588322,1005.6587229566852,0,0
21.26,9.981061,-0.008462623,-1.6153733,1005.6764,7.846390227373995,1005.6588144735383,0,0
21.28,10.435129,-0.18959142,-1.0756522,1005.6511,7.8241002031316516,1005.6588675657248,0,0
21.3,10.989571,-1.266833,1.2631422,1005.6613,7.799380038255182,1005.6589232347444,0,0
21.32,11.845142999999998,-1.9722829,2.2384286,1005.67865,7.774848073559305,1005.6590434402452,0,0
21.34,11.195076,-3.2115872000000003,2.1342702,1005.67377,7.7497923417497425,1005.6592026694406,0,0
21.36,9.641624,-5.528134,1.6418906000000002,1005.67377,7.7231045913453675,1005.6593958067476,0,0
21.38,8.815161999999997,-5.470946,0.8228794,1005.67163,7.6933516417294765,1005.659610505968,0,0
21.4,7.443361,-5.928536,0.39678326,1005.6787,7.659161352554513,1005.6598689363774,0,0
21.42,7.80663,-5.0324225,1.3247269,1005.66864,7.620878144116314,1005.6601288613164,0,0
21.44,7.792294,-4.932326,0.42519042,1005.6613,7.5788041393453405,1005.6603627470917,0,0
21.46,8.8534155,-4.0600452,0.33523712,1005.66864,7.534599980044672,1005.6605992066733,0,0
21.48,9.278821,-3.6644216,0.91283476,1005.641,7.489238382221512,1005.6607375852153,0,0
21.5,9.025496,-3.4880586000000005,1.1495552,1005.641,7.442448360876397,1005.6607888011883,0,0
21.52,8.705252,-3.3069296,0.9081011,1005.67896,7.393758754188322,1005.660899471938,0,0
21.54,8.633559,-3.2497308,0.6619123,1005.6613,7.343342009675969,1005.6609987025133,0,0
21.56,8.753057499999999,-3.1210344,0.3683796,1005.6362,7.291687717727957,1005.6609971073206,0,0
21.58,8.934694,-2.8874729,0.28316066,1005.6564,7.2393208834849,1005.660979148222,0,0
21.6,9.235826,-2.6872778,0.26422334,1005.6814,7.186987903414789,1005.6610367946288,0,0
21.62,9.599094,-2.4966154,0.60983527,1005.6837,7.1355273714375995,1005.6611693185333,0,0
21.64,9.656456,-2.5204484000000003,0.5530228,1005.6564,7.0851437477138415,1005.6612692471083,0,0
21.66,9.694697,-2.3869848,0.69032085,1005.6712,7.035919635290066,1005.661393294708,0,0
21.68,9.775958,-2.2439883,0.74239963,1005.6485,6.988000297939293,1005.6614564873056,0,0
21.7,9.842879,-2.0580926,0.64771193,1005.6639,6.941445756701745,1005.661521120931,0,0
21.72,9.680368,-2.196323,0.8228851,1005.6687,6.896023359119995,1005.6616040751668,0,0
21.74,9.651694,-2.5013826,0.7045254,1005.6539,6.851837539754717,1005.661649638859,0,0
21.76,9.560882,-2.487083,0.6666505,1005.6638,6.8087082964187005,1005.6616976402375,0,0
21.78,9.541766,-2.5252154,0.69505733,1005.6535,6.766653697812276,1005.6617105427507,0,0
21.8,9.584788,-2.5013828,0.6619168000000001,1005.6664,6.7257690551199945,1005.6617388254576,0,0
21.82,9.61825,-2.6253133,0.66191715,1005.6564,6.686198709871259,1005.6617445962855,0,0
21.84,9.360146,-2.672979,0.5388229,1005.67865,6.647427430890652,1005.6618105548424,0,0
21.86,9.326691,-2.7540107000000003,0.49621364,1005.6837,6.6094773035757015,1005.661947637826,0,0
21.88,9.293363,-2.8684113,0.34945914,1005.63385,6.5723785343573065,1005.661967612854,0,0
21.9,9.29337,-2.906544,0.45361674,1005.67645,6.536198015581781,1005.6620373993828,0,0
21.92,9.245582,-3.197304,0.74715066,1005.67676,6.5010910180040415,1005.6621520641215,0,0
21.94,9.341187,-2.9351437,0.39207113,1005.6435,6.467034039801687,1005.662186234454,0,0
21.96,9.360314,-2.4870877,0.19796132,1005.6638,6.433794269802487,1005.6622222369156,0,0
21.98,9.365104,-2.568119,0.2595094,1005.67645,6.401452756827352,1005.662305268638,0,0
22.0,9.374672,-2.6872835,0.33999512,1005.6963,6.370112507715255,1005.6625010165004,0,0
22.02,9.365121,-2.7158830000000003,0.5483096,1005.64386,6.339786895756128,1005.6626068716524,0,0
22.04,9.3890295,-2.56812,0.6524675,1005.64624,6.310444916025842,1005.662641484527,0,0
22.06,9.455954,-2.558587,0.638265,1005.65375,6.282204497648728,1005.6626400591183,0,0
22.08,9.522881,-2.4584894,0.6287969,1005.6384,6.255118960627711,1005.6625515354148,0,0
22.1,9.455971,-2.4680226000000003,0.4820312,1005.64874,6.229004712039528,1005.6624235943424,0,0
22.12,9.432082,-2.5156884,0.63353294,1005.6362,6.2038379619027015,1005.6622161406717,0,0
22.14,9.5181265,-2.5299885,0.65247136,1005.65393,6.17978167709993,1005.6620030045012,0,0
22.16,9.556375,-2.6110203,0.6145969,1005.65375,6.156908503465451,1005.6617849665653,0,0
22.18,9.594622,-2.3488598,0.46309683,1005.62866,6.135086382187523,1005.6614730583653,0,0
22.2,9.618528,-2.3726926,0.43942553,1005.66614,6.114329299399952,1005.6612142572696,0,0
22.22,9.513381,-2.3917592,0.44889516,1005.6587,6.094386611224159,1005.6609765292952,0,0
22.24,9.52773,-2.544289,0.6666786,1005.65125,6.075369183892952,1005.6607314573516,0,0
22.26,9.508619,-2.5967216,0.7755707,1005.6513,6.057244381870817,1005.660480958536,0,0
22.28,9.585105,-2.6682200000000003,0.723493,1005.6536,6.04015758925115,1005.6602348463316,0,0
22.3,9.570775,-2.68252,0.6998218,1005.6613,6.02402534491632,1005.6600212161408,0,0
22.32,9.39871,-2.8159838,0.6477441999999999,1005.6513,6.008521613146641,1005.6598010561264,0,0
22.34,9.384378,-2.8255172,0.5814633000000001,1005.67865,5.993597646263956,1005.6596743789357,0,0
22.36,9.284012,-2.7397194,0.49624482,1005.6662,5.978979429579248,1005.6595859392056,0,0
22.38,9.255978,-2.8255332,0.5152412999999999,1005.6689,5.964681537442325,1005.6595413244787,0,0
22.4,9.375506,-2.6873038,0.5957293,1005.6637,5.950884151721965,1005.6595168741384,0,0
22.42,9.413779,-2.7349703,0.71882695,1005.66174,5.937699507276761,1005.6595032730704,0,0
22.44,9.279979,-2.701605,0.77564293,1005.641,5.924827225610121,1005.6594246433839,0,0
22.46,9.213096,-2.7206724,0.74250525,1005.7015,5.912150009581933,1005.6595066374766,0,0
22.48,9.093635,-2.6968403,0.7472428000000001,1005.67377,5.899440177238502,1005.659630435562,0,0
22.5,9.170141,-2.7445066,0.8656056999999999,1005.69147,5.886948062845418,1005.6598544459823,0,0
22.52,9.284893,-2.568145,0.8561402,1005.64386,5.8748188174040346,1005.659994801584,0,0
22.54,9.495236,-2.4108493,0.9413624,1005.6762,5.863407531556756,1005.660177158508,0,0
22.56,9.614766,-2.6062791,0.9603031,1005.6963,5.853017337419781,1005.6604683313157,0,0
22.58,9.433166,-2.4632828,0.70464826,1005.64594,5.843082473331113,1005.6606733096156,0,0
22.6,9.586154,-3.0066714,0.9603092,1005.6863,5.8342455979746894,1005.6609466845268,0,0
22.62,9.500151,-2.6253474,0.4584655,1005.6943,5.825941995490424,1005.6613083105341,0,0
22.64,9.595781,-2.5586166,0.48687506,1005.6812,5.818297608563452,1005.661699453356,0,0
22.66,9.428517,-2.563384,0.30697042,1005.6887,5.810915332912781,1005.6621422691212,0,0
22.68,9.514593,-2.2487922,0.4063964000000001,1005.6687,5.803811169057852,1005.6625571489633,0,0
22.7,9.696258,-2.3536572,0.9082463,1005.6787,5.79746448352038,1005.6629818510547,0,0
22.72,9.610256,-2.4966547,1.0076718,1005.6638,5.7917292731832575,1005.6633600631592,0,0
22.74,9.395196,-2.6253526000000003,1.1544413999999998,1005.6638,5.786228517858452,1005.6636958351472,0,0
22.76,9.275735,-2.7635834,1.1781164,1005.6386,5.780802847269932,1005.6639021782692,0,0
22.78,9.218412,-2.8303163,1.111838,1005.6666,5.7753734706273985,1005.6640942152104,0,0
22.8,9.237566,-2.892282,0.83251125,1005.67896,5.769978022413893,1005.6643174158763,0,0
22.82,9.223259,-2.839851,0.6384036,1005.6865,5.764540831137704,1005.664594493288,0,0
22.84,9.275872,-2.9685490000000003,0.68101656,1005.6689,5.759276377234353,1005.664854818713,0,0
22.86,9.352382,-2.9208841,0.6999572,1005.67377,5.7543077392244335,1005.6651169369113,0,0
22.88,9.417206,-2.7158709,0.6098119000000001,1005.6689,5.749612344251921,1005.665362163578,0,0
22.9,9.402819,-2.692037,0.6902924,1005.6687,5.745144044608008,1005.665590862072,0,0
22.92,9.426667,-2.6205375,0.8749296,1005.6638,5.740930422549227,1005.6657864929581,0,0
22.94,9.493534,-2.5109053,0.7755024,1005.64374,5.737013889926871,1005.6658799850342,0,0
22.96,9.464808,-2.501371,1.0264215,1005.6589,5.733359163482659,1005.6659374666864,0,0
22.98,9.4504175,-2.434638,1.0074792,1005.6466,5.729881232511473,1005.6659186425943,0,0
23.0,9.517283,-2.3917377,1.0737561000000002,1005.67645,5.726698669348532,1005.6659399225133,0,0
23.02,9.426417,-2.439402,0.95065707,1005.6891,5.723604522071077,1005.6660421017284,0,0
23.04,9.383351,-2.5966970000000003,1.0548097,1005.63885,5.720619913408848,1005.6660344957168,0,0
23.06,9.478897,-2.606229,0.8654288,1005.6943,5.717900151915503,1005.6661295308604,0,0
23.08,9.493189,-2.582395,0.80861163,1005.66693,5.715429714561387,1005.6662163856024,0,0
23.1,9.392761,-2.5919267999999995,0.82754457,1005.6466,5.7129963498960805,1005.666222511464,0,0
23.12,9.378371,-2.610992,0.8370088,1005.67926,5.710588005927487,1005.666274859234,0,0
23.14,9.450019,-2.6967888,0.9932395,1005.67914,5.708431563945204,1005.6663674282304,0,0
23.16,9.449971,-2.6205227000000004,0.91748464,1005.65405,5.7064473915718255,1005.666404879454,0,0
23.18,9.397339,-2.6777198,0.87487006,1005.67694,5.704541670618372,1005.6664758977887,0,0
23.2,9.397291,-2.7253847,0.7612399999999999,1005.682,5.702719620503387,1005.6665945363576,0,0
23.22,9.3972435,-2.7015502,0.7328293,1005.66425,5.700959766827133,1005.6666909250662,0,0
23.24,9.411532,-2.7206154,0.77069986,1005.6597,5.699306629817048,1005.6667509267987,0,0
23.26,9.411478,-2.6348162,0.6618036,1005.65393,5.697688438767526,1005.6667577889932,0,0
23.28,9.4592285,-2.720613,0.79436255,1005.6841,5.696271110641846,1005.666826284388,0,0
23.3,9.425719,-2.7015455000000004,0.81329554,1005.67426,5.6949619555888695,1005.6669135682947,0,0
23.32,9.344413,-2.606213,0.8416973,1005.6648,5.693542331345888,1005.6669830835092,0,0
23.34,9.377808,-2.753975,0.7848786,1005.6874,5.692171109791214,1005.6671180080516,0,0
23.36,9.372983,-2.5728447,0.59549844,1005.6619,5.690707555477838,1005.6672184425487,0,0
23.38,9.344956,-2.7778225,0.9553727,1005.6619,5.689287950829532,1005.6672880400768,0,0
23.4,9.306695,-2.6729577,0.9932459,1005.67523,5.687783362780893,1005.6673781275086,0,0
23.42,9.354476,-2.6729572,0.99324435,1005.6924,5.6863040739766015,1005.6675478075044,0,0
23.44,9.349673,-2.6777232000000004,0.964836,1005.6827,5.68483971319622,1005.6677522846414,0,0
23.46,9.387884,-2.5490255,0.94589573,1005.68536,5.683394571648503,1005.667996348415,0,0
23.48,9.320943,-2.6538894,1.0405816,1005.645,5.681916386660732,1005.6681292163112,0,0
23.5,9.3591585,-2.7539861,1.012173,1005.6777,5.68054153558638,1005.6682810732052,0,0
23.52,9.411715,-2.7492194,0.8890766,1005.6525,5.6793397456581785,1005.6683584420932,0,0
23.54,9.344776,-2.749219,0.81332415,1005.6648,5.67814853000399,1005.6684139948517,0,0
23.56,9.464252,-2.6205213,0.6712904000000001,1005.655,5.677113475321383,1005.6684147908873,0,0
23.58,9.421206,-2.6777194,0.78964794,1005.6958,5.676184521948624,1005.668514081017,0,0
23.6,9.5359,-2.7206178,0.84645873,1005.6932,5.6756152531670585,1005.6686906830839,0,0
23.62,9.459401,-2.615753,0.7044246,1005.66547,5.675131353751036,1005.6688351342112,0,0
23.64,9.593212,-2.6157522,0.7896416999999999,1005.67285,5.6750054122026015,1005.6689772247444,0,0
23.66,9.554957,-2.4965882,0.751765,1005.6806,5.675049827275709,1005.6691446179301,0,0
23.68,9.449775,-2.615751,0.7375594,1005.6777,5.675096030457442,1005.6693233259247,0,0
23.7,9.306357,-2.815946,0.83224535,1005.6731,5.67498939941629,1005.6694948283352,0,0
23.72,9.268095,-2.8016458,0.8795871,1005.6556,5.6746723573062585,1005.6695963464833,0,0
23.74,9.306313,-2.7015474,0.8464444999999999,1005.6903,5.674181417242664,1005.6697605810713,0,0
23.76,9.421004,-2.7587457000000004,0.8180358,1005.65,5.673794747473385,1005.6698345606616,0,0
23.78,9.425762,-2.6491144,0.737549,1005.6658,5.673435199660021,1005.6698854046092,0,0
23.8,9.440078,-2.6395807,0.5339674,1005.6757,5.673096762299602,1005.6699512628644,0,0
23.82,9.344462,-2.5490155,0.51976234,1005.6714,5.6725352781532585,1005.6700146706728,0,0
23.84,9.483053,-2.6109805,0.63812035,1005.7066,5.672104597688457,1005.6702024049976,0,0
23.86,9.46391,-2.5204150000000003,0.66179013,1005.67816,5.671706877076626,1005.670396934389,0,0
23.88,9.464528,-2.663427,0.54822105,1005.684,5.671404784429921,1005.6706177915956,0,0
23.9,9.302016,-2.6300611000000003,0.7044566,1005.69904,5.670865897867862,1005.6709152609736,0,0
23.92,9.340258,-2.730159,0.72812885,1005.67365,5.670256859797107,1005.6711879499763,0,0
23.94,9.450196,-2.5108974,0.57189375,1005.6782,5.669663873693963,1005.6714541413594,0,0
23.96,9.560133,-2.3631341,0.64291,1005.67596,5.6692411069281965,1005.6717055691563,0,0
23.98,9.497998,-2.4679985,0.7470671999999999,1005.66364,5.66891408623334,1005.6718986947093,0,0
24.0,9.388065,-2.677727,0.543488,1005.68146,5.6685393897809675,1005.6721037611462,0,0
24.02,9.292472,-2.7778249,0.45826894,1005.6913,5.667982593526511,1005.67235406431,0,0
24.04,9.287695,-2.658661,0.40619072,1005.684,5.667183067583785,1005.672617157554,0,0
24.06,9.354614,-2.7825912999999995,0.59556717,1005.6846,5.666397623503388,1005.6728927649773,0,0
24.08,9.397635,-2.7063267000000004,0.54348886,1005.6535,5.665662367083813,1005.6730664777423,0,0
24.1,9.517133,-2.6205287,0.48667622,1005.68695,5.665158387055969,1005.673269951022,0,0
24.12,9.488457,-2.5251975,0.4866765,1005.6864,5.664751398688892,1005.6734970081881,0,0
24.14,9.521918,-2.4679990000000003,0.5056143,1005.67194,5.6644705789144885,1005.6736920306703,0,0
24.16,9.569718,-2.4918318,0.5150834,1005.66144,5.6644117384724835,1005.6738202452257,0,0
24.18,9.421547,-2.4775321,0.519818,1005.6889,5.6642447321953036,1005.6739878227237,0,0
24.2,9.39765,-2.6491282000000003,0.78494495,1005.67694,5.664065239202508,1005.674146522039,0,0
24.22,9.397653,-2.3822012000000004,0.60977215,1005.6919,5.663706258760646,1005.6743506612747,0,0
24.24,9.455013,-2.5347311,0.7707421,1005.65906,5.663408490798372,1005.674475992323,0,0
24.26,9.450235,-2.5919297,0.7091951,1005.64404,5.6631777136970225,1005.6744771652648,0,0
24.28,9.378541,-2.59193,0.5482256,1005.71716,5.6628420980648055,1005.6746318598813,0,0
24.3,9.435902,-2.634829,0.5813666999999999,1005.6971,5.662557540213269,1005.6748494333486,0,0
24.32,9.502821,-2.6014630000000003,0.6760550000000001,1005.67456,5.6624470302094245,1005.6750406393048,0,0
24.34,9.5123825,-2.5204318,0.52928865,1005.68207,5.6624475032764865,1005.6752348945855,0,0
24.36,9.42635,-2.6538954,0.4298664000000001,1005.6821,5.6624366953079255,1005.6754312529314,0,0
24.38,9.450539,-2.6300697,0.6571443,1005.6944,5.662477121734443,1005.6756730426551,0,0
24.4,9.474451,-2.5442720000000003,0.6240047,1005.6848,5.66255909299005,1005.6759195451016,0,0
24.42,9.474464,-2.64437,0.61927164,1005.66693,5.662731718600402,1005.6761049923007,0,0
24.44,9.374103,-2.6062380000000003,0.6429448,1005.66724,5.6627652399831465,1005.676236939474,0,0
24.46,9.3310995,-2.6062384,0.62874293,1005.67944,5.662587882910272,1005.6763650590138,0,0
24.48,9.307212,-2.558573,0.6618850000000001,1005.6723,5.662155281400678,1005.6764636312269,0,0
24.5,9.412382,-2.6253052,0.84652805,1005.6946,5.66177534091589,1005.6766160205617,0,0
24.52,9.488873,-2.5061417,0.76131,1005.6573,5.661517045999948,1005.676681134104,0,0
24.54,9.464987,-2.3250127,0.6618888,1005.6598,5.661211457347307,1005.6766778963472,0,0
24.56,9.460221,-2.3965116,0.6713589,1005.6623,5.6608928219899335,1005.6766232750388,0,0
24.58,9.469793,-2.406045,0.6287504,1005.6544,5.660582026522922,1005.6764950078599,0,0
24.6,9.565404,-2.4680104,0.65715814,1005.67505,5.6605071136644725,1005.6763764689528,0,0
24.62,9.608436,-2.3393137000000004,0.51039284,1005.67706,5.6606445747232526,1005.6762741886862,0,0
24.64,9.579771,-2.3297807999999995,0.5624725,1005.6748,5.660912584405023,1005.6761785067633,0,0
24.66,9.441171,-2.3393145,0.56247383,1005.66986,5.661020390213064,1005.6760712155921,0,0
24.68,9.245211,-2.5061443,0.42991164,1005.6648,5.660665316255447,1005.6759358367367,0,0
24.7,9.40774,-2.577643,0.661899,1005.6723,5.6602940989754025,1005.6758031269679,0,0
24.72,9.465112,-2.5824096,0.74238497,1005.6623,5.6600392634902725,1005.6756372533592,0,0
24.74,9.460344,-2.6062431,0.47252512,1005.67,5.659857058500174,1005.6754703933265,0,0
24.76,9.489037,-2.6491425,0.33522865,1005.67255,5.659809200922442,1005.6753124423856,0,0
24.78,9.331318,-2.591944,0.2121354,1005.6775,5.659525512972351,1005.6751807521416,0,0
24.8,9.412587,-2.6872754,0.31155920000000004,1005.68787,5.659256245276165,1005.6751100719342,0,0
24.82,9.441278,-2.5585787,0.5624836999999999,1005.68756,5.6590097201581075,1005.6750924386439,0,0
24.84,9.565569,-2.4775476000000003,0.7518613000000001,1005.6981,5.65901653688329,1005.6751596850896,0,0
24.86,9.541684,-2.3488507000000003,0.82287866,1005.64496,5.6591456610503315,1005.6751103851828,0,0
24.88,9.254686,-2.2630477000000004,0.75184333,1005.6956,5.6587506406450405,1005.6751405863984,0,0
24.9,9.278589,-2.820735,0.84179753,1005.65283,5.658262544871574,1005.6750869540814,0,0
24.92,9.412429,-2.5824072,0.81339157,1005.6881,5.6578181577588005,1005.6750864115314,0,0
24.94,9.617965,-2.4108114,0.91281444,1005.6777,5.657753489930742,1005.6750953410527,0,0
24.96,9.551054,-2.6157734,0.8465333,1005.67505,5.657986030475367,1005.67510306795,0,0
24.98,9.4028845,-2.687272,0.732908,1005.6831,5.6582057511729404,1005.675138684392,0,0
25.0,9.426788,-2.558575,0.42043778,1005.6452,5.658351221645923,1005.6750623758161,0,0
25.02,9.455473,-2.5442753,0.4109695,1005.6731,5.658479482249567,1005.6749878850052,0,0
25.04,9.493716,-2.6348403,0.5908773,1005.66534,5.65873725107842,1005.6748873325392,0,0
25.06,9.570198,-2.6872725,0.8181291,1005.6556,5.6593240043579724,1005.6747290499827,0,0
25.08,9.465047,-2.7015722,0.7187071,1005.67035,5.659981749471326,1005.674573426936,0,0
25.1,9.340777,-2.7111053,0.6903012,1005.6756,5.660453509108264,1005.6744396140754,0,0
25.12,9.364681,-2.4966106,0.6997704,1005.6656,5.660689118295629,1005.6742895544203,0,0
25.14,9.52242,-2.3774467,0.642958,1005.68304,5.660962060326197,1005.6741884633136,0,0
25.16,9.584562,-2.3154814,0.7423810000000001,1005.6781,5.6613759971144475,1005.6741132207436,0,0
25.18,9.49853,-2.4584785,0.7802566,1005.67786,5.6618180694610585,1005.6740602248143,0,0
25.2,9.407718,-2.5442765,0.7376475,1005.68365,5.662140118436433,1005.6740479208017,0,0
25.22,9.551118,-2.410813,0.6855694,1005.6731,5.662564752955412,1005.674033636461,0,0
25.24,9.536784,-2.3202486,0.6098195,1005.6706,5.6629941140831646,1005.6740086537268,0,0
25.26,9.546348,-2.3774474,0.67610157,1005.67834,5.66348271837254,1005.6740021718292,0,0
25.28,9.503335,-2.286883,0.6571644,1005.663,5.66388794277038,1005.6739568366057,0,0
25.3,9.493781,-2.3583813,0.7802594,1005.6786,5.6642527528175215,1005.6739334937904,0,0
25.32,9.426868,-2.301183,0.64296216,1005.6452,5.664396721413839,1005.6738094275014,0,0
25.34,9.50813,-2.1963189,0.72818184,1005.67303,5.664471158883619,1005.6736969965897,0,0
25.36,9.450777,-2.2296848,0.76132315,1005.6832,5.664389119455793,1005.6736318634476,0,0
25.38,9.503105,-2.4155743,0.70922184,1005.6605,5.6643580133038425,1005.6735270370956,0,0
25.4,9.440963,-2.301177,0.7612998000000001,1005.66614,5.664197893072077,1005.6734078191968,0,0
25.42,9.565233,-2.3059433,0.7897058000000001,1005.6733,5.664181581462293,1005.6733020901128,0,0
25.44,9.584347,-2.3011767999999995,0.73762685,1005.6605,5.664320228604369,1005.6731625803695,0,0
25.46,9.488746,-2.305943,0.58612555,1005.68085,5.6643837193376205,1005.6730669842708,0,0
25.48,9.479182000000002,-2.3011765,0.5387810000000001,1005.68854,5.664353292538111,1005.6730382184152,0,0
25.5,9.450499,-2.553804,0.68081266,1005.64825,5.664330925431197,1005.6729235633184,0,0
25.52,9.445713,-2.4918385,0.7376251,1005.66833,5.664281577448119,1005.672805717247,0,0
25.54,9.483946,-2.453706,0.8133751,1005.6556,5.664277681508456,1005.6726396478764,0,0
25.56,9.50306,-2.4632387,0.8275778,1005.6832,5.664359697131758,1005.6725309262478,0,0
25.58,9.708587,-2.1867785,0.68554527,1005.66583,5.664773953788793,1005.6724107364824,0,0
25.6,9.622545,-2.1724787,0.64293516,1005.67084,5.665293776653078,1005.6722988821543,0,0
25.62,9.4409075,-2.3393080000000004,0.7234195999999999,1005.6832,5.665629842238475,1005.6722392916944,0,0
25.64,9.421783,-2.553803,0.8417793,1005.66327,5.665895250376084,1005.672154348114,0,0
25.66,9.412219,-2.563336,0.6003241,1005.68085,5.666046342609817,1005.672110596313,0,0
25.68,9.550828,-2.734932,0.8465127,1005.69366,5.666505780588626,1005.6721495150748,0,0
25.7,9.326173,-2.3679068,0.538776,1005.67114,5.666542770616228,1005.6721802694386,0,0
25.72,9.421763,-2.4298718,0.44408745,1005.7033,5.6664204852294695,1005.6723194750246,0,0
25.74,9.483896,-2.525203,0.40621173,1005.67114,5.6663294722322455,1005.6724382309699,0,0
25.76,9.364396,-2.6205342000000003,0.58138424,1005.67084,5.666097626296763,1005.672537410092,0,0
25.78,9.464767,-2.4489377,0.33992913,1005.68115,5.6658270792971805,1005.672656050088,0,0
25.8,9.660734,-2.1581779,0.5245704000000001,1005.6864,5.665794318296945,1005.672810358608,0,0
25.82,9.698968,-2.2249093,0.8370407,1005.68115,5.666124089262947,1005.6729767283254,0,0
25.84,9.598586,-2.2868745,0.822837,1005.6832,5.6665973101512,1005.6731605363857,0,0
25.86,9.541225,-2.2296758,0.8181022,1005.67114,5.667051918349966,1005.6733156752566,0,0
25.88,9.465029,-2.4155781000000003,0.77551824,1005.6839,5.667419361257795,1005.673490859532,0,0
25.9,9.479374,-2.4823105,0.9222854,1005.6633,5.667798175069274,1005.6736089652637,0,0
25.92,9.412463,-2.4966102,0.7045034,1005.68835,5.668021653265938,1005.6737663912132,0,0
25.94,9.455487,-2.4394116,0.60508144,1005.67584,5.668149523667508,1005.6739129577736,0,0
25.96,9.493732,-2.587175,0.7187077,1005.6757,5.668363584278718,1005.6740488973384,0,0
25.98,9.546316,-2.4775445,0.5956137,1005.6788,5.668682942481254,1005.6741861175076,0,0
26.0,9.336011,-2.534743,0.85127217,1005.6787,5.6687425702105365,1005.674323615226,0,0
26.02,9.4698515,-2.3869798,0.46778598,1005.67114,5.668709412932269,1005.6744336471953,0,0
26.04,9.560674,-2.0771542000000003,0.5056617999999999,1005.66113,5.66863497046929,1005.6744829783133,0,0
26.06,9.441185,-2.3345482000000004,0.8133986999999999,1005.68115,5.668446832848487,1005.674550568567,0,0
26.08,9.465091,-2.5156775,0.82286805,1005.6733,5.668301734714669,1005.6746057892683,0,0
26.1,9.202207,-2.6062422,0.9838383,1005.6786,5.667751266443174,1005.6746689614392,0,0
26.12,9.288251,-2.8445704,0.75658756,1005.66583,5.667112433360732,1005.6746929601076,0,0
26.14,9.503347,-2.4775455,0.4961958,1005.6763,5.666584935862099,1005.6747199506752,0,0
