Timestamp,Ax,Ay,Az,P,LPFRMSAcc,LPFPValue,Value,Type
0.0,1.7831457,-3.0005567,7.6639314,997.35205,0.017503405050372258,3.59046738,0,0
0.02,2.6482852,-3.448613,10.343605,997.4329,0.056227484776739695,10.340837114400001,0,0
0.04,3.092802,-2.9671907,7.739681,997.40247,0.10863014726900323,19.858885690104,0,0
0.06,3.3604665,-3.7775054,8.430904,997.3874,0.17497477239678927,31.788136063111683,0,0
0.08,3.5851116000000003,-3.5820760000000003,9.855959,997.3191,0.2560017441477567,45.80473316287406,0,0
0.1,4.407233,-4.0825644,8.615544,997.3723,0.3485062021528253,61.61544160083775,0,0
0.12,4.870869,-4.154063,8.217853999999999,997.42523,0.4506399305929326,78.95469881485946,0,0
0.14,4.359425,-4.239861,6.773860000000001,997.4632,0.5581833996351633,97.58229709343551,0,0
0.16,5.611728,-4.2064949999999985,6.911157000000001,997.4479,0.6716645578522078,117.28115910284895,0,0
0.18,6.309575,-4.306592500000002,6.7785935,997.4428,0.7907459848912108,137.85565548159644,0,0
0.2,7.6335754,-3.5296433,4.856425,997.4504,0.9133047810747296,159.12982156212394,0,0
0.22,6.749663000000001,-5.1836476,7.403567,997.4552,1.041755111512851,180.94564607325438,0,0
0.24,7.00778,-4.2827682000000005,5.722853700000001,997.4428,1.17230911101679,203.16149836542562,0,0
0.26,7.753439,-5.9891963,5.3583055,997.47833,1.306656098442042,225.65096604467243,0,0
0.28,8.121492,-4.115939,5.7228556,997.4426,1.4430131112557547,248.30110956829415,0,0
0.30000000000000004,8.126282000000002,-4.001542,3.5592330000000003,997.44006,1.5785314487197124,271.01167660732045,0,0
0.32,7.935097,-5.69367,4.2457223,997.473,1.714727108534294,293.6939944072177,0,0
0.34,7.595739999999997,-5.626939,4.132098,997.4527,1.8503391968722216,316.2696217553409,0,0
0.36000000000000004,7.543171000000001,-5.503008,3.5497668,997.4454,1.9842669016663368,338.6696788818236,0,0
0.38,6.54898,-5.984431,2.9532325,997.44293,2.1148958526332726,360.83395306280886,0,0
0.4,6.4342737,-5.6078730000000006,1.6228656,997.4506,2.2407636933251034,382.71012565810133,0,0
0.42,7.5145183000000015,-5.8462014,2.205198,997.44037,2.364226293328849,404.2529406429327,0,0
0.44,7.332894,-6.0559297,2.7070458,997.4579,2.4853585772660227,425.42370981721496,0,0
0.46,6.8358006,-6.2132263,1.6560085,997.453,2.6029497399979533,446.18950690426897,0,0
0.48,6.568143400000001,-6.2179933,-0.7301304,997.46545,2.716342577085799,466.52275860553436,0,0
0.5,7.4571958,-6.823346000000001,2.8822212000000005,997.4351,2.828603754575706,486.4005042377926,0,0
0.52,7.2564525999999985,-6.303792,2.205202,997.44763,2.9381123045501916,505.80424993119993,0,0
0.54,7.0557089999999985,-6.851946000000001,0.8038192,997.41754,3.044807202086706,524.7192074701424,0,0
0.56,7.4142036,-6.418189,-0.4413285,997.4175,3.1485241547820246,543.1341778046593,0,0
0.5800000000000001,7.8396144,-6.3419247,0.40139633,997.4354,3.2498087939394424,561.0411299921417,0,0
0.6,7.581514,-7.066441,1.3719501,997.4377,3.3493338218447595,578.4347405970295,0,0
0.62,7.500266000000001,-7.157006299999999,1.3435444,997.4299,3.4469443407133094,595.312117501359,0,0
0.64,7.342540700000002,-6.828114500000001,1.2393882,997.4402,3.5417828436645333,611.6726288310198,0,0
0.66,7.4381460000000015,-6.608853,-0.1477914,997.45526,3.6335147418780966,627.5175941141163,0,0
0.68,6.8597990000000015,-6.9854107,-0.91476417,997.4426,3.7219260814459534,642.8499354594494,0,0
0.7000000000000001,6.353148,-7.328603299999997,-0.40818205,997.4377,3.8068242781811232,657.6741082245318,0,0
0.72,6.2762923,-7.271395,-0.38454476,997.4326,3.8881163417256213,671.9958778501502,0,0
0.74,6.1950293,-7.419158500000001,-0.48870218,997.42755,3.9660638613247268,685.8221475110863,0,0
0.76,6.381436,-7.581221,-0.71595424,997.43005,4.041310597365139,699.1608278324492,0,0
0.78,6.9932437000000025,-7.1617637,-0.3419368,997.4452,4.114067032016568,712.0207095042089,0,0
0.8,6.9502196,-7.3190603,-0.010529078999999998,997.4653,4.184522465493353,724.4113014751605,0,0
0.8200000000000001,7.0983872,-6.909136,0.6238807,997.46027,4.252342049381427,736.3426048273828,0,0
0.84,6.9597690000000005,-7.361959,0.16937733,997.4301,4.318018798585756,747.8250194520277,0,0
0.86,6.5152407,-7.29046,-0.39875183,997.4351,4.380844915837203,758.8694773043367,0,0
0.88,6.687305499999999,-6.4420133,-0.52658147,997.46277,4.439917486952521,769.4872961163414,0,0
0.9,7.0410047,-6.303783,-0.5076444,997.4529,4.495801283465465,779.6898769926097,0,0
0.92,6.792449,-6.8471699999999975,0.088890046,997.4326,4.549042398239822,789.4887512577072,0,0
0.94,6.491315,-7.15223,0.56232995,997.46783,4.599819035905341,798.8957612418196,0,0
0.96,6.5295467,-7.147462400000001,0.66648626,997.47284,4.6482950726418695,807.9226727473108,0,0
0.98,6.6060176,-7.5287875999999985,0.5291879,997.4529,4.69524172958855,816.5811605716724,0,0
1.0,6.6920476,-7.6670175,0.57653147,997.4349,4.7410068614089464,824.8828738752202,0,0
1.02,7.02185,-7.118863,0.54339015,997.4452,4.785190980531058,832.8394921242842,0,0
1.04,6.9979434000000005,-6.9996990000000014,0.10308984,997.4477,4.827578745522743,840.4625495575101,0,0
1.06,6.969259700000001,-7.128396,-0.19991252,997.4477,4.8683780147146365,847.7634296471012,0,0
1.08,6.892775,-7.347657000000001,-0.15730360000000002,997.4426,4.907844390515861,854.7533323075344,0,0
1.1,6.9357867,-7.2713923,-0.2283202000000001,997.46783,4.945940059305079,861.443382489986,0,0
1.12,6.9740186,-7.242792999999999,-0.19518,997.4377,4.9826980392838225,867.8442903742363,0,0
1.14,6.8879776,-7.314291000000001,-0.081554696,997.4427,5.018122753716645,873.9666868554125,0,0
1.16,6.5103655,-7.719448,0.31613459999999993,997.45026,5.052357899138177,879.8209772495003,0,0
1.18,6.4577813,-7.5001864,0.44869736,997.4452,5.085011780790016,885.4172754436181,0,0
1.2,6.5199127,-7.357189,0.42029038,997.4502,5.116009553318755,890.7654830563437,0,0
1.22,6.5202293,-7.524027,0.39664733,997.48804,5.145691378124831,895.875360507945,0,0
1.24,6.6301713000000015,-7.4096293000000015,0.48660162,997.46027,5.174084466677375,900.7561538983514,0,0
1.26,6.6540766000000025,-7.228501,0.32089797,997.4351,5.200977382384334,905.4168671440804,0,0
1.28,6.9552107,-6.832876700000001,0.074709535,997.45776,5.226282103820089,909.8664205822878,0,0
1.3,6.86918,-7.018772599999999,0.041569274,997.47046,5.250239145466696,914.1134205421916,0,0
1.32,6.7544710000000014,-7.304766000000001,0.24041484,997.4374,5.273191359178568,918.1660360328108,0,0
1.34,6.8309526,-7.333366000000002,0.40138504,997.4501,5.295335449241165,922.0323497106036,0,0
1.36,6.8452997,-7.0950375,0.12205586,997.4501,5.31633164513566,925.7201283773436,0,0
1.38,6.8787645999999985,-7.157003,0.18360367,997.44495,5.336380952770532,929.236858965116,0,0
1.4,6.7879534,-7.238034700000001,0.39191794,997.4477,5.355526148583108,932.5898011401976,0,0
1.42,6.6254478,-7.347666,0.41085628,997.425,5.373744284861939,935.7858675619948,0,0
1.44,6.5441970000000005,-7.381032,0.20727745,997.425,5.39100362162026,938.831812729072,0,0
1.46,6.5298624000000025,-7.4286976,0.24988748,997.4527,5.4074102163832185,941.7342450728764,0,0
1.48,6.5442095,-7.3524327,0.235685,997.4198,5.422904593147955,944.4993022895998,0,0
1.5,6.486858,-7.500196000000001,0.2735608,997.46027,5.437691374304864,947.133166330054,0,0
1.52,6.620699,-7.4429979999999984,0.13626362,997.4223,5.451887852033017,949.6414894774107,0,0
1.54,6.563348,-7.419165,0.23568670000000005,997.4527,5.465399359982735,952.0299641682968,0,0
1.56,6.6159315,-7.1188717000000015,0.20728084,997.43994,5.477866769228102,954.303896318158,0,0
1.58,6.8405886,-6.9425097,0.19781259,997.4526,5.489424312113549,956.4684780990301,0,0
1.6,6.955311,-7.142705,0.1930788,997.4878,5.500600112779839,958.5287721194518,0,0
1.62,6.931417999999999,-7.2046704,0.41086203,997.44745,5.51147003289297,960.4893551562664,0,0
1.64,7.012678599999999,-7.1665387,0.38719037,997.46265,5.522089269737456,962.3548301890334,0,0
1.66,6.9266496,-6.9901757,0.20728366,997.4374,5.532051128576404,964.1294611793056,0,0
1.68,6.8692990000000025,-7.061674000000001,0.23569071,997.43994,5.541420119365473,965.8174428460648,0,0
1.7,6.702012,-7.290469,0.2972386,997.45264,5.550341557742847,967.4228301565672,0,0
1.72,6.5536504,-7.481127000000001,0.26408052,997.43744,5.5589224135743285,968.9494029795636,0,0
1.74,6.6827039999999975,-7.257098700000001,0.103110656,997.45514,5.566998084369451,970.4009033792368,0,0
1.76,6.797417,-7.1760674,0.00842246,997.42,5.574636844039596,971.7807178802228,0,0
1.78,6.811756,-7.090269,0.036828768,997.4727,5.5817537232257886,973.092413108925,0,0
1.8,6.630122,-7.1998997000000005,0.036828678,997.44257,5.588291168583968,974.3390875778143,0,0
1.82,6.352893,-7.5478587,0.26881438,997.4627,5.594462614423966,975.5238941432448,0,0
1.84,6.4484873,-7.4191613,0.32562709999999995,997.4147,5.600217909851878,976.6495961255432,0,0
1.86,6.6874756999999985,-7.1570009999999975,0.34456465,997.46515,5.605513937051273,977.7192023910504,0,0
1.88,6.7926307,-7.1427007,0.17886034,997.43005,5.610504161222344,978.7352655386447,0,0
1.9,6.7974086,-7.166534,0.18832903,997.4577,5.615249329174851,979.7004596999201,0,0
1.92,6.773509,-7.2237325,0.30668905,997.45514,5.619819429150512,980.617222109903,0,0
1.94,6.763947999999999,-7.271398,0.19306323,997.4326,5.624271259085655,981.4878087357685,0,0
1.96,6.787846000000001,-7.1856,0.11731267,997.42725,5.628503972216666,982.3144410669344,0,0
1.98,6.7352667,-7.1856,0.074702874,997.46747,5.632452086698724,983.0994042989116,0,0
2.0,6.663568,-7.3381295,0.15518764,997.4323,5.636268414139166,983.8445962352105,0,0
2.02,6.6253285,-7.342896,0.25461003,997.4499,5.639912849485303,984.5520269236777,0,0
2.04,6.625327,-7.2237325,0.33036038,997.47003,5.643213823464124,985.2236174910817,0,0
2.06,6.783060000000001,-7.0855026,0.21673457,997.4627,5.646207357764927,985.861095613472,0,0
2.08,6.725701299999999,-7.2094326,0.107843176,997.465,5.64902004022321,986.466145338208,0,0
2.1,6.572746,-7.314296700000001,0.38243848,997.4321,5.651623084200264,987.0402447117668,0,0
2.12,6.5392857000000015,-7.423928,0.33982876,997.4323,5.654152211784681,987.5849303172812,0,0
2.14,6.5775237,-7.314296700000001,0.28301582,997.42725,5.65648587886392,988.1016468691714,0,0
2.16,6.7209163,-7.261864,0.240406,997.45996,5.6587564060823095,988.5919075416923,0,0
2.18,6.6157594,-7.428694,0.24040592,997.4501,5.661072753973405,989.056991364782,0,0
2.2,6.955124400000001,-7.00447,0.18359292,997.4675,5.663259623556794,989.4982172619507,0,0
2.22,6.9131064,-7.118892,0.06059002,997.45245,5.665429550637407,989.916719702546,0,0
2.24,6.798429,-7.152259299999999,0.3209858,997.4801,5.667472034111808,990.3137366281267,0,0
2.26,6.769786,-7.171326,0.29731703,997.45746,5.669380849738437,990.6902581877088,0,0
2.28,6.784163499999999,-7.209460000000001,0.32099253,997.45746,5.671244360349284,991.0473145642798,0,0
2.3,6.741173700000001,-7.285725,0.39674565,997.4474,5.673121728152993,991.3858498861864,0,0
2.32,6.664733,-7.347691499999999,0.35887364,997.44226,5.674989240300414,991.7067827730327,0,0
2.34,6.6360899999999985,-7.333392599999999,0.42042416,997.45233,5.676784401615183,992.0110430418672,0,0
2.36,6.5644426,-7.185631,0.24999014,997.42957,5.678169864668101,992.2993941124588,0,0
2.38,6.574039999999999,-7.295263,0.13163354,997.44464,5.679365652680932,992.5727040036284,0,0
2.4,6.5931954,-7.586023,0.27366894,997.4625,5.680874409577992,992.831803889053,0,0
2.42,6.5980177,-7.6289234,0.25946963,997.47003,5.682727404523599,993.0774421618137,0,0
2.44,6.7127666,-7.3238645,0.13164376,997.42957,5.684557796419476,993.3101557998424,0,0
2.46,6.7223644,-7.2761993,0.008552719,997.43225,5.6863004287131,993.5306211095246,0,0
2.48,6.7032804000000015,-7.314333,0.08430645,997.455,5.687991446420022,993.7395520211662,0,0
2.5,6.6746373,-7.3286333,0.2689515,997.422,5.689619395897218,993.9374201874164,0,0
2.52,6.703354400000001,-7.347701,0.2736894,997.47754,5.691255499033973,994.12500093044,0,0
2.54,6.7033944000000005,-7.290503,0.3731156,997.43933,5.692812080484213,994.3026788596263,0,0
2.56,6.684314,-7.228539,0.42046311,997.47015,5.694175276928562,994.4710779739607,0,0
2.58,6.5887527000000015,-7.300038000000002,0.35891914,997.4624,5.695333396760099,994.6306441906804,0,0
2.6,6.421496,-7.385836999999999,0.49148571,997.437,5.696221130403558,994.7817397806873,0,0
2.62,6.445435,-7.3715386,0.3494573,997.42694,5.696864376835874,994.9247705648069,0,0
2.64,6.5315094,-7.352473299999999,0.2784447,997.42944,5.697373073880932,995.0601693756216,0,0
2.66,6.5219736,-7.4811707,0.2926501,997.45734,5.697949541990456,995.1884375791057,0,0
2.68,6.5507026,-7.438273,0.16009133,997.4423,5.698549830181178,995.3098892684187,0,0
2.7,6.651114,-7.2714443,0.23111065,997.4524,5.699053296198968,995.4249170197301,0,0
2.72,6.5974770000000005,-7.381049000000001,0.21681048,997.4524,5.699562906162819,995.5338544795172,0,0
2.74,6.501877,-7.5192795,0.297295,997.45465,5.700164995183692,995.6370264828591,0,0
2.76,6.6882834,-7.3524494,0.33990416,997.44714,5.7008471357751125,995.7347056736741,0,0
2.78,6.64526,-7.3524494,0.25941876,997.42444,5.7015324668763165,995.8270980502524,0,0
2.8,6.592677,-7.390581599999999,0.29255912,997.44714,5.7022060270933865,995.9145681052164,0,0
2.82,6.616572,-7.3429160000000016,0.30676198,997.43176,5.7028270620014085,995.9973185366036,0,0
2.84,6.52575,-7.4239473,0.24047975,997.4446,5.703395949371092,996.0756470310457,0,0
2.86,6.535304,-7.395347599999999,0.2546825,997.44684,5.703885995742322,996.1497943834227,0,0
2.88,6.611776,-7.3190827,0.25941643,997.41675,5.704292570552515,996.219872024203,0,0
2.9,6.5305142,-7.4382467,0.17419669,997.43695,5.704692655300647,996.2861741083093,0,0
2.92,6.5544080000000005,-7.357214999999999,0.2452123,997.4419,5.704995459903263,996.3489192430355,0,0
2.94,6.64522,-7.3762813,0.2594151,997.4217,5.705367382374103,996.4082228548046,0,0
2.96,6.6738940000000015,-7.3190827,0.2310082,997.4116,5.705749529372327,996.4642356838867,0,0
2.98,6.630872,-7.2952495,0.31149274,997.43176,5.70604713507038,996.5172117072017,0,0
3.0,6.53527,-7.323848700000001,0.29255465,997.4544,5.706178996611223,996.5673951992568,0,0
3.02,6.40621,-7.514511,0.4109142,997.4393,5.706294964409058,996.6148761901193,0,0
3.04,6.4826812999999985,-7.347681,0.36356977,997.4217,5.7062349008649065,996.6597349593612,0,0
3.06,6.5878320000000015,-7.3619804,0.30675640000000004,997.4416,5.706182778722211,996.7021868820094,0,0
3.08,6.606947,-7.395346000000001,0.24520874,997.42676,5.706212444148412,996.7423058640863,0,0
3.1,6.6212807,-7.319082000000001,0.18366095,997.4217,5.706213560040928,996.7802008155384,0,0
3.12,6.540021,-7.423946000000001,0.16472304,997.44684,5.706238859135477,996.816084695706,0,0
3.14,6.5447935999999975,-7.3715134,0.22153527,997.42926,5.706212696025113,996.8499991233173,0,0
3.16,6.592587,-7.3810463,0.27834767,997.45184,5.706224976057791,996.8821325387106,0,0
3.18,6.535224,-7.404878999999997,0.30675367,997.4368,5.706230828714474,996.9125224274127,0,0
3.2,6.587797,-7.3762794,0.33989406,997.42645,5.706261313076848,996.9412250723317,0,0
3.22,6.592573599999999,-7.395345,0.29254967,997.429,5.706346469368971,996.9683427191212,0,0
3.24,6.6069064,-7.4096449999999985,0.27834582,997.4365,5.706520770142299,996.9939892380356,0,0
3.26,6.592561999999999,-7.4477773,0.2641422,997.44916,5.706811840800783,997.0182891168917,0,0
3.28,6.5686584,-7.3762794,0.17892244,997.4415,5.7070570080008425,997.0412840490276,0,0
3.3,6.6164513,-7.338146000000001,0.15524995,997.434,5.707267162417398,997.0630161484868,0,0
3.32,6.5065103,-7.414411500000001,0.31621924,997.4163,5.707420183493492,997.0834904534345,0,0
3.34,6.487386,-7.423944500000001,0.31621876,997.4594,5.70751089606037,997.1029348236535,0,0
3.36,6.525621,-7.4763765,0.28307763,997.43896,5.7076784354214105,997.121325559814,0,0
3.38,6.568633,-7.409644,0.35409313,997.4264,5.7078729229270495,997.1386738822702,0,0
3.4,6.5256095,-7.3619785,0.23099813,997.41895,5.707949548668468,997.1550118540164,0,0
3.42,6.5542836,-7.3858112999999985,0.23573206,997.4263,5.70799857246378,997.1704247231768,0,0
3.44,6.578178,-7.4573092,0.32095093,997.4213,5.708172151822011,997.1849466853633,0,0
3.46,6.5590534,-7.3715115,0.19312154,997.434,5.7082884905648426,997.1986748830842,0,0
3.48,6.5733875999999976,-7.3143125,0.08422976,997.44135,5.7082818932773165,997.2116787490112,0,0
3.5,6.5542636,-7.443010000000001,0.3919656,997.43146,5.708355474845085,997.2239601774478,0,0
3.52,6.544699,-7.433476,0.33515236,997.4339,5.708467317960228,997.2355678309757,0,0
3.54,6.702428,-7.3095455,0.3540895,997.4187,5.7086414271797015,997.2464836294412,0,0
3.56,6.645065,-7.3953433,0.34462020000000004,997.4339,5.708921113800888,997.2568035278996,0,0
3.58,6.5542436,-7.462075,0.23572844,997.4189,5.709264803384756,997.2665057374768,0,0
3.6,6.6880729999999975,-7.276179300000001,0.32094726,997.4263,5.709567331349526,997.2756538692045,0,0
3.62,6.7071886,-7.24758,0.23572758,997.4387,5.709810659187857,997.2843241244698,0,0
3.64,6.592467299999999,-7.3858104,0.2546647,997.4213,5.710054001764193,997.292478275174,0,0
3.66,6.5303245,-7.481140600000002,0.36355552,997.41364,5.710366575839442,997.300119464946,0,0
3.68,6.5303197,-7.481140600000002,0.24992935,997.4438,5.710731899595113,997.3073884701544,0,0
3.7,6.459678,-7.428735,0.2026819,997.4085,5.710961742768237,997.314175364664,0,0
3.72,6.383218,-7.4573345,0.33524677,997.4363,5.711019803668723,997.32061191334,0,0
3.74,6.4453664,-7.481167299999999,0.2594973,997.4085,5.711042795111009,997.326615644862,0,0
3.76,6.540983,-7.4192023,0.26896802,997.4236,5.7110687130195394,997.3322696857132,0,0
3.78,6.6604905,-7.333405,0.27370355,997.43616,5.711130130372638,997.3376396013408,0,0
3.8,6.646172,-7.2905064,0.21215820000000005,997.41846,5.711133600831808,997.3426754122247,0,0
3.82,6.6366277,-7.285740400000001,0.2973789,997.4034,5.711069755626945,997.3473436632378,0,0
3.84,6.584065400000001,-7.366772,0.24530187,997.4438,5.710995523255451,997.3518157726453,0,0
3.86,6.6796789999999975,-7.362006,0.29738194,997.411,5.7110409194156695,997.355980391736,0,0
3.88,6.593657,-7.3191074999999985,0.22636715,997.42584,5.711001971686537,997.3599117437544,0,0
3.9,6.579336,-7.390606,0.30685377,997.43854,5.710983966390066,997.3636685481202,0,0
3.92,6.5172143,-7.438272,0.31632397,997.4133,5.710973941551704,997.3671667336847,0,0
3.94,6.608046000000001,-7.3429413,0.35420066,997.4335,5.710950879392706,997.3704965302082,0,0
3.96,6.588943,-7.419206599999999,0.17429477,997.4385,5.710998081107108,997.3736835509076,0,0
3.98,6.545942,-7.476406,0.287922,997.41064,5.711142742690426,997.3766326456143,0,0
4.0,6.526839,-7.266678,0.22164185,997.40576,5.711017064559534,997.3793433241733,0,0
4.02,6.641570599999999,-7.2476115,0.13642408,997.4208,5.710780589863613,997.3818877237803,0,0
4.039999999999999,6.5651107,-7.2857447,0.12695676,997.42084,5.710398588682655,997.3842761834676,0,0
4.06,6.6511593,-7.304811,0.31159973,997.4485,5.7100473173254525,997.3866178321872,0,0
4.079999999999999,6.589041,-7.400142999999999,0.38261756,997.42566,5.709790459566021,997.3888274647998,0,0
4.1,6.4600015,-7.476408,0.3636813,997.42096,5.709558816903899,997.3908955733027,0,0
4.119999999999999,6.4552402,-7.3191123,0.2689949,997.4234,5.709091284571347,997.3928399699124,0,0
4.14,6.50783,-7.4096766,0.29266804,997.41815,5.708631841259183,997.394649154865,0,0
4.159999999999998,6.550863,-7.409677,0.29266936,997.4208,5.708240307290375,997.3963418937312,0,0
4.18,6.6225830000000006,-7.400144999999997,0.30214027,997.43585,5.70799500999034,997.3979798269763,0,0
4.199999999999998,6.6038837,-7.333423599999999,0.23116267,997.42596,5.707746727053924,997.3995278334143,0,0
4.22,6.623026400000001,-7.3620234,0.292712,997.4281,5.707570863111273,997.4009985117027,0,0
4.239999999999998,6.59917,-7.419223,0.24063753,997.4382,5.707512242013991,997.4024319283963,0,0
4.26,6.5800740000000015,-7.447823,0.30692127,997.4105,5.707579369789228,997.4037275404444,0,0
4.2799999999999985,6.584890400000001,-7.2809944,0.30692467,997.4307,5.707505637591401,997.4049694441046,0,0
4.3,6.666174400000001,-7.3048277000000015,0.36373997,997.4231,5.707461904634767,997.4061320601801,0,0
4.3199999999999985,6.5658436,-7.3191285000000015,0.35427532,997.40796,5.707326327610928,997.4071659283272,0,0
4.34,6.575423700000001,-7.3477283,0.4536997,997.4131,5.707176067241808,997.4081008168804,0,0
4.3599999999999985,6.5659037,-7.33343,0.36374962,997.4483,5.706970314512595,997.4090716014653,0,0
4.38,6.637635,-7.433528,0.354284,997.43823,5.706969859198071,997.4100343569593,0,0
4.4,6.6759048,-7.4525957,0.37795883,997.43286,5.707235120270016,997.4109672200284,0,0
4.42,6.613802400000001,-7.285767,0.11283539,997.42804,5.707376772772232,997.4118529598444,0,0
4.44,6.5660357000000005,-7.371566,0.103369415,997.4105,5.707474695828947,997.4126307288901,0,0
4.46,6.537383,-7.466897,0.34956092,997.3927,5.707654394076321,997.4132462149953,0,0
4.48,6.6138906,-7.4335318,0.36376697,997.41534,5.707959960103924,997.4137975961437,0,0
4.5,6.637828999999999,-7.347735000000001,0.28802007,997.418,5.70827096718974,997.4142999251801,0,0
4.52,6.6091833,-7.3096036999999985,0.46793047,997.4128,5.708501315376156,997.414738383386,0,0
4.539999999999999,6.5183983,-7.404935000000001,0.4679333,997.4128,5.708681775477536,997.4151188268767,0,0
4.56,6.5710006,-7.4001694,0.40638828,997.41785,5.70887678345247,997.4154648189681,0,0
4.579999999999999,6.5710416,-7.5813,0.4442673,997.4101,5.709370107740573,997.415751224232,0,0
4.6,6.7001295,-7.462136,0.2359565,997.3925,5.710102346739283,997.415920587516,0,0
4.619999999999999,6.75752,-7.2857747,0.16967784,997.4227,5.710849936091713,997.4160946427983,0,0
4.64,6.652386999999999,-7.1618443,0.1412735,997.4278,5.7112700606711515,997.416290577332,0,0
4.659999999999998,6.4707956,-7.223811,0.41587275,997.39014,5.7112565176774375,997.4163695630076,0,0
4.68,6.523404,-7.352508500000001,0.6431271,997.39764,5.711157426651878,997.4163719283237,0,0
4.699999999999998,6.6190276,-7.3572755,0.6289262,997.4202,5.7111207198974405,997.416387799375,0,0
4.72,6.723379,-7.371556299999999,0.71407187,997.39764,5.711318426915258,997.4163343309584,0,0
4.739999999999998,6.565645,-7.4001554999999986,0.4868205,997.4253,5.7115193168735985,997.4163193626737,0,0
4.76,6.4509300000000005,-7.32389,0.11280249,997.4126,5.711422089658162,997.4162927469918,0,0
4.7799999999999985,6.470049,-7.3810887,0.17434976,997.42285,5.711179196462455,997.416292835486,0,0
4.8,6.6038833,-7.443053999999999,0.23589702,997.4328,5.711091646159967,997.4163523394716,0,0
4.8199999999999985,6.737717999999999,-7.452587599999997,0.2927099,997.4429,5.711345069714345,997.4165004887717,0,0
4.84,6.6086636,-7.404921499999999,0.2216938,997.43536,5.711642198241598,997.4166992877333,0,0
4.8599999999999985,6.474829,-7.4478206999999985,0.25956905,997.47314,5.711861862740308,997.4170781330597,0,0
4.88,6.393572,-7.457354,0.3211163,997.4276,5.711920731970109,997.4174507595116,0,0
4.9,6.4413705000000006,-7.5479183,0.4205388,997.4123,5.712052538627619,997.4177614695101,0,0
4.92,6.527407,-7.4478206999999985,0.41107,997.4428,5.712207141772852,997.4181261515744,0,0
4.94,6.6421220000000005,-7.371556299999999,0.34952274,997.4149,5.712416293077912,997.4184367705008,0,0
4.96,6.6373425,-7.362023,0.35899156,997.425,5.712652237040305,997.4187348610104,0,0
4.98,6.6134434,-7.362023,0.4205388,997.43756,5.712882833210736,997.4190660242848,0,0
5.0,6.6038833,-7.414455,0.41580442,997.42737,5.713175376286332,997.419388534467,0,0
5.02,6.589544,-7.404921499999999,0.27850667,997.4172,5.713477027444829,997.4196656257398,0,0
5.039999999999999,6.5321865,-7.395388599999999,0.29744428,997.43256,5.713692912800102,997.4199568833355,0,0
5.06,6.517847,-7.466887,0.3211163,997.45245,5.713925734044842,997.4203312137674,0,0
5.079999999999999,6.44615,-7.4478206999999985,0.31638190000000005,997.4298,5.714044761315893,997.4206960597674,0,0
5.1,6.522627,-7.466887,0.31638190000000005,997.45264,5.714196947205751,997.4211334358777,0,0
5.119999999999999,6.5321865,-7.4001554999999986,0.38739797,997.435,5.7142920788079765,997.4215698210396,0,0
5.14,6.6086636,-7.3143573,0.36846036,997.435,5.714307838726777,997.4220037596132,0,0
5.159999999999998,6.6516814,-7.333423599999999,0.33058512,997.43756,5.714339953779881,997.4224431902015,0,0
5.18,6.565645,-7.362023,0.3921324,997.45514,5.714315743072742,997.4229491795853,0,0
5.199999999999998,6.5282183,-7.46214,0.33539382,997.4299,5.714341906822307,997.423421294758,0,0
5.22,6.485233,-7.4621406000000015,0.325928,997.4678,5.714353147157477,997.4239982190636,0,0
5.239999999999998,6.504383,-7.457375,0.34486845,997.42737,5.714371149700442,997.4245201277913,0,0
5.26,6.623913000000001,-7.3572783,0.24071474,997.4324,5.714397721623078,997.4250096538832,0,0
5.2799999999999985,6.6765137,-7.414478,0.231248,997.4374,5.71459276275326,997.4254868043837,0,0
5.3,6.6048493000000015,-7.376346000000002,0.33540794,997.4325,5.714783708363571,997.4259336620703,0,0
5.3199999999999985,6.557092699999999,-7.419246,0.32594290000000004,997.465,5.714970337444675,997.4264691443387,0,0
5.34,6.471089,-7.362048,0.28807068,997.43994,5.714942747732418,997.4269907915517,0,0
5.3599999999999985,6.557161,-7.4526134000000015,0.3922308,997.44226,5.7149927700700935,997.427506688179,0,0
5.38,6.49983,-7.4812136,0.38276443,997.44476,5.715076766379582,997.4280246463617,0,0
5.4,6.4903054,-7.443082,0.23126668,997.44495,5.715107971134628,997.4285432454852,0,0
5.42,6.4998955999999986,-7.5193477,0.26914477,997.4574,5.7152271275020095,997.4291053639868,0,0
5.44,6.5142665,-7.4287839999999985,0.21706913,997.42224,5.7152985981627475,997.4295773365843,0,0
5.46,6.705491,-7.362052999999999,0.18866573,997.46,5.715487877643303,997.43010389316,0,0
5.48,6.5430107,-7.462150999999999,0.18866873,997.4298,5.7157106754312945,997.4305680645348,0,0
5.5,6.39965,-7.4573855,0.36384475,997.43475,5.715769820793827,997.4309932613291,0,0
5.52,6.3948946,-7.443086599999999,0.24075249,997.45483,5.715647305378737,997.431454777476,0,0
5.539999999999999,6.4905300000000015,-7.428787700000001,0.32124093,997.43475,5.7154771472920585,997.4318744359443,0,0
5.56,6.624391,-7.3954225,0.45380676,997.4473,5.715408592954644,997.4323007781976,0,0
5.579999999999999,6.7009077,-7.290559299999999,0.40646625,997.4549,5.715371305080782,997.4327588514113,0,0
5.6,6.6722555,-7.342992,0.31178066,997.44476,5.715394898164713,997.4332068090373,0,0
5.619999999999999,6.509773,-7.381125,0.34018990000000005,997.475,5.715308033593278,997.4337530798834,0,0
5.64,6.6675477,-7.328694299999999,0.25023997,997.4574,5.715255866117152,997.4343208937157,0,0
5.6599999999999975,6.576756,-7.3239284,0.23603903,997.4448,5.715099972343593,997.4348603388,0,0
5.68,6.5337687,-7.333462,0.26918268,997.4496,5.7148099741215885,997.4353900552572,0,0
5.6999999999999975,6.462105,-7.4383273,0.30706096,997.43695,5.714470056536661,997.4358637285196,0,0
5.72,6.4381156,-7.471691000000001,0.3117871,997.42694,5.7141073695534566,997.4362501407916,0,0
5.7399999999999975,6.5002747,-7.443092299999999,0.35439876,997.4497,5.7137685915899326,997.4366399941684,0,0
5.76,6.581558,-7.428792999999999,0.36387,997.44714,5.713542080924723,997.4370222686333,0,0
5.7799999999999985,6.624604,-7.3525285999999985,0.26445,997.4749,5.713350471882234,997.4374964061833,0,0
5.8,6.5577164,-7.381129,0.16503023,997.4774,5.713137519187484,997.4380590070599,0,0
5.8199999999999985,6.653338400000001,-7.333464,0.24078313,997.4295,5.712968748917245,997.4385253087694,0,0
5.84,6.543431299999999,-7.438328999999999,0.40648982,997.4371,5.712861216161883,997.4389322018485,0,0
5.8599999999999985,6.6533995,-7.2381344,0.31180477,997.4571,5.712644554854121,997.439357136646,0,0
5.88,6.6725454,-7.3143997,0.36862004,997.45465,5.712480010613903,997.4397876633412,0,0
5.9,6.6343274,-7.4764633,0.38282517,997.46967,5.712560364898793,997.4402756531412,0,0
5.92,6.443168599999999,-7.50983,0.34495297,997.45465,5.712645112419728,997.4407585885773,0,0
5.94,6.4240723,-7.481231,0.28340775,997.4596,5.712658450052402,997.4412531394096,0,0
5.96,6.4336660000000006,-7.4097339999999985,0.3733647,997.46967,5.712515491963508,997.4417924252232,0,0
5.98,6.519724,-7.4383339999999984,0.2076624,997.44714,5.712387098403336,997.4422881894372,0,0
6.0,6.562775,-7.395435000000001,0.2644783,997.4419,5.712267170724129,997.4427248492148,0,0
6.02,6.5962553,-7.4192686,0.3402307,997.42694,5.712243167661401,997.4430538563373,0,0
6.039999999999999,6.648862400000001,-7.3954363,0.39231187,997.44965,5.712343922745062,997.4433683131476,0,0
6.06,6.56285,-7.3382382,0.3970485,997.4595,5.712347247959201,997.4437042412578,0,0
6.079999999999999,6.639357,-7.3716054,0.28342548,997.4669,5.7124140771275975,997.4440845720676,0,0
6.1,6.672842,-7.314407000000001,0.3165687,997.4418,5.712497539911313,997.4444124079117,0,0
6.119999999999999,6.596392599999999,-7.3620734,0.35918093,997.45184,5.7125653678147295,997.4447288229946,0,0
6.14,6.634657400000001,-7.400206599999999,0.2597608,997.4594,5.7127247354811725,997.4450612235997,0,0
6.1599999999999975,6.5534334,-7.381141,0.27870145,997.4446,5.712823575586605,997.4453532723693,0,0
6.18,6.586916400000002,-7.357309,0.2976413,997.4695,5.712879062282277,997.4456982548813,0,0
6.1999999999999975,6.515246,-7.4240417,0.34972218,997.43933,5.7129045689041735,997.4459801557117,0,0
6.22,6.5339746,-7.376366,0.29760802,997.44684,5.712851383971176,997.4462323387248,0,0
6.2399999999999975,6.5339856,-7.3763666,0.3260154000000001,997.4694,5.712730742099158,997.4465385712157,0,0
6.26,6.4527392,-7.4621644,0.27867225,997.4442,5.7125708792325804,997.446800739388,0,0
6.2799999999999985,6.5818086,-7.4287990000000015,0.30234570000000005,997.467,5.712502834850769,997.4471051085234,0,0
6.3,6.682195,-7.323935499999997,0.34495628,997.4443,5.7124964897837245,997.4473639507007,0,0
6.3199999999999985,6.7156625,-7.2762699999999985,0.21712816,997.47705,5.712511199644967,997.4476995334261,0,0
6.34,6.658315700000001,-7.3906674,0.3733645,997.46185,5.7126494538466694,997.4480469960021,0,0
6.3599999999999985,6.5961905,-7.3906674,0.3828344,997.4443,5.712810981144672,997.4483405247483,0,0
6.38,6.5484037000000015,-7.3430023,0.4396483,997.477,5.712857480105683,997.4487030608597,0,0
6.4,6.5531935999999975,-7.381135499999999,0.3686332000000001,997.4442,5.712861898253831,997.4490071867483,0,0
6.42,6.51497,-7.385902400000001,0.39230657,997.47943,5.712785818265586,997.4493854345112,0,0
6.44,6.45762,-7.4574003,0.36863524,997.4847,5.712670414112539,997.4498467866704,0,0
6.46,6.4528522000000015,-7.5003,0.31182352,997.46185,5.712577602254824,997.4502976490063,0,0
6.48,6.5675789999999985,-7.37637,0.25974602,997.46674,5.712465192755607,997.4507552234296,0,0
6.5,6.653626400000001,-7.400202799999999,0.24554387,997.42914,5.712491238125566,997.451081721386,0,0
6.52,6.5962806,-7.343004,0.27868572,997.47437,5.712473313617058,997.4514540527832,0,0
6.539999999999999,6.5676130000000015,-7.4002037,0.35443723,997.4692,5.7124706138271675,997.4518469302157,0,0
6.56,6.5915246,-7.3573046,0.35443842,997.46686,5.712447925045433,997.452248123766,0,0
6.579999999999999,6.644111,-7.314406,0.3591737,997.46686,5.712415013715912,997.452655221142,0,0
6.6,6.6106644,-7.4288034,0.35444033,997.48175,5.7125030884802666,997.4531196735867,0,0
6.619999999999999,6.51508,-7.4335704,0.42545745,997.44635,5.712579564329619,997.4535056929424,0,0
6.64,6.495971,-7.424038,0.4017864,997.4565,5.712602421610563,997.4538575591504,0,0
6.6599999999999975,6.5198817,-7.371606,0.32603696,997.4791,5.7125230445720385,997.4542593409187,0,0
6.68,6.5581320000000005,-7.3668394,0.31656927,997.4716,5.712398309662758,997.454676781662,0,0
6.6999999999999975,6.553362,-7.4335713,0.31657007,997.47925,5.712331141324309,997.4551340958889,0,0
6.72,6.5437183,-7.40497,0.33550006,997.46155,5.712258574556367,997.4555612759945,0,0
6.7399999999999975,6.5915227,-7.2715070000000015,0.27395338,997.4716,5.7120371734135,997.455996471742,0,0
6.76,6.562851400000001,-7.41927,0.35443896,997.48706,5.711879334735086,997.4564928394065,0,0
6.7799999999999985,6.620217,-7.385905,0.40651816,997.5172,5.711809858640812,997.4571499756528,0,0
6.8,6.701482,-7.242908,0.3118308,997.4742,5.711705618884867,997.4577920013277,0,0
6.8199999999999985,6.7445083,-7.2286085999999985,0.2550187,997.4767,5.711606732367545,997.4584273640093,0,0
6.84,6.5963407000000025,-7.4335704,0.3733794,997.46136,5.711628500288692,997.4589993279643,0,0
6.8599999999999985,6.4864120000000005,-7.4335710000000015,0.46806812,997.4739,5.71161435493358,997.4595583577344,0,0
6.88,6.572457000000001,-7.3763723,0.212411,997.47644,5.7115793172385825,997.4601130903512,0,0
6.9,6.5151080000000015,-7.443104300000001,0.34497514,997.5018,5.711558758044998,997.4607533249664,0,0
6.92,6.5533524000000005,-7.404972,0.3307725,997.44604,5.711543085481543,997.461266068302,0,0
6.94,6.6346164000000005,-7.390672,0.34497637,997.4815,5.711622939071102,997.461791970468,0,0
6.96,6.6298437,-7.328707700000002,0.32130504,997.4765,5.711683001807454,997.4623096065276,0,0
6.98,6.6107326,-7.333474000000002,0.2171488,997.4967,5.711700200872624,997.4628907951668,0,0
7.0,6.668097,-7.2667427,0.28816554,997.5042,5.711660863641058,997.4635530465857,0,0
7.02,6.6776648000000005,-7.343007000000001,0.34971353,997.4788,5.711706211244477,997.4641931009717,0,0
7.039999999999999,6.6346545,-7.3430076,0.42546472,997.46124,5.711772384660814,997.4647480218634,0,0
7.06,6.6442227,-7.338241,0.27869898,997.46124,5.711851866399206,997.4652257210847,0,0
7.079999999999999,6.5581937,-7.3287086,0.37812215,997.46906,5.7118154194555535,997.465661619521,0,0
7.1,6.5486417,-7.362074400000001,0.4538733,997.4689,5.711721812706312,997.4660584375487,0,0
7.119999999999999,6.5390887000000015,-7.3763742,0.47281158,997.48627,5.711588915192142,997.4664818275833,0,0
7.14,6.5008583,-7.4002075,0.23135768,997.48645,5.711388436394729,997.4669278204384,0,0
7.1599999999999975,6.596462,-7.3906740000000015,0.45860973,997.4814,5.711262267367983,997.4673739995712,0,0
7.18,6.639487700000001,-7.285810499999997,0.37812558,997.4788,5.711093265918512,997.4678093770548,0,0
7.1999999999999975,6.6825113,-7.323942999999999,0.13667142,997.4738,5.710992732572692,997.468215642842,0,0
7.22,6.596419,-7.300109,0.24555759,997.4889,5.710800505437702,997.4686490829773,0,0
7.239999999999997,6.5534050000000015,-7.366840400000001,0.4301998,997.4915,5.710584668012159,997.4691143339819,0,0
7.26,6.55341,-7.309642299999997,0.34971538,997.4788,5.710253526143722,997.4695602981674,0,0
7.2799999999999985,6.6442323000000005,-7.347775,0.5390921,997.4687,5.7100244277269505,997.4699512550484,0,0
7.3,6.577319,-7.3382416,0.54856133,997.4711,5.709779784832419,997.4703008400301,0,0
7.3199999999999985,6.562985,-7.390673599999999,0.4538737,997.45355,5.709573711637664,997.4705494302956,0,0
7.34,6.6490273,-7.276277,0.30710770000000004,997.4989,5.709333787337963,997.4708711467053,0,0
7.3599999999999985,6.639472500000001,-7.319176,0.2976393,997.48615,5.709116749931183,997.4712104191967,0,0
7.38,6.620358,-7.338242,0.26449886,997.47864,5.708921491813176,997.4715369468613,0,0
7.399999999999999,6.5391059999999985,-7.447872999999999,0.32131220000000005,997.46106,5.708807586997237,997.4717877496968,0,0
7.42,6.601248299999999,-7.3811417,0.34971902,997.461,5.7087498383260185,997.4719705231832,0,0
7.439999999999999,6.744648,-7.304876299999999,0.35445395,997.4586,5.7088253490875545,997.4720838879524,0,0
7.46,6.730314,-7.2381449999999985,0.33078238,997.4738,5.708894721485063,997.472190235066,0,0
7.479999999999999,6.677739999999999,-7.3382429999999985,0.34498602,997.49365,5.709038524360026,997.4723614585292,0,0
7.5,6.5630307,-7.381142,0.39706507,997.4761,5.7091585382589205,997.4725262103308,0,0
7.52,6.543916,-7.357309299999999,0.392331,997.4687,5.709193340361497,997.4726580106653,0,0
7.539999999999999,6.668197,-7.2905774,0.38286275,997.456,5.709221914699882,997.4727145006024,0,0
7.56,6.6634210000000005,-7.3191776,0.31184703,997.4736,5.709276897977732,997.4727676029088,0,0
7.579999999999999,6.6729856,-7.281045,0.34498832,997.4886,5.709312218707229,997.4728715207359,0,0
7.6,6.591733500000001,-7.381142599999999,0.39233276,997.4659,5.70937465895494,997.4729382450536,0,0
7.619999999999999,6.610858,-7.352543400000001,0.34498920000000005,997.4861,5.709439442415751,997.4730445849783,0,0
7.64,6.6013036,-7.338244,0.30711445,997.471,5.709468108009659,997.4731311864302,0,0
7.659999999999997,6.6156479999999975,-7.295345299999997,0.33552137,997.4911,5.709420518794584,997.4732723952018,0,0
7.68,6.6108727,-7.352544,0.3876002,997.466,5.709391215209004,997.4733709866497,0,0
7.699999999999997,6.5535207,-7.304877799999999,0.40180394,997.4709,5.709226119273177,997.4734492065007,0,0
7.72,6.578487400000001,-7.3382707,0.33088562,997.49603,5.7090224010284425,997.4735996124181,0,0
7.739999999999997,6.5641947,-7.433603,0.38770273,997.48346,5.708917780810058,997.4737680084818,0,0
7.76,6.707633,-7.2858405,0.3261595,997.4836,5.708868065536919,997.4739521984133,0,0
7.7799999999999985,6.774597,-7.2191100000000015,0.2977574,997.4834,5.708858355291951,997.4741489607222,0,0
7.8,6.5882286999999975,-7.3335085000000015,0.37351188,997.47064,5.708802575892428,997.4743101876401,0,0
7.8199999999999985,6.526141,-7.390708,0.35457882,997.4959,5.708707785526768,997.4745303710687,0,0
7.84,6.564425999999999,-7.381175999999999,0.39245838,997.5085,5.708619765113468,997.4748472158107,0,0
7.8599999999999985,6.559691,-7.3525777,0.2930399,997.4833,5.708479969113733,997.475157609848,0,0
7.88,6.6409945000000015,-7.3382797,0.36406025,997.4658,5.708390625639904,997.4753981866237,0,0
7.899999999999999,6.6123714000000025,-7.3573464999999985,0.27884606,997.4834,5.708330024186924,997.4756395667907,0,0
7.92,6.664984,-7.3573475,0.27411490000000005,997.4984,5.708367993443117,997.4759347878661,0,0
7.939999999999999,6.6459117,-7.3811817,0.21257192,997.4632,5.708499981082325,997.4761497999716,0,0
7.96,6.6650753,-7.3096847999999985,0.28359202,997.47577,5.708634909790982,997.4763384173883,0,0
7.979999999999999,6.6221039999999975,-7.300153,0.31200275,997.48584,5.708699016306947,997.4765392854354,0,0
8.0,6.569576,-7.400252,0.34514812,997.458,5.708784486305458,997.476650031014,0,0
8.02,6.5027050000000015,-7.36212,0.40196526,997.4657,5.708741627341037,997.4767084656957,0,0
8.04,6.579223,-7.357353999999999,0.4303755,997.4706,5.7086861832529685,997.4767381081036,0,0
8.059999999999999,6.5506,-7.352589,0.41617736,997.4833,5.708571591663443,997.4767879229463,0,0
8.08,6.6414576,-7.25726,0.31202424,997.4858,5.708376662639939,997.4768643828188,0,0
8.1,6.732315,-7.266793700000001,0.23627749,997.49854,5.708249517076816,997.4770099749838,0,0
8.12,6.684564,-7.3525925,0.29782906,997.49567,5.708250418734387,997.4772057963112,0,0
8.139999999999999,6.6129136,-7.395492999999999,0.40672466,997.4706,5.708339005773232,997.4773550431688,0,0
8.16,6.526924,-7.3096960000000015,0.36885375,997.4882,5.7082497946819775,997.4775259595372,0,0
8.18,6.5030723,-7.376428999999999,0.36885804,997.473,5.708074603408973,997.4776606877856,0,0
8.2,6.6255927,-7.333487,0.45865113,997.47046,5.707934780250085,997.4777538111902,0,0
8.219999999999999,6.7116027,-7.290586999999999,0.30714777,997.46533,5.707869075826273,997.47779136931,0,0
8.24,6.6542214999999985,-7.328719,0.31661442,997.46326,5.707847748712619,997.4777722427353,0,0
8.26,6.644638499999999,-7.347785000000001,0.3734252,997.4783,5.70788580304134,997.4777572424199,0,0
8.28,6.592034,-7.400216,0.32607865,997.46045,5.7079807833787966,997.4776816820684,0,0
8.299999999999999,6.606342,-7.390682000000001,0.33081020000000005,997.47284,5.7081310590492365,997.4775974868866,0,0
8.32,6.510724,-7.452647,0.37341785,997.4755,5.708297727857532,997.477515541071,0,0
8.34,6.467681400000001,-7.4049809999999985,0.40655637,997.47046,5.708347638293599,997.4774177338006,0,0
8.36,6.6588416,-7.2667503,0.26452136,997.46027,5.708334912601937,997.4772695794549,0,0
8.379999999999999,6.601464,-7.3525475999999985,0.40181726,997.47797,5.708328447776236,997.4771411917887,0,0
8.4,6.5775380000000006,-7.338247,0.41601804,997.5032,5.708273475166045,997.4771215601564,0,0
8.42,6.6444287,-7.247681599999999,0.26924905,997.458,5.708119167501253,997.4770353760298,0,0
8.44,6.634838,-7.2905803,0.33079344,997.4909,5.7079339049800994,997.4770091363816,0,0
8.459999999999999,6.553561,-7.4049773,0.39707324,997.4981,5.707791113514798,997.4770618781376,0,0
8.48,6.563094,-7.3525443,0.40653965,997.51605,5.707618927630062,997.477248837992,0,0
8.5,6.5630674,-7.390675999999999,0.3260523,997.47797,5.707474300555456,997.4774166319023,0,0
8.52,6.6634116,-7.362075999999999,0.45861274,997.4678,5.707460333031577,997.4775302747267,0,0
8.54,6.6968503,-7.3001103,0.36865726,997.4756,5.707505730538955,997.4776237405374,0,0
8.559999999999999,6.6490273,-7.304875999999997,0.27396685,997.468,5.707537323779848,997.4776716814616,0,0
8.58,6.5390635,-7.390673,0.36391795,997.4703,5.707542718906827,997.4776875040093,0,0
8.6,6.6250740000000015,-7.419272,0.34971228,997.46027,5.707686971544043,997.4776387817976,0,0
8.62,6.615484,-7.3763723,0.34497514,997.4728,5.707873367277958,997.4775783112372,0,0
8.639999999999999,6.658478999999999,-7.3430057,0.38284826,997.44507,5.70810755741844,997.4774078495294,0,0
8.66,6.558078,-7.390671,0.43965885,997.4753,5.70832249898655,997.477249641306,0,0
8.68,6.5341525,-7.381137400000001,0.3686403,997.46277,5.70846584667446,997.4770577218112,0,0
8.7,6.5532464999999975,-7.509833299999999,0.31655958,997.45514,5.708768659301566,997.4768092379468,0,0
8.719999999999999,6.5925527000000015,-7.357329400000001,0.35926694,997.4652,5.709031074017982,997.476547884348,0,0
8.74,6.7120643,-7.266766,0.26931474,997.48035,5.709278819553919,997.4763306399243,0,0
8.76,6.6834016000000025,-7.3525643,0.24564423,997.47797,5.7096026365465145,997.4761445844478,0,0
8.78,6.6165004000000005,-7.404997,0.32613057,997.45514,5.709985186185982,997.4759045693248,0,0
8.799999999999997,6.5400395,-7.3334990000000015,0.32139766,997.4677,5.710201356428253,997.4756629555123,0,0
8.82,6.578295699999999,-7.371632000000001,0.4066185,997.4677,5.7103882737542495,997.475420798908,0,0
8.84,6.5783095000000005,-7.314433599999999,0.39241666,997.4526,5.7104590185447766,997.4751246744563,0,0
8.86,6.5735470000000005,-7.343033,0.41609016,997.45496,5.710466477727631,997.4747904260628,0,0
8.879999999999997,6.6165814,-7.2810683,0.37348208,997.45514,5.710378742086264,997.4744243426483,0,0
8.9,6.654836,-7.290601700000002,0.34981152,997.4499,5.710273546106893,997.4740125837101,0,0
8.92,6.664411500000001,-7.3096685,0.3876882,997.47015,5.7101988974153315,997.4736348482104,0,0
8.94,6.669212,-7.2810698,0.32140840000000004,997.4851,5.710109445907317,997.4733423556695,0,0
8.959999999999997,6.5927479999999985,-7.3430347,0.41136333,997.46,5.710002821667793,997.4730358767799,0,0
8.98,6.511507,-7.357334599999999,0.46817762,997.4474,5.709796592951207,997.4726727828768,0,0
9.0,6.578444,-7.400234700000001,0.36402246,997.46265,5.709652854394956,997.4723158710857,0,0
9.02,6.540219,-7.366869,0.39243013,997.4726,5.709462574259312,997.472001526691,0,0
9.04,6.645389999999999,-7.219106,0.3450875,997.46,5.709146988930013,997.4716805664876,0,0
9.06,6.678864999999999,-7.290605,0.29301053,997.4398,5.7088747509077775,997.4712821960127,0,0
9.08,6.5976295,-7.3668704,0.3829661,997.46,5.7086523130703615,997.4708895799556,0,0
9.1,6.545064,-7.3859367,0.37823287,997.46265,5.70843124747363,997.4705130019194,0,0
9.12,6.6072164,-7.290605999999999,0.33089024,997.46246,5.7081473454468,997.4701512667598,0,0
9.14,6.5546593999999985,-7.3621050000000015,0.44451782,997.4647,5.707855760845844,997.4698120130124,0,0
9.16,6.6311507,-7.405004499999999,0.3687687,997.4597,5.707724227933197,997.4694758451544,0,0
9.18,6.6216050000000015,-7.333506599999999,0.3687699,997.43726,5.707610908205409,997.4690628301925,0,0
9.2,6.5977229999999984,-7.357339,0.30248985,997.43964,5.7075130304184505,997.4685919679836,0,0
9.22,6.5976095,-7.424069,0.28827623,997.48236,5.707531532320353,997.4682254790507,0,0
9.24,6.6263,-7.35257,0.4303094,997.4547,5.7075925681473265,997.4678529577052,0,0
9.26,6.6597686000000005,-7.2334070000000015,0.39716953,997.4572,5.707551944290817,997.4674854471966,0,0
9.28,6.6789,-7.295373,0.3640298,997.4698,5.707540658796187,997.4671690473014,0,0
9.3,6.5785356,-7.300139,0.35929647,997.46246,5.707422142699013,997.4668725237835,0,0
9.32,6.6120043000000015,-7.352571000000001,0.4161102,997.4522,5.707341381565444,997.4665576945176,0,0
9.34,6.631135,-7.2858399999999985,0.34036085,997.4851,5.707212121753918,997.466346263678,0,0
9.36,6.745862,-7.271540600000002,0.33089307,997.4977,5.707179184660356,997.4662723168387,0,0
9.38,6.650276700000001,-7.3049064,0.3829725,997.45734,5.7071520602144465,997.466174821071,0,0
9.4,6.549915,-7.357339,0.29302009999999995,997.47504,5.707065226216224,997.4661205884547,0,0
9.42,6.5690436000000005,-7.366873,0.34983382,997.4674,5.706971014427317,997.4660772743966,0,0
9.44,6.6550913000000005,-7.333507000000001,0.32142842,997.45715,5.706936632728647,997.4660068639073,0,0
9.46,6.6790004000000005,-7.228643400000001,0.4019142000000001,997.4597,5.7068342659289515,997.4659219444884,0,0
9.48,6.602535700000002,-7.3430405,0.38297772,997.4723,5.70673924289926,997.46586987069,0,0
9.5,6.573868300000001,-7.3192086,0.36877555,997.4648,5.706573312276456,997.465820006747,0,0
9.52,6.5021815,-7.3287416,0.39718297,997.4599,5.706263247732005,997.4657546349428,0,0
9.54,6.5977893,-7.3049088000000015,0.42085603,997.48,5.705924540066071,997.4657481557307,0,0
9.56,6.6217,-7.309676,0.42085707,997.48486,5.705602392179915,997.4658112333383,0,0
9.58,6.5978107,-7.3239756,0.36877957,997.4725,5.705280484789965,997.4658910482724,0,0
9.6,6.6551804999999975,-7.295377,0.2504205,997.45966,5.704988262340376,997.4659391409745,0,0
9.62,6.569159,-7.2953773,0.3498444000000001,997.4419,5.704609606256906,997.4658950947785,0,0
9.64,6.6982206999999985,-7.266777999999999,0.27882898,997.48987,5.704287880410923,997.4659424852183,0,0
9.66,6.7412505000000005,-7.30491,0.31670526,997.4772,5.704138821479403,997.4660248864642,0,0
9.68,6.683903699999999,-7.314444,0.39719114,997.48254,5.704082899230214,997.466157150614,0,0
9.7,6.6026583,-7.3335104000000015,0.31670725,997.4697,5.704019395768354,997.4662867734744,0,0
9.72,6.555650999999999,-7.433627599999999,0.45407745,997.4695,5.7040508307634585,997.4664128758493,0,0
9.74,6.579584,-7.381196000000001,0.4067365,997.44965,5.704113271435808,997.4664639535547,0,0
9.76,6.6369815,-7.242967,0.312052,997.4672,5.7040626419406495,997.4665117355825,0,0
9.78,6.598787299999999,-7.3478327,0.27891523,997.4368,5.704018267673748,997.466446993534,0,0
9.8,6.5797076,-7.4479313,0.39254454,997.47455,5.704116485791764,997.4664189582834,0,0
9.82,6.62755,-7.2954025,0.3688766,997.4594,5.704168799043435,997.4663689180859,0,0
9.84,6.6514883000000005,-7.2954035,0.3736146,997.4721,5.704214199580256,997.4663453344624,0,0
9.86,6.5989494,-7.32877,0.37835258,997.4645,5.704231790802847,997.4663178527687,0,0
9.88,6.5750923,-7.285872,0.42570046,997.4672,5.7041294210059,997.4662967456744,0,0
9.9,6.6229324000000025,-7.4241037,0.43517312,997.4594,5.704202267140037,997.4662532671608,0,0
9.92,6.622985000000001,-7.381205599999999,0.4446467000000001,997.47705,5.704364231679803,997.4662537177848,0,0
9.94,6.7281694000000005,-7.2334433,0.35469565,997.4671,5.7045175921504745,997.466257162572,0,0
9.96,6.704312299999999,-7.266810400000002,0.2694802,997.467,5.7046743781482725,997.4662628806008,0,0
9.98,6.6900119999999985,-7.3144765,0.31209347,997.4393,5.704889057916713,997.4661708666812,0,0
10.0,6.584908500000001,-7.347844,0.36417666,997.4393,5.705062669983755,997.4659928280612,0,0
10.02,6.589722599999999,-7.3430777,0.3641798,997.4696,5.70519867544914,997.4658484989557,0,0
10.04,6.647119,-7.3097134000000015,0.3925898,997.4744,5.705331713268407,997.465751755162,0,0
10.06,6.666283,-7.3001814,0.3973283,997.4495,5.705474218279869,997.4656077660272,0,0
10.08,6.642423,-7.23345,0.35472223,997.4795,5.705485515340098,997.4655305492698,0,0
10.1,6.7093797,-7.309716000000001,0.35946023,997.4416,5.705591940152347,997.4653761705658,0,0
10.12,6.609056,-7.343083,0.37366825,997.4493,5.7056942598406515,997.4651818873288,0,0
10.14,6.5947504,-7.3287845,0.3310617,997.4694,5.7057474704322315,997.4650254038664,0,0
10.16,6.599572,-7.257287,0.3784096,997.4795,5.7056572294353565,997.4649392436247,0,0
10.18,6.547034,-7.381218400000002,0.42102283,997.4619,5.705562736170303,997.4648521711584,0,0
10.2,6.518392,-7.4098186,0.35001007,997.4621,5.705464199992115,997.464765326111,0,0
10.22,6.5798006,-7.409801,0.43516275,997.45166,5.7054538981646274,997.464641410653,0,0
10.24,6.689748,-7.2477384,0.34521008,997.4644,5.705417961248782,997.464531049876,0,0
10.26,6.7471166,-7.2143726,0.27419505,997.44403,5.705385214100933,997.464359731314,0,0
10.28,6.761467,-7.3573694,0.34994653,997.43896,5.7055984651052505,997.4641169151996,0,0
10.3,6.656323,-7.309705,0.34047878,997.4868,5.7058071571883895,997.4639840219863,0,0
10.32,6.6372149999999985,-7.2334394,0.35468304,997.4566,5.705868404224278,997.463840015064,0,0
10.34,6.598988,-7.242973299999999,0.3830905,997.44904,5.7057624054652285,997.463659490493,0,0
10.36,6.6850357,-7.266806599999999,0.4257012,997.44403,5.7056698204884455,997.4634293128163,0,0
10.38,6.7615232,-7.242974,0.4777806,997.47925,5.705666011663271,997.4632828822952,0,0
10.4,6.6085806,-7.2954063,0.49198484,997.4466,5.705607307185061,997.4630934379103,0,0
10.42,6.642051,-7.3097059999999985,0.3830946,997.5021,5.705558962718122,997.4630664684756,0,0
10.44,6.6946425000000005,-7.281107400000002,0.30261096,997.45917,5.705544002581062,997.4630286109964,0,0
10.46,6.6755323,-7.2620406000000015,0.2647365,997.4667,5.705500301704423,997.4630083771284,0,0
10.48,6.6420850000000025,-7.262041,0.35942572,997.45667,5.705390635097023,997.4629676803246,0,0
10.5,6.608637299999999,-7.390739,0.31208268,997.4617,5.705371414093626,997.4629271569797,0,0
10.52,6.632547,-7.3287735,0.40677172,997.47406,5.7053768470500765,997.4629314287872,0,0
10.54,6.7616130000000005,-7.1953106,0.4446479999999999,997.4614,5.705385395515393,997.4629296902124,0,0
10.56,6.680370299999999,-7.328774,0.34996116,997.4617,5.705477587153746,997.4629237271232,0,0
10.58,6.5847836,-7.357373700000001,0.41624367,997.46405,5.705559695276071,997.4629225127196,0,0
10.6,6.584794500000001,-7.324008,0.3546974,997.4641,5.7055760330812575,997.4629256786274,0,0
10.62,6.713862,-7.2477436,0.30735454,997.4465,5.705594612426255,997.46286934358,0,0
10.64,6.646955,-7.2525105,0.34523076,997.4591,5.705530811491559,997.4628059962953,0,0
10.66,6.685203,-7.300175999999999,0.43991977,997.45905,5.705528921538898,997.462736501048,0,0
10.68,6.6517589999999975,-7.2572775,0.45412427,997.4641,5.705470493665508,997.4626800036436,0,0
10.7,6.651768700000001,-7.242978,0.41151547,997.4616,5.705336561933823,997.462626194524,0,0
10.72,6.7038417,-7.2238994,0.41146925,997.46155,5.705180634008819,997.4625747744853,0,0
10.74,6.6894913,-7.247732000000001,0.35938987,997.4288,5.705017686257774,997.4624077505513,0,0
10.76,6.641686,-7.2858649999999985,0.38779563,997.45404,5.704842606990253,997.4622300443014,0,0
10.78,6.613,-7.2953972999999985,0.3593885,997.44653,5.704629775400791,997.462016502899,0,0
10.8,6.6321087,-7.2906303,0.28363708,997.4667,5.704398570602709,997.4618446783056,0,0
10.82,6.6321015,-7.343062400000001,0.41619977,997.4741,5.704242402244719,997.4617369732532,0,0
10.84,6.6942296,-7.2810974,0.34044844,997.4716,5.704138867865736,997.4616773119648,0,0
10.86,6.689441,-7.290629400000001,0.37358844,997.4639,5.704092551393992,997.4616325969276,0,0
10.88,6.5938363,-7.3382955,0.3688533,997.44385,5.7040363993637015,997.4615290693716,0,0
10.9,6.5986075,-7.271563,0.42566532,997.47406,5.703880303262928,997.4614827037732,0,0
10.92,6.651176,-7.376427,0.41146123,997.4791,5.70386993201832,997.4615051573973,0,0
10.94,6.6033697,-7.328761599999999,0.43986693,997.4817,5.7038509117108775,997.4615976988524,0,0
10.96,6.708516,-7.266796,0.40672526,997.4765,5.7038734296244025,997.4617331167668,0,0
10.98,6.689389,-7.247730000000002,0.28362998,997.43365,5.7038675851689895,997.4617516728152,0,0
11.0,6.5651045,-7.400258999999997,0.33570758,997.4739,5.7039018105449335,997.4618118029172,0,0
11.02,6.6320133000000006,-7.3287606,0.4209261,997.46405,5.703960226462356,997.4618729913852,0,0
11.04,6.6845820000000025,-7.257262,0.3451748,997.44147,5.70399765267729,997.4618536067468,0,0
11.06,6.603317,-7.323993700000001,0.41145566,997.4515,5.704010432702459,997.4617992054956,0,0
11.08,6.59853,-7.2286625,0.48247102,997.44867,5.703854819877508,997.4617038714104,0,0
11.1,6.6224194,-7.347825999999999,0.38778207,997.4563,5.703758879788859,997.4616001802756,0,0
11.12,6.61285,-7.357358500000001,0.41618767,997.4664,5.703719828703423,997.4615258381401,0,0
11.14,6.756234,-7.2381945,0.326233,997.45386,5.7037428183368615,997.4614325524117,0,0
11.16,6.756227,-7.242961,0.25048187,997.4764,5.703823192230806,997.4614040079532,0,0
11.18,6.6701827000000025,-7.2810936,0.3593725,997.4689,5.703897788190161,997.4614057716412,0,0
11.2,6.660614,-7.3287587,0.39251247,997.48926,5.704029361654363,997.461507605258,0,0
11.22,6.6512384,-7.247731699999999,0.42567015,997.4565,5.7040762812273575,997.4615795580628,0,0
11.24,6.6655765,-7.31923,0.43040448,997.46387,5.704178325248848,997.461651381152,0,0
11.26,6.593878299999999,-7.2953972999999985,0.50615484,997.44867,5.704199509588668,997.4616681110615,0,0
11.28,6.665573599999999,-7.3239965,0.34991935,997.4816,5.704279099628671,997.4617546484101,0,0
11.3,6.7229304,-7.3144636,0.42093533,997.46387,5.7044815280812635,997.4618387280766,0,0
11.32,6.6225533,-7.2953972999999985,0.34045032,997.47363,5.7046154970857215,997.461955469449,0,0
11.34,6.574754,-7.338296400000001,0.4162007,997.48645,5.704694212552482,997.4621468024357,0,0
11.36,6.6655690000000005,-7.271564,0.37832534,997.49677,5.704744611845952,997.4624405077741,0,0
11.38,6.694247,-7.195299,0.39252844,997.4563,5.7046950087692485,997.4626779199826,0,0
11.4,6.660786999999999,-7.276331,0.34044987,997.451,5.7046297487904205,997.4628456568984,0,0
11.42,6.6464458,-7.4336267,0.5298259,997.46124,5.704790363819409,997.4629880888724,0,0
11.44,6.8137380000000025,-7.247731,0.32624640000000005,997.44104,5.70508204955038,997.4630349286446,0,0
11.46,6.8567550000000015,-7.119034299999999,0.4067312,997.4636,5.705362622114139,997.4630783505245,0,0
11.48,6.483929,-7.4860587,0.38779348,997.46106,5.7056713682063185,997.4631094520353,0,0
11.5,6.4170110000000005,-7.376428,0.3073085,997.46375,5.7057349070008625,997.4631392393028,0,0
11.52,6.6559997000000015,-7.219132000000001,0.29783955,997.446,5.705668774356755,997.4631038580712,0,0
11.54,6.8519697,-7.271564,0.49194998,997.45605,5.705861518559638,997.4630472013257,0,0
11.56,6.808951,-7.3335295,0.4824811,997.46356,5.7063142968603495,997.4629989855008,0,0
11.58,6.9380039999999985,-7.295397,0.17001024,997.44604,5.707099958912248,997.46289532965,0,0
11.6,6.8424067,-7.1762333,0.070587635,997.4611,5.707858081983602,997.4627972761533,0,0
11.62,6.5986357,-7.219132000000001,0.080056325,997.4711,5.70830870488909,997.4627405258896,0,0
11.64,6.7468085,-7.004637,0.22208838,997.47614,5.708376200603121,997.4627386194636,0,0
11.66,6.8519625999999985,-7.161933,0.49668375,997.4687,5.708512708561393,997.4627583959152,0,0
11.68,6.775484599999999,-7.1524,0.46354276,997.471,5.708582554447223,997.4628055401628,0,0
11.7,6.5699520000000025,-7.3335295,0.61504364,997.4862,5.7085979149259565,997.4629314168753,0,0
11.72,6.5232472,-7.324022999999999,0.3074074,997.4837,5.708455794355923,997.4631174084376,0,0
11.74,6.9056729999999975,-6.8950334,0.24586396,997.4912,5.708069031498255,997.4633828479117,0,0
11.76,6.795777,-7.1714945000000005,0.26480517,997.45593,5.7077206523650785,997.4635905599783,0,0
11.78,6.6094035999999985,-7.328792,0.19379269,997.4937,5.707381131289727,997.4638824883448,0,0
11.8,6.901016,-7.1571975000000005,0.3263601,997.4533,5.707210388681035,997.4641023392912,0,0
11.82,6.996654,-6.9999021999999975,0.3026919,997.4685,5.7070938346389335,997.4643124311659,0,0
11.84,6.6095289999999975,-7.347861999999999,0.31689870000000003,997.4787,5.7069976394102,997.4645498635944,0,0
11.86,6.647811999999999,-7.1333675,0.2648243,997.47614,5.706641605337036,997.4648013833793,0,0
11.88,6.800808,-7.181034,0.20801528,997.4811,5.706344274036171,997.4650823012809,0,0
11.9,6.896443,-7.1381364000000005,0.3311134,997.4862,5.706179782226442,997.4654065440544,0,0
11.92,6.9203839999999985,-7.0761724,0.38319567,997.471,5.7060795289740405,997.46571318141,0,0
11.94,6.8057050000000014,-7.1858034,0.44474632,997.4836,5.70604063829787,997.4660485187246,0,0
11.96,6.6671357,-7.157205,0.31218705,997.4382,5.705805191119598,997.4662445681083,0,0
11.98,6.7579910000000005,-7.2001050000000015,0.41161314,997.4735,5.705598489753826,997.4664439168988,0,0
12.0,6.8584137,-7.166740400000001,0.31219497,997.476,5.705503565291853,997.4666544633889,0,0
12.02,6.882349499999999,-7.171508,0.2932607,997.4608,5.7055481064006734,997.4668194261992,0,0
12.04,6.748556599999999,-7.2859063,0.2648581,997.4735,5.705696306108205,997.4669892374046,0,0
12.06,6.7151429999999985,-7.2096424,0.32640943,997.4836,5.705776055414022,997.4671990813307,0,0
12.08,6.753423,-7.161978,0.288538,997.4937,5.705774707332,997.4674799027313,0,0
12.1,6.763022,-7.190579,0.31221366,997.4683,5.70576013328354,997.4677309888707,0,0
12.12,6.724825,-7.333576,0.4684528,997.5012,5.705910333388753,997.4680733370236,0,0
12.14,6.6914062,-7.295445,0.44478437,997.4861,5.706098080364013,997.4684407318382,0,0
12.16,6.686665,-7.228714,0.3406311,997.49097,5.706201119155969,997.468846467262,0,0
12.18,6.6771506999999986,-7.2334814,0.45426086,997.4331,5.70623232670973,997.4690762878,0,0
12.2,6.758446000000001,-7.190583,0.47793648,997.4886,5.706252144235061,997.4693496425914,0,0
12.22,6.719413799999999,-7.2715955,0.35003486,997.44824,5.706318512376424,997.4695151841718,0,0
12.24,6.6620630000000025,-7.257295599999999,0.27428496,997.4608,5.706318235167173,997.4696300820492,0,0
12.26,6.666852,-7.290661999999997,0.34056753,997.4886,5.7063211917768015,997.469799897518,0,0
12.28,6.647741000000001,-7.2525296,0.40684995,997.45844,5.706246994952807,997.4699090508354,0,0
12.3,6.685989,-7.262063,0.4683981,997.4734,5.706178873118365,997.4700180661237,0,0
12.32,6.6381983999999985,-7.242997,0.4968052,997.4834,5.706022989376622,997.4701625669943,0,0
12.34,6.709906599999999,-7.228698,0.3547741,997.4708,5.7058564913645045,997.4702925427223,0,0
12.36,6.599978,-7.3573947,0.487338,997.4733,5.705736493178213,997.470418216122,0,0
12.38,6.652564999999999,-7.2048655,0.44946367,997.47833,5.705493558471665,997.4705577435598,0,0
12.4,6.729053,-7.176266,0.37371415,997.47845,5.705201001209852,997.470709442127,0,0
12.42,6.666921,-7.3001966,0.35004264,997.4886,5.704965125592763,997.4709078889894,0,0
12.44,6.6812695999999985,-7.338329300000002,0.3595123,997.47815,5.704859496612477,997.4711093082364,0,0
12.46,6.8246720000000005,-7.233465,0.43052912,997.50366,5.7049179200378575,997.4714044647735,0,0
12.48,6.85336,-7.266832000000001,0.39265475,997.4708,5.705209127395063,997.4716630890167,0,0
12.5,6.705195,-7.347863,0.43526518,997.4555,5.705622747700371,997.4718334222774,0,0
12.52,6.614387,-7.3573966,0.25062415,997.4734,5.706017837256973,997.4719895684264,0,0
12.54,6.5809374000000025,-7.295431599999999,0.3453131,997.4455,5.706258913543946,997.4720321767172,0,0
12.56,6.5713863,-7.3955293000000015,0.5062836,997.48584,5.7065190985664485,997.4721195335668,0,0
12.58,6.666991,-7.3240314,0.43053395,997.4834,5.706810151068185,997.4722373317584,0,0
12.6,6.6335416,-7.3144984,0.38319075,997.4606,5.7070620201692375,997.472299523846,0,0
12.62,6.623989999999999,-7.2858990000000015,0.42580113,997.4607,5.707224685216103,997.4723127184888,0,0
12.64,6.6765776,-7.271600200000001,0.32164505,997.47565,5.707351490801115,997.4723363914884,0,0
12.66,6.6287885,-7.3097324000000015,0.44474047,997.4655,5.70744768061397,997.4723326979421,0,0
12.68,6.600117,-7.2573004,0.37845945,997.4607,5.707390081441193,997.4722875566111,0,0
12.7,6.690942999999999,-7.257300999999999,0.3831947,997.47327,5.707324576299268,997.472251206528,0,0
12.72,6.7771807,-7.171507400000001,0.34060353,997.45807,5.707241033510448,997.4721680352507,0,0
12.74,6.753298,-7.2382399999999985,0.26485455,997.47314,5.707204134931098,997.4720980441832,0,0
12.76,6.5908012000000005,-7.362170699999999,0.35480976,997.4808,5.707176742070245,997.472067527117,0,0
12.78,6.552578,-7.357404700000001,0.41635844,997.4907,5.707102585898067,997.4721076391396,0,0
12.8,6.7007685,-7.2430080000000014,0.29799983,997.4833,5.707009414961253,997.4721833746221,0,0
12.82,6.5526114,-7.343106,0.34534538,997.4909,5.706849914260527,997.4723176743453,0,0
12.84,6.6004270000000025,-7.381239,0.39742544,997.4982,5.7067616763335165,997.4725295179534,0,0
12.86,6.6625809999999985,-7.223942299999999,0.32167646,997.4985,5.706575913743211,997.4728101967007,0,0
12.88,6.705614999999999,-7.209643400000001,0.3264123,997.49835,5.706343924178759,997.473150147734,0,0
12.9,6.801226,-7.2573094,0.41163298,997.4909,5.70628640979126,997.4735144279347,0,0
12.92,6.7534432,-7.1858115000000025,0.35482153,997.47327,5.7062025121636655,997.47383542598,0,0
12.94,6.6578636,-7.3192754,0.28380698,997.48816,5.70615961143381,997.4741706283188,0,0
12.96,6.576623,-7.347875,0.41163734,997.49585,5.706093495428853,997.4745448588437,0,0
12.98,6.691356699999999,-7.252544,0.33115414,997.4808,5.7060145399610676,997.4748980474437,0,0
13.0,6.6961517000000015,-7.247778,0.23646744,997.478,5.705918348365951,997.4752212919198,0,0
13.02,6.6005726,-7.343109599999999,0.37850112,997.49316,5.705829101420437,997.475571490088,0,0
13.04,6.6770697,-7.247778999999999,0.38797182,997.48334,5.705707571051409,997.4759088918248,0,0
13.06,6.748778999999999,-7.2811455999999986,0.30275366,997.46796,5.705703765092975,997.4761784039893,0,0
13.08,6.6962166,-7.309745299999999,0.44005284,997.4831,5.705784375063067,997.4764414626833,0,0
13.1,6.7105722000000005,-7.324045,0.4258510999999999,997.50085,5.705980028792258,997.4767617720796,0,0
13.12,6.767946,-7.2287145000000015,0.39271167,997.4906,5.706209508310906,997.4770946150827,0,0
13.14,6.638908,-7.29068,0.35483795,997.49316,5.706377815903583,997.477446550546,0,0
13.16,6.5528865,-7.414611,0.4731995,997.46277,5.706574050851106,997.4777046851393,0,0
13.18,6.5768023,-7.3764787,0.3785129,997.49316,5.7067595398327065,997.4779884119994,0,0
13.2,6.753672,-7.2334824000000015,0.30749846,997.4907,5.706957956883122,997.4782848747698,0,0
13.22,6.6912284,-7.252541000000001,0.51104975,997.463,5.7071253866140434,997.4784918037246,0,0
13.24,6.6290945999999975,-7.44797,0.42583084,997.4705,5.707470517112459,997.4786458756556,0,0
13.26,6.6721163,-7.3192735,0.3358775,997.4982,5.707825459091518,997.4788524084616,0,0
13.28,6.6864595,-7.2763740000000015,0.33114344,997.46265,5.708141839837036,997.4789765721783,0,0
13.3,6.605207000000001,-7.3192735,0.32167494,997.5081,5.708374601988601,997.4791911275787,0,0
13.32,6.7103661999999975,-7.285907300000001,0.35955057,997.4731,5.708631302145295,997.4793587806712,0,0
13.34,6.686471000000001,-7.262075,0.4542390000000001,997.49304,5.708846299719205,997.4795561713333,0,0
13.36,6.6530166,-7.4003053,0.34061366,997.5004,5.709179798231133,997.4798056235053,0,0
13.38,6.681699000000001,-7.33834,0.31220755,997.47034,5.709559386901129,997.4799919632001,0,0
13.4,6.681703,-7.247775,0.27906707,997.47046,5.709837551894458,997.4801222978869,0,0
13.42,6.5956706999999986,-7.352639999999999,0.33114590000000005,997.48804,5.710069369410786,997.4802659653436,0,0
13.44,6.653031,-7.3288074,0.39269343,997.49554,5.710307147243241,997.4804478964328,0,0
13.46,6.633915400000001,-7.304974,0.383225,997.4652,5.710485229804196,997.4805537583163,0,0
13.48,6.6195803,-7.3288074,0.44477257,997.49054,5.7106319854939445,997.480683248347,0,0
13.5,6.6339229999999985,-7.3431067,0.39269447,997.5131,5.710787951492287,997.4809143660437,0,0
13.52,6.5909095,-7.2239428,0.35481966,997.48035,5.71070520967159,997.481116549923,0,0
13.54,6.6243715,-7.309741499999999,0.3074759,997.5005,5.710587155033372,997.4813649800187,0,0
13.56,6.590916,-7.343107000000002,0.4163675,997.48535,5.710451543489097,997.4815988389232,0,0
13.58,6.791672,-7.22871,0.3642895,997.4931,5.710403668858257,997.4818468808313,0,0
13.6,6.700859,-7.290675,0.37849298,997.4981,5.710400477130964,997.4821245618904,0,0
13.62,6.5431294,-7.3478746,0.35008693,997.48804,5.71030291038119,997.4823912164512,0,0
13.64,6.643509,-7.2620764000000015,0.35955605,997.48804,5.710130418965635,997.482647168042,0,0
13.66,6.7295494000000025,-7.2620764000000015,0.29800913,997.503,5.710009150772277,997.4829465970627,0,0
13.68,6.667414999999999,-7.252542999999997,0.4305728,997.498,5.709841655663295,997.4832653647957,0,0
13.7,6.6387405,-7.281142699999997,0.37376025,997.50287,5.7096326965285575,997.4836176046516,0,0
13.72,6.7002373,-7.3144927,0.2979512,997.4903,5.709519817889347,997.4839529004114,0,0
13.74,6.7432327,-7.295426400000001,0.33582434,997.52325,5.709526086601727,997.4843906373034,0,0
13.76,6.6284975999999975,-7.290659,0.3310881,997.4828,5.70946892347214,997.4847716953267,0,0
13.78,6.6236973,-7.338324000000001,0.25060132,997.49536,5.709417684793492,997.4851465160926,0,0
13.8,6.585439,-7.285891499999999,0.27900591,997.47797,5.709239326532653,997.485451872264,0,0
13.82,6.7479234,-7.2715917,0.4589107,997.48804,5.7091692819521285,997.4857310022368,0,0
13.84,6.7335696,-7.2334585,0.38315886,997.4677,5.709110212193176,997.4859127298724,0,0
13.86,6.623611500000001,-7.362155400000002,0.43050084,997.5006,5.709108095345397,997.4861261785837,0,0
13.88,6.618811,-7.295422999999999,0.3594829,997.4828,5.709040892450584,997.4863028076223,0,0
13.9,6.7048273,-7.1953244000000005,0.40209073,997.4777,5.708887723827175,997.4864279069334,0,0
13.92,6.6426630000000015,-7.3097210000000015,0.3736818,997.5004,5.708744230260817,997.4865887442197,0,0
13.94,6.5518317,-7.295421000000001,0.35947725,997.49036,5.708460194722778,997.4867444365664,0,0
13.96,6.618726299999999,-7.352619,0.38788158,997.4778,5.70823647213963,997.4868498063527,0,0
13.98,6.5804677,-7.4050508000000015,0.4588958,997.49786,5.70810134481236,997.4869825477926,0,0
14.0,6.604343400000001,-7.300186,0.41628405,997.4853,5.707912042054164,997.487093780957,0,0
14.02,6.613883,-7.25252,0.45889187,997.50793,5.7076195444491695,997.4872670769696,0,0
14.04,6.575625,-7.271586,0.4636244000000001,997.4727,5.7072132842856576,997.4873677598492,0,0
14.06,6.4991245000000015,-7.343083,0.3452622,997.50037,5.706702558735065,997.4875035313063,0,0
14.08,6.441747,-7.4479475000000015,0.6435278,997.4878,5.706217903437888,997.4876245662532,0,0
14.1,6.518203,-7.3383155,0.41154003,997.50287,5.7056656797273755,997.4877863962934,0,0
14.12,6.680695,-7.266817,0.29317805,997.4878,5.705163050074155,997.4879294382904,0,0
14.14,6.7714887,-7.447945599999999,0.34052002,997.4675,5.705114157081858,997.4879822842212,0,0
14.16,6.3938637,-7.2143836,0.17954838,997.4749,5.704572299383831,997.4879818826622,0,0
14.18,6.412962,-7.314481,0.61037725,997.4749,5.70381541451006,997.4879344330673,0,0
14.2,6.4463987000000005,-7.605240299999997,0.7429386,997.4649,5.703392068722497,997.4878095826462,0,0
14.22,6.7533145,-7.166742,0.79037505,997.47754,5.703018852184383,997.4876622943164,0,0
14.24,6.772453,-7.271607,0.6814854,997.4951,5.702860225078428,997.4875589260887,0,0
14.26,6.7724720000000005,-7.190575999999999,0.8235193000000001,997.5054,5.702791596322482,997.487531817789,0,0
14.28,6.7007937,-7.1381440000000005,0.86613077,997.4802,5.702629536309281,997.4874814703512,0,0
14.3,6.7677298,-7.0475802,0.8850699000000001,997.49005,5.702348461645234,997.4874462300618,0,0
14.32,6.700832000000001,-7.0237479999999985,1.0081663,997.48,5.701856681680927,997.4873882853136,0,0
14.34,6.9063826,-7.176278,1.1217936000000002,997.4951,5.701727354477872,997.4873648475076,0,0
14.36,7.1071525,-7.028515,0.9892321,997.4901,5.7019637815589865,997.4873539844107,0,0
14.38,6.9398785000000025,-7.2048783,1.0129058000000002,997.48505,5.7025440414497375,997.4873360914346,0,0
14.4,6.9255567,-7.1667460000000025,1.0649859,997.4951,5.703359937048857,997.4873482312718,0,0
14.42,6.782181,-7.109547599999999,1.1075972,997.4875,5.704100365218793,997.4873595043993,0,0
14.44,6.743962299999999,-7.419374499999999,1.1170678,997.48,5.705188209530214,997.4873429711188,0,0
14.46,6.715306299999999,-7.1143155,0.8566777,997.4925,5.706022330085349,997.4873469276164,0,0
14.48,6.6292839999999975,-7.266845699999997,1.0081799,997.49,5.706769325740927,997.4873599746378,0,0
14.5,6.6436424,-7.085717,0.9040248,997.50757,5.707160665861803,997.4874442590773,0,0
14.52,6.901771000000001,-6.9570208,0.83301044,997.4875,5.707402472655502,997.4875189334756,0,0
14.54,6.6723576,-7.333578599999999,1.0271226,997.4649,5.707787133602446,997.4875034876134,0,0
14.56,6.7106166,-7.3717117,1.0602653,997.475,5.708415354993847,997.487444827094,0,0
14.58,6.5098825,-7.262081599999999,0.8046091999999999,997.4775,5.708759762713357,997.4873571932816,0,0
14.6,6.4095244000000005,-7.2477818,0.6957194999999999,997.48004,5.708674300046256,997.4872534181493,0,0
14.62,6.548159,-7.2620826,0.77620614,997.4723,5.708435419242697,997.4871078901366,0,0
14.64,6.7106914999999985,-7.1619850000000005,0.8424896000000001,997.49255,5.708148367892891,997.4869988931804,0,0
14.66,6.658131599999999,-7.2239504,1.1076177,997.51514,5.707894111182362,997.4870038914543,0,0
14.68,6.6581516,-7.3526482999999985,1.1928389,997.4976,5.707886435761785,997.48704645392,0,0
14.7,6.6581697,-7.1524534,0.95612043,997.50006,5.7077386355770265,997.4871309108804,1,1
14.72,6.863333,-6.9284163,0.70989764,997.4748,5.7073836865091945,997.4871611457717,1,1
14.74,6.8155384,-7.0475807,0.8756021999999999,997.4673,5.7069819734130105,997.4871163611966,1,1
14.76,6.8729,-6.8569179999999985,0.95135295,997.4748,5.706357178292593,997.4870324506461,1,1
14.78,6.8824625,-7.128612,1.0271038,997.51013,5.705967736625705,997.4870414584607,1,1
14.8,6.748632400000001,-6.9951487000000006,0.9986977,997.4595,5.70539090131469,997.4869502685158,1,1
14.82,7.1979380000000015,-6.8616842999999985,1.325372,997.48737,5.705193814716874,997.4868712041136,1,1
14.84,6.98285,-6.651956,0.8566663,997.48236,5.704604787712237,997.4867851024727,1,1
14.86,6.8299,-6.842619,0.7525097,997.4975,5.703702949891524,997.4867475966944,1,1
14.88,6.557455,-6.909350999999999,0.7998541,997.4672,5.702241267447816,997.4866440852403,1,1
14.9,6.581358,-6.957016499999999,0.9040113,997.50244,5.700415066710867,997.4866094878128,1,1
14.92,6.4475265,-7.004681599999999,0.95135564,997.4799,5.698166071241295,997.4865547633698,1,1
14.94,6.8490350000000015,-6.9951490000000005,1.0981226,997.4747,5.69614091402463,997.4864637317037,1,1
14.96,8.101347,-6.5613923,1.8461589,997.4798,5.695850773010311,997.4863593066893,1,1
14.98,10.510371,-5.074227,1.7088613999999998,997.4822,5.699606009943186,997.4862520632428,1,1
15.0,13.684166,-3.8825872,1.969254,997.5101,5.7122522004510365,997.4862431555057,1,1
15.02,15.643888,-3.2391024,4.3033156,997.50244,5.737250686871865,997.486293593269,1,1
15.04,14.477621,-5.288722,2.882995,997.49225,5.771276930014098,997.4863596031412,1,1
15.06,11.973007,-7.2334776,1.8366917,997.495,5.809889870334034,997.4864490348928,1,1
15.08,9.100348,-7.748265700000001,1.917177,997.49475,5.8482521302217485,997.4865579402627,1,1
15.1,6.7343493,-7.028515299999999,2.0213342,997.49225,5.8817587383536125,997.486674660463,1,1
15.12,4.7363944,-6.1133365999999985,1.6141757,997.4897,5.9066109347379,997.486788685654,1,1
15.14,3.3837144,-5.5747155999999976,0.9560939,997.50256,5.921005642656293,997.4869462150447,1,1
15.16,3.364599,-6.346898,0.26960555,997.4973,5.927350462514179,997.48712268164,1,1
15.18,3.8808215,-8.611013,-0.44528922,997.4898,5.9312714046614685,997.4872882458696,1,1
15.2,4.8845839999999985,-10.51287,-0.22277181,997.4747,5.937481800389209,997.4873892207381,1,1
15.22,5.2006345000000005,-12.085848,-0.42156342,997.48724,5.948955321829923,997.4874779049367,1,1
15.24,6.0753655,-12.314642999999998,0.12289554,997.4696,5.966219100834032,997.4874919058373,1,1
15.26,5.3249607,-12.815131,0.8756681000000001,997.462,5.988896028724589,997.4874125061716,1,1
15.28,6.782829799999999,-11.204037,0.59160644,997.4847,6.0146231586142616,997.4873325836052,1,1
15.3,9.249233,-9.249748,-2.2916439,997.47217,6.043304920436545,997.4872073787244,1,1
15.32,11.046467,-8.234473,-3.5462582,997.4469,6.076462447628633,997.4869516411279,1,1
15.34,10.740585,-8.854125999999997,-0.8997238999999999,997.452,6.1128769267251695,997.48659984548,1,1
15.36,8.694857,-9.340315,1.4769497,997.47705,6.14974661139825,997.4862546194015,1,1
15.38,7.738925,-8.115312,2.8073204,997.47955,6.184212288824996,997.4859254410093,1,1
15.4,7.853662,-7.9532479999999985,3.493811,997.5024,6.2167432638739415,997.4856938873938,1,1
15.42,8.317328999999999,-6.0418596,2.2486650000000004,997.4921,6.2449794956865725,997.4855123486244,1,1
15.44,9.359354,-4.2115019999999985,1.3112552,997.4897,6.268952260366445,997.4853670165132,1,1
15.46,10.100248,-3.5060525,1.7373539,997.4494,6.290079641172023,997.4851091198,1,1
15.48,10.69297,-4.168605,1.7989035,997.4569,6.310248831763624,997.4847796894327,1,1
15.5,12.33725,-4.969386599999999,1.8841252,997.4545,6.333273938931383,997.4843795978784,1,1
15.52,12.628844,-6.537585,1.6284698,997.4721,6.360569431754594,997.4839818704288,1,1
15.54,12.552393,-8.658703,0.48748067,997.4619,6.393500574085603,997.4835509437207,1,1
15.56,12.839208,-9.287889,0.37385738,997.4545,6.432527333102236,997.4830655934841,1,1
15.58,12.633702,-11.399475,1.055614,997.50476,6.479290226797807,997.4827148378782,1,1
15.6,12.6480665,-14.087813,1.2923366000000005,997.4719,6.5367265341689365,997.4823659768086,1,1
15.62,13.111733,-14.788498,2.2818296,997.4921,6.605296696570918,997.4820927656508,1,1
15.64,10.45419,-13.854254,3.1340249,997.49475,6.67876337927346,997.481896922316,1,1
15.66,8.183808,-13.058238,2.371788,997.5224,6.752042835752076,997.4818696862246,1,1
15.68,6.759454700000001,-11.075352,1.0366884,997.49713,6.819539424664576,997.4819005575439,1,1
15.7,5.5645304000000015,-9.855114,0.3454679,997.48444,6.878163141706582,997.4819369774344,1,1
15.72,4.626683,-8.658684,0.7998786999999999,997.4921,6.925674122014349,997.482005744931,1,1
15.74,4.3685594000000005,-7.996132000000001,1.0365976,997.47455,6.961782799322452,997.4820396672093,1,1
15.76,3.3265486000000006,-8.420355,0.80461055,997.47687,6.9875178012524986,997.4820510301324,1,1
15.78,1.2043016000000002,-9.140105,0.17019899,997.47186,7.004266995940236,997.4820243827023,1,1
15.8,0.59725356,-10.703535,-1.5105159,997.4669,7.016352810158117,997.481946389256,1,1
15.82,2.2988498,-11.623481,-0.45947933,997.46185,7.026418389691994,997.4818051272451,1,1
15.84,6.4907236,-11.60918,-0.42633972,997.4468,7.037675939887687,997.4815542896742,1,1
15.86,9.535446,-12.204999,-1.5673326,997.45435,7.054643665734256,997.4812347141541,1,1
15.88,12.255138,-14.826605,-2.0360398,997.46686,7.084443862106599,997.4809005882531,1,1
15.9,14.688047,-15.246062,-2.0549786,997.46936,7.129479751016562,997.4805638084897,1,1
15.92,14.649794,-12.233598,-0.8477068000000001,997.4643,7.183316058343724,997.4802076801798,1,1
15.94,12.761758,-9.82172,1.3443213,997.47687,7.2386131839808225,997.4798809895567,1,1
15.96,11.423399,-8.482318,2.0734184,997.50714,7.291299980886603,997.4796904581597,1,1
15.98,11.275212,-7.3240433,0.60101736,997.487,7.339578477286722,997.4795484189681,1,1
16.0,11.040988,-5.4603195,-2.2632987,997.4767,7.381844726907063,997.4794126588298,1,1
16.02,12.221586,-4.8692660000000005,-0.46896064,997.48944,7.4199778734815895,997.4793287996,1,1
16.04,13.320927,-3.5727620000000004,0.9987034,997.48193,7.455701025212746,997.479264065906,1,1
16.06,14.726173,-3.0007746,2.4237580000000003,997.4466,7.492065868784287,997.4790892765767,1,1
16.08,13.617248000000002,-5.522283,2.3716786,997.5021,7.52816336947013,997.4790176713292,1,1
16.099999999999998,12.594356,-8.754008,2.485303,997.5096,7.565252708736732,997.4790644973162,1,1
16.12,11.781774,-10.284073,3.1528525000000003,997.4995,7.60394857976901,997.4791794405679,1,1
16.14,11.4615135,-11.65684,4.085529,997.4794,7.645789168214753,997.479281798439,1,1
16.16,13.077075,-13.892356,4.2843733,997.50964,7.695877129962865,997.4794815313797,1,1
16.18,12.83807,-16.232735,2.2533119,997.5069,7.755699396137568,997.479756721893,1,1
16.2,10.658464,-15.641681,3.1623163,997.49194,7.820523996039838,997.4800437400315,1,1
16.22,9.369064,-13.677888,4.057224,997.492,7.885124810798782,997.4803403917947,1,1
16.24,8.451373,-12.505316,2.8404846,997.4717,7.945741241958302,997.4805714078824,1,1
16.259999999999998,7.179977,-11.695003,1.1929146000000002,997.4792,7.999327869723009,997.4807705966292,1,1
16.28,5.9276996,-9.626317,1.6521548,997.49194,8.04162608602806,997.4809868096576,1,1
16.3,6.061566,-7.729228,1.91255,997.4868,8.070850234781652,997.481198782975,1,1
16.32,4.9240026,-7.757828,0.7100139,997.4591,8.086772633414395,997.4813065269792,1,1
16.34,3.3371377,-8.019989,0.07560642,997.46674,8.0897846894432,997.4813492900847,1,1
16.36,1.3678999,-8.282150999999999,0.3407369,997.47424,8.080784621551045,997.4813614821201,1,1
16.38,1.1528306,-8.077189,-0.12323278,997.45404,8.06070152581444,997.4812738976668,1,1
16.4,2.0801444,-8.191587,-0.39309096,997.4189,8.031522833061073,997.4809719620126,1,1
16.419999999999998,4.5752335,-8.410851,-2.1164114,997.4516,7.997208100431249,997.4805994326052,1,1
16.44,7.462267,-9.5405245,-3.0869613,997.434,7.964077282145713,997.4801025076634,1,1
16.46,10.158106,-13.430037,-2.3199852,997.4591,7.9414620965648925,997.4795878157573,1,1
16.48,12.28993,-16.390068,-1.0464274,997.4617,7.93552494479999,997.4790686378524,1,1
16.5,13.513592,-16.275673,-0.8901891,997.4692,7.94571879191338,997.478574365159,1,1
16.52,14.971460999999998,-14.083056,-1.0464218,997.50183,7.968898017496867,997.4782213460927,1,1
16.54,15.568971,-10.646371,-0.60138464,997.48175,7.999912964529022,997.4779221216,1,1
16.56,15.349128,-8.301226,0.004621722,997.4968,8.034787443648588,997.4777256872003,1,1
16.58,14.278485,-5.2601624000000005,1.5717127,997.4616,8.068472637947728,997.4774940652907,1,1
16.599999999999998,10.8227215,-5.8321505,-1.7139609,997.49176,8.094990341378384,997.4773407615364,1,1
16.62,10.225273,-5.422227,-2.5188074,997.4717,8.113898536336187,997.4771849955977,1,1
16.64,12.194587,-4.74061,-0.6061046999999999,997.47644,8.128618757822299,997.4770446788298,1,1
16.66,13.738492,-5.1410017,0.4449359000000001,997.4766,8.142865235988197,997.47691909409,1,1
16.68,14.622787,-6.637701,0.9893954,997.4767,8.159579981702825,997.4768073386753,1,1
16.7,12.940329,-8.30123,1.841591,997.51184,8.177157514978639,997.4768347091716,1,1
16.72,12.0598755,-10.527188,2.5327256,997.4766,8.1969375230771,997.476858048789,1,1
16.74,12.074207,-13.9924755,2.523256,997.5345,8.223676155640387,997.4770861826994,1,1
16.759999999999998,12.002503,-15.851432,2.7221003,997.5144,8.259408414506545,997.4774220915648,1,1
16.78,11.768286,-14.288001,4.6253304,997.5016,8.300903884972088,997.4778059411087,1,1
16.8,10.98917,-12.305114,4.6916113,997.5042,8.343335657960365,997.4782401291776,1,1
16.82,10.406026,-11.490032,3.5553536,997.4865,8.383848830550708,997.4786535132904,1,1
16.84,9.3066635,-11.313669,2.5658622,997.5094,8.420376708044305,997.4791294668444,1,1
16.86,7.934852,-10.736917,2.4096262000000004,997.50934,8.450536797539861,997.4796587773244,1,1
16.88,6.2905927,-9.902768,2.4711728,997.47394,8.471683590668697,997.4801058884656,1,1
16.9,4.292627,-9.530977,2.2675927,997.4842,8.482102417062045,997.4805156946719,1,1
16.919999999999998,2.834779,-8.572898,1.5858375,997.4766,8.479827483686023,997.480863702935,1,1
16.94,1.807114,-7.667252,0.9040827,997.43896,8.463770187465524,997.4810203497057,1,1
16.96,1.5011994,-6.9332027,0.3264847,997.44904,8.43387231344669,997.4810436335333,1,1
16.98,2.2229414,-7.633886,-1.1222438999999995,997.45886,8.393782163399612,997.4809843460423,1,1
17.0,3.5851789,-8.415602,-2.4573467,997.45886,8.347827594255769,997.48085231197,1,1
17.02,5.4110559999999985,-9.998097,-2.604114,997.4262,8.301410808333094,997.4805388983403,1,1
17.04,8.809489,-12.886631,-0.8571191999999999,997.4664,8.263005522546447,997.4802110660232,1,1
17.06,13.096967,-15.012515,-1.8608137,997.45654,8.240912169422401,997.4798361775502,1,1
17.08,15.171393,-15.54637,-3.1154315,997.4641,8.237334251623684,997.4794482758563,1,1
17.099999999999998,14.052912,-13.387119,-1.7519237,997.47394,8.24502272138439,997.4790856961264,1,1
17.12,12.900971,-10.612983,0.64368427,997.4765,8.256881463366344,997.4787560121707,1,1
17.14,11.878085,-8.70636,0.21758711,997.49927,8.26824826827151,997.478538553784,1,1
17.16,10.826521,-7.857912,-1.2642822,997.47144,8.276455010268366,997.4783208527596,1,1
17.18,10.018727,-7.3288245,-0.50677806,997.4815,8.279733011902751,997.4781399370646,1,1
17.2,9.693693,-6.5471087,0.22231948,997.48663,8.277139675152949,997.4780106441832,1,1
17.22,10.210548,-5.9036393,1.2923533,997.4739,8.269711456841941,997.477881602674,1,1
17.24,10.765023,-5.0456595,0.7526328,997.4663,8.258136867341996,997.4777258878266,1,1
17.259999999999998,11.104407,-4.678635,0.47803885,997.4739,8.243244990080036,997.4775745249916,1,1
17.28,10.793738,-5.760644,0.6248071,997.47144,8.225873492352589,997.4774186965004,1,1
17.3,10.119802,-8.196356,0.53012055,997.4965,8.208000477527468,997.4773496991384,1,1
17.32,9.837812,-11.080122,0.53012216,997.4839,8.193475912466807,997.4773123141524,1,1
17.34,10.081599,-12.629254,0.989361,997.48645,8.184795740007312,997.4773121764478,1,1
17.36,10.3110485,-12.691219,1.2828957,997.5042,8.181751907193513,997.4774088509367,1,1
17.38,10.081634,-12.591123,1.2355533,997.4737,8.183231781502316,997.4774809206516,1,1
17.4,10.358879,-12.853283,1.3444461,997.5143,8.189504549099214,997.4776771501377,1,1
17.419999999999998,9.627587,-13.6064005,1.2024156,997.4713,8.200298910430556,997.4778275807707,1,1
17.44,7.127767,-13.358539000000002,1.2923709,997.45874,8.211900533249835,997.4778917859876,1,1
17.46,4.7713410000000005,-11.747442,1.4391389,997.4965,8.219111807113071,997.4780155072876,1,1
17.48,4.207344,-8.892277,1.2402958,997.4763,8.216503397138418,997.478118651602,1,1
17.5,4.393773,-7.1620164000000015,0.63429356,997.45105,8.202132869914974,997.4781123427724,1,1
17.52,4.0114074,-6.5852637000000005,0.5348727,997.4536,8.175972589678041,997.4780185238568,1,1
17.54,3.8202307,-6.9046235000000005,0.74318796,997.4814,8.139897594364328,997.4779477987767,1,1
17.56,3.6959734,-7.405112299999999,0.90415937,997.4511,8.096022256740817,997.4777886540204,1,1
17.58,3.1941109,-7.6863394,0.9373017,997.43854,8.045517928824715,997.4775067385594,1,1
17.599999999999994,4.4034176,-7.500444,1.0130537,997.44116,7.990128095792638,997.4771267897992,1,1
17.62,6.5973663,-7.83887,0.16086258,997.45874,7.933718964157809,997.4767248746316,1,1
17.64,8.060005,-8.191596,-1.4772398000000002,997.4813,7.87939666110246,997.4763862128405,1,1
17.66,11.726132000000002,-7.848403999999999,0.08038096,997.4941,7.832359759916263,997.4761507409157,0,0
17.68,14.340703,-6.7759295,0.56329185,997.4814,7.795588558388943,997.4759615752556,0,0
17.7,14.154308,-6.2611413,0.20821312,997.4638,7.767205247776522,997.4757506468076,0,0
17.72,13.068566,-5.8893330000000015,-0.27002817,997.4839,7.743962348594595,997.4755936081024,0,0
17.74,11.940521,-5.212481,-0.41206133,997.4989,7.7226397614580575,997.4755387517132,0,0
17.759999999999994,10.6212845,-4.764424299999999,-0.3505151,997.46625,7.700203820099863,997.4754568411017,0,0
17.78,9.407204,-5.3888435,0.66738087,997.4688,7.675234689987747,997.4753605002572,0,0
17.8,8.432113000000001,-6.0895267,1.5337758999999995,997.50653,7.647393184364594,997.475387583686,0,0
17.82,7.4904795,-7.1477017000000025,2.0640283,997.50397,7.617204804884517,997.4755144113028,0,0
17.84,6.740039,-7.681556,1.7846973000000002,997.49396,7.584670339193598,997.475692880304,0,0
17.86,6.4866977,-7.6148243,1.1834267,997.4989,7.549554199573225,997.4759341211444,0,0
17.88,6.544044,-7.543325999999999,0.8425486999999999,997.4839,7.512177071696589,997.4761759587147,0,0
17.9,6.610951400000001,-7.519492,0.38804495,997.4713,7.472932735825427,997.4763720929407,0,0
17.919999999999995,6.6969759999999985,-7.386029,-0.20375676,997.4739,7.432080675418055,997.4765364976082,0,0
17.94,6.577470299999999,-7.59099,-0.838168,997.48645,7.390177373311106,997.4767174541812,0,0
17.96,6.3862657999999985,-7.6481886,-1.2784686,997.4738,7.347426321328013,997.4768668445737,0,0
17.98,6.089907,-7.829317599999999,-1.3447515,997.4939,7.304005470061058,997.477060165284,0,0
18.0,6.357566,-7.672021000000001,-0.8429054,997.4687,7.260127856975218,997.4772008868688,0,0
18.02,6.716037299999999,-7.223964,-0.12327716,997.4839,7.2157238684107865,997.4773493452684,0,0
18.04,6.8068433000000015,-7.0142355,0.009285271,997.48627,7.170826948541121,997.477512637467,0,0
18.06,6.806832000000001,-7.0428348,0.24600443,997.4764,7.125705198310912,997.4776529169592,0,0
18.08,6.7016664000000015,-7.190597500000001,0.46852055,997.48895,7.080636292026397,997.4778175374173,0,0
18.1,6.5056825,-7.343127000000001,0.71944296,997.4789,7.035768561091003,997.4779668929193,0,0
18.12,6.5439095,-7.266862400000001,0.7478483,997.4764,6.991179412805916,997.4780932226264,0,0
18.14,6.7924485,-6.9665685,0.5821430999999999,997.46375,6.946871521228172,997.478153211954,0,0
18.16,7.232178999999999,-6.8235717000000005,0.31701544,997.4586,6.903389209244577,997.4781358269607,0,0
18.18,7.366003,-6.7520729999999975,0.24599837,997.49396,6.860891188303312,997.4781774326041,0,0
18.2,7.279954400000001,-6.995167,0.22232525,997.4663,6.819630048674116,997.4781714365927,0,0
18.22,7.1751429999999985,-7.138172,0.20341907,997.44867,6.779661547056406,997.4780599333457,0,0
18.24,6.9648337,-7.1953710000000015,-0.13272342,997.4738,6.740754349072825,997.4779460733164,0,0
18.26,6.845341,-7.1191062999999986,-0.27475533,997.4839,6.7026445810549085,997.4778669007304,0,0
18.28,6.721068400000001,-7.0428414,-0.156395,997.4789,6.6650781410007465,997.4778006629912,0,0
18.3,6.6876125,-7.157238499999999,-0.08537868,997.4688,6.6282503216779025,997.4777097329376,0,0
18.32,6.5872392999999985,-7.238270299999999,0.032981675,997.4713,6.592189456586268,997.4776063121041,0,0
18.34,6.596800999999999,-7.3526672999999985,0.11820117,997.4888,6.557127187020974,997.4775552267315,0,0
18.36,6.6015835,-7.3908,0.28390554,997.4738,6.5231461638997486,997.4774965688803,0,0
18.38,6.658943700000001,-7.247803,0.1939521,997.4838,6.490098151962815,997.4774674311552,0,0
18.4,6.778441,-7.2239704,0.09452984,997.4839,6.4581231850067855,997.4774648423088,0,0
18.42,6.821462599999999,-7.2525697,0.08506127,997.4713,6.427315836268747,997.477440361372,0,0
18.44,6.9122806,-7.152473,-0.023829825,997.4789,6.397630081107839,997.4774239847154,0,0
18.46,6.8501460000000005,-7.2144375,-0.09011127,997.4788,6.369046692163995,997.4774144679567,0,0
18.48,6.749772,-7.2954693,-0.06170462400000001,997.4914,6.341520018671575,997.4774564068636,0,0
18.5,6.692417599999999,-7.228738000000001,0.028249327,997.4764,6.3148430766153085,997.4774896610176,0,0
18.52,6.7019787,-7.1143402999999985,0.104,997.4611,6.2888538465319614,997.477460041608,0,0
18.54,6.6302843,-7.204905,-0.0048910677000000005,997.4711,6.2636009143005404,997.477410973748,0,0
18.56,6.596828,-7.26687,0.2602358,997.4839,6.239144804483655,997.4773909778813,0,0
18.58,6.6063905,-7.2907033,0.2886425,997.45605,6.215532483001162,997.4772964820132,0,0
18.6,6.606393,-7.2954698,0.29811153,997.4937,6.192758666405372,997.4772720381288,0,0
18.62,6.663753,-7.214438,0.19395484,997.4738,6.170758513932861,997.4772379401753,0,0
18.64,6.7115535999999985,-7.2954698,0.20342389,997.4864,6.14971270220705,997.477240794639,0,0
18.66,6.7067766,-7.2668705,0.05665758,997.4663,6.129531468257262,997.4772039299824,0,0
18.68,6.850173,-7.1143410000000005,-0.18006244,997.46356,6.110163660259065,997.4771222382241,0,0
18.7,6.917093,-6.999943300000001,-0.27948472,997.46356,6.091516068068904,997.4770012313285,0,0
18.72,6.846398,-7.257362400000001,0.033077712999999995,997.47363,6.073846719475378,997.476882173203,0,0
18.74,6.774742599999999,-7.309796,0.16091046,997.4738,6.057085825345367,997.4767658776196,0,0
18.76,6.6696240000000016,-7.228764999999999,0.19405465,997.4636,6.0409172689802935,997.4766157216827,0,0
18.78,6.6075300000000015,-7.228766,0.1893243,997.4658,6.0252428393005895,997.476444107299,0,0
18.8,6.5693335999999976,-7.2621326,0.29821947,997.4711,6.010064979921213,997.4762732300431,0,0
18.82,6.6076117,-7.338399000000001,0.39291114,997.4738,5.995558317022003,997.4761133392717,0,0
18.84,6.75105,-7.219236,0.33136797,997.4661,5.9817113317298665,997.4759360117647,0,0
18.86,6.8036699999999986,-7.128672,0.21774610000000005,997.4862,5.968428821983522,997.4758162755372,0,0
18.88,6.770248,-7.142973,0.113592535,997.4839,5.955662926517018,997.4757395780147,0,0
18.9,6.7989690000000005,-7.0810084,-0.042639,997.4713,5.94334631555595,997.4756558256024,0,0
18.92,6.755995,-7.1954074000000015,-0.07104136,997.4888,5.9315823005489285,997.4756291409994,0,0
18.94,6.7512565,-7.142976299999999,0.07572903,997.4687,5.92026290926582,997.4755806175765,0,0
18.96,6.7704130000000005,-7.176342999999999,-1.8093735e-05,997.4888,5.9094542904008405,997.4755853320564,0,0
18.98,6.8612733,-7.066713,0.047330007,997.4586,5.899102098086227,997.4755283505756,0,0
19.0,6.8517556,-7.10008,0.16095956,997.4864,5.889229036523153,997.475517139677,0,0
19.02,6.832673,-7.123914,0.19883814,997.47107,5.879824512430678,997.4754912240244,0,0
19.04,6.8757334000000006,-7.0714827000000025,0.123091504,997.4864,5.870849059519777,997.4755075965468,0,0
19.06,6.8805570000000005,-7.1382155,-0.01893659,997.4862,5.862390113647202,997.4755605559604,0,0
19.08,6.851920599999999,-7.1477494,-0.0047295317,997.4787,5.854391009012552,997.4756186528967,0,0
19.1,6.8997600000000014,-7.0953183000000015,-0.04260092,997.4837,5.84681787148779,997.4756990801993,0,0
19.12,6.8089833,-7.138219,-0.004722111,997.4913,5.839581532922546,997.4758263090747,0,0
19.14,6.8233647,-7.1572857,0.06629781400000001,997.4914,5.832718608386997,997.4759947937966,0,0
19.16,6.952456,-7.123921000000001,0.19886446,997.4761,5.826350369018426,997.4761440456397,0,0
19.18,6.976404,-7.1668214999999975,0.1467906,997.4787,5.820538865476202,997.4762851260034,0,0
19.2,6.914306599999999,-7.061958,0.052106086,997.48627,5.81499214280717,997.4764457301593,0,0
19.22,6.8167490000000015,-7.1381745,-0.04276154,997.4634,5.809672184322385,997.4765406753627,0,0
19.24,6.7067814,-7.1715399999999985,-0.07117091,997.4736,5.804465502657613,997.4766139825134,0,0
19.26,6.7067422999999975,-7.2192044000000015,-0.023830444,997.4989,5.799449594136879,997.4767589863746,0,0
19.28,6.773617999999999,-7.176304300000001,0.14660434,997.4661,5.794652437296464,997.4768487394356,0,0
19.3,6.7783656,-7.147703599999999,0.30757117,997.4761,5.790037153459214,997.4769253497777,0,0
19.32,6.792670200000001,-7.147703,0.26495835,997.46326,5.785617076546023,997.4769438474173,0,0
19.34,6.768733,-7.181068400000001,0.37384608,997.48114,5.781408879679563,997.4769752980808,0,0
19.36,6.740019,-7.228733,0.25548282,997.45575,5.777426656629808,997.476926676814,0,0
19.38,6.8260190000000005,-7.195366,0.15605693,997.45325,5.773726071542951,997.476798479026,0,0
19.4,6.8020830000000005,-7.142933,0.12291275,997.45074,5.7701734378163305,997.4765913929359,0,0
19.42,6.787709,-7.1238666,0.047159106,997.4634,5.766713666401285,997.4763609226525,0,0
19.44,6.7685537,-7.1858296,-0.21323654,997.4887,5.763419067859628,997.4762016997884,0,0
19.46,6.811537,-7.2477946,-0.00019146875,997.4837,5.760432510278952,997.4760880043464,0,0
19.48,7.1508664999999985,-6.9761,0.15130612,997.461,5.757822316810585,997.4759332262382,0,0
19.5,7.155608999999999,-6.828336,0.14656836,997.4988,5.755347792106226,997.4758787846872,0,0
19.52,7.1412330000000015,-6.899833,0.1891746,997.47107,5.7530849128617145,997.4758133685083,0,0
19.54,7.002581599999999,-6.9379644,0.2507185,997.4583,5.7508695077332845,997.4756925186456,0,0
19.56,7.0885816,-6.928431,0.18916789,997.45074,5.7488146587029885,997.4754959066396,0,0
19.58,7.0264077,-6.947496000000001,0.22230534,997.48596,5.7468461459887195,997.4753598510077,0,0
19.6,6.978575,-6.995161,0.2507086,997.4381,5.744961860008912,997.4751054967874,0,0
19.62,6.9641967000000005,-7.018992999999999,0.26017386,997.44073,5.743173321133094,997.47475699761,0,0
19.64,6.8207726,-7.071424499999999,0.13707662,997.4608,5.741340131250071,997.4743988185454,0,0
19.66,6.777710400000001,-7.1190886,0.11813499,997.47107,5.739483177129352,997.4740703477772,0,0
19.68,6.887612,-7.400314999999999,0.099194214,997.4609,5.738193637962347,997.4737326977544,0,0
19.7,6.9736156000000005,-7.447978999999999,0.18914495,997.4484,5.737607139230598,997.473343152482,0,0
19.72,6.8797545,-7.3669906,0.037802815,997.45575,5.737384265638398,997.4729356149307,0,0
19.74,6.6216803,-7.362225,0.08988447,997.46576,5.7371144569417885,997.4725496825366,0,0
19.76,6.406618,-7.3431587,0.39288902,997.4734,5.736493680999413,997.472211733816,0,0
19.78,6.3684125,-7.3622265,0.29820395,997.4736,5.735535902713621,997.4719181200846,0,0
19.8,6.3684473,-7.419426,0.2603319,997.4535,5.734371618883363,997.4715923777595,0,0
19.82,6.3589187,-7.405127,0.11356817,997.4633,5.732987779030148,997.4712746992814,0,0
19.84,6.5644855,-7.319329700000001,0.09936817,997.4735,5.731562399306822,997.4710020096601,0,0
19.86,6.712688000000001,-7.2287664,-0.018989306,997.4507,5.7301730505410005,997.470687973876,0,0
19.88,6.789198,-7.2478333,0.018888945,997.4758,5.728957983657672,997.4704288951517,0,0
19.9,6.8657080000000015,-7.2430673,0.12778328,997.4407,5.728004797788774,997.4700929491679,0,0
19.92,6.894417999999999,-7.138203999999999,0.21773982,997.461,5.7271734798605065,997.4697633726796,0,0
19.94,6.9661503,-7.1572704,0.18933658,997.46326,5.726583837444115,997.4694487467532,0,0
19.96,7.056997,-7.1143727,0.14672978,997.4635,5.726277105796317,997.469149327796,0,0
19.98,6.932753,-7.023809,0.061513323,997.4736,5.725904188406058,997.4689007836256,0,0
20.0,6.779833999999999,-7.1477394,0.10412617,997.4659,5.725438976446438,997.4686703671756,0,0
20.02,6.669932000000001,-7.300270599999997,0.28877097,997.4482,5.724977906669058,997.4683930778784,0,0
20.04,6.607825,-7.238306,0.31718022,997.4659,5.72434190880607,997.4681390899748,0,0
20.06,6.693895,-7.1858745,0.29351124,997.45825,5.7235932470439135,997.4678790655396,0,0
20.08,6.7321644,-7.2192416,0.20356035,997.4685,5.722847943642344,997.4676515433124,0,0
20.1,6.650942,-7.2049426999999975,0.26511082,997.4709,5.721974767947367,997.4674621991168,0,0
20.12,6.617514599999999,-7.2430759999999985,0.09940949,997.47614,5.720996728634999,997.4673261346687,0,0
20.14,6.564967599999999,-7.2859755,0.06153709,997.4758,5.719921553522247,997.4672364140376,0,0
20.16,6.732297999999999,-7.12868,-0.07575728,997.4962,5.718760141559793,997.4672614057972,0,0
20.18,6.842264,-7.2001789999999986,-0.056816813,997.45825,5.717791513846817,997.4672510474553,0,0
20.2,6.8661966,-7.1620474000000005,-0.014204182,997.4658,5.716973414442433,997.4672366710536,0,0
20.22,6.750190299999999,-7.1381830000000015,-0.000119078904,997.47833,5.716089057855336,997.4672639040492,0,0
20.24,6.6975937000000005,-7.209681,-0.009589635,997.46576,5.715183016980535,997.4672825530693,0,0
20.26,6.7501526,-7.2573466,-0.0379978,997.4532,5.7144081580998325,997.4672483341527,0,0
20.28,6.869629400000001,-7.0571504,0.03775107,997.4482,5.713621731718978,997.4671495243148,0,0
20.3,6.9508657000000005,-7.119115400000001,0.07562445,997.47107,5.71303844751978,997.4670763296547,0,0
20.32,6.965189,-7.1381809999999986,0.08982612,997.4633,5.712686155262475,997.4669980600661,0,0
20.34,6.812214999999999,-7.1763134000000015,-0.06641109,997.45825,5.712375479860135,997.4668974080412,0,0
20.36,6.773959599999999,-7.162012599999999,-0.11375666,997.46576,5.712027330916765,997.4668043772432,0,0
20.38,6.7309217000000015,-7.176312400000001,0.023539243,997.48596,5.711606322186903,997.4667911354722,0,0
20.4,6.721342999999999,-7.1620116,0.07088152,997.4608,5.711087624352938,997.4667578669556,0,0
20.42,6.640067,-7.281175599999999,0.14663026,997.4658,5.710553304017355,997.4667250225732,0,0
20.44,6.5779114000000005,-7.295474499999999,0.042471725,997.4709,5.709940262277595,997.4667110311957,0,0
20.46,6.472737,-7.3717394,0.15136132,997.45575,5.709235215617768,997.4666592087019,0,0
20.48,6.5969925000000025,-7.3288392999999985,0.14662516,997.4683,5.708556207963247,997.4666193251957,0,0
20.5,6.721248599999999,-7.2192082,-0.033283975,997.4633,5.707906821546462,997.4665721345584,0,0
20.52,6.7260094,-7.219208,-0.14217702,997.47833,5.7072947021415805,997.4665727652267,0,0
20.54,6.635174,-7.271639299999999,-0.0711627,997.4633,5.7066682590210664,997.4665615405307,0,0
20.56,6.687734,-7.228739999999997,-0.061695497,997.45325,5.70603953527687,997.4665037008432,0,0
20.58,6.687715,-7.238272,0.075600505,997.4683,5.7054257811752045,997.4664590603728,0,0
20.6,6.730714999999999,-7.2287393,0.009317078,997.4379,5.704873120876122,997.4663168034357,0,0
20.62,6.835851,-7.085742,0.08033139,997.4683,5.704311703588092,997.4661982447133,0,0
20.64,6.9792275,-7.0619087,0.12767382,997.4833,5.7039183484628,997.4661550525453,0,0
20.66,6.9696484,-7.243036999999997,0.20815696,997.45306,5.703933313374621,997.4660697457567,0,0
20.68,6.8740335,-7.233503999999999,0.1797488,997.448,5.704156231861727,997.4659293175932,0,0
20.7,6.874013400000001,-7.147705,0.10873087,997.448,5.704431037677966,997.4657406897247,0,0
20.72,6.817767,-7.0714679999999985,0.0330821,997.4683,5.704554348424512,997.4655832316572,0,0
20.74,6.832133,-6.957071000000001,0.09936623,997.48596,5.704394702529467,997.4655174580748,0,0
20.76,6.760462,-7.081001799999999,-0.014257163,997.4555,5.704066008294817,997.4654232776885,0,0
20.78,6.6648893,-7.238299,0.11357395,997.4555,5.703693100188196,997.4653043360993,0,0
20.8,6.7222724000000005,-7.2954984,0.17985794,997.4681,5.70345274162788,997.465209303701,0,0
20.82,6.8131122999999985,-7.2668996,0.12778167,997.47064,5.703413685664367,997.4651448835808,0,0
20.84,6.8370365999999985,-7.247833999999999,-0.06632662,997.4658,5.703556595544312,997.4650903203816,0,0
20.86,6.7844843999999975,-7.224002,0.018894982,997.45575,5.703748421635579,997.4650084831852,0,0
20.88,6.8084083,-7.204936,-0.033181135,997.45807,5.703988109718269,997.4649111932993,0,0
20.9,6.837113,-7.076239599999999,-0.028444398,997.46075,5.704117014928093,997.4648102476599,0,0
20.92,6.8323565,-7.2144704,0.018901814,997.45807,5.704348303752682,997.4646967872014,0,0
20.94,6.8515015,-7.2097044000000015,0.14673308,997.4909,5.704691638422822,997.4646908651064,0,0
20.96,6.8180679999999985,-7.128673599999999,0.14673540000000002,997.4682,5.70496291022662,997.4646982652288,0,0
20.98,6.822872,-7.171573,0.13253437,997.44037,5.705240517074749,997.4646172222224,0,0
21.0,6.689062599999999,-7.1858735000000005,0.18461512,997.44037,5.705355528377272,997.4644583226216,0,0
21.02,6.760787,-7.133442,0.13253914,997.4756,5.705347336129029,997.4643580289733,0,0
21.04,6.76559,-7.1954083,0.06152525,997.4555,5.7053293604411435,997.464237520601,0,0
21.06,6.789513,-7.2335410000000016,0.11360587,997.453,5.705395568704041,997.4640905843293,0,0
21.08,6.7035017,-7.219241999999999,0.047326528,997.463,5.705391087403003,997.463956825336,0,0
21.1,6.6127105,-7.314573299999997,0.0757353,997.463,5.7053431428352095,997.463835191318,0,0
21.12,6.708334,-7.2955084,-0.004747141,997.4682,5.705360990998126,997.4637434288112,0,0
21.14,6.727477,-7.23831,-0.033151392,997.4606,5.7053767348541164,997.4636510311163,0,0
21.16,6.7561793,-7.1763453,-0.03788362,997.4429,5.7053372960136,997.4634946848012,0,0
21.18,6.7896633,-7.123914,0.01419715,997.45807,5.705217853640003,997.4633370083318,0,0
21.2,6.842267,-7.0047503,-0.12783267,997.4555,5.704927541435553,997.4631694721736,0,0
21.22,6.9752535999999985,-7.023796000000001,0.042528300000000005,997.453,5.704707913036518,997.4629848271242,0,0
21.24,7.1234207,-6.97613,0.3407952,997.47064,5.704712156467669,997.462849233381,0,0
21.26,7.061274000000001,-6.9189315,0.3786696,997.4756,5.704741697055706,997.4627753255091,0,0
21.28,6.860513,-7.147726,0.2887151,997.4505,5.704831620307455,997.4626658293421,0,0
21.3,6.702771,-7.2811894,0.1703542,997.42523,5.704946444166732,997.462434309543,0,0
21.32,6.6884229999999985,-7.243057,0.037790064,997.4606,5.705001475900443,997.4622231351344,0,0
21.34,6.7170925000000015,-7.2382894,-0.17999342,997.4505,5.705039943834327,997.4619943381399,0,0
21.36,6.740983,-7.343153999999997,-0.2699479,997.45294,5.705261666408893,997.4617595774988,0,0
21.38,6.6836166,-7.2239895,-0.10897893,997.4504,5.705375238593419,997.4615112485174,0,0
21.4,6.6979479999999985,-7.243056,-0.042698015,997.4555,5.7054410967131926,997.4612701845343,0,0
21.42,6.697939,-7.328853599999999,0.08039568,997.45544,5.705596311286772,997.4610361917348,0,0
21.44,6.750508,-7.262121,0.14194211,997.44775,5.705803420345356,997.4607816054069,0,0
21.46,6.7696185,-7.157257,0.15141015,997.463,5.705924118065971,997.460564639148,0,0
21.48,6.7552705,-7.1191244000000005,0.15614377,997.45294,5.705890144836445,997.4603454790608,0,0
21.5,6.8221793,-7.1191244000000005,0.07565808,997.44525,5.705813620367956,997.4600974854833,0,0
21.52,6.831729400000001,-7.1286570000000005,0.14667335,997.44525,5.705729472820763,997.4598249074099,0,0
21.54,6.8460600000000005,-7.1572559999999985,0.14193812,997.4655,5.7057022764583865,997.459604487758,0,0
21.56,6.860392,-7.104823599999999,0.1750783,997.463,5.705668677703155,997.4594219487973,0,0
21.58,6.8460426,-7.080991,0.056717277,997.47046,5.705570309999534,997.4593003943562,0,0
21.6,6.8077945999999985,-7.2001543,0.05198198,997.4301,5.705539093179605,997.4590878674325,0,0
21.62,6.803008,-7.104823,0.07565337,997.44525,5.7054172400246665,997.4588502623196,0,0
21.64,6.764760000000001,-7.238286,-0.037973206,997.473,5.70536217383146,997.4586912534976,0,0
21.66,6.750412,-7.195387400000001,0.09458929,997.4705,5.705281642207536,997.45859326479,0,0
21.68,6.7886415,-7.2049203,0.12772934,997.44775,5.705248532763562,997.4584676462148,0,0
21.7,6.826871400000001,-7.1620206999999985,0.11352536,997.4502,5.705247024440545,997.4583268861153,0,0
21.72,6.750708,-7.1429625,0.0046627447,997.4554,5.705134383067657,997.4581919737013,0,0
21.74,6.8558674,-7.271660000000002,-0.052149754000000006,997.46027,5.705268782874397,997.4580802459868,0,0
21.76,6.9801464000000015,-7.1048303,-0.009539805,997.44525,5.7055499950535244,997.457935334493,0,0
21.78,7.104425,-7.1238966,-0.009539451,997.4327,5.706169799823876,997.4577164434927,0,0
21.8,6.984934,-7.219228,-0.07108639,997.4301,5.707054380005188,997.4574236122085,0,0
21.82,6.870222,-7.1858619999999975,-0.061617192,997.4403,5.7079543441992024,997.4571032214816,0,0
21.84,6.7889695,-7.090531,-0.01900724,997.44257,5.708604385827942,997.4567678046382,0,0
21.86,6.6599183,-7.200162,-0.0048036575,997.4502,5.709013332395113,997.4564477862184,0,0
21.88,6.6360226,-7.2144613,0.22244808,997.4454,5.709201190247732,997.4561252459123,0,0
21.9,6.688604400000001,-7.200162,0.2887301,997.45526,5.709248946625651,997.4558371344127,0,0
21.92,6.688608,-7.376524400000001,0.23665197,997.4529,5.709439840207688,997.4555719854076,0,0
21.94,6.636034,-7.2144613,0.1751051,997.43506,5.709431512048633,997.4552638565992,0,0
21.96,6.645597,-7.128664,0.042542055,997.4427,5.709126784878593,997.4549463641008,0,0
21.98,6.6981792,-7.247828,-0.04741125,997.46045,5.708817182068242,997.4546856408176,0,0
22.0,6.679064,-7.223994999999999,-0.09002055,997.4527,5.7084416606594575,997.4544481174182,0,0
22.02,6.7698839999999985,-7.166796700000001,-0.09002021,997.46796,5.7080512730208985,997.4542868845197,0,0
22.04,6.769888000000001,-7.328859299999999,-0.094754264,997.46796,5.707895398125138,997.4541936423462,0,0
22.06,6.750772,-7.17633,-0.04267548400000002,997.47546,5.707687565102973,997.4541878124494,0,0
22.08,6.822473,-7.1286645,0.17984189,997.47046,5.707468493302036,997.4542412410277,0,0
22.1,6.841595599999999,-7.1143649999999985,0.17037342,997.4325,5.707245997603754,997.4542101820517,0,0
22.12,6.765122,-7.0857660000000005,0.11829528,997.468,5.706866817969298,997.4542323816852,0,0
22.14,6.67909,-7.204929400000001,0.22245257,997.4451,5.70641217558841,997.4542191207072,0,0
22.16,6.640855,-7.333627000000001,0.17984325,997.4527,5.7060341988086325,997.4542019344728,0,0
22.18,6.7412350000000005,-7.2621284,-0.037939016,997.4527,5.705753536891175,997.4541813417516,0,0
22.2,6.798596400000001,-7.257362400000001,-0.13736117,997.46277,5.705635759406067,997.4541940651932,0,0
22.22,6.845880499999999,-7.147719,-0.26997152,997.46014,5.705570144863143,997.4542267129912,0,0
22.24,6.802847,-7.1858505999999975,-0.17055045,997.44763,5.70554197723629,997.4542318124188,0,0
22.26,6.774151,-7.305014,-0.07586394,997.4577,5.70568450354272,997.4542488037483,0,0
22.28,6.755016,-7.262115,-0.0048492774,997.46277,5.705884345830525,997.4542944935936,0,0
22.3,6.688083,-7.276414,0.11824383,997.43756,5.706062954599313,997.4542746209636,0,0
22.32,6.7071869999999985,-7.209682000000001,0.14191444,997.45514,5.7061479371333625,997.4542601768726,0,0
22.34,6.6593714,-7.233515,0.13717842,997.4577,5.70611860217885,997.4542597974373,0,0
22.36,6.735833,-7.2954793,0.10403617,997.4401,5.706189917523978,997.4542084868973,0,0
22.38,6.812293,-7.1572485,0.08983146,997.4526,5.706248704504973,997.4541573583507,0,0
22.4,6.8887550000000015,-7.0285509999999976,-0.075874135,997.4527,5.706213972078568,997.4541069346776,0,0
22.42,6.869619,-7.1048155,-0.052203592,997.44257,5.706182247821523,997.4540208473552,0,0
22.44,6.8026839999999975,-7.1953797,0.018810842,997.4577,5.706192959245577,997.4539580255464,0,0
22.46,6.850467,-7.1715465,0.0046062283,997.4703,5.706273600376679,997.4539613473039,0,0
22.48,6.8600106,-7.162013000000001,0.018808015,997.4325,5.706415167991241,997.4538870215592,0,0
22.5,6.8265357,-7.085748,0.16083866,997.45514,5.706450241138481,997.4538258580533,0,0
22.52,6.759602,-7.185845,0.23185322,997.44257,5.706448781825538,997.4537312928903,0,0
22.54,6.7022266,-7.195378,0.13242911,997.4325,5.706344209335732,997.453571302458,0,0
22.56,6.6926520000000025,-7.214442999999997,0.20817816,997.44763,5.706167099471108,997.453408546223,0,0
22.58,6.6209393,-7.1477113,0.12295748,997.45514,5.705720521668191,997.4532709680476,0,0
22.6,6.6304820000000015,-7.19061,0.08034632,997.4677,5.705115465808947,997.4532013484868,0,0
22.62,6.726062,-7.16201,0.10875122,997.4725,5.704464941133077,997.4532093077879,0,0
22.64,6.716487,-7.262108,0.07087457,997.4325,5.703914490595323,997.4531417871187,0,0
22.66,6.802508,-7.2096753,0.21763971,997.4803,5.703501297890264,997.4531798954216,0,0
22.68,6.874188,-7.1667757,0.061402768,997.4599,5.703244388501023,997.4532377602948,0,0
22.7,6.9076295,-7.1429424,0.08980769,997.4501,5.7031394818944205,997.4532775937596,0,0
22.72,6.92305,-7.119136,0.04729702,997.4677,5.703155444761896,997.4533647112712,0,0
22.74,6.8561583,-7.114371,0.09464334,997.4801,5.703175039740027,997.4535379353443,0,0
22.76,6.9183226,-7.328866,0.15619305,997.4501,5.703611136087968,997.453678619568,0,0
22.78,7.0569630000000005,-7.3812985,0.23668037,997.45764,5.704694347950951,997.4538171891176,0,0
22.8,7.047430499999999,-7.0476410000000005,-0.07105349,997.46497,5.705830540551532,997.4539797792906,0,0
22.82,7.0331160000000015,-6.8808117,-0.26042742,997.4325,5.706751091594044,997.4540461167619,0,0
22.84,6.889748,-7.014276,-0.118392825,997.4426,5.707457146137988,997.4540635265316,0,0
22.86,6.775059700000001,-7.0857754,0.17987712,997.4476,5.707913901604067,997.4540556411084,0,0
22.88,6.7989855,-7.133441,0.47814703,997.45496,5.708275397117037,997.4540519292404,0,0
22.9,6.8276906,-6.9809117,0.40713343,997.46014,5.708358323622607,997.4540705664888,0,0
22.92,6.7273397,-7.0428777,0.3929325,997.44507,5.708141291467456,997.4540546323216,0,0
22.94,6.665228999999999,-7.09531,0.39293495,997.44507,5.707650343818095,997.4540082082152,0,0
22.96,6.665255499999999,-7.290739500000001,0.3503277,997.45764,5.707213538444263,997.4539802623256,0,0
22.98,6.8325733999999985,-7.1477437,0.16095379999999998,997.4476,5.7068363375513576,997.4539326003927,0,0
23.0,7.033354300000001,-6.9999814,-0.02368537,997.44257,5.706583256212722,997.453849580948,0,0
23.02,6.9903603,-6.9046509999999985,-0.10416797,997.45013,5.706238882578554,997.4537628344748,0,0
23.04,6.9234695,-6.8617525,-0.07575913,997.4828,5.70565300492521,997.453790719087,0,0
23.06,6.9234962,-7.061948299999999,0.061541066,997.4677,5.705150699482562,997.4538654313416,0,0
23.08,6.856603999999999,-7.185879700000001,0.25091955,997.4476,5.704818731375703,997.453908891537,0,0
23.1,6.8279520000000025,-7.257378599999999,0.44029814,997.46265,5.7047190078828,997.4539787609559,0,0
23.12,6.7849603000000025,-6.961853,0.40715975,997.46265,5.7043168977710925,997.4540717140352,0,0
23.14,6.8710217,-6.809323299999999,0.17044179999999998,997.4449,5.703535296416879,997.4541208292056,0,0
23.16,6.7754526,-7.090551,0.2982732,997.455,5.70270541293382,997.4541673923852,0,0
23.18,7.052707700000001,-7.0524197,0.30774444,997.4803,5.70218247301672,997.4543026129976,0,0
23.2,6.922745,-7.157261,-0.080559835,997.46246,5.701889392066512,997.4544514605244,0,0
23.22,6.8128023,-7.3526897,-0.17524864,997.43463,5.701940859419383,997.4545116249408,0,0
23.24,6.8940473,-7.2335258,-0.085295975,997.44257,5.702229306394401,997.4545217963696,0,0
23.26,6.851018400000001,-7.1953929999999975,0.052000772,997.4702,5.702606563252503,997.454587225377,0,0
23.28,6.8988047,-6.9951973,0.23190708,997.46246,5.7028366323953374,997.4546733804367,0,0
23.3,6.994389,-6.9665979999999985,0.23664038,997.46497,5.7030340211441946,997.4547865748776,0,0
23.32,7.046956,-6.976130499999999,0.35026512,997.4423,5.703300272091077,997.4548416418164,0,0
23.34,7.113863,-6.8903327,0.45442107,997.4498,5.703609809567177,997.4548721490528,0,0
23.36,7.2333465,-6.5614395000000005,-0.19892788,997.4476,5.7036526791813245,997.4548729255102,0,0
23.38,6.6119595,-7.2096906,0.16562021,997.45734,5.703492903534287,997.4548824930563,0,0
23.4,6.7410035000000015,-7.290722,0.40233946,997.4674,5.703474246876158,997.4549360099647,0,0
23.42,7.0086617,-7.019028,0.21296223,997.4472,5.703546420531832,997.4549554478696,0,0
23.44,6.9847517,-7.1667914,0.31238377,997.4552,5.703887713709563,997.4549735035896,0,0
23.46,7.085115400000001,-7.1191254,0.2839762,997.46497,5.704539571997503,997.455025445011,0,0
23.48,7.161581,-7.209689599999999,0.53016424,997.4901,5.705729422482452,997.4551976088492,0,0
23.5,7.051634299999999,-7.228756,0.26977098,997.4677,5.707237052495075,997.4553947414242,0,0
23.52,7.0420630000000015,-7.295487400000002,0.35972363,997.4449,5.709111500228455,997.4555311466986,0,0
23.54,7.285823,-7.1810894,-0.023764148,997.4552,5.711477507504388,997.4556504822708,0,0
23.56,7.161536,-7.233521499999997,0.05671969,997.46014,5.714163712902034,997.4557720894466,0,0
23.58,6.8125997000000025,-7.0190262999999975,0.1087971,997.4549,5.716298031548378,997.4558764020247,0,0
23.6,6.7600117,-7.162022,-0.023767155,997.4702,5.718074958051901,997.4560201375716,0,0
23.62,6.7217603000000015,-7.2621193,0.30764005,997.45465,5.719637277379255,997.4561422098056,0,0
23.64,6.960739599999999,-7.3622174,0.6532505999999999,997.4727,5.721529403605385,997.4563096808763,0,0
23.66,6.846012599999999,-7.285952,0.5254206,997.4299,5.7234121803303335,997.4563625834633,0,0
23.68,6.822103500000001,-6.6710663,0.24608976,997.4476,5.724310183723308,997.4563777828884,0,0
23.7,6.5400839999999985,-6.599567,-0.59663534,997.45465,5.723847379885711,997.456384993082,0,0
23.72,6.588806,-6.966614999999999,-0.27934557,997.4398,5.722771106609288,997.4563316580344,0,0
23.74,6.8230405,-6.9094167,-0.37876594,997.4649,5.721416390452478,997.4563153772168,0,0
23.76,6.8135047,-6.928484,-0.009480197,997.4624,5.719819497016204,997.4563228961287,0,0
23.78,6.890008,-7.0238156,-0.37402686,997.45734,5.718281909260943,997.4563332014134,0,0
23.8,6.8709145000000005,-7.0381155,-0.19411722,997.4498,5.7167849555043055,997.4563187876377,0,0
23.82,6.923516,-7.1239146999999985,0.014198771,997.4471,5.7155293655805615,997.45627286399,0,0
23.84,6.7084503,-7.090549,-0.033142935,997.44464,5.714132215414027,997.4561904075445,0,0
23.86,6.789732000000001,-7.0571837,-0.1041567,997.43726,5.7126824912673415,997.4560493995621,0,0
23.88,6.6989410000000005,-6.914187400000001,-0.3598122,997.4497,5.7108594604921255,997.4559019470703,0,0
23.9,7.0144334000000015,-6.8617563,-0.033135954,997.43976,5.709084637746332,997.4557135470392,0,0
23.92,7.0048976,-6.8331575,-0.3692765,997.45715,5.707317446913981,997.4555522480023,0,0
23.94,6.88065,-6.9094229999999985,0.26040176,997.4345,5.705484069352767,997.4553339360808,0,0
23.96,6.9619303,-7.0142875,-0.07573880000000001,997.45996,5.703865862912362,997.4551576894968,0,0
23.98,6.746865,-7.061953999999999,-0.66280264,997.4371,5.702248807821273,997.4549369503328,0,0
24.0,6.7134295,-6.8093266,-0.42134583,997.44965,5.700185978287662,997.4547228721866,0,0
24.02,6.9428854000000015,-6.7187634,-0.8427055,997.44464,5.697999977262692,997.4544974143963,0,0
24.04,6.952471000000001,-7.1763535,-0.629655,997.44714,5.696364474708992,997.4542717132016,0,0
24.06,6.9620557000000005,-7.2097197,-0.18461862,997.43744,5.695247317779457,997.454011689458,0,0
24.08,7.110253,-6.9332600000000015,-0.33611742,997.4295,5.694410430166577,997.453693690396,0,0
24.1,7.1676364,-6.933260400000001,-0.07098843,997.44965,5.6938984676325575,997.4533981491395,0,0
24.12,7.0577254,-6.795031,-0.24615909,997.455,5.693317460755786,997.4531427755484,0,0
24.14,6.909577400000001,-6.833164,-0.17514068,997.47015,5.692509354986568,997.4529783534514,0,0
24.16,7.4162607,-6.4613733,-0.87583035,997.4371,5.691827262287357,997.452775908014,0,0
24.18,7.143837,-6.5805383,-1.4818319,997.4597,5.691155193125281,997.4526219539567,0,0
24.2,7.062606,-6.7664339999999985,-0.8994978000000001,997.43713,5.6904880964390445,997.4524301491174,0,0
24.22,7.726023,-6.637713400000001,-0.6344604,997.4751,5.690624725906693,997.4523422818246,0,0
24.24,7.4870186,-6.6901449999999985,-1.4393106000000002,997.45465,5.6913415090973425,997.4522729500699,0,0
24.26,7.286254,-6.7950087,-0.21310091,997.45966,5.692198500587195,997.4522382819116,0,0
24.28,7.224102499999999,-7.1191344,0.10410297,997.447,5.693545665566192,997.4521887913116,0,0
24.3,7.2384276,-6.976137599999999,-0.4261516,997.4647,5.695152636544793,997.4521901017688,0,0
24.32,7.0042033,-6.6901436,-0.87118703,997.42694,5.696283063802284,997.4521003593228,0,0
24.34,6.8607955,-6.9761367,-0.34093487,997.4501,5.697124392834216,997.4520138616034,0,0
24.36,6.9468190000000005,-7.104833,-0.061606232,997.4773,5.698011472461983,997.4520284623172,0,0
24.38,7.243152,-6.9618363,0.17511263,997.44714,5.6991667039426295,997.4520237650432,0,0
24.4,7.2622589999999985,-6.6138773,-0.41668904,997.4346,5.700104751373272,997.451956888978,0,0
24.42,7.0232550000000025,-6.6424766,-0.33147106,997.4727,5.700517278101295,997.4519724724864,0,0
24.44,6.836827799999999,-6.756873599999999,-0.18944027,997.44965,5.700342728950369,997.4519778811732,0,0
24.46,7.0184474,-6.74734,0.023606744,997.4852,5.69990273916872,997.452102259917,0,0
24.48,7.0949106,-6.675841,-0.113692194,997.44464,5.699243851440076,997.4521852968393,0,0
24.5,7.047097999999999,-6.861737,-0.037943084,997.4622,5.698588076885188,997.452294721195,0,0
24.52,6.9084716,-6.947534599999999,0.09935354,997.4802,5.697858932365782,997.4524918675596,0,0
24.54,6.9275759999999975,-6.971367,0.08988338,997.4497,5.6971305147527636,997.452656015364,0,0
24.56,6.918003,-7.0047320000000015,0.13722625,997.4724,5.696441757730237,997.4528721347084,0,0
24.58,6.860632400000001,-7.1000633,0.23191312,997.47015,5.695852607941879,997.4531252980768,0,0
24.6,6.8080397,-7.0333314,-0.019011687,997.4673,5.6951722766025314,997.4534000221556,0,0
24.62,6.7602277000000015,-7.028564,0.004659094,997.45715,5.6943376572193385,997.453656268272,0,0
24.64,6.8319106,-7.0190306,-0.09476471,997.4751,5.693460025321423,997.4539598847743,0,0
24.66,7.03265,-6.8903337,-0.061625052,997.45465,5.692652086955421,997.454230644731,0,0
24.68,7.156910400000001,-6.952298,-0.08529836,997.4647,5.692183800045991,997.4545075779075,0,0
24.7,7.295511999999999,-7.1477265,0.13248307,997.4572,5.692508195806062,997.454761968782,0,0
24.72,7.3347697,-6.94279,0.018950643,997.45465,5.693293387542724,997.4549863454707,0,0
24.74,7.20096,-6.728295,0.17992267,997.4572,5.693978263360068,997.4551925738697,0,0
24.76,7.1531887,-6.6615644,0.17992511,997.45984,5.6944048494209065,997.4553915280168,0,0
24.78,7.0958576,-6.8569937,-0.08519909,997.4799,5.6947921122783765,997.4556555544,0,0
24.8,7.033747,-7.066723,0.2604149,997.46967,5.695363544023699,997.4559393001167,0,0
24.82,6.8951573,-7.2812185,0.35510525,997.44476,5.696220873078202,997.4561497723516,0,0
24.84,6.895184,-7.1906548,0.265154,997.4471,5.6971857712802505,997.4563031664377,0,0
24.86,6.928667999999999,-7.023826,0.1704682,997.42957,5.698037918711603,997.456342466053,0,0
24.88,7.139006,-6.9094289999999985,0.15153304,997.4496,5.698929996645182,997.4563529183156,0,0
24.9,7.296767699999997,-6.766433,-0.13726307,997.4596,5.699887347007008,997.4563738434283,0,0
24.92,7.2489944,-6.7998,-0.033103887,997.44714,5.7008717601222605,997.456359091022,0,0
24.94,7.019591,-6.895131,0.24622844,997.45715,5.7016760509487625,997.4563489030678,0,0
24.96,6.732829,-6.861766,0.35038778,997.4596,5.701854747439691,997.4563516049408,0,0
24.98,6.5751224000000015,-6.899899,0.58237606,997.4572,5.70133282051276,997.4563570465376,0,0
25.0,6.5369085999999985,-6.9523315000000006,0.6202535,997.46716,5.700223151796576,997.4564007453653,0,0
25.02,6.6803293,-7.05243,0.7338816999999999,997.45465,5.698969741149679,997.4564330549659,0,0
25.04,6.8189699999999975,-7.2001940000000015,0.83330667,997.45465,5.698030074235183,997.4564551847313,0,0
25.06,6.599124400000001,-7.347958,0.7338864,997.45465,5.697270936170822,997.4564682399272,0,0
25.08,6.4366379999999985,-7.314592999999999,0.36933973,997.4571,5.696355779324232,997.456482049834,0,0
25.1,6.4557834000000005,-7.328892999999999,-0.004675813,997.4521,5.695340120162832,997.4564784768884,0,0
25.12,6.6517800000000005,-7.295528,-0.34555063,997.46234,5.694472119726987,997.4564964213167,0,0
25.14,6.819102,-7.557689,-0.014139742,997.44714,5.6943624211214825,997.4564785938973,0,0
25.16,7.029439999999999,-7.5672229999999985,0.1089572,997.4421,5.695234161905518,997.4564110786513,0,0
25.18,7.3162527000000015,-7.257397,-0.09935431,997.46967,5.6969215624641,997.4563991542964,0,0
25.2,7.5600495,-6.7569094,-0.15616472,997.4647,5.698980759418646,997.4564185009813,0,0
25.22,7.3635864,-6.6139006999999985,0.132589,997.45966,5.700857934272058,997.4564472651083,0,0
25.24,6.966869,-7.0095253,0.582358,997.44464,5.702570265197807,997.4564301749367,0,0
25.26,6.5653715,-7.6005783,0.833282,997.4799,5.7045008779707125,997.4564995654314,0,0
25.28,6.4411025,-7.505247,0.662844,997.48987,5.706273124078085,997.4566810124367,0,0
25.3,6.8139334000000025,-6.9809265,0.4639996,997.46234,5.707595126441777,997.456861711366,0,0
25.32,7.1294074000000025,-6.842696000000001,0.53501624,997.46967,5.708785023415179,997.457067486779,0,0
25.34,7.1485324000000015,-7.081024,0.61076736,997.47473,5.710236610206168,997.4573128949812,0,0
25.36,7.0672820000000005,-7.3288856,0.6865183000000001,997.4848,5.712171885357058,997.4576286912472,0,0
25.38,6.8760962,-7.1477559999999984,0.57762766,997.4496,5.713967642272648,997.4578788255393,0,0
25.4,6.574975500000001,-7.152523,0.44979924,997.45966,5.7151987875943755,997.4581062564276,0,0
25.42,6.2451744000000025,-7.204955,0.35037729999999995,997.4572,5.715543124900288,997.4583039518374,0,0
