Timestamp,Ax,Ay,Az,P,LPFRMSAcc,LPFPValue,Value,Type
0.0,0.21990262,-0.13836733,9.495245,1002.5627,0.019742882739209558,3.60922572,0,0
0.02,-0.19115916,0.11902676,9.968685,1002.703,0.0578414279694929,10.3950751536,0,0
0.04,-0.25329542,-1.4587036,9.400557,1002.70557,0.11107660244898918,19.963369494576,0,0
0.06,-0.7360545000000001,-0.8342847,7.483123299999999,1002.69324,0.17343966935879673,31.955741908081922,0,0
0.08,1.2619048000000002,-0.7675529999999999,11.483696,1002.77106,0.2519843177450367,46.047137317786635,0,0
0.1,0.36808285,-1.487303,9.504714,1002.77136,0.34048943439907103,61.9425015034577,0,0
0.12,1.6251725,-1.0916788999999998,11.701478,1002.7485,0.4421259207239021,79.37454689250423,0,0
0.14,1.2858076,-1.1250448,8.287972,1002.8012,0.5479287024048202,98.1018381494527,0,0
0.16,1.429203,-1.0201806,8.690397,1002.7839,0.657871182756258,117.90612812675434,0,0
0.18,2.5189993,-1.8066624,8.425271,1002.811,0.7713072980240345,138.59085628944175,0,0
0.2,2.2274327,-2.621744,9.462105,1002.85394,0.8896888745585865,159.97922919535034,0,0
0.22,4.335046,-1.8686209,10.0065365,1002.89935,1.014084333773989,181.91250792990792,0,0
0.24,5.1332636,-2.4930396,9.106998,1002.8865,1.1426871658339088,204.24825939121533,0,0
0.26,5.6160135,-2.712301,8.728246,1002.9117,1.2745035676040013,226.85931776861813,0,0
0.28,6.538506,-1.9830176,8.273742,1002.8944,1.4086908262643314,249.63217524692436,0,0
0.30000000000000004,5.9219007,-2.6837013,8.269006,1002.8815,1.5440505600507564,272.4659696838666,0,0
0.32,6.4142103,-1.897219,7.2084985,1002.799,1.6785350465304358,295.271109357487,0,0
0.34,7.2650055999999985,-1.7685217,8.273738999999999,1002.7688,1.8145014019612336,317.96872245941086,0,0
0.36000000000000004,8.005865,0.6338232,4.808153599999999,1002.7615,1.9475639459120784,340.4895873954171,0,0
0.38,8.761064999999999,1.134312,2.7628899,1002.75885,2.0773653452873533,362.7731929982488,0,0
0.4,8.459928,-0.21462342,5.589328299999999,1002.7912,2.2056587771402367,384.7670517341169,0,0
0.42,7.3988004,0.08090328,4.2400227,1002.7912,2.328803572845643,406.4257122468872,0,0
0.44,3.2977185,-4.3376946,2.9522630000000003,1002.75885,2.4421114460470865,427.7101039718824,0,0
0.46,13.182343,-0.58164763,5.1963706,1002.76154,2.5629143616258534,448.5871776697892,0,0
0.48,9.234215,-1.8161856,3.2221227000000003,1002.7862,2.681104667772354,469.0292764696485,0,0
0.5,9.081251,-4.0803,3.5866709,1002.84894,2.797880258459577,489.0136657579134,0,0
0.52,7.642521,-3.884871,2.360459,1002.82385,2.9094729967782005,508.52158879629576,0,0
0.54,8.641489,-3.3510163,4.8791614,1002.7967,3.0193726511622785,527.5381799933438,0,0
0.56,8.526764,-4.790516,1.8349382,1002.8268,3.126292940936138,546.0522790070793,0,0
0.5800000000000001,8.302104,-5.1051083,1.5745451,1002.8393,3.23003266005795,564.0557701711905,0,0
0.6,7.9818473,-5.2528715,1.7165762999999998,1002.78406,3.3302470765321908,581.543076807183,0,0
0.62,7.374801,-5.086042,1.0774307,1002.822,3.4255618108064256,598.51146507424,0,0
0.64,8.35943,-6.3205795,1.5461358,1002.7538,3.5194678762774982,614.9600053527444,0,0
0.66,7.7284869999999986,-6.263381,1.5603381,1002.8268,3.6107021795449903,630.8902560035609,0,0
0.68,7.059303999999999,-6.544607599999999,1.2904762,1002.8195,3.698505155985158,646.3051707570097,0,0
0.7000000000000001,7.174010000000001,-7.6170826,1.323616,1002.8023,3.7846946882548873,661.2091790984316,0,0
0.72,6.1471550000000015,-7.383541,1.3994402,1002.7442,3.867406415586284,675.6078869441577,0,0
0.74,6.754213,-7.364475,2.3841984,1002.77435,3.9479203456447167,689.5083844636424,0,0
0.76,6.8402705,-8.079459,2.2137618,1002.837,4.027328830253478,702.9188470877899,0,0
0.78,4.995289,-7.383542999999999,2.076466,1002.8622,4.102020381953516,715.8481279329708,0,0
0.8,4.436075,-6.687626,0.07854941,1002.92804,4.169931332799475,728.3059281712137,0,0
0.8200000000000001,4.3978595999999985,-6.163305,-0.12029348,1002.9655,4.230664733693986,740.3024149203087,0,0
0.84,5.081394,-8.150960000000001,-0.41382453,1002.97253,4.289080802145923,751.848123026096,0,0
0.86,4.603435,-8.274891,0.703497,1002.93036,4.344992118279791,762.9538067614757,0,0
0.88,5.4447036,-10.248245,-0.7973071999999999,1002.88275,4.40293036500207,773.6305331057159,0,0
0.9,6.5249605000000015,-12.493296,-0.020862907,1002.8625,4.467569144204608,783.889723584306,0,0
0.92,6.5058656,-10.310213,-0.32386258,1002.89795,4.533948714559472,793.7431739062846,0,0
0.94,-0.9267063,-4.447348000000002,0.23953366,1002.8098,4.585734786678024,803.2023224647223,0,0
0.96,4.9572535,-7.9555345,0.24900444,1002.86755,4.63447390647705,812.2792209500849,0,0
0.98,5.2010465,-8.360692,0.38630426,1002.8854,4.6813368379353,820.9857506963309,0,0
1.0,5.019435,-8.646687,0.5283384,1002.8726,4.726701550805824,829.3336330376071,0,0
1.02,5.134175,-7.1595210000000025,0.357902,1002.8879,4.7680963125633475,837.3346172354235,0,0
1.04,4.292952,-5.7390876,-0.0350515,1002.8753,4.802404183023595,845.0002333305663,0,0
1.06,4.0061855,-7.731509,0.37684366,1002.8001,4.833545721852161,852.3416512322445,0,0
1.08,4.87135,-10.8869705,0.05017158,1002.7548,4.868451892461698,859.3700154257314,0,0
1.1,3.3322787000000003,-7.874507,-0.1960151,1002.7925,4.899545216048302,866.0965989715636,0,0
1.12,2.4002385,-7.9126395999999986,-0.5321559,1002.79535,4.926602590589955,872.5323236963634,0,0
1.14,3.122013,-11.559056,-1.1523607,1002.7877,4.9577756461950635,878.6878494178895,0,0
1.16,1.6498535,-6.8830646999999985,0.12119601,1002.8458,4.982185744222116,884.5738405675256,0,0
1.18,1.2483741000000002,-11.973747,-0.81147957,1002.906,5.010897279154904,890.200698121301,0,0
1.2,0.8038724,-0.92010313,1.7356321,1002.92114,5.0226391989819295,895.5783830465803,0,0
1.22,2.0165923,-10.834508,2.0527134,1002.9209,5.038232659738224,900.7165385075892,0,0
1.24,7.417735,-8.980316,2.2373521,1002.8609,5.058525266605479,905.6243323743097,0,0
1.26,2.3415506,-10.324485,-1.999943,1002.82355,5.080638321279246,910.3107762183963,0,0
1.28,3.7420022,-11.163398,0.012176059,1002.7852,5.106358662586182,914.7846259246447,0,0
1.3,3.1253726000000004,-9.237708,-0.7784726,1002.8085,5.131036075284363,919.0546054717572,0,0
1.32,2.3366742,-9.218641,-0.27662859999999995,1002.78046,5.15414419078897,923.1289724758876,0,0
1.34,2.5804112,-9.619032,-0.33344450000000003,1002.8461,5.176718867372987,927.016064819824,0,0
1.36,2.6233964,-10.224383,-0.4139324,1002.86847,5.199985882020107,930.7237682735747,0,0
1.38,2.5229895,-9.666696,-0.15354297,1002.85864,5.222592024840981,934.259580583524,0,0
1.4,2.6711328,-9.552298,-0.15354579999999998,1002.86096,5.244383659515417,937.6307893064944,0,0
1.42,2.9722273,-9.609495,-0.24350254,1002.8612,5.265671612539208,940.8444188126076,0,0
1.44,2.8096812,-9.676226,-0.31452158,1002.8436,5.286477784850808,943.9071788964842,0,0
1.46,2.8096502,-9.47603,0.09736879,1002.8462,5.3063748645138435,946.82561418257,0,0
1.48,3.120304,-9.304433,-0.06833841,1002.8462,5.325250868198163,949.606017710298,0,0
1.5,2.3889594,-9.170969,-0.6696111,1002.8941,5.342505513321575,952.2546193636416,0,0
1.52,3.1871555,-9.323498,0.026343651000000003,1002.8639,5.3589982653468855,954.7771171948268,0,0
1.54,3.182343,-9.509392,-0.101488285,1002.8968,5.375122229245665,957.1792271365608,0,0
1.56,3.5121186,-9.647621,-0.3997586,1002.917,5.391374680318107,959.4663874633853,0,0
1.58,3.7271767,-9.051803,-0.31927675,1002.8513,5.406683532109108,961.6435080132993,0,0
1.6,3.9087763,-9.223396,-0.25773248,1002.87476,5.421574168814007,963.7156442383548,0,0
1.62,3.7749088,-9.099466,-0.49919012,1002.8897,5.435715903556838,965.6876104075563,0,0
1.64,3.6123624,-9.304427,-0.40450507,1002.8595,5.449405232759776,967.5638585171956,0,0
1.66,3.822643,-9.142363,-0.5276025,1002.85443,5.462508654058851,969.3487574042108,0,0
1.68,4.0424786,-9.237693,-0.81640434,1002.85443,5.475448510027201,971.0465144821223,0,0
1.7,4.171503,-9.185261,-0.9868458,1002.86194,5.48823842978473,972.6611881680292,0,0
1.72,3.761033,-9.69053,-0.75954,1002.8497,5.501444717513172,974.1965924794918,0,0
1.74,3.7371259,-9.142376,-0.48021087,1002.83716,5.5138611719140105,975.6563817721736,0,0
1.76,3.3595142,-9.170975,-0.62224364,1002.8196,5.525323810608668,977.0440391768076,0,0
1.78,3.421644,-9.21864,-0.5654315,1002.7844,5.536032626282791,978.3628385585056,0,0
1.8,3.3642793,-9.4379015,-0.28136787,1002.82007,5.546398773026699,979.6161757253636,0,0
1.82,3.4981062000000005,-9.4379015,-0.48494795,1002.79974,5.556535913543336,980.8070852773877,0,0
1.84,3.3833833,-9.271072,-0.20561878,1002.812,5.5660066495838905,981.938590650558,0,0
1.86,3.402495,-9.571364,-0.5133558,1002.82983,5.575477626896721,983.0135972599487,0,0
1.88,3.259093,-9.485566,-0.32398024,1002.8276,5.584631962530748,984.034803509871,0,0
1.9,3.3499017,-9.2615385,-0.39026263,1002.81006,5.593102372013723,985.0047322756668,0,0
1.92,3.46461,-9.404534,0.064239554,1002.8455,5.601283281488005,985.9259880969313,0,0
1.94,2.80021,-9.476033,-0.46128002,1002.81006,5.608907185781399,986.8007923994518,0,0
1.96,2.7810826,-9.247237,-0.23402934,1002.7973,5.615527919025818,987.6313569085208,0,0
1.98,2.8097541,-9.71436,0.16839437,1002.8151,5.622183536438452,988.4199051838636,0,0
2.0,2.3126478,-9.690527,0.0074239797,1002.85034,5.6285315911263565,989.1686160052943,0,0
2.02,2.1501265,-10.01942,-0.20562497,1002.86035,5.635181392051424,989.8794671294918,0,0
2.04,2.188357,-9.547531,-0.15828161,1002.8631,5.641131922757224,990.5543162611664,0,0
2.06,2.0545151,-9.714359,-0.11093826,1002.86804,5.646720562237837,991.1949423593736,0,0
2.08,2.00193,-9.828756,0.12104693,1002.853,5.652180139095613,991.8029685872564,0,0
2.1,1.9493451,-9.94792,-0.11567399,1002.86316,5.65772733796636,992.380037251299,0,0
2.12,1.6577696,-10.028952,-0.17722190000000002,1002.8554,5.663391878192079,992.9276464287424,0,0
2.14,1.5573861999999998,-9.93362,-0.11094096,1002.84296,5.668908972997158,993.4472090267881,0,0
2.16,1.4426632,-9.97652,-0.082535245,1002.86066,5.674327995404067,993.9401829619246,0,0
2.18,1.5382516000000002,-9.862122,-0.11094235,1002.8706,5.679435824037747,994.4079242323484,0,0
2.2,1.6099411,-9.895488,-0.10147424,1002.8858,5.684342011628605,994.8517407716583,0,0
2.22,1.5718205,-9.862124,0.10211598,1002.87067,5.6889713238644015,995.2727652110148,0,0
2.24,1.571818,-9.823992,-0.17247975,1002.8757,5.693263080587642,995.6721529708702,0,0
2.26,1.514458,-9.819225,0.13999073,1002.8681,5.697211773087704,996.0509574047836,0,0
2.28,1.6148312,-9.752493,0.06424003,1002.8555,5.700737481969541,996.410165355932,0,0
2.3,1.6482873,-9.838291,0.14472468,1002.82544,5.704065827364308,996.7506564902857,0,0
2.32,1.7247618000000002,-9.823992,0.1731309,1002.84296,5.707206324256598,997.0734467492352,0,0
2.34,1.5909246,-9.905024,0.2204747,1002.85815,5.710291429900358,997.379489153746,0,0
2.36,1.6530596000000002,-9.747727,0.21574007,1002.85803,5.713014807165684,997.669630969418,0,0
2.38,1.7438735,-9.776326,0.1920678,1002.8735,5.715498641351233,997.9447342062564,0,0
2.4,1.7582102,-9.561831,0.3056933,1002.8505,5.717334627460708,998.2054761831836,0,0
2.42,1.7486482,-9.947922,0.40984997,1002.83307,5.719385149962476,998.4525271317377,0,0
2.44,1.8872601,-9.895491,0.20153594,1002.85065,5.721549502812477,998.6866545922054,0,0
2.46,1.8633587,-9.804925,0.30569264,1002.853,5.723617975525671,998.9085284597427,0,0
2.48,1.9111543,-9.804925,0.4240525,1002.8432,5.725622029232553,999.1187410266436,0,0
2.5,1.7199593,-9.852591,0.38617703,1002.82806,5.727583977030307,999.3178383990614,0,0
2.52,1.5765626,-9.733426,0.6844443,1002.86847,5.729241774654927,999.5065431110933,0,0
2.54,1.7868718999999995,-9.790626,0.64656883,1002.84296,5.730810512282478,999.6852936954443,0,0
2.56,1.6482548,-9.83829,0.42405155,1002.8101,5.732317944846907,999.8544870144735,0,0
2.58,1.8442243000000005,-9.752492,0.69864684,1002.8505,5.733694031924645,1000.0147718779157,0,0
2.6,1.8251024,-9.847824,0.36723828,1002.838,5.735099499937912,1000.1665632044924,0,0
2.62,1.8251001,-9.823991,0.61816144,1002.85034,5.7365028796869275,1000.3103476171196,0,0
2.64,1.9159138,-9.785858,0.6418333,1002.86316,5.737860063057204,1000.4465856486954,0,0
2.66,1.801196,-9.757259,0.6276298,1002.84033,5.739066924863368,1000.5755830530603,0,0
2.68,1.7772946,-9.933621,0.7743962,1002.84534,5.74050883731229,1000.6977362845663,0,0
2.7,1.7916314999999998,-9.857357,0.6418326,1002.8579,5.741983562501716,1000.8134474693004,0,0
2.72,1.7293663,-9.704823,0.78858745,1002.84546,5.743169793592645,1000.9230051172424,0,0
2.74,1.6815608,-9.757256,0.8406652,1002.8858,5.744195621330628,1001.0268763165412,0,0
2.76,1.7293516,-9.814454,0.84539896,1002.84564,5.745210547558737,1001.1252044575025,0,0
2.78,1.7054446,-9.785854,0.90221107,1002.848,5.746155647046287,1001.2182892668088,0,0
2.8,1.6433,-9.819221,0.84066314,1002.84784,5.74707091385416,1001.3064053869513,0,0
2.82,1.490339,-9.747722,0.9306162,1002.8453,5.747776947197952,1001.389804811316,0,0
2.84,1.5381292,-9.700056,1.0063659,1002.85034,5.7482287696888745,1001.4687544693643,0,0
2.86,1.5524608999999998,-9.714355,1.0489749,1002.853,5.7484974025472235,1001.5434976711258,0,0
2.88,1.6193705,-9.795386,1.0253021999999998,1002.8425,5.748785589620137,1001.6142171725862,0,0
2.9,1.5333275,-9.881186,1.1910056999999998,1002.84534,5.74927496608904,1001.6811369662554,0,0
2.92,0.6825147,-10.133812,1.4608662,1002.8378,5.750337683009943,1001.7444312828627,0,0
2.94,0.89759827,-10.019414,1.0253001,1002.84045,5.751592165610241,1001.804303808399,0,0
2.96,1.2895347,-9.795385,0.46190533,1002.8324,5.752552315631666,1001.8609083182524,0,0
2.98,1.5763156,-9.666689,0.4761079000000001,1002.85254,5.753072765265688,1001.9144939372133,0,0
3.0,1.4042351,-9.60949,0.883266,1002.8499,5.753089959790465,1001.9652096519528,0,0
3.02,1.3420896999999998,-9.85735,1.2099391000000002,1002.8527,5.753223537597588,1002.0132170227499,0,0
3.04,1.509376,-10.043246,1.2241417,1002.83997,5.753891665940187,1002.0586126463044,0,0
3.06,1.5715059,-9.881184,0.31040100000000004,1002.8826,5.75457379016758,1002.1016905737503,0,0
3.08,1.3850858999999998,-9.986048,0.55658937,1002.855,5.755446269929657,1002.142466144376,0,0
3.1,1.538032,-9.695287,1.1673268,1002.8474,5.7560445986232125,1002.1810332004612,0,0
3.12,1.6431806,-9.819217,0.8548554,1002.82983,5.756620312325901,1002.2174467196962,0,0
3.14,1.6527326,-9.866882,0.62760335,1002.8424,5.757239692842691,1002.2518715371016,0,0
3.16,1.7435412,-9.752484,0.73649395,1002.855,5.757709281840142,1002.2844605682272,0,0
3.18,1.8917081,-9.766785,0.63233644,1002.845,5.758115335418311,1002.3152741780842,0,0
3.2,2.102012,-9.781084,0.66547656,1002.8575,5.758584620391583,1002.3444530967128,0,0
3.22,2.1691089,-9.604726,0.58974254,1002.8374,5.758770851763844,1002.3720101980647,0,0
3.24,2.1069715,-9.657158,0.63708663,1002.8168,5.758790659694997,1002.3979608961064,0,0
3.26,2.0496137,-9.781088,0.618149,1002.8449,5.758887370806898,1002.4224999136701,0,0
3.28,2.0735126,-9.804921,0.4524448,1002.8271,5.759091910522519,1002.4456391499001,0,0
3.3,2.040054,-9.747723,0.49032003,1002.8399,5.7592641928075325,1002.4675043180932,0,0
3.32,1.9683571,-9.785854,0.5187264,1002.8525,5.7594579552625405,1002.4882103651636,0,0
3.34,1.9157792,-9.814454,0.5092576,1002.8246,5.759706007027992,1002.5077172310404,0,0
3.36,1.7867247,-9.757256,0.40983513,1002.8371,5.759825121815593,1002.5261392756971,0,0
3.38,1.9014399,-9.795387,0.42877278,1002.82684,5.759953502148446,1002.5434995169636,0,0
3.4,1.9396784,-9.666691,0.57553935,1002.8625,5.759858317002076,1002.5599874278853,0,0
3.42,1.9444581000000003,-9.723889,0.58974254,1002.8168,5.759685982719126,1002.5754806712357,0,0
3.44,1.9540178,-9.795387,0.41456956,1002.8497,5.759577176632893,1002.5901576906433,0,0
3.46,2.0687330000000004,-9.762022,0.40983513,1002.83966,5.759504618357159,1002.6040245133057,0,0
3.48,2.1069715,-9.733422,0.44771037,1002.8647,5.759426291120093,1002.617215669562,0,0
3.5,2.1356502,-9.685758,0.3766943,1002.8295,5.759253042606515,1002.6296355988197,0,0
3.52,2.1404302000000004,-9.733422,0.2630686,1002.8471,5.759087784601087,1002.6413927201564,0,0
3.54,2.236026,-9.795387,0.16838050000000002,1002.8369,5.759095022031896,1002.6524851387767,0,0
3.56,2.3029435,-9.714356,0.29620942,1002.8367,5.759128328255858,1002.6629495733704,0,0
3.58,2.2264664,-9.719123,0.21572454,1002.8491,5.759153836284964,1002.6728660893127,0,0
3.6,2.1404302000000004,-9.661924,0.267803,1002.86194,5.759019758272323,1002.682308988878,0,0
3.62,2.1882281000000003,-9.68099,0.267803,1002.84155,5.7588054975484955,1002.691226002574,0,0
3.64,2.236026,-9.733422,0.23466216,1002.8389,5.758647707272496,1002.6996367022664,0,0
3.66,2.2886038,-9.661924,0.19678693,1002.8467,5.758418813256228,1002.7075978243864,0,0
3.68,2.2073474,-9.690523,0.18258372,1002.8341,5.7581470303470805,1002.715087679724,0,0
3.7,2.1882281000000003,-9.690523,0.22519335,1002.8522,5.757831358490199,1002.7221993202533,0,0
3.72,2.23203,-9.70961,0.29154673,1002.8413,5.757540508119902,1002.7289119282719,0,0
3.74,2.2368395,-9.700077,0.23947103,1002.829,5.757252692608223,1002.7352035057753,0,0
3.76,2.22253,-9.728677,0.36730266,1002.8567,5.7570279376148354,1002.7412001310366,0,0
3.78,2.1699855,-9.742977,0.3246961,1002.83167,5.756861601638577,1002.746824440646,0,0
3.8,2.1747952,-9.738212,0.32943323,1002.8417,5.7567403197175775,1002.7521356326303,0,0
3.82,2.1891663,-9.690547,0.31996733,1002.81146,5.756568575404575,1002.75704216959,0,0
3.84,2.2274363,-9.757279,0.34837666,1002.8462,5.756507623973572,1002.7616985538374,0,0
3.86,2.2370257,-9.77158,0.22055046,1002.8564,5.756570650623533,1002.7661538601643,0,0
3.88,2.1557987,-9.766814,0.3483821,1002.8462,5.7567038648015725,1002.7703787349384,0,0
3.9,2.1128144,-9.738215,0.3957292,1002.86926,5.7568251682944025,1002.7744678068428,0,0
3.92,2.112844,-9.681018,0.39573193,1002.8414,5.7568194527978775,1002.778321866673,0,0
3.94,2.0841990000000004,-9.742983,0.3767974,1002.8462,5.756813221571702,1002.7819716752188,0,0
3.96,2.1081278,-9.738217,0.36259696,1002.8639,5.756806241282892,1002.7854915880192,0,0
3.98,2.069921,-9.728685,0.4525535,1002.83875,5.756770268381034,1002.7887935132527,0,0
4.0,2.0556114,-9.714387,0.40994656,1002.8261,5.756669757115499,1002.7918453977412,0,0
4.02,2.1464593,-9.75252,0.38627747,1002.82367,5.756627836545729,1002.7946566114437,0,0
4.039999999999999,2.218188,-9.704854,0.30106112,1002.81854,5.756567737421015,1002.7972265800696,0,0
4.06,2.2612379,-9.79542,0.3105328,1002.82355,5.756695790468737,1002.7995921686594,0,0
4.079999999999999,2.1991322,-9.738222,0.44783345,1002.84894,5.756855897914817,1002.8018600549301,0,0
4.1,2.074887,-9.709624,0.46203938,1002.8411,5.756931735948903,1002.8040052230413,0,0
4.119999999999999,1.9841025,-9.733458,0.4667767,1002.82855,5.7569432215626035,1002.8059890547812,0,0
4.14,1.9506754,-9.757292,0.3768259,1002.83636,5.756924657392345,1002.8078513039093,0,0
4.159999999999998,2.0702024,-9.766824,0.3768288,1002.85144,5.756949073670273,1002.8096537065453,0,0
4.18,2.2184079,-9.714394,0.34369084,1002.84894,5.756968721771384,1002.8113877401704,0,0
4.199999999999998,2.1563,-9.747761,0.348428,1002.8566,5.757023756944755,1002.8130826964168,0,0
4.22,2.2645154,-9.695286,0.26778567,1002.84406,5.757048228445648,1002.8146918780496,0,0
4.239999999999998,2.1210845000000003,-9.752482,0.37193918,1002.8414,5.757102907728072,1002.8162099001787,0,0
4.26,2.0158894,-9.790616,0.34826353,1002.83105,5.757214548906641,1002.8176046488918,0,0
4.2799999999999985,1.9489328,-9.804914,0.31511912,1002.85895,5.757375363129535,1002.8189858921183,0,0
4.3,1.8007197,-9.757248,0.35772517,1002.82104,5.7574268373964825,1002.820213753422,0,0
4.3199999999999985,1.7863435,-9.785845,0.33878420000000004,1002.83386,5.7574331686114775,1002.8213478181574,0,0
4.34,2.0539732,-9.776312,0.39085904,1002.85895,5.7574911931767305,1002.8224852456124,0,0
4.3599999999999985,2.120851,-9.776312,0.39558986,1002.86395,5.757624074267287,1002.8236395496273,0,0
4.38,2.2498689,-9.728644,0.3103672,1002.8587,5.757778350335245,1002.8247857102762,0,0
4.4,2.2259283,-9.728642,0.27722254,1002.86127,5.75793779487016,1002.8259298012688,0,0
4.42,2.2402284,-9.704808,0.27721897,1002.8741,5.758059625840128,1002.8271141327847,0,0
4.44,2.1971707,-9.7381735,0.24880888,1002.8562,5.758193906732032,1002.8282653172348,0,0
4.46,2.216253,-9.680974,0.2014615,1002.82355,5.758229367545942,1002.8292655286723,0,0
4.48,2.2496748,-9.704806,0.15884846,1002.82855,5.75823963278062,1002.8301467395956,0,0
4.5,2.3022134,-9.728639,0.22512652,1002.8459,5.758303368031057,1002.8309820893048,0,0
4.52,2.2830524,-9.680971,0.24879472,1002.8462,5.758309740216965,1002.8317749887863,0,0
4.539999999999999,2.3116944,-9.628539,0.31033862,1002.8336,5.758176805710213,1002.8324821648088,0,0
4.56,2.2781963,-9.609471,0.31980383,1002.8562,5.75786720475517,1002.8331924097487,0,0
4.579999999999999,2.306836,-9.695269,0.3008626,1002.8386,5.757588550025908,1002.8338394495024,0,0
4.6,2.3880534,-9.700034,0.2961246,1002.8587,5.757387266527327,1002.8345006718108,0,0
4.619999999999999,2.4166956,-9.671434,0.25824600000000003,1002.869,5.757209539550424,1002.8352091254236,0,0
4.64,2.3593009,-9.6762,0.29611787,1002.8537,5.757036491050236,1002.8359016821846,0,0
4.659999999999998,2.230207,-9.695266,0.25350463,1002.85895,5.756842467556343,1002.8365965992826,0,0
4.68,2.23017,-9.719096,0.41920543,1002.8462,5.756690458371239,1002.8372452002733,0,0
4.699999999999998,2.2970455000000003,-9.64283,0.400264,1002.8642,5.756451898693018,1002.8379153413872,0,0
4.72,2.3209052000000003,-9.728628,0.40026042,1002.8411,5.756322538954649,1002.8385189428467,0,0
4.739999999999998,2.2013707,-9.719093,0.40499118,1002.82605,5.756215018248057,1002.8390073969023,0,0
4.76,2.2634714,-9.704793,0.3671126,1002.8537,5.756124082685338,1002.8394918882768,0,0
4.7799999999999985,2.2682118,-9.714325,0.37184343,1002.82605,5.756070011089452,1002.8398715940573,0,0
4.8,2.2586129,-9.63806,0.41444945,1002.8513,5.7558934409205245,1002.8402482443463,0,0
4.8199999999999985,2.2298949,-9.695257000000002,0.37183616,1002.82104,5.755707983065998,1002.8405119028622,0,0
4.84,2.2489772,-9.742923,0.3481608,1002.8409,5.755618943639213,1002.8407462686763,0,0
4.8599999999999985,2.2250412,-9.690489,0.319751,1002.8336,5.755496143917929,1002.8409276277428,0,0
4.88,2.244119,-9.680954,0.33395040000000004,1002.83105,5.75533453436753,1002.8410523171538,0,0
4.9,2.1867242,-9.680953,0.4144319,1002.8308,5.755118918155127,1002.8411255843756,0,0
4.92,2.1627886000000003,-9.723851,0.3718189,1002.8308,5.754928921022446,1002.8411531511892,0,0
4.94,2.234446,-9.795348,0.36708084,1002.8462,5.7549394622551295,1002.8411956778813,0,0
4.96,2.2535262,-9.73815,0.40495253,1002.8361,5.755023285966297,1002.841214910026,0,0
4.98,2.2200258,-9.7047825,0.291323,1002.811,5.755080175219321,1002.841123129873,0,0
5.0,2.301248,-9.709549,0.3528671,1002.83386,5.755165105267451,1002.8410158856624,0,0
5.02,2.3012087,-9.704781,0.3623323,1002.8462,5.7552655556641765,1002.8409397874893,0,0
5.039999999999999,2.2963872000000003,-9.719079,0.33865649,1002.8537,5.755404225231646,1002.8409184839087,0,0
5.06,2.3363404,-9.66669,0.40036073,1002.8692,5.75549437310063,1002.8410014735226,0,0
5.079999999999999,2.3267837000000005,-9.704822,0.42876735,1002.8311,5.7556161208191385,1002.8410391578408,0,0
5.1,2.293328,-9.695289,0.40036124,1002.83386,5.755727545554372,1002.8410466107364,0,0
5.119999999999999,2.350689,-9.685757,0.36248627,1002.85144,5.755834945259884,1002.841090612316,0,0
5.14,2.3506918,-9.728655,0.37668973,1002.8512,5.7560260927197735,1002.8411658859076,0,0
5.159999999999998,2.4032724,-9.642857,0.305674,1002.8414,5.7561384512777165,1002.8412332404636,0,0
5.18,2.3267990000000003,-9.657157000000002,0.32934627,1002.82605,5.756173396101808,1002.841238095284,0,0
5.199999999999998,2.2885633,-9.733421,0.2962057,1002.80865,5.756273386134797,1002.8411250678599,0,0
5.22,2.2359884,-9.723888,0.3151436,1002.82855,5.7563876657636985,1002.840979926584,0,0
5.239999999999998,2.2646704,-9.661924,0.37195674,1002.85895,5.756406330577255,1002.8409163720166,0,0
5.26,2.2455537,-9.742955,0.31514412,1002.83636,5.75649133131996,1002.8408438122617,0,0
5.2799999999999985,2.2742357,-9.714356,0.31041,1002.83624,5.756589942882657,1002.840763124738,0,0
5.3,2.4032936,-9.68099,0.3293479,1002.8413,5.756696961030276,1002.8406937619933,0,0
5.3199999999999985,2.489333,-9.700057,0.29147294,1002.84894,5.756890733627667,1002.8406621595284,0,0
5.34,2.4319782,-9.714356,0.22992593,1002.85425,5.757156653007399,1002.8406831518164,0,0
5.3599999999999985,2.3316052000000003,-9.642858,0.2488638,1002.80853,5.757292214141362,1002.8405859492557,0,0
5.38,2.1738746,-9.690523,0.36248982,1002.8212,5.7573414390783935,1002.8404302716556,0,0
5.4,2.1213002,-9.728656,0.32461488,1002.8212,5.7573652382448435,1002.8402234859503,0,0
5.42,2.0735047,-9.738189,0.3908968,1002.829,5.757369876503402,1002.8400003655516,0,0
5.44,2.1547644,-9.723889,0.32934982,1002.8315,5.757359752509902,1002.8397726150513,0,0
5.46,2.1308687,-9.690523,0.34355327,1002.83655,5.75725923908329,1002.839559773295,0,0
5.48,2.2216876,-9.747723,0.31988153,1002.8462,5.757234754353178,1002.8393956111353,0,0
5.5,2.2121310000000003,-9.73819,0.32461622,1002.83624,5.757254139149296,1002.8392391972508,0,0
5.52,2.2264736000000003,-9.747724,0.3246165,1002.8315,5.757338145555017,1002.8390731288324,0,0
5.539999999999999,2.1977978,-9.685759,0.3530232,1002.83124,5.75734222675719,1002.838898191514,0,0
5.56,2.1545181,-9.6809845,0.37667125,1002.83875,5.7572480909699335,1002.83874308341,0,0
5.579999999999999,2.2357674,-9.719117,0.334061,1002.8471,5.757178849056616,1002.8386361147893,0,0
5.6,2.2500987,-9.695284,0.34826347,1002.8367,5.757091328790278,1002.8385346273024,0,0
5.619999999999999,2.3504674,-9.695284,0.31038755,1002.8445,5.757033503595957,1002.838466428301,0,0
5.64,2.297882,-9.666684,0.30565247,1002.84155,5.75691854472244,1002.8384172685214,0,0
5.6599999999999975,2.2835355,-9.704816,0.28671420000000003,1002.8517,5.756822579681326,1002.8384216487732,0,0
5.68,2.293087,-9.690516,0.3103855,1002.85706,5.756720859231835,1002.8384926172287,0,0
5.6999999999999975,2.3504379,-9.71435,0.24883759,1002.8595,5.756686724309469,1002.8386309515332,0,0
5.72,2.2691739,-9.714349,0.26777452,1002.8442,5.756674388591124,1002.8387732322997,0,0
5.7399999999999975,2.230928,-9.757248,0.30091467,1002.8036,5.756752264332691,1002.8387723279483,0,0
5.76,2.2452598,-9.757248,0.35772684,1002.8165,5.7569201091354785,1002.8386913484833,0,0
5.7799999999999985,2.2117932,-9.709582,0.3293197,1002.8191,5.7570527854503135,1002.8385492661732,0,0
5.8,2.2978218,-9.680982,0.3624598,1002.8191,5.757138916951691,1002.8383537048855,0,0
5.8199999999999985,2.2930353,-9.695282,0.2583023,1002.8469,5.757203480310676,1002.8382116735944,0,0
5.84,2.2834682,-9.685749,0.36719286,1002.8471,5.757232017506657,1002.8381181727208,0,0
5.8599999999999985,2.3025796,-9.690515,0.2914417,1002.8471,5.757242192220898,1002.8380678899266,0,0
5.88,2.4364066,-9.680982,0.30090985,1002.8469,5.757283519050982,1002.8380552556462,0,0
5.9,2.4698575000000003,-9.680982,0.31984675,1002.86194,5.757370515502544,1002.8381300770757,0,0
5.92,2.4602902,-9.680981,0.32458046,1002.85974,5.7574929633365715,1002.8382739850133,0,0
5.94,2.4077053,-9.695281,0.39559585,1002.8547,5.75765380587365,1002.8384602757209,0,0
5.96,2.3503401000000004,-9.628549,0.3056415,1002.8419,5.757678330314128,1002.8386372651976,0,0
5.98,2.3025346,-9.728646,0.4003289,1002.8218,5.7577682385155455,1002.8387330389444,0,0
6.0,2.3312063,-9.7000475,0.37665623,1002.85223,5.757869722911803,1002.8388662536867,0,0
6.02,2.345538,-9.704812,0.29617065,1002.83966,5.75799203198098,1002.8389868197197,0,0
6.039999999999999,2.3311908,-9.709579,0.3482484,1002.8345,5.7581384400279525,1002.839077199316,0,0
6.06,2.3122532,-9.638086,0.38140586,1002.86224,5.758154565806986,1002.8392404448095,0,0
6.079999999999999,2.4269686000000004,-9.647618,0.40034345,1002.8519,5.758133142488,1002.8394302629264,0,0
6.1,2.422189,-9.685752,0.37667143,1002.83966,5.7581511066531625,1002.8395988132677,0,0
6.119999999999999,2.469987,-9.652386,0.324593,1002.84467,5.7581571659199025,1002.8397660006214,0,0
6.14,2.4460877999999995,-9.6809845,0.39087468,1002.8243,5.758202958768092,1002.8398580497648,0,0
6.1599999999999975,2.4413080000000003,-9.628552,0.32932740000000005,1002.8497,5.758171059050058,1002.8399748154088,0,0
6.18,2.4604273,-9.628552,0.33406183,1002.84216,5.75808075046998,1002.8400858561968,0,0
6.1999999999999975,2.4986656000000003,-9.647618,0.4571563,1002.85974,5.758007452137983,1002.8402547267543,0,0
6.22,2.4843264,-9.666685,0.31985858,1002.8522,5.757969244224298,1002.8404469437628,0,0
6.2399999999999975,2.5082254,-9.59042,0.36246824,1002.85724,5.757824324095572,1002.840677241714,0,0
6.26,2.5034456,-9.614252,0.42401552,1002.8394,5.757636084220271,1002.8408761349132,0,0
6.2799999999999985,2.5369040000000003,-9.595187,0.4192811,1002.85223,5.757389167072192,1002.8410927508586,0,0
6.3,2.5369040000000003,-9.666685,0.40034345,1002.8469,5.7572332555721415,1002.8413050588048,0,0
6.3199999999999985,2.541684,-9.599953,0.40507787,1002.86224,5.757027236523273,1002.8415680198945,0,0
6.34,2.5369040000000003,-9.614252,0.4382187,1002.8296,5.756806775084843,1002.8417572874414,0,0
6.3599999999999985,2.5608032000000005,-9.60472,0.5613132,1002.85974,5.756580784511899,1002.8419892620112,0,0
6.38,2.584702,-9.599953,0.6228604999999999,1002.8549,5.756361606659514,1002.8422407133979,0,0
6.4,2.5082254,-9.60472,0.58025086,1002.8725,5.756112774039536,1002.8425718292748,0,0
6.42,2.6325004,-9.504622,0.54711,1002.8399,5.755701131427548,1002.8428547846784,0,0
6.44,2.6277204,-9.599953,0.6323293000000001,1002.82434,5.755345696661424,1002.843038150848,0,0
6.46,2.6994176,-9.509388,0.55184436,1002.8472,5.754890187303653,1002.8432151558528,0,0
6.48,2.7519953,-9.537988,0.48556277,1002.8449,5.7544277867433395,1002.8433776229136,0,0
6.5,2.7185369,-9.528455,0.65126693,1002.82935,5.753942506952585,1002.843470679366,0,0
6.52,2.6229405,-9.561821,0.65126693,1002.8095,5.753451975979497,1002.8434306096018,0,0
6.539999999999999,2.661179,-9.585653,0.6560013000000001,1002.8547,5.753027960326178,1002.8434357737634,0,0
6.56,2.6566825,-9.633326,0.7885906,1002.817,5.75277691612629,1002.8433451680313,0,0
6.579999999999999,2.565877,-9.590426,0.66549706,1002.8344,5.752525823111293,1002.8432329062014,0,0
6.6,2.6041274,-9.61426,1.072657,1002.8371,5.752417482191127,1002.843111633186,0,0
6.619999999999999,2.5802400000000003,-9.514163,1.0821267,1002.8421,5.752225256182258,1002.8430008344702,0,0
6.64,2.704525,-9.528462,0.94483,1002.8145,5.7520276890443895,1002.8428003297212,0,0
6.6599999999999975,2.6758573,-9.480798,1.2288953,1002.8218,5.751779810491652,1002.8425475625372,0,0
6.68,2.8383822,-9.471265,1.1910212,1002.83185,5.751553574786923,1002.8422857062288,0,0
6.6999999999999975,2.7666972000000003,-9.385468,1.3046479,1002.83435,5.751165314506682,1002.8420257614522,0,0
6.72,2.8718636,-9.485565,1.7354797,1002.8092,5.751030658204768,1002.8416779015064,0,0
6.7399999999999975,2.7953975,-9.404533,1.5839798,1002.7917,5.750864195439304,1002.8411906120128,0,0
6.76,2.833648,-9.609496,1.8491075,1002.8419,5.7511889327112575,1002.8407625968127,0,0
6.7799999999999985,2.9627135,-9.5618305,1.5887163,1002.82684,5.751838029758508,1002.8403342812338,0,0
6.8,2.8958077,-9.433134,1.5981861000000002,1002.84467,5.752481656526504,1002.8399714301758,0,0
6.8199999999999985,3.125249,-9.4665,1.6029215,1002.8218,5.7533278318927135,1002.839585397832,0,0
6.84,2.9053892999999995,-9.456967,1.6029223999999995,1002.8396,5.75419432309654,1002.839244352221,0,0
6.8599999999999985,2.5086777,-9.580898,1.3093907,1002.89233,5.755008833608168,1002.8391341126512,0,0
6.88,2.2505784,-9.652397,1.2431098,1002.8745,5.755772153363724,1002.8391640221615,0,0
6.9,2.2936087000000005,-9.5522995,1.3377991000000002,1002.87964,5.7563326879153935,1002.8393361637253,0,0
6.92,2.6903439,-9.647631,1.7212869,1002.8346,5.757227656437503,1002.8394712178217,0,0
6.94,2.7811716,-9.518934,1.6408031000000003,1002.8219,5.758184557343844,1002.8395272952368,0,0
6.96,2.5804298,-9.557066,1.290458,1002.8371,5.759050003162835,1002.839568106978,0,0
6.98,2.4035892000000003,-9.514168,1.0868797,1002.83435,5.759602966981858,1002.8395853830476,0,0
7.0,2.1120317,-9.623799,0.91644216,1002.872,5.759924104352777,1002.8397173408036,0,0
7.02,2.1550612,-9.552301,1.1578978000000002,1002.8645,5.759967010807933,1002.8399231562497,0,0
7.039999999999999,2.3892832000000004,-9.628566,1.1721021,1002.8846,5.760032001349582,1002.8402658514156,0,0
7.06,2.3311179,-9.614245,1.0157928,1002.8445,5.760023253713124,1002.8405838997992,0,0
7.079999999999999,2.0299687,-9.647612,0.8548209999999999,1002.86426,5.759847585074349,1002.8409501613112,0,0
7.1,2.1590033,-9.599945,0.9637105,1002.8896,5.759506257995106,1002.8414489294032,0,0
7.119999999999999,2.302376,-9.590412,1.1246783,1002.8895,5.759102955522071,1002.8420626247428,0,0
7.14,2.4075112,-9.571345,1.025254,1002.8522,5.758637554233348,1002.8426413804962,0,0
7.1599999999999975,2.498306,-9.557046,0.9116263,1002.8469,5.758113911456661,1002.84316810011,0,0
7.18,2.402687,-9.633309,1.0489218,1002.8871,5.757672691259892,1002.8437916644002,0,0
7.1999999999999975,2.5269406,-9.657142,1.0157790999999998,1002.8467,5.757410119324825,1002.8443531158152,0,0
7.22,2.4647827,-9.638076,1.1151997,1002.8413,5.757257994814179,1002.8448382230687,0,0
7.239999999999997,2.4982197,-9.595176,1.0631194,1002.8115,5.757123647227782,1002.8451468462348,0,0
7.26,2.3022263,-9.714339,1.0015701,1002.8366,5.757133597878753,1002.8453887770178,0,0
7.2799999999999985,2.2400699,-9.638074,0.97789633,1002.81616,5.757083203751369,1002.8454973234603,0,0
7.3,2.1826894,-9.595175,1.0631135,1002.8392,5.7568848715450835,1002.8455705647328,0,0
7.3199999999999985,2.2352471,-9.58564,1.0205021,1002.8115,5.756552389666222,1002.8455126266879,0,0
7.34,2.1922073,-9.700038,0.9684216,1002.82623,5.756302407824173,1002.8453920151753,0,0
7.3599999999999985,2.1778462000000003,-9.628538,0.9826228,1002.8517,5.75597831047088,1002.8453081515885,0,0
7.38,2.2782018,-9.642838,0.9731522,1002.7989,5.755663533597035,1002.845066980377,0,0
7.399999999999999,2.2638397,-9.595172,0.89266527,1002.8315,5.755239582529542,1002.8448050403656,0,0
7.42,2.3163972000000004,-9.647602,0.96841383,1002.8467,5.754866167577583,1002.8445804120256,0,0
7.439999999999999,2.2972567,-9.647602,0.8453173,1002.83636,5.7545062447704565,1002.8443523369417,0,0
7.46,2.297235,-9.642835,0.8926594000000001,1002.8492,5.754158518418517,1002.8441682613844,0,0
7.479999999999999,2.3450115,-9.647601,0.8737198,1002.84406,5.753852065031878,1002.8440052224807,0,0
7.5,2.3258722,-9.642834,0.9068588,1002.8462,5.753570422672138,1002.8438690625047,0,0
7.52,2.2684956,-9.619001,0.8311065999999999,1002.8515,5.753222389881568,1002.8437762229248,0,0
7.539999999999999,2.258913,-9.595168,0.9399958,1002.81116,5.75278459995026,1002.8435767714694,0,0
7.56,2.2796776000000003,-9.633341,0.9070056,1002.8538,5.752349449439367,1002.8434373397862,0,0
7.579999999999999,2.2558243,-9.666708,0.9022754,1002.82874,5.7519732426331505,1002.8432612275276,0,0
7.6,2.3466892,-9.62381,0.9070142,1002.83167,5.751608647669007,1002.8430638863167,0,0
7.619999999999999,2.3180532000000005,-9.671476,0.9022837,1002.83875,5.751336704791553,1002.8428739856323,0,0
7.64,2.3324382000000004,-9.633346,0.86914706,1002.8411,5.751071720262308,1002.8426998030393,0,0
7.659999999999997,2.3324811000000003,-9.638112,0.84547895,1002.8007,5.750819212897544,1002.842394696009,0,0
7.68,2.346869,-9.652414,0.94490594,1002.82605,5.750632995508994,1002.8420662625316,0,0
7.699999999999997,2.3564715,-9.647648,0.91650337,1002.83105,5.750495637373519,1002.8417364001656,0,0
7.72,2.3469546,-9.628583,0.95911705,1002.83386,5.750367287508576,1002.8414165787384,0,0
7.739999999999997,2.3374407,-9.619051,0.9259803,1002.8213,5.750217016374699,1002.8410615648421,0,0
7.76,2.356603,-9.642884,0.9496563,1002.83606,5.7501098529669,1002.8407298689295,0,0
7.7799999999999985,2.4283483,-9.62382,0.86444145,1002.8509,5.750022545148503,1002.8404733948931,0,0
7.8,2.3901556,-9.595222,0.8881177,1002.8512,5.749880771071442,1002.8402853902134,0,0
7.8199999999999985,2.4284399,-9.671488,0.85024655,1002.8663,5.749856943432124,1002.8402129218733,0,0
7.84,2.409363,-9.566625,0.8975946,1002.84125,5.749725867816148,1002.8401526223288,0,0
7.8599999999999985,2.4285283,-9.619058,0.9070675,1002.8509,5.749617222966516,1002.8401380322116,0,0
7.88,2.38555,-9.619059,0.8502583,1002.81323,5.749496768935575,1002.8400282714676,0,0
7.899999999999999,2.3951583,-9.623827,0.90707564,1002.8434,5.749391115946892,1002.8399434250972,0,0
7.92,2.3665223,-9.595229,0.9023451,1002.86096,5.749226316657432,1002.839944114514,0,0
7.939999999999999,2.3713505,-9.676261,0.8881464,1002.8534,5.749172473205527,1002.83999316487,0,0
7.96,2.3666136000000004,-9.642896,0.8408062,1002.8258,5.749138908932762,1002.8399854103714,0,0
7.979999999999999,2.3762188,-9.633364,0.9449673,1002.84357,5.749128371107648,1002.8399914630188,0,0
8.0,2.4001637,-9.609532000000002,0.9165651,1002.8183,5.749096771625397,1002.8399187218712,0,0
8.02,2.37631,-9.628599,0.8976316999999999,1002.83093,5.749069494189925,1002.8398220883947,0,0
8.04,2.4050345,-9.6715,0.95444876,1002.821,5.749157559192415,1002.8396689435364,0,0
8.059999999999999,2.4126215,-9.614252,0.8879864,1002.8386,5.749223333305348,1002.8395297765428,0,0
8.08,2.3695676,-9.614251,0.9400616,1002.8359,5.749257609864527,1002.8393937413921,0,0
8.1,2.355193,-9.619018,0.8879799999999999,1002.83606,5.7492564663446055,1002.8392615392636,0,0
8.12,2.3886182,-9.59995,0.8879769000000001,1002.88354,5.749202287569933,1002.8393041279217,0,0
8.139999999999999,2.350344,-9.6380825,0.9400521,1002.84863,5.749169069613807,1002.8393753323993,0,0
8.16,2.3598704,-9.652381,0.88323617,1002.84106,5.7491771213294625,1002.839444313479,0,0
8.18,2.3646123,-9.604714,0.91637355,1002.84576,5.749134347712082,1002.8395280016327,0,0
8.2,2.3980377,-9.60948,0.8737609000000001,1002.83057,5.749065064588945,1002.8395696996793,0,0
8.219999999999999,2.3358672,-9.609479,0.9400395,1002.8432,5.7489544004021065,1002.8396196131545,0,0
8.24,2.3740678,-9.609479,0.90216076,1002.8383,5.7488190895727325,1002.8396589660936,0,0
8.26,2.4313898,-9.590411,0.8358759,1002.84827,5.7486409538713845,1002.8397247380728,0,0
8.28,2.4839368,-9.609477,0.86427945,1002.8357,5.748495902045272,1002.8397683651366,0,0
8.299999999999999,2.4838989,-9.633308,0.8926825,1002.8408,5.748433557431865,1002.8398106278956,0,0
8.32,2.4695241,-9.595176,0.8879448,1002.87573,5.74835977090074,1002.839977281009,0,0
8.34,2.455149,-9.595175,0.99209845,1002.8305,5.748289194790857,1002.8400904174885,0,0
8.36,2.4407763,-9.647605,0.8832040999999999,1002.84784,5.748298234589647,1002.8402182833787,0,0
8.379999999999999,2.488539,-9.576106,0.8784664000000001,1002.8558,5.748257894524867,1002.8403873598593,0,0
8.4,2.4407053,-9.642837,0.92580724,1002.8608,5.7482921768083886,1002.8406102413416,0,0
8.42,2.4789104,-9.580873,0.8595225000000001,1002.8609,5.748275268380133,1002.8408802225508,0,0
8.44,2.4501963,-9.599936,0.8737225000000001,1002.8104,5.748239192887372,1002.8410090491465,0,0
8.459999999999999,2.483617,-9.585635,0.84057814,1002.8354,5.748168927863853,1002.8411026877492,0,0
8.48,2.4788039,-9.614235,0.8737159999999999,1002.8202,5.748129482602887,1002.8411101771424,0,0
8.5,2.4883304,-9.628533,0.88318175,1002.85297,5.748152736716435,1002.8411594901326,0,0
8.52,2.4261572,-9.552268,0.8831785,1002.8453,5.7480464149210775,1002.8412179689262,0,0
8.54,2.4643624,-9.614232,0.8973787,1002.8152,5.747972471132544,1002.8411759761003,0,0
8.559999999999999,2.441434,-9.666688,0.9448116,1002.83276,5.748030002283232,1002.8411085737253,0,0
8.58,2.5131360000000003,-9.585656,0.8832646999999999,1002.8935,5.748066349903697,1002.8412376261213,0,0
8.6,2.4796822,-9.604723,0.8264524,1002.838,5.748094473733313,1002.8413400013644,0,0
8.62,2.4796872000000003,-9.60949,0.90220326,1002.86304,5.748138453326683,1002.841508580124,0,0
8.639999999999999,2.4701326,-9.647622,0.8737973,1002.8428,5.748262564009745,1002.8416621854276,0,0
8.66,2.4988167000000003,-9.63809,0.8737978000000001,1002.85284,5.748452737935524,1002.8418381512066,0,0
8.68,2.489262,-9.566591,0.83592296,1002.8552,5.74854556439966,1002.8420417372245,0,0
8.7,2.4749277000000003,-9.585657,0.8974707000000001,1002.85535,5.748593972251697,1002.8422695355756,0,0
8.719999999999999,2.4558134,-9.590424,0.92587763,1002.8503,5.748608075438025,1002.8424997278712,0,0
8.74,2.479717,-9.614256,0.93534684,1002.8525,5.748653732775905,1002.8427391267627,0,0
8.76,2.5036216,-9.5999565,0.8832689,1002.8528,5.748701003782308,1002.8429868787672,0,0
8.78,2.4606078,-9.614257,0.8453940000000001,1002.8502,5.7487490890525565,1002.8432317596744,0,0
8.799999999999997,2.5131905,-9.628557,0.8453944999999999,1002.8202,5.748853645123153,1002.8433652221097,0,0
8.82,2.4749575,-9.595192,0.8311917999999999,1002.88275,5.7489184643292415,1002.8436249347174,0,0
8.84,2.4415038,-9.628557,0.84539545,1002.8728,5.749000203886798,1002.8439594470128,0,0
8.86,2.4558485,-9.623791,0.8548646999999999,1002.8551,5.749096036509616,1002.844295128068,0,0
8.879999999999997,2.498871,-9.623791,0.8785371999999999,1002.8576,5.749230459277662,1002.844639633387,0,0
8.9,2.479757,-9.642857,0.8974753000000001,1002.8803,5.749430311156996,1002.8450724156066,0,0
8.92,2.4415238,-9.609492,0.8359285,1002.845,5.749589601392336,1002.84545456128,0,0
8.94,2.4749877,-9.614258,0.883273,1002.8626,5.7497477025170936,1002.8458539487764,0,0
8.959999999999997,2.498891,-9.595193,0.878539,1002.8425,5.7498775077633395,1002.8461947733524,0,0
8.98,2.4654381,-9.628558,0.8690707000000001,1002.86487,5.750029686090021,1002.8465631567636,0,0
9.0,2.5036812000000004,-9.585659,0.8217271,1002.86755,5.7501265505671935,1002.8469642129816,0,0
9.02,2.5180256,-9.599958,0.873806,1002.86005,5.750219580334703,1002.8473656950888,0,0
9.04,2.4750125,-9.638091,0.84540004,1002.8245,5.750357854017925,1002.8476381281768,0,0
9.06,2.494168,-9.580894,0.8312002000000001,1002.8603,5.750428366297138,1002.8479244327916,0,0
9.08,2.503734,-9.609493,0.93535763,1002.817,5.750520246332292,1002.8480660835913,0,0
9.1,2.5132997,-9.633327,0.89748293,1002.8396,5.750676179282867,1002.8481607683373,0,0
9.12,2.5419848,-9.638093,0.8643427,1002.822,5.750906694200215,1002.8481502530124,0,0
9.14,2.5228722,-9.609494,0.8596088,1002.8346,5.751134088864517,1002.8480921807603,0,0
9.16,2.561117,-9.585661,0.8169998,1002.842,5.751323021595135,1002.848018936268,0,0
9.18,2.5898018,-9.59996,0.8170004,1002.83496,5.751521303325666,1002.8479072052639,0,0
9.2,2.5467894,-9.59996,0.8312042,1002.85205,5.7517065462417385,1002.8478233938097,0,0
9.22,2.5659149,-9.59996,0.84067345,1002.8245,5.751891444341878,1002.8476653737912,0,0
9.24,2.623279,-9.604729,0.80279887,1002.8421,5.752109422397852,1002.8475057119568,0,0
9.26,2.6280650000000003,-9.590428,0.8122683,1002.84955,5.752331477054843,1002.8473719941973,0,0
9.28,2.6232917,-9.509397,0.7507216,1002.837,5.752381760291599,1002.8472165020056,0,0
9.3,2.5946188,-9.576129,0.83594143,1002.8597,5.7524119380263325,1002.847124049698,0,0
9.32,2.551607,-9.566596,0.8075356,1002.8847,5.7523771646325255,1002.84717763226,0,0
9.34,2.5563927000000004,-9.64286,0.84067684,1002.8847,5.752446029528638,1002.8473600583355,0,0
9.36,2.6902335,-9.595197,0.7791302,1002.86444,5.752573556672519,1002.847582737806,0,0
9.38,2.6759005,-9.5093975,0.6844427,1002.84186,5.7525587288885935,1002.84775889553,0,0
9.4,2.8288608,-9.557063,0.7223185999999999,1002.8446,5.7526066426756906,1002.8479031764708,0,0
9.42,2.6950324,-9.609496,0.7270535,1002.85693,5.752738148928963,1002.8480631596753,0,0
9.44,2.6950388,-9.590429,0.75072616,1002.85455,5.752908633119265,1002.8482278734597,0,0
9.46,2.6329074,-9.614262,0.74125785,1002.8618,5.753124648833091,1002.8484222742147,0,0
9.48,2.5851157,-9.547532,0.8832905999999999,1002.8769,5.753244801049856,1002.8486965665352,0,0
9.5,2.5182045,-9.571364,0.7601967,1002.84436,5.753270590895081,1002.8489233195897,0,0
9.52,2.5707884,-9.59043,0.80280685,1002.85175,5.753286018057232,1002.8491338546384,0,0
9.54,2.637712,-9.566598,0.7412602,1002.85425,5.753271043146148,1002.8493383015306,0,0
9.56,2.6053302000000005,-9.59999,0.7318899,1002.83887,5.753276869944812,1002.849481264919,0,0
9.58,2.6244988,-9.61429,0.83605134,1002.859,5.753357070676204,1002.8496418548152,0,0
9.6,2.6149886,-9.56186,0.7839774,1002.85675,5.75338394278925,1002.8498093413704,0,0
9.62,2.6341572,-9.571395,0.8029195,1002.85675,5.7533962942878105,1002.8499823188617,0,0
9.64,2.653326,-9.604761,0.8029241,1002.85925,5.753472965975684,1002.8501685254248,0,0
9.66,2.6533754000000003,-9.547564,0.7792566,1002.87933,5.753488114545762,1002.8504380388524,0,0
9.68,2.6343026000000003,-9.585698,0.7603232,1002.85394,5.753511443184934,1002.8506887879773,0,0
9.7,2.6295722,-9.523733,0.8313439,1002.8366,5.753427360703072,1002.8508596302672,0,0
9.72,2.6105025,-9.566634,0.7840043000000001,1002.85144,5.75331591610342,1002.8510126758456,0,0
9.74,2.6392276000000003,-9.552336,0.82661825,1002.8438,5.753175060639932,1002.851121941286,0,0
9.76,2.663173,-9.542804,0.74613756,1002.84906,5.752989736188162,1002.85121106524,0,0
9.78,2.701461,-9.557104,0.7650796999999999,1002.8389,5.7528187654025364,1002.8512454953312,0,0
9.8,2.6728287,-9.523739,0.7508808000000001,1002.8165,5.7525761993220845,1002.8511508339765,0,0
9.82,2.6872175,-9.580939,0.8219013000000001,1002.8313,5.752405071627088,1002.8509957282013,0,0
9.84,2.6060133,-9.566642,0.7934996999999999,1002.8313,5.7522195284480055,1002.8507877721164,0,0
9.86,2.67776,-9.614307,0.76983225,1002.8615,5.752152762180143,1002.8506425861406,0,0
9.88,2.663467,-9.552344,0.7745709,1002.8464,5.752060310374894,1002.8504990265021,0,0
9.9,2.5488012,-9.542811,0.8455914000000001,1002.859,5.751875938850149,1002.8504027807104,0,0
9.92,2.5966487000000003,-9.56188,0.83139277,1002.86676,5.751672422506268,1002.8503766239177,0,0
9.94,2.644496,-9.561881,0.84560055,1002.83875,5.751481405504517,1002.85031165593,0,0
9.96,2.5919645,-9.576181,0.81246394,1002.83856,5.7512962385416175,1002.8502119442546,0,0
9.98,2.6493719,-9.595248,0.8077340999999999,1002.8589,5.75118557125188,1002.8501551160186,0,0
10.0,2.6016232999999995,-9.62385,0.8172074,1002.8366,5.751173817373633,1002.8500561041722,0,0
10.02,2.6351314,-9.628616,0.784071,1002.8717,5.751271744949375,1002.8500465353294,0,0
10.04,2.5395844,-9.628617,0.741466,1002.86145,5.751408096276545,1002.8500791327726,0,0
10.06,2.527994,-9.566604,0.7507488,1002.8486,5.75144895093279,1002.8501026109957,0,0
10.08,2.4849393,-9.585669,0.7649488,1002.86926,5.751423160144968,1002.8501923229538,0,0
10.1,2.561382,-9.5952015,0.7365392,1002.8639,5.75139353243396,1002.8503209400774,0,0
10.12,2.5374508,-9.5809,0.7223331000000001,1002.85583,5.7513170593083,1002.8504544187834,0,0
10.14,2.5613155,-9.628565,0.6986579,1002.85333,5.751304162593432,1002.8505827126606,0,0
10.16,2.4800267000000003,-9.595199,0.8454215,1002.8639,5.751261510381732,1002.8507440153647,0,0
10.18,2.4274125,-9.604731,0.7933397,1002.87646,5.751175939752902,1002.8509791199788,0,0
10.2,2.4751806,-9.599963,0.8028058000000001,1002.8408,5.751069241081791,1002.851150213584,0,0
10.22,2.4990454,-9.614262,0.7933338000000001,1002.8609,5.7509837497309295,1002.8513364911246,0,0
10.24,2.5276902000000003,-9.604729,0.7696586999999999,1002.886,5.750909353953482,1002.8516258745914,0,0
10.26,2.5372197999999995,-9.671459,0.77439034,1002.85333,5.750984549754863,1002.851887708674,0,0
10.28,2.4846034,-9.590426,0.7601836,1002.85364,5.7509993825658965,1002.8521253735183,0,0
10.3,2.4511106,-9.68099,0.7317741,1002.8816,5.751121022541709,1002.8524414828302,0,0
10.32,2.4415188,-9.595192,0.8122560000000001,1002.8659,5.751172330984901,1002.8527692476796,0,0
10.34,2.4510465,-9.695288,0.7980498,1002.8739,5.7513647844920825,1002.8531349314093,0,0
10.36,2.4701314,-9.633323,0.78857785,1002.8508,5.751565039436886,1002.8534496437995,0,0
10.38,2.4461958,-9.614255,0.81698096,1002.8433,5.751725676262661,1002.85369118495,0,0
10.4,2.5130808,-9.599955,0.72229,1002.8534,5.751841453501169,1002.8539035624448,0,0
10.42,2.4413495,-9.652387,0.74595886,1002.86847,5.7519889957130275,1002.854143658374,0,0
10.44,2.4460952,-9.633319,0.76489335,1002.82825,5.752131163137577,1002.8542625899672,0,0
10.46,2.4365015,-9.614251,0.8311719000000001,1002.8458,5.752235927653756,1002.854337212599,0,0
10.48,2.5033844,-9.628551,0.7838246,1002.8634,5.752362437877446,1002.8544357751912,0,0
10.5,2.4555542,-9.580886,0.7790873,1002.8506,5.7523865330370185,1002.8545090563067,0,0
10.52,2.3981626,-9.623783,0.7932874,1002.85583,5.752379416045238,1002.8545785628979,0,0
10.54,2.4937243,-9.595183,0.835894,1002.8406,5.752343411617438,1002.8545896560953,0,0
10.56,2.4659880000000003,-9.685771,0.79337054,1002.86096,5.7524422279226135,1002.8546223912826,0,0
10.58,2.4994519,-9.638104,0.7981054,1002.8785,5.752582201114388,1002.8547372754857,0,0
10.6,2.4803379,-9.642871,0.82651234,1002.8885,5.752762497248416,1002.8549603329756,0,0
10.62,2.5138013,-9.609506,0.7886375,1002.8483,5.7529219031369925,1002.8551334493746,0,0
10.64,2.3943112,-9.580907,0.79810685,1002.86566,5.752945103800997,1002.8553243106076,0,0
10.66,2.4038758,-9.60474,0.74602884,1002.8659,5.752892162678746,1002.8555310280748,0,0
10.68,2.5090363,-9.671472,0.8265142,1002.881,5.752973112177122,1002.8558053719277,0,0
10.7,2.4899223,-9.609507,0.7270920999999999,1002.8659,5.753021775936487,1002.8560841228168,0,0
10.72,2.523386,-9.571374,0.75549895,1002.8807,5.752987210901573,1002.8564190442604,0,0
10.74,2.55207,-9.61904,0.76970273,1002.88354,5.7529921871186485,1002.8568126162892,0,0
10.76,2.4947171000000004,-9.59044,0.8312504000000001,1002.8381,5.752954863532564,1002.8570930111148,0,0
10.78,2.4851623,-9.59044,0.7602346999999999,1002.8383,5.752863507803919,1002.8572731131424,0,0
10.8,2.5616443,-9.614273,0.8359856999999999,1002.87067,5.752825380669483,1002.8574804800868,0,0
10.82,2.5042915,-9.609508,0.7791733000000001,1002.85565,5.752785039615247,1002.8576571197908,0,0
10.84,2.5042968,-9.552309,0.8265179,1002.85065,5.75263619708233,1002.8577879730016,0,0
10.86,2.4708433,-9.604741,0.8075806999999999,1002.8682,5.752476482227348,1002.8579410781964,0,0
10.88,2.3943713,-9.628573,0.8407219000000001,1002.85565,5.7523224506606825,1002.8580681140643,0,0
10.9,2.4469543,-9.599974,0.8217848,1002.85785,5.752139856746713,1002.858179577747,0,0
10.92,2.5568948,-9.6190405,0.87386376,1002.8481,5.752037466563835,1002.8582417805768,0,0
10.94,2.5330002,-9.638106,0.76970726,1002.85315,5.752014043624786,1002.8582784125875,0,0
10.96,2.41351,-9.633341,0.8454581,1002.86066,5.7520021170106626,1002.8583193543468,0,0
10.98,2.399176,-9.5570755,0.90700585,1002.86816,5.7518513065346015,1002.8583909568097,0,0
11.0,2.370502,-9.619041,0.83125585,1002.8657,5.7516746974369575,1002.8584805373011,0,0
11.02,2.494782,-9.642874,0.70342743,1002.86066,5.751566418081981,1002.8585675366893,0,0
11.04,2.5712638,-9.652408,0.7886470999999999,1002.8581,5.7515914836613,1002.8586427262164,0,0
11.06,2.643564,-9.576158,0.7129519,1002.8428,5.7516091578531165,1002.8586521298683,0,0
11.08,2.700951,-9.571392,0.73189217,1002.8657,5.751645557499797,1002.8586858112677,0,0
11.1,2.7248793,-9.51896,0.7555669,1002.9083,5.751611075652144,1002.8588941832317,0,0
11.12,2.7679245,-9.528494,0.83131987,1002.85284,5.751570340703016,1002.859056505639,0,0
11.14,2.6150002,-9.580927,0.8739322,1002.8581,5.751550454364829,1002.859196490298,0,0
11.16,2.5003138,-9.566628,0.9402165,1002.88824,5.7514717602964724,1002.8594247373778,0,0
11.18,2.466883,-9.580928,0.88340616,1002.853,5.751341821436348,1002.8596032874427,0,0
11.2,2.333079,-9.681026,0.8692058000000001,1002.8682,5.751298579287398,1002.8597920024457,0,0
11.22,2.4048035,-9.585696,0.84553623,1002.8756,5.7511716375802635,1002.8600156598128,0,0
11.24,2.5338874,-9.623829,0.7319131999999999,1002.8732,5.7510955834269835,1002.8602607470875,0,0
11.26,2.5673752,-9.619063,0.7461191,1002.8657,5.751075191183333,1002.860496887514,0,0
11.28,2.562625,-9.63813,0.79820025,1002.87823,5.75114806452428,1002.8607693803996,0,0
11.3,2.5291936,-9.609532000000002,0.75559306,1002.8581,5.751221189305516,1002.8610005453439,0,0
11.32,2.4384062,-9.599998,0.8171430000000001,1002.853,5.7512381618574535,1002.8611760007255,0,0
11.34,2.495793,-9.609533,0.80294245,1002.893,5.751251761065621,1002.861445599498,0,0
11.36,2.5531762,-9.628599,0.7366630999999999,1002.8908,5.751320099864434,1002.8617894928152,0,0
11.38,2.5675447,-9.600001,0.7840098000000001,1002.8477,5.751394451170577,1002.8620426347763,0,0
11.4,2.5675757000000003,-9.6286,0.80295026,1002.86053,5.7515342406479455,1002.8622608655278,0,0
11.42,2.596282,-9.57617,0.840828,1002.8807,5.7516483954060496,1002.862520075104,0,0
11.44,2.581972,-9.566638,0.8455651,1002.8453,5.751713528341342,1002.8626871204148,0,0
11.46,2.5772195,-9.619071,0.7698172,1002.8578,5.751824689735372,1002.8628171280184,0,0
11.48,2.5963676,-9.580938,0.8361014999999999,1002.8578,5.75192125344037,1002.8629139410756,0,0
11.5,2.6059563,-9.585706,0.8408385,1002.8576,5.752020131588253,1002.8629803549054,0,0
11.52,2.5964262,-9.571406,0.802966,1002.8603,5.752080444085117,1002.8630293888876,0,0
11.54,2.5582168,-9.628606,0.7556246,1002.86273,5.752192713313786,1002.8630716375144,0,0
11.56,2.567018,-9.590455,0.788696,1002.86005,5.7522841197560455,1002.8630980905057,0,0
11.58,2.5239973,-9.571389,0.81236786,1002.8752,5.752299662528948,1002.8631650312433,0,0
11.6,2.5861318,-9.638121,0.75082034,1002.86505,5.752404809653301,1002.8632309659663,0,0
11.62,2.6817257000000003,-9.547556,0.77449214,1002.8676,5.7524639825080595,1002.8633049544104,0,0
11.64,2.719962,-9.49989,0.81236714,1002.8801,5.752415213993032,1002.8634307927637,0,0
11.66,2.7629774,-9.538023,0.7366164000000001,1002.8501,5.752359569324873,1002.8634939926784,0,0
11.68,2.753415,-9.557089,0.6561313,1002.8372,5.75231883103427,1002.8634551777496,0,0
11.7,2.6817157000000003,-9.590455,0.7460848000000001,1002.89545,5.7523305052190805,1002.8635360622383,0,0
11.72,2.6243556,-9.590455,0.7650222,1002.87006,5.752359733926747,1002.8636310179487,0,0
11.74,2.5813348,-9.5427885,0.765022,1002.85,5.752285648941168,1002.8636658491499,0,0
11.76,2.63869,-9.580921,0.76975614,1002.8526,5.7522288311893846,1002.8636567889424,0,0
11.78,2.629128,-9.5427885,0.7744903000000001,1002.8625,5.752106796538593,1002.8636446189026,0,0
11.8,2.681703,-9.533256,0.7176772,1002.87256,5.751928894354206,1002.8636659608277,0,0
11.82,2.5574257,-9.609521,0.7460834,1002.8653,5.751791082927016,1002.8636907010933,0,0
11.84,2.6530197,-9.671486,0.755552,1002.8625,5.751866335846023,1002.8637082750683,0,0
11.86,2.504843,-9.495123,0.769755,1002.8879,5.751699122191075,1002.8638108936424,0,0
11.88,2.6482346000000003,-9.580921,0.7555515,1002.9002,5.7515651294884576,1002.8640325681972,0,0
11.9,2.5335166,-9.6047535,0.8549738000000001,1002.90497,5.751463362891136,1002.8643758145884,0,0
11.92,2.672129,-9.557088,0.7744886999999999,1002.8749,5.751356748458796,1002.864716994167,0,0
11.94,2.5956495,-9.5952215,0.77922285,1002.8952,5.751281162157802,1002.8651281992636,0,0
11.96,2.8824353,-9.490356,0.30578217,1002.88214,5.751134630057787,1002.8655527825696,0,0
11.98,2.6864607000000005,-9.576155,0.84550405,1002.87726,5.7510476807417765,1002.8659700903619,0,0
12.0,2.7342563,-9.528489,0.7366125,1002.8673,5.750927741532418,1002.8663436112016,0,0
12.02,2.6004193,-9.533255,0.80289394,1002.87463,5.750724534288452,1002.8667034852153,0,0
12.04,2.7342513,-9.642885,0.78869057,1002.8471,5.750739268047122,1002.8669508973468,0,0
12.06,2.5909803,-9.552325,0.7887018,1002.8748,5.750686361000482,1002.867197767476,0,0
12.08,2.500167,-9.571391,0.6561387,1002.8748,5.750543578195067,1002.8674432699593,0,0
12.1,2.6818018,-9.552325,0.82657754,1002.8877,5.750408643833313,1002.8677331201816,0,0
12.12,2.4953918,-9.59999,0.7602960999999999,1002.8623,5.75026469740502,1002.8679696726053,0,0
12.14,2.6148894,-9.580924,0.8549844000000001,1002.85724,5.750154832273859,1002.8681400635054,0,0
12.16,2.4953966,-9.571391,0.7271557,1002.86475,5.7499714327510585,1002.8682784166763,0,0
12.18,2.5049589,-9.609524,0.8739225,1002.8598,5.749829718524822,1002.868370143238,0,0
12.2,2.5049615000000003,-9.619057000000002,0.9023291,1002.8622,5.749749703515249,1002.8684289803122,0,0
12.22,2.495404,-9.614289,0.921267,1002.8598,5.749713562248818,1002.8684499044217,0,0
12.24,2.385471,-9.59999,0.8407823,1002.8572,5.749616783199196,1002.8684278933093,0,0
12.26,2.5336475,-9.552325,0.86918896,1002.8723,5.749452591950897,1002.8684223838742,0,0
12.28,2.4380543,-9.676255,0.91179883,1002.86475,5.749436180372585,1002.8684042951552,0,0
12.3,2.457176,-9.666722,0.864455,1002.84186,5.749532260115304,1002.8682927525008,0,0
12.32,2.5288754,-9.642889,0.8549863999999999,1002.87195,5.749715036082407,1002.8682073595024,0,0
12.34,2.5001988,-9.566625,0.8502523000000001,1002.86224,5.749805095451832,1002.8681104237547,0,0
12.36,2.414165,-9.62859,1.0443631,1002.8698,5.749931353698665,1002.8680308538028,0,0
12.38,2.4524060000000003,-9.542792,0.94967526,1002.87195,5.749916887801343,1002.8679746547192,0,0
12.4,2.4332893,-9.533259,0.9828163,1002.8567,5.749755944054152,1002.867884408452,0,0
12.42,2.4428515,-9.604757,0.96861327,1002.8494,5.749611439523956,1002.8677381229801,0,0
12.44,2.423735,-9.576159,0.98281676,1002.86957,5.749417817624957,1002.8676154598944,0,0
12.46,2.4141774,-9.619058,1.0017545,1002.8367,5.749266617153543,1002.867395779136,0,0
12.48,2.466758,-9.666723,1.0490988,1002.86426,5.749285742430272,1002.867190380413,0,0
12.5,2.5384576,-9.62859,0.9686142,1002.86224,5.7493993527872265,1002.866991068732,0,0
12.52,2.5384598,-9.547559,0.99228644,1002.86194,5.749438861941378,1002.8667967730831,0,0
12.54,2.5145633,-9.661956,0.9591459,1002.87976,5.749622287845291,1002.8666717610647,0,0
12.56,2.5052574,-9.571398,1.015982,1002.86475,5.749757811092638,1002.8665543821054,0,0
12.58,2.557848,-9.542799,1.0349207,1002.86694,5.749825266693929,1002.8664520542816,0,0
12.6,2.443146,-9.566632,1.153282,1002.85175,5.749847060638539,1002.8663087100208,0,0
12.62,2.4574966000000003,-9.528501,1.1485486,1002.8368,5.749758405204549,1002.8660758196761,0,0
12.64,2.5148668,-9.5428,1.1485498,1002.8392,5.749630922421787,1002.8657732848164,0,0
12.66,2.409724,-9.561867,1.0633317,1002.8671,5.749433785362638,1002.8655107411888,0,0
12.68,2.4862134,-9.576167,1.0775361,1002.86426,5.749246791468552,1002.8652742549716,0,0
12.7,2.6439612,-9.614299,1.1106782,1002.87225,5.749237245528025,1002.865090408432,0,0
12.72,2.5913937,-9.628598,1.0491319,1002.86194,5.749370747650478,1002.8649166201593,0,0
12.74,2.620086,-9.566635,1.0491332,1002.8695,5.749522103647657,1002.8647795610092,0,0
12.76,2.6822362,-9.619067,0.963915,1002.8567,5.74980960970712,1002.864629369124,0,0
12.78,2.6009908,-9.633367,1.0586041000000002,1002.877,5.750220275625613,1002.864541193846,0,0
12.8,2.557985,-9.566636,1.0254644,1002.85693,5.750574821029312,1002.8644358818719,0,0
12.82,2.5532188,-9.600001,1.1390914,1002.88184,5.750968192714105,1002.8644054830372,0,0
12.84,2.4480758,-9.53327,1.0870141000000002,1002.86694,5.751194082841347,1002.8643877468879,0,0
12.86,2.3955097000000003,-9.557103,1.1012185,1002.86176,5.7512954492795405,1002.8643626153377,0,0
12.88,2.4576592,-9.609536,1.0207347,1002.8695,5.7514051385775815,1002.8643589036844,0,0
12.9,2.405097,-9.585703,0.97339207,1002.86676,5.751437457018237,1002.8643642680147,0,0
12.92,2.5150428,-9.576171,1.0586122,1002.8845,5.7514568367356205,1002.8644414965718,0,0
12.94,2.5771923,-9.59047,0.997066,1002.8593,5.7515130868083775,1002.8644912263372,0,0
12.96,2.6345625,-9.647669,0.9213168,1002.8567,5.751731885824375,1002.864507119143,0,0
12.98,2.476841,-9.490374,1.0491469,1002.8819,5.751721358406165,1002.8645837763974,0,0
13.0,2.424276,-9.533273,1.0207416,1002.87683,5.7515608109472645,1002.8646955971524,0,0
13.02,2.3573704,-9.690569,1.0444146,1002.86176,5.751555552383317,1002.8647838338215,0,0
13.04,2.3860612,-9.700103,1.1296351,1002.87683,5.75173992443647,1002.864905165941,0,0
13.06,2.1516128,-9.585699,1.39474,1002.8542,5.7518205570794,1002.8649738364039,0,0
13.08,2.328468,-9.533267,1.3663336,1002.8692,5.751778992355963,1002.8650497278144,0,0
13.1,2.3045714,-9.504669,1.3095211000000002,1002.8566,5.751544766567992,1002.8650863664442,0,0
13.12,2.4192894,-9.442703,1.4752253999999998,1002.8742,5.751123158798221,1002.8651515494183,0,0
13.14,2.4957688,-9.542801,1.3900064,1002.8615,5.7507506029972975,1002.8651959995165,0,0
13.16,2.3380377,-9.542801,1.4941635,1002.8668,5.7503744715030765,1002.8652410500247,0,0
13.18,2.318921,-9.504669,1.4562885,1002.8567,5.7498993587717,1002.8652501088741,0,0
13.2,2.3619418,-9.504669,1.470492,1002.8668,5.749364005958926,1002.8652636928813,0,0
13.22,2.3284857000000003,-9.5285015,1.3805386,1002.8843,5.748781572845265,1002.8653442264152,0,0
13.24,2.3954053,-9.466536,1.2385066,1002.8765,5.748029878662836,1002.8654555466313,0,0
13.26,2.2567935,-9.542801,1.3473982,1002.8918,5.747245721572042,1002.8656487492059,1,1
13.28,2.2376769,-9.466536,1.167491,1002.869,5.746225896974753,1002.8658315275039,1,1
13.3,2.4862292,-9.595234,0.91183335,1002.8817,5.745327281106525,1002.8660501569092,1,1
13.32,2.4671123,-9.638132,0.9781152,1002.8742,5.7446281412763085,1002.8662726772864,1,1
13.34,2.6344082,-9.471303,1.2148356000000002,1002.8768,5.7439181860689255,1002.8665071946537,1,1
13.36,2.6726490000000003,-9.547567,1.2101016000000002,1002.8716,5.743372774670446,1002.8667327482983,1,1
13.38,2.5005784,-9.347372,1.2053673,1002.8565,5.742481477928628,1002.8668952096052,1,1
13.4,2.1659946,-9.561868,1.0633354,1002.8191,5.741517985530912,1002.8668666976614,1,1
13.42,2.4623451000000003,-9.380738,1.4799632,1002.8062,5.7403885314088,1002.8666231043962,1,1
13.44,3.2462354,-9.762064,1.2479777,1002.8215,5.740264400227928,1002.8662454222113,1,1
13.46,3.6429615,-9.661965,1.8161064,1002.82385,5.741281215490212,1002.8657590787128,1,1
13.48,3.5521479,-9.43317,1.4515575,1002.84894,5.742677660026508,1002.865268796914,1,1
13.5,3.121968,-10.381716,2.1096401,1002.8588,5.746193134028879,1002.8648122962476,1,1
13.52,2.0799737,-10.286386,1.498902,1002.8866,5.7506470266621585,1002.8644873679924,1,1
13.54,2.4002225,-9.409338,1.2148378999999998,1002.9017,5.754220692193012,1002.8643342268613,1,1
13.56,2.4814503,-8.784919,0.9970527,1002.9141,5.755749585021938,1002.8643780681411,1,1
13.58,1.931774,-8.684821000000001,0.38631463,1002.9393,5.754889454144544,1002.8646865252507,1,1
13.6,2.1134079,-9.30924,0.8171456,1002.93427,5.753325640987789,1002.8652095784618,1,1
13.62,2.5913894,-9.771596,0.5188782000000001,1002.9343,5.752271475743201,1002.8659204737967,1,1
13.64,4.0062127,-10.176753,0.017031422,1002.934,5.753363810081023,1002.8667937072087,1,1
13.66,7.02227,-10.110021,-0.4469401,1002.9493,5.759218646339897,1002.8678623189056,1,1
13.68,6.792841,-11.406525,-2.6247663,1002.9594,5.771786513485735,1002.8691360798532,1,1
13.7,3.8341434,-9.719163,-2.7715325,1002.94183,5.784580066305335,1002.870523273139,1,1
13.72,3.3466050000000003,-10.362649,-0.8304266,1002.8791,5.797759369002033,1002.871779873343,1,1
13.74,0.97582334,-12.331236,4.8082495000000005,1002.88916,5.81611681807797,1002.8729527737394,1,1
13.76,0.46916533,-15.605862,1.6361985,1003.0121,5.8440279795364205,1002.8744900785437,1,1
13.78,8.19811,-11.230164,-3.3633327000000004,1003.072,5.877384497447221,1002.8765594767864,1,1
13.8,5.172495,-11.096699,-0.27650076,1003.0271,5.911152851486813,1002.8789299429567,1,1
13.82,2.6965578,-7.9555383,1.5225731000000002,1002.98914,5.937454224739419,1002.8814212430707,1,1
13.84,0.77985764,-7.049892,-0.3096414,1003.0422,5.95407562876894,1002.8842013593762,1,1
13.86,-0.8165955,-6.5303373,-0.41853255,1003.0748,5.9610340199064185,1002.88734402525,1,1
13.88,-0.07094494,-6.0060163,-0.7168,1003.01184,5.958295456703303,1002.8905690703253,1,1
13.9,1.0714294,-6.353975,-2.3264976,1002.9566,5.9486649326273024,1002.8936564315004,1,1
13.92,5.0625668,-7.5027156,-5.309172,1002.939,5.9405499525732335,1002.8965476606813,1,1
13.94,10.110041,-8.74202,-7.5059357,1002.9945,5.94385407896997,1002.8994549792073,1,1
13.96,11.759074,-7.445517,-7.1319175,1003.0196,5.957880613407217,1002.9024564079317,1,1
13.98,2.8590813,-10.948936,1.0491337,1002.9516,5.972446975131928,1002.9052853872838,1,1
14.0,1.7788468999999998,-18.38953,-3.3443940000000003,1002.51495,6.002841406254553,1002.9063798660452,1,1
14.02,4.6849690000000015,-8.32733,4.737235,1002.59784,6.030253754846221,1002.906236203961,1,1
14.04,-2.3891397,-8.665755,0.38631725,1002.6028,6.051467060167033,1002.9050168938091,1,1
14.06,1.6306764,-6.539871,2.0670311000000003,1002.6176,6.063078877770897,1002.9029048105414,1,1
14.08,5.0338980000000015,-9.113812,3.070725,1002.7336,6.074073692084508,1002.9004290764476,1,1
14.1,1.1096803,-9.795429,-1.4790378999999998,1002.8237,6.082641014057195,1002.8979652931276,1,1
14.12,3.82939,-8.722954,1.6740758000000002,1002.8384,6.088417444346014,1002.8955738591304,1,1
14.14,3.447007,-9.523735,-0.8588305,1002.83356,6.092730112159259,1002.8932375381579,1,1
14.16,3.174559,-8.880251,1.2905893,1002.83386,6.094390838118763,1002.8909594058093,1,1
14.18,2.9881482000000004,-9.261576,0.9923219,1002.81335,6.094250272305975,1002.8886670542047,1,1
14.2,3.088525,-10.195821,1.2953238,1002.8315,6.094492403037107,1002.886435730932,1,1
14.22,4.269138,-9.862162,-0.86356455,1002.8614,6.095174408096334,1002.8843740050568,1,1
14.24,6.5103839999999975,-9.409327,0.992278,1002.8463,6.097705517345487,1002.8824151976552,1,1
14.26,4.7370634,-10.176742,0.7697596999999999,1002.8766,6.1013762654938795,1002.880663460724,1,1
14.28,6.395642,-10.810694,-2.3880894,1002.8916,6.109229702803263,1002.8791549975126,1,1
14.3,5.9845667,-10.110009,-1.5122256,1002.86127,6.118796031289492,1002.877757733428,1,1
14.32,1.878702,-9.495123,-0.85414463,1002.91364,6.125417188939452,1002.8766522870427,1,1
14.34,1.7974323,-14.147282999999998,2.9286435,1002.92676,6.139475659367862,1002.8758559023833,1,1
14.36,5.6881795,-12.936577,1.1532406000000002,1003.0043,6.159265840804356,1002.8756146156494,1,1
14.38,7.131668,-12.8603115,-2.5585337000000004,1003.0316,6.185602817505374,1002.875962962075,1,1
14.4,3.8527093,-10.677229,-0.53694427,1003.0746,6.210225118417454,1002.8769858543131,1,1
14.42,1.9598955,-6.3682604000000005,0.9685954,1003.04456,6.223618977184049,1002.8784929488196,1,1
14.44,-0.047636874,-5.8439393,-0.42332095,1003.0092,6.225227390335259,1002.8802951629094,1,1
14.46,-1.6297642,-5.8868375,-0.8115433000000001,1002.9738,6.217045131720452,1002.8822242166929,1,1
14.48,-1.0418615,-5.7819730000000025,-1.0672023000000002,1002.9465,6.199844897541213,1002.8841601214357,1,1
14.5,1.6156963,-6.759117,-2.7384484,1002.90643,6.177852644539888,1002.8859508584294,1,1
14.52,8.05408,-8.703872,-7.0893674,1002.8936,6.1648962526372015,1002.8875606905467,1,1
14.54,13.8328495,-8.794436,-2.4875271,1002.9061,6.165714064021543,1002.8890498797194,1,1
14.56,6.4767145999999975,-10.2768345,-2.2508085,1002.8739,6.1699179215703985,1002.8903111877057,1,1
14.58,0.7313810000000001,-14.295042,-0.93464494,1002.6429,6.181234651165497,1002.8905349991664,1,1
14.6,8.97653,-12.269256,-5.6974573,1002.6253,6.202725388319656,1002.8897779129761,1,1
14.62,-0.51139426,-8.13665,2.204263,1002.58014,6.216938299328071,1002.8879942551317,1,1
14.64,-5.3724666,-8.742002000000001,-1.2755256,1002.65295,6.228606870890956,1002.885572055742,1,1
14.66,8.097008,-9.089961,5.447328,1002.68304,6.244213636907421,1002.8827026849603,1,1
14.68,1.6729351000000003,-10.643858,-2.4449263,1002.8534,6.2584883635160935,1002.880061819272,1,1
14.7,3.6374238,-9.266323,2.1758518,1002.8508,6.2697498413345185,1002.8776230078005,1,1
14.72,3.637409200000001,-9.1566925,-0.20082064,1002.85614,6.277612096371131,1002.875390735156,1,1
14.74,3.5235846,-8.832587,1.2337855,1002.85333,6.281890528040179,1002.8733388804008,1,1
14.76,2.6536841,-8.722958,1.120162,1002.80817,6.2821493622528575,1002.8712912535697,1,1
14.78,1.5830239,-9.309245,1.3568836000000002,1002.80304,6.279590580150992,1002.8692362659888,1,1
14.8,3.270323,-9.866932,0.63725674,1002.83356,6.27636881143537,1002.8672920444047,1,1
14.82,5.932695400000001,-9.909832000000002,-0.23860615,1002.9089,6.274938398239777,1002.8657239188533,1,1
14.84,5.502536,-10.686781,-0.8682799000000001,1002.90607,6.2761333179340575,1002.864483569008,1,1
14.86,6.4155016,-10.295923,0.48576197,1002.8584,6.27982938759672,1002.8633656950364,1,1
14.88,5.947103500000001,-10.05283,-2.3643475,1002.8682,6.2852571021342944,1002.862395345093,1,1
14.9,2.5534651000000004,-9.785903,-1.9524523,1002.871,6.288834873769952,1002.8615689206406,1,1
14.92,1.7265822,-12.193015,1.0823032,1002.9089,6.295050577058673,1002.8610090838803,1,1
14.94,0.57466936,-13.98524,3.1228335,1002.9139,6.307688160824344,1002.8607048194168,1,1
14.96,10.884731,-11.025209,-4.26757,1002.99445,6.329547910930661,1002.8609174539869,1,1
14.98,6.2244434,-12.178718,-0.5557948,1003.0616,6.354527731217304,1002.8618277950586,1,1
15.0,1.6836523999999995,-8.870727,0.97341996,1003.09424,6.372598959307588,1002.8634688563676,1,1
15.02,0.6464506,-6.2777205,-0.39482152,1003.05945,6.378767979450755,1002.865624430257,1,1
15.04,-0.13740732,-5.724801,-0.6694143,1002.9964,6.373238610931064,1002.8679998873966,1,1
15.06,-1.1889412,-5.2386127,-0.63153696,1002.94147,6.356651251859543,1002.8703633337308,1,1
15.08,-0.624903,-6.5303497,-1.6589006999999998,1002.8985,6.333174991660669,1002.8725529669103,1,1
15.1,4.934025,-8.084247999999999,-4.3291035,1002.8157,6.311275973845451,1002.8742830561067,1,1
15.12,14.646614,-10.067137,-6.8904137999999975,1002.8862,6.3088244046259145,1002.8758546639187,1,1
15.14,9.928972,-8.265378,-4.603694,1002.9088,6.312452047439817,1002.8773619397915,1,1
15.16,0.880825,-13.422793,-0.12494543,1002.71783,6.320892566835831,1002.8781194537693,1,1
15.18,5.9092015999999985,-11.26831,-6.5258584000000015,1002.5724,6.335316683571312,1002.8776882030864,1,1
15.2,1.9706659,-6.3873568,5.205998,1002.54974,6.342864577492348,1002.876126536452,1,1
15.22,-2.3932722,-9.266358,-1.6730895,1002.55225,6.346893024655914,1002.8735806922824,1,1
15.24,5.2056513,-8.665747999999999,3.6624963,1002.7077,6.3499515869944885,1002.870734013882,1,1
15.26,2.3234143,-10.057582,0.60880387,1002.8381,6.3512864227270125,1002.8681012063976,1,1
15.28,2.853953,-9.2568,1.9817793,1002.9487,6.350151844723679,1002.8660650133612,1,1
15.3,3.8194568,-8.837342,1.3710397,1002.84326,6.346500854900374,1002.8641837351461,1,1
15.32,3.3319056,-8.837342,1.1106464,1002.8458,6.340192906447479,1002.8624552562687,1,1
15.34,2.3902667,-9.652424,1.6503669,1002.8659,6.332745392709558,1002.86094037341,1,1
15.36,2.2181742,-9.175767,1.2005968,1002.8612,6.323145758102129,1002.859602757572,1,1
15.38,3.4131088,-9.113802,0.12115092,1002.8609,6.3121292254948695,1002.8584255102902,1,1
15.4,4.5076675,-10.353106,0.43362015,1002.8885,6.303158319376447,1002.8574935627548,1,1
15.42,4.263884,-9.857383,-0.38069865,1002.8885,6.294877054121447,1002.8567817170868,1,1
15.44,4.985615,-9.437925,1.0159489,1002.8684,6.2871835895132335,1002.8561945560726,1,1
15.46,5.2102494,-10.519934,-1.2660357,1002.8508,6.282293343204924,1002.8556563201993,1,1
15.48,4.235153,-11.053788,-1.9951353,1002.90356,6.280306542893008,1002.8553531882283,1,1
15.5,2.2897608,-8.5370455,-2.3123417,1002.94366,6.274931242802178,1002.8554032453417,1,1
15.52,2.9302351000000004,-12.645817999999998,2.6587818,1002.93585,6.275132236835293,1002.8557370841232,1,1
15.54,3.2456896,-13.870821,0.43834454,1002.93646,6.282342082003401,1002.856322666568,1,1
15.56,8.618172999999999,-11.163417,-2.1087668,1002.9788,6.2957346918552375,1002.8572810056166,1,1
15.58,5.0094,-10.791626,0.4336067,1003.0416,6.3096489059233125,1002.8587913423796,1,1
15.6,3.4511730000000003,-7.750561,0.4620121,1003.0261,6.316888992033662,1002.860728187111,1,1
15.62,2.0315557,-6.7686509999999975,0.2394937,1003.07666,6.315242354416497,1002.863216937642,1,1
15.64,-0.24364942,-6.8782809999999985,-0.7357953,1003.06903,6.305439233210514,1002.8661569246357,1,1
15.66,-0.5830340999999999,-6.344426,-0.75946915,1002.9538,6.287413571555993,1002.8690702122144,1,1
15.68,0.47806486,-7.845891,-2.354965,1002.88074,6.2659064958274655,1002.8716864043553,1,1
15.7,3.8430343,-9.051829,-5.4986105000000025,1002.76807,6.247763041965027,1002.8736250526747,1,1
15.72,12.23635,-8.851633999999997,-4.5233254,1002.85565,6.242006801571728,1002.8752733321409,1,1
15.74,12.461847,-7.149994,-3.1408017000000004,1002.8856,6.245016499321427,1002.8767669278807,1,1
15.76,7.9353848,-9.833566,0.021781676,1002.8079,6.251457351097421,1002.8778387481366,1,1
15.78,3.318112,-18.542067000000007,-7.846797,1002.6199,6.2770555774945045,1002.8778572290213,1,1
15.8,3.8200102,-7.5265527,3.2553835,1002.65515,6.295879548227355,1002.8770718127063,1,1
15.82,-4.8792157,-8.041341000000001,-0.13918321,1002.6421,6.309399063333816,1002.875531920325,1,1
15.84,3.6527512,-8.670527,3.0660102000000005,1002.6674,6.319198494224813,1002.8734219965036,1,1
15.86,3.8296263,-9.557107,0.07860307,1002.64764,6.326508283048715,1002.8707448526276,1,1
15.88,1.2007465,-9.523742,0.25377715,1002.79987,6.330150187903116,1002.868124178829,1,1
15.9,2.9406128,-9.461778,1.6172874,1002.83777,6.331445981453923,1002.8656992764168,1,1
15.92,3.5285497,-9.3140135,0.959207,1002.82825,6.3305949808053485,1002.8634218152506,1,1
15.94,3.1461778,-9.452245,1.4231798999999998,1002.8258,6.3279689475051235,1002.8612740120293,1,1
15.96,2.0611844,-8.994655999999997,1.4089787,1002.84546,6.322269807697463,1002.8593192826593,1,1
15.98,1.7170563,-9.185319,1.5368091999999998,1002.88354,6.31415681952682,1002.8576792783704,1,1
16.0,2.3288900000000003,-9.576177,1.4042475,1002.85034,6.304947961492107,1002.8562037491788,1,1
16.02,2.9741805,-9.700109,1.4042491,1002.89594,6.295401937125081,1002.8550430220876,1,1
16.04,3.2657628,-9.681042,1.0444357,1002.9007,6.285649996665661,1002.8541817687508,1,1
16.06,2.7686841,-9.600011,0.6325444,1002.90076,6.2752129184125325,1002.8535884469349,1,1
16.08,3.648186,-9.180553,1.6409741999999998,1002.90857,6.264214115859341,1002.8532621213693,1,1
16.099999999999998,4.331710299999999,-10.419859,1.9676492,1002.8881,6.255752429030579,1002.8530991964624,1,1
16.12,5.0869403,-11.063345,0.7935188,1002.9084,6.251117668865546,1002.8531543189073,1,1
16.14,3.1511376,-11.072878,-2.1702168,1002.9913,6.248868154521282,1002.8537003495517,1,1
16.16,2.491542,-9.604779,-2.5726397,1003.0512,6.245690358355075,1002.8548938209708,1,1
16.18,1.0145994,-8.613336,-0.8871901,1003.00397,6.238518299222361,1002.8564850465613,1,1
16.2,1.8702022,-10.729688,0.6325555,1002.93317,6.2323980193108,1002.8581671193252,1,1
16.22,1.7459416,-12.517147,-0.21016727,1002.89307,6.230825405975523,1002.85977904919,1,1
16.24,4.168749299999999,-11.811683,-2.9656415000000003,1002.9131,6.233758901401693,1002.8613953058414,1,1
16.259999999999998,3.4326558,-10.65341,-1.4695698999999998,1002.9533,6.237372819021847,1002.8631542871176,1,1
16.28,1.5446271,-8.241532000000001,-0.4658766,1002.8559,6.235566370451839,1002.8646824075394,1,1
16.3,0.41658843,-7.569447,-1.1002873,1002.86066,6.2274438572927275,1002.8660181740773,1,1
16.32,-0.16655277,-7.812541499999999,-1.5453218,1002.8204,6.214404297317532,1002.8670342319632,1,1
16.34,-0.5728411,-10.977535,-3.6426637,1002.8153,6.204579894705554,1002.867745777476,1,1
16.36,14.564793,-10.415081,-23.85384,1003.02106,6.235555526257269,1002.8689264302924,1,1
16.38,-2.5899284,-7.7505755,5.087578,1002.9057,6.260485153730527,1002.8701020399719,1,1
16.4,-1.987678,-12.345537,-5.0913925,1002.71515,6.288037175998756,1002.8705829813408,1,1
16.419999999999998,7.433310499999997,-8.613322,-2.2838912,1002.76263,6.31386427587811,1002.8706193104016,1,1
16.44,4.2738566,-6.616134599999999,1.8018997,1002.7601,6.330749094093897,1002.870253541242,1,1
16.46,3.3083298,-9.4141035,-1.2849327,1002.8029,6.343788983219062,1002.8696878748643,1,1
16.48,2.4527400000000004,-9.947957,-3.1029446,1002.84796,6.354724189430527,1002.8691098317032,1,1
16.5,2.7012842,-9.118576,0.48573363,1002.86285,6.3613020347843126,1002.8685765373724,1,1
16.52,2.4192722,-9.080444,1.0917370000000002,1002.8252,6.36387661065675,1002.8679491629667,1,1
16.54,2.9546041,-9.614298,-0.66472757,1002.8102,6.364192423694029,1002.8671869179557,1,1
16.56,3.1027734,-9.919358,-0.8351666,1002.8356,6.363232101222483,1002.8663996853587,1,1
16.58,2.906796,-9.852627,-0.15341279,1002.85754,6.360829241827773,1002.8656721917688,1,1
16.599999999999998,2.639122,-9.723929,0.21587029,1002.8431,6.3567538481145345,1002.8649481185428,1,1
16.62,2.2710724,-9.857391,-0.07766321,1002.823,6.3512940737241514,1002.8641573142132,1,1
16.64,2.3618839,-9.609531,0.13065016,1002.82513,6.3441744309415755,1002.8633180611763,1,1
16.66,2.0750900000000003,-9.647663,0.43365154,1002.8484,6.335575163168715,1002.8625227921733,1,1
16.68,2.1420026,-9.843092,0.10224276,1002.85034,6.3261071554405035,1002.8617762344296,1,1
16.7,2.1897955,-9.795426,0.20166482,1002.85785,6.315833396590644,1002.8611024415636,1,1
16.72,2.4861386000000003,-9.785893,0.20639879,1002.86505,6.305008611418213,1002.8605212893981,1,1
16.74,2.443843,-9.595248,0.36270028,1002.8556,6.293339636270522,1002.8599900667024,1,1
16.759999999999998,2.51557,-9.619082,0.17806125,1002.84503,6.281041478420203,1002.8594668220883,1,1
16.78,2.6446474,-9.642916,0.18279774,1002.85034,6.268349079436232,1002.8589716265877,1,1
16.8,2.649453,-9.661983,0.18280007,1002.8757,6.255394875435405,1002.8585942939876,0,0
16.82,2.6733747,-9.633384,0.34850627,1002.85535,6.242221051730919,1002.8582492034436,0,0
16.84,2.6064796,-9.642918,0.18280423,1002.84247,6.228873834474906,1002.857887476307,0,0
16.86,2.7881362000000003,-9.6619835,0.201744,1002.8531,6.215561960954082,1002.8575506192944,0,0
16.88,3.0462713,-9.609553,0.19701195,1002.87067,6.202380193920165,1002.8573002022084,0,0
16.9,2.945918,-9.552355,0.116529144,1002.82745,6.1891825370529405,1002.8569714729433,0,0
16.919999999999998,3.1036742000000004,-9.418891,0.18281288,1002.8199,6.175855777642234,1002.856547550462,0,0
16.94,3.1992958,-9.35216,0.20175284,1002.8352,6.162395478439772,1002.856096121376,0,0
16.96,3.0750434,-9.409359,0.15914527,1002.8201,6.148894859595956,1002.8555676525984,0,0
16.98,3.0416076000000003,-9.495158,-0.0018224287,1002.82495,6.135552833717128,1002.8549904740373,0,0
17.0,2.965155,-9.504692,0.092867866,1002.85754,6.122370865928503,1002.8544896573544,0,0
17.02,2.912601,-9.471327,0.1118077,1002.84503,6.109279629579728,1002.8540130809663,0,0
17.04,3.0560179,-9.5094595,0.06446571,1002.88074,6.0964798352469085,1002.8536881949788,0,0
17.06,3.0273645,-9.55236,0.15915616,1002.8732,6.084052672065215,1002.8534713682184,0,0
17.08,2.9222312,-9.557126,0.09761096,1002.85815,6.0719423686424685,1002.8532966231668,0,0
17.099999999999998,2.989173,-9.528528,0.15442602,1002.86505,6.060141517019368,1002.853184530596,0,0
17.12,3.0130959,-9.4379635,0.15916264,1002.8827,6.048492296029463,1002.8531917412904,0,0
17.14,3.060918,-9.476097,0.2112433,1002.8556,6.037126846613537,1002.8532067823912,0,0
17.16,3.0274837000000003,-9.423664,0.25385514,1002.88074,6.025930123618608,1002.8533191922916,0,0
17.18,2.7837374,-9.619094,0.12129402,1002.8726,6.01515816714808,1002.853487928587,0,0
17.2,2.6690435000000003,-9.571429,0.14970237,1002.8478,6.004640678797108,1002.8536165474347,0,0
17.22,2.7551055,-9.676293,0.10709508,1002.8653,5.9946430451648,1002.853772255478,0,0
17.24,2.624734,-9.77636,0.06909931,1002.8427,5.985268280020216,1002.8538699789852,0,0
17.259999999999998,2.1706252,-9.776359,0.14958169,1002.8477,5.976254695464388,1002.8539341155521,0,0
17.28,2.0558827,-9.652429,0.49992508,1002.82996,5.967314289459341,1002.853904479806,0,0
17.3,2.5051548,-9.657194,0.56620413,1002.85004,5.958702040146163,1002.853864381534,0,0
17.32,2.963985,-9.49513,0.4951852,1002.8732,5.950340972005447,1002.853898558927,0,0
17.34,3.518413,-9.428397,0.50938576,1002.8728,5.942475261046172,1002.8539968032594,0,0
17.36,3.5279455,-9.385498,0.51411766,1002.87506,5.934999613324402,1002.8541594394596,0,0
17.38,3.2984873999999995,-9.39503,0.47623992,1002.85754,5.927747522850926,1002.8543153148242,0,0
17.4,3.0068903,-9.476061,0.6561446,1002.8601,5.920708046111951,1002.854473871163,0,0
17.419999999999998,2.4906423,-9.571392,0.73189247,1002.84283,5.913785892430569,1002.8545720536076,0,0
17.44,2.2038248,-9.747754,0.7271553000000001,1002.83496,5.90720643230913,1002.854588204223,0,0
17.46,1.8931103,-9.704853,0.7650281,1002.86285,5.900739648101549,1002.8546322173712,0,0
17.48,1.7018889,-9.91458,0.7034781,1002.82495,5.8947424596605416,1002.8545642514066,0,0
17.5,1.8548154,-9.747752,0.6892724,1002.8676,5.888895813042171,1002.8545511253752,0,0
17.52,2.036417,-9.666719,0.94966185,1002.86505,5.883157231268277,1002.8545773231624,0,0
17.54,2.084193,-9.671485,0.7981589,1002.85754,5.8775373317831425,1002.854611137164,0,0
17.56,2.1462975,-9.738216,0.83603114,1002.85504,5.872211441028911,1002.8546425591215,0,0
17.58,2.02199,-9.752515,0.95912266,1002.8676,5.867162590002012,1002.8547169703508,0,0
17.599999999999994,1.9932855,-9.757281,0.978058,1002.88324,5.862378203554576,1002.8548854030196,0,0
17.62,1.8928787,-9.704847,1.1153528999999998,1002.8631,5.857727738534591,1002.855063802675,0,0
17.64,1.9119688,-9.781112,0.98278683,1002.85284,5.8533456642124975,1002.8552134309207,0,0
17.66,1.8067857,-9.752512,1.1579573,1002.8678,5.849156779887623,1002.8553909540872,0,0
17.68,1.8832351000000005,-9.657181,1.1390171,1002.88824,5.844985259199258,1002.8556660701224,0,0
17.7,1.9023253,-9.709612,1.0537952,1002.86804,5.840938397405549,1002.8559537087987,0,0
17.72,2.017013,-9.704844,1.0821991000000002,1002.88544,5.837059822861887,1002.8563140169816,0,0
17.74,1.947166,-9.733488,1.1723222,1002.86505,5.8333941983193744,1002.8566638348308,0,0
17.759999999999994,1.9806702,-9.733489,1.2007327,1002.8626,5.829950616669279,1002.856994304077,0,0
17.78,2.0667524,-9.709659,1.224409,1002.8676,5.826709655650596,1002.8573244872084,0,0
17.8,1.975976,-9.785925,1.2670223,1002.888,5.823786392348494,1002.857726668869,0,0
17.82,1.8613093,-9.671529,1.3143708,1002.8602,5.820890025554954,1002.8580909405763,0,0
17.84,1.8709146,-9.733494,1.3380469,1002.88574,5.818163484789379,1002.8585123476712,0,0
17.86,1.8757371,-9.704896000000002,1.2575661,1002.8653,5.8155190825263885,1002.8589091385285,0,0
17.88,1.8757797,-9.619099,1.3427892,1002.8654,5.8128064442809455,1002.8592831100312,0,0
17.9,1.9714216,-9.733498,1.2812461000000002,1002.8626,5.810296008240149,1002.8596254920548,0,0
17.919999999999995,1.9236693,-9.6906,1.2197031,1002.873,5.807851161648324,1002.8599761690396,0,0
17.94,1.847238,-9.747801,1.1960353,1002.86505,5.805552937326944,1002.8603042930147,0,0
17.96,1.9285432,-9.7239685,1.177102,1002.8556,5.803371524336478,1002.8605772879043,0,0
17.98,1.9190264,-9.685837,1.1392307,1002.86066,5.801210992255447,1002.8608188039524,0,0
18.0,1.9334115,-9.7144375,1.1581725,1002.86285,5.799144932596289,1002.861039519838,0,0
18.02,1.8760995,-9.681073,1.1534423,1002.8754,5.797078256101599,1002.8612862421236,0,0
18.04,1.928723,-9.743039,1.0208832,1002.8801,5.795134921805234,1002.861571975463,0,0
18.06,1.9335457,-9.752573,1.0398247,1002.84,5.793332901110874,1002.8617467903302,0,0
18.08,1.9670471,-9.704908,0.98301566,1002.8753,5.791567238568931,1002.8619500483017,0,0
18.1,1.9288571,-9.762109,0.9830201,1002.8752,5.789940569230881,1002.8621773468716,0,0
18.12,1.8285239,-9.776409,0.9546177,1002.8402,5.788426702068424,1002.8622990694388,0,0
18.14,1.8142302,-9.685846000000002,0.9120122,1002.88763,5.78682000216247,1002.8624978148497,0,0
18.16,1.8525144,-9.743046,0.8315315000000001,1002.8628,5.785253438157611,1002.8626745141607,0,0
18.18,1.8716793,-9.747814,0.78419155,1002.8578,5.7837371457971765,1002.8628130974214,0,0
18.2,1.8573825,-9.76688,0.76525795,1002.8626,5.782300917654704,1002.8629347824395,0,0
18.22,1.8813274,-9.790714,0.7747309,1002.85754,5.780999951896162,1002.8630228821048,0,0
18.24,1.8560704,-9.757316,0.7840754,1002.8754,5.779746902755576,1002.8631452845937,0,0
18.26,1.9659957,-9.733481,0.7225272,1002.86816,5.778526393046744,1002.8632714924084,0,0
18.28,1.922968,-9.771615,0.6799166999999999,1002.89075,5.777392893257817,1002.8634819322605,0,0
18.3,1.9707558,-9.738248,0.6799158000000001,1002.88574,5.7762918980326345,1002.8637480059576,0,0
18.32,2.0424435,-9.709648,0.65150845,1002.8631,5.7751915960391695,1002.8639807758552,0,0
18.34,2.0711114,-9.79068,0.599429,1002.88293,5.774265831945875,1002.8642546685434,0,0
18.36,2.0519826,-9.752547,0.57102174,1002.86285,5.7734085570465385,1002.864491623316,0,0
18.38,2.0710924,-9.790679,0.5946929,1002.86566,5.772703354184547,1002.864705202709,0,0
18.4,2.0328436,-9.766846,0.57102,1002.84753,5.772067499207838,1002.8648320907312,0,0
18.42,2.008934,-9.738247,0.5899565999999999,1002.86035,5.771429326092229,1002.8649280734606,0,0
18.44,2.13798,-9.700115,0.49526766,1002.8427,5.770759155071278,1002.8649328627362,0,0
18.46,2.1905475,-9.728713,0.53787637,1002.8701,5.770149380114664,1002.864955696234,0,0
18.48,2.1761978,-9.723947,0.45265618,1002.8701,5.76957019897755,1002.8649943914064,0,0
18.5,2.1857474,-9.595249,0.39584237,1002.8827,5.7687587634399184,1002.8650923226517,0,0
18.52,2.324352,-9.666748,0.5946865,1002.85004,5.767975789773757,1002.8651246663384,0,0
18.54,2.4055982000000005,-9.623848,0.4857942,1002.85815,5.7671621730663585,1002.865128136421,0,0
18.56,2.4677253,-9.704879,0.3153547,1002.8753,5.7665048967019175,1002.865167821295,0,0
18.58,2.4629354,-9.700113,0.26327533,1002.85535,5.765972954337287,1002.865167542693,0,0
18.6,2.4677057,-9.709645,0.42897862,1002.8805,5.765587199340732,1002.8652224933667,0,0
18.62,2.4485765,-9.738244,0.4289777,1002.8805,5.765379845089887,1002.8653260468055,0,0
18.64,2.4390066000000004,-9.685812,0.32481986,1002.8653,5.7652122731241136,1002.8654174528557,0,0
18.66,2.4724553,-9.623847,0.395835,1002.90356,5.7649781823975035,1002.8656355324114,0,0
18.68,2.4485466,-9.661979,0.38163093,1002.898,5.764749465999789,1002.86594473959,0,0
18.7,2.4246376,-9.647678,0.34375477,1002.8299,5.764482503005456,1002.8660881939908,0,0
18.72,2.3577101000000003,-9.709643,0.31061298,1002.8553,5.764272065426821,1002.8661761128006,0,0
18.74,2.4487715,-9.69535,0.34851065,1002.86566,5.764131586704129,1002.866251939855,0,0
18.76,2.4296525,-9.6619835,0.3769171,1002.88275,5.763978664957756,1002.8663783336567,0,0
18.78,2.319717,-9.671517,0.2916978,1002.8601,5.7637741068305886,1002.8664674132187,0,0
18.8,2.3770745,-9.719182,0.3627139,1002.8601,5.763653780343076,1002.8665232012323,0,0
18.82,2.3675148,-9.685817,0.39585474,1002.86255,5.763538897226758,1002.8665581919963,0,0
18.84,2.4057534,-9.700117,0.31063542,1002.85815,5.76347080485079,1002.8665588403447,0,0
18.86,2.3340564,-9.704883,0.34377626,1002.85754,5.763420834806026,1002.8665269453998,0,0
18.88,2.3436158,-9.671517,0.40058914,1002.85284,5.763328757335915,1002.866449490023,0,0
18.9,2.3483958,-9.647684,0.3816515,1002.85065,5.763152501233279,1002.866324172288,0,0
18.92,2.3340564,-9.709649,0.36744827,1002.8905,5.763019480310413,1002.8663004745172,0,0
18.94,2.2862582,-9.7144165,0.40058914,1002.86035,5.762914448900246,1002.8662581134587,0,0
18.96,2.3579555,-9.700117,0.32957307,1002.86035,5.762834891952375,1002.8661994140188,0,0
18.98,2.3101573,-9.628617,0.3627139,1002.86505,5.762612849828062,1002.8661434093034,0,0
19.0,2.319717,-9.604785,0.4621364000000001,1002.8776,5.762230845982367,1002.8661351672632,0,0
19.02,2.4296525,-9.671517,0.457402,1002.8852,5.7618975507207,1002.8661965179944,0,0
19.04,2.5826063,-9.666751,0.33430746,1002.87054,5.761668478494638,1002.8662663640356,0,0
19.06,2.5826063,-9.619085,0.42899555,1002.85754,5.761444212769706,1002.8662966650872,0,0
19.08,2.4200926,-9.723949,0.34377626,1002.88763,5.761344490757415,1002.8664002391021,0,0
19.1,2.4296525,-9.7144165,0.38638592,1002.8779,5.761343996053102,1002.8665331562407,0,0
19.12,2.3340564,-9.628617,0.35324508,1002.84753,5.761208107806557,1002.866582190462,0,0
19.14,2.4726706000000003,-9.647684,0.39585474,1002.8779,5.761064492153477,1002.8666662612144,0,0
19.16,2.3675148,-9.628617,0.41479233,1002.85034,5.760824582553632,1002.8666817715907,0,0
19.18,2.2862582,-9.690583,0.42426112,1002.85065,5.760586864618123,1002.8666377621815,0,0
19.2,2.2814784,-9.657218,0.5189493,1002.85535,5.760291570142732,1002.8665582395238,0,0
19.22,2.295818,-9.690583,0.52368367,1002.86066,5.760021224075304,1002.8664667396408,0,0
19.24,2.24324,-9.690583,0.4905428,1002.88074,5.759745503623997,1002.866437274082,0,0
19.26,2.2623591,-9.69535,0.5094804,1002.86816,5.7594866255212045,1002.8664174401273,0,0
19.28,2.319717,-9.709649,0.5000116,1002.8601,5.759298815292274,1002.8663771720604,0,0
19.3,2.271919,-9.757316,0.53788686,1002.85504,5.759252078135235,1002.8663007773773,0,0
19.32,2.3005977000000004,-9.69535,0.4905428,1002.8684,5.759213514705946,1002.8662408322364,0,0
19.34,2.2145612,-9.704883,0.5000116,1002.87067,5.759162078966192,1002.8662038097141,0,0
19.36,2.24802,-9.6619835,0.528418,1002.84247,5.7590313280134255,1002.866085654898,0,0
19.38,2.2286115,-9.68581,0.56626683,1002.89355,5.758874389539608,1002.8660801249454,0,0
19.4,2.2572813,-9.752542,0.61361,1002.86505,5.758848974137663,1002.8660715302292,0,0
19.42,2.3146298,-9.65721,0.63728124,1002.84534,5.758777733179286,1002.8659893024292,0,0
19.44,2.3002808,-9.719174,0.53785783,1002.85504,5.758772255046817,1002.8658772284564,0,0
19.46,2.3432903,-9.7001095,0.56152916,1002.85815,5.758809887944403,1002.8657503818712,0,0
19.48,2.3480623,-9.666743,0.6041380999999999,1002.85504,5.758825694602248,1002.8655997428543,0,0
19.5,2.3623915,-9.619077,0.62307477,1002.8779,5.758735580809917,1002.8655109191444,0,0
19.52,2.4484196,-9.666742,0.6562147,1002.8481,5.758695736285803,1002.8653697552057,0,0
19.54,2.4436307,-9.671509,0.70829237,1002.85535,5.7587149877420165,1002.8652089516304,0,0
19.56,2.3910444,-9.6476755,0.60413474,1002.86505,5.758697724829968,1002.8650662933653,0,0
19.58,2.5248692000000004,-9.619076,0.594665,1002.8631,5.758658224118119,1002.8649331618662,0,0
19.6,2.5296407000000003,-9.657208,0.5993986,1002.87067,5.758678842547058,1002.864836179491,0,0
19.62,2.496173,-9.633375,0.5520537,1002.8759,5.7586814693434425,1002.8647903156179,0,0
19.64,2.515283,-9.600009,0.5189121,1002.8456,5.758607471458325,1002.8646807051638,0,0
19.66,2.4531376,-9.661974,0.6230683000000001,1002.8654,5.7585707365342245,1002.8645864428278,0,0
19.68,2.4818068,-9.690573,0.6467394000000001,1002.8726,5.758642357918338,1002.8645320014334,0,0
19.7,2.4435594,-9.623841,0.62780094,1002.8756,5.758653225084982,1002.8645237418125,0,0
19.72,2.4578905,-9.661973,0.68461305,1002.8531,5.7587021099239255,1002.8644753181404,0,0
19.74,2.5247982,-9.642907,0.6514713000000001,1002.87036,5.758776197499897,1002.8644537158387,0,0
19.76,2.6203854,-9.552342,0.58518887,1002.86566,5.758733606105766,1002.8644389706681,0,0
19.78,2.5964775,-9.62384,0.642001,1002.8659,5.758725449420908,1002.8644312015407,0,0
19.8,2.5343308,-9.600007000000002,0.5851871999999999,1002.833,5.75865946405544,1002.8643111844144,0,0
19.82,2.4148269,-9.671506,0.5757175999999999,1002.8478,5.758623485017076,1002.8641456970174,0,0
19.84,2.4865153,-9.62384,0.62779534,1002.8831,5.7585614509429375,1002.8640677078442,0,0
19.86,2.515127,-9.642904,0.59464824,1002.873,5.758525589744504,1002.8640309528627,0,0
19.88,2.5724732999999995,-9.63337,0.5331,1002.8555,5.7585169980422695,1002.8639677647307,0,0
19.9,2.6202605,-9.652436,0.5709743,1002.881,5.758600868193781,1002.863973247744,0,0
19.92,2.6154702000000003,-9.614304,0.49522284,1002.8729,5.758678759720548,1002.8640102288427,0,0
19.94,2.5628803,-9.609538,0.54256576,1002.8732,5.7587182666430845,1002.864075988518,0,0
19.96,2.4911726,-9.59047,0.49522072,1002.8678,5.758642416081746,1002.864147500208,0,0
19.98,2.5437381,-9.561872,0.476282,1002.85034,5.758433307229365,1002.8641609809367,0,0
20.0,2.5150485,-9.60477,0.40999934,1002.86566,5.758171971534232,1002.8641782889772,0,0
20.02,2.6058533,-9.609536,0.39579508,1002.86566,5.757922361156572,1002.8641989165216,0,0
20.04,2.5962832,-9.642901,0.32951245,1002.8634,5.757740719912619,1002.8642142669203,0,0
20.06,2.6727495,-9.623836,0.3531835,1002.8531,5.757625171167188,1002.8641878191718,0,0
20.08,2.5675821,-9.676268,0.324776,1002.8556,5.757614302643898,1002.8641335337919,0,0
20.1,2.5675707,-9.666734,0.40052548,1002.8579,5.757682524864157,1002.8640631265088,0,0
20.12,2.510202,-9.647667,0.31530508,1002.86804,5.757745440842532,1002.8640152313781,0,0
20.14,2.5197506,-9.633368,0.32950735,1002.86066,5.757780661202817,1002.8639608324072,0,0
20.16,2.4576017999999995,-9.661965,0.41472557,1002.8609,5.757823164126867,1002.8639017464802,0,0
20.18,2.347654,-9.723931,0.39578688,1002.886,5.757940323860015,1002.8639290918677,0,0
20.2,2.4193406000000004,-9.681032,0.3200354,1002.8601,5.7580663817901385,1002.8639394695214,0,0
20.22,2.5101454,-9.576168,0.47626972,1002.87036,5.758048641082835,1002.8639717531256,0,0
20.24,2.5579326,-9.5285015,0.4194559,1002.84753,5.75782833753849,1002.8639410886076,0,0
20.26,2.514903,-9.633366,0.3010947,1002.8732,5.757608587491856,1002.8639473255199,0,0
20.28,2.5148916,-9.671498,0.34843773,1002.8682,5.757469968360053,1002.8639681460844,0,0
20.3,2.5101013,-9.68103,0.36263993,1002.8785,5.757421247864668,1002.8640388578087,0,0
20.32,2.4527314,-9.6524315,0.3957797,1002.881,5.757367593942133,1002.8641623988003,0,0
20.34,2.3905826,-9.628597,0.36737218,1002.8631,5.7572280513408725,1002.8642677349852,0,0
20.36,2.4479294,-9.681029,0.41471526,1002.8659,5.757151559224227,1002.8643666861916,0,0
20.38,2.4389422,-9.704876,0.37689242,1002.8584,5.7571714049950025,1002.8644326394078,0,0
20.4,2.4293938,-9.657212,0.39109668,1002.86804,5.757176596263043,1002.8645039021677,0,0
20.42,2.438965,-9.633379,0.37216014,1002.8579,5.757124180864937,1002.8645430958943,0,0
20.44,2.4628754,-9.628612,0.3295515,1002.85065,5.757020580969153,1002.8645277123261,0,0
20.46,2.4915643,-9.661979,0.39583406,1002.86554,5.756959091947669,1002.8645177636406,0,0
20.48,2.4676774,-9.676279,0.39583516,1002.86066,5.756951477967675,1002.8644950850332,0,0
20.5,2.505927,-9.652446,0.3721642,1002.8403,5.756961462692938,1002.8643879439093,0,0
20.52,2.429461,-9.704878,0.42424363,1002.8732,5.757057554317561,1002.8643249974144,0,0
20.54,2.367335,-9.657214,0.509464,1002.871,5.75711059467154,1002.8642934079007,0,0
20.56,2.1665945,-9.666747,0.45738655,1002.86053,5.757044216398518,1002.8642519471381,0,0
20.58,2.2096233,-9.719178,0.5710133000000001,1002.8734,5.757010587089338,1002.8642482453982,0,0
20.6,2.1857352000000003,-9.685813,0.580483,1002.86554,5.756928681512036,1002.8642496248576,0,0
20.62,2.1666281,-9.752545,0.6562346,1002.89355,5.756940597092607,1002.8643563250985,0,0
20.64,2.180979,-9.700114,0.6751733,1002.87335,5.756938369675881,1002.864482982661,0,0
20.66,2.0853941000000003,-9.7954445,0.6467679000000001,1002.8785,5.757070507084112,1002.8646453585457,0,0
20.68,2.133203,-9.7334795,0.6657065,1002.8431,5.757218793355594,1002.8647112705864,0,0
20.7,2.1188745,-9.76208,0.62783223,1002.8659,5.757427347406902,1002.8647737898916,0,0
20.72,2.228821,-9.690581,0.6278333,1002.8735,5.757593408465088,1002.864860446306,0,0
20.74,2.29097,-9.709647,0.59942794,1002.8684,5.757785469481307,1002.8649497583067,0,0
20.76,2.238403,-9.671516,0.6562416999999999,1002.8707,5.757905412666945,1002.8650493752613,0,0
20.78,2.2527544,-9.647683,0.5662891999999999,1002.85333,5.7579082827796455,1002.8650952070508,0,0
20.8,2.276665,-9.719181,0.63730633,1002.8559,5.757972345584519,1002.8651026012752,0,0
20.82,2.2718966,-9.676283,0.6089009,1002.881,5.7579976658817085,1002.8651663654467,0,0
20.84,2.2766871,-9.738249,0.6278395,1002.83075,5.758118523509821,1002.8650988085533,0,0
20.86,2.3961928,-9.704883,0.49054274,1002.86615,5.758298057325383,1002.8650428995717,0,0
20.88,2.4192939,-9.638132,0.49993852,1002.86084,5.758406881398697,1002.8649783679567,0,0
20.9,2.4575121,-9.671497,0.63723445,1002.8734,5.7585556464005805,1002.8649516656972,0,0
20.92,2.4431536,-9.676264,0.46205965,1002.8888,5.758721418505358,1002.8650139255844,0,0
20.94,2.3905544,-9.685796,0.5283393,1002.8684,5.758901200360067,1002.8650811282885,0,0
20.96,2.4526727000000004,-9.633364,0.5851505,1002.86115,5.759025110884568,1002.8651263565358,0,0
20.98,2.4574323,-9.561865,0.5236013,1002.8537,5.7589507608840815,1002.8651251853315,0,0
21.0,2.5147696,-9.60953,0.5188651,1002.8608,5.758826619330541,1002.8651085797884,0,0
21.02,2.5482106,-9.604762,0.4383786,1002.8433,5.758658997010253,1002.8650153962434,0,0
21.04,2.6103265,-9.633361,0.47151744,1002.8659,5.758547457708291,1002.8649362438364,0,0
21.06,2.6055262000000003,-9.571395,0.39103073,1002.8608,5.758351844502911,1002.864851414292,0,0
21.08,2.5959463,-9.623827,0.42890412,1002.8632,5.7581857821485976,1002.8647705138147,0,0
21.1,2.5911474,-9.571395,0.38155833,1002.85614,5.757934704399812,1002.8646679603037,0,0
21.12,2.6580446,-9.61906,0.37682205,1002.8584,5.757741184056108,1002.864554779364,0,0
21.14,2.686703,-9.595227,0.3531482,1002.8559,5.757565678597374,1002.8644236154796,0,0
21.16,2.677123,-9.5141945,0.35314628,1002.86084,5.757239291643324,1002.864294818056,0,0
21.18,2.6197474,-9.652425,0.38155112,1002.8835,5.757027930927648,1002.8642501513077,0,0
21.2,2.6006072,-9.633357,0.35787709999999995,1002.8511,5.7568685321174495,1002.8641633432236,0,0
21.22,2.6531644,-9.576159,0.45256335,1002.8862,5.756677840966015,1002.8641659715654,0,0
21.24,2.6340263,-9.604756,0.38154554,1002.8737,5.7565006926004685,1002.8642026164704,0,0
21.26,2.6244473,-9.571391,0.2773869,1002.8762,5.756256874645027,1002.8642781864893,0,0
21.28,2.7487009,-9.623822,0.2537129,1002.85614,5.75612820747607,1002.8643156626863,0,0
21.3,2.8490565,-9.604755,0.17796057,1002.85864,5.756118604608419,1002.8643283442686,0,0
21.32,2.7534412999999995,-9.566623,0.2347717,1002.86847,5.7560848921898256,1002.8643544596753,0,0
21.34,2.7390819,-9.609522,0.14481615,1002.86096,5.756103924877452,1002.8643653151936,0,0
21.36,2.7581809,-9.576155,0.25370560000000003,1002.8812,5.75611828992015,1002.8644355119952,0,0
21.38,2.6820402000000003,-9.590463,0.26320517,1002.87103,5.756114392538903,1002.8645212780457,0,0
21.4,2.672474,-9.6095295,0.14011005,1002.87354,5.7561220206819215,1002.8646295283268,0,0
21.42,2.7776237,-9.676261,0.18271917,1002.85614,5.756334109927146,1002.8646946159737,0,0
21.44,2.729819,-9.585696,0.2158594,1002.86646,5.756519211194607,1002.8647584828004,0,0
21.46,2.753712,-9.523729,0.13537392,1002.8636,5.756566760583517,1002.8648107449907,0,0
21.48,2.7059076,-9.623828,0.21112385,1002.89655,5.756668141459183,1002.86497118518,0,0
21.5,2.7154608,-9.609529,0.22532646,1002.8812,5.756794154700283,1002.8651713738648,0,0
21.52,2.7154548,-9.628593,0.24899796,1002.879,5.756980765824813,1002.8653980436404,0,0
21.54,2.6867697,-9.576162,0.13537166,1002.8687,5.757094675706751,1002.8656102160974,0,0
21.56,2.76802,-9.528496,0.15430869,1002.8461,5.757095616098727,1002.8657274549023,0,0
21.58,2.7871332000000004,-9.576161,0.21585542,1002.86847,5.757105315722764,1002.8658409202727,0,0
21.6,2.806246,-9.561862,0.121166736,1002.87103,5.757102014242399,1002.8659598589608,0,0
21.62,2.9305148,-9.561862,0.111697346,1002.87366,5.757161215201209,1002.8660926736937,0,0
21.64,2.9591875,-9.476064,0.14957206,1002.87854,5.757123727688124,1002.866254839166,0,0
21.66,2.959181,-9.542795,0.002804928,1002.87146,5.757131029879153,1002.8664168671563,0,0
21.68,2.9352758,-9.518962,0.05014837,1002.8788,5.7571161399979385,1002.866604614367,0,0
21.7,2.9304905,-9.57616,0.092757516,1002.8357,5.757193047396822,1002.8666592511906,0,0
21.72,2.8205478,-9.599993,0.1164289,1002.89136,5.757333110022848,1002.8667964509835,0,0
21.74,2.8348813,-9.557094,0.07381868,1002.86896,5.7574505522729975,1002.8669254694972,0,0
21.76,2.8587740000000004,-9.595227,0.045411695,1002.8489,5.757637353266759,1002.8669745785656,0,0
21.78,2.954364,-9.533261,0.05961432,1002.8739,5.7578194649956345,1002.8670429028557,0,0
21.8,2.9113398,-9.547561,0.05961379,1002.89154,5.757998910915093,1002.867191463748,0,0
21.82,2.8635356,-9.518961,0.12589489999999998,1002.8763,5.758090948876319,1002.8673555228827,0,0
21.84,2.9113274,-9.571393,0.08801908,1002.851,5.758237640631263,1002.8674416056521,0,0
21.86,2.9256601000000004,-9.54756,0.07381529,1002.85846,5.758393179974747,1002.8674853346067,0,0
21.88,2.9404137,-9.557103,0.07858761,1002.8539,5.758584013849639,1002.8674750663063,0,0
21.9,2.9882221,-9.528504,0.11172935,1002.8437,5.7587787156826655,1002.8673804029976,0,0
21.92,2.9738922000000003,-9.533271,0.02651096,1002.8843,5.758975473554506,1002.8673576690468,0,0
21.94,2.983462,-9.509438,0.09279353,1002.85645,5.759132826777897,1002.8672983137196,0,0
21.96,3.0408297,-9.542805,-0.039768856,1002.83887,5.7593561348424185,1002.8671435254233,0,0
21.98,3.0551794,-9.442707,-0.039767914,1002.864,5.759447947672062,1002.8669954377929,0,0
22.0,3.055189,-9.418874,-0.011360632,1002.8614,5.75937597009113,1002.8668444439863,0,0
22.02,3.0695384,-9.457007,0.07385959,1002.89667,5.759244676613629,1002.8668183978607,0,0
22.04,3.0217512,-9.518973,0.08332938,1002.8765,5.759153869657539,1002.866830237272,0,0
22.06,3.0122008,-9.518973,0.06912705,1002.8741,5.759092940988418,1002.8668668697212,0,0
22.08,3.0456698,-9.49514,0.083331175,1002.85895,5.7590327772178265,1002.8668707374228,0,0
22.1,3.1030374,-9.518974,0.09280092,1002.874,5.759057498283376,1002.866899820269,0,0
22.12,3.0791488,-9.53804,0.20169315,1002.8817,5.75918283120037,1002.866978798519,0,0
22.14,3.060039,-9.52374,0.05966188400000001,1002.84644,5.7593522985838845,1002.8669746440261,0,0
22.16,3.0935073,-9.485608,0.12120999999999996,1002.8542,5.759507333811753,1002.8669249843974,0,0
22.18,3.0982974,-9.4903755,0.15908618,1002.88684,5.759662671404923,1002.8669527992058,0,0
22.2,2.9883726000000004,-9.528508,0.17329037,1002.84894,5.75982405287157,1002.8669125302932,0,0
22.22,3.0218406000000004,-9.504676,0.14488482,1002.8994,5.759962967713639,1002.8669939035733,0,0
22.24,3.0600893,-9.509441,0.15435457,1002.8491,5.760115475015534,1002.8670013869504,0,0
22.26,2.9549432,-9.504677,0.19223066,1002.8667,5.760205468046768,1002.8670069142696,0,0
22.28,2.9836318,-9.480844,0.20170042,1002.8893,5.760210818774724,1002.8670920533174,0,0
22.3,2.9549634,-9.566642,0.18749812,1002.84644,5.760293264583572,1002.867092934788,0,0
22.32,2.9836524,-9.547576,0.20643668,1002.87933,5.7604241617600085,1002.8671377670903,0,0
22.34,2.993221,-9.557109,0.15435909,1002.8768,5.760620292891503,1002.8672121649513,0,0
22.36,2.9645534,-9.476078,0.24431378,1002.86426,5.760698603877145,1002.867267275107,0,0
22.38,2.9736047,-9.52373,0.26320487,1002.8742,5.760773640601068,1002.8673409282504,0,0
22.4,2.9783742,-9.514198,0.22532867,1002.88184,5.7608276400793805,1002.867458204826,0,0
22.42,2.921007,-9.53803,0.22059342,1002.87177,5.760874682680655,1002.8675773528712,0,0
22.44,2.9783545,-9.528497,0.27267095,1002.8693,5.760934381417843,1002.8676888336133,0,0
22.46,2.9735649,-9.485598,0.20165394,1002.8642,5.760913494409188,1002.867774778196,0,0
22.48,2.9353168,-9.53803,0.17324664,1002.8743,5.760900843428312,1002.867874209628,0,0
22.5,2.873169,-9.547562,0.28213698,1002.8516,5.760882030012013,1002.8679034800864,0,0
22.52,2.9400766,-9.533262,0.25846413,1002.85925,5.760868598783412,1002.8678981909352,0,0
22.54,2.8731492000000003,-9.599994,0.25372878,1002.86676,5.7609519592156015,1002.8678894199536,0,0
22.56,2.8588,-9.533262,0.29633752,1002.88184,5.7609816120012995,1002.8679318920027,0,0
22.58,2.9161468,-9.552328,0.3105397,1002.87177,5.761037015775808,1002.8679832374942,0,0
22.6,2.84444,-9.528495,0.32947648,1002.8668,5.7610257865619685,1002.8680243467154,0,0
22.62,2.7870724,-9.609527,0.33894435,1002.8316,5.761084219866731,1002.867929543175,0,0
22.64,2.672347,-9.671492,0.4951788,1002.86426,5.761276403307838,1002.8678325644113,0,0
22.66,2.6436584,-9.638124,0.43836504,1002.87445,5.761497974957633,1002.8677706967436,0,0
22.68,2.5910704,-9.657191,0.4146921,1002.862,5.761752238883648,1002.8676952559643,0,0
22.7,2.5719411,-9.585692,0.5330513000000001,1002.8597,5.761892505108267,1002.8675998135705,0,0
22.72,2.5336933,-9.647657,0.55672246,1002.8872,5.762038156208898,1002.8675860413421,0,0
22.74,2.438087,-9.599991,0.6040656,1002.85443,5.762048404999707,1002.8675265104524,0,0
22.76,2.4763155,-9.590458,0.5283141,1002.8673,5.761930506243527,1002.8674730935204,0,0
22.78,2.4858654,-9.62859,0.60406375,1002.87225,5.761790336279173,1002.8674430911827,0,0
22.8,2.4476168,-9.6476555,0.50464034,1002.8673,5.761638144760777,1002.8674160659892,0,0
22.82,2.4428275,-9.671489,0.52357703,1002.8873,5.761523425829003,1002.8674637686903,0,0
22.84,2.4762762,-9.6476555,0.46676332,1002.8696,5.761405559219594,1002.8675136092301,0,0
22.86,2.4667056,-9.619057000000002,0.47623113,1002.85956,5.761223818135433,1002.8675290153374,0,0
22.88,2.4902382000000003,-9.666713,0.47146317,1002.86224,5.7610938072989475,1002.8675235877188,0,0
22.9,2.4758763,-9.652413,0.45252347,1002.8773,5.760971972804662,1002.867553986959,0,0
22.92,2.4854130000000003,-9.719143,0.424115,1002.86224,5.760994358670808,1002.8675617173748,0,0
22.94,2.4089122000000005,-9.690543,0.48092565,1002.8319,5.761053012662521,1002.8674401657877,0,0
22.96,2.4566846,-9.661943,0.45251688,1002.85223,5.761107340579988,1002.8672780062082,0,0
22.98,2.3945246,-9.63811,0.49039,1002.8801,5.761081929025233,1002.8671808811816,0,0
23.0,2.4136198,-9.671476,0.50459105,1002.87756,5.7610644140374365,1002.8671324263356,0,0
23.02,2.3657992,-9.709608,0.5329954,1002.89044,5.761110085078903,1002.8671735188992,0,0
23.04,2.3466542,-9.7239065,0.44777378,1002.8826,5.7612222265699815,1002.8672653636203,0,0
23.06,2.4470074,-9.661941,0.47144374,1002.8698,5.761320082065529,1002.8673556423066,0,0
23.08,2.4900017000000005,-9.67624,0.44776952,1002.87036,5.761453545574322,1002.8674462282415,0,0
23.1,2.5951333,-9.595208,0.42409527,1002.8475,5.7615088482205365,1002.8674544635519,0,0
23.12,2.57121,-9.590441,0.39568663,1002.85724,5.761469977545032,1002.8674249682036,0,0
23.14,2.537729,-9.609507,0.33887172,1002.8804,5.761364059329384,1002.8674456162283,0,0
23.16,2.6428618,-9.599973,0.34833845,1002.8678,5.761237701059705,1002.8674651366048,0,0
23.18,2.5854802,-9.599972,0.37200826,1002.8578,5.761064199110438,1002.8674475903168,0,0
23.2,2.623696,-9.61427,0.3956782,1002.86786,5.760900990946298,1002.8674335710924,0,0
23.22,2.508957,-9.599971,0.40514484,1002.8982,5.7606580721838165,1002.8675319428494,0,0
23.24,2.6236463,-9.580904,0.34832963,1002.8804,5.760364436755028,1002.8676651891395,0,0
23.26,2.6762033,-9.614269,0.258374,1002.8629,5.760117225506033,1002.8677657708807,0,0
23.28,2.814792,-9.55707,0.18262121,1002.88324,5.759873476809537,1002.8679103521324,0,0
23.3,2.8912446,-9.609502,0.23469745,1002.8581,5.759785677424728,1002.868002786858,0,0
23.32,2.7860665,-9.547537,0.27730504,1002.86053,5.7596527233741615,1002.8680575601493,0,0
23.34,2.8003802,-9.585668,0.1826146,1002.87823,5.7595602014412925,1002.8681425786128,0,0
23.36,2.7716787,-9.523703,0.30097264,1002.88074,5.759369415016072,1002.868263051644,0,0
23.38,2.7867699,-9.561853,0.25369737,1002.88574,5.7591746160005055,1002.8684324186287,0,0
23.4,2.781997,-9.52372,0.23476039,1002.87823,5.758897165838372,1002.8686173425892,0,0
23.42,2.8154616000000003,-9.514188,0.2679018,1002.86816,5.758550040524487,1002.8687790949672,0,0
23.44,2.7963486,-9.495121,0.22529268,1002.8455,5.758091156215793,1002.8688382146272,0,0
23.46,2.8919508,-9.538021,0.25369970000000003,1002.86316,5.757678885408617,1002.8688700111853,0,0
23.48,2.8298194,-9.566621,0.24423143,1002.8581,5.757328683581724,1002.8688593345844,0,0
23.5,2.9302013,-9.528488,0.31998247,1002.86066,5.757023418772764,1002.868820383135,0,0
23.52,2.9015293,-9.557087,0.3389207,1002.8481,5.756799669515082,1002.8687113722552,0,0
23.54,2.8632972000000003,-9.557087,0.3625933,1002.8659,5.756627549496008,1002.8686049293016,0,0
23.56,2.8680830000000004,-9.599986,0.44781315,1002.8458,5.756597042108796,1002.8684287785624,0,0
23.58,2.7963927,-9.504656,0.3910009,1002.8559,5.7564546914225305,1002.8682280281662,0,0
23.6,2.6434448,-9.695318,0.53776795,1002.8506,5.7565224878298125,1002.8679871842148,0,0
23.62,2.3710022,-9.666719,0.6040502,1002.818,5.7565844074832375,1002.867594420636,0,0
23.64,2.4522653,-9.62382,0.6324571999999999,1002.8531,5.756599133098428,1002.8671951948236,0,0
23.66,2.5669863,-9.585688,0.67980176,1002.8709,5.756562228307513,1002.8668557761943,0,0
23.68,2.6721492,-9.642886,0.58037996,1002.876,5.756638611031432,1002.8665887850997,0,0
23.7,2.7629707000000003,-9.571388,0.55670846,1002.81824,5.756720557802647,1002.8661788161412,0,0
23.72,2.6960602,-9.657187,0.50936496,1002.8358,5.7569352628346655,1002.8657072038319,0,0
23.74,2.6960661,-9.571389,0.53303754,1002.83826,5.757097597513278,1002.8651916772617,0,0
23.76,2.6482744,-9.652421,0.589851,1002.8759,5.7573551543401695,1002.864774707946,0,0
23.78,2.6243818,-9.671487,0.6892741,1002.82074,5.757734198351723,1002.8642477489101,0,0
23.8,2.7582226000000003,-9.557089,0.64193064,1002.8458,5.758059043113457,1002.86371571601,0,0
23.82,2.7056508,-9.57139,0.6277279,1002.8433,5.758331520438657,1002.8631721151615,0,0
23.84,2.7438953,-9.580923,0.6940102,1002.83575,5.7586065912288475,1002.8625930698372,0,0
23.86,2.653086,-9.538024,0.7366205,1002.8589,5.7587525939520265,1002.8620681303377,0,0
23.88,2.6622958,-9.585681,0.7981357,1002.8639,5.758894145197695,1002.8616108885263,0,0
23.9,2.6288295,-9.590447,0.71291566,1002.86615,5.759008911338077,1002.8612232104632,0,0
23.92,2.5714645000000003,-9.628579,0.7886655,1002.85333,5.759156671282612,1002.8608522425689,0,0
23.94,2.5810165,-9.590446,0.802868,1002.83826,5.759264220100868,1002.860443123264,0,0
23.96,2.4232752,-9.595214,0.8360082,1002.85364,5.759268616737495,1002.8600571342027,0,0
23.98,2.5140846000000003,-9.633346,0.8407419,1002.86145,5.7593059474705415,1002.859721088585,0,0
24.0,2.4662786,-9.580914,0.86914766,1002.81366,5.759247370331838,1002.8592583387584,0,0
24.02,2.5092895,-9.561847,0.86914694,1002.836,5.7590884537553695,1002.8587657229916,0,0
24.04,2.4280257,-9.523713,0.82180226,1002.8517,5.758714440443049,1002.8583050110975,0,0
24.06,2.552293,-9.661943,0.78392625,1002.83624,5.758487218494414,1002.8578184920284,0,0
24.08,2.2941759,-9.666711,0.8265353000000001,1002.83105,5.758277188608747,1002.8572922372072,0,0
24.1,2.3419669,-9.685778,0.8691441999999999,1002.83887,5.758152082717477,1002.8567609183932,0,0
24.12,2.3610783,-9.609511,0.7602523,1002.85144,5.757939843583954,1002.8562722897833,0,0
24.14,2.5522625,-9.614277,0.8880805,1002.8617,5.757780991106548,1002.8558600773,0,0
24.16,2.5283566000000004,-9.595212,1.0632527,1002.83105,5.757654698548461,1002.8554065300716,0,0
24.18,2.4948905,-9.623811,0.944892,1002.84143,5.757572605262327,1002.8549554602322,0,0
24.2,2.4136257000000003,-9.585678,1.0017041,1002.8265,5.7574233617611945,1002.8544544552652,0,0
24.22,2.3419218,-9.614276,0.949625,1002.8389,5.757226454650942,1002.8539557712377,0,0
24.24,2.4709694,-9.671475,0.8170609999999999,1002.85175,5.757143326571777,1002.8535071932544,0,0
24.26,2.5426588,-9.681008,0.8359979999999999,1002.85144,5.757220633051032,1002.8531033878528,0,0
24.28,2.4709532000000003,-9.585677,0.86440355,1002.859,5.757215989875232,1002.8527678132033,0,0
24.3,2.5139647000000003,-9.547545,0.9070125,1002.8565,5.757092915223148,1002.8524847353156,0,0
24.32,2.5235162,-9.590444,1.0348407,1002.86395,5.756982424768766,1002.8522758826473,0,0
24.34,2.5043902,-9.623809,1.1247938999999998,1002.82666,5.75696035267797,1002.8519991232516,0,0
24.36,2.4231257,-9.609509,1.0963867,1002.8467,5.756939649909397,1002.8517355018056,0,0
24.38,2.456642,-9.5999775,1.1058608,1002.8341,5.756920369272676,1002.85143907809,0,0
24.4,2.5426736,-9.633344,1.077454,1002.8442,5.757007399941684,1002.8511510974137,0,0
24.42,2.4996498,-9.576144,1.0679846000000002,1002.8417,5.757049040644812,1002.850862613737,0,0
24.44,2.5856812,-9.65241,0.97329605,1002.86945,5.7572282547347315,1002.8506746241513,0,0
24.46,2.5761168,-9.571378,1.0443116,1002.86676,5.757376310143175,1002.8505664239059,0,0
24.48,2.5713322,-9.47128,1.1058583999999998,1002.82385,5.757307925019681,1002.8503746390436,0,0
24.5,2.5761068,-9.461747,1.1484677,1002.8414,5.757042239851385,1002.850172869238,0,0
24.52,2.6334596,-9.514179,1.0490447,1002.85693,5.7567160444140235,1002.850018911109,0,0
24.54,2.6764727,-9.552312,1.1532011,1002.85425,5.756461216997947,1002.8498981056264,0,0
24.56,2.6047704,-9.480812,1.0632471,1002.85944,5.756067616235436,1002.8498257127212,0,0
24.58,2.6621242,-9.538011,1.1437315,1002.83136,5.755716884383937,1002.8496952697844,0,0
24.6,2.6812377,-9.528478,1.1058557,1002.8442,5.755388102475956,1002.8495602274344,0,0
24.62,2.50916,-9.518945,1.0727146,1002.8318,5.754959881356014,1002.8493769671953,0,0
24.64,2.647769,-9.58091,1.1579332,1002.8547,5.754663356571911,1002.849234201366,0,0
24.66,2.6238651,-9.504645,1.1768705,1002.84186,5.754323997778076,1002.8490815063542,0,0
24.68,2.6047406000000004,-9.561844,1.1768701,1002.85187,5.754051422565071,1002.848956623619,0,0
24.7,2.580837,-9.523709,1.2384168,1002.84717,5.753765490533088,1002.8488398453893,0,0
24.72,2.576052,-9.504644,1.1958067,1002.85187,5.753417393337518,1002.8487475687018,0,0
24.74,2.5856063,-9.5570755,1.2999631,1002.84186,5.753152269817092,1002.8486412377736,0,0
24.76,2.6525187000000003,-9.580909,1.1531961000000002,1002.83685,5.753007840842809,1002.8485048353093,0,0
24.78,2.6477342,-9.571376,1.2810246,1002.8547,5.752981293662151,1002.8484066126848,0,0
24.8,2.561693,-9.5570755,1.1816016000000005,1002.87195,5.75295843773301,1002.8484045793684,0,0
24.82,2.5186691000000003,-9.566609,1.2668204,1002.87213,5.752956896581463,1002.8484881942438,0,0
24.84,2.5043247,-9.561843,1.2242104,1002.8647,5.752946108203004,1002.8486204388487,0,0
24.86,2.5282192,-9.504644,1.2052724,1002.8726,5.7528208678019706,1002.8488236166015,0,0
24.88,2.5523715,-9.571382,1.233702,1002.91504,5.752748044112607,1002.8492415234443,0,0
24.9,2.4950187,-9.561849,1.2715777,1002.8671,5.752682513731426,1002.849675076446,0,0
24.92,2.5523813,-9.571382,1.3378597,1002.85956,5.752690819078021,1002.8500937496034,0,0
24.94,2.561946,-9.552317,1.2195001,1002.8549,5.752699946634535,1002.8504809917064,0,0
24.96,2.5284927,-9.580915,1.1958286,1002.85706,5.7527430831565844,1002.8508468432586,0,0
24.98,2.4902592,-9.547549,1.1342818,1002.8802,5.752714498847703,1002.8512757810544,0,0
25.0,2.5046031,-9.514184,1.3236583,1002.8547,5.752612296758156,1002.8516671176786,0,0
25.02,2.5476265,-9.514184,1.2100332,1002.88544,5.752438029320412,1002.8521344850967,0,0
25.04,2.5619707000000003,-9.595216,1.2999872,1002.84955,5.75239329815612,1002.8525381468007,0,0
25.06,2.528517,-9.547549,1.2100339,1002.8597,5.752326969539579,1002.8529206049541,0,0
25.08,2.4902844,-9.580915,1.2289722,1002.8547,5.752293174011793,1002.8532649508003,0,0
25.1,2.4807289,-9.566617,1.1768941000000002,1002.8678,5.752241670590175,1002.8536215409673,0,0
25.12,2.4711745,-9.54755,1.2668483,1002.8876,5.752154654958298,1002.8540589464908,0,0
25.14,2.547656,-9.590449,1.2621143,1002.845,5.752160875650379,1002.8544128258047,0,0
25.16,2.4664042,-9.538017,1.2810524,1002.837,5.7521074530487155,1002.8546628273932,0,0
25.18,2.4998682,-9.523717,1.1721615,1002.855,5.751962411954273,1002.8548849426184,0,0
25.2,2.4664147,-9.552318,1.1768965,1002.87506,5.751777832659463,1002.8551538338378,0,0
25.22,2.4664197,-9.528484,1.1863656,1002.8726,5.751513707648338,1002.8554542323177,0,0
25.24,2.5190024,-9.552318,1.1911006000000002,1002.85504,5.751256438575079,1002.8557181731776,0,0
25.26,2.5190072,-9.561851,1.1863666000000002,1002.86487,5.751024003655169,1002.8559843378985,0,0
25.28,2.4616551,-9.538018,1.2573831,1002.8473,5.750755064596835,1002.8561882574292,0,0
25.3,2.4568799,-9.628583,1.181633,1002.8779,5.750614086423695,1002.856446603,0,0
25.32,2.4473255000000003,-9.580917,1.2573841,1002.87036,5.7505057569965565,1002.8567249653752,0,0
25.34,2.4425504,-9.557084,1.2100405,1002.83496,5.75036440707954,1002.8568925724948,0,0
25.36,2.4329963,-9.59045,1.2905258,1002.8551,5.750277204359379,1002.8570342168848,0,0
25.38,2.422215,-9.566588,1.2762107,1002.8675,5.7501811927652575,1002.8571970506868,0,0
25.4,2.3552544,-9.599953,1.3377541000000002,1002.83496,5.750127861241702,1002.8572608772521,0,0
25.42,2.4221313,-9.652384,1.1625774,1002.87506,5.750205047936051,1002.8573813512468,0,0
25.44,2.4603264,-9.561818,1.30934,1002.84247,5.750273392676071,1002.857434121204,0,0
25.46,2.445941,-9.557051,1.2903981000000002,1002.855,5.750311654392859,1002.8574719859018,0,0
25.48,2.4554632,-9.552283,1.2714571,1002.85986,5.75031348408633,1002.8575140399997,0,0
25.5,2.4697595000000003,-9.557049,1.3093284,1002.83746,5.750310188099434,1002.8574790044563,0,0
25.52,2.412356,-9.552281,1.318793,1002.8603,5.7502661812228535,1002.8574582026345,0,0
25.54,2.4887924,-9.53798,1.3329926,1002.8399,5.750200916208142,1002.8573766126152,0,0
25.56,2.4361715,-9.595179,1.2477691999999998,1002.86505,5.7501812870167175,1002.8573321438686,0,0
25.58,2.3978899,-9.619009,1.2951093,1002.84753,5.750242964682869,1002.8572575635662,0,0
25.6,2.4408674,-9.54751,1.3329809,1002.8528,5.750265481782724,1002.8571756171823,0,0
25.62,2.4312649,-9.547509,1.2951018,1002.8703,5.7502380152644825,1002.8571504571353,0,0
25.64,2.3929834,-9.609473,1.2808945,1002.8578,5.75026723833475,1002.8571305640722,0,0
25.66,2.4072824,-9.609472,1.2714219999999998,1002.8603,5.750351071989447,1002.857124396531,0,0
25.68,2.459817,-9.552273,1.3045589,1002.86755,5.750404151680138,1002.857156479064,0,0
25.7,2.4310951000000003,-9.528439,1.2856175,1002.8676,5.7503624599877865,1002.8572224238657,0,0
25.72,2.4645107000000004,-9.514138,1.304551,1002.8576,5.7502309218215775,1002.8572820519664,0,0
25.74,2.40711,-9.595169,1.2761407,1002.87286,5.750145402667984,1002.8573908199692,0,0
25.76,2.3927271,-9.561802,1.2761368,1002.8551,5.7500269294236,1002.8574786804246,0,0
25.78,2.3353293,-9.614233,1.2666643,1002.8452,5.7499538654895925,1002.8575121106734,0,0
25.8,2.3496282,-9.614231,1.2382541,1002.8777,5.74992074920382,1002.8576143260428,0,0
25.82,2.3734815,-9.595164,1.3424067,1002.8327,5.749924631298374,1002.8576149519696,0,0
25.84,2.287402,-9.623762,1.2240428,1002.8578,5.749944999218742,1002.8576161712112,0,0
25.86,2.2108846,-9.709559,1.4134152,1002.8375,5.750168140367478,1002.8575448303168,0,0
25.88,2.2267650000000003,-9.5809,1.399353,1002.8478,5.7503148494352185,1002.8574467121132,0,0
25.9,2.078609,-9.6095,1.4230267,1002.8476,5.75039117215592,1002.8573245667053,0,0
25.92,2.193342,-9.7191305,1.3520123,1002.8375,5.750655834110472,1002.8571452705822,0,0
25.94,2.3797734,-9.590434,1.328342,1002.8576,5.750909932230666,1002.8569884815539,0,0
25.96,2.3224335,-9.580902,1.1152953,1002.8929,5.751052115014006,1002.8569792242353,0,0
25.98,2.676159,-9.504639,1.1389693,1002.8703,5.751133197249701,1002.8570189992607,0,0
26.0,2.7335346,-9.547538,1.1484396,1002.83514,5.751279822167424,1002.8569753800764,0,0
26.02,2.4945633,-9.552304,0.9922061,1002.87537,5.751328073694869,1002.8570030587964,0,0
26.04,2.4133246,-9.542771,1.1863183000000002,1002.8502,5.751272687958281,1002.857003024702,0,0
26.06,2.2603898,-9.561838,1.0442879,1002.8452,5.7510558601503385,1002.8569605036873,0,0
26.08,2.155252,-9.700069,1.0206175,1002.8729,5.7509220073888505,1002.8569803143052,0,0
26.1,2.1026945,-9.652404,1.0821666,1002.8477,5.750755896164034,1002.8569644098358,0,0
26.12,2.2508862,-9.642871,1.1579187,1002.8502,5.750627750711043,1002.8569260047713,0,0
26.14,2.2843628,-9.642871,1.1105763000000002,1002.8576,5.750538243883412,1002.8568944964387,0,0
