Timestamp,Ax,Ay,Az,P,Value,Type
0.0,3.8414924,4.807575,7.647817599999999,1004.7424,0,0
0.04,3.7268116,4.5835457,7.288006299999997,1004.77277,0,0
0.08,4.0470905,4.81234,8.050249,1004.775,0,0
0.12,3.7890089,4.7599072,7.463185,1004.78284,0,0
0.16,4.1714253,4.921969,7.808799700000002,1004.76495,0,0
0.2,3.88468,4.7170067000000016,7.524739,1004.7627,0,0
0.24,4.2145123,4.9601,7.09391,1004.7704,0,0
0.28,4.090269,4.469144,7.022897200000001,1004.7652,0,0
0.32,4.60174,4.6645722,6.1849110000000005,1004.74255,0,0
0.36,4.453603,4.0878177,5.1575484000000005,1004.7273,0,0
0.4,4.7213035,3.0344083,6.1517763,1004.7476,0,0
0.44,2.513071,-1.4556893,1.1806543,1004.6918,0,0
0.48,6.4182024,2.3241897,3.339546,1004.6817,0,0
0.52,5.624789,1.2755461,5.7162204,1004.7473,0,0
0.56,2.0208497,-0.89323825,4.3243084000000005,1004.77765,0,0
0.6,3.2540734,-2.3375058,1.4789339,1004.77264,0,0
0.64,4.3486824,-4.430025,6.932971,1004.82806,0,0
0.68,4.0141300000000015,-7.2613606,6.53055,1004.8104,0,0
0.72,11.437201,-5.612133,6.019238,1004.7322,0,0
0.76,12.388415,-6.9134035,7.837252,1004.7624,0,0
0.8,16.121475,-5.874295,4.5847190000000015,1004.7094,0,0
0.84,16.957973000000006,-6.0697246,5.0202875,1004.7573,0,0
0.88,15.504947,-5.3070765,-1.0255446,1004.7219,0,0
0.92,14.233555,-5.388109,-1.0870886,1004.6864,0,0
0.96,13.071138,-5.3833194,-2.7773554,1004.69403,0,0
1.0,9.218613,-8.6770115,-0.14976123,1004.7343,0,0
1.04,7.6938520000000015,-10.71233,2.501505,1004.7624,0,0
1.08,8.1909485,-8.576913000000001,1.5782958,1004.7546,0,0
1.12,6.1356287000000025,-9.325262,2.028064,1004.74475,0,0
1.16,6.8095765,-6.0411043,2.0138602,1004.80505,0,0
1.2,7.7416344,-5.8933405999999975,16.875154000000002,1004.8151,0,0
1.24,6.0973783,-6.2460656,-0.33440506,1004.8155,0,0
1.28,6.0113378,-6.7131880000000015,6.970781,1004.8231,0,0
1.32,2.3308856,-1.4938083,2.013859,1004.8202,0,0
1.36,3.5545117999999993,-2.2945898,3.571478,1004.795,0,0
1.4,5.7484374,-2.5472171,3.694572,1004.7898,0,0
1.44,5.7579937,-3.257434,2.1038117,1004.8202,0,0
1.48,9.572274,-7.07068,4.1254019999999985,1004.82263,0,0
1.52,6.6804875999999975,-5.9839044,3.1453803,1004.84534,0,0
1.56,6.226403,-7.9000607,2.0990763,1004.86816,0,0
1.6,7.5790834,-8.75804,1.8812932,1004.8731,0,0
1.64,7.6173186,-11.203284,1.1521946,1004.85034,0,0
1.68,3.1625376,-10.340537,1.3699769,1004.8755,0,0
1.72,1.2745113,-8.877203999999997,2.2695134,1004.99426,0,0
1.76,10.179282,-5.7169766,1.7818693,1005.22156,0,0
1.8,3.6309469,-7.761829400000001,-0.040876795,1005.1282,0,0
1.84,4.6299220000000005,-6.2269983,0.29053122,1004.88574,0,0
1.88,3.8508108,-8.267083999999999,0.5603918999999999,1004.8756,0,0
1.92,0.95424575,-9.859114,1.9665098,1004.84283,0,0
1.96,2.326875,-11.875389,0.5557327,1005.03705,0,0
2.0,-0.670033,-17.66199,0.26220232,1005.2392,0,0
2.04,2.2456748,-13.429287,-0.21597008,1005.22687,0,0
2.08,2.5563931,-9.987834,3.2638204,1004.5928,0,0
2.12,-0.27322352,-6.57498,0.75458825,1004.29205,0,0
2.16,3.3403375,-9.849605,-1.607877,1004.51434,0,0
2.2,1.1177577,-8.324308,3.1644056000000003,1004.5043,0,0
2.24,3.6988795,-9.868672,2.3264184,1004.5422,0,0
2.28,3.5746355000000003,-8.796199,1.715683,1004.74176,0,0
2.32,3.1444805,-7.3995976,2.9797719,1004.8601,0,0
2.36,5.233283,-7.7999887,3.046056,1004.9638,0,0
2.4,3.698996,-7.6331606,1.7393628,1004.67334,0,0
2.44,3.005952,-8.13365,3.2164998,1004.67596,0,0
2.48,3.3883634,-8.510208,4.4569163,1004.7414,0,0
2.52,3.417073,-6.7370496,4.688905,1004.6733,0,0
2.56,2.3177474,-5.840937,3.4106185,1004.7111,0,0
2.6,2.18872,-13.005074,4.3811736,1004.80725,0,0
2.64,3.6035714,-9.291926,1.0812963,1004.7668,0,0
2.68,7.403544,-22.533422,1.256472,1004.80475,0,0
2.72,3.7565813,-9.015467999999998,1.4458507,1004.8932,0,0
2.76,3.8330894,-10.393004,0.74042726,1004.95624,0,0
2.8,3.6514804,-9.882982,1.1144473999999998,1004.9991,0,0
2.84,2.203231,-9.258564,0.9771526,1004.989,0,0
2.88,1.8304353,-9.044069,0.5321210999999999,1004.91327,0,0
2.92,1.7778866999999998,-9.892517,0.95822024,1004.81464,0,0
2.96,1.858981,-10.221406,0.6930786999999999,1004.8375,0,0
3.0,0.16695197,-9.239495,1.2185996,1004.792,0,0
3.04,0.9938783,-10.707596,0.12495394,1004.7643,0,0
3.08,-0.019417256,-10.440669,-0.28220270000000003,1004.79456,0,0
3.12,-0.39700156,-10.36917,-1.2101444,1004.8023,0,0
3.16,0.4155867,-9.082202,-0.8976715000000001,1004.82996,0,0
3.2,0.5351034,-8.972571,1.2138748,1004.8377,0,0
3.24,0.18141939,-10.006914,-0.33900782,1004.85785,0,0
3.28,1.2473359,-9.968783,-1.5604825,1004.8098,0,0
3.32,1.0609436,-9.434928,-1.6078246,1004.75934,0,0
3.36,0.38701427,-9.840086,-1.0302252,1004.7744,0,0
3.4,0.15282415,-9.492128,-1.5841488,1004.8324,0,0
3.44,-0.85569286,-9.311,-1.4089738,1004.85785,0,0
3.48,-0.913029,-9.6494255,-0.873984,1004.8703,0,0
3.52,-0.3346525,-9.420631,-1.7877221,1004.79974,0,0
3.56,-0.44934756,-9.358666,-0.4242118,1004.7796,0,0
3.6,-0.11951822,-9.887755,-0.92132217,1004.7844,0,0
3.64,-0.05735918,-9.759059,-1.607809,1004.7666,0,0
3.68,-0.08123664,-9.787659,-1.2527267,1004.80963,0,0
3.72,0.63097435,-9.210906,-0.70353377,1004.8148,0,0
3.76,1.1376551,-9.592231,-1.5746623,1004.83997,0,0
3.8,0.81265,-9.630363,-1.863459,1004.81226,0,0
3.84,1.4579437,-10.068887,-1.9250045,1004.79956,0,0
3.88,1.3145711000000002,-9.735229,-1.953409,1004.8252,0,0
3.92,0.7075577,-9.849627,-2.9571006,1004.8148,0,0
3.96,0.7401113,-9.821006,-1.267001,1004.80725,0,0
4.0,-0.12026764,-9.515945,-1.3285496,1004.8452,0,0
4.04,-0.07248388,-9.487346,0.49892935,1004.8251,0,0
4.08,1.4665968,-10.412057,-1.3522245000000002,1004.77686,0,0
4.12,1.3184076999999998,-9.878202,-1.8966823,1004.77924,0,0
4.16,1.2275771,-9.458745,-1.1439133999999995,1004.80963,0,0
4.2,1.5191319,-10.211862,-0.93560076,1004.79956,0,0
4.24,1.241886,-9.125085,-0.5000371,1004.8071,0,0
4.28,1.4378438,-9.787637,-1.0018853,1004.81995,0,0
4.32,1.3135527,-9.558842,-0.8551201999999999,1004.8022,0,0
4.36,2.3746548,-9.577908,-0.5237132000000001,1004.78937,0,0
4.4,2.1499900000000003,-9.3491125,-0.31066626,1004.75903,0,0
4.44,0.8785458,-10.340555,-1.1344543,1004.81226,0,0
4.48,0.6299818,-9.840067,-0.5379205,1004.80963,0,0
4.52,1.2656795,-9.40631,-0.42903063,1004.8096,0,0
4.56,1.1891884,-9.458741,-0.41482872,1004.8121,0,0
4.6,0.8306878000000001,-9.997362,-0.50951827,1004.81714,0,0
4.64,1.040985,-9.754268,-0.036079068,1004.80475,0,0
4.68,1.1461253999999998,-9.768566,-0.6704906999999999,1004.82214,0,0
4.72,1.0935313999999998,-9.754267,0.1296222,1004.7995,0,0
4.76,1.0361594,-10.130824,0.18169937,1004.8048,0,0
4.8,0.5342649,-9.916328,-0.92141825,1004.7972,0,0
4.84,0.7015428000000001,-9.749499,-0.21599345,1004.77924,0,0
4.88,1.007436,-9.911562,0.053866345,1004.7947,0,0
4.92,0.8831468000000001,-9.8543625,0.04913064,1004.82745,0,0
4.96,0.74072784,-9.844853,0.30961215,1004.8121,0,0
5.0,0.68339276,-9.801955,0.19125411,1004.79443,0,0
5.04,0.6499583000000001,-9.863921,0.3569605,1004.82715,0,0
5.08,0.61652374,-9.90682,0.32855624,1004.8324,0,0
5.12,0.7312616,-9.964019,0.25754225,1004.8098,0,0
5.16,0.6356896,-9.849623,0.34749815,1004.81714,0,0
5.2,0.78388774,-9.892523,0.26701546,1004.8121,0,0
5.24,0.6644167,-9.792425,0.20073599,1004.83466,0,0
5.28,0.7839359,-9.859158,0.14865975,1004.8297,0,0
5.32,0.9464733,-9.763826,0.18653719,1004.82965,0,0
5.36,1.0516530000000002,-9.825792,0.11552334,1004.8374,0,0
5.4,1.1472732,-9.863926,0.18180722,1004.81976,0,0
5.44,1.0851583,-9.787662,0.21968451,1004.82983,0,0
5.48,1.1043001,-9.801962,0.26703063,1004.8145,0,0
5.52,1.1043257,-9.711398,0.30490825,1004.8045,0,0
5.56,1.051769,-9.706632,0.36172304,1004.8018,0,0
5.6,1.0326755,-9.821031,0.36172536,1004.80707,0,0
5.64,0.9657808,-9.859162,0.37119624,1004.8045,0,0
5.68,0.9944851999999998,-9.86393,0.37593296,1004.80676,0,0
5.72,0.88457376,-9.811499,0.385404,1004.8145,0,0
5.76,0.8415781999999999,-9.787666,0.5037662,1004.8497,0,0
5.8,0.98021513,-9.716169,0.44695538,1004.845,0,0
5.84,1.0328186,-9.801967,0.42802012,1004.822,0,0
5.88,0.98026484,-9.835334,0.38067827,1004.8144,0,0
5.92,0.9420504,-9.797202,0.34753966,1004.82983,0,0
5.96,0.84641296,-9.754302,0.41855192,1004.8195,0,0
6.0,0.8798904000000001,-9.744769,0.48956972,1004.80927,0,0
6.04,3.8414924,4.807575,7.647817599999999,1004.7424,0,0
6.08,3.7268116,4.5835457,7.288006299999997,1004.77277,0,0
6.12,4.0470905,4.81234,8.050249,1004.775,0,0
6.16,3.7890089,4.7599072,7.463185,1004.78284,0,0
6.2,4.1714253,4.921969,7.808799700000002,1004.76495,0,0
6.24,3.88468,4.7170067000000016,7.524739,1004.7627,0,0
6.28,4.2145123,4.9601,7.09391,1004.7704,0,0
6.32,4.090269,4.469144,7.022897200000001,1004.7652,0,0
6.36,4.60174,4.6645722,6.1849110000000005,1004.74255,0,0
6.4,4.453603,4.0878177,5.1575484000000005,1004.7273,0,0
6.44,4.7213035,3.0344083,6.1517763,1004.7476,0,0
6.48,2.513071,-1.4556893,1.1806543,1004.6918,0,0
6.52,6.4182024,2.3241897,3.339546,1004.6817,0,0
6.56,5.624789,1.2755461,5.7162204,1004.7473,0,0
6.6,2.0208497,-0.89323825,4.3243084000000005,1004.77765,0,0
6.64,3.2540734,-2.3375058,1.4789339,1004.77264,0,0
6.68,4.3486824,-4.430025,6.932971,1004.82806,0,0
6.72,4.0141300000000015,-7.2613606,6.53055,1004.8104,0,0
6.76,11.437201,-5.612133,6.019238,1004.7322,0,0
6.8,12.388415,-6.9134035,7.837252,1004.7624,0,0
6.84,16.121475,-5.874295,4.5847190000000015,1004.7094,0,0
6.88,16.957973000000006,-6.0697246,5.0202875,1004.7573,0,0
6.92,15.504947,-5.3070765,-1.0255446,1004.7219,0,0
6.96,14.233555,-5.388109,-1.0870886,1004.6864,0,0
7.0,13.071138,-5.3833194,-2.7773554,1004.69403,0,0
7.04,9.218613,-8.6770115,-0.14976123,1004.7343,0,0
7.08,7.6938520000000015,-10.71233,2.501505,1004.7624,0,0
7.12,8.1909485,-8.576913000000001,1.5782958,1004.7546,0,0
7.16,6.1356287000000025,-9.325262,2.028064,1004.74475,0,0
7.2,6.8095765,-6.0411043,2.0138602,1004.80505,0,0
7.24,7.7416344,-5.8933405999999975,16.875154000000002,1004.8151,0,0
7.28,6.0973783,-6.2460656,-0.33440506,1004.8155,0,0
7.32,6.0113378,-6.7131880000000015,6.970781,1004.8231,0,0
7.36,2.3308856,-1.4938083,2.013859,1004.8202,0,0
7.4,3.5545117999999993,-2.2945898,3.571478,1004.795,0,0
7.44,5.7484374,-2.5472171,3.694572,1004.7898,0,0
7.48,5.7579937,-3.257434,2.1038117,1004.8202,0,0
7.52,9.572274,-7.07068,4.1254019999999985,1004.82263,0,0
7.56,6.6804875999999975,-5.9839044,3.1453803,1004.84534,0,0
7.6,6.226403,-7.9000607,2.0990763,1004.86816,0,0
7.64,7.5790834,-8.75804,1.8812932,1004.8731,0,0
7.68,7.6173186,-11.203284,1.1521946,1004.85034,0,0
7.72,3.1625376,-10.340537,1.3699769,1004.8755,0,0
7.76,1.2745113,-8.877203999999997,2.2695134,1004.99426,0,0
7.8,10.179282,-5.7169766,1.7818693,1005.22156,0,0
7.84,3.6309469,-7.761829400000001,-0.040876795,1005.1282,0,0
7.88,4.6299220000000005,-6.2269983,0.29053122,1004.88574,0,0
7.92,3.8508108,-8.267083999999999,0.5603918999999999,1004.8756,0,0
7.96,0.95424575,-9.859114,1.9665098,1004.84283,0,0
8.0,2.326875,-11.875389,0.5557327,1005.03705,0,0
8.04,-0.670033,-17.66199,0.26220232,1005.2392,0,0
8.08,2.2456748,-13.429287,-0.21597008,1005.22687,0,0
8.12,2.5563931,-9.987834,3.2638204,1004.5928,0,0
8.16,-0.27322352,-6.57498,0.75458825,1004.29205,0,0
8.2,3.3403375,-9.849605,-1.607877,1004.51434,0,0
8.24,1.1177577,-8.324308,3.1644056000000003,1004.5043,0,0
8.28,3.6988795,-9.868672,2.3264184,1004.5422,0,0
8.32,3.5746355000000003,-8.796199,1.715683,1004.74176,0,0
8.36,3.1444805,-7.3995976,2.9797719,1004.8601,0,0
8.4,5.233283,-7.7999887,3.046056,1004.9638,0,0
8.44,3.698996,-7.6331606,1.7393628,1004.67334,0,0
8.48,3.005952,-8.13365,3.2164998,1004.67596,0,0
8.52,3.3883634,-8.510208,4.4569163,1004.7414,0,0
8.56,3.417073,-6.7370496,4.688905,1004.6733,0,0
8.6,2.3177474,-5.840937,3.4106185,1004.7111,0,0
8.64,2.18872,-13.005074,4.3811736,1004.80725,0,0
8.68,3.6035714,-9.291926,1.0812963,1004.7668,0,0
8.72,7.403544,-22.533422,1.256472,1004.80475,0,0
8.76,3.7565813,-9.015467999999998,1.4458507,1004.8932,0,0
8.8,3.8330894,-10.393004,0.74042726,1004.95624,0,0
8.84,3.6514804,-9.882982,1.1144473999999998,1004.9991,0,0
8.88,2.203231,-9.258564,0.9771526,1004.989,0,0
8.92,1.8304353,-9.044069,0.5321210999999999,1004.91327,0,0
8.96,1.7778866999999998,-9.892517,0.95822024,1004.81464,0,0
9.0,1.858981,-10.221406,0.6930786999999999,1004.8375,0,0
9.04,0.16695197,-9.239495,1.2185996,1004.792,0,0
9.08,0.9938783,-10.707596,0.12495394,1004.7643,0,0
9.12,-0.019417256,-10.440669,-0.28220270000000003,1004.79456,0,0
9.16,-0.39700156,-10.36917,-1.2101444,1004.8023,0,0
9.2,0.4155867,-9.082202,-0.8976715000000001,1004.82996,0,0
9.24,0.5351034,-8.972571,1.2138748,1004.8377,0,0
9.28,0.18141939,-10.006914,-0.33900782,1004.85785,0,0
9.32,1.2473359,-9.968783,-1.5604825,1004.8098,0,0
9.36,1.0609436,-9.434928,-1.6078246,1004.75934,0,0
9.4,0.38701427,-9.840086,-1.0302252,1004.7744,0,0
9.44,0.15282415,-9.492128,-1.5841488,1004.8324,0,0
9.48,-0.85569286,-9.311,-1.4089738,1004.85785,0,0
9.52,-0.913029,-9.6494255,-0.873984,1004.8703,0,0
9.56,-0.3346525,-9.420631,-1.7877221,1004.79974,0,0
9.6,-0.44934756,-9.358666,-0.4242118,1004.7796,0,0
9.64,-0.11951822,-9.887755,-0.92132217,1004.7844,0,0
9.68,-0.05735918,-9.759059,-1.607809,1004.7666,0,0
9.72,-0.08123664,-9.787659,-1.2527267,1004.80963,0,0
9.76,0.63097435,-9.210906,-0.70353377,1004.8148,0,0
9.8,1.1376551,-9.592231,-1.5746623,1004.83997,0,0
9.84,0.81265,-9.630363,-1.863459,1004.81226,0,0
9.88,1.4579437,-10.068887,-1.9250045,1004.79956,0,0
9.92,1.3145711000000002,-9.735229,-1.953409,1004.8252,0,0
9.96,0.7075577,-9.849627,-2.9571006,1004.8148,0,0
10.0,0.7401113,-9.821006,-1.267001,1004.80725,0,0
10.04,-0.12026764,-9.515945,-1.3285496,1004.8452,0,0
10.08,-0.07248388,-9.487346,0.49892935,1004.8251,0,0
10.12,1.4665968,-10.412057,-1.3522245000000002,1004.77686,0,0
10.16,1.3184076999999998,-9.878202,-1.8966823,1004.77924,0,0
10.2,1.2275771,-9.458745,-1.1439133999999995,1004.80963,0,0
10.24,1.5191319,-10.211862,-0.93560076,1004.79956,0,0
10.28,1.241886,-9.125085,-0.5000371,1004.8071,0,0
10.32,1.4378438,-9.787637,-1.0018853,1004.81995,0,0
10.36,1.3135527,-9.558842,-0.8551201999999999,1004.8022,0,0
10.4,2.3746548,-9.577908,-0.5237132000000001,1004.78937,0,0
10.44,2.1499900000000003,-9.3491125,-0.31066626,1004.75903,0,0
10.48,0.8785458,-10.340555,-1.1344543,1004.81226,0,0
10.52,0.6299818,-9.840067,-0.5379205,1004.80963,0,0
10.56,1.2656795,-9.40631,-0.42903063,1004.8096,0,0
10.6,1.1891884,-9.458741,-0.41482872,1004.8121,0,0
10.64,0.8306878000000001,-9.997362,-0.50951827,1004.81714,0,0
10.68,1.040985,-9.754268,-0.036079068,1004.80475,0,0
10.72,1.1461253999999998,-9.768566,-0.6704906999999999,1004.82214,0,0
10.76,1.0935313999999998,-9.754267,0.1296222,1004.7995,0,0
10.8,1.0361594,-10.130824,0.18169937,1004.8048,0,0
10.84,0.5342649,-9.916328,-0.92141825,1004.7972,0,0
10.88,0.7015428000000001,-9.749499,-0.21599345,1004.77924,0,0
10.92,1.007436,-9.911562,0.053866345,1004.7947,0,0
10.96,0.8831468000000001,-9.8543625,0.04913064,1004.82745,0,0
11.0,0.74072784,-9.844853,0.30961215,1004.8121,0,0
11.04,0.68339276,-9.801955,0.19125411,1004.79443,0,0
11.08,0.6499583000000001,-9.863921,0.3569605,1004.82715,0,0
11.12,0.61652374,-9.90682,0.32855624,1004.8324,0,0
11.16,0.7312616,-9.964019,0.25754225,1004.8098,0,0
11.2,0.6356896,-9.849623,0.34749815,1004.81714,0,0
11.24,0.78388774,-9.892523,0.26701546,1004.8121,0,0
11.28,0.6644167,-9.792425,0.20073599,1004.83466,0,0
11.32,0.7839359,-9.859158,0.14865975,1004.8297,0,0
11.36,0.9464733,-9.763826,0.18653719,1004.82965,0,0
11.4,1.0516530000000002,-9.825792,0.11552334,1004.8374,0,0
11.44,1.1472732,-9.863926,0.18180722,1004.81976,0,0
11.48,1.0851583,-9.787662,0.21968451,1004.82983,0,0
11.52,1.1043001,-9.801962,0.26703063,1004.8145,0,0
11.56,1.1043257,-9.711398,0.30490825,1004.8045,0,0
11.6,1.051769,-9.706632,0.36172304,1004.8018,0,0
11.64,1.0326755,-9.821031,0.36172536,1004.80707,0,0
11.68,0.9657808,-9.859162,0.37119624,1004.8045,0,0
11.72,0.9944851999999998,-9.86393,0.37593296,1004.80676,0,0
11.76,0.88457376,-9.811499,0.385404,1004.8145,0,0
11.8,0.8415781999999999,-9.787666,0.5037662,1004.8497,0,0
11.84,0.98021513,-9.716169,0.44695538,1004.845,0,0
11.88,1.0328186,-9.801967,0.42802012,1004.822,0,0
11.92,0.98026484,-9.835334,0.38067827,1004.8144,0,0
11.96,0.9420504,-9.797202,0.34753966,1004.82983,0,0
12.0,0.84641296,-9.754302,0.41855192,1004.8195,0,0
12.04,0.8798904000000001,-9.744769,0.48956972,1004.80927,0,0
12.08,0.9755108,-9.801969,0.56058806,1004.8017,0,0
12.12,1.0615673,-9.835335,0.37121367,1004.7964,0,0
12.16,0.9659917,-9.806736,0.48957568,1004.7889,0,0
12.2,0.94211406,-9.873467,0.41382715,1004.804,0,0
12.24,0.9516966999999998,-9.878236,0.39015722,1004.8218,0,0
12.28,1.0186354,-9.682807,0.51798815,1004.8471,0,0
12.32,1.1524901,-9.782905,0.41856748,1004.8091,0,0
12.36,1.0951527,-9.759072,0.47538215,1004.799,0,0
12.4,1.0091391,-9.792439,0.43277466,1004.8218,0,0
12.44,0.99481994,-9.825806,0.3380884,1004.81146,0,0
12.48,0.9470436,-9.859172,0.38543442,1004.8092,0,0
12.52,0.8419081,-9.740009,0.522734,1004.77606,0,0
12.56,1.0331217,-9.801974,0.48959512,1004.8115,0,0
12.6,0.9232078,-9.821042,0.5227379,1004.80646,0,0
12.64,0.9614665,-9.849641,0.4185829000000001,1004.81396,0,0
12.68,0.8754514999999999,-9.79721,0.4469913,1004.81647,0,0
12.72,0.99974805,-9.849643,0.42332125,1004.8215,0,0
12.76,0.97587055,-9.821044,0.37597916,1004.8089,0,0
12.8,0.9280941,-9.82581,0.4706692,1004.8162,0,0
12.84,0.9089964,-9.8162775,0.46593678,1004.7885,0,0
12.88,0.8898974000000001,-9.835345,0.49434507,1004.84174,0,0
12.92,0.9329372,-9.744781,0.5416911,1004.8389,0,0
12.96,0.95207804,-9.835346,0.4896146,1004.8367,0,0
13.0,0.97519857,-9.821028,0.48480895,1004.79596,0,0
13.04,1.0994632,-9.806727,0.5037456,1004.80365,0,0
13.08,1.0612146,-9.787661,0.5226823,1004.8163,0,0
13.12,1.0134071,-9.744761,0.47533742,1004.8238,0,0
13.16,1.0755343000000002,-9.792427,0.48480532,1004.81116,0,0
13.2,1.0994233,-9.835325,0.47060114,1004.80865,0,0
13.24,1.0802938,-9.830559,0.4563970000000001,1004.80096,0,0
13.28,1.0516048999999998,-9.77336,0.38538,1004.7959,0,0
13.32,1.0611544,-9.806726,0.43272313,1004.79083,0,0
13.36,1.0611441,-9.811491,0.4232534000000001,1004.8288,0,0
13.4,0.9750983,-9.835324,0.48006538,1004.81366,0,0
13.44,0.9894275,-9.768592,0.4563924,1004.8134,0,0
13.48,1.0085372,-9.82579,0.47059476,1004.83887,0,0
13.52,1.0228659,-9.797191,0.48953137,1004.79565,0,0
13.56,1.1041128999999998,-9.81149,0.4469209,1004.81586,0,0
13.6,1.1327816000000002,-9.81149,0.4090447,1004.79565,0,0
13.64,1.2044686000000002,-9.778123,0.45165345,1004.81586,0,0
13.68,1.1088629,-9.849622,0.45165256,1004.8007,0,0
13.72,1.0801733999999998,-9.816256,0.39957312,1004.80316,0,0
13.76,1.0467058,-9.816256,0.3711659,1004.80835,0,0
13.8,1.0897133,-9.763823,0.3901025,1004.82104,0,0
13.84,1.1852992,-9.759056,0.3143511,1004.81067,0,0
13.88,1.2808851,-9.778122,0.31908458,1004.81067,0,0
13.92,1.3334541000000002,-9.778122,0.23386449,1004.80817,0,0
13.96,1.3477827,-9.744757,0.3380204,1004.81067,0,0
14.0,1.2916948,-9.821053,0.3002614,1004.8131,0,0
14.04,1.2200383999999995,-9.81152,0.31446832,1004.79803,0,0
14.08,1.1961773999999998,-9.82582,0.35708144,1004.7729,0,0
14.12,1.1101866000000002,-9.811522,0.36182004,1004.78296,0,0
14.16,1.2344996,-9.720959,0.37602672,1004.8078,0,0
14.2,1.1580607,-9.840122,0.48018712,1004.81067,0,0
14.24,1.1772205,-9.801991,0.3334243,1004.80286,0,0
14.28,1.2346188,-9.80676,0.30502158,1004.8305,0,0
14.32,1.182079,-9.7829275,0.41865078,1004.79755,0,0
14.36,1.3016173,-9.778162,0.3949827,1004.818,0,0
14.4,1.3446733999999998,-9.840128,0.29082927,1004.818,0,0
14.44,1.3351544,-9.749564,0.39025548,1004.7951,0,0
14.48,1.3686512,-9.7448,0.4091966,1004.7851,0,0
14.52,1.2683183,-9.792466,0.31924686,1004.78754,0,0
14.56,1.3209342,-9.763867,0.37132877,1004.8051,0,0
14.6,1.344874,-9.811534,0.31925404,1004.7849,0,0
14.64,1.2493185,-9.797235,0.38080502,1004.7849,0,0
14.68,1.2254599,-9.759104,0.41394958,1004.77747,0,0
14.72,1.2685137,-9.816303,0.44709367,1004.8076,0,0
14.76,1.1538416,-9.759106,0.48023844,1004.7797,0,0
14.8,1.2016802,-9.759107,0.4660389,1004.7822,0,0
14.84,1.1491379,-9.7686405,0.43290135,1004.7926,0,0
14.88,1.2256553,-9.787708,0.41870186,1004.7848,0,0
14.92,1.1587787,-9.740043,0.42817438,1004.79486,0,0
14.96,1.1492621,-9.806776,0.42344394,1004.80237,0,0
15.0,1.2449284,-9.787712,0.47079438,1004.78723,0,0
15.04,1.1493767,-9.835379,0.3903136,1004.8,0,0
15.08,1.1159573,-9.797246,0.39031717,1004.80255,0,0
15.12,1.0968801,-9.787715,0.48027468,1004.84033,0,0
15.16,1.0586808,-9.792482,0.45660627,1004.7997,0,0
15.2,1.0778393,-9.76865,0.45660987,1004.82495,0,0
15.24,1.1065625,-9.768651,0.39980108,1004.79456,0,0
15.28,1.1543972,-9.802018,0.39980444,1004.80725,0,0
15.32,1.120983,-9.740054,0.4329492999999999,1004.7745,0,0
15.36,1.1210248,-9.792488,0.4092811,1004.79456,0,0
15.4,1.0780458,-9.806788,0.47083196,1004.7997,0,0
15.44,1.1067692,-9.759124,0.5276489000000001,1004.8022,0,0
15.48,1.0924665,-9.825856,0.43769854,1004.807,0,0
15.52,1.016034,-9.763891,0.5750004,1004.82465,0,0
15.56,0.8440004000000001,-9.802026,0.5039879,1004.8096,0,0
15.6,0.84404224,-9.821093,0.5229292999999999,1004.80725,0,0
15.64,0.8297447,-9.802028,0.5134644,1004.82214,0,0
15.68,0.8250066999999999,-9.84016,0.49926502,1004.7944,0,0
15.72,0.7772479999999999,-9.863995,0.5324094,1004.85754,0,0
15.76,0.90156466,-9.773431,0.46613157,1004.79694,0,0
15.8,0.8346893,-9.840163,0.5040106,1004.80457,0,0
15.84,0.89687127,-9.782966,0.42826426,1004.81464,0,0
15.88,0.83477306,-9.797266,0.5087527000000001,1004.8447,0,0
15.92,0.8061361,-9.792501,0.4519437,1004.8121,0,0
15.96,0.8922145,-9.806803,0.5608388000000001,1004.80927,0,0
16.0,0.91137546,-9.821103,0.5087642,1004.8196,0,0
16.04,0.9831092,-9.759139,0.4330170999999999,1004.8246,0,0
16.08,0.91623384,-9.864004,0.45669296,1004.822,0,0
16.12,0.93539745,-9.782973,0.37621215,1004.82184,0,0
16.16,0.99757415,-9.782974,0.45196623,1004.7914,0,0
16.2,0.98327917,-9.773442,0.39989185,1004.809,0,0
16.24,0.9594168,-9.811575,0.37622315,1004.81177,0,0
16.28,0.88298446,-9.82111,0.39989927,1004.8166,0,0
16.32,0.9260419,-9.816344,0.39043403,1004.81195,0,0
16.36,0.8830629000000001,-9.821112,0.40937525,1004.8269,0,0
16.4,0.9548045,-9.821113,0.3857073,1004.8318,0,0
16.44,0.9930847,-9.778214,0.45199278,1004.81683,0,0
16.48,1.031365,-9.802049,0.45673102,1004.8141,0,0
16.52,1.0457462,-9.773451,0.48987564,1004.79364,0,0
16.56,0.9873857,-9.802026,0.4992527,1004.8066,0,0
16.6,0.9491634,-9.763892,0.49451977,1004.8218,0,0
16.64,0.9252787,-9.835392,0.44244263,1004.8037,0,0
16.68,0.82013816,-9.821093,0.5702729,1004.81885,0,0
16.72,0.7532361999999999,-9.835393,0.49452382,1004.80896,0,0
16.76,0.8058283,-9.782961,0.47085315,1004.8064,0,0
16.8,0.85842127,-9.835394,0.4519169,1004.80414,0,0
16.84,0.915795,-9.816327,0.42824635,1004.8241,0,0
16.88,0.8871296000000001,-9.806795,0.41404438,1004.81146,0,0
16.92,0.8680256,-9.811562,0.39510816,1004.8014,0,0
16.96,0.84414274,-9.825862,0.48032892,1004.80365,0,0
17.0,0.89195496,-9.749597,0.4803302,1004.82654,0,0
17.04,0.777254,-9.797262,0.47086272,1004.8112,0,0
17.08,0.8346278,-9.797263,0.4519266,1004.8241,0,0
17.12,0.9828169,-9.859229,0.42352155,1004.8112,0,0
17.16,1.0449686,-9.782964,0.35724115,1004.824,0,0
17.2,1.016305,-9.763898,0.32410175,1004.8038,0,0
17.24,1.0736778,-9.835398,0.36671278,1004.81885,0,0
17.28,1.1214911,-9.773433,0.36197975,1004.82635,0,0
17.32,1.0737072,-9.802032,0.32410583,1004.8163,0,0
17.36,1.135859,-9.802032,0.42826402,1004.8009,0,0
17.4,1.0307186,-9.768667,0.46140623,1004.81604,0,0
17.44,1.0307347,-9.711469,0.39986044,1004.8237,0,0
17.48,0.8969154,-9.797267,0.48034677,1004.8085,0,0
17.52,0.92082876,-9.787734,0.54189533,1004.8034,0,0
17.56,0.9254673,-9.740065,0.51821035,1004.7959,0,0
17.6,0.96371466,-9.868762,0.5229456,1004.8237,0,0
17.64,0.98762196,-9.8020315,0.52294636,1004.8363,0,0
17.68,0.89681405,-9.744833,0.58449435,1004.82104,0,0
17.72,0.7390899000000001,-9.759132,0.57502645,1004.80304,0,0
17.76,0.56702536,-9.902128,0.53241754,1004.811,0,0
17.8,0.3471632,-9.902129,0.6271064000000001,1004.8107,0,0
17.84,0.30415386,-9.883064,0.5324191999999999,1004.8159,0,0
17.88,0.43321753,-9.825865,0.5182167000000001,1004.8386,0,0
17.92,0.648317,-9.816332,0.50401425,1004.8234,0,0
17.96,0.88253623,-9.802033,0.46140546,1004.81085,0,0
18.0,1.00682,-9.802033,0.4661407,1004.82355,0,0
18.04,1.0833056,-9.782967,0.3619845999999999,1004.8184,0,0
18.08,1.1311127,-9.825866,0.3146414,1004.8285,0,0
18.12,1.1120017,-9.797266,0.4566742999999999,1004.81067,0,0
18.16,1.1167904,-9.69717,0.4519407,1004.8131,0,0
18.2,1.073781,-9.778201,0.41406626,1004.80817,0,0
18.24,1.0116525,-9.7305355,0.46141112,1004.846,0,0
18.28,1.006881,-9.778201,0.4661463,1004.8511,0,0
18.32,0.9829909,-9.811568,0.3761934,1004.82574,0,0
18.36,1.0451372,-9.792502,0.3714598,1004.82574,0,0
18.4,1.1168431,-9.768669,0.2531005,1004.82825,0,0
18.44,1.0690528,-9.7829685,0.30991408,1004.80304,0,0
18.48,1.0451633,-9.735303,0.36199337,1004.8105,0,0
18.52,1.0164933,-9.806803,0.2815093,1004.7953,0,0
18.56,1.0411541,-9.716256,0.21529740000000008,1004.7875,0,0
18.6,1.06509,-9.868786,0.3573329,1004.7953,0,0
18.64,1.0125514000000002,-9.840188,0.25791398,1004.8307,0,0
18.68,0.84051543,-9.854488,0.31946462,1004.8232,0,0
18.72,0.8166581999999999,-9.854489,0.2768588,1004.82794,0,0
18.76,0.9027315,-9.830658,0.30526862,1004.82825,0,0
18.8,0.9075481,-9.749627,0.3147408,1004.8254,0,0
18.84,0.93626875,-9.844959,0.28160378,1004.8405,0,0
18.88,0.92674845,-9.830661,0.32421705,1004.80023,0,0
18.92,1.0176041,-9.816362,0.34315827,1004.82275,0,0
18.96,1.1323562,-9.82113,0.3194896,1004.8027,0,0
19.0,1.070258,-9.787765,0.40471247,1004.8052,0,0
19.04,1.0607377,-9.806832,0.34790322,1004.8178,0,0
19.08,1.0273135,-9.811599,0.366844,1004.81757,0,0
19.12,0.9986765,-9.821134,0.32897258,1004.84814,0,0
19.16,0.97481686,-9.763935,0.36685142,1004.8178,0,0
19.2,0.9461774,-9.80207,0.3715894,1004.8279,0,0
19.24,0.9653359,-9.821136,0.40473387,1004.81,0,0
19.28,0.9558131,-9.740106,0.35739318,1004.82007,0,0
19.32,0.9462928,-9.802073,0.44261605,1004.79736,0,0
19.36,0.94155234,-9.840205,0.38580683,1004.83295,0,0
19.4,0.93681186,-9.8545065,0.40001366,1004.81506,0,0
19.44,0.8842610999999999,-9.821141,0.3952817,1004.82745,0,0
19.48,0.82217276,-9.821142,0.43316147,1004.8098,0,0
19.52,0.7791938,-9.816377,0.46157146,1004.81006,0,0
19.56,0.80247265,-9.854493,0.44257706,1004.83514,0,0
19.6,0.8072651,-9.802063,0.4804535,1004.8075,0,0
19.64,0.7881547,-9.835428,0.37629735,1004.8249,0,0
19.68,0.75471187,-9.797296,0.47572133,1004.81757,0,0
19.72,0.745161,-9.825896,0.5088629,1004.8274,0,0
19.76,0.7786363000000001,-9.797297,0.48992684,1004.82007,0,0
19.8,0.79298437,-9.80683,0.5751470000000001,1004.81726,0,0
19.84,0.7404191999999999,-9.840197,0.4804600000000001,1004.83496,0,0
19.88,0.81691116,-9.83543,0.45205495,1004.807,0,0
19.92,0.7882458000000001,-9.782998,0.53254104,1004.81464,0,0
19.96,0.8264961,-9.844964,0.54674536,1004.81476,0,0
20.0,0.80260974,-9.868796,0.55148095,1004.8274,0,0
20.04,0.78350323,-9.844964,0.5846229000000001,1004.8449,0,0
20.08,0.75483704,-9.844965,0.5467489000000001,1004.84503,0,0
20.12,0.7883076,-9.825899,0.57042193,1004.82465,0,0
20.16,0.76441807,-9.854498,0.46626592,1004.83496,0,0
20.2,0.74053484,-9.806834,0.49940822,1004.8145,0,0
20.24,0.76444656,-9.802067999999998,0.5420189999999999,1004.8043,0,0
20.28,0.77401567,-9.773468,0.49467584,1004.8045,0,0
20.32,0.77402997,-9.844967,0.52781796,1004.8146,0,0
20.36,0.807502,-9.8306675,0.49467838,1004.827,0,0
20.4,0.7692763000000001,-9.816368,0.52308595,1004.8093,0,0
20.44,0.80274755,-9.797302,0.4662743,1004.80927,0,0
20.48,0.7979789,-9.816369,0.5467602,1004.812,0,0
20.52,0.7597531,-9.797302,0.5088861,1004.837,0,0
20.56,0.8606457000000001,-9.787782,0.49473017,1004.8294,0,0
20.6,0.88934714,-9.768717,0.5278731,1004.8042,0,0
20.64,0.7651114999999999,-9.797317,0.5278767,1004.8294,0,0
20.68,0.7842574999999999,-9.773485,0.51367587,1004.81433,0,0
20.72,0.80819774,-9.835451,0.5042108000000001,1004.8142,0,0
20.76,0.86080664,-9.830686,0.5089481,1004.8294,0,0
20.8,0.9325283,-9.773487,0.44266868,1004.8143,0,0
20.84,0.90866023,-9.8402195,0.47581238,1004.81934,0,0
20.88,0.94216007,-9.8306875,0.47108173,1004.8345,0,0
20.92,0.9087346,-9.821156,0.4947568,1004.81177,0,0
20.96,0.92788464,-9.78779,0.5326348000000001,1004.814,0,0
21.0,0.9565986,-9.783025,0.42848113,1004.8042,0,0
21.04,0.94229215,-9.806859,0.4710938,1004.8038,0,0
21.08,0.96621376,-9.806859,0.51843995,1004.8092,0,0
21.12,0.96147317,-9.802093,0.5089747,1004.8067,0,0
21.16,0.9280495,-9.82116,0.41902423,1004.8316,0,0
21.2,0.97109884,-9.802094,0.46163672,1004.8191,0,0
21.24,0.92332345,-9.821161,0.45216998,1004.79614,0,0
21.28,0.9138072,-9.811629,0.4663772,1004.804,0,0
21.32,0.95207864,-9.759198,0.4663802,1004.79865,0,0
21.36,0.9616712,-9.787798,0.4001015,1004.8087,0,0
21.4,0.9473545,-9.806866,0.42377564,1004.829,0,0
21.44,0.9378279,-9.830699,0.40484107,1004.8112,0,0
21.48,0.9235278,-9.797334,0.40957904,1004.80115,0,0
21.52,0.8662030000000001,-9.802101,0.48533252,1004.81885,0,0
21.56,0.90446824,-9.792569,0.4285221,1004.83136,0,0
21.6,0.93304783,-9.844998,0.42377865,1004.8265,0,0
21.64,0.92830294,-9.816401,0.45692268,1004.7986,0,0
21.68,0.9139897,-9.754435,0.44745624,1004.8265,0,0
21.72,0.8901114999999999,-9.778268,0.5090054,1004.8011,0,0
21.76,0.8758052,-9.811635,0.4474612,1004.81635,0,0
21.8,0.8232553,-9.768736,0.485339,1004.83887,0,0
21.84,0.8758541,-9.830703,0.49954408,1004.8009,0,0
21.88,0.86632067,-9.768738,0.4664057,1004.81616,0,0
21.92,0.93326753,-9.787805,0.45220518,1004.82104,0,0
21.96,0.89983684,-9.783039,0.4569421,1004.81854,0,0
22.0,0.8711841999999999,-9.792573,0.3527876,1004.81616,0,0
22.04,0.8807716,-9.79734,0.4711503,1004.80084,0,0
22.08,0.8951406999999999,-9.778274,0.40013692,1004.82886,0,0
22.12,0.8664879000000001,-9.768742,0.4522178,1004.81866,0,0
22.16,0.8091564,-9.811642,0.44748577,1004.81604,0,0
22.2,0.94302064,-9.802109,0.49956694,1004.8034,0,0
22.24,0.89524883,-9.81641,0.45695966,1004.8234,0,0
22.28,0.914396,-9.797344,0.39541498,1004.836,0,0
22.32,0.9287614,-9.825943,0.47590226,1004.7956,0,0
22.36,0.98136896,-9.821178,0.46170175,1004.82355,0,0
22.4,0.8810191999999999,-9.845012,0.4332977,1004.8286,0,0
22.44,0.93840307,-9.797347,0.4190969,1004.8183,0,0
22.48,0.88585466,-9.840246,0.47591245,1004.8234,0,0
22.52,0.87154156,-9.778281,0.45697722,1004.81573,0,0
22.56,0.92380935,-9.802107,0.44274563,1004.7983,0,0
22.6,0.95727843,-9.816407,0.45221543,1004.80334,0,0
22.64,0.9047136999999998,-9.816408,0.41434136,1004.8031,0,0
22.68,0.8951671999999998,-9.85454,0.4616866,1004.81323,0,0
22.72,0.89996094,-9.792575,0.4616879,1004.79034,0,0
22.76,0.8569575999999999,-9.825941,0.5090332999999999,1004.83105,0,0
22.8,0.895209,-9.811642,0.44275284,1004.8283,0,0
22.84,0.8474259,-9.835475,0.49009824,1004.8006,0,0
22.88,0.8904571,-9.80211,0.5043025999999999,1004.8131,0,0
22.92,0.93348855,-9.80211,0.4332878,1004.8081,0,0
22.96,0.89048856,-9.811644,0.49483672,1004.8004,0,0
23.0,0.8713798,-9.825943,0.5090409,1004.8029,0,0
23.04,0.84749484,-9.763978,0.49010456,1004.78265,0,0
23.08,0.8857463,-9.802111,0.51377773,1004.80554,0,0
23.12,0.84752095,-9.783046,0.48063815,1004.8079,0,0
23.16,0.86665493,-9.821178,0.4806395000000001,1004.78265,0,0
23.2,0.8905671000000001,-9.79258,0.51378155,1004.8154,0,0
23.24,0.90013987,-9.79258,0.48064187,1004.80786,0,0
23.28,0.9001538,-9.840245,0.5658625,1004.813,0,0
23.32,0.9431903,-9.854546,0.5611297,1004.7852,0,0
23.36,0.9240808,-9.806881,0.52325535,1004.7952,0,0
23.4,0.85717744,-9.787814,0.4806470000000001,1004.7901,0,0
23.44,0.87153083,-9.806882,0.43330425,1004.8053,0,0
23.48,0.87154466,-9.787815,0.54693127,1004.7824,0,0
23.52,0.94325405,-9.768748,0.5232603,1004.7902,0,0
23.56,0.9002505999999999,-9.797349,0.5421993,1004.8127,0,0
23.6,0.8763321,-9.811647,0.50432223,1004.81506,0,0
23.64,0.93848306,-9.787816,0.4948547,1004.79504,0,0
23.68,0.8763575000000001,-9.816416,0.5137934000000001,1004.79486,0,0
23.72,0.8907079999999999,-9.821182,0.49012238,1004.79004,0,0
23.76,0.8572629,-9.76875,0.47118598,1004.81506,0,0
23.8,0.8668351999999999,-9.806884,0.42857754,1004.79755,0,0
23.84,0.8477286,-9.825949,0.51379794,1004.80255,0,0
23.88,0.7999440999999999,-9.84025,0.5185335999999999,1004.8304,0,0
23.92,0.8286348,-9.835484,0.4995971,1004.8254,0,0
23.96,0.8429869000000001,-9.84025,0.52800465,1004.8076,0,0
24.0,0.8143199000000001,-9.84025,0.47592732,1004.8075,0,0
24.04,0.8334518,-9.8354845,0.51853806,1004.805,0,0
24.08,0.8573627,-9.816419,0.43805432,1004.7924,0,0
24.12,0.92429346,-9.778286,0.4806652,1004.8075,0,0
24.16,0.9912234,-9.77352,0.38597825,1004.8201,0,0
24.2,1.0581526,-9.778286,0.39544818,1004.8075,0,0
24.24,1.0964036,-9.792586,0.3717773,1004.81757,0,0
24.28,1.0247184,-9.740155,0.43332568,1004.7823,0,0
24.32,0.929135,-9.806888,0.49960846,1004.81256,0,0
24.36,0.8335517,-9.835486,0.51854724,1004.8023,0,0
24.4,0.86702293,-9.811654,0.56589246,1004.83765,0,0
24.44,0.7475390000000001,-9.797355,0.5469559,1004.81494,0,0
24.48,0.7284333000000001,-9.840254,0.50908184,1004.8023,0,0
24.52,0.8192621999999999,-9.797356,0.49961424,1004.79474,0,0
24.56,0.8861913,-9.840255,0.4854121,1004.78217,0,0
24.6,0.92931944,-9.816424,0.4712189000000001,1004.8098,0,0
24.64,0.9102157,-9.835491,0.46648592,1004.81744,0,0
24.68,0.96281093,-9.845025,0.49962837,1004.8124,0,0
24.72,0.98194665,-9.76876,0.51856744,1004.8222,0,0
24.76,0.87202674,-9.835493,0.4854281,1004.8325,0,0
24.8,0.86726326,-9.773528,0.48542958,1004.8276,0,0
24.84,0.91507894,-9.792594,0.5233064000000001,1004.80225,0,0
24.88,0.9342136,-9.802128,0.5233078,1004.8149,0,0
24.92,0.89599174,-9.849793,0.49963734,1004.81476,0,0
24.96,0.95336586,-9.864095,0.4712324000000001,1004.81976,0,0
25.0,0.8434458,-9.797362,0.4522962,1004.80975,0,0
25.04,0.81478345,-9.840261,0.45229772,1004.8249,0,0
25.08,0.81002015,-9.821197,0.41915837,1004.80206,0,0
25.12,0.8195962999999999,-9.825962,0.49964482,1004.8198,0,0
25.16,0.85785025,-9.773532,0.38602048,1004.8248,0,0
25.2,0.8483069999999999,-9.8211975,0.45230365,1004.81976,0,0
25.24,0.7575071999999999,-9.825964,0.485446,1004.80176,0,0
25.28,0.7623025999999999,-9.811665,0.4665098,1004.81726,0,0
25.32,0.80533826,-9.797365,0.48544905,1004.79926,0,0
25.36,0.9105095,-9.8069,0.4475752000000001,1004.80176,0,0
25.4,1.0156815,-9.778299,0.4239047,1004.8118,0,0
25.44,1.0443758,-9.8116665,0.38603085,1004.8118,0,0
25.48,0.9822549,-9.825966,0.34815714,1004.8118,0,0
25.52,0.944032,-9.811667,0.41917464,1004.7942,0,0
25.56,0.99184746,-9.811667,0.45705146,1004.8093,0,0
25.6,1.0538067,-9.778296,0.4854416,1004.827,0,0
25.64,1.0585947,-9.702033,0.48070794,1004.8118,0,0
25.68,0.6762194,-9.849796,0.5280528,1004.7942,0,0
25.72,0.40855926,-9.921295,0.5233192,1004.8068,0,0
25.76,0.19347699,-9.8831625,0.56119525,1004.81195,0,0
25.8,0.24128275,-9.864098,0.56119597,1004.83966,0,0
25.84,0.6380159000000001,-9.85933,0.45230553,1004.8194,0,0
25.88,0.88657457,-9.806899,0.44283754,1004.8169,0,0
25.92,1.0395371999999998,-9.830731,0.37655663,1004.81177,0,0
25.96,1.0873435,-9.754466,0.38602623,1004.8194,0,0
26.0,1.111252,-9.773534,0.39076152,1004.81934,0,0
26.04,1.0300037,-9.825965,0.39549667,1004.79926,0,0
26.08,0.9152973,-9.778299,0.50438875,1004.82434,0,0
26.12,0.8292690999999999,-9.821199,0.47598314,1004.8444,0,0
26.16,0.80059916,-9.8355,0.40023348,1004.8321,0,0
26.2,0.78626865,-9.711569,0.6132825,1004.79895,0,0
26.24,0.9583499,-9.7783,0.4570479,1004.78894,0,0
26.28,0.920121,-9.830733,0.5043928,1004.8115,0,0
26.32,0.948808,-9.830733,0.4428463,1004.7989,0,0
26.36,0.6954874,-9.902232,0.45231596,1004.8116,0,0
26.4,0.5855608,-9.98803,0.5517392,1004.8167,0,0
26.44,0.23186357,-9.792602,0.46178633,1004.79395,0,0
26.48,0.25099164,-9.902232,0.19666044,1004.8293,0,0
26.52,0.49477053,-9.7401705,0.18719244,1004.8014,0,0
26.56,0.72898984,-9.735403,0.13511482,1004.8216,0,0
26.6,0.7388491,-9.744945,0.07359498,1004.8318,0,0
26.64,0.6050348000000001,-9.749711,0.026252786,1004.82916,0,0
26.68,0.58593464,-9.821211,-0.07790239,1004.83417,0,0
26.72,0.93488187,-9.802144,-0.19152613,1004.86957,0,0
26.76,1.2360296999999998,-9.659148,-0.021085683,1004.8645,1,1
26.8,1.2886267,-9.6305485,-0.13944407,1004.8569,1,1
26.84,1.4702781,-9.563818,-0.054223012,1004.8318,1,1
26.88,1.7045089,-9.320724,0.18723346,1004.82904,1,1
26.92,1.3030269,-9.616251,0.28665793,1004.79114,1,1
26.96,1.2695861000000002,-9.425589,0.71275604,1004.7583,1,1
27.0,1.9148811,-9.806915,1.3234961,1004.73083,1,1
27.04,1.5229574,-9.4351225,1.5980935,1004.7306,1,1
27.08,1.7810858,-9.6019535,2.2561774,1004.7583,1,1
27.12,1.2027511999999998,-10.336003,2.2656484,1004.7735,1,1
27.16,0.5766159000000001,-10.941357,2.6444025,1004.7912,1,1
27.2,0.92078096,-11.313148,2.3745432,1004.7886,1,1
27.24,0.33288527,-10.588633,1.7022593999999998,1004.7987,1,1
27.28,0.5910163,-9.492325,1.9011064,1004.8039,1,1
27.32,1.0212176,-8.877439500000003,1.4939493,1004.81885,1,1
27.36,0.38074422,-8.610513000000001,0.54233587,1004.86176,1,1
27.4,0.27082646,-8.410317,1.3045766,1004.8215,1,1
27.44,1.3941019,-9.411295,1.730675,1004.8265,1,1
27.48,2.201909,-9.8736515,-0.3098515,1004.8439,1,1
27.52,4.2285647000000015,-9.907018,0.79800093,1004.8442,1,1
27.56,5.9301953,-10.193012,-1.0768216,1004.81366,1,1
27.6,4.8831472,-11.213049,-0.82592285,1004.7912,1,1
27.64,3.5973887,-9.926079,-2.217837,1004.7936,1,1
27.68,0.91592723,-12.280758,-0.6176075,1004.81616,1,1
27.72,-1.9710654,-14.988163,2.8385088,1004.77606,1,1
27.76,4.2857059999999985,-11.618207,-1.6355029,1004.86676,1,1
27.8,3.8125157,-11.456144,-0.7501683000000001,1004.9599,1,1
27.84,1.0928148000000002,-9.682985,0.41923037,1004.95734,1,1
27.88,0.86339325,-7.666732,0.50918484,1004.92706,1,1
27.92,-0.6948134,-6.6371555,0.4665761,1004.97253,1,1
27.96,-2.109627,-5.650479,0.3198103,1005.0055,1,1
28.0,-1.5503818,-4.8496976,-0.66967946,1004.9172,1,1
28.04,3.6596138,-8.810706,-4.859627,1004.8691,1,1
28.08,13.180992000000002,-12.58582,-4.9969234,1004.85144,1,1
28.12,6.952914999999999,-8.510414,-5.4608946,1004.8364,1,1
28.16,0.26119953,-13.191173,2.0478723000000003,1004.7177,1,1
28.2,-2.22907,-16.565895,-4.0689783,1004.46027,1,1
28.24,2.7132561,-7.6476674,5.224659,1004.47296,1,1
28.28,0.40461916,-7.4713054,0.253535,1004.59906,1,1
28.32,2.0010831,-8.963238,3.2882895,1004.66205,1,1
28.36,2.584228,-9.87365,2.2609243,1004.79083,1,1
28.4,-0.50829613,-11.008092,0.76011884,1004.8135,1,1
28.44,0.49069118,-10.059546,0.9684333,1004.8489,1,1
28.48,1.829045,-8.844075,1.0441847,1004.8587,1,1
28.52,1.0308268,-8.639113,0.9921071,1004.8185,1,1
28.56,1.5327145,-8.624814,0.8548101,1004.8183,1,1
28.6,2.5173638,-9.845053,-1.1857176,1004.8511,1,1
28.64,3.731442,-9.80692,0.24407345,1004.8587,1,1
28.68,4.2811275,-9.177734,0.22513658,1004.831,1,1
28.72,5.896710400000001,-10.283576,-2.0899863,1004.82355,1,1
28.76,3.9849427,-10.455175,-2.9326963,1004.8234,1,1
28.8,1.4277623,-14.516283,0.62284285,1004.8865,1,1
28.84,-5.1492343,-18.782349,3.3498611000000005,1004.71515,1,1
28.88,4.2191925,-11.742147,-1.4981681999999998,1004.8738,1,1
28.92,3.9515378,-11.22736,0.016842574,1004.9624,1,1
28.96,-0.015683949,-8.620053,0.14467292,1004.93445,1,1
29.0,-0.7135215,-5.431227,1.0063357,1004.9798,1,1
29.04,-1.8893404,-5.2167325,0.28197312,1005.0278,1,1
29.08,-2.2095733,-5.4884260000000005,0.068926185,1005.0126,1,1
29.12,-0.9715902,-6.150978,-1.1099393,1004.8536,1,1
29.16,8.803122,-11.832715,-7.392492999999999,1004.77795,1,1
29.2,13.205335,-13.052953,-4.925867,1004.75775,1,1
29.24,3.8225944,-10.807904,-0.8826841000000001,1004.79785,1,1
29.28,-5.02003,-15.407633,-1.9053144,1004.54846,1,1
29.32,1.638249,-8.548558,1.4703171,1004.5281,1,1
29.36,1.6143656000000002,-8.577157000000001,6.7018356,1004.57117,1,1
29.4,-3.2801402000000004,-8.615291000000001,-2.9516141,1004.7074,1,1
29.44,1.1555313,-9.449437,3.4729745000000003,1004.7326,1,1
29.48,0.8018388000000001,-9.320742,1.3945718,1004.83093,1,1
29.52,1.619199,-9.783097,0.6891469,1004.914,1,1
29.56,2.0876336,-9.287375,1.0631661,1004.8206,1,1
29.6,1.2081635,-9.8069315,1.2667466,1004.8258,1,1
29.64,1.1603785,-9.525704,0.28672618,1004.8006,1,1
29.68,2.0972347,-9.058581,0.10682015,1004.8155,1,1
29.72,2.2788813,-9.234946,0.66074675,1004.8863,1,1
29.76,3.8513267,-9.096713,0.523439,1004.86084,1,1
29.8,3.6792624,-10.092923,0.3577356,1004.86096,1,1
29.84,3.5932348,-10.912771,-2.0047314,1004.8634,1,1
29.88,4.1190224,-10.216854,-1.7632761,1004.89124,1,1
29.92,-0.93800163,-13.591578,0.7128184000000001,1004.8609,1,1
29.96,-4.537186,-17.14266,3.2646632,1004.7474,1,1
30.0,5.2279620000000016,-10.826974,-3.6712387,1004.9138,1,1
30.04,2.6325386,-10.3455515,0.22044274,1004.9315,1,1
30.08,0.07057144,-9.172979,-0.28140342,1004.95917,1,1
30.12,-0.3452621,-6.7515683000000015,1.0489651000000002,1004.9566,1,1
30.16,-1.2295174999999998,-7.0184960000000025,0.21097626,1004.98444,1,1
30.2,-2.1137724,-6.11285,-0.24352576,1004.95416,1,1
30.24,-1.4159116000000005,-6.303513,-0.5417924,1004.88104,1,1
30.28,3.1822674,-8.567628,-4.7838182,1004.78,1,1
30.32,12.0583725,-11.689722,-4.4287376,1004.75714,1,1
30.36,4.831318,-10.002361,-5.8395886,1004.7926,1,1
30.4,3.5359995000000004,-11.308398,-2.577583,1004.8154,1,1
30.44,-2.9693048,-14.139732999999998,-3.8700747,1004.70184,1,1
30.48,4.568455,-13.377085,-0.9820872,1004.61334,1,1
30.52,1.3516549,-5.455067,5.868597,1004.61096,1,1
30.56,-3.9969358,-7.938442999999999,-1.3892444,1004.6363,1,1
30.6,1.4568288,-11.146337,2.734423,1004.6765,1,1
30.64,5.677404,-9.630571,2.1899672000000003,1004.823,1,1
30.68,-0.612809,-10.154893,-0.8305824,1004.86835,1,1
30.72,0.44831693,-9.640105,1.0915868,1004.8128,1,1
30.76,1.9680511000000005,-9.201576,0.745953,1004.83777,1,1
30.8,1.7577383999999998,-9.13961,0.26777798,1004.82526,1,1
30.84,1.2032798999999998,-9.649632,1.5886768,1004.7848,1,1
30.88,1.7625158,-9.87366,0.67020226,1004.7849,1,1
30.92,0.96428746,-10.131055,0.599186,1004.7798,0,0
30.96,0.22819619,-9.439904,1.4371754,1004.8252,0,0
31.0,0.80177134,-9.201576,2.4314005,1004.7647,0,0
31.04,0.103918806,-9.830762,2.23729,1004.79736,0,0
31.08,0.83522755,-9.964225,0.9874068,1004.8227,0,0
31.12,1.8389851,-9.72113,1.9721627,1004.795,0,0
31.16,1.0646555,-9.849828,1.8064584,1004.7824,0,0
31.2,0.7205085,-9.616266,1.849068,1004.7694,0,0
31.24,0.6679294,-9.621033,1.9248184,1004.7846,0,0
31.28,0.34768140000000003,-9.897493,1.5223937,1004.79504,0,0
31.32,0.022653341,-9.773563,1.3661584,1004.7947,0,0
31.36,-0.4362089,-9.8259945,1.5365969,1004.8026,0,0
31.4,-0.74211764,-9.916559,1.2572668,1004.81226,0,0
31.44,-0.81859577,-10.007124,0.9542648,1004.83527,0,0
31.48,-0.4266532,-9.849827,1.0536872,1004.81226,0,0
31.52,-0.006031661999999999,-9.702064,1.1389062,1004.83014,0,0
31.56,0.26163614,-9.764029,1.1152341,1004.7898,0,0
31.6,0.40980875,-9.887959,0.87377954,1004.81256,0,0
31.64,0.32377118,-9.849827,0.74595046,1004.83496,0,0
31.68,0.26641214,-9.873659,0.9779362,1004.83026,0,0
31.72,0.42892426,-9.778328,0.9400608,1004.8176,0,0
31.76,0.554017,-9.764049,0.98274535,1004.82007,0,0
31.8,0.62096393,-9.687785,0.8312470999999999,1004.83765,0,0
31.84,0.563638,-9.759284,0.8359844000000001,1004.8075,0,0
31.88,0.7644194999999999,-9.764051,0.73656464,1004.8073,0,0
31.92,0.5445802,-9.854616,0.43830004,1004.8176,0,0
31.96,0.515935,-9.854616,0.56613207,1004.8174,0,0
32.0,0.291314,-9.802186,0.60401005,1004.84015,0,0
32.04,0.22442846,-9.78312,0.5945441,1004.83765,0,0
32.08,0.21968038,-9.811721,0.6750319,1004.8226,0,0
32.12,0.32486582,-9.826021,0.679769,1004.8149,0,0
32.16,0.1815034,-9.802189,0.6608343000000001,1004.7821,0,0
32.2,0.08593702,-9.754524,0.6513682,1004.82745,0,0
32.24,0.071629345,-9.711626,0.63243353,1004.83514,0,0
32.28,0.10512166,-9.85939,0.5661549,1004.81995,0,0
32.32,0.18640606,-9.88799,0.67504877,1004.84784,0,0
32.36,0.14820129999999998,-9.940424,0.2962995,1004.8099,0,0
32.4,-0.08597934,-9.864159,0.5188192,1004.8124,0,0
32.44,-0.21500036,-9.887992,0.61824477,1004.81464,0,0
32.48,-0.10503313,-9.797428,0.6608573,1004.83514,0,0
32.52,-0.05242756,-9.873694,0.64665663,1004.80963,0,0
32.56,0.23439436,-9.873695,0.5046276,1004.81964,0,0
32.6,0.2726645,-9.897529,0.53303695,1004.82965,0,0
32.64,0.38262975,-9.802198,0.57564926,1004.82245,0,0
32.68,0.37787962,-9.849865,0.4478231,1004.8325,0,0
32.72,0.47828728,-9.764068,0.471498,1004.82715,0,0
32.76,0.4394204,-9.811717,0.5187845,1004.82965,0,0
32.8,0.41074628,-9.849851,0.49984738,1004.83,0,0
32.84,0.29603606,-9.8689165,0.5282541999999999,1004.81714,0,0
32.88,0.21000434,-9.897516,0.5187859,1004.8246,0,0
32.92,0.28170645,-9.792652,0.49984872,1004.807,0,0
32.96,0.30083108,-9.830784,0.5850685,1004.8045,0,0
33.0,0.3008362,-9.749752,0.56139696,1004.81226,0,0
33.04,0.23392333,-9.840317,0.5140532999999999,1004.82214,0,0
33.08,0.15267177,-9.883218,0.6134763000000001,1004.8247,0,0
33.12,0.27217162,-9.864151,0.5093198,1004.80963,0,0
33.16,0.17180143,-9.773586,0.6276805,1004.7967,0,0
33.2,0.22438402,-9.868917,0.5519304,1004.81976,0,0
33.24,0.22438912,-9.868917,0.6087437,1004.8046,0,0
33.28,0.23395349,-9.830785,0.6276818000000001,1004.8043,0,0
33.32,0.18616019,-9.859385,0.54246294,1004.80176,0,0
33.36,0.15270664,-9.840318,0.65135473,1004.8297,0,0
33.4,0.23396872,-9.826019,0.5803391,1004.8093,0,0
33.44,0.18617575,-9.826019,0.5187923,1004.80194,0,0
33.48,0.17662089,-9.8593855,0.5614024000000001,1004.79443,0,0
33.52,0.28178132,-9.81172,0.51879317,1004.83234,0,0
33.56,0.29134629999999995,-9.864152,0.55193454,1004.8194,0,0
33.6,0.32958978,-9.840319,0.6324199,1004.8169,0,0
33.64,0.31047505,-9.8593855,0.51406014,1004.8144,0,0
33.68,0.28658140000000004,-9.8498535,0.6040144000000001,1004.8096,0,0
33.72,0.37740278,-9.783121,0.57560843,1004.8093,0,0
33.76,0.2633533,-9.845103,0.5662005,1004.8424,0,0
33.8,0.31118298,-9.849871,0.5804066,1004.8219,0,0
33.84,0.34945118,-9.835571,0.57567495,1004.827,0,0
33.88,0.31124640000000003,-9.835572,0.5709436,1004.8118,0,0
33.92,0.35907614,-9.830806,0.54727453,1004.8194,0,0
33.96,0.37344533,-9.82604,0.56621486,1004.832,0,0
34.0,0.325679,-9.892774,0.5993586,1004.80676,0,0
34.04,0.30658948,-9.826041,0.56148607,1004.8169,0,0
34.08,0.1919079,-9.859408,0.5425515000000001,1004.8093,0,0
34.12,0.29709327,-9.83081,0.6277735,1004.8067,0,0
34.16,0.2780078,-9.792679,0.5330885000000001,1004.81433,0,0
34.2,0.3067143,-9.816512,0.54255986,1004.8244,0,0
34.24,0.33064508,-9.83558,0.48574993,1004.8143,0,0
34.28,0.41193545,-9.873712,0.5378314999999999,1004.8193,0,0
34.32,0.34982967,-9.892779,0.5141623,1004.8243,0,0
34.36,0.41677666,-9.854647,0.42421135,1004.8217,0,0
34.4,0.46460444,-9.821282,0.4242141,1004.8042,0,0
34.44,0.43117946,-9.835584,0.5141709,1004.8191,0,0
34.48,0.40253043,-9.8022175,0.49997035,1004.8168,0,0
34.52,0.42167932,-9.826051,0.47156665,1004.8142,0,0
34.56,0.35957557,-9.840351,0.50944495,1004.7914,0,0
34.6,0.41696298,-9.854651,0.45736927,1004.81683,0,0
34.64,0.43133408,-9.83082,0.45737216,1004.8167,0,0
34.68,0.402685,-9.816521,0.46210927,1004.81683,0,0
34.72,0.3262418,-9.883254,0.4905188,1004.7989,0,0
34.76,0.34935147,-9.854634,0.4525713,1004.7863,0,0
34.8,0.38758856,-9.787904,0.46204,1004.8269,0,0
34.84,0.35412872,-9.854634,0.4857119000000001,1004.81683,0,0
34.88,0.30632937,-9.802203,0.4146957000000001,1004.8216,0,0
34.92,0.3636859000000001,-9.8880005,0.45257083,1004.804,0,0
34.96,0.2537492,-9.8260355,0.48571154,1004.8116,0,0
35.0,0.30154598,-9.864168,0.47624266,1004.8368,0,0
35.04,0.30632448,-9.802203,0.5188520999999999,1004.7989,0,0
35.08,0.38280004,-9.840335,0.44310156,1004.8141,0,0
35.12,0.37323928,-9.845102,0.5377896,1004.80115,0,0
35.16,0.31110048,-9.854633,0.49991423,1004.8319,0,0
35.2,0.33977813,-9.806969,0.53778934,1004.80396,0,0
35.24,0.37323546,-9.840334,0.499914,1004.7987,0,0
35.28,0.28241795,-9.8737,0.443101,1004.8268,0,0
35.32,0.3588935,-9.868934,0.5377890000000001,1004.804,0,0
35.36,0.33977306,-9.826035,0.5141167999999999,1004.8065,0,0
35.4,0.32065266,-9.859401,0.45730388,1004.7888,0,0
35.44,0.33499074,-9.845101,0.5093822,1004.7913,0,0
35.48,0.3302098,-9.830801,0.5377885,1004.7936,0,0
35.52,0.34932768,-9.892767,0.56619483,1004.7786,0,0
35.56,0.33020717,-9.792669,0.5188507,1004.8163,0,0
35.6,0.31108677,-9.787903,0.49044412,1004.7785,0,0
35.64,0.34932405,-9.840334,0.51411605,1004.81903,0,0
35.68,0.29674488,-9.8737,0.5377879,1004.7809,0,0
35.72,0.3349821,-9.811735,0.5093814,1004.7911,0,0
35.76,0.34454048,-9.859401,0.5283189,1004.80365,0,0
35.8,0.33975935,-9.816502,0.5567251999999999,1004.7633,0,0
35.84,0.2776206,-9.840334,0.56145954,1004.7885,0,0
35.88,0.31585777,-9.845101,0.51411533,1004.7885,0,0
35.92,0.28239787,-9.830801,0.59933454,1004.7885,0,0
35.96,0.2823966,-9.854633,0.5188495,1004.7834,0,0
36.0,0.2728358,-9.802202,0.514115,1004.79364,0,0
36.04,0.30629320000000004,-9.854633,0.51884925,1004.7785,0,0
36.08,0.28664452,-9.826021,0.5661449000000001,1004.7885,0,0
36.12,0.2675079,-9.826021,0.57087773,1004.7784,0,0
36.16,0.25793195,-9.859386,0.580345,1004.7733,0,0
36.2,0.2818147,-9.835554,0.53773385,1004.7911,0,0
36.24,0.25789607,-9.8593855,0.54720086,1004.81146,0,0
36.28,0.29133946,-9.826019,0.56613714,1004.7961,0,0
36.32,0.31522,-9.835552,0.58980745,1004.7784,0,0
36.36,0.31998348,-9.854617,0.50932103,1004.79364,0,0
36.4,0.29606706,-9.840318,0.5850699,1004.79346,0,0
36.44,0.30560923,-9.835551,0.5471931,1004.786,0,0
36.48,0.26735455,-9.8069515,0.528254,1004.7658,0,0
36.52,0.31991386,-9.878449,0.6040028000000001,1004.79614,0,0
36.56,0.3294571,-9.854615,0.54245406,1004.80615,0,0
36.6,0.2959811,-9.845082,0.54718685,1004.80115,0,0
36.64,0.27206904,-9.864148,0.5708576999999999,1004.7835,0,0
36.68,0.35330397,-9.854613,0.5471836999999999,1004.7986,0,0
36.72,0.2959289,-9.868914,0.547182,1004.7809,0,0
36.76,0.31025195,-9.778349,0.5566493,1004.7682,0,0
36.8,0.2863356,-9.816481,0.5424445999999999,1004.8034,0,0
36.84,0.28631812,-9.849847,0.5945214,1004.7908,0,0
36.88,0.30064017,-9.854611,0.50930053,1004.79083,0,0
36.92,0.29584402,-9.821247,0.49983022,1004.7885,0,0
36.96,0.33884484,-9.835546,0.5187662999999999,1004.7911,0,0
37.0,0.30536985,-9.835546,0.5945153000000001,1004.7782,0,0
37.04,0.36271125,-9.8450775,0.5803106,1004.7781,0,0
37.08,0.3439784,-9.89752,0.5519395,1004.78577,0,0
37.12,0.29617912,-9.84032,0.4903921,1004.8288,0,0
37.16,0.29617786,-9.82602,0.5945489,1004.80615,0,0
37.2,0.2770574,-9.84032,0.5992831999999999,1004.7911,0,0
37.24,0.37265217,-9.854619,0.57087666,1004.81854,0,0
37.28,0.31051362,-9.864153,0.4951261,1004.80347,0,0
37.32,0.3965488,-9.816487,0.55193883,1004.7908,0,0
37.36,0.34874952,-9.84032,0.52826667,1004.7883,0,0
37.4,0.3248495,-9.816487,0.49039134,1004.7756,0,0
37.44,0.30572867,-9.821255,0.52353203,1004.7757,0,0
37.48,0.33918637,-9.811721,0.5424696,1004.7757,0,0
37.52,0.39654243,-9.859386,0.51879734,1004.7908,0,0
37.56,0.35830277,-9.859386,0.5377349,1004.8084,0,0
37.6,0.34874225,-9.835554,0.51879716,1004.79333,0,0
37.64,0.41565806,-9.806954,0.48565626,1004.7704,0,0
37.68,0.3152808,-9.845087,0.4856561,1004.7905,0,0
37.72,0.42043537,-9.84032,0.45724958,1004.7908,0,0
37.76,0.45867276,-9.878453,0.4809215,1004.7807,0,0
37.8,0.4013136,-9.830787,0.5282654,1004.79083,0,0
37.84,0.41087198,-9.806954,0.443046,1004.788,0,0
37.88,0.37741196,-9.82602,0.5235308,1004.79333,0,0
37.92,0.38697034,-9.8498535,0.4619834,1004.783,0,0
37.96,0.41086823,-9.868919,0.42410803,1004.82855,0,0
38.0,0.44432557,-9.802188,0.42410794,1004.79315,0,0
38.04,0.43476468,-9.854619,0.44777983,1004.7782,0,0
38.08,0.36797267,-9.821258,0.40518168,1004.82605,0,0
38.12,0.42533505,-9.811724,0.43358856,1004.79584,0,0
38.16,0.40621966,-9.897522,0.44305766,1004.8233,0,0
38.2,0.3871042,-9.83079,0.4335892,1004.8007,0,0
38.24,0.3727684,-9.878456,0.47146478,1004.7958,0,0
38.28,0.47314715,-9.821258,0.48093385,1004.8034,0,0
38.32,0.5257295,-9.868923,0.46673107,1004.80585,0,0
38.36,0.5113941,-9.849857,0.39098096,1004.81323,0,0
38.4,0.46359962,-9.806958,0.47146615,1004.78815,0,0
38.44,0.4492640000000001,-9.85939,0.4762009,1004.78564,0,0
38.48,0.4205888,-9.821259,0.44779482,1004.7958,0,0
38.52,0.44449186,-9.87369,0.3862479,1004.80835,0,0
38.56,0.47795403,-9.916589,0.3389042,1004.78314,0,0
38.6,0.60223275,-9.797424,0.37204537,1004.79333,0,0
38.64,0.68349326,-9.840323,0.3578425,1004.7781,0,0
38.68,0.43972677,-9.87369,0.41939008,1004.77783,0,0
38.72,0.4110508,-9.864158,0.34363990000000005,1004.79565,0,0
38.76,0.46363342,-9.806959,0.44779724,1004.816,0,0
38.8,0.45407736,-9.864158,0.42412552,1004.7929,0,0
38.84,0.50187945,-9.811726,0.37204742,1004.80835,0,0
38.88,0.61659735,-9.816492,0.41939175,1004.80835,0,0
38.92,0.74087703,-9.754527,0.3767825,1004.80804,0,0
38.96,0.7934587,-9.8212595,0.27262595,1004.77277,0,0
39.0,0.80780184,-9.787893,0.38151762,1004.7778,0,0
39.04,0.78868556,-9.811726,0.32943943,1004.79553,0,0
39.08,0.6453915,-9.830794,0.39099586,1004.78284,0,0
39.12,0.7505544,-9.74023,0.3720589,1004.7906,0,0
39.16,0.66930526,-9.868927,0.3815284,1004.80835,0,0
39.2,0.62151444,-9.797428,0.4572795,1004.7803,0,0
39.24,0.5689428000000001,-9.835563,0.41940486,1004.78284,0,0
39.28,0.4972548,-9.845096,0.33418643,1004.79565,0,0
39.32,0.5880787,-9.830795,0.39573437,1004.78284,0,0
39.36,0.4542498,-9.8641615,0.49042296,1004.7905,0,0
39.4,0.19614993,-9.854628,0.49042386,1004.77026,0,0
39.44,0.40646845,-9.849863,0.58037823,1004.8185,0,0
39.48,0.5642096,-9.787898,0.6135196999999999,1004.8132,0,0
39.52,0.7554098000000001,-9.787898,0.3578626,1004.78784,0,0
39.56,0.7123968,-9.859396,0.32472226,1004.78284,0,0
39.6,0.7602044,-9.907062,0.41467682,1004.8308,0,0
39.64,0.57857895,-9.806965,0.4620215,1004.80804,0,0
39.68,0.54034674,-9.768832000000002,0.42888123,1004.8006,0,0
39.72,0.5929331,-9.821264,0.57564855,1004.7626,0,0
39.76,0.6598585,-9.806965,0.5235709,1004.7802,0,0
39.8,0.5690479,-9.811731,0.58511865,1004.7929,0,0
39.84,0.43522054,-9.8450985,0.5425097,1004.8056,0,0
39.88,0.48780745,-9.811732,0.618261,1004.8004,0,0
39.92,0.46869582,-9.873697,0.58038646,1004.8004,0,0
39.96,0.44480252,-9.883231,0.56618375,1004.7802,0,0
40.0,0.4734894,-9.864164,0.5330436,1004.8029,0,0
40.04,0.4161407999999999,-9.830799,0.5709196999999999,1004.8006,0,0
40.08,0.37790805,-9.797433,0.48096654,1004.79034,0,0
40.12,0.33967716,-9.849866,0.6040616999999999,1004.7929,0,0
40.16,0.31100547,-9.826033,0.5188431,1004.7927,0,0
40.2,0.4400679,-9.873698,0.45729652,1004.7876,0,0
40.24,0.45441437,-9.878465,0.4336252,1004.81793,0,0
40.28,0.49744016,-9.849867,0.4525635,1004.79047,0,0
40.32,0.4974497000000001,-9.854632,0.39575154,1004.7702,0,0
40.36,0.5022348,-9.8451,0.4052208,1004.80554,0,0
40.4,0.5787216,-9.759302,0.43836254,1004.7901,0,0
40.44,0.62652534,-9.792668,0.4478319000000001,1004.78534,0,0
40.48,0.69822955,-9.778369,0.55672383,1004.7649,0,0
40.52,0.5739618000000001,-9.859401,0.4715052,1004.7824,0,0
40.56,0.43535554,-9.888,0.38155225,1004.8156,0,0
40.6,0.38278484,-9.849868,0.5567259,1004.7978,0,0
40.64,0.234619,-9.811735,0.59460187,1004.8205,0,0
40.68,0.24896602,-9.854634,0.56619614,1004.7927,0,0
40.72,0.27765197,-9.79267,0.58986884,1004.8053,0,0
40.76,0.36369604,-9.864168,0.45730618,1004.7775,0,0
40.8,0.3923825,-9.9309,0.47624448,1004.76483,0,0
40.84,0.44018722,-9.8880005,0.4857139,1004.7901,0,0
40.88,0.20598490000000005,-9.878468,0.47151142,1004.7775,0,0
40.92,0.28724915,-9.797437,0.5425281999999999,1004.7927,0,0
40.96,0.16776122,-9.840336,0.5093880000000001,1004.7649,0,0
41.0,0.2920437,-9.907068,0.4809823,1004.78253,0,0
41.04,0.2872715,-9.883236,0.49045175,1004.8028,0,0
41.08,0.3261183,-9.873717,0.49050748,1004.7927,0,0
41.12,0.3165884,-9.849886,0.5662607,1004.78265,0,0
41.16,0.2353635000000001,-9.8355875,0.54732597,1004.7697,0,0
41.2,0.23539518,-9.883253,0.5047192,1004.7672,0,0
41.24,0.2210855,-9.806989,0.58047247,1004.7798,0,0
41.28,0.20199998,-9.811756,0.51419383,1004.7925,0,0
41.32,0.19247009,-9.83559,0.5757438,1004.7774,0,0
41.36,0.24029987,-9.830824,0.5804812,1004.76483,0,0
41.4,0.28335375,-9.883258,0.5378746999999999,1004.80023,0,0
41.44,0.25948846,-9.854658,0.46686175,1004.785,0,0
41.48,0.33598906,-9.792694,0.56628644,1004.78754,0,0
41.52,0.31212175,-9.864192999999998,0.58996135,1004.785,0,0
41.56,0.29303426,-9.840361,0.5520891,1004.77484,0,0
41.6,0.2548256,-9.806995,0.51895094,1004.7798,0,0
41.64,0.31699473,-9.859428,0.46687537,1004.77234,0,0
41.68,0.39828312,-9.878495,0.5047535,1004.7875,0,0
41.72,0.2788177,-9.9023285,0.5047562,1004.7621,0,0
41.76,0.24061306,-9.826065,0.4952905,1004.7722,0,0
41.8,0.29322255,-9.859432,0.48109022,1004.7672,0,0
41.84,0.39362824,-9.859432,0.5094993,1004.7899,0,0
41.88,0.35064763,-9.802235,0.4290179,1004.79004,0,0
41.92,0.3411098,-9.826068,0.43848872,1004.7672,0,0
41.96,0.30290705,-9.849902,0.46216398,1004.7798,0,0
42.0,0.27903777,-9.859436,0.4574323,1004.7773,0,0
42.04,0.35554636,-9.835604,0.47163844,1004.7722,0,0
42.08,0.36380857,-9.859405,0.43364444,1004.8052,0,0
42.12,0.36856818,-9.835571,0.46678343,1004.77484,0,0
42.16,0.42112303,-9.811738,0.42890608,1004.79755,0,0
42.2,0.43066382,-9.83557,0.37209153,1004.7899,0,0
42.24,0.4832201,-9.816504,0.49044964,1004.7798,0,0
42.28,0.44973987,-9.821269,0.47151005,1004.76715,0,0
42.32,0.27764535,-9.864168,0.4525705,1004.7874,0,0
42.36,0.12467007,-9.864167,0.4478341,1004.7594,0,0
42.4,0.03860803,-9.921365,0.4146909,1004.7823,0,0
42.44,-0.004427716,-9.840333,0.45729893,1004.7898,0,0
42.48,0.13416635,-9.806967,0.46676594,1004.79,0,0
42.52,0.31099892,-9.826033,0.5283113,1004.7823,0,0
42.56,0.50694793,-9.878464,0.37207386,1004.7672,0,0
42.6,0.61208206,-9.9070635,0.41468155,1004.7772,0,0
42.64,0.6598599,-9.859397,0.3057884,1004.7924,0,0
42.68,0.602482,-9.878463,0.34839615,1004.795,0,0
42.72,0.53076345,-9.783131,0.41467586,1004.7797,0,0
42.76,0.45426363,-9.792665,0.4288770000000001,1004.7546,0,0
42.8,0.32041025,-9.8641615,0.40046883,1004.777,0,0
42.84,0.38252485,-9.668732,0.3625915,1004.7823,0,0
42.88,0.6214934,-9.911826,0.3341831,1004.7874,0,0
42.92,0.51153636,-9.840326,0.34364992,1004.795,0,0
42.96,0.46371818,-9.830793,0.24422556,1004.75964,0,0
43.0,0.41589856,-9.892758,0.27736443,1004.78467,0,0
43.04,0.38241827,-9.868925,0.44306663,1004.75183,0,0
43.08,0.36489248,-9.830832,0.36746204,1004.7518,0,0
43.12,0.35537332,-9.792701,0.35799688,1004.7647,0,0
43.16,0.16900407,-9.845133,0.4384857,1004.772,0,0
43.2,0.24074425,-9.840367,0.3769424000000001,1004.7669,0,0
43.24,0.40329796,-9.859435,0.24911717,1004.78955,0,0
43.28,0.35076058,-9.902334,0.26332408,1004.7746,0,0
43.32,0.50853723,-9.773639,0.37695372,1004.76434,1,2
43.36,0.8383895,-9.830839,0.53319323,1004.76685,1,2
43.4,0.8479895000000001,-9.740275,0.37696162,1004.8098,1,2
43.44,0.8767087,-9.816542,0.17812033,1004.8176,1,2
43.48,1.0153688,-9.797476,0.031357977999999995,1004.7845,1,2
43.52,0.99629,-9.868975,-0.22429617,1004.82263,1,2
43.56,1.4934328,-9.845142999999998,-0.79715514,1004.7972,1,2
43.6,1.4408981,-9.964309,-1.2800605,1004.83026,1,2
43.64,1.7325091,-9.916644,-1.7534971,1004.80975,1,2
43.68,1.3214837,-9.888045,-2.5962174,1004.79724,1,2
43.72,1.3884468,-9.0920315,-3.7230015,1004.83496,1,2
43.76,0.3942908,-10.81276,0.19708927,1004.8804,1,2
43.8,-2.5404575,-14.287581,-10.052893,1004.9864,1,2
43.84,-3.3290954,-11.680276,-2.127496,1004.91315,1,2
43.88,5.2172394,-9.854685,2.1098006,1004.8703,1,2
43.92,-0.21257189,-8.767911999999999,-2.3831450000000003,1004.92084,1,2
43.96,1.4173789,-7.557207000000001,-0.5603961999999999,1004.87036,1,2
44.0,1.4126449,-7.252147999999999,-1.8197439,1004.9306,1,2
44.04,0.9825004,-5.8555480000000015,-2.600917,1004.9889,1,2
44.08,2.1918366,-6.193974,-2.624585,1004.99646,1,2
44.12,5.4086847,-8.605853,-2.35472,1004.8626,1,2
44.16,6.6705985,-11.132129,-3.5951297,1004.7619,1,2
44.2,3.7310627,-11.260828,-3.9170654,1004.76666,1,2
44.24,0.82020247,-10.588745,-1.2231855,1004.72406,1,2
44.28,1.4846383,-11.775619,-1.0148679,1004.6256,1,2
44.32,3.186289,-11.1321335,2.6164246,1004.56744,1,2
44.36,-0.5323554,-7.2664576,-3.0506542000000003,1004.63824,1,2
44.4,-0.64702755,-7.442821,6.6501449999999975,1004.59033,1,2
44.44,0.69136065,-10.8747425,3.1561584,1004.6935,1,2
44.48,-1.9566077,-10.245558,-1.4977576,1004.78937,1,2
44.52,0.9304344,-9.764136,3.4828398000000003,1004.8198,1,2
44.56,2.5938494,-9.09682,1.6743011000000003,1004.8374,1,2
44.6,1.332024,-9.358981,0.6848145999999999,1004.83746,1,2
44.64,0.96402234,-9.659276,1.0825083999999998,1004.80475,1,2
44.68,1.6905874,-9.578246,1.2860911,1004.7997,1,2
44.72,2.7565322,-10.450527,0.27766737,1004.8171,1,2
44.76,2.4363286,-10.522026,1.688524,1004.8171,1,2
44.8,1.0719695,-10.588706,0.15911762,1004.8374,1,2
44.84,2.8596091,-9.883256,0.96870023,1004.8199,1,2
44.88,4.226626,-10.869933,-0.55577874,1004.8149,1,2
44.92,3.5239870000000004,-11.079661,-1.6494269,1004.8272,1,2
44.96,-0.20904681,-10.622071,-3.2354531000000004,1004.8375,1,2
45.0,-2.1783333,-10.960496,-1.1144406,1004.7467,1,2
45.04,-3.7508965,-13.110213,2.5168474,1004.7442,1,2
45.08,5.0104766,-10.970028999999998,-2.3974657,1004.9031,1,2
45.12,3.4187949,-11.4228525,-0.47529793,1004.9459,1,2
45.16,0.45052928,-8.877509,-1.1617874,1004.9684,1,2
45.2,1.6693721999999998,-6.451333,-0.7972387,1004.9382,1,2
45.24,0.68950456,-6.4036665,-1.2659456,1004.9382,1,2
45.28,-0.18042722,-5.6457844,-0.07761069,1004.94824,1,2
45.32,0.039436772,-5.979443,-2.0707955,1004.8701,1,2
45.36,2.8499544,-9.435197,-4.9114394,1004.83734,1,2
45.4,10.215625,-11.971004,-7.2028919999999985,1004.782,1,2
45.44,5.7656193,-10.626835,-5.323334,1004.8726,1,2
45.48,0.780277,-8.910874,-0.6646801999999999,1004.8752,1,2
45.52,-1.6956694,-12.452426,-1.6020931,1004.6733,1,2
45.56,2.3958359,-14.220819,-4.2912354000000015,1004.53467,1,2
45.6,-0.55808955,-6.9518194000000015,4.6189137,1004.4138,1,2
45.64,-0.7588491999999999,-7.380808999999997,1.8161452,1004.5171,1,2
45.68,5.64608,-10.278875,-0.28593117,1004.7036,1,2
45.72,0.84237015,-9.201633,1.6267676000000002,1004.80457,1,2
45.76,2.3432212000000003,-10.698333,-0.22911967,1004.845,1,2
45.8,1.855573,-9.52099,-0.8209301999999999,1004.8399,1,2
45.84,-0.1376167,-9.668754,0.45262364,1004.7668,1,2
45.88,1.9607066,-9.587721,0.45262268,1004.81714,1,2
45.92,2.3430803,-9.268361,0.09754133,1004.71124,1,2
45.96,1.8077307,-9.916614,-0.020819861,1004.69855,1,2
46.0,1.8363979,-10.722162,-1.8719733,1004.76416,1,2
46.04,2.6202745,-9.940446,0.116475806,1004.8447,1,2
46.08,2.3334756000000003,-10.112041,-0.88248456,1004.79425,1,2
46.12,3.8486621,-11.665939,-2.0850244,1004.7591,1,2
46.16,2.8926907,-11.599206,-1.611585,1004.82465,1,2
46.2,2.6680284,-9.902311,0.23483187,1004.85004,1,2
46.24,2.3573298,-11.089185,4.9360947999999985,1004.7365,1,2
46.28,4.928852,-11.098717,3.9134624,1004.80945,1,2
46.32,4.2548879999999984,-12.304655,-0.1297205,1004.8548,1,2
46.36,1.7502601000000002,-10.80319,1.9297446,1004.855,1,2
46.4,1.4108834,-9.306491,2.1854014,1004.855,1,2
46.44,0.8946540000000001,-8.820302,2.6067624,1004.8904,1,2
46.48,-0.52973974,-9.234992,1.806647,1004.88257,1,2
46.52,0.1776606,-10.355133,0.8266242,1004.8904,1,2
46.56,-0.027883135,-11.9662285,-1.6494703999999998,1004.89264,1,2
46.6,0.41662794,-11.213112,-2.567946,1004.8728,1,2
46.64,0.47397417,-7.1043395999999985,-1.0197968000000002,1004.84753,1,2
46.68,3.6907701,-8.029053,-1.0718763,1004.7995,1,2
46.72,5.3350115,-8.543839,1.3474035,1004.76166,1,2
46.76,-0.8644050999999999,-13.396194,0.76507074,1004.7565,1,2
46.8,0.40336138,-12.948165,-1.8292807,1004.6506,1,2
46.84,-0.5764654,-8.224508,3.032956,1004.61273,1,2
46.88,-0.28964627,-9.38755,0.33908254,1004.6279,1,2
46.92,1.6127486,-11.0892105,-0.7024835,1004.6231,1,2
46.96,2.3488693,-8.434239,0.41010442,1004.64825,1,2
47.0,0.18843304,-8.839397,2.6258092,1004.6558,1,2
47.04,-0.29907393,-11.236976,3.9135704,1004.73627,1,2
47.08,0.07856354,-10.483862,-3.8129754,1004.88525,1,2
47.12,1.354802,-9.540084,3.0661175,1004.77924,1,2
47.16,-0.72915936,-9.54485,1.8777848,1004.7466,1,2
47.2,-0.5522736999999999,-9.225492,2.3086188,1004.78925,1,2
47.24,-1.1019202,-9.973842,2.1097767000000003,1004.8144,1,2
47.28,-0.13158706,-10.193106,1.3948846,1004.81726,1,2
47.32,0.38944656,-10.045343,2.1807990000000004,1004.78925,1,2
47.36,0.78620124,-9.654487,2.2707555,1004.7693,1,2
47.4,0.90094954,-9.792718,1.6458168999999998,1004.8071,1,2
47.44,1.4649972,-9.582989,1.1581761000000002,1004.7968,1,2
47.48,1.7900589,-9.2493305,0.5521756999999999,1004.7842,1,2
47.52,1.589338,-9.664022,-0.16745108,1004.8043,1,2
47.56,1.9143957,-10.355174,-0.0301505,1004.8399,1,2
47.6,-0.7049059,-12.495359,0.11188446,1004.8399,1,2
47.64,-2.8271017000000005,-10.841364,-2.0943449,1004.8272,1,2
47.68,-2.5116038,-10.307509,-1.9759821,1004.81213,1,2
47.72,-3.3289192,-10.717435,-1.8528845,1004.78143,1,2
47.76,-3.3719025,-9.306535,-0.62193596,1004.8143,1,2
47.8,-1.1600496,-9.235007,-0.9013754,1004.83466,1,2
47.84,-1.7957777,-8.086266499999999,-1.1570346000000002,1004.7565,1,2
47.88,-1.403849,-7.0471573,-0.08706045,1004.668,1,2
47.92,-1.1075164,-7.843171000000001,-0.68359685,1004.6306,1,2
47.96,-0.4622581,-10.431412,-3.5857882000000005,1004.6201,1,2
48.0,1.0242457,-12.414299,-4.234403,1004.6255,0,0
48.04,-0.26153678,-10.288415,-3.3111956,1004.71606,0,0
48.08,-0.8351274,-9.349401,-2.4874105,1004.739,0,0
48.12,-0.7347668,-10.297947,-3.1265564,1004.86224,0,0
48.16,0.1686009,-9.382768,6.1718129999999976,1004.7563,0,0
48.2,0.7134843000000001,-8.596285,-0.24330677,1004.7388,0,0
48.24,2.7783432,-10.050084,-5.062932,1004.83716,0,0
48.28,-2.8283806,-10.331312,0.064426735,1004.80176,0,0
48.32,-0.78741986,-9.91662,1.2574953000000002,1004.73395,0,0
48.36,0.61782736,-10.183548,-2.7336094,1004.77905,0,0
48.4,-0.0035614818,-9.997651,0.97816277,1004.80457,0,0
48.44,-0.18998809,-9.868954,0.13070302,1004.77936,0,0
48.48,-0.7444615,-9.663992,-0.12495634,1004.7841,0,0
48.52,-0.80661327,-9.702124,0.6704224,1004.7995,0,0
48.56,-0.44336432,-9.949985,0.102292314,1004.7945,0,0
48.6,-0.34300274,-9.907084,0.059681356,1004.7842,0,0
48.64,-0.5485485,-9.902317,0.4147604,1004.7743,0,0
48.68,-0.73019725,-9.940451,0.26799238,1004.7743,0,0
48.72,-0.52945983,-9.768853,0.43842962,1004.78186,0,0
48.76,-0.42431927,-9.878484,0.23484884,1004.78156,0,0
48.8,-0.5151184,-9.764086,0.44789863,1004.7993,0,0
48.84,-0.4721133,-9.8546505,0.36267817,1004.7841,0,0
48.88,-0.49602538,-9.9070835,0.40528658,1004.7891,0,0
48.92,-0.6537738000000001,-9.711654,0.5946614,1004.77905,0,0
48.96,-0.5581916,-9.802218,0.627801,1004.7995,0,0
49.0,-0.5534266,-9.878483,0.67514366,1004.8017,0,0
49.04,-0.7398511999999999,-9.873715,0.6798770000000001,1004.77136,0,0
49.08,-0.86413914,-9.864182,0.59465647,1004.7739,0,0
49.12,-1.0123271,-9.868948,0.755625,1004.7894,0,0
49.16,-0.77813065,-9.792684,0.5473099,1004.78656,0,0
49.2,-0.4865765,-9.787916,0.5189020999999999,1004.75885,0,0
49.24,-0.29539829999999995,-9.816515,0.33425915,1004.7995,0,0
49.28,-0.21415651,-9.883247,0.25850725,1004.7714,0,0
49.32,-0.3623435,-9.964278,0.26324050000000004,1004.80945,0,0
49.36,-0.21896333,-9.792682,0.21589515,1004.78143,0,0
49.4,-0.118601434,-9.792682,0.3011132,1004.7791,0,0
49.44,-0.3910633,-9.859413,0.22536147,1004.7714,0,0
49.48,-0.52969074,-9.864179,0.23956351,1004.7941,0,0
49.52,-0.67309964,-9.797446,0.2869062,1004.81195,0,0
49.56,-0.7209116,-9.826046,0.29163933,1004.7891,0,0
49.6,-0.75916314,-9.797445,0.348451,1004.81964,0,0
49.64,-0.5823243,-9.816512,0.25376162,1004.79694,0,0
49.68,-0.45806342,-9.773612,0.25376034,1004.7915,0,0
49.72,-0.36726105,-9.878476,0.29163432,1004.77136,0,0
49.76,-0.22866072,-9.8927765,0.2774298,1004.7941,0,0
49.8,-0.17993768,-9.8642,0.20176399,1004.76135,0,0
49.84,-0.20859511,-9.907099,0.35326692,1004.81683,0,0
49.88,-0.2563703,-9.797468,0.28698733,1004.81726,0,0
49.92,-0.6674091,-9.735503,0.2491143,1004.7894,0,0
49.96,-0.9876346,-9.859435,0.362742,1004.76624,0,0
50.0,-1.0545305,-9.864202,0.23491502,1004.76385,0,0
50.04,-1.1357658000000002,-9.883269,0.23018257,1004.80927,0,0
50.08,-0.9541075,-9.835605,0.2159817,1004.7892,0,0
50.12,-0.43308747,-9.792706,0.16390522,1004.81464,0,0
50.16,-0.19407444,-9.830838,0.055016004,1004.78156,0,0
50.2,-0.026758514,-9.873737,-0.09648286,1004.7892,0,0
50.24,-0.19881004,-9.8546715,-0.039668057,1004.78406,0,0
50.28,-0.36130053,-9.883273,0.1213038,1004.7942,0,0
50.32,-0.4664334,-9.807008,0.102368265,1004.7967,0,0
50.36,-0.34691548,-9.826075,0.22546487,1004.76904,0,0
50.4,-0.3516739,-9.811774,0.15445077,1004.7764,0,0
50.44,-0.23693576,-9.878508,0.12131205,1004.76904,0,0
50.48,-0.42332667,-9.845141,0.11657958,1004.76135,0,0
50.52,-0.4711005,-9.82131,0.1970667,1004.76373,0,0
50.56,-0.5475559,-9.7641115,0.17813103,1004.78156,0,0
50.6,-0.6001109,-9.830844,0.23494597,1004.7915,0,0
50.64,-0.6335482,-9.826078,0.12605663,1004.7714,0,0
50.68,-0.48535138,-9.811778,0.107121095,1004.76904,0,0
50.72,-0.48533005,-9.892811,0.040841375,1004.764,0,0
50.76,-0.63348114,-9.854679,0.09765633,1004.7714,0,0
50.8,-0.7011510999999999,-9.821295,0.16386911,1004.79395,0,0
50.84,-0.78719467,-9.816528,0.14493082,1004.7891,0,0
50.88,-0.8397796999999999,-9.826061,0.32010314,1004.79193,0,0
50.92,-0.8350079,-9.849894,0.17807026,1004.78656,0,0
50.96,-0.8875924000000001,-9.8594265,0.17333524,1004.7967,0,0
51.0,-0.86370146,-9.764094,0.23488176,1004.7942,0,0
51.04,-0.86848897,-9.806994,0.18753704,1004.78656,0,0
51.08,-0.7585609999999999,-9.835594,0.22541156,1004.7842,0,0
51.12,-0.6486331,-9.759329,0.2680205,1004.7788,0,0
51.16,-0.35707223,-9.6925955,0.13072214,1004.7891,0,0
51.2,-0.5626114000000001,-9.988123,0.059705384000000014,1004.7942,0,0
51.24,-0.36664706,-9.930923,0.04550145,1004.7916,0,0
51.28,-0.26149905,-9.802227,0.16859527,1004.7945,0,0
51.32,-0.41446036,-9.835593,0.121250555,1004.81714,0,0
51.36,-0.5052837,-9.806993,0.20173475,1004.8042,0,0
51.4,-0.4574933,-9.802226,0.18279646,1004.7839,0,0
51.44,-0.5435374,-9.911857,0.111779675,1004.7892,0,0
51.48,-0.44794846,-9.873724,0.21593595,1004.7866,0,0
51.52,-0.47185516,-9.759327,0.16859117,1004.8017,0,0
51.56,-0.46708196,-9.830824,0.18752821,1004.7714,0,0
51.6,-0.5961451999999999,-9.830824,0.09757373,1004.78406,0,0
51.64,-0.61049175,-9.86419,0.13071391,1004.7814,0,0
51.68,-0.5722609000000001,-9.826057,0.1212444,1004.78656,0,0
51.72,-0.6439651,-9.911856,0.17332219,1004.7538,0,0
51.76,-0.6678718000000001,-9.840356,0.107039824,1004.78644,0,0
51.8,-0.6286694,-9.82608,0.07872163,1004.78143,0,0
51.84,-0.67165715,-9.888046,0.17341252,1004.77405,0,0
51.88,-0.5473536999999999,-9.8499155,0.1260711,1004.80457,0,0
51.92,-0.6142424,-9.888048,0.14974575,1004.7891,0,0
51.96,-0.57119375,-9.864216,0.031388402,1004.8244,0,0
52.0,-0.59984404,-9.883284,0.03612543,1004.81934,0,0
52.04,-0.49943578,-9.821319,0.10241003,1004.80426,0,0
52.08,-0.5519851,-9.835619,0.06453740599999999,1004.7916,0,0
52.12,-0.51849604,-9.864219,0.097681046,1004.80176,0,0
52.16,-0.4372089,-9.83562,0.16869988,1004.8042,0,0
52.2,-0.47063714,-9.8213215,0.055076968,1004.79395,0,0
52.24,-0.46104896,-9.830855,0.11189245,1004.7992,0,0
52.28,-0.43233967,-9.888055,0.07875438,1004.77905,0,0
52.32,-0.4753275,-9.8117895,0.06455396,1004.78156,0,0
52.36,-0.46573746,-9.916655,-0.044334587,1004.7915,0,0
52.4,-0.5135088,-9.854691,-0.0017224848,1004.7916,0,0
52.44,-0.4369977,-9.892824,-0.0017193332,1004.7917,0,0
52.48,-0.50388646,-9.849926,0.021955276,1004.7889,0,0
52.52,-0.46083778,-9.826094,0.08350533,1004.7763,0,0
52.56,-0.44169003,-9.854693,0.007757496,1004.7892,0,0
52.6,-0.42253846,-9.802262,0.040901247,1004.79395,0,0
52.64,-0.40817052,-9.764131,0.03143508,1004.80426,0,0
52.68,-0.4511602,-9.930961,0.0314377,1004.7713,0,0
52.72,-0.4941442,-9.849931,0.05511284,1004.76373,0,0
52.76,-0.48933774,-9.849932,0.031443268,1004.7814,0,0
52.8,-0.47597027,-9.826075,-0.0065209493,1004.8143,0,0
52.84,-0.4616403,-9.8451395,-0.07280347,1004.8017,0,0
52.88,-0.39951116,-9.911872,-0.015991386,1004.77405,0,0
52.92,-0.3565023,-9.807008,-0.011257831,1004.81177,0,0
52.96,-0.41864806,-9.811773,-0.044399437,1004.7941,0,0
53.0,-0.37563872,-9.902338,-0.06333786,1004.77655,0,0
53.04,-0.3565278,-9.826073,0.012411829,1004.8118,0,0
53.08,-0.47125262,-9.845139,-0.030198652000000006,1004.7587,0,0
53.12,-0.4903800999999999,-9.821306,0.055019863,1004.7814,0,0
53.16,-0.514288,-9.835607,0.059753478,1004.7839,0,0
53.2,-0.42825985,-9.830839,0.017143058,1004.79926,0,0
53.24,-0.45216775,-9.830838,0.07395510400000001,1004.76874,0,0
53.28,-0.5477727,-9.859438,-0.020733837,1004.77405,0,0
53.32,-0.41872686,-9.864204,0.03134384,1004.7992,0,0
53.36,-0.4904328,-9.892803,-0.030204248,1004.8143,0,0
53.4,-0.4617629,-9.84037,-0.006533023000000001,1004.8017,0,0
53.44,-0.56214654,-9.859437,0.08341996,1004.7942,0,0
53.48,-0.5000190999999999,-9.868969,0.11655985,1004.78156,0,0
53.52,-0.5621643,-9.873736,-0.034941804,1004.79895,0,0
53.56,-0.56695294,-9.878502,0.03607348,1004.769,0,0
53.6,-0.57174224,-9.854669,0.036072597000000005,1004.79144,0,0
53.64,-0.61476874,-9.830836,0.07868148400000001,1004.79663,0,0
53.68,-0.49528253,-9.8117695,0.055008642,1004.79144,0,0
53.72,-0.45705193,-9.82607,0.08341436,1004.7738,0,0
53.76,-0.4809603,-9.873734,0.026600625,1004.77655,0,0
53.8,-0.5383258000000001,-9.854667999999998,0.06920956,1004.7866,0,0
53.84,-0.5144362,-9.816536,0.059739903,1004.8017,0,0
53.88,-0.48576677,-9.864202,0.045535818,1004.7816,0,0
53.92,-0.47621554,-9.840367,0.050269462,1004.8066,0,0
53.96,-0.4236465,-9.859434,0.10708149,1004.7995,0,0
54.0,-0.46667367,-9.826068,-0.025482617000000003,1004.80927,0,0
54.04,-0.4953608,-9.854667,0.09287672,1004.7788,0,0
54.08,-0.49058986,-9.888032,0.026594236,1004.79926,0,0
54.12,-0.45714068,-9.840366,0.0123901535,1004.8168,0,0
54.16,-0.46192884,-9.792702,0.054999042000000005,1004.7814,0,0
54.2,-0.44759774,-9.845133,0.05499828,1004.7967,0,0
54.24,-0.49062425,-9.802235,0.06446631,1004.7891,0,0
54.28,-0.46178043,-9.859437,0.0029341765000000003,1004.80676,0,0
54.32,-0.42354614,-9.873736,0.059746645,1004.80927,0,0
54.36,-0.45700902,-9.821304,0.055011854000000006,1004.8067,0,0
54.4,-0.52393025,-9.830837,0.021870665,1004.8066,0,0
54.44,-0.5334943,-9.849903,0.07394871,1004.8194,0,0
54.48,-0.52393866,-9.868968,0.021869898,1004.80676,0,0
54.52,-0.56218123,-9.868968,0.017135106,1004.8116,0,0
54.56,-0.53828645,-9.868968,0.05974438,1004.78656,0,0
54.6,-0.4952721,-9.773638,-0.011272084,1004.8192,0,0
54.64,-0.4235795,-9.907102,0.050274763,1004.7967,0,0
54.68,-0.4618219,-9.840369,0.007664785,1004.80426,0,0
54.72,-0.47616553,-9.8117695,0.002929993,1004.7866,0,0
54.76,-0.4666099,-9.754571,0.036070477,1004.79895,0,0
54.8,-0.44749486,-9.821303,-0.03494599,1004.7788,0,0
54.84,-0.5096363,-9.892801,-0.04914957,1004.7839,0,0
54.88,-0.48574167,-9.854667999999998,0.01239728,1004.78644,0,0
54.92,-0.5239843,-9.811769,0.031334534,1004.7939,0,0
54.96,-0.44273132,-9.816536,0.04080297,1004.79395,0,0
55.0,-0.35191932,-9.76887,-0.020744674,1004.7816,0,0
55.04,-0.394942,-9.888034,-0.034948286,1004.7763,0,0
55.08,-0.40450585,-9.888034,-0.053886276,1004.7841,0,0
55.12,-0.41406935,-9.835603,-0.058621038,1004.78156,0,0
55.16,-0.3949541,-9.826069,-0.039683785,1004.78143,0,0
55.2,-0.34715998,-9.8737335,-0.039684165,1004.7839,0,0
55.24,-0.40930218,-9.897567,-0.08702861,1004.7967,0,0
55.28,-0.31363702,-9.840369,-0.1627728,1004.7866,0,0
55.32,-0.28495944,-9.8642025,-0.087022394,1004.7892,0,0
55.36,-0.28018087,-9.902334,-0.08702251,1004.8269,0,0
55.4,-0.2945215,-9.816537,-0.096491456,1004.78156,0,0
55.44,-0.29930258,-9.849903,-0.16277325,1004.7967,0,0
55.48,-0.3088634,-9.840369,-0.10596052,1004.81177,0,0
55.52,-0.33276373,-9.854669,-0.12489824,1004.7967,0,0
55.56,-0.28496695,-9.8117695,-0.12489836,1004.769,0,0
55.6,-0.24672979,-9.849903,-0.17224254,1004.8066,0,0
55.64,-0.27063006,-9.883269,-0.13910182,1004.79144,0,0
55.68,-0.33276880000000003,-9.854669,-0.18644597,1004.78644,0,0
55.72,-0.29453158,-9.821303,-0.18171167,1004.75366,0,0
55.76,-0.313652,-9.873735,-0.1201645,1004.7892,0,0
55.8,-0.24673602,-9.840369,-0.12016462,1004.8143,0,0
55.84,-0.32321405,-9.9261675,-0.13436797,1004.8144,0,0
55.88,-0.34233457,-9.792705,-0.15804010000000002,1004.80676,0,0
55.92,-0.32321662,-9.82607,-0.15330581,1004.76135,0,0
55.96,-0.36623603,-9.849903,-0.11543068,1004.76373,0,0
56.0,-0.33755842,-9.888034,-0.15330602,1004.77905,0,0
56.04,-0.32322025,-9.854667999999998,-0.1201653,1004.78406,0,0
56.08,-0.2802034,-9.930934,-0.06808697,1004.7917,0,0
56.12,-0.18938829,-9.859435,-0.05388386,1004.7839,0,0
56.16,-0.24196741,-9.878501,-0.11069687,1004.7816,0,0
56.2,-0.19895044,-9.849902,-0.06335291,1004.78644,0,0
56.24,-0.24197002,-9.902333,-0.14857231,1004.7917,0,0
56.28,-0.26615357,-9.816529,-0.09178549,1004.7839,0,0
56.32,-0.29484582,-9.835596,-0.087052315,1004.7917,0,0
56.36,-0.17058367,-9.883261,-0.091787905,1004.78406,0,0
56.4,-0.1227975,-9.873727,-0.13913307,1004.8042,0,0
56.44,-0.17060825,-9.892794,-0.15333742,1004.8245,0,0
56.48,-0.09414406,-9.854659,-0.17227623,1004.8093,0,0
56.52,-0.24710968,-9.888025,-0.12966767,1004.79144,0,0
56.56,-0.21844272,-9.835594,-0.13913754,1004.7992,0,0
56.6,-0.28537270000000003,-9.802227,-0.16754514,1004.79395,0,0
56.64,-0.26626694,-9.81176,-0.17228079,1004.79395,0,0
56.68,-0.21370181,-9.81176,-0.18648514,1004.76874,0,0
56.72,-0.424025,-9.92139,-0.23383026,1004.76135,0,0
56.76,-0.40013874,-9.830825,-0.22436263,1004.8017,0,0
56.8,-0.5053063,-9.854657,-0.2196293,1004.7788,0,0
56.84,-0.44796133,-9.816525,-0.23383369,1004.7612,0,0
56.88,-0.38583654,-9.835591,-0.23856924,1004.80676,0,0
56.92,-0.4193079000000001,-9.835591,-0.22910158,1004.8194,0,0
56.96,-0.3332841,-9.897556,-0.28591558,1004.7739,0,0
57.0,-0.20902187,-9.84989,-0.21490075,1004.8116,0,0
57.04,-0.14689632,-9.840356,-0.12494813,1004.8091,0,0
57.08,-0.07999178,-9.802223,-0.23857497,1004.79144,0,0
57.12,-0.032206424,-9.8880205,-0.13441928,1004.80176,0,0
57.16,-0.06567691,-9.811756,-0.22437401,1004.804,0,0
57.2,-0.15172607,-9.826056,-0.09654626,1004.7891,0,0
57.24,-0.27123308,-9.868954,-0.12495378,1004.79144,0,0
57.28,-0.40429133,-9.7831745,-0.14855473,1004.7992,0,0
57.32,-0.4520715,-9.840374,-0.19116277,1004.8168,0,0
57.36,-0.38513523,-9.816542,-0.12014495,1004.79926,0,0
57.4,-0.43291545,-9.91664,-0.14381532,1004.79395,0,0
57.44,-0.42811543,-9.873741,-0.16748554,1004.79144,0,0
57.48,-0.34206,-9.82131,-0.18642138,1004.7941,0,0
57.52,-0.31814194,-9.878509,-0.2479669,1004.81683,0,0
57.56,-0.48063862,-9.935708,-0.25269980000000003,1004.7788,0,0
57.6,-0.41370118,-9.826077,-0.18641628,1004.8144,0,0
57.64,-0.38500452,-9.840378,-0.18641463,1004.7965,0,0
57.68,-0.5427202,-9.826078,-0.09172492,1004.78644,0,0
57.72,-0.61917686,-9.849913,-0.13906713,1004.78644,0,0
57.76,-0.5761396,-9.849913,-0.09645574,1004.80176,0,0
57.8,-0.52832377,-9.792715,-0.053844456,1004.7889,0,0
57.84,-0.5378644,-9.835613,-0.09645237,1004.7889,0,0
57.88,-0.52828574,-9.883281,-0.13432585,1004.769,0,0
57.92,-0.41355264,-9.902346,-0.2242779,1004.7889,0,0
57.96,-0.5234679,-9.80225,-0.10591595,1004.81683,0,0
58.0,-0.5091107,-9.888047,-0.20533684,1004.7839,0,0
58.04,-0.5282109,-9.783184,-0.13431902,1004.78406,0,0
58.08,-0.552092,-9.849916,-0.176927,1004.7814,0,0
58.12,-0.57119226,-9.792718,-0.120112404,1004.80676,0,0
58.16,-0.528155,-9.783185,-0.17692353,1004.78644,0,0
58.2,-0.47555935,-9.84515,-0.19112512,1004.7788,0,0
58.24,-0.39906347,-9.868983,-0.29528028,1004.7992,0,0
58.28,-0.33228442,-9.864214,-0.23848005,1004.7942,0,0
58.32,-0.3896286,-9.830849,-0.23847882,1004.7917,0,0
58.36,-0.6094869,-9.888047,-0.30002493,1004.7866,0,0
58.4,-0.59035575,-9.845148,-0.24321099,1004.8066,0,0
58.44,-0.53776526,-9.7879505,-0.20060019,1004.80707,0,0
58.48,-0.5186333,-9.83085,-0.18166141,1004.8017,0,0
58.52,-0.46126378,-9.759352,-0.24320759,1004.7967,0,0
58.56,-0.30351835,-9.826084,-0.24794091,1004.8118,0,0
58.6,-0.32740465,-9.84515,-0.17692366,1004.81683,0,0
58.64,-0.50902456,-9.897583,-0.0727656,1004.80426,0,0
58.68,-0.62850773,-9.835617,-0.21006227,1004.809,0,0
58.72,-0.7814479,-9.849918,-0.19585781,1004.77405,0,0
58.76,-0.70973825,-9.835617999999998,-0.1343094,1004.7816,0,0
58.8,-0.4946351,-9.80702,-0.13904270000000002,1004.78406,0,0
58.84,-0.427706,-9.792721,-0.15797924,1004.7841,0,0
58.88,-0.41813368,-9.80702,-0.21479093,1004.78644,0,0
58.92,-0.6523306,-9.921417,-0.19111767,1004.7739,0,0
58.96,-0.5901813,-9.811787,-0.14850694,1004.7764,0,0
59.0,-0.56149054,-9.873753,-0.18164667,1004.8144,0,0
59.04,-0.3463859,-9.892819,-0.22898947,1004.7763,0,0
59.08,-0.40373164,-9.90712,-0.2100508,1004.7866,0,0
59.12,-0.50409406,-9.935719,-0.23372157,1004.80426,0,0
59.16,-0.4801839,-9.826088,-0.15797007,1004.7688,0,0
59.2,-0.49450982,-9.759357,-0.006467879,1004.7839,0,0
59.24,-0.5566346,-9.811789,-0.0869516,1004.78644,0,0
59.28,-0.70612544,-9.859423,-0.26697955,1004.7839,0,0
59.32,-0.8925656,-9.840355,-0.05393387,1004.8017,0,0
59.36,-0.68708485,-9.826055,-0.14389218,1004.77905,0,0
59.4,-0.52460957,-9.849887,-0.12022367,1004.79395,0,0
59.44,-0.29521954,-9.745022,-0.14389939999999998,1004.76135,0,0
59.48,-0.19965139,-9.835586,-0.20071484,1004.8017,0,0
59.52,-0.32397956,-9.926148,-0.20545411,1004.8017,0,0
59.56,-0.2762196,-9.8022175,-0.2528016,1004.7941,0,0
59.6,-0.2475839,-9.873714,-0.2764776,1004.79694,0,0
59.64,-0.30496943,-9.868947,-0.2812145,1004.7841,0,0
59.68,-0.35281825,-9.859413,-0.1817967,1004.7764,0,0
59.72,-0.32895726,-9.816513,-0.17706577,1004.7839,0,0
59.76,-0.4628349,-9.787913,-0.09185043,1004.7713,0,0
59.8,-0.41985726,-9.864177,0.017037153,1004.8168,0,0
59.84,-0.43422198,-9.878475,-0.035043616,1004.7892,0,0
59.88,-0.41992575,-9.816509,0.0028276816,1004.7941,0,0
59.92,-0.5633706,-9.873707,0.0075574387,1004.78156,0,0
59.96,-0.7115826,-9.916605,-0.016118083000000002,1004.7866,0,0
60.0,-0.58256847,-9.835572,0.10223834,1004.80676,0,0
60.04,-0.5873889,-9.849871,0.16378185,1004.77905,0,0
60.08,-0.77383924,-9.745006,0.13537195,1004.7665,0,0
60.12,-0.74042124,-9.816503,0.15904026,1004.76373,0,0
60.16,-0.635296,-9.802203,0.15430306,1004.77905,0,0
60.2,-0.6257845999999999,-9.926132,0.040672947,1004.78156,0,0
60.24,-0.5589104,-9.878465,0.04540338,1004.7915,0,0
60.28,-0.60538673,-9.902329,0.08813405,1004.764,0,0
60.32,-0.59581757,-9.897565,0.16388537,1004.77405,0,0
60.36,-0.57668173,-9.845132,0.14021488,1004.7967,0,0
60.4,-0.6196851999999999,-9.845132,0.031324934,1004.76373,0,0
60.44,-0.6101125,-9.845133,0.14021744,1004.76904,0,0
60.48,-0.5336251999999999,-9.845133,0.14495279,1004.764,0,0
60.52,-0.5192718,-9.811768,-0.04915655,1004.7917,0,0
60.56,-0.3854242,-9.9071,-0.05862413,1004.76874,0,0
60.6,-0.38063133,-9.811768,0.040799554,1004.7839,0,0
60.64,-0.26589686,-9.821302,0.021863684,1004.7739,0,0
60.68,-0.30412218,-9.816536,0.059740137,1004.7967,0,0
60.72,-0.3662457,-9.821302,0.0692102,1004.80676,0,0
60.76,-0.4235894,-9.849903,0.04080506,1004.7814,0,0
60.8,-0.5335118000000001,-9.892801,0.059743878,1004.75885,0,0
60.84,-0.7294696999999999,-9.868968,-0.0018020906,1004.77655,0,0
60.88,-0.77247405,-9.873736,-0.001800824,1004.80426,0,0
60.92,-0.71510255,-9.868969,0.06448213,1004.7788,0,0
60.96,-0.46654052,-9.878503,0.026608018,1004.7588,0,0
61.0,-0.35659453,-9.883271,-0.0065318756000000006,1004.75635,0,0
61.04,-0.39003485,-9.849905,0.0076730326,1004.7763,0,0
61.08,-0.5764366999999999,-9.897571,0.03608043,1004.77136,0,0
61.12,-0.4951644,-9.80224,-0.0065278113,1004.7764,0,0
61.16,-0.6242051,-9.868971,0.021879911,1004.7841,0,0
61.2,-0.6289710000000001,-9.873739,0.06449082,1004.7791,0,0
61.24,-0.4568867,-9.950004,-0.0917435,1004.76636,0,0
61.28,-0.49529994,-10.035797,-0.001805801,1004.78406,0,0
61.32,-0.41403574,-9.940468,-0.09175882,1004.76904,0,0
61.36,-0.37101075,-9.9261675,-0.07282059,1004.7942,0,0
61.4,-0.42358422,-10.002433,-0.02547611,1004.77405,0,0
61.44,-0.34710142,-10.078697,-0.01600679,1004.7841,0,0
61.48,-0.36621267,-10.069164,0.03133801,1004.78656,0,0
61.52,-0.5573981,-10.045332,0.02186981,1004.7788,0,0
61.56,-0.5382746,-10.121596,0.04080783,1004.7763,0,0
61.6,-0.53348845,-10.116831,0.06448042400000001,1004.7714,0,0
61.64,-0.38530654,-10.121597,0.064481154,1004.75366,0,0
61.68,-0.4952361,-10.2169285,-0.07281604400000001,1004.78156,0,0
61.72,-0.47133237,-10.212162,-0.12015964,1004.76385,0,0
61.76,-0.35661066,-10.202628,-0.08228384,1004.75867,0,0
61.8,-0.41396087,-10.274127,-0.030204687,1004.76886,0,0
61.84,-0.32313937,-10.2693615,-0.063345045,1004.79193,0,0
61.88,-0.37571126,-10.255062,-0.120157346,1004.769,0,0
61.92,-0.4856388,-10.32656,-0.058609378,1004.77905,0,0
61.96,-1.1261262,-10.283661,-0.34267303,1004.769,0,0
62.0,-0.6576991,-10.498157,-0.3663445,1004.7665,0,0
62.04,-0.41392356,-10.35516,0.04554919,1004.75867,0,0
62.08,-0.33266175,-10.302729,0.22545703,1004.78406,0,0
62.12,-0.098443806,-10.564889,-0.26692036,1004.76886,0,0
62.16,-0.25617063,-10.445725,-0.16749726,1004.7714,0,0
62.2,-0.29440427,-10.388527,-0.034933474,1004.75867,0,0
62.24,-0.41867203,-10.50769,0.06922407400000001,1004.76385,0,0
62.28,-0.7338791,-10.369467,0.050310254000000006,1004.7844,0,0
62.32,-0.5235512,-10.355167,-0.13906442,1004.7612,0,0
62.36,-0.55699337,-10.498165,0.06451649999999999,1004.76385,0,0
62.4,-0.46616268,-10.412367,-0.011232652,1004.744,0,0
62.44,-0.4326865,-10.455266,-0.11065358,1004.7588,0,0
62.48,-0.4183306,-10.4648,-0.02069835,1004.76886,0,0
62.52,-0.31794340000000004,-10.412368,-0.011228498,1004.7286,0,0
62.56,-0.42307848,-10.460034,-0.0964459,1004.7233,0,0
62.6,-0.50431865,-10.402836,-0.124850824,1004.74866,0,0
62.64,-0.41826564,-10.445736,-0.049098853,1004.7613,0,0
62.68,-0.54730386,-10.364703,-0.011222079,1004.7465,0,0
62.72,-0.58074707,-10.402838,-0.03015827,1004.7514,0,0
62.76,-0.44689608,-10.388538,-0.053828787,1004.7336,0,0
62.8,-0.4516604,-10.383771,0.040860694,1004.72894,0,0
62.84,-0.41340965,-10.321807000000002,-0.011216629,1004.7311,0,0
62.88,-0.46119118,-10.336106,-0.00648069,1004.72894,0,0
62.92,-0.4468311,-10.364706,-0.07749489,1004.71124,1,3
62.96,-0.41813993,-10.297976,-0.1059002,1004.7011,1,3
63.0,-0.42768097,-10.3075075,-0.06328884,1004.6932,1,3
63.04,-0.4420039000000001,-10.283676,-0.06802174400000001,1004.73145,1,3
63.08,-0.43243194,-10.288444,-0.030145373,1004.7188,1,3
63.12,-0.40851128,-10.302744,-0.09642504,1004.72644,1,3
63.16,-0.34636253,-10.250311,-0.07748641,1004.6882,1,3
63.2,-0.4371581,-10.231246,-0.058546882,1004.69867,1,3
63.24,-0.38456792,-10.216947,-0.053811323,1004.69604,1,3
63.28,-0.4625312,-10.212144,-0.12496346,1004.6684,1,3
63.32,-0.36698222,-10.207376,-0.16284305,1004.6734,1,3
63.36,-0.34312764,-10.150176,-0.13917509,1004.6432,1,3
63.4,-0.300151,-10.112042,-0.18652293,1004.65076,1,3
63.44,-0.35755023,-10.026243,-0.120245054,1004.66315,1,3
63.48,-0.2858976,-10.011943,-0.16759318,1004.64526,1,3
63.52,-0.27638236,-9.940444,-0.18653485,1004.6352,1,3
63.56,-0.26208735,-9.973807,-0.11078845,1004.65283,1,3
63.6,-0.329049,-9.916608,-0.21021503,1004.6432,1,3
63.64,-0.3338704,-9.907074,-0.12499955,1004.6507,1,3
63.68,-0.34825426,-9.85464,-0.13920684,1004.6331,1,3
63.72,-0.33873624,-9.902305,-0.09186657,1004.61505,1,3
63.76,-0.33400083,-9.983336,-0.12027706,1004.6331,1,3
63.8,-0.36750376,-9.988102,-0.15342197,1004.6154,1,3
63.84,-0.3675482,-9.926136,-0.08714436,1004.6,1,3
63.88,-0.40105122,-9.959498,-0.12975807,1004.6255,1,3
63.92,-0.31983894,-9.959497,-0.1913094,1004.6075,1,3
63.96,-0.27686512,-9.964264,-0.2055167,1004.62054,1,3
64.0,-0.30558556,-9.907064,-0.15344203,1004.57214,1,3
64.04,-0.2673943,-9.902297,-0.12030551,1004.5978,1,3
64.08,-0.32479078,-9.816498,-0.17712191,1004.5925,1,3
64.12,-0.23401892,-9.81173,-0.20079803,1004.57214,1,3
64.16,-0.27707875,-9.773597,-0.24814586,1004.5774,1,3
64.2,-0.2580067,-9.8117285,-0.13452446,1004.57764,1,3
64.24,-0.21503289,-9.802194,-0.17713816,1004.58514,1,3
64.28,-0.27561396,-9.797465,-0.19593334,1004.56464,1,3
64.32,-0.2947141,-9.811765,-0.17225958,1004.57214,1,3
64.36,-0.27557462,-9.797466,-0.115444854,1004.55475,1,3
64.4,-0.29467350000000003,-9.90233,-0.18645908,1004.5498,1,3
64.44,-0.1847178,-9.935698,-0.22906683,1004.5549,1,3
64.48,-0.16557826,-9.926165,-0.18172096,1004.5497,1,3
64.52,-0.09864198,-9.926166,-0.08703111,1004.5575,1,3
64.56,-0.13208033,-9.9071,-0.17224854,1004.5448,1,3
64.6,-0.07469985,-9.916634,-0.25273132,1004.54456,1,3
64.64,-0.16549966,-9.930933,-0.29533944,1004.5498,1,3
64.68,-0.036424667,-9.79747,-0.20538393,1004.55225,1,3
64.72,-0.060303397,-9.783171,-0.105959564,1004.55725,1,3
64.76,-0.05550459,-9.859437,-0.21011475,1004.5423,1,3
64.8,-0.05548428,-9.802238,-0.27639455,1004.53705,1,3
64.84,0.040132046,-9.75934,-0.068078876,1004.5272,1,3
64.88,-0.16537414,-9.811771,-0.16749905,1004.48413,1,3
64.92,-0.14146116,-9.764107,-0.07754409,1004.5043,1,3
64.96,-0.10320245,-9.778407,-0.14382389,1004.4918,1,3
65.0,-0.18921864,-9.8451395,-0.12961884,1004.49945,1,3
65.04,-0.1270609,-9.945237,-0.20063306,1004.49194,1,3
65.08,-0.088804744,-9.964305,-0.2716475,1004.48425,1,3
65.12,-0.05532328,-9.835608,-0.17695729999999998,1004.5044,1,3
65.16,0.016391546,-9.797476,-0.124877214,1004.45886,1,3
65.2,-0.15088134,-9.816543,-0.21482907,1004.47156,1,3
65.24,-0.13652033,-9.797477,-0.2100927,1004.4664,1,3
65.28,-0.074551515,-9.740274,-0.09648238,1004.4616,1,3
65.32,-0.12233768,-9.64971,-0.24324785,1004.44653,1,3
65.36,-0.017168476999999998,-9.582979,-0.16749617,1004.43115,1,3
65.4,-0.093630284,-9.69261,-0.15329155,1004.39856,1,3
65.44,0.0019761026,-9.573446,-0.09174335,1004.4387,1,3
65.48,-0.17486472,-9.587746,-0.13908632,1004.4109,1,3
65.52,-0.1079348,-9.51148,-0.17696036,1004.4135,1,3
65.56,-0.08880368,-9.506716,-0.21010014,1004.43365,1,3
65.6,-0.088791005,-9.549615,-0.19589576,1004.39056,1,3
65.64,-0.09355892,-9.611581,-0.18642585,1004.4186,1,3
65.68,-0.02184835,-9.568681,-0.20536226,1004.4087,1,3
65.72,-0.11743254,-9.563915,-0.29531482,1004.4085,1,3
65.76,-0.12220046,-9.416153,-0.20536007,1004.3885,1,3
65.8,-0.107849136,-9.425686,-0.17695253,1004.3784,1,3
65.84,-0.16041112,-9.4113865,-0.23849835,1004.39606,1,3
65.88,-0.14606139,-9.4113865,-0.25743502,1004.3859,1,3
65.92,-0.15082853,-9.301756,-0.21008983,1004.39075,1,3
65.96,-0.09823799,-9.28269,-0.18641664,1004.353,1,3
66.0,-0.17470294,-9.325589,-0.21482201,1004.3657,1,3
66.04,-0.17946929,-9.311291,-0.22902395,1004.3834,1,3
66.08,-0.2176958,-9.235025,-0.14380357,1004.37585,1,3
66.12,-0.18422452,-9.273158,-0.1485368,1004.3583,1,3
66.16,-0.22245103,-9.23026,-0.14380133,1004.34796,1,3
66.2,-0.15074049,-9.239793,-0.15800332,1004.333,1,3
66.24,-0.24632467,-9.254092,-0.17220546,1004.34283,1,3
66.28,-0.20407811,-9.27314,-0.15333845,1004.3378,1,3
66.32,-0.20409715,-9.292206,-0.21962182,1004.32794,1,3
66.36,-0.07984009,-9.258839,-0.14860742,1004.34534,1,3
66.4,-0.027281277000000003,-9.282672,-0.11546832,1004.3759,1,3
66.44,-0.08943654,-9.23024,-0.049188297,1004.33527,1,3
66.48,-0.17549203,-9.335103,-0.09179966,1004.3432,1,3
66.52,-0.27588698,-9.273138,-0.068129405,1004.30505,1,3
66.56,-0.323704,-9.26837,-0.02552149,1004.3103,1,3
66.6,-0.26158560000000003,-9.25407,-0.19596182,1004.32776,1,3
66.64,-0.18513134,-9.320802,0.05495958,1004.34283,1,3
66.68,-0.29986086,-9.273136,-0.11074591,1004.34045,1,3
66.72,-0.23774247,-9.273135,-0.09181003,1004.35315,1,3
66.76,-0.32379794,-9.330334,-0.12968701,1004.3657,1,3
66.8,-0.29513812,-9.330333,-0.08707909,1004.3432,1,3
66.84,-0.39075327,-9.373231,-0.016064778000000002,1004.32794,1,3
66.88,-0.35253268,-9.358931,-0.19123937,1004.3103,1,3
66.92,-0.41946894,-9.397063,0.017072672,1004.3103,1,3
66.96,-0.50552326,-9.301731,-0.12969549,1004.3201,1,3
67.0,-0.3669291,-9.339865,0.045475625,1004.31006,1,3
67.04,-0.45776325,-9.258831,-0.11076136,1004.2899,1,3
67.08,-0.3478468,-9.449493,-0.16757596,1004.28503,1,3
67.12,-0.43390226,-9.449492,0.02653292,1004.338,1,3
67.16,-0.45304054,-9.511457,-0.09656337,1004.3076,1,3
67.2,-0.47217762,-9.41136,-0.058689747,1004.3078,0,0
67.24,-0.47697645,-9.425659,-0.07289471,1004.3126,0,0
67.28,-0.3616836,-9.592503,-0.1107171,1004.29004,0,0
67.32,-0.32821995,-9.55437,-0.03496616,1004.31537,0,0
67.36,-0.5098477,-9.630635,-0.11545059,1004.30786,0,0
67.4,-0.51940256,-9.673533,-0.120184556,1004.3,0,0
67.44,-0.59109455,-9.6020355,-0.17226256,1004.31287,0,0
67.48,-0.48115396,-9.573437,-0.06337076400000001,1004.3027,0,0
67.52,-0.576745,-9.616336,-0.020760696,1004.3027,0,0
67.56,-0.5289416,-9.659235,-0.053900998,1004.3305,0,0
67.6,-0.58151495,-9.811765,-0.05390059,1004.32043,0,0
67.64,-0.54327106,-9.692601,0.021850374,1004.3078,0,0
67.68,-0.5337068,-9.797465,-0.10124372,1004.32294,0,0
67.72,-0.58150005,-9.821299,-0.09650889,1004.3202,0,0
67.76,-0.5862748000000001,-9.754567,-0.0728364,1004.30505,0,0
67.8,-0.50023293,-9.806999,0.021852199,1004.2899,0,0
67.84,-0.5097878,-9.787933,0.0076494419999999985,1004.3305,0,0
67.88,-0.5528009,-9.859432,0.0076498836,1004.3406,0,0
67.92,-0.54801637,-9.787933,-0.001818493,1004.32544,0,0
67.96,-0.57668984,-9.8356,-0.05389644,1004.328,0,0
68.0,-0.5002082,-9.845132,-0.039692793,1004.3356,0,0
68.04,-0.5719002,-9.911864,-0.06336437,1004.333,0,0
68.08,-0.55277586,-9.878498,-0.053895082,1004.3152,0,0
68.12,-0.57189035,-9.873732,0.007652621700000002,1004.3305,0,0
68.16,-0.5240869,-9.849899,-0.020753331,1004.333,0,0
68.2,-0.5240822,-9.811767,-0.08703454,1004.32544,0,0
68.24,-0.48105884,-9.873733,-0.034955647,1004.34033,0,0
68.28,-0.32872856,-9.792686,-0.1297008,1004.31287,0,0
68.32,-0.46736193,-9.864183,-0.044483278,1004.3202,0,0
68.36,-0.46260244,-9.806985,-0.115501195,1004.31036,0,0
68.4,-0.34790745,-9.79745,-0.10603425,1004.3179,0,0
68.44,-0.4578619,-9.8022175,-0.087098345,1004.30505,0,0
68.48,-0.42442483,-9.892781,-0.15811642,1004.31036,0,0
68.52,-0.42922366,-9.835583,-0.06343004,1004.338,0,0
68.56,-0.5009398,-9.859414,-0.09183821,1004.34564,0,0
68.6,-0.4149236,-9.802216,-0.11551209,1004.31036,0,0
68.64,-0.47708267,-9.826047,-0.058701206,1004.3481,0,0
68.68,-0.46276355,-9.878479,-0.03976545,1004.33026,0,0
68.72,-0.4819017,-9.826046,-0.058704797,1004.3381,0,0
68.76,-0.47714096,-9.859412,-0.0776442,1004.3354,0,0
68.8,-0.49628174,-9.864178,-0.09184937,1004.3179,0,0
68.84,-0.52975816,-9.835578,-0.10131982,1004.32294,0,0
68.88,-0.47720188,-9.85941,-0.04450893,1004.32544,0,0
68.92,-0.5154593,-9.835578,-0.10132353,1004.32043,0,0
68.96,-0.5202607,-9.83081,-0.07291907,1004.333,0,0
69.0,-0.5107201,-9.830809,-0.09185842,1004.3305,0,0
69.04,-0.5346394,-9.78791,-0.06818825,1004.333,0,0
69.08,-0.47730207,-9.830808,-0.12500297,1004.32544,0,0
69.12,-0.53467745,-9.8498745,-0.053988498,1004.34564,0,0
69.16,-0.5729373999999999,-9.873706,-0.04925609,1004.3432,0,0
69.2,-0.5299383000000001,-9.849874,-0.08713308,1004.3202,0,0
69.24,-0.55385876,-9.835573,-0.011384588,1004.3126,0,0
69.28,-0.5909856,-9.873733,-0.05389246,1004.33044,0,0
69.32,-0.5622845999999999,-9.845134,-0.016015213,1004.3406,0,0
69.36,-0.55747944,-9.859434,-0.06335692,1004.338,0,0
69.4,-0.5335551,-9.811769,-0.0633546,1004.3152,0,0
69.44,-0.5144105,-9.864202,-0.053883445,1004.333,0,0
69.48,-0.4904861,-9.79747,-0.08702196,1004.32794,0,0
69.52,-0.50958,-9.988134,-0.08701967,1004.32794,0,0
69.56,-0.5812517,-9.840371,-0.12962699,1004.3531,0,0
69.6,-0.5907876,-9.754573,-0.053874318,1004.31036,0,0
69.64,-0.51906514,-9.792707,-0.011262368,1004.3003,0,0
69.68,-0.528601,-9.916637,-0.020729005,1004.3179,0,0
69.72,-0.5476948,-9.83084,-0.06807071,1004.32294,0,0
69.76,-0.62892616,-9.816542,-0.044396397,1004.31537,0,0
69.8,-0.55242234,-9.864207,-0.06806594,1004.3305,0,0
69.84,-0.566738,-9.802243,-0.063329354,1004.3533,0,0
69.88,-0.44243932,-9.807011,-0.091733605,1004.3305,0,0
69.92,-0.4902104000000001,-9.802244,-0.06805912,1004.3456,0,0
69.96,-0.52842355,-9.883277,-0.11066647,1004.33795,0,0
70.0,-0.5331796,-9.883278,-0.14853951,1004.35065,0,0
70.04,-0.609631,-9.845144,-0.14853717,1004.36316,0,0
70.08,-0.48533076,-9.79748,-0.124862835,1004.343,0,0
70.12,-0.4040488,-9.859447,-0.034906816,1004.3406,0,0
70.16,-0.40402663,-9.787948,-0.11538969,1004.3357,0,0
70.2,-0.29406416,-9.835614,-0.12485604,1004.33545,0,0
70.24,-0.35617787,-9.897581,-0.20060435,1004.31537,0,0
70.28,-0.33379135,-9.787912,-0.124992296,1004.33795,0,0
70.32,-0.31948876,-9.821277,-0.15340209,1004.33044,0,0
70.36,-0.38644052,-9.883242999999998,-0.19601493,1004.32544,0,0
70.4,-0.44383496,-9.878473,-0.24336232,1004.338,0,0
70.44,-0.39607143,-9.811742,-0.077661306,1004.323,0,0
70.48,-0.2670558,-9.835574,-0.20549384,1004.3204,0,0
70.52,-0.43438578,-9.854638,-0.2054972,1004.3127,0,0
70.56,-0.40096396,-9.897537,-0.17235975,1004.3179,0,0
70.6,-0.49181706,-9.859404,-0.12975346,1004.348,0,0
70.64,-0.5826678000000001,-9.868936,-0.13922542,1004.33044,0,0
70.68,-0.50622547,-9.77837,-0.14869736,1004.328,0,0
70.72,-0.49670494,-9.826035,-0.068216085,1004.3179,0,0
70.76,-0.3055473,-9.821267,-0.15817292,1004.3381,0,0
70.8,-0.42029935,-9.902298,-0.20078596,1004.3432,0,0
70.84,-0.5254896,-9.902297,-0.31914923,1004.3356,0,0
70.88,-0.4586115,-9.8546295,-0.110838994,1004.3381,0,0
70.92,-0.40128833,-9.830796,-0.11084217,1004.32776,0,0
70.96,-0.4634626,-9.826029,-0.03509504,1004.3506,0,0
71.0,-0.5782124,-9.883227,-0.15819271,1004.32043,0,0
71.04,-0.4109584,-9.897526,-0.11085227,1004.3405,0,0
71.08,-0.3345183,-9.845093,-0.10612123,1004.343,0,0
71.12,-0.25807363,-9.840325,-0.17240584,1004.33295,0,0
71.16,-0.36326838,-9.88799,-0.14873739,1004.2976,0,0
71.2,-0.5019195,-9.854623,-0.15347515,1004.3101,0,0
71.24,-0.44937855,-9.8403225,-0.06352484,1004.32043,0,0
71.28,-0.35227647,-9.797461,-0.10126224,1004.3305,0,0
71.32,-0.30923283,-9.868958,-0.06811908,1004.3505,0,0
71.36,-0.21839120000000006,-9.883261,-0.13913283,1004.343,0,0
71.4,-0.13233095,-9.845128,-0.15333384,1004.3153,0,0
71.44,-0.23746288,-9.8498955,-0.32377028,1004.33295,0,0
71.48,-0.33781183,-9.864196000000002,-0.17700124,1004.3256,0,0
71.52,-0.4525017,-9.830831,-0.07284203,1004.3128,0,0
71.56,-0.44769812,-9.849897,-0.1438559,1004.343,0,0
71.6,-0.42855197,-9.849898,-0.049165357,1004.3229,0,0
71.64,-0.40463078,-9.854664,-0.020756897,1004.3077,0,0
71.68,-0.3520276,-9.8832655,-0.09650503,1004.33295,0,0
71.72,-0.31376220000000005,-9.854666,0.0029199198,1004.33795,0,0
71.76,-0.332856,-9.826067,-0.101234674,1004.30255,0,0
71.8,-0.37585047,-9.859434,-0.1012325,1004.3456,0,0
71.84,-0.40928376,-9.830835,-0.04441731,1004.3101,0,0
71.88,-0.35190237,-9.835603,-0.07755597,1004.338,0,0
71.92,-0.31841832,-9.835604,-0.06808482,1004.33307,0,0
71.96,-0.28493434,-9.85467,-0.01126967,1004.33026,0,0
72.0,-0.25623015,-9.859437,-0.06808020000000001,1004.3355,0,0
72.04,-0.33746147,-9.888037,-0.034937035,1004.33044,0,0
72.08,-0.31831688,-9.849906,-0.06334114,1004.33044,0,0
72.12,-0.38043052,-9.883272,-0.05860455,1004.30786,0,0
72.16,-0.35172796,-9.878506,-0.063336775,1004.3178,0,0
72.2,-0.31346256,-9.868973,-0.1390848,1004.3202,0,0
72.24,-0.3612368,-9.840374,-0.110676214,1004.33307,0,0
72.28,-0.337659,-9.868965,-0.016017511,1004.3177,0,0
72.32,-0.3902247,-9.807001,-0.068094835,1004.328,0,0
72.36,-0.41889352,-9.854666,-0.058625106,1004.3531,0,0
72.4,-0.35196352,-9.859434,-0.02548309,1004.30505,0,0
72.44,-0.32805300000000004,-9.835602,-0.0065444484,1004.3204,0,0
72.48,-0.32326323,-9.902332,-0.101231635,1004.3227,0,0
72.52,-0.33759052,-9.830835,-0.10596493,1004.33795,0,0
72.56,-0.34713945,-9.854667999999998,-0.12016715,1004.33307,0,0
72.6,-0.37102702,-9.835603,-0.09649408,1004.338,0,0
72.64,-0.4140339,-9.888035,-0.19118114,1004.3305,0,0
72.68,-0.35666472,-9.845136,-0.16277365,1004.338,0,0
72.72,-0.2992964,-9.840369,-0.16277269,1004.3027,0,0
72.76,-0.33752343,-9.849903,-0.13436520000000002,1004.3506,0,0
72.8,-0.31361300000000003,-9.816538,-0.18644261,1004.3432,0,0
72.84,-0.31838208,-9.911869,-0.19117606,1004.3381,0,0
72.88,-0.28969258,-9.89757,-0.22431587,1004.3305,0,0
72.92,-0.28012156,-9.854671000000002,-0.27165890000000004,1004.3255,0,0
72.96,-0.2131922,-9.811771,-0.15803206,1004.3405,0,0
73.0,-0.15104474,-9.859438,-0.21010962,1004.3382,0,0
73.04,-0.18449125,-9.883271,-0.16749889,1004.3432,0,0
73.08,-0.27051556,-9.892804,-0.17223217,1004.3405,0,0
73.12,-0.30396348,-9.864205,-0.18169999,1004.33795,0,0
73.16,-0.3469711,-9.80224,-0.14382374,1004.33295,0,0
73.2,-0.26570225,-9.85944,-0.14855707,1004.343,0,0
73.24,-0.30871117,-9.883273,-0.14382179,1004.31793,0,0
73.28,-0.32822686,-9.8403635,-0.19593655,1004.3103,0,0
73.32,-0.28999323,-9.826063,-0.16279615,1004.3204,0,0
73.36,-0.23742044,-9.783164,-0.053905297000000005,1004.32544,0,0
73.4,-0.40949845,-9.868961,0.07865757,1004.33044,0,0
73.44,-0.4190628,-9.840363,-0.058640596,1004.3102,0,0
73.48,-0.41906816,-9.7879305,-0.15332920000000005,1004.3279,0,0
73.52,-0.41907293,-9.854662,-0.06337595,1004.3407,0,0
73.56,-0.395179,-9.868961,-0.09651722,1004.33295,0,0
73.6,-0.45732158,-9.859429,-0.18173698,1004.3279,0,0
73.64,-0.44298685,-9.802231,-0.110721365,1004.3205,0,0
73.68,-0.41431314,-9.8498955,-0.15806587,1004.33295,0,0
73.72,-0.43821722,-9.80223,-0.16280076,1004.32544,0,0
73.76,-0.29482815,-9.826062,-0.14859797,1004.31537,0,0
73.8,-0.23269549,-9.854661,-0.21961446,1004.328,0,0
73.84,-0.29483828,-9.8498955,-0.24802141,1004.3127,0,0
73.88,-0.33308150000000003,-9.930926,-0.25275624,1004.3254,0,0
73.92,-0.32352698,-9.811762,-0.23381908,1004.3155,0,0
73.96,-0.33787143,-9.821296,-0.16280349,1004.33545,0,0
74.0,-0.34265602,-9.859427,-0.16280393,1004.3153,0,0
74.04,-0.29964283,-9.888026,-0.18174201,1004.31537,0,0
74.08,-0.38090461,-9.892794,-0.22435208,1004.323,0,0
74.12,-0.3044328,-9.868959,-0.09652364,1004.35077,0,0
74.16,-0.23752034,-9.773629,-0.21961857,1004.33044,0,0
74.2,-0.2566446,-9.878493,-0.16280623,1004.33044,0,0
74.24,-0.21363145,-9.792695,-0.20541635,1004.33795,0,0
74.28,-0.24218929,-9.85943,-0.22434287,1004.31537,0,0
74.32,-0.27564794,-9.907096,-0.17699882,1004.3028,0,0
74.36,-0.2995469,-9.806998,-0.12018597,1004.3077,0,0
74.4,-0.37124398,-9.806998,-0.17699882,1004.343,0,0
74.44,-0.43816125,-9.783165,-0.006560266,1004.31287,0,0
74.48,-0.5863352,-9.764098,0.02658057,1004.3205,0,0
74.52,-0.5672159000000001,-9.816531,0.007642962,1004.35583,0,0
74.56,-0.52419776,-9.897563,0.04078377,1004.3279,0,0
74.6,-0.5050785,-9.916629,-0.06810753,1004.3279,0,0
74.64,-0.44772083,-9.911862,-0.049169917,1004.33795,0,0
74.68,-0.42860162,-9.878496,-0.0397011,1004.32544,0,0
74.72,-0.31388634,-9.792699,0.083393425,1004.3254,0,0
74.76,-0.36646417,-9.84513,0.02184616,1004.3155,0,0
74.8,-0.49073905,-9.888029,-0.13912362,1004.3204,0,0
74.84,-0.44294107,-9.864197,0.007642962,1004.33795,0,0
74.88,-0.5289775,-9.826064,0.050252587,1004.3229,0,0
74.92,-0.48117948,-9.84513,-0.016029082,1004.3407,0,0
74.96,-0.53853714,-9.849897,-0.0397011,1004.3204,0,0
75.0,-0.48117948,-9.8403635,-0.0539043,1004.3356,0,0
75.04,-0.46206027,-9.85943,0.007642962,1004.31793,0,0
75.08,-0.49073905,-9.897563,0.054987,1004.3583,0,0
75.12,-0.5289775,-9.868962,-0.030232284,1004.32806,0,0
75.16,-0.49551886,-9.849897,-0.030232284,1004.33307,0,0
75.2,-0.44772083,-9.868962,-0.011294674,1004.3382,0,0
75.24,-0.39036322,-9.792699,0.03131498,1004.32806,0,0
75.28,-0.47158837,-9.84513,-0.053901415,1004.3155,0,0
75.32,-0.4285689,-9.821298,-0.011291672,1004.3381,0,0
75.36,-0.50026464,-9.8403635,0.007646084,1004.33545,0,0
75.4,-0.4811442,-9.835599,-0.025494635,1004.3103,0,0
75.44,-0.49548233,-9.878497,-0.08704178,1004.3356,0,0
75.48,-0.44290334,-9.821299,-0.05863523,1004.3508,0,0
75.52,-0.47636074,-9.840364,0.021849755,1004.33057,0,0
75.56,-0.51459783,-9.854664,0.0076466743,1004.34827,0,0
75.6,-0.5098169,-9.892797,-0.08230695,1004.32794,0,0
75.64,-0.47157717,-9.797465,0.054990914,1004.3508,0,0
75.68,-0.42377782,-9.816532,-0.087041095,1004.343,0,0
75.72,-0.37597853,-9.802233,-0.03496254,1004.33057,0,0
75.76,-0.38075715,-9.873731,-0.030228015,1004.3231,0,0
75.8,-0.41421455,-9.864198,-0.0349623,1004.3356,0,0
75.84,-0.4667911,-9.868963,0.040788274,1004.3155,0,0
75.88,-0.44289082,-9.802233,-0.011290051,1004.31537,0,0
75.92,-0.47156847,-9.878497,-0.0018211454,1004.32544,0,0
75.96,-0.47156715,-9.821299,0.03605422,1004.34576,0,0
76.0,-0.5002448,-9.849898,0.002913501,1004.33545,0,0
76.04,-0.50980306,-9.840364,-0.0065551996,1004.3205,0,0
76.08,-0.4906826,-9.806999,-0.0018206723,1004.3155,0,0
76.12,-0.46200258,-9.826065,0.050257888,1004.323,0,0
76.16,-0.46678114,-9.845131,-0.0018204376,1004.3256,0,0
76.2,-0.4524405,-9.826065,-0.044430006,1004.3531,0,0
76.24,-0.40942097,-9.845131,0.007648617,1004.3357,0,0
76.28,-0.47187203,-9.873723,0.017088693000000002,1004.30786,0,0
76.32,-0.42408538,-9.873723,0.017087633,1004.3255,0,0
76.36,-0.5053528,-9.840357,0.026555479,1004.3256,0,0
76.4,-0.4719063,-9.840356,0.059695195,1004.32806,0,0
76.44,-0.48625708,-9.897555,0.03602215,1004.3127,0,0
76.48,-0.4671486,-9.806991,0.050224345,1004.32294,0,0
76.52,-0.50061864,-9.911854,0.06442653,1004.3357,0,0
76.56,-0.41937333,-9.849889,0.045487873,1004.33057,0,0
76.6,-0.48630208,-9.878488,0.031283617,1004.318,0,0
76.64,-0.41939545,-9.826056,-0.025530208,1004.328,0,0
76.68,-0.44808578,-9.830821,0.05968801,1004.32806,0,0
76.72,-0.36206067,-9.802222,0.03128055,1004.33057,0,0
76.76,-0.4098695,-9.84512,0.021810733,1004.31793,0,0
76.8,-0.41944045,-9.83082,0.0076065026,1004.31793,0,0
76.84,-0.40989232,-9.849887,-0.030269776,1004.3077,0,0
76.88,-0.4433623,-9.864186,-0.030270834,1004.2903,0,0
76.92,-0.41469425,-9.878485,-0.020803016,1004.31287,0,0
76.96,-0.38124698,-9.854651,-0.020804077,1004.3205,0,0
77.0,-0.32867986,-9.854651,-0.020805046,1004.3054,0,0
77.04,-0.3382516,-9.849886,-0.04447818,1004.323,0,0
77.08,-0.3287027,-9.849885,-0.049213562,1004.33307,0,0
77.12,-0.48166782,-9.845118,-0.011339352,1004.3104,0,0
77.16,-0.43388045,-9.8546505,-0.030277956,1004.3129,0,0
77.2,-0.42433226,-9.859418,-0.07288864,1004.3407,0,0
77.24,-0.5056010999999999,-9.85465,-0.11076501,1004.33057,0,0
77.28,-0.31473458,-9.873709,-0.21495174,1004.32294,0,0
77.32,-0.23350349,-9.830809,-0.15814121,1004.34326,0,0
77.36,-0.15704922,-9.883241,-0.106064826,1004.3255,0,0
77.4,-0.30524722,-9.826041,-0.14394225,1004.3205,0,0
77.44,-0.24313237,-9.768842,-0.2386324,1004.33057,0,0
77.48,-0.23359686,-9.907072,-0.2291658,1004.3558,0,0
77.52,-0.15714261,-9.821273,-0.05399489,1004.3432,0,0
77.56,-0.26710215,-9.802206,-0.15815401,1004.3205,0,0
77.6,-0.2862455,-9.826038,-0.10607779,1004.32806,0,0
77.64,-0.2289119,-9.86417,-0.063470304,1004.3256,0,0
77.68,-0.2384956,-9.835571,-0.044534903,1004.3307,0,0
77.72,-0.20027976,-9.792671,-0.07767783,1004.3407,0,0
77.76,-0.18596293,-9.835569,-0.10135192,1004.3154,0,0
77.8,-0.18598706,-9.816503,-0.08715089,1004.31793,0,0
77.84,-0.20513183,-9.8737,-0.09188764,1004.3206,0,0
77.88,-0.2481727,-9.802202,-0.17710897,1004.32806,0,0
77.92,-0.26731595,-9.8451,-0.06348547,1004.31793,0,0
77.96,-0.2912391,-9.845099,-0.03981566,1004.328,0,0
78.0,-0.29604146,-9.821266,-0.11556819,1004.3205,0,0
78.04,-0.35820296,-9.826032,-0.049288753,1004.31793,0,0
78.08,-0.3343281,-9.892763,-0.12504143,1004.3357,0,0
78.12,-0.27699453,-9.821264,-0.04929317,1004.31793,0,0
78.16,-0.2722373,-9.873695,-0.106108084,1004.30786,0,0
78.2,-0.34395847,-9.783131,-0.10611029,1004.31793,0,0
78.24,-0.29140323,-9.764064,-0.13925320000000002,1004.30786,0,0
78.28,-0.22350259,-9.773622,-0.11075677,1004.33826,0,0
78.32,-0.41945803,-9.478095,0.059683327,1004.30536,0,0
78.36,-0.3955436,-9.840353,0.15437283,1004.3154,0,0
78.4,-0.37162805,-9.964285,0.61361164,1004.313,0,0
78.44,-0.44330865,-10.007184,0.4005649000000001,1004.32294,0,0
78.48,-0.28077987,-10.083449,0.06442358,1004.3936,0,0
78.52,-0.003532663,-9.425665,0.11176933,1004.40375,0,0
78.56,0.27849120000000005,-9.7116585,0.3437566,1004.3659,1,4
78.6,0.4219008,-9.754559,0.13070978,1004.3583,1,4
78.64,1.0146118,-9.97382,-0.7120128000000001,1004.34814,1,4
78.68,1.3587742,-10.097751,-1.1239046,1004.3709,1,4
78.72,0.7421962,-10.235981,-1.9855648,1004.3458,1,4
78.76,-0.075132824,-10.822268,-3.4721660000000005,1004.3356,1,4
78.8,0.030038327000000007,-10.769836,-5.0818624,1004.3936,1,4
78.84,0.68488795,-9.606797,-2.5773606,1004.4138,1,4
78.88,-0.032066144,-10.116819,-1.8056513,1004.4313,1,4
78.92,-0.63908476,-9.902324,-2.6720457000000004,1004.4516,1,4
78.96,-1.8435798,-10.40758,-3.349064,1004.4643,1,4
79.0,2.3053064,-10.426646,-0.5652328000000001,1004.46936,1,4
79.04,1.1151506000000002,-10.126354,-2.0755062,1004.45917,1,4
79.08,-0.03676448,-8.88705,-2.0565672,1004.4089,1,4
79.12,0.8188348000000001,-8.091035,-2.0613003,1004.39124,1,4
79.16,0.37911046,-6.379842,-2.0802362000000003,1004.4113,1,4
79.2,0.5416401999999999,-6.8088317,-3.1786168,1004.4088,1,4
79.24,2.5539532000000005,-7.4332509999999985,-3.7230718,1004.42896,1,4
79.28,4.4658914,-8.710689,-2.866143,1004.4239,1,4
79.32,5.1255193,-10.855639,-4.911404599999999,1004.39374,1,4
79.36,3.5051825,-10.941439,-5.0581694000000015,1004.40375,1,4
79.4,0.7281319,-11.894751,-0.33323225,1004.33575,1,4
79.44,1.4737989,-11.808952,-1.1996268,1004.15405,1,4
79.48,-0.08918155,-9.969062,0.8219655,1004.023,1,4
79.52,-1.4083899,-7.662049,0.16388488,1004.06824,1,4
79.56,1.3543532,-9.258845,4.529008,1004.10614,1,4
79.6,0.5943799,-9.983362,-0.5226008,1004.23724,1,4
79.64,-0.012639701,-9.444743,0.66573614,1004.30536,1,4
79.68,2.630608,-9.378011,1.9629644,1004.3432,1,4
79.72,0.44147468,-9.17305,0.23017389,1004.4116,1,4
79.76,-0.33761793,-10.107295,1.9014201,1004.38605,1,4
79.8,0.18817802,-9.330346,0.81250864,1004.32806,1,4
79.84,1.3592453000000002,-10.202626,1.0302927,1004.30536,1,4
79.88,2.6976082000000003,-9.840368,-0.2006509,1004.3407,1,4
79.92,2.4012756,-10.154962,0.6752154,1004.35077,1,4
79.96,2.5241826,-9.273115,0.4004947,1004.3612,1,4
80.0,2.3664324,-9.9404335,-0.8209833000000001,1004.3558,1,4
80.04,2.8396163,-10.464753,-2.3644009,1004.43146,1,4
80.08,-0.6400968,-11.627793,-3.8036609,1004.43646,1,4
80.12,-5.8692193,-16.151253,1.5414802,1004.3104,1,4
80.16,-4.487872599999998,-12.929063,3.6482887,1004.2448,1,4
80.2,5.215112,-11.441896,-6.6111679999999975,1004.487,1,4
80.24,0.60258627,-11.08917,-0.8588674000000001,1004.5247,1,4
80.28,-0.6019369000000001,-9.072916,-0.73577404,1004.4996,1,4
80.32,-0.5923982,-5.936522,-0.24339794,1004.50995,1,4
80.36,-1.8925217,-5.4312663,-0.0019448362,1004.50964,1,4
80.4,-1.1851264,-4.6257176,0.14008585,1004.46924,1,4
80.44,-0.6163454,-5.2692027,-1.2944403,1004.3486,1,4
80.48,12.795767,-15.441034,-6.800554300000001,1004.2499,1,4
80.52,6.0992446,-10.741208,-7.6858897,1004.25757,1,4
80.56,-0.69765335,-10.726909,0.03118843,1004.31067,1,4
80.6,-7.1790833,-13.195985,-1.2044927,1004.0989,1,4
80.64,4.1394753,-12.919524,4.7466526,1004.0684,1,4
80.68,-0.5686479,-5.6934237,0.26316974,1004.2071,1,4
80.72,-5.7356315,-7.41415,2.270556,1004.1843,1,4
80.76,0.32514298,-11.799383,5.0259776,1004.2424,1,4
80.8,0.3633657,-10.131086,-1.0103896,1004.4038,1,4
80.84,0.25819325,-9.425636,2.0006902,1004.4063,1,4
80.88,1.7829328000000002,-9.802195,1.7971092,1004.39905,1,4
80.92,0.50671065,-10.6506405,1.3757459,1004.35333,1,4
80.96,1.2250148,-9.93569,0.6467696999999999,1004.35114,1,4
81.0,2.735472,-9.115844,-0.26223242,1004.3332,1,4
81.04,3.5193943999999995,-9.921392,1.2527802,1004.3508,1,4
81.08,2.4678745,-9.86896,-1.0434027,1004.39124,1,4
81.12,2.2719371,-9.692598,0.0029039308,1004.4696,1,4
81.16,2.8264308,-10.502914,-3.5857716,1004.41394,1,4
81.2,2.515778,-10.736477,-1.3558636999999998,1004.3738,1,4
81.24,-3.6453524,-15.145542,-0.4847299,1004.3662,1,4
81.28,-8.248269,-16.971134,4.192865,1004.2528,1,4
81.32,6.7125587,-11.146403,-6.4642763,1004.4416,1,4
81.36,1.1297843,-10.798446,0.23017554,1004.4747,1,4
81.4,-0.6721672,-8.925189,-0.7451085999999999,1004.48444,1,4
81.44,-2.0773928,-5.178677,0.51424634,1004.53015,1,4
81.48,-2.4310613,-5.712532,0.19231017,1004.4998,1,4
81.52,-1.800093,-4.568559,0.9450837,1004.5099,1,4
81.56,-2.4883478,-4.8021216,-1.2942864,1004.3989,1,4
81.6,8.323606,-15.650804999999998,-9.783071,1004.30316,1,4
81.64,11.253662,-12.666943,-7.860899000000002,1004.22754,1,4
81.68,0.709449,-12.557311,0.74151754,1004.3233,1,4
81.72,-10.360546,-17.495464000000002,-2.6388447,1004.061,1,4
81.76,0.045120582,-7.8574886,5.589554,1004.008,1,4
81.8,-2.454671,-5.888902,-0.020711511,1004.1368,1,4
81.84,-1.3791806,-10.421898,4.382288,1004.1969,1,4
81.88,1.058547,-10.469564,2.9004219,1004.3079,1,4
81.92,-0.9871722,-9.725983,0.20654896,1004.39624,1,4
81.96,1.7888484,-9.282668,2.6115310000000003,1004.40405,1,4
82.0,1.0145142,-9.811755,0.4479074000000001,1004.4091,1,4
82.04,0.8376551999999999,-10.340842,-0.0018616691,1004.3611,1,4
82.08,1.1674552,-9.092004,1.3095678999999998,1004.3385,1,4
82.12,1.554613,-9.273133,0.32954553,1004.3536,1,4
82.16,1.3156165000000002,-9.668757,1.4468644,1004.331,1,4
82.2,2.0134635,-9.115837,1.7498659,1004.3813,1,4
82.24,1.6262914,-9.616325,0.76037467,1004.38135,1,4
82.28,1.6023865,-10.631602,-2.0423934,1004.40405,1,4
82.32,2.7065148,-10.350373,-1.3274989,1004.3662,1,4
82.36,4.030515,-9.888018,-2.0045192,1004.42145,1,4
82.4,-3.3208290000000003,-12.881415,-1.303828,1004.38617,1,4
82.44,-7.1255608,-16.942522,4.661521400000002,1004.2902,1,4
82.48,4.6136312,-10.731699,-4.920914,1004.44653,1,4
82.52,2.5200717,-10.960493,-1.3369706,1004.4467,1,4
82.56,-1.3133378,-9.6067915,-0.48951274,1004.4671,1,4
82.6,-0.6107130000000001,-6.89462,1.0065585,1004.4998,1,4
82.64,-1.6766152,-6.360765,-0.3995602,1004.46436,1,4
82.68,-2.7281766,-6.336932,-0.15337160000000002,1004.4974,1,4
82.72,-1.7292058,-5.183425,-0.5368590999999999,1004.4014,1,4
82.76,1.2677249,-7.776432000000002,-4.6984015,1004.3536,1,4
82.8,9.708853,-11.78034,-5.432235,1004.323,1,4
82.84,7.663091,-11.203587,-4.2391653,1004.336,1,4
82.88,1.9464387,-11.070122,-6.161334,1004.33344,1,4
82.92,-0.72069854,-11.093955,-2.8141107999999995,1004.336,1,4
82.96,-2.440861,-15.541167000000002,-2.0139441,1004.23505,1,4
83.0,2.4871364,-13.324717499999998,0.121273965,1004.17706,1,4
83.04,-3.463703,-4.320692500000002,7.2039447,1004.14685,1,4
83.08,-4.5009027,-8.453297000000001,0.5663111,1004.07104,1,4
83.12,6.177194,-12.419074,4.585822599999998,1004.17957,1,4
83.16,-1.9389002,-10.174026,-1.6635909,1004.3486,1,4
83.2,0.65177417,-8.934721000000003,4.3017607,1004.3458,1,4
83.24,-0.42844504,-9.397078,0.18756467,1004.4519,1,4
83.28,0.39369667,-9.678305,1.8398732,1004.43176,1,4
83.32,1.4787235,-9.692604,0.59946036,1004.38135,1,4
83.36,0.81435233,-9.659239,0.97348034,1004.336,1,4
83.4,0.9960014,-9.892801,0.5000412999999999,1004.3284,1,4
83.44,1.0724937,-10.150196,1.333298,1004.3082,1,4
83.48,0.34598005,-9.878502,1.7593957999999998,1004.31586,1,4
83.52,0.07354770599999999,-9.582977,1.5037395,1004.33344,1,4
83.56,0.30299067,-10.026266,0.9024713,1004.2827,1,4
83.6,0.16439696,-9.735506,1.3995856000000002,1004.28296,1,4
83.64,-0.5143228,-9.530545,1.5132124,1004.293,1,4
83.68,-1.2312781000000002,-9.807006,0.8646004999999999,1004.30316,1,4
83.72,-0.3326542,-10.045335,1.0492442,1004.3284,0,0
83.76,-0.5047107,-9.840372,1.7830783,1004.29553,0,0
83.8,-0.8010430000000001,-9.58298,1.1155287,1004.3056,0,0
83.84,-0.86316806,-9.892805,0.85513765,1004.31323,0,0
83.88,-1.2216339,-9.864206,0.8693426,1004.3004,0,0
83.92,-1.2885398,-9.582981,1.1486735,1004.33344,0,0
83.96,-1.2983985,-9.792702,1.087099,1004.34607,0,0
84.0,-0.90645075,-9.702137,1.096568,1004.3233,0,0
84.04,-0.5288425,-9.773635,1.1060371,1004.33344,0,0
84.08,-0.5814176999999999,-9.954764,0.9024581,1004.3283,0,0
84.12,-0.6196514,-9.8213005,0.77936393,1004.3208,0,0
84.16,-0.36631888,-9.71167,0.6420665,1004.346,0,0
84.2,-0.14166337,-9.902332,0.7225519,1004.3435,0,0
84.24,-0.026944287,-9.764102,0.6657393,1004.3409,0,0
84.28,-0.007822692,-9.849901,0.51897293,1004.3486,0,0
84.32,-0.14643224,-9.745037,0.42901972,1004.33344,0,0
84.36,-0.23724471,-9.754569,0.6278651,1004.34357,0,0
84.4,-0.38063502,-9.807002,0.7083503000000001,1004.3258,0,0
84.44,-0.5240266,-9.754569,0.7414914,1004.34106,0,0
84.48,-0.64829665,-9.816535,0.61366284,1004.31323,0,0
84.52,-0.6291734,-9.835602,0.67521054,1004.3259,0,0
84.56,-0.51445526,-9.830834,0.6468044,1004.3208,0,0
84.6,-0.500112,-9.911866,0.66574234,1004.3384,0,0
84.64,-0.5957044,-9.821302,0.65153944,1004.3385,0,0
84.68,-0.7104159999999999,-9.721205,0.6941494,1004.33344,0,0
84.72,-0.61481637,-9.692605,0.78883785,1004.31323,0,0
84.76,-0.8107846,-9.745038,0.7888381999999999,1004.34106,0,0
84.8,-0.9159368,-9.902333,0.6183999,1004.331,0,0
84.84,-1.0210876,-9.749804,0.6799476999999999,1004.336,0,0
84.88,-1.0784425,-9.821302,0.71782315,1004.336,0,0
84.92,-0.9685031,-9.807003,0.6610106,1004.3285,0,0
84.96,-0.7824048000000001,-9.806995,0.5615594,1004.31323,0,0
85.0,-0.5673225000000001,-9.811761,0.6325746,1004.3511,0,0
85.04,-0.44305646,-9.845127,0.5094793,1004.3284,0,0
85.08,-0.35702834,-9.835595,0.6041666,1004.33344,0,0
85.12,-0.5434496,-9.82606,0.5189465,1004.34357,0,0
85.16,-0.5291191,-9.735496,0.33903837,1004.331,0,0
85.2,-0.5339078,-9.811761,0.5189449,1004.34863,0,0
85.24,-0.6725303,-9.811761,0.5994291,1004.3107,0,0
85.28,-0.72033733,-9.792694,0.5094744999999999,1004.33606,0,0
85.32,-0.7203460999999999,-9.78316,0.4810673,1004.3082,0,0
85.36,-0.6582176,-9.787927,0.4905353,1004.3259,0,0
85.4,-0.48615295,-9.864192,0.45265928,1004.3208,0,0
85.44,-0.7203728,-9.873724,0.50473684,1004.34607,0,0
85.48,-0.7299406999999999,-9.797459,0.49053288,1004.336,0,0
85.52,-0.72039,-9.749793,0.594689,1004.33093,0,0
85.56,-0.8542328000000001,-9.764092,0.6704386999999999,1004.34863,0,0
85.6,-0.954617,-9.768859,0.6183595000000001,1004.33606,0,0
85.64,-0.94506687,-9.773625,0.67990583,1004.3285,0,0
85.68,-0.9928738,-9.783158,0.6988426999999999,1004.326,0,0
85.72,-0.9689831,-9.806992,0.6846386999999999,1004.3259,0,0
85.76,-0.8829561,-9.845123,0.66096586,1004.33856,0,0
85.8,-0.8829644,-9.82129,0.5994178000000001,1004.326,0,0
85.84,-0.8686339,-9.830823,0.6372922,1004.3564,0,0
85.88,-0.8351835,-9.778391,0.63255703,1004.33624,0,0
85.92,-0.8304126000000001,-9.783157,0.69883794,1004.3285,0,0
85.96,-0.7683477,-9.830821,0.64201844,1004.3411,0,0
86.0,-0.83049655,-9.802221,0.68936145,1004.3032,0,0
86.04,-0.85440695,-9.768855,0.62781316,1004.37396,0,0
86.08,-0.82573885,-9.816521,0.5567960999999999,1004.3411,0,0
86.12,-0.9117868,-9.792688,0.6609519,1004.3184,0,0
86.16,-0.9548157,-9.80222,0.5852004,1004.3285,0,0
86.2,-0.8448916,-9.797453,0.53312093,1004.33624,0,0
86.24,-0.8927011,-9.78792,0.6609489000000001,1004.31067,0,0
86.28,-0.84491515,-9.826052,0.58519727,1004.3538,0,0
86.32,-0.86404437,-9.883251,0.5757276,1004.3235,0,0
86.36,-0.88317573,-9.835586,0.5615232,1004.326,0,0
86.4,-0.9309845,-9.778386,0.54731905,1004.326,0,0
86.44,-0.87841797,-9.749785,0.61833405,1004.33856,0,0
86.48,-0.8832093000000001,-9.764085,0.63253623,1004.33875,0,0
86.52,-0.84020245,-9.749785,0.5993943,1004.3538,0,0
86.56,-0.868892,-9.806984,0.60412776,1004.3513,0,0
86.6,-0.74940825,-9.787917,0.6846116,1004.3437,0,0
86.64,-0.81155646,-9.768851,0.58992255,1004.3513,0,0
86.68,-0.8067888000000001,-9.749784,0.6940784000000001,1004.3463,0,0
86.72,-0.80679876,-9.76885,0.665671,1004.3082,0,0
86.76,-0.7542323000000001,-9.778383,0.6751387,1004.3513,0,0
86.8,-0.7685831999999999,-9.78315,0.6088561,1004.3386,0,0
86.84,-0.7112369000000001,-9.821282,0.46208844,1004.326,0,0
86.88,-0.6252119,-9.849881,0.5425723000000001,1004.326,0,0
86.92,-0.67302126,-9.835582,0.5141648,1004.3513,0,0
86.96,-0.6585023,-9.806986,0.5709941,1004.3107,0,0
87.0,-0.73976266,-9.806986,0.5141809,1004.33093,0,0
