Timestamp,Ax,Ay,Az,P,Value,Type
0.0,-2.8957655,6.5406704000000015,4.9232736,1002.9511,0,0
0.04,-2.0593903,7.322387700000001,7.2194524000000015,1003.0465,0,0
0.08,-0.8310658000000001,4.929578,5.685497,1003.01215,0,0
0.12,-1.9352748,5.601664,7.3993449999999985,1003.04504,0,0
0.16,-1.2996566,4.4052606,6.88802,1003.00037,0,0
0.2,-0.3676746,4.653124,6.9495606,1002.9507,0,0
0.24,-0.0522926,3.7522469,10.4577465,1003.0761,0,0
0.28,-0.25312933,1.8170269,8.994807000000002,1003.0766,0,0
0.32,-0.29144746,3.232696,9.676556,1002.98755,0,0
0.36,1.0085741,3.0992348,10.651834,1002.99554,0,0
0.4,0.8029576,3.008672,9.425615,1002.98334,0,0
0.44,0.3669672,0.7779488,9.169864,1003.02606,0,0
0.48,0.41942972,0.47289205,9.245603,1003.0462,0,0
0.52,1.8867141,1.9028618,10.547554,1003.05426,0,0
0.56,2.3311129,1.125916,8.033572999999999,1003.0172,0,0
0.6,1.8816959,0.758894,8.615896000000001,1003.0578,0,0
0.64,2.961801,0.101112425,9.468077,1003.06824,0,0
0.68,3.4826767,-0.50423723,9.704785,1003.05835,0,0
0.72,3.0906096,-0.8617261,7.7826056,1003.0438,0,0
0.76,4.7634335,0.08205483,8.317584,1003.06146,0,0
0.8,4.4096045,-0.918919,9.491705,1003.0945,0,0
0.84,3.4057152000000004,-1.5481013,7.228647,1003.0523,0,0
0.88,5.0307330000000015,-0.4946894,9.477479,1003.1006,0,0
0.92,5.197903,-0.61385036,9.307029,1003.0884,0,0
0.96,5.5753846,-0.6090807,8.445356,1003.0859,0,0
1.0,4.485474,-0.90937096,7.5505433,1003.0512,0,0
1.04,4.8103857,-1.5909858,7.578939,1003.0339,0,0
1.08,5.1209493,-1.962774,9.098672,1003.05945,0,0
1.12,5.904707,-3.831261,8.923487,1003.05475,0,0
1.16,7.3672113,-3.5547980000000003,7.872438000000002,1003.0577,0,0
1.2,7.7829320000000015,-3.116272,7.6167693,1003.0204,0,0
1.24,8.256017,-3.2735655,7.512601400000001,1003.0683,0,0
1.28,8.571361999999999,-3.4785244,6.897117999999999,1003.0361,0,0
1.32,8.231872000000001,-3.7692814,6.8118873,1003.0715,0,0
1.36,7.734648700000001,-3.98854,6.4236546,1003.0768,0,0
1.4,7.2469934999999985,-5.1372776,7.337384700000001,1003.04193,0,0
1.44,7.658838,-5.103930999999998,7.574176299999999,1003.07745,0,0
1.48,7.8117056,-5.3184237,9.699916,1003.0298,0,0
1.52,6.6788110000000005,-4.9990625,8.147022999999999,1003.02747,0,0
1.56,4.9819,-6.1049013,7.342167999999999,1003.0657,0,0
1.6,7.959604700000001,-2.8684065,3.923917,1003.0833,0,0
1.64,4.2265186,-4.3555712999999985,7.365823700000001,1003.05865,0,0
1.68,6.2004857000000015,-3.3545916,6.9491878,1003.0717,0,0
1.72,5.5264525,-2.5252087000000003,11.844555,1003.097,0,0
1.76,6.2051096,-2.0056522,7.0249243,1003.10724,0,0
1.8,4.704143,-0.65194744,3.990161,1003.1429,0,0
1.84,6.123653400000001,-2.344073,6.972827400000001,1003.1307,0,0
1.88,5.6790457000000005,-1.7005856,5.921782,1003.1161,0,0
1.92,7.7342806,-2.5108984,5.63771,1003.12885,0,0
1.96,7.418727,-2.6920254,8.071186,1003.08105,0,0
2.0,6.5535235,-2.9875505,5.320492,1003.0763,0,0
2.04,7.0409770000000025,-4.002825,4.378337,1003.08636,0,0
2.08,7.1125717,-5.0562315,3.6066198,1003.11505,0,0
2.12,6.515026,-8.616848,2.4845595,1003.0897,0,0
2.16,7.341824499999999,-7.020048599999999,2.1105316000000003,1003.1005,0,0
2.2,2.3755276000000003,-8.836105,0.22623107,1003.0905,0,0
2.24,11.56222,-3.3736281000000004,1.4334958,1003.19867,0,0
2.28,6.681958,-5.8379364,0.28302816,1003.2038,0,0
2.32,5.759375,-7.306033599999999,-0.28037336,1003.05865,0,0
2.36,5.1331344,-7.172568300000001,-0.46028864,1003.1588,0,0
2.4,2.9343553,-6.610112700000001,0.055755008,1003.17444,0,0
2.44,2.9342200000000003,-8.068676,0.4013542,1003.10706,0,0
2.48,4.960768700000001,-10.099226,-0.13364160000000005,1003.0897,0,0
2.52,1.9589919,-14.594089000000002,-2.4250991,1003.56824,0,0
2.56,3.0391402000000003,-12.167908,-1.7480871999999998,1003.4756,0,0
2.6,1.2848481,-7.172555,-0.03424212,1002.8699,0,0
2.64,0.48652804,-7.339382,-0.14787634,1002.83,0,0
2.68,0.22358407,-6.3765364,-0.44141445,1002.89825,0,0
2.72,0.113539174,-5.814079799999999,0.7137703000000001,1003.0109,0,0
2.76,0.47671127,-8.488114999999999,-0.25679117,1003.1064,0,0
2.8,-0.2403414,-16.986883,-0.029547263,1003.26685,0,0
2.84,0.07981242,-14.851465,-1.729207,1003.2443,0,0
2.88,0.20879056,-10.838022,-0.33729905,1003.19965,0,0
2.92,0.5624085,-9.698813,-0.5030112,1003.18036,0,0
2.96,0.5336422,-10.156401,-0.31837750000000004,1003.20746,0,0
3.0,-0.04958146,-9.937137,-0.23790063,1003.16034,0,0
3.04,0.2180055,-9.565343,-0.4130811,1003.14856,0,0
3.08,-0.059316143,-7.939945,0.1455701,1003.018,0,0
3.12,-0.93408597,-0.45168233,4.0798545,1002.98584,0,0
3.16,1.4652717,-9.846563,-4.247973,1002.91034,0,0
3.2,-0.13126484,-9.551035,0.15028147,1003.0087,0,0
3.24,-0.2604016,-9.5129,0.8130906999999999,1003.0413,0,0
3.28,-0.46124643,-9.141107,0.6426436,1003.0642,0,0
3.32,-0.29879868,-9.9275875,0.5242774,1003.0846,0,0
3.36,0.9056024,-10.189745,0.5100642,1003.13245,0,0
3.4,0.07383448,-9.989548,0.5005879,1003.13995,0,0
3.44,-0.54278904,-8.592946000000001,-1.0807061000000002,1003.12994,0,0
3.48,0.016368344,-9.808415,0.06974712,1003.16034,0,0
3.52,0.6615622,-9.570086,1.3906386,1003.1232,0,0
3.56,0.18349154,-9.875143,0.21176368,1003.08295,0,0
3.6,-0.32803243,-9.617747,1.3148721,1003.1186,0,0
3.64,0.17377259,-10.285064,-0.09125279,1003.1086,0,0
3.68,0.102001175,-9.7941065,0.16439825,1003.1039,0,0
3.72,-0.22790089,-10.542454,0.38217214,1003.1089,0,0
3.76,1.0864655,-9.708303,0.86507416,1003.07904,0,0
3.8,0.65619296,-9.960929,0.26379645,1003.1022,0,0
3.84,0.4601413,-9.755965,0.58572865,1003.1199,0,0
3.88,1.807961,-10.1515875,0.5573145,1003.0999,0,0
3.92,1.7600778,-9.889425,-0.4511215,1003.1276,0,0
3.96,1.96075,-9.74166,0.36792323,1003.11786,0,0
4.0,1.4492207,-9.665392,0.7561361999999999,1003.0978,0,0
4.04,0.82776666,-9.679689,0.43892375,1003.12823,0,0
4.08,1.190952,-9.846518,0.54307336,1003.11584,0,0
4.12,0.15842943,-10.1039095,1.6651195,1003.10864,0,0
4.16,0.4355731,-9.627253,-0.20971260000000005,1003.1263,0,0
4.2,0.4785064000000001,-9.970443,0.46729952,1003.1059,0,0
4.24,0.55012375,-9.918007,0.46729228,1003.1237,0,0
4.28,0.9754414,-9.722576,0.49095652,1003.1215,0,0
4.32,0.22014736,-9.832206,0.4057294,1003.12933,0,0
4.36,0.98961073,-9.889402,0.39625284,1003.127,0,0
4.4,0.66449916,-9.856034,0.41518268,1003.12463,0,0
4.44,0.91388506,-9.755957,0.36791518,1003.10474,0,0
4.48,1.033332,-9.717824,0.18326896,1003.11725,0,0
4.52,1.0858614,-9.884652,0.20220216,1003.13525,0,0
4.56,1.0714768999999995,-9.779786,0.19272923,1003.14014,0,0
4.6,1.1670249,-9.817917,0.12170875,1003.13763,0,0
4.64,1.2243342,-9.93708,0.1974548,1003.1276,0,0
4.68,1.3007628999999998,-9.994278,0.09329349,1003.0976,0,0
4.72,1.0234891,-9.865581,0.78924686,1003.10297,0,0
4.76,1.0616764,-9.713048,0.5051779000000001,1003.11053,0,0
4.8,0.58843064,-9.746413,0.33473518,1003.068,0,0
4.84,0.20122437,-9.889409,-0.10556835,1003.0959,0,0
4.88,0.7747496,-9.598648,0.82237035,1003.1284,0,0
4.92,0.59306896,-9.89894,0.27317494,1003.1087,0,0
4.96,0.7698765000000001,-9.779774,0.4294062,1003.1063,0,0
5.0,0.8797608,-9.813139,0.24949412,1003.1191,0,0
5.04,0.80801547,-9.841738,0.4672723,1003.1216,0,0
5.08,0.937028,-9.808372,0.08851608,1003.0989,0,0
5.12,0.87484235,-9.846502,0.3252319,1003.1294,0,0
5.16,0.85567194,-9.8465,0.21633591,1003.1093,0,0
5.2,0.77914995,-9.922765,0.05062761,1003.12445,0,0
5.24,1.0276545,-9.8179,0.63768965,1003.1499,0,0
5.28,1.0084841,-9.884629,0.41990235,1003.1245,0,0
5.32,1.104032,-9.765464,0.0790208,1003.1323,0,0
5.36,1.0896473,-9.841728,0.3015337,1003.14996,0,0
5.4,1.1087184,-9.69873,0.6187344,1003.1274,0,0
5.44,1.0461221,-9.7654505,0.19259596,1003.1198,0,0
5.48,1.1846757,-9.622453,0.53346753,1003.1049,0,0
5.52,1.0842352,-9.7749815,0.17364685,1003.11304,0,0
5.56,1.2036657,-9.789279,0.39615798,1003.1153,0,0
5.6,1.1462435,-9.784511,0.29672956,1003.1429,0,0
5.64,1.1844211,-9.898908,0.24464557,1003.11285,0,0
5.68,1.1987,-9.77974,0.22570238,1003.11066,0,0
5.72,1.3420253,-9.836938,0.34405625,1003.1507,0,0
5.76,1.3467445,-9.760673,0.59497416,1003.1284,0,0
5.8,1.389698,-9.789269,0.3487792,1003.1357,0,0
5.84,1.3466191,-9.770203,0.22567907,1003.1308,0,0
5.88,1.4612657,-9.703469,0.4671274,1003.121,0,0
5.92,1.3751688,-9.774965,0.34402737,1003.141,0,0
5.96,1.5137223,-9.751131,0.45764756,1003.09607,0,0
6.0,1.4419606000000005,-9.712997,0.33454709999999993,1003.12866,0,0
6.04,-2.8957655,6.5406704000000015,4.9232736,1002.9511,0,0
6.08,-2.0593903,7.322387700000001,7.2194524000000015,1003.0465,0,0
6.12,-0.8310658000000001,4.929578,5.685497,1003.01215,0,0
6.16,-1.9352748,5.601664,7.3993449999999985,1003.04504,0,0
6.2,-1.2996566,4.4052606,6.88802,1003.00037,0,0
6.24,-0.3676746,4.653124,6.9495606,1002.9507,0,0
6.28,-0.0522926,3.7522469,10.4577465,1003.0761,0,0
6.32,-0.25312933,1.8170269,8.994807000000002,1003.0766,0,0
6.36,-0.29144746,3.232696,9.676556,1002.98755,0,0
6.4,1.0085741,3.0992348,10.651834,1002.99554,0,0
6.44,0.8029576,3.008672,9.425615,1002.98334,0,0
6.48,0.3669672,0.7779488,9.169864,1003.02606,0,0
6.52,0.41942972,0.47289205,9.245603,1003.0462,0,0
6.56,1.8867141,1.9028618,10.547554,1003.05426,0,0
6.6,2.3311129,1.125916,8.033572999999999,1003.0172,0,0
6.64,1.8816959,0.758894,8.615896000000001,1003.0578,0,0
6.68,2.961801,0.101112425,9.468077,1003.06824,0,0
6.72,3.4826767,-0.50423723,9.704785,1003.05835,0,0
6.76,3.0906096,-0.8617261,7.7826056,1003.0438,0,0
6.8,4.7634335,0.08205483,8.317584,1003.06146,0,0
6.84,4.4096045,-0.918919,9.491705,1003.0945,0,0
6.88,3.4057152000000004,-1.5481013,7.228647,1003.0523,0,0
6.92,5.0307330000000015,-0.4946894,9.477479,1003.1006,0,0
6.96,5.197903,-0.61385036,9.307029,1003.0884,0,0
7.0,5.5753846,-0.6090807,8.445356,1003.0859,0,0
7.04,4.485474,-0.90937096,7.5505433,1003.0512,0,0
7.08,4.8103857,-1.5909858,7.578939,1003.0339,0,0
7.12,5.1209493,-1.962774,9.098672,1003.05945,0,0
7.16,5.904707,-3.831261,8.923487,1003.05475,0,0
7.2,7.3672113,-3.5547980000000003,7.872438000000002,1003.0577,0,0
7.24,7.7829320000000015,-3.116272,7.6167693,1003.0204,0,0
7.28,8.256017,-3.2735655,7.512601400000001,1003.0683,0,0
7.32,8.571361999999999,-3.4785244,6.897117999999999,1003.0361,0,0
7.36,8.231872000000001,-3.7692814,6.8118873,1003.0715,0,0
7.4,7.734648700000001,-3.98854,6.4236546,1003.0768,0,0
7.44,7.2469934999999985,-5.1372776,7.337384700000001,1003.04193,0,0
7.48,7.658838,-5.103930999999998,7.574176299999999,1003.07745,0,0
7.52,7.8117056,-5.3184237,9.699916,1003.0298,0,0
7.56,6.6788110000000005,-4.9990625,8.147022999999999,1003.02747,0,0
7.6,4.9819,-6.1049013,7.342167999999999,1003.0657,0,0
7.64,7.959604700000001,-2.8684065,3.923917,1003.0833,0,0
7.68,4.2265186,-4.3555712999999985,7.365823700000001,1003.05865,0,0
7.72,6.2004857000000015,-3.3545916,6.9491878,1003.0717,0,0
7.76,5.5264525,-2.5252087000000003,11.844555,1003.097,0,0
7.8,6.2051096,-2.0056522,7.0249243,1003.10724,0,0
7.84,4.704143,-0.65194744,3.990161,1003.1429,0,0
7.88,6.123653400000001,-2.344073,6.972827400000001,1003.1307,0,0
7.92,5.6790457000000005,-1.7005856,5.921782,1003.1161,0,0
7.96,7.7342806,-2.5108984,5.63771,1003.12885,0,0
8.0,7.418727,-2.6920254,8.071186,1003.08105,0,0
8.04,6.5535235,-2.9875505,5.320492,1003.0763,0,0
8.08,7.0409770000000025,-4.002825,4.378337,1003.08636,0,0
8.12,7.1125717,-5.0562315,3.6066198,1003.11505,0,0
8.16,6.515026,-8.616848,2.4845595,1003.0897,0,0
8.2,7.341824499999999,-7.020048599999999,2.1105316000000003,1003.1005,0,0
8.24,2.3755276000000003,-8.836105,0.22623107,1003.0905,0,0
8.28,11.56222,-3.3736281000000004,1.4334958,1003.19867,0,0
8.32,6.681958,-5.8379364,0.28302816,1003.2038,0,0
8.36,5.759375,-7.306033599999999,-0.28037336,1003.05865,0,0
8.4,5.1331344,-7.172568300000001,-0.46028864,1003.1588,0,0
8.44,2.9343553,-6.610112700000001,0.055755008,1003.17444,0,0
8.48,2.9342200000000003,-8.068676,0.4013542,1003.10706,0,0
8.52,4.960768700000001,-10.099226,-0.13364160000000005,1003.0897,0,0
8.56,1.9589919,-14.594089000000002,-2.4250991,1003.56824,0,0
8.6,3.0391402000000003,-12.167908,-1.7480871999999998,1003.4756,0,0
8.64,1.2848481,-7.172555,-0.03424212,1002.8699,0,0
8.68,0.48652804,-7.339382,-0.14787634,1002.83,0,0
8.72,0.22358407,-6.3765364,-0.44141445,1002.89825,0,0
8.76,0.113539174,-5.814079799999999,0.7137703000000001,1003.0109,0,0
8.8,0.47671127,-8.488114999999999,-0.25679117,1003.1064,0,0
8.84,-0.2403414,-16.986883,-0.029547263,1003.26685,0,0
8.88,0.07981242,-14.851465,-1.729207,1003.2443,0,0
8.92,0.20879056,-10.838022,-0.33729905,1003.19965,0,0
8.96,0.5624085,-9.698813,-0.5030112,1003.18036,0,0
9.0,0.5336422,-10.156401,-0.31837750000000004,1003.20746,0,0
9.04,-0.04958146,-9.937137,-0.23790063,1003.16034,0,0
9.08,0.2180055,-9.565343,-0.4130811,1003.14856,0,0
9.12,-0.059316143,-7.939945,0.1455701,1003.018,0,0
9.16,-0.93408597,-0.45168233,4.0798545,1002.98584,0,0
9.2,1.4652717,-9.846563,-4.247973,1002.91034,0,0
9.24,-0.13126484,-9.551035,0.15028147,1003.0087,0,0
9.28,-0.2604016,-9.5129,0.8130906999999999,1003.0413,0,0
9.32,-0.46124643,-9.141107,0.6426436,1003.0642,0,0
9.36,-0.29879868,-9.9275875,0.5242774,1003.0846,0,0
9.4,0.9056024,-10.189745,0.5100642,1003.13245,0,0
9.44,0.07383448,-9.989548,0.5005879,1003.13995,0,0
9.48,-0.54278904,-8.592946000000001,-1.0807061000000002,1003.12994,0,0
9.52,0.016368344,-9.808415,0.06974712,1003.16034,0,0
9.56,0.6615622,-9.570086,1.3906386,1003.1232,0,0
9.6,0.18349154,-9.875143,0.21176368,1003.08295,0,0
9.64,-0.32803243,-9.617747,1.3148721,1003.1186,0,0
9.68,0.17377259,-10.285064,-0.09125279,1003.1086,0,0
9.72,0.102001175,-9.7941065,0.16439825,1003.1039,0,0
9.76,-0.22790089,-10.542454,0.38217214,1003.1089,0,0
9.8,1.0864655,-9.708303,0.86507416,1003.07904,0,0
9.84,0.65619296,-9.960929,0.26379645,1003.1022,0,0
9.88,0.4601413,-9.755965,0.58572865,1003.1199,0,0
9.92,1.807961,-10.1515875,0.5573145,1003.0999,0,0
9.96,1.7600778,-9.889425,-0.4511215,1003.1276,0,0
10.0,1.96075,-9.74166,0.36792323,1003.11786,0,0
10.04,1.4492207,-9.665392,0.7561361999999999,1003.0978,0,0
10.08,0.82776666,-9.679689,0.43892375,1003.12823,0,0
10.12,1.190952,-9.846518,0.54307336,1003.11584,0,0
10.16,0.15842943,-10.1039095,1.6651195,1003.10864,0,0
10.2,0.4355731,-9.627253,-0.20971260000000005,1003.1263,0,0
10.24,0.4785064000000001,-9.970443,0.46729952,1003.1059,0,0
10.28,0.55012375,-9.918007,0.46729228,1003.1237,0,0
10.32,0.9754414,-9.722576,0.49095652,1003.1215,0,0
10.36,0.22014736,-9.832206,0.4057294,1003.12933,0,0
10.4,0.98961073,-9.889402,0.39625284,1003.127,0,0
10.44,0.66449916,-9.856034,0.41518268,1003.12463,0,0
10.48,0.91388506,-9.755957,0.36791518,1003.10474,0,0
10.52,1.033332,-9.717824,0.18326896,1003.11725,0,0
10.56,1.0858614,-9.884652,0.20220216,1003.13525,0,0
10.6,1.0714768999999995,-9.779786,0.19272923,1003.14014,0,0
10.64,1.1670249,-9.817917,0.12170875,1003.13763,0,0
10.68,1.2243342,-9.93708,0.1974548,1003.1276,0,0
10.72,1.3007628999999998,-9.994278,0.09329349,1003.0976,0,0
10.76,1.0234891,-9.865581,0.78924686,1003.10297,0,0
10.8,1.0616764,-9.713048,0.5051779000000001,1003.11053,0,0
10.84,0.58843064,-9.746413,0.33473518,1003.068,0,0
10.88,0.20122437,-9.889409,-0.10556835,1003.0959,0,0
10.92,0.7747496,-9.598648,0.82237035,1003.1284,0,0
10.96,0.59306896,-9.89894,0.27317494,1003.1087,0,0
11.0,0.7698765000000001,-9.779774,0.4294062,1003.1063,0,0
11.04,0.8797608,-9.813139,0.24949412,1003.1191,0,0
11.08,0.80801547,-9.841738,0.4672723,1003.1216,0,0
11.12,0.937028,-9.808372,0.08851608,1003.0989,0,0
11.16,0.87484235,-9.846502,0.3252319,1003.1294,0,0
11.2,0.85567194,-9.8465,0.21633591,1003.1093,0,0
11.24,0.77914995,-9.922765,0.05062761,1003.12445,0,0
11.28,1.0276545,-9.8179,0.63768965,1003.1499,0,0
11.32,1.0084841,-9.884629,0.41990235,1003.1245,0,0
11.36,1.104032,-9.765464,0.0790208,1003.1323,0,0
11.4,1.0896473,-9.841728,0.3015337,1003.14996,0,0
11.44,1.1087184,-9.69873,0.6187344,1003.1274,0,0
11.48,1.0461221,-9.7654505,0.19259596,1003.1198,0,0
11.52,1.1846757,-9.622453,0.53346753,1003.1049,0,0
11.56,1.0842352,-9.7749815,0.17364685,1003.11304,0,0
11.6,1.2036657,-9.789279,0.39615798,1003.1153,0,0
11.64,1.1462435,-9.784511,0.29672956,1003.1429,0,0
11.68,1.1844211,-9.898908,0.24464557,1003.11285,0,0
11.72,1.1987,-9.77974,0.22570238,1003.11066,0,0
11.76,1.3420253,-9.836938,0.34405625,1003.1507,0,0
11.8,1.3467445,-9.760673,0.59497416,1003.1284,0,0
11.84,1.389698,-9.789269,0.3487792,1003.1357,0,0
11.88,1.3466191,-9.770203,0.22567907,1003.1308,0,0
11.92,1.4612657,-9.703469,0.4671274,1003.121,0,0
11.96,1.3751688,-9.774965,0.34402737,1003.141,0,0
12.0,1.5137223,-9.751131,0.45764756,1003.09607,0,0
12.04,1.4419606000000005,-9.712997,0.33454709999999993,1003.12866,0,0
12.08,1.2459239,-9.732061,0.39608845,1003.08356,0,0
12.12,1.4513948,-9.717761,0.45763016,1003.1061,0,0
12.16,1.3748534,-9.779723,0.40081137,1003.134,0,0
12.2,1.4369222,-9.746357,0.4292115,1003.1137,0,0
12.24,1.3317016000000002,-9.727289,0.43867436,1003.1217,0,0
12.28,1.307742,-9.73682,0.50021607,1003.1343,0,0
12.32,1.3220208,-9.727286,0.4718041,1003.1192,0,0
12.36,1.2932733,-9.712985,0.50493866,1003.1491,0,0
12.4,1.3218914,-9.770182,0.46232343,1003.0992,0,0
12.44,1.317047,-9.789247,0.48598957,1003.1291,0,0
12.48,1.2991875,-9.774978,0.47190168,1003.1268,0,0
12.52,1.2465991,-9.760678,0.5713232,1003.1369,0,0
12.56,1.2179081,-9.808343,0.5239779999999999,1003.12195,0,0
12.6,1.2656955,-9.765443,0.5381803000000001,1003.09937,0,0
12.64,1.2943629,-9.813108,0.5145072,1003.1073,0,0
12.68,1.3756082,-9.751143,0.49083415,1003.1093,0,0
12.72,1.380378,-9.755909,0.49083325,1003.1319,0,0
12.76,1.4329444,-9.674877,0.49083218,1003.1224,0,0
12.8,1.303879,-9.6891775,0.5097688,1003.1395,0,0
12.84,1.1843709999999998,-9.784509,0.50976765,1003.1372,0,0
12.88,1.098324,-9.708242,0.5429075,1003.12256,0,0
12.92,1.1222122,-9.727309,0.5807818,1003.115,0,0
12.96,1.165219,-9.746375,0.5855151,1003.13257,0,0
13.0,1.1556479,-9.779739,0.5902485,1003.1073,0,0
13.04,1.1651969,-9.755907,0.52396584,1003.12756,0,0
13.08,1.3037992,-9.727308,0.38666698,1003.1075,0,0
13.12,1.4137231,-9.779739,0.4482132,1003.1602,0,0
13.16,1.4901893,-9.755906,0.3061801,1003.1352,0,0
13.2,1.3945818,-9.741607,0.5050241,1003.12256,0,0
13.24,1.3850107,-9.727307,0.4103349,1003.1277,0,0
13.28,1.3324221,-9.746372,0.4908188,1003.11725,0,0
13.32,1.2846128,-9.69394,0.48608333,1003.1202,0,0
13.36,1.3132802,-9.70824,0.53342634,1003.11035,0,0
13.4,1.2463514999999998,-9.746371,0.40559635,1003.1327,0,0
13.44,1.3323771999999998,-9.774971,0.4908147,1003.1404,0,0
13.48,1.2986553,-9.751131,0.44344652,1003.133,0,0
13.52,1.3368722,-9.679633,0.5239294,1003.07935,0,0
13.56,1.3320721000000002,-9.741597,0.43397388,1003.14526,0,0
13.6,1.2985919,-9.732064,0.45290956,1003.133,0,0
13.64,1.3702687,-9.770196,0.41503245,1003.0947,0,0
13.68,1.3463483,-9.817862,0.37242085,1003.1302,0,0
13.72,1.3080883,-9.779727,0.4339661,1003.12506,0,0
13.76,1.3654244,-9.746363,0.35347927,1003.10004,0,0
13.8,1.3558431999999998,-9.736828,0.46710303,1003.1402,0,0
13.84,1.3845018,-9.741593,0.4197571,1003.07965,0,0
13.88,1.351023,-9.779725,0.41975525,1003.13257,0,0
13.92,1.3462216,-9.6700945,0.4481597,1003.1025,0,0
13.96,1.3270795,-9.770192,0.4102824000000001,1003.14276,0,0
14.0,1.3461784,-9.770191,0.40081173,1003.145,0,0
14.04,1.3748372,-9.779723,0.47182596,1003.12756,0,0
14.08,1.2887791000000002,-9.746358,0.44815198,1003.1402,0,0
14.12,1.2600787,-9.765423,0.40554035,1003.12256,0,0
14.16,1.2887358999999998,-9.770189,0.44814798,1003.11255,0,0
14.2,1.2982754,-9.77972,0.41027093,1003.1376,0,0
14.24,1.212216,-9.746356,0.46708164,1003.1075,0,0
14.28,1.2599924,-9.76542,0.5049549,1003.1075,0,0
14.32,1.1978348,-9.789253,0.48128107,1003.1351,0,0
14.36,1.2790726,-9.779718,0.55229545,1003.11224,0,0
14.4,1.3077285,-9.803553,0.51441807,1003.12256,0,0
14.44,1.2599089,-9.746353,0.5191505,1003.1175,0,0
14.48,1.2546699,-9.765407000000002,0.4291548,1003.12756,0,0
14.52,1.3072059,-9.722507,0.51437026,1003.14276,0,0
14.56,1.3071691,-9.751105,0.5475076999999999,1003.09937,0,0
14.6,1.2163135,-9.765404,0.50016004,1003.12756,0,0
14.64,1.2019322,-9.78447,0.5522347,1003.12494,0,0
14.68,1.2018954,-9.765402,0.4764808,1003.12494,0,0
14.72,1.2400945,-9.765401,0.48594603,1003.1351,0,0
14.76,1.2400577,-9.798766,0.50488025,1003.12756,0,0
14.8,1.2639173,-9.803533,0.5427519000000001,1003.12225,0,0
14.84,1.2734402,-9.779698,0.44806045,1003.11945,0,0
14.88,1.3116368,-9.751098,0.55694795,1003.1093,0,0
14.92,1.2542423,-9.760631,0.5048661,1003.12756,0,0
14.96,1.2111847,-9.736796,0.47645608,1003.11224,0,0
15.0,1.2493839,-9.751095,0.56167173,1003.1573,0,0
15.04,1.2732462,-9.789227,0.47171474,1003.11475,0,0
15.08,1.277984,-9.760627,0.52852374,1003.11444,0,0
15.12,1.2588304,-9.779692,0.5001142,1003.1399,0,0
15.16,1.177532,-9.779691,0.5001103,1003.1249,0,0
15.2,1.2157335,-9.774923,0.58059186,1003.1048,0,0
15.24,1.2395933,-9.732024,0.50483775,1003.11194,0,0
15.28,1.2204347,-9.774921,0.5237718,1003.1319,0,0
15.32,1.258634,-9.751087,0.49062738,1003.11945,0,0
15.36,1.2155788,-9.727254,0.44327995,1003.11444,0,0
15.4,1.1964202,-9.760619,0.5237612,1003.12445,0,0
15.44,1.2919770000000002,-9.732019,0.5379608,1003.0991,0,0
15.48,1.2345824,-9.813049,0.5000822,1003.1216,0,0
15.52,1.3205795,-9.779682,0.4764066,1003.1193,0,0
15.56,1.2775221,-9.779681,0.48587182,1003.1469,0,0
15.6,1.3300605,-9.774914,0.4290554,1003.1344,0,0
15.64,1.349143,-9.73678,0.41011435,1003.1569,0,0
15.68,1.3347617,-9.712947,0.4527202,1003.1269,0,0
15.72,1.392085,-9.751078,0.4479826,1003.14417,0,0
15.76,1.325126,-9.732012,0.44324443,1003.1269,0,0
15.8,1.339426,-9.76061,0.4385064,1003.1319,0,0
15.84,1.3537287,-9.755842,0.3958934,1003.0991,0,0
15.88,1.3919277,-9.732009,0.4148274,1003.1293,0,0
15.92,1.439689,-9.722474,0.41482404,1003.1014,0,0
15.96,1.3631704,-9.784438,0.39114818,1003.1393,0,0
16.0,1.4109316,-9.712939,0.40061364,1003.1066,0,0
16.04,1.4204543,-9.732005,0.38167262,1003.1188,0,0
16.08,1.4777702,-9.793969,0.37693438,1003.1444,0,0
16.12,1.4920702,-9.736769,0.25857067,1003.1369,0,0
16.16,1.5589507,-9.712935,0.32484898,1003.1042,0,0
16.2,1.5206729,-9.732001,0.32957977,1003.1342,0,0
16.24,1.5015168,-9.751065,0.25856033,1003.1317,0,0
16.28,1.5325729,-9.684393,0.31559083,1003.1139,0,0
16.32,1.5469265,-9.717759,0.24457602,1003.12146,0,0
16.36,1.5469406,-9.703461,0.26824933,1003.1338,0,0
16.4,1.5278363,-9.736826,0.29192272,1003.12115,0,0
16.44,1.5947678,-9.751125,0.22564235,1003.1393,0,0
16.48,1.5708848,-9.712995,0.22564383,1003.1266,0,0
16.52,1.5183219,-9.717761,0.26352045,1003.1192,0,0
16.56,1.5039958,-9.755894,0.23984963,1003.11365,0,0
16.6,1.5135713,-9.717762,0.27772632,1003.14655,0,0
16.64,1.4801277,-9.717762,0.26352447,1003.1413,0,0
16.68,1.5183811000000005,-9.765428,0.31086993,1003.1188,0,0
16.72,1.4132425,-9.794028,0.3392779,1003.1235,0,0
16.76,1.3702402,-9.765428,0.32507613,1003.13354,0,0
16.8,1.3272362,-9.794029,0.36768708,1003.14874,0,0
16.84,1.4324068,-9.732063,0.34875086,1003.11066,0,0
16.88,1.4658805,-9.732064,0.35348663,1003.11865,0,0
16.92,1.4945743,-9.789263,0.33928478,1003.13617,0,0
16.96,1.4372319,-9.774963,0.34402058,1003.12103,0,0
17.0,1.4372413,-9.746366,0.26353649999999995,1003.1383,0,0
17.04,1.4372573,-9.722531,0.42450777,1003.13617,0,0
17.08,1.3560157,-9.708233,0.39136833,1003.1108,0,0
17.12,1.3655931,-9.770199,0.41977638,1003.12085,0,0
17.16,1.3703879,-9.770199,0.3582305,1003.12317,0,0
17.2,1.3799617,-9.794033,0.3534974,1003.1358,0,0
17.24,1.4178118999999998,-9.746358,0.35346183,1003.1078,0,0
17.28,1.3891317,-9.732058,0.39133695,1003.1054,0,0
17.32,1.3556719,-9.765422,0.36293042,1003.1358,0,0
17.36,1.3652302,-9.817856,0.38186795,1003.1031,0,0
17.4,1.4703847,-9.655792,0.3439926,1003.1508,0,0
17.44,1.4130257,-9.765422,0.31558606,1003.1156,0,0
17.48,1.4321437,-9.717757,0.3818676,1003.1307,0,0
17.52,1.4273627,-9.660558,0.31085142,1003.10297,0,0
17.56,1.4417008999999998,-9.779721,0.3013825,1003.12067,0,0
17.6,1.384342,-9.703458,0.4008049,1003.1104,0,0
17.64,1.3891205,-9.760656,0.41027355,1003.11786,0,0
17.68,1.4464768,-9.69869,0.2919133,1003.1307,0,0
17.72,1.413017,-9.755889,0.3818669,1003.1179,0,0
17.76,1.4512545,-9.717757,0.34399159999999995,1003.1203,0,0
17.8,1.384336,-9.789255,0.35819468,1003.1179,0,0
17.84,1.422573,-9.708223,0.35819453,1003.1028,0,0
17.88,1.4225716999999998,-9.779721,0.34399122,1003.11066,0,0
17.92,1.4273503,-9.74159,0.36292875,1003.1227,0,0
17.96,1.4703673000000002,-9.69869,0.33452220000000005,1003.1103,0,0
18.0,1.4082285,-9.760656,0.41500694,1003.1153,0,0
18.04,1.3556495000000002,-9.684391,0.3676628,1003.1001,0,0
18.08,1.31263,-9.770189,0.36766267,1003.1028,0,0
18.12,1.3126289,-9.684391,0.4008034,1003.0953,0,0
18.16,1.3413062,-9.74159,0.31558400000000003,1003.1053,0,0
18.2,1.3699838,-9.770189,0.30138063,1003.1048,0,0
18.24,1.4266211000000002,-9.770171,0.32025233,1003.0973,0,0
18.28,1.4504896,-9.712972,0.3060463,1003.11035,0,0
18.32,1.3692006,-9.74157,0.32024658,1003.1027,0,0
18.36,1.3978529,-9.784469,0.3628538,1003.11035,0,0
18.4,1.4169418,-9.746336,0.36285102,1003.1252,0,0
18.44,1.4838285,-9.774934,0.31076977,1003.1023,0,0
18.48,1.412101,-9.722502,0.310767,1003.1455,0,0
18.52,1.4264119,-9.7511,0.25868592,1003.1224,0,0
18.56,1.3929208999999998,-9.755866,0.3012926,1003.1049,0,0
18.6,1.3642136,-9.774931,0.34389967,1003.0973,0,0
18.64,1.3259448,-9.760631,0.36283445,1003.0919,0,0
18.68,1.3641546999999998,-9.751097,0.31548783,1003.1073,0,0
18.72,1.4406011,-9.803529,0.35809466,1003.1148,0,0
18.76,1.4644697,-9.760629,0.30601344,1003.1148,0,0
18.8,1.4835584,-9.741561,0.263401,1003.11206,0,0
18.84,1.3114532,-9.813059,0.40069577,1003.1299,0,0
18.88,1.2636267,-9.765392,0.4054276,1003.0995,0,0
18.92,1.2157983,-9.722493,0.44330004,1003.087,0,0
18.96,1.2970244,-9.76539,0.3959532,1003.1148,0,0
19.0,1.3208966999999998,-9.760625,0.4290916,1003.0998,0,0
19.04,1.4594806,-9.722491,0.39594796,1003.0973,0,0
19.08,1.3973129,-9.798755,0.32966354,1003.1069,0,0
19.12,1.3829505,-9.774921,0.33439586,1003.1198,0,0
19.16,1.344676,-9.722488,0.33439255,1003.09174,0,0
19.2,1.2586073,-9.732022,0.40067124,1003.1045,0,0
19.24,1.2452091,-9.741577,0.3912886,1003.0743,0,0
19.28,1.3025756000000002,-9.741577,0.3818206,1003.1118,0,0
19.32,1.2452268999999998,-9.80831,0.3628838,1003.09686,0,0
19.36,1.2930332,-9.784477,0.37235337,1003.1299,0,0
19.4,1.2356844,-9.703446,0.39129177,1003.1245,0,0
19.44,1.2356927,-9.817843,0.36762053,1003.1549,0,0
19.48,1.2548208,-9.732045,0.44810623,1003.1369,0,0
19.52,1.2787292,-9.803544,0.33448136,1003.12195,0,0
19.56,1.3456548000000002,-9.779712,0.391295,1003.1295,0,0
19.6,1.3217641000000002,-9.770179,0.3392173,1003.08154,0,0
19.64,1.2883145,-9.72728,0.37235895,1003.09393,0,0
19.68,1.3600197,-9.746346,0.3818285,1003.11694,0,0
19.72,1.2453133,-9.794013,0.40550134,1003.1245,0,0
19.76,1.3074597,-9.77018,0.41023657,1003.1143,0,0
19.8,1.2883499,-9.746347,0.381831,1003.109,0,0
19.84,1.2740182,-9.779713,0.33922207,1003.09174,0,0
19.88,1.2740277,-9.765412,0.3960358,1003.129,0,0
19.92,1.2214582,-9.746348,0.3439581,1003.1243,0,0
19.96,1.2788252,-9.765413,0.38183418,1003.1015,0,0
20.0,1.2358147,-9.770181,0.40077254,1003.1165,0,0
20.04,1.2740628,-9.75588,0.35342935,1003.11945,0,0
20.08,1.2119335,-9.727283,0.39130536,1003.114,0,0
20.12,1.1784831,-9.79878,0.41497815,1003.09906,0,0
20.16,1.2023921999999998,-9.751115,0.4339167,1003.0864,0,0
20.2,1.1689413,-9.7892475,0.47652704,1003.10394,0,0
20.24,1.1878821000000002,-9.760645,0.46704188,1003.10394,0,0
20.28,1.2739197,-9.7558775,0.4007603,1003.104,0,0
20.32,1.1592058,-9.794011,0.47177655,1003.09644,0,0
20.36,1.1783264,-9.751111,0.47177666,1003.09894,0,0
20.4,1.187887,-9.789244,0.4670423,1003.1015,0,0
20.44,1.2070076,-9.751111,0.52385527,1003.09406,0,0
20.48,1.2452472,-9.784477,0.519121,1003.0889,0,0
20.52,1.1353129,-9.798777,0.5143867,1003.12396,0,0
20.56,1.192672,-9.708212,0.6280126,1003.10913,0,0
20.6,1.1544347,-9.794011,0.5427934,1003.09906,0,0
20.64,1.178335,-9.8083105,0.51912147,1003.114,0,0
20.68,1.1209786,-9.774944,0.5806688,1003.1087,0,0
20.72,1.0588423,-9.717746,0.58540344,1003.1216,0,0
20.76,1.1353204,-9.770178,0.61854434,1003.1065,0,0
20.8,1.1831199,-9.82261,0.60907567,1003.1064,0,0
20.84,1.2070202,-9.770178,0.52385646,1003.1063,0,0
20.88,1.1401042,-9.789244,0.6327479,1003.1114,0,0
20.92,1.1544447,-9.813076,0.5901384,1003.10913,0,0
20.96,1.0397306999999998,-9.774944,0.6753577,1003.1089,0,0
21.0,1.1162087,-9.7558775,0.6658890000000001,1003.1014,0,0
21.04,1.1974667,-9.770178,0.63748276,1003.1063,0,0
21.08,1.221367,-9.784477,0.59960765,1003.1139,0,0
21.12,1.2930653,-9.741578,0.56646687,1003.12885,0,0
21.16,1.2309291,-9.741578,0.63274866,1003.1316,0,0
21.2,1.2022514,-9.736812,0.65642077,1003.1264,0,0
21.24,1.1974729,-9.751112,0.6516865,1003.1265,0,0
21.28,1.1737378,-9.751116,0.67537355,1003.1139,0,0
21.32,1.2884603,-9.736816,0.59488934,1003.0859,0,0
21.36,1.2693487,-9.794016,0.59015554,1003.1039,0,0
21.4,1.2597967,-9.76065,0.63750035,1003.13135,0,0
21.44,1.2454648,-9.703451,0.59962577,1003.1084,0,0
21.48,1.245471,-9.789249,0.6138296,1003.1264,0,0
21.52,1.2932767,-9.755883,0.4954702,1003.13135,0,0
21.56,1.3793207,-9.708218,0.57595575,1003.1264,0,0
21.6,1.3793288,-9.736817,0.56648767,1003.1089,0,0
21.64,1.3649971,-9.741584,0.53808194,1003.1139,0,0
21.68,1.417582,-9.693919,0.50494176,1003.1264,0,0
21.72,1.4128098,-9.693919,0.5759585,1003.1214,0,0
21.76,1.3697993,-9.722519,0.49547437,1003.1159,0,0
21.8,1.388926,-9.78925,0.49074066,1003.1112,0,0
21.84,1.4606308,-9.760652,0.50967896,1003.1112,0,0
21.88,1.4271792,-9.779717,0.39131948,1003.1362,0,0
21.92,1.4654253000000002,-9.746353,0.3913202,1003.1084,0,0
21.96,1.4702127,-9.712987,0.43866494,1003.1136,0,0
22.0,1.4511006000000002,-9.72252,0.38185275,1003.13135,0,0
22.04,1.3985308,-9.717753,0.3723847,1003.1059,0,0
22.08,1.3937582,-9.75112,0.35344770000000003,1003.10846,0,0
22.12,1.4224446000000002,-9.746354,0.35344836,1003.1159,0,0
22.16,1.3794335,-9.73682,0.38658988,1003.1087,0,0
22.2,1.3412031,-9.798785,0.40079385,1003.1235,0,0
22.24,1.375075,-9.732064,0.3629564,1003.1337,0,0
22.28,1.3894383999999995,-9.746365,0.3487554,1003.1036,0,0
22.32,1.3846827,-9.741598,0.36769524,1003.12585,0,0
22.36,1.4372833,-9.789265,0.31561887,1003.12604,0,0
22.4,1.4277476,-9.6939335,0.2824802,1003.1235,0,0
22.44,1.4612303999999998,-9.732067,0.38663933,1003.13104,0,0
22.48,1.4516934,-9.741601,0.2919533,1003.1362,0,0
22.52,1.3800205,-9.746368,0.34876835,1003.1056,0,0
22.56,1.3896027,-9.722535,0.320364,1003.1235,0,0
22.6,1.3800687,-9.803567,0.2872255,1003.1235,0,0
22.64,1.4374473,-9.803568,0.36771232,1003.0984,0,0
22.68,1.4948306,-9.684405,0.33457384,1003.1207,0,0
22.72,1.4566163,-9.703472,0.42452973,1003.1209,0,0
22.76,1.3084649,-9.751138,0.3298437,1003.12854,0,0
22.8,1.3371664,-9.755904,0.3535178,1003.1186,0,0
22.84,1.3180712,-9.779737,0.41506726,1003.1232,0,0
22.88,1.3850142,-9.755906,0.32511592,1003.0932,0,0
22.92,1.3850367,-9.7606735,0.38666525,1003.1207,0,0
22.96,1.4185195,-9.755907,0.36772984,1003.1061,0,0
23.0,1.4185451,-9.727309,0.35352895,1003.1083,0,0
23.04,1.4233459,-9.71301,0.32512447,1003.1409,0,0
23.08,1.3134347,-9.74161,0.39614275,1003.13354,0,0
23.12,1.2991191999999998,-9.798808,0.40561378,1003.13855,0,0
23.16,1.332602,-9.765443,0.34406874,1003.1157,0,0
23.2,1.3947636,-9.774978,0.38668057,1003.10315,0,0
23.24,1.3756671,-9.784511,0.41982347,1003.13104,0,0
23.28,1.3514351,-9.732071,0.36771452,1003.136,0,0
23.32,1.2606289,-9.789269,0.36771548,1003.11554,0,0
23.36,1.2749779,-9.77497,0.35824752,1003.1259,0,0
23.4,1.2941072,-9.727304,0.4150613,1003.13855,0,0
23.44,1.3036771,-9.741605,0.377187,1003.1186,0,0
23.48,1.2511093999999998,-9.765437,0.4292664000000001,1003.09796,0,0
23.52,1.2558992,-9.770205,0.4150641,1003.1181,0,0
23.56,1.2367895,-9.732072,0.4766122,1003.10297,0,0
23.6,1.1651026000000002,-9.794039,0.4245347,1003.13324,0,0
23.64,1.1555525,-9.827404,0.39139473,1003.1181,0,0
23.68,1.2320402,-9.751139,0.452943,1003.09796,0,0
23.72,1.2272705,-9.73684,0.45294392,1003.1411,0,0
23.76,1.2225003,-9.803572,0.41506955,1003.09283,0,0
23.8,1.1938316,-9.779738,0.38666403,1003.146,0,0
23.84,1.2225198999999998,-9.784506,0.4292746,1003.1108,0,0
23.88,1.2416499,-9.751141,0.4529476,1003.1229,0,0
23.92,1.2273201,-9.774974,0.45768285,1003.1306,0,0
23.96,1.2273295,-9.751141,0.44821492,1003.1255,0,0
24.0,1.2225605,-9.779739,0.45768473,1003.1079,0,0
24.04,1.1938912,-9.789273,0.49082643,1003.1358,0,0
24.08,1.1891215,-9.770208,0.4624209,1003.1186,0,0
24.12,1.155673,-9.784508,0.43401542,1003.12854,0,0
24.16,1.2464988,-9.736842,0.47189152,1003.10034,0,0
24.2,1.2178302,-9.774975,0.45295483,1003.1511,0,0
24.24,1.1843803999999998,-9.8131075,0.4198148,1003.1207,0,0
24.28,1.2268265,-9.765428,0.44343445,1003.1281,0,0
24.32,1.2220341,-9.789261,0.42923012,1003.1204,0,0
24.36,1.1694443,-9.765427,0.38661936,1003.1206,0,0
24.4,1.2267894,-9.784493,0.44816548,1003.10046,0,0
24.44,1.198098,-9.741594,0.4481643,1003.14606,0,0
24.48,1.1885256000000002,-9.794026,0.44816315,1003.1005,0,0
24.52,1.2028522,-9.7844925,0.42448995,1003.1256,0,0
24.56,1.2028396,-9.76066,0.46236402,1003.1081,0,0
24.6,1.1741496,-9.81309,0.41501898,1003.12854,0,0
24.64,1.2171545,-9.774959,0.42922097,1003.1129,0,0
24.68,1.2219216,-9.7320595,0.45762622,1003.12604,0,0
24.72,1.2266895,-9.784491,0.39134347,1003.1081,0,0
24.76,1.245796,-9.751124,0.41027993,1003.1132,0,0
24.8,1.245784,-9.760658,0.40081003,1003.09283,0,0
24.84,1.2935687,-9.765424,0.41027763,1003.1104,0,0
24.88,1.3078961,-9.765423,0.3913389,1003.1056,0,0
24.92,1.2361865,-9.732058,0.41500977,1003.11053,0,0
24.96,1.2361746,-9.808322,0.39607108,1003.1179,0,0
25.0,1.2552803,-9.774956,0.39606982,1003.0959,0,0
25.04,1.2552683,-9.8035555,0.40553758,1003.1081,0,0
25.08,1.2839353999999998,-9.798788,0.36766124,1003.121,0,0
25.12,1.2886993,-9.736822,0.40553504,1003.1182,0,0
25.16,1.3317072,-9.7511215,0.3534556,1003.11304,0,0
25.2,1.2791176000000002,-9.77972,0.38186094,1003.1388,0,0
25.24,1.3699218999999998,-9.712989,0.4055319000000001,1003.1415,0,0
25.28,1.303606,-9.755902,0.40085253,1003.1309,0,0
25.32,1.193682,-9.808335,0.34877512,1003.12854,0,0
25.36,1.2510511,-9.765435,0.39612022,1003.1384,0,0
25.4,1.3705575,-9.784503,0.36298043,1003.11304,0,0
25.44,1.3371096000000002,-9.727304,0.41979426,1003.13354,0,0
25.48,1.3514605,-9.74637,0.38665447,1003.13104,0,0
25.52,1.3084536,-9.827403,0.3298427,1003.1538,0,0
25.56,1.294125,-9.794038,0.3677189,1003.1206,0,0
25.6,1.399292,-9.746371,0.31090707,1003.1209,0,0
25.64,1.5140188,-9.722538,0.30143932,1003.1207,0,0
25.68,1.5044706,-9.755905,0.2777683,1003.1335,0,0
25.72,1.4519042,-9.808338,0.35825425,1003.1184,0,0
25.76,1.4949323,-9.713007,0.32037990000000005,1003.1056,0,0
25.8,1.3658898000000002,-9.674874,0.5476325,1003.1081,0,0
25.84,1.3228822,-9.693941,0.44347656,1003.1312,0,0
25.88,1.3993698,-9.7606735,0.35352382,1003.1259,0,0
25.92,1.4089415,-9.798805,0.32038411,1003.1309,0,0
25.96,1.4232924,-9.746374,0.40087003,1003.1358,0,0
26.0,1.3038087,-9.717775,0.38666788,1003.1083,0,0
26.04,1.2225628000000002,-9.779739,0.37720004,1003.1079,0,0
26.08,1.356408,-9.77974,0.3914042,1003.1229,0,0
26.12,1.2034663,-9.827407,0.27304520000000004,1003.1207,0,0
26.16,1.2751741,-9.770208,0.25410858,1003.10077,0,0
26.2,1.4329219,-9.746375,0.3440636,1003.1485,0,0
26.24,1.5763253000000002,-9.765442,0.36300203,1003.12604,0,0
26.28,1.6005571,-9.698718,0.31568850000000004,1003.1132,0,0
26.32,1.5814694,-9.722551,0.31095695,1003.1259,0,0
26.36,1.7631202,-9.679654,0.27781776,1003.1182,0,0
26.4,1.7105648999999998,-9.69872,0.2636166,1003.1235,0,0
26.44,1.6293323,-9.784519,0.25415,1003.0985,0,0
26.48,1.5146396,-9.736854,0.33463696,1003.1388,0,0
26.52,1.3378125,-9.774987,0.4198585999999999,1003.11334,0,0
26.56,1.2326854,-9.774988,0.33937636,1003.12854,0,0
26.6,1.132326,-9.817887,0.4009251,1003.1109,0,0
26.64,1.223174,-9.784522,0.4672097,1003.1259,0,0
26.68,1.309227,-9.689192,0.43407038,1003.13135,0,0
26.72,1.2232132,-9.751157,0.35832193,1003.1288,0,0
26.76,1.3140611999999998,-9.732092,0.34412166,1003.1415,0,0
26.8,1.2662796,-9.784524,0.31098232,1003.134,0,0
26.84,1.4001442,-9.798824,0.26837543,1003.139,0,0
26.88,1.4240657,-9.732094,0.2873151,1003.1489,0,0
26.92,1.3284954,-9.727327,0.3962088,1003.1509,0,0
26.96,1.2233608,-9.732095,0.4009451,1003.1613,0,0
27.0,1.1851404,-9.741628,0.3488683,1003.1262,0,0
27.04,1.2281889,-9.755928,0.3725431,1003.12885,0,0
27.08,1.2807862,-9.760696,0.38201368,1003.1309,0,0
27.12,1.3286067,-9.808362,0.31573412,1003.1137,0,0
27.16,1.3429763,-9.7511635,0.34887767,1003.134,0,0
27.2,1.3238796,-9.7416315,0.31100452,1003.1187,0,0
27.24,1.2897552,-9.736848,0.4008973,1003.1084,0,0
27.28,1.3279899,-9.751147,0.35355288,1003.12885,0,0
27.32,1.3757855,-9.755914,0.4293031,1003.1189,0,0
27.36,1.3566618,-9.755914,0.38669306,1003.0989,0,0
27.4,1.3853376,-9.717782,0.32987994,1003.1162,0,0
27.44,1.3901123,-9.741614,0.37722352,1003.1189,0,0
27.48,1.4283472,-9.741614,0.3724888,1003.1391,0,0
27.52,1.4235637,-9.755914,0.34408203,1003.1114,0,0
27.56,1.246707,-9.736848,0.36301926,1003.1112,0,0
27.6,1.2419237,-9.746381,0.39142537,1003.13135,0,0
27.64,1.237141,-9.798813,0.41509712,1003.12885,0,0
27.68,1.2371362,-9.827411,0.42456552,1003.12396,0,0
27.72,1.1893346000000002,-9.803578,0.4245652,1003.1112,0,0
27.76,1.1988903999999998,-9.722547,0.39615843,1003.1464,0,0
27.8,1.2275658,-9.727314,0.37248608,1003.1214,0,0
27.84,1.227562,-9.73208,0.42929858,1003.1164,0,0
27.88,1.2036592,-9.77498,0.43876702,1003.1189,0,0
27.92,1.2610129,-9.73208,0.32987538,1003.14386,0,0
27.96,1.3088073999999998,-9.770213,0.38195348,1003.1291,0,0
28.0,1.4569771,-9.74638,0.42456278,1003.1137,0,0
28.04,1.5669091999999998,-9.67488,0.49084413,1003.1164,0,0
28.08,1.504768,-9.71778,0.56185985,1003.1214,0,0
28.12,1.385269,-9.727313,0.5050465999999999,1003.129,0,0
28.16,1.3422472,-9.727313,0.47190547,1003.1065,0,0
28.2,1.2036301,-9.784512,0.38668594,1003.1365,0,0
28.24,1.1651045,-9.808338,0.4292693,1003.14655,0,0
28.28,1.1555296999999998,-9.770205,0.43400228,1003.1214,0,0
28.32,1.2176528999999998,-9.83217,0.3345785,1003.1189,0,0
28.36,1.1889626,-9.751138,0.29196778,1003.15155,0,0
28.4,1.1841648,-9.741604,0.4292639,1003.1316,0,0
28.44,1.1554707,-9.803569,0.4387313,1003.1189,0,0
28.48,1.1650141,-9.755902,0.46240184,1003.12396,0,0
28.52,1.2271364,-9.784502,0.40558758,1003.1239,0,0
28.56,1.208004,-9.765435,0.4150552,1003.1216,0,0
28.6,1.198428,-9.779734,0.4955386,1003.1291,0,0
28.64,1.1410552,-9.755901,0.46713078,1003.1164,0,0
28.68,1.236638,-9.722535,0.47659835,1003.124,0,0
28.72,1.3226591,-9.827399,0.29195517,1003.1291,0,0
28.76,1.3704411,-9.7559,0.400845,1003.134,0,0
28.8,1.418224,-9.703468,0.33929637,1003.1014,0,0
28.84,1.4421086,-9.774966,0.42924875,1003.1165,0,0
28.88,1.3703973,-9.7463665,0.38663778,1003.1189,0,0
28.92,1.4564195,-9.751132,0.40557408,1003.1319,0,0
28.96,1.3655871000000002,-9.736833,0.40083823,1003.109,0,0
29.0,1.3560122,-9.698699,0.42450887,1003.1115,0,0
29.04,1.3607758,-9.76543,0.39610094,1003.0989,0,0
29.08,1.303404,-9.817863,0.34875557,1003.1191,0,0
29.12,1.418106,-9.736831,0.41503605,1003.13934,0,0
29.16,1.3989716,-9.770197,0.42923784,1003.1265,0,0
29.2,1.3272592,-9.774963,0.31561077,1003.1039,0,0
29.24,1.2515508999999998,-9.765448,0.419838,1003.1214,0,0
29.28,1.2754654,-9.784515,0.35829216,1003.114,0,0
29.32,1.4093153,-9.751149,0.3914344,1003.1566,0,0
29.36,1.332855,-9.789283,0.39617032,1003.1191,0,0
29.4,1.3615503,-9.708251,0.40564063,1003.1115,0,0
29.44,1.3520072,-9.755917,0.3867045,1003.1265,0,0
29.48,1.3281225,-9.68442,0.41511226,1003.14935,0,0
29.52,1.3185805,-9.77975,0.41037947,1003.1466,0,0
29.56,1.3616163,-9.83695,0.35830262,1003.124,0,0
29.6,1.3568519,-9.817884,0.3062256,1003.1143,0,0
29.64,1.3186288000000002,-9.846483,0.2304765,1003.12683,0,0
29.68,1.3329858,-9.794053,0.11685242,1003.1165,0,0
29.72,1.3616791,-9.684422,-0.05831926,1003.114,0,0
29.76,1.3664755,-9.64629,0.003229536,1003.114,0,0
29.8,1.2756755,-9.689189,0.10265353,1003.1366,0,0
29.84,0.9841241,-9.617691,0.13579586,1003.12683,0,0
29.88,1.0175982,-9.5604925,0.097922035,1003.13403,0,0
29.92,0.94113773,-9.589092,0.27309653,1003.124,0,0
29.96,1.0749876,-9.622459,0.40566126,1003.14435,0,0
30.0,0.91249186,-9.670125,0.34885004,1003.1469,1,1
30.04,0.88382953,-9.765456,0.41039878,1003.1294,1,1
30.08,1.0845968,-9.908453,0.5855732,1003.1395,1,1
30.12,1.1324112,-10.108649,0.7228724,1003.11694,1,1
30.16,0.42501682,-9.813123,1.2957369,1003.09656,1,1
30.2,0.18126227,-10.480441,2.062712,1003.1145,1,1
30.24,-0.02050595,-9.975161,2.251995,1003.06396,1,1
30.28,1.3799511999999998,-9.817864,2.8437932,1003.05176,1,1
30.32,1.3799274,-9.570003,2.6023366,1003.0668,1,1
30.36,1.29865,-9.284009,2.2993326,1003.0973,1,1
30.4,1.0452936,-9.789264,2.2330487,1003.0793,1,1
30.44,1.2364588,-9.975158,2.218843,1003.10187,1,1
30.48,1.4563073999999998,-9.522335,2.233044,1003.08154,1,1
30.52,1.18861,-8.998013,2.0247276000000003,1003.1115,1,1
30.56,0.9926143,-9.303072,1.7548643,1003.1218,1,1
30.6,0.5385075,-9.136241,0.3866191,1003.1369,1,1
30.64,1.8720473,-9.160075,0.45289844,1003.1294,1,1
30.68,3.506715,-9.450833,-0.9153468,1003.1419,1,1
30.72,4.75422,-9.160073,-1.0479124,1003.1544,1,1
30.76,4.9597263,-9.326902,-0.87274164,1003.1218,1,1
30.8,3.960723600000001,-10.690137,-1.0337136999999998,1003.0998,1,1
30.84,-0.7808674,-12.820786,-1.7438768,1003.1546,1,1
30.88,0.13205133,-14.622545,1.4329066,1003.1095,1,1
30.92,2.7895951,-11.943739,-0.65496826,1003.1294,1,1
30.96,3.2532125,-10.494706,-0.63129836,1003.1825,1,1
31.0,2.8134453,-10.037115,-1.4077431,1003.18744,1,1
31.04,3.2579417,-9.183901,0.25876507,1003.18744,1,1
31.08,-0.07360714,-7.949362,1.0967523,1003.19244,1,1
31.12,-0.85274047,-7.053249,-0.10105434,1003.20966,1,1
31.16,-0.66157377,-5.8139434,-0.60763794,1003.2105,1,1
31.2,-0.56122166,-5.9521728,-1.7675693,1003.1499,1,1
31.24,3.8504812999999993,-9.536622,-4.5987480000000005,1003.09973,1,1
31.28,9.930367,-12.129628,-6.383621,1003.0497,1,1
31.32,5.3943075999999985,-7.9636574000000016,-2.9701178,1003.06726,1,1
31.36,1.6182344,-18.016325,-0.35672897,1002.99207,1,1
31.4,-0.6856576,-8.34498,5.310351,1002.9696,1,1
31.44,1.9288682,-6.404991000000001,3.1230536,1002.9496,1,1
31.48,0.32760912,-9.2077265,-0.35200173,1003.0673,1,1
31.52,0.20330928,-11.428942,5.958957,1003.0898,1,1
31.56,0.07900610599999999,-10.547127,-2.776022,1003.14233,1,1
31.6,2.358946,-10.671057,4.5149593,1003.0973,1,1
31.64,2.4449592,-9.33642,0.53805685,1003.1348,1,1
31.68,1.3790345,-8.7501335,0.897869,1003.1123,1,1
31.72,1.4315873,-8.640502,1.0209613000000002,1003.11035,1,1
31.76,1.5845162,-8.869295,0.39128318,1003.1524,1,1
31.8,3.7067208,-9.913172,-1.8528272,1003.17737,1,1
31.84,6.168293,-8.507036,-0.7497133,1003.1652,1,1
31.88,5.4226184,-9.031356,-1.6492525000000002,1003.1624,1,1
31.92,6.2972965,-10.118132,-1.5498325000000002,1003.1524,1,1
31.96,1.7803565,-13.564351,-3.391518,1003.17285,1,1
32.0,-3.649527,-19.942003,5.3908,1003.0822,1,1
32.04,2.1244493,-11.061908,-2.3830948,1003.1829,1,1
32.08,6.474044,-9.574741,-2.1605802000000005,1003.1728,1,1
32.12,1.751573,-9.412678,-1.6540012,1003.13776,1,1
32.16,0.026035473,-7.1247296,1.6032666000000002,1003.1976,1,1
32.2,-1.035106,-6.20955,1.167699,1003.24554,1,1
32.24,-2.9040356,-7.024630499999999,0.74160016,1003.27057,1,1
32.28,-2.062103,-6.6385565,-1.0053322,1003.2604,1,1
32.32,-0.26489556,-7.8397293,-4.698168,1003.1379,1,1
32.36,9.514585,-11.414647,-7.8891563,1003.08026,1,1
32.4,7.4688296,-9.798783,-3.4340816,1003.08527,1,1
32.44,1.9624966,-13.88849,-1.369881,1003.0353,1,1
32.48,-0.6090365,-16.133537,-10.185343,1002.9223,1,1
32.52,0.06969684,-5.8616085,8.345118,1002.8674,1,1
32.56,-0.9388407,-5.6995444000000015,0.7558670999999999,1002.9627,1,1
32.6,2.4882798,-10.575732,2.7301142000000005,1003.0051,1,1
32.64,1.8430077,-9.436525,1.1204164,1003.0978,1,1
32.68,0.088820934,-9.260162,-0.62657875,1003.13275,1,1
32.72,3.3151898,-9.393626,2.668567,1003.1482,1,1
32.76,2.2540746,-9.155298,-0.6833914000000001,1003.1683,1,1
32.8,2.0294251,-9.112399,1.7169518,1003.1078,1,1
32.84,0.6671821,-10.604332,1.9205314,1003.1279,1,1
32.88,1.771318,-10.742561,-1.4361614,1003.1683,1,1
32.92,3.8170753,-10.175342,0.9689163,1003.16565,1,1
32.96,5.031146499999998,-9.422225,-1.5213803999999995,1003.20074,1,1
33.0,5.1076245,-9.774952,-0.5650305999999999,1003.1734,1,1
33.04,5.408754,-9.036136,-2.31676,1003.1984,1,1
33.08,1.6422693,-11.376514,-2.5345428,1003.24115,1,1
33.12,-2.626094,-16.052505,2.0909708,1003.1281,1,1
33.16,-2.0333974,-15.16116,1.5938583999999998,1003.1408,1,1
33.2,7.392376400000002,-9.72252,-2.3262284,1003.23096,1,1
33.24,3.1048944,-10.313573,-1.3982852,1003.1683,1,1
33.28,0.6907135999999999,-8.926495,-1.715525,1003.23596,1,1
33.32,-0.638085,-5.971229599999999,1.5133378999999998,1003.2608,1,1
33.36,-2.2488928,-6.195257,0.27765688,1003.2609,1,1
33.4,-1.7422485,-6.404985400000001,-0.2052538,1003.24347,1,1
33.44,-0.9440351,-6.2572217000000006,-2.2931273,1003.12103,1,1
33.48,5.0020285000000015,-9.064723,-5.621415,1003.038,1,1
33.52,9.136544,-11.781661,-2.9086025,1003.05817,1,1
33.56,5.4178433,-8.035147,-4.7029432999999985,1003.0981,1,1
33.6,1.0921072,-13.974276,-3.0790436000000003,1003.1111,1,1
33.64,-0.86762553,-20.98588,-6.184814,1002.9957,1,1
33.68,3.0661385,-7.9874800000000015,7.511817,1003.04333,1,1
33.72,-5.781292,-4.7223883,-3.8933651,1003.08075,1,1
33.76,-1.6037563,-9.465112,4.5054674000000015,1002.90826,1,1
33.8,6.3641624000000006,-10.25636,6.3613534000000005,1003.0556,1,1
33.84,-1.0445472,-10.985642,-4.1016827000000005,1003.1887,1,1
33.88,1.6034503,-9.1409855,2.8626256000000003,1003.14874,1,1
33.92,1.4409238000000002,-9.212482,-0.94383705,1003.17145,1,1
33.96,1.7850548,-9.517543,1.3381445,1003.13617,1,1
34.0,1.8710791,-9.6796055,0.1308703,1003.12616,1,1
34.04,1.1110755,-9.674837,0.6753255,1003.1059,1,1
34.08,0.5566043,-10.375522,0.47647923,1003.1188,0,0
34.12,0.85771805,-9.546141,1.6080005,1003.10114,0,0
34.16,0.96286064,-9.3888445,2.8436792,1003.0585,0,0
34.2,-0.45197433,-9.703437,1.9110001,1003.1112,0,0
34.24,-0.064823344,-9.870264,0.6516473,1003.12616,0,0
34.28,1.1353055,-10.175335,0.43390113,1003.1184,0,0
34.32,1.2165645,-9.603348,1.1487964,1003.1064,0,0
34.36,0.021615937,-9.469885,1.4944081,1003.0937,0,0
34.4,-0.2603899,-9.951306,1.4281268,1003.1063,0,0
34.44,-0.36554304,-9.817843,1.404455,1003.1112,0,0
34.48,-0.15522915,-9.879808,1.2198133,1003.09863,0,0
34.52,0.29407495,-9.860743,0.85999894,1003.1087,0,0
34.56,0.327536,-9.784477,1.3050332,1003.134,0,0
34.6,-0.19346015,-9.770178,1.0683131,1003.15186,0,0
34.64,-0.17433855,-9.784477,1.0919855,1003.1288,0,0
34.68,-0.016602308,-9.784477,0.97836,1003.0987,0,0
34.72,0.31320655,-9.884577,0.88367206,1003.11676,0,0
34.76,0.485282,-9.76541,0.6374833000000001,1003.10895,0,0
34.8,0.24629419,-9.789245,0.65168667,1003.1369,0,0
34.84,0.26541590000000004,-9.746346,0.7037654000000001,1003.14166,0,0
34.88,0.107684925,-9.832144,0.69903123,1003.1342,0,0
34.92,0.09812787,-9.803545,0.7416411,1003.14417,0,0
34.96,0.17460714,-9.794012,0.6043436,1003.1419,0,0
35.0,0.074233755,-9.722513,0.57120293,1003.1394,0,0
35.04,0.007319033000000002,-9.889342,0.4954527,1003.1469,0,0
35.08,0.19851373,-9.8607435,0.4528433,1003.1269,0,0
35.12,0.47096515,-9.717747,0.4149683,1003.1394,0,0
35.16,0.28933495,-9.832144,0.33448368,1003.1469,0,0
35.2,0.2558787,-9.798778,0.3439527,1003.1524,0,0
35.24,0.29411978,-9.832144,0.32028088,1003.1269,0,0
35.28,0.38974994,-9.817845,0.44811293,1003.1419,0,0
35.32,0.25591928,-9.846444,0.40550363,1003.1168,0,0
35.36,0.06473094,-9.827378,0.5854114,1003.1495,0,0
35.4,-0.2268333,-9.798779,0.6280214,1003.1344,0,0
35.44,-0.35110438,-9.841679,0.55227125,1003.1224,0,0
35.48,-0.2507247,-9.841679,0.47652113,1003.10913,0,0
35.52,-0.21726254,-9.927477,0.3060829,1003.1372,0,0
35.56,-0.021286964,-9.875045,0.31081763,1003.12726,0,0
35.6,0.0551939,-9.846445,0.29661477,1003.12756,0,0
35.64,0.04085785,-9.841679,0.20192696,1003.12195,0,0
35.68,0.08387986,-9.875045,0.20192729,1003.1395,0,0
35.72,0.16036053,-9.894111,0.17825563,1003.10944,0,0
35.76,0.17948355,-9.722515,0.21139681,1003.11945,0,0
35.8,0.30854207,-9.9131775,0.20666276,1003.13257,0,0
35.84,0.39458233,-9.813079,0.24453837,1003.145,0,0
35.88,0.37546676,-9.784481,0.1593194,1003.11725,0,0
35.92,0.2846542,-9.832147,0.088303685,1003.155,0,0
35.96,0.3850339,-9.774948,0.121444866,1003.13007,0,0
36.0,0.5379911999999999,-9.803548,0.088304356,1003.14276,0,0
36.04,0.44717896,-9.794015,0.0835703,1003.1277,0,0
36.08,0.34202707,-9.860746,0.097773865,1003.13007,0,0
36.12,0.34681046,-9.7892475,0.16405585,1003.1475,0,0
36.16,0.12216349,-9.836913,0.2492755,1003.13257,0,0
36.2,0.19864394,-9.755881,0.21140058,1003.1377,0,0
36.24,0.41851872,-9.808314,0.17352569,1003.1327,0,0
36.28,0.4854712000000001,-9.865514,0.055168793,1003.10004,0,0
36.32,0.30384398,-9.889347,0.10251334,1003.1502,0,0
36.36,0.2560504,-9.860748,0.10251376,1003.1051,0,0
36.4,-0.03073214,-9.92748,0.20193678,1003.1352,0,0
36.44,0.040969357000000005,-9.879814,0.30135968,1003.145,0,0
36.48,0.1461304,-9.87028,0.3060946,1003.1454,0,0
36.52,-0.059396036,-9.908414,0.3487047,1003.16833,0,0
36.56,0.040984258,-9.808316,0.4386588,1003.1753,0,0
36.6,0.07922809,-9.832149,0.4433937,1003.14307,0,0
36.64,0.15570937,-9.903647,0.38184682,1003.133,0,0
36.68,0.1557148,-9.8321495,0.32503447,1003.1606,0,0
36.72,0.16050093,-9.803551,0.43866077,1003.14307,0,0
36.76,0.11270635,-9.7701845,0.391317,1003.11804,0,0
36.8,0.11749129,-9.827383,0.33923906,1003.1229,0,0
36.84,0.10315819,-9.741585,0.42919332,1003.1505,0,0
36.88,0.017126769,-9.855982,0.29189605,1003.123,0,0
36.92,-0.0019873679,-9.855983,0.3487094,1003.11066,0,0
36.96,0.15097143,-9.870282,0.39131945,1003.1435,0,0
37.0,-0.09757522,-9.841683,0.4339294,1003.1358,0,0
37.04,0.08406338,-9.794019,0.41499233,1003.1407,0,0
37.08,0.09840819,-9.765418,0.35818,1003.1131,0,0
37.12,0.17966957,-9.9989805,0.24455467,1003.11566,0,0
37.16,0.14621605,-9.86075,0.26349276,1003.146,0,0
37.2,0.012386933,-9.941782,0.26822767,1003.1308,0,0
37.24,-0.08320407,-9.741586,0.4149947,1003.1482,0,0
37.28,0.020466879,-9.836882,0.29176426,1003.15607,0,0
37.32,0.058637142,-9.908378,0.3627741,1003.12115,0,0
37.36,-0.18518735,-9.9274435,0.41484755,1003.14355,0,0
37.4,-0.09920202,-9.817811,0.38643646,1003.12067,0,0
37.44,0.063270405,-9.865476,0.39590153,1003.12616,0,0
37.48,0.1731411,-9.793976,0.28226984,1003.14325,0,0
37.52,0.15874378,-9.898838,0.15443562,1003.10596,0,0
37.56,0.16347586,-9.889303,0.11182161,1003.1385,0,0
37.6,0.3259312,-9.913136,0.14022276,1003.1209,0,0
37.64,0.13946773,-9.894068,0.23017174,1003.11615,0,0
37.68,0.16809206,-9.808269,0.32958925,1003.12866,0,0
37.72,0.05810204,-9.793968,0.34378752,1003.1413,0,0
37.76,0.2014382,-9.808266,0.32957897,1003.1257,0,0
37.8,0.13924967,-9.84163,0.22541738,1003.1186,0,0
37.84,0.10096009,-9.889294,0.11178698,1003.13116,0,0
37.88,0.04354790000000002,-9.851161,0.2112045,1003.13116,0,0
37.92,0.014814571,-9.894059,0.19699629,1003.13354,0,0
37.96,0.14859451,-9.798725,0.24433535,1003.12866,0,0
38.0,-0.0044103414,-9.855923,0.3626908,1003.11847,0,0
38.04,-0.03314369,-9.755824,0.34848258,1003.1288,0,0
38.08,-0.01407896,-9.798721,0.35794643,1003.1363,0,0
38.12,0.11014481,-9.774888,0.4194890000000001,1003.1213,0,0
38.16,0.25348437,-9.851151,0.19696695,1003.1213,0,0
38.2,0.23430718,-9.908349,0.035991903,1003.12646,0,0
38.24,0.21515049,-9.917881,-0.035027597,1003.1541,0,0
38.28,0.25508076,-9.917923,-0.034872744,1003.15717,0,0
38.32,0.17383836,-9.832125,0.036144633,1003.1187,0,0
38.36,0.22643141,-9.898857,0.0077396203,1003.11395,0,0
38.4,0.15474854,-9.879791,0.092960194,1003.1238,0,0
38.44,0.36029536,-9.741561,0.13557121,1003.1518,0,0
38.48,0.21691741,-9.836893,0.04561899,1003.1517,0,0
38.52,0.46070075,-9.851193,0.021948207,1003.1413,0,0
38.56,0.22650649,-9.922691,0.036152907000000005,1003.1092,0,0
38.6,0.40337348,-9.7796955,0.14977992,1003.119,0,0
38.64,0.39383006,-9.860727,0.017218068,1003.1221,0,0
38.68,0.42252314,-9.851195,0.026688183,1003.1346,0,0
38.72,0.47511613,-9.827362,0.059830405,1003.1067,0,0
38.76,0.5085890000000001,-9.770164,-0.0017155632,1003.11163,0,0
38.8,0.37954956,-9.860729,0.06930192,1003.1296,0,0
38.84,0.40346283,-9.81783,0.14031929,1003.1294,0,0
38.88,0.44171554,-9.784464,0.1497894,1003.1371,0,0
38.92,0.35091543,-9.836898,0.1924005,1003.1321,0,0
38.96,0.45130652,-9.803532,0.20187072,1003.0941,0,0
39.0,0.3079276,-9.7368,0.2918258,1003.107,0,0
39.04,0.3987581,-9.846431,0.14979495,1003.107,0,0
39.08,0.5565068,-9.860731,0.10245232,1003.12726,0,0
39.12,0.7190354,-9.960829,-0.006437603399999999,1003.102,0,0
39.16,0.45138162,-9.894098,0.07878308,1003.11707,0,0
39.2,0.618689,-9.894099,0.04090914,1003.1419,0,0
39.24,0.4131726,-9.841666,0.32024040000000004,1003.1246,0,0
39.28,0.41796672,-9.8035345,0.35338256,1003.11475,0,0
39.32,0.15509267,-9.774936,0.44333762,1003.11456,0,0
39.36,0.27938277,-9.860734,0.4149326,1003.10693,0,0
39.4,0.31763643,-9.846434,0.43387163,1003.12726,0,0
39.44,0.08344127,-9.846435,0.38652894,1003.08936,0,0
39.48,0.11213429,-9.822602,0.3155142,1003.0995,0,0
39.52,0.28422344,-9.846436,0.4291414000000001,1003.0995,0,0
39.56,0.2937973,-9.865502,0.32498577,1003.12476,0,0
39.6,0.41808742,-9.774938,0.24923669,1003.10944,0,0
39.64,0.18866636,-9.851204,0.31078485,1003.1122,0,0
39.68,0.12176417,-9.8988695,0.26344216,1003.1101,0,0
39.72,-0.002497539,-9.8464365,0.3676003,1003.1401,0,0
39.76,0.040537626,-9.822605,0.38180503,1003.12976,0,0
39.8,0.0070941,-9.851205,0.42441607,1003.1097,0,0
39.84,-0.050250337,-9.836906,0.39127645,1003.12476,0,0
39.88,-0.09803239,-9.898871,0.32499623,1003.10724,0,0
39.92,-0.12669614,-9.81784,0.48123297,1003.12726,0,0
39.96,-0.06932437400000001,-9.875039,0.34867093,1003.12726,0,0
40.0,-0.078869835,-9.808308,0.3202658,1003.10974,0,0
40.04,-0.117093205,-9.879806,0.29186076,1003.1025,0,0
40.08,0.0119775385,-9.808309,0.31079984,1003.12494,0,0
40.12,0.026330069,-9.755876,0.23978496,1003.14026,0,0
40.16,-0.05969033400000001,-9.898874,0.29186487,1003.123,0,0
40.2,0.045480385,-9.832142,0.23978782,1003.09247,0,0
40.24,0.21756841,-9.8178425,0.3297429,1003.11273,0,0
40.28,0.15544508,-9.817843,0.19718085,1003.1227,0,0
40.32,0.10766114,-9.751111,0.28713584,1003.1277,0,0
40.36,0.19849439,-9.8083105,0.33448142,1003.11255,0,0
40.4,0.18416817,-9.813077,0.25873217,1003.1355,0,0
40.44,0.28455913,-9.875043,0.15931103,1003.12054,0,0
40.48,0.35149145,-9.841678,0.16878124,1003.11273,0,0
40.52,0.3610661,-9.822612,0.18772024,1003.11304,0,0
40.56,0.088631436,-9.722514,0.32975367,1003.1255,0,0
40.6,-0.0117293745,-9.894111,0.23033254,1003.1101,0,0
40.64,0.029695094,-9.813041,0.28699952,1003.11304,0,0
40.68,0.15391879,-9.894071,0.32960448,1003.123,0,0
40.72,0.17299281,-9.822571,0.24438104,1003.1129,0,0
40.76,0.16338502,-9.927435,0.25857988,1003.08044,0,0
40.8,0.15377723,-9.860702,0.36746678,1003.0825,0,0
40.84,0.019894496,-9.813034,0.31064948,1003.1052,0,0
40.88,-0.20480143,-9.846399,0.33431740000000004,1003.0981,0,0
40.92,-0.20484963,-9.827332,0.32010975,1003.1308,0,0
40.96,-0.18577862,-9.889296,0.32957414,1003.1179,0,0
41.0,-0.14280254,-9.846396,0.37217996,1003.08295,0,0
41.04,-0.023355633,-9.798728,0.36270672,1003.09827,0,0
41.08,0.043513432000000005,-9.808261,0.34849906,1003.10046,0,0
41.12,0.25855643,-9.903591,0.0644304,1003.10046,0,0
41.16,0.22505261,-9.922656,0.19225517,1003.07544,0,0
41.2,0.41619658,-9.736758,0.16384432,1003.1108,0,0
41.24,0.3396685,-9.865455,0.16383964,1003.09076,0,0
41.28,0.24880706,-9.8320875,0.08808504,1003.1157,0,0
41.32,0.33957517,-9.922651,0.054939788,1003.09796,0,0
41.36,0.29650867,-9.860685,0.1922331,1003.1109,0,0
41.4,0.4494143,-9.870216,0.20643193,1003.1009,0,0
41.44,0.4063508,-9.865449,0.18749017,1003.09576,0,0
41.48,0.42064208,-9.784416,0.21589218,1003.1034,0,0
41.52,0.34411705,-9.803482,0.24429421,1003.1033,0,0
41.56,0.34884858,-9.798714,0.22535217,1003.1184,0,0
41.6,0.31056500000000004,-9.803479,0.27269208,1003.1084,0,0
41.64,0.28797227,-9.884543,0.09763867,1003.0884,0,0
41.68,0.21150072,-9.851177,0.2349369,1003.1059,0,0
41.72,0.33578074,-9.851177,0.1639213,1003.1138,0,0
41.76,0.30232686,-9.851177,0.1165777,1003.08826,0,0
41.8,0.29277265,-9.846412,0.12131257,1003.1011,0,0
41.84,0.42183208,-9.798745,0.14025064,1003.1067,0,0
41.88,0.36925906,-9.894077,0.17339191,1003.1137,0,0
41.92,0.3788237,-9.803513,0.19233,1003.09827,0,0
41.96,0.29757208,-9.8750105,0.1497208,1003.1062,0,0
42.0,0.24977882,-9.870244,0.1071116,1003.0885,0,0
42.04,0.3788386,-9.817812,0.15919052,1003.09576,0,0
42.08,0.34060556,-9.846412,0.17339423,1003.1112,0,0
42.12,0.27369303,-9.870244,0.19233227,1003.0937,0,0
42.16,0.2163405,-9.908378,0.007690968,1003.09656,0,0
42.2,0.09685013,-9.817813,0.29175568,1003.09125,0,0
42.24,0.029937953,-9.789214,0.324897,1003.1165,0,0
42.28,-0.051313616,-9.813046,0.2870222,1003.0886,0,0
42.32,0.06340672,-9.841645,0.3059603,1003.1142,0,0
42.36,0.049072072,-9.80828,0.32016394,1003.0936,0,0
42.4,0.09209539,-9.936976,0.18286666,1003.0992,0,0
42.44,0.09687996,-9.846413,0.21600795,1003.109,0,0
42.48,-0.056068383,-9.836881,0.25861806,1003.08417,0,0
42.52,-0.08474245,-9.793982000000002,0.2633529000000001,1003.08167,0,0
42.56,-0.1516543,-9.817814,0.28702542,1003.1319,0,0
42.6,-0.18510817,-9.917912,0.3012291,1003.1017,0,0
42.64,-0.061441638,-9.874997,0.35798627,1003.1065,0,0
42.68,0.06759526,-9.851165,0.27749977,1003.0945,0,0
42.72,0.16317229,-9.927429,0.1875443,1003.1095,0,0
42.76,0.48817992,-9.860697,0.2254178,1003.117,0,0
42.8,0.45948207,-9.7844305,0.30116653,1003.0995,0,0
42.84,0.392547,-9.717699,0.23014882,1003.09186,0,0
42.88,0.02448307,-9.903594,0.29642877,1003.0995,0,0
42.92,0.05792266,-9.832095,0.35323986,1003.1044,0,0
42.96,0.048346445,-9.836863,0.395848,1003.11456,0,0
43.0,0.17260112,-9.860694,0.28695482,1003.10187,0,0
43.04,0.067427576,-9.832093,0.32009402,1003.13226,0,0
43.08,-0.052086525,-9.779661,0.36270192,1003.1073,0,0
43.12,-0.13336343,-9.836861,0.30115286,1003.1299,0,0
43.16,-0.20029849,-9.898825,0.2964168,1003.10986,0,0
43.2,-0.047363803,-9.832091,0.28221184,1003.09973,0,0
43.24,-0.08084146,-9.855924,0.3437574,1003.12195,0,0
43.28,0.00517717,-9.836859,0.29167727,1003.10986,0,0
43.32,-0.052200697,-9.827324,0.286941,1003.107,0,0
43.36,0.038598955,-9.83209,0.25379866,1003.0923,0,0
43.4,0.0003414601,-9.822557000000002,0.40056348,1003.0946,0,0
43.44,-0.018796772,-9.84639,0.23485753,1003.1023,0,0
43.48,0.01464285,-9.77489,0.25852782,1003.11475,0,0
43.52,0.13412009,-9.784423,0.16857252,1003.09717,0,0
43.56,0.22491618,-9.822556,0.22064912,1003.1122,0,0
43.6,0.057605177,-9.85592,0.19697547,1003.1023,0,0
43.64,-0.028192326,-9.803494,0.2774822,1003.0944,0,0
43.68,0.010037258,-9.870226,0.24434057,1003.1248,0,0
43.72,0.27291757,-9.77966,0.24907416,1003.09216,0,0
43.76,0.3159275,-9.82256,0.1591197,1003.1173,0,0
43.8,0.2920202,-9.827326,0.06443084,1003.1022,0,0
43.84,0.35414875,-9.894058,0.021820392,1003.0973,0,0
43.88,0.43061674,-9.874991,0.050225995,1003.08966,0,0
43.92,0.3732496,-9.832091,0.09756919,1003.1048,0,0
43.96,0.21072851,-9.870224,0.12597492,1003.1128,0,0
44.0,0.048206344000000005,-9.841624,0.2348654,1003.1204,0,0
44.04,-0.10953604,-9.789193,0.28220865,1003.1103,0,0
44.08,-0.13822319,-9.846391,0.25380147,1003.1003,0,0
44.12,-0.0999942,-9.836858,0.17331572,1003.12506,0,0
44.16,0.12464769,-9.803492,0.05968918700000001,1003.0976,0,0
44.2,0.1676582,-9.836858,0.088094905,1003.0978,0,0
44.24,0.25846505,-9.846391,0.007609183,1003.10046,0,0
44.28,0.2775759,-9.903588,-0.049204435,1003.1178,0,0
44.32,0.46397883,-9.81779,-0.035002124,1003.0925,0,0
44.36,0.368375,-9.84639,0.12123254,1003.1229,0,0
44.4,0.19151337,-9.874989,0.0880909,1003.095,0,0
44.44,0.23452272,-9.836856,0.12596533,1003.09033,0,0
44.48,0.2966513,-9.827322,0.13069892,1003.1231,0,0
44.52,0.3109824,-9.827322,0.13069816,1003.0978,0,0
44.56,0.33965176,-9.851155,0.03600919,1003.09796,0,0
44.6,0.36832178,-9.836855,0.13543089,1003.1078,0,0
44.64,0.27342504,-9.779674,0.23491737,1003.1104,0,0
44.68,0.21130775,-9.808273,0.15916875,1003.0978,0,0
44.72,0.08704953,-9.851172,0.18757673,1003.08777,0,0
44.76,0.120528385,-9.922671,0.25386024,1003.10034,0,0
44.8,0.0966472,-9.908373,0.102360904,1003.10297,0,0
44.84,0.08232683,-9.822575,0.1544411,1003.1104,0,0
44.88,0.1779419,-9.813042,0.18284929,1003.09283,0,0
44.92,0.18274076,-9.813043,0.12130377,1003.09296,0,0
44.96,0.08238156,-9.922673,0.15444614,1003.1079,0,0
45.0,0.11586036,-9.884542,0.15918235,1003.1006,0,0
45.04,0.0537408,-9.879775,0.28227854,1003.0981,0,0
45.08,0.0011831373,-9.851177,0.2017955,1003.0981,0,0
45.12,-0.1374133,-9.898843,0.25861,1003.10297,0,0
45.16,-0.075258,-9.88931,0.18759558,1003.0932,0,0
45.2,0.058596715,-9.865478,0.16865978,1003.1086,0,0
45.24,0.01559633,-9.875011,0.12605178,1003.1134,0,0
45.28,-0.056082897,-9.879778,0.20653827,1003.0906,0,0
45.32,0.2020467,-9.813047,0.23968096,1003.0955,0,0
45.36,0.37413877,-9.813047,0.10238497,1003.1181,0,0
45.4,0.59880733,-9.789216,0.10238662,1003.0933,0,0
45.44,0.7852399999999999,-9.851181,0.088185266,1003.1084,0,0
45.48,0.6705412,-9.798749,0.16867164,1003.1161,0,0
45.52,0.5845238,-9.808283,0.27756473,1003.1262,0,0
45.56,-0.046391234,-9.860716,0.44800502,1003.1084,0,0
45.6,-0.37139887,-9.717719,0.31544346,1003.0783,0,0
45.64,-0.28111118,-9.822571,0.22070695,1003.073,0,0
45.68,-0.30023265,-10.0037,0.116549835,1003.0909,0,0
45.72,0.091708615,-9.841636,0.05973675,1003.11584,0,0
45.76,0.24943958,-9.855935,0.20176864,1003.1161,0,0
45.8,0.2398776,-9.83687,0.20176841,1003.1037,0,0
45.84,0.20163663,-9.789205,0.26331547,1003.1262,0,0
45.88,0.24465235,-9.941734,0.14495511,1003.1011,0,0
45.92,0.31634676,-9.8607025,0.13548605,1003.0986,0,0
45.96,0.26376665,-9.784437,0.14968908,1003.12366,0,0
46.0,0.07735179,-9.913135,0.08814159,1003.11115,0,0
46.04,0.07734923,-9.85117,0.08340694,1003.1036,0,0
46.08,0.40237337,-9.898835,-0.24800162,1003.10114,0,0
46.12,0.21117868,-9.889301,0.19229777,1003.1062,0,0
46.16,0.5123038,-9.751071,0.06446862,1003.10864,0,0
46.2,0.26853144,-9.817803,0.19703175,1003.1165,0,0
46.24,0.12991457,-9.913134,0.088140205,1003.1165,0,0
46.28,-0.08995895,-9.9226675,0.19229686,1003.114,0,0
46.32,-0.0708423,-9.822569,0.14968699,1003.1337,0,0
46.36,-0.09474384,-9.770137,0.0928739,1003.0961,0,0
46.4,0.034308492999999995,-9.841635,0.012388829,1003.0861,0,0
46.44,0.2254981000000001,-9.8702345,0.16388953,1003.1162,0,0
46.48,0.18725727,-9.9179,0.0076539480000000016,1003.124,0,0
46.52,0.34976822,-9.846402,0.012388151000000002,1003.0889,0,0
46.56,0.25416946,-9.76537,0.026591115,1003.1137,0,0
46.6,0.29718518,-9.846402,-0.034956384,1003.10144,0,0
46.64,0.21072854,-9.798725,0.0028803982,1003.0786,0,0
46.68,0.272847,-9.808259,0.088097945,1003.11163,0,0
46.72,0.3206272,-9.836858,0.08809629,1003.11145,0,0
46.76,0.40664345,-9.908356,-0.06340648,1003.13916,0,0
46.8,0.40184462,-9.741526,0.064420685,1003.114,0,0
46.84,0.36836815,-9.884522,0.06441906,1003.1167,0,0
46.88,0.2823127,-9.870221,0.040745307,1003.0916,0,0
46.92,0.028964058,-9.879755,0.17330688,1003.1118,0,0
46.96,0.37787187,-9.874987,0.026538692000000003,1003.1271,0,0
47.0,-0.042768694,-9.908353,0.111756355,1003.1067,0,0
47.04,0.17708327,-9.846387,0.040738564,1003.0839,0,0
47.08,0.24398033,-9.851153,-0.08709222,1003.0941,0,0
47.12,0.353898,-9.836853,0.14489198,1003.1216,0,0
47.16,0.35865992,-9.9035845,-0.016079444,1003.0991,0,0
47.2,0.3204013,-9.917883,0.021793947,1003.0941,0,0
47.24,0.26302582,-9.822553,0.09280841,1003.11694,0,0
47.28,0.10527329,-9.822552,0.045462605,1003.1168,0,0
47.32,0.19607173,-9.817784,0.035992168,1003.1218,0,0
47.36,0.3729055,-9.817783,-0.006619226,1003.0941,0,0
47.4,0.47804093,-9.846383,0.13541107,1003.0967,0,0
47.44,0.39198667,-9.813016,0.10700302,1003.0948,0,0
47.48,0.17209785,-9.832082000000002,0.121204615,1003.0868,0,0
47.52,0.20075642,-9.879747,0.054921087,1003.08185,0,0
47.56,0.13859995,-9.803482,0.17327946,1003.0794,0,0
47.6,0.19115998,-9.751049,0.09752734,1003.10443,0,0
47.64,0.22950788,-9.855915,0.14961581,1003.102,0,0
47.68,0.26295250000000003,-9.8606825,0.08806728,1003.10455,0,0
47.72,0.24860005,-9.846383,0.1070037,1003.09436,0,0
47.76,0.21034853,-9.7462845,0.17801858,1003.1299,0,0
47.8,0.15297605,-9.860682,0.16381401,1003.10706,0,0
47.84,0.21031974,-9.793949,0.15434392,1003.1173,0,0
47.88,0.17206822,-9.846381,0.14487392,1003.09973,0,0
47.92,0.23897152,-9.936946,0.15434144,1003.11475,0,0
47.96,0.3249941,-9.822549,0.18748102,1003.10474,0,0
48.0,0.16246764,-9.779648,0.2726991,1003.1248,0,0
48.04,0.24371035,-9.8177805,0.054915197,1003.07715,0,0
48.08,0.2150176,-9.913111,0.15433644,1003.1123,0,0
48.12,0.22934304,-9.793947,0.25375763,1003.0897,0,0
48.16,0.10983576,-9.851146,0.14959961,1003.10223,0,0
48.2,0.2866745,-9.903577,0.059644658,1003.0999,0,0
48.24,0.11458762,-9.874977,0.34844205,1003.10474,0,0
48.28,0.22928892,-9.836845,0.3153,1003.11725,0,0
48.32,-0.05751323,-9.898809,0.15432893,1003.1249,0,0
48.36,-0.15790303,-9.822545,0.07857716,1003.0998,0,0
48.4,-0.043200858,-9.879744,0.06910716,1003.0847,0,0
48.44,0.028482229,-9.865442,0.187466,1003.1178,0,0
48.48,0.30091625,-9.846376,-0.025583573,1003.10254,0,0
48.52,0.20530711,-9.870208,0.03596251,1003.0949,0,0
48.56,0.2865507,-9.808243,0.15432142,1003.10474,0,0
48.6,0.27697706,-9.884508,0.031225627,1003.1248,0,0
48.64,0.07140051,-9.8463745,0.13537839999999998,1003.1024,0,0
48.68,-0.0050925314,-9.908339,0.17325214,1003.1024,0,0
48.72,-0.019447118,-9.798708,0.111703485,1003.10254,0,0
48.76,0.0809135,-9.932171,0.0927645,1003.11237,0,0
48.8,0.35812694,-9.798707,0.27267045,1003.1075,0,0
48.84,0.45848852,-9.832072,0.2111219,1003.10254,0,0
48.88,0.6162069,-9.808239,0.1874485,1003.1049,0,0
48.92,0.534935,-9.846372,0.14010304,1003.11273,0,0
48.96,0.429766,-9.822539,0.2963372,1003.0899,0,0
49.0,0.3102547,-9.765339,0.24899167,1003.0952,0,0
49.04,0.06646949,-9.86067,0.20164622,1003.0722,0,0
49.08,-0.07215911,-9.908335,0.13062882,1003.1128,0,0
49.12,-0.13909157,-9.870202,0.11168982,1003.1075,0,0
49.16,-0.15344621,-9.884502,0.12115726,1003.07983,0,0
49.2,-0.024405777000000003,-9.851135,0.035936654,1003.08765,0,0
49.24,-0.019641161,-9.903567,0.15902978,1003.1128,0,0
49.28,-0.086573675,-9.8845005,0.106949955,1003.0927,0,0
49.32,-0.005331263,-9.836835,0.14008947,1003.0749,0,0
49.36,-0.07704447,-9.808235,0.22530726,1003.0977,0,0
49.4,0.023317114,-9.870199,0.21110275,1003.07764,0,0
49.44,0.15235756,-9.889265,0.13535096,1003.11005,0,0
49.48,0.21447887,-9.8559,0.050130192,1003.10803,0,0
49.52,0.15232332,-9.865432,0.10694142,1003.08496,0,0
49.56,0.18577056,-9.894032,0.06433071,1003.11304,0,0
49.6,0.17141588,-9.817765,0.12587659,1003.08246,0,0
49.64,0.2338274,-9.846372,0.15430811,1003.0924,0,0
49.68,0.19558541,-9.789173,0.23005824,1003.11053,0,0
49.72,0.11432518,-9.894037,0.05961936,1003.0827,0,0
49.76,0.29595370000000004,-9.832071,0.088025406,1003.1005,0,0
49.8,0.34852767,-9.827305,0.1306347,1003.1055,0,0
49.84,0.2768268,-9.784406,0.14010316,1003.0956,0,0
49.88,0.18600698,-9.884504,0.007539503299999998,1003.11554,0,0
49.92,0.20512237,-9.813005,0.22532178,1003.11816,0,0
49.96,0.28637552,-9.817772,0.23952465,1003.11554,0,0
50.0,0.21945445,-9.884504,0.13536742,1003.098,0,0
50.04,0.23378934,-9.817771,0.2395239,1003.1235,0,0
50.08,0.21466608,-9.913103,0.18271068,1003.08545,0,0
50.12,0.21944351,-9.922635,0.26319534,1003.07043,0,0
50.16,0.17642052,-9.8749695,0.22531967,1003.10596,0,0
50.2,0.066480994,-9.851137,0.26319453,1003.09814,0,0
50.24,0.11905597,-9.808238,0.29160067,1003.103,0,0
50.28,0.18596847,-9.817771,0.28213146,1003.0934,0,0
50.32,0.1764053,-9.855904,0.33420959999999994,1003.101,0,0
50.36,0.291117,-9.865437,0.26792756,1003.10333,0,0
50.4,0.2863332,-9.81777,0.253724,1003.1161,0,0
50.44,0.4010461,-9.779637,0.27739584,1003.0958,0,0
50.48,0.41060072,-9.770104,0.48097476,1003.0858,0,0
50.52,0.2528634,-9.879736,0.31053585,1003.0984,0,0
50.56,0.1955022,-9.84637,0.28686348,1003.10583,0,0
50.6,0.15248106,-9.751038,0.32000405,1003.093,0,0
50.64,0.19042693,-9.889261,0.14953871,1003.11597,0,0
50.68,0.27166456,-9.865428,0.07852091,1003.0958,0,0
50.72,0.42460686,-9.770097,0.06905103,1003.09814,0,0
50.76,0.34333307,-9.741497,-0.049310636,1003.10596,0,0
50.8,0.046969056,-9.798696,-0.13453142,1003.09814,0,0
50.84,0.17600949,-9.712897,-0.19608,1003.1313,0,0
50.88,-0.067775734,-9.84636,-0.16767496,1003.10846,0,0
50.92,0.08994162,-9.81776,-0.21975486,1003.1489,0,0
50.96,0.43885303,-9.784393,-0.31444427,1003.14655,0,0
51.0,0.69694823,-9.779627,-0.29077354,1003.1238,0,0
51.04,0.39102644,-9.913092,-1.076686,1003.1335,1,2
51.08,1.0601865,-10.032254,-1.0577496000000002,1003.1138,1,2
51.12,0.49615073,-10.17525,-1.6164112,1003.13385,1,2
51.16,0.4674577,-10.971265,-2.4828084,1003.1335,1,2
51.2,0.73989034,-12.201036,-2.3265746,1003.1536,1,2
51.24,0.8928345999999999,-11.276324,-2.8947039,1003.1987,1,2
51.28,1.437713,-9.913089,-2.1277322999999995,1003.15857,1,2
51.32,-1.3871661,-10.647138,-1.0435549000000002,1003.21625,1,2
51.36,0.23317112,-9.312502,-2.0093749,1003.2044,1,2
51.4,2.1068401000000003,-8.373489,0.660828,1003.16156,1,2
51.44,1.6670837,-8.502186,-1.7442509999999998,1003.1941,1,2
51.48,1.6622877,-7.73477,-1.5312042,1003.16156,1,2
51.52,1.4663016000000002,-7.0579185,-1.7584571,1003.18365,1,2
51.56,1.5379834,-6.11414,-1.9336313000000005,1003.257,1,2
51.6,2.9002135,-7.920665,-3.3397508,1003.2342,1,2
51.64,5.0898657,-9.016985,-4.831042299999999,1003.1991,1,2
51.68,6.997013000000001,-9.7796335,-1.4838177,1003.15906,1,2
51.72,5.8785434,-10.952207,-3.017764,1003.0914,1,2
51.76,1.7105596999999997,-13.116223000000002,-2.6106048,1003.0438,1,2
51.8,2.0451512,-10.904543,-0.0019475743,1003.0538,1,2
51.84,-0.7080112,-8.4021,0.49043098,1002.9541,1,2
51.88,-1.7834633999999998,-7.5631857,-2.3644147,1002.9186,1,2
51.92,1.681901,-10.813978,5.016523,1002.8985,1,2
51.96,1.3568791999999998,-10.027495,2.5309607999999995,1002.9666,1,2
52.0,-1.7117498,-9.817767,0.102211624,1003.10956,1,2
52.04,-0.93741673,-10.25629,4.1785345000000005,1003.07886,1,2
52.08,0.8502350000000001,-11.023707,2.5356965,1003.11926,1,2
52.12,1.2852018,-9.507942,1.9959749,1003.09424,1,2
52.16,1.9878379,-9.269614,1.6456293999999998,1003.0945,1,2
52.2,2.1599162,-9.393544,0.8597187,1003.11707,1,2
52.24,2.8290935,-9.960765,-0.8020569000000001,1003.1449,1,2
52.28,3.4791515,-9.646172,0.28212214,1003.1394,1,2
52.32,2.0930138,-9.474576,-0.76418084,1003.15686,1,2
52.36,2.8291085,-9.417378,-1.0671823,1003.1374,1,2
52.4,1.8635932,-10.461253999999998,-1.8578274,1003.1296,1,2
52.44,0.013813987,-10.532752,-2.8236454,1003.14465,1,2
52.48,-3.90562,-13.707279000000002,2.3842,1003.1174,1,2
52.52,-3.3368182,-13.311654999999998,-0.12503389,1003.11206,1,2
52.56,7.618497,-11.900754,-3.2497404,1003.23004,1,2
52.6,3.0729086,-12.344045,-2.6437361,1003.29553,1,2
52.64,-0.13433522,-8.354436999999999,0.0075307859999999985,1003.22253,1,2
52.68,-0.16778906,-5.894893,-0.8162552,1003.22504,1,2
52.72,0.3101967,-5.6946980000000025,-1.2660232,1003.2704,1,2
52.76,-0.21079683,-5.4706697,0.23478357,1003.29803,1,2
52.8,-0.3063878,-5.871061,-1.6400401999999998,1003.1274,1,2
52.84,5.147373,-10.623318,-5.3849540000000005,1003.0549,1,2
52.88,11.174711,-12.858833,-7.2881837,1003.0797,1,2
52.92,4.310371400000001,-8.263860000000001,-3.4723034,1003.1927,1,2
52.96,0.6777098000000001,-9.793924,0.9070199,1003.12506,1,2
53.0,-3.2513006,-13.311643,-3.0320058,1002.8695,1,2
53.04,5.9832683,-8.78818,1.4041301000000002,1002.91473,1,2
53.08,0.09931821,-8.354422999999999,4.7986975,1002.9069,1,2
53.12,0.37653506,-8.745280000000001,-0.8021043999999999,1002.9721,1,2
53.16,3.6172304,-11.104725,1.5982375,1003.1077,1,2
53.2,-0.7849808000000001,-10.537505,0.021679766,1003.1577,1,2
53.24,0.314363,-9.60326,1.6692516,1003.1703,1,2
53.28,0.3621493,-8.935941999999997,1.9533148,1003.1929,1,2
53.32,-0.51256657,-9.279133,0.5235234999999999,1003.1351,1,2
53.36,-0.2879276,-9.779621,1.3662465,1003.1101,1,2
53.4,-0.015489787,-9.302966,1.1910723,1003.09515,1,2
53.44,2.0541534,-10.103746,0.5471924,1003.1177,1,2
53.48,1.815152,-10.570869,-1.5880252,1003.1603,1,2
53.52,2.1353874,-9.860652,0.30573565,1003.17804,1,2
53.56,4.2384895999999985,-10.384973,1.4656638000000002,1003.0779,1,2
53.6,2.4842894,-11.357349,-1.9289055,1003.1327,1,2
53.64,0.7014123000000001,-11.161921,-5.029941,1003.1402,1,2
53.68,2.64678,-12.324961,4.05538,1003.1076,1,2
53.72,-0.0442606,-12.482257,6.266346,1003.1455,1,2
53.76,5.3760247,-11.309684,-0.18191445,1003.22565,1,2
53.8,4.1523833,-11.557545,2.1332085,1003.23566,1,2
53.84,1.2271326,-10.008412,1.2620768999999998,1003.24567,1,2
53.88,0.9451124,-8.402082,3.9086082,1003.2956,1,2
53.92,-1.3586601,-9.0265045,2.085871,1003.27106,1,2
53.96,-1.3395485,-9.555592,-0.2623946,1003.2105,1,2
54.0,-0.7181811,-10.504136,-2.6201286,1003.11786,1,2
54.04,-0.101593986,-12.158132,-6.090448,1003.0832,1,2
54.08,-0.6417199,-8.178057,-2.5775206,1003.018,1,2
54.12,7.101555,-7.911128999999999,1.6692396,1003.10077,1,2
54.16,7.732482000000001,-9.5746565,2.2326334,1003.10077,1,2
54.2,1.2128221,-14.488976999999998,-2.3881464,1003.1433,1,2
54.24,-2.5297718,-10.16571,-5.309275,1002.9457,1,2
54.28,-0.9572241,-8.25432,0.627668,1002.8731,1,2
54.32,0.6392228,-9.550824,2.530898,1002.8477,1,2
54.36,3.7556484,-9.855883,-1.4507371,1002.99554,1,2
54.4,3.6122468,-10.323005,2.0432532,1003.0832,1,2
54.44,0.22813688,-9.441193,0.6418685000000001,1003.09106,1,2
54.48,0.82082546,-10.847326,2.0290482,1003.0632,1,2
54.52,-1.7268171,-9.488857,1.1437141000000002,1003.1207,1,2
54.56,-1.5308534,-9.579422,1.5840128999999998,1003.08276,1,2
54.6,0.8447021,-9.832049,0.38620788,1003.1061,1,2
54.64,1.5377666,-9.350627,0.6750059,1003.0885,1,2
54.68,2.3025277,-10.21814,-0.054093104,1003.1212,1,2
54.72,2.4793727000000003,-10.227673,-0.8968179000000001,1003.1411,1,2
54.76,1.0836622,-9.803449,-0.18192346,1003.17914,1,2
54.8,0.62957335,-10.127574,1.7213063999999998,1003.1386,1,2
54.84,0.06554934400000001,-10.728161,2.6965935,1003.1436,1,2
54.88,0.8064118,-10.847324,1.5271945,1003.1413,1,2
54.92,-0.38800538,-11.185763,-1.2092425,1003.1937,1,2
54.96,0.008732334,-11.109499,-3.093534,1003.1713,1,2
55.0,1.7151362,-9.317273,-3.0035791,1003.16895,1,2
55.04,2.1548922000000004,-9.851129,0.85969627,1003.12866,1,2
55.08,0.018333778,-11.071366,3.9228575,1003.1489,1,2
55.12,2.8623302,-11.042768,4.997568,1003.1436,1,2
55.16,3.0965545,-12.906492,-5.34237,1003.2492,1,2
55.2,-0.14892012,-10.499382,0.07852438,1003.26654,1,2
55.24,-0.11066684,-8.664257000000001,-0.016162377,1003.27167,1,2
55.28,-1.1861088,-7.7300124000000014,-0.7263218000000001,1003.2467,1,2
55.32,-1.4920023999999998,-7.682347,-0.7263205,1003.20654,1,2
55.36,-0.7941369,-6.547907,-1.2234317,1003.12616,1,2
55.4,0.8596891999999999,-8.3067665,-2.4212348,1003.0637,1,2
55.44,4.970333599999999,-9.817765,-7.302405,1003.0211,1,2
55.48,8.220614999999999,-12.172445,-2.3975601,1003.0362,1,2
55.52,4.521058999999998,-12.949394,-1.3275838,1003.0384,1,2
55.56,-2.2423487,-13.359318,-2.762107,1002.99365,1,2
55.6,-0.17268045,-8.430699,0.85971385,1003.0113,1,2
55.64,0.27185524,-6.7481050000000025,1.5888133999999998,1003.0211,1,2
55.68,-2.3092246,-10.813978,0.30105665,1003.0113,1,2
55.72,0.85979897,-9.755803,1.659832,1003.08887,1,2
55.76,-0.7414221,-9.279147,2.474151,1003.0991,1,2
55.8,-0.8274447,-9.560374,1.432583,1003.13403,1,2
55.84,-1.2145948,-9.913101,1.2858178999999998,1003.179,1,2
55.88,0.109424725,-10.089463,1.1343181,1003.20685,1,2
55.92,0.2613718,-9.71288,1.8775275,1003.1139,0,0
55.96,-0.04934039,-9.355388,1.6408049,1003.1066,0,0
56.0,-0.011128619,-9.588948,1.2809877,1003.1142,0,0
56.04,-0.37442026,-9.955973,0.8359514000000001,1003.0916,0,0
56.08,-0.5704189000000001,-10.49936,0.5708223000000001,1003.12146,0,0
56.12,-0.04944686,-9.946439,1.3614653,1003.1093,0,0
56.16,0.5671229,-9.43165,2.7202375,1003.09674,0,0
56.2,-0.7951478,-9.522214,2.1426375,1003.097,0,0
56.24,-1.1966764,-9.932137,1.2146918,1003.12933,0,0
56.28,-1.0246316,-9.903537,1.2667676,1003.12683,0,0
56.32,-0.17385155,-9.650908,1.6265802,1003.1168,0,0
56.36,-0.57538337,-9.383982,1.5318896,1003.09955,0,0
56.4,-0.9625724,-9.665207,1.4514024,1003.08405,0,0
56.44,-0.6375724,-9.960732,1.5176815,1003.12225,0,0
56.48,-0.79055107,-9.78437,1.5460856,1003.1348,0,0
56.52,-0.9100711,-9.784369,1.2146751,1003.14233,0,0
56.56,-0.7141274999999999,-9.689037,1.2052037,1003.10205,0,0
56.6,-0.9818231,-9.579407000000002,1.1294508,1003.09174,0,0
56.64,-1.1348034,-9.760534,1.0110883,1003.1345,0,0
56.68,-1.1921862,-9.855865,0.7980378,1003.09174,0,0
56.72,-0.93888134,-9.789133,0.6370657,1003.09424,0,0
56.76,-0.8385321,-9.789132,0.5802503999999999,1003.0871,0,0
56.8,-0.79076076,-9.827263,0.5329039000000001,1003.10205,0,0
56.84,-0.88160205,-9.765297,0.41927594,1003.1173,0,0
56.88,-0.74301594,-9.784364,0.31511647,1003.1245,0,0
56.92,-0.6853338000000001,-9.798671,0.32461497,1003.1223,0,0
56.96,-0.8908788000000001,-9.808205,0.03108064,1003.1323,0,0
57.0,-0.5085065,-9.588943,0.14470525,1003.10724,0,0
57.04,-0.4463817,-9.808204,0.20625134,1003.11224,0,0
57.08,-0.53243005,-9.731938,0.08315573,1003.0768,0,0
57.12,-0.5898004,-9.8368025,-0.16303447,1003.11725,0,0
57.16,-0.7762254,-9.803435,-0.0020658486,1003.1195,0,0
57.2,-0.83837473,-9.798669,0.06894913,1003.11224,0,0
57.24,-0.843168,-9.817735,0.15416719,1003.1198,0,0
57.28,-0.8527395000000001,-9.841567,0.0689468,1003.0972,0,0
57.32,-0.9244493,-9.817734,0.06421123,1003.1249,0,0
57.36,-1.0057188,-9.874932,0.0878821,1003.1176,0,0
57.4,-0.9483737,-9.8558655,0.10681854,1003.12256,0,0
57.44,-0.9244866,-9.808201,0.10208304,1003.1301,0,0
57.48,-1.0344347,-9.808201,0.092613086,1003.14014,0,0
57.52,-0.90061206,-9.7653,0.24411295,1003.11005,0,0
57.56,-0.83848804,-9.7653,0.15415803,1003.1252,0,0
57.6,-0.7285646,-9.851098,0.14942253,1003.13776,0,0
57.64,-0.637761,-9.832031,0.24884388,1003.1199,0,0
57.68,-0.6616727,-9.770065,0.2535771,1003.1379,0,0
57.72,-0.7286019,-9.641369,0.2441072,1003.11255,0,0
57.76,-0.9962836,-9.855863,0.026323438,1003.1076,0,0
57.8,-1.1922675,-9.84633,0.06893199,1003.0925,0,0
57.84,-1.0488868999999998,-9.760531,0.03578993,1003.1178,0,0
57.88,-1.0775781999999998,-9.851095,0.04525757,1003.12036,0,0
57.92,-0.93923044,-9.750991,0.045233157,1003.1199,0,0
57.96,-0.84843695,-9.860621,0.18252881,1003.1225,0,0
58.0,-0.8341204,-9.741457,0.12097949,1003.14325,0,0
58.04,-0.8580421999999999,-9.870153,0.06416455,1003.13776,0,0
58.08,-0.8724030999999999,-9.779588,0.2014603,1003.1049,0,0
58.12,-0.96802187,-9.798655,0.17305177,1003.0977,0,0
58.16,-0.8676688,-9.779587,0.18725291,1003.1327,0,0
58.2,-1.058881,-9.822486,0.33875206,1003.1253,0,0
58.24,-0.8724929,-9.669956,0.25826496,1003.1253,0,0
58.28,-0.9346518,-9.8272505,0.3813575,1003.1153,0,0
58.32,-1.0350504,-9.774819,0.25352648,1003.11285,0,0
58.36,-1.0063931000000002,-9.81295,0.18250847,1003.11566,0,0
58.4,-1.0350962,-9.984547,0.3150696,1003.09827,0,0
58.44,-1.1163743,-9.922581,0.11622262,1003.10815,0,0
58.48,-0.9395428,-9.774817,0.14936148,1003.1278,0,0
58.52,-0.8439696,-9.803415,0.18250021,1003.1257,0,0
58.56,-0.6671395999999999,-9.789115,0.17776375,1003.11816,0,0
58.6,-0.31345695,-9.755749,0.17302725,1003.11835,0,0
58.64,-0.7819006,-9.870145,0.12094672,1003.141,0,0
58.68,-0.8058224,-9.746214,0.19669509,1003.1509,0,0
58.72,-0.7723852,-9.774814,0.07833301,1003.13324,0,0
58.76,-0.6720322,-9.779578,0.083065316,1003.12335,0,0
58.8,-0.5812387,-9.841544,0.21089216,1003.10834,0,0
58.84,-0.667298,-9.860609,-0.035298984,1003.14355,0,0
58.88,-0.7629155,-9.865376,0.11146562,1003.10846,0,0
58.92,-0.6046645,-9.812956,0.21093547,1003.14374,0,0
58.96,-0.70982134,-9.722391,0.1541225,1003.12085,0,0
59.0,-0.55208915,-9.755757,0.07363751,1003.13367,0,0
59.04,-0.72416323,-9.898755,0.12571588,1003.1415,0,0
59.08,-0.423037,-9.82249,0.0026212335,1003.1285,0,0
59.12,-0.5042948,-9.832023,-0.006847702,1003.1365,0,0
59.16,-0.55209416,-9.865389,-0.02105102,1003.1209,0,0
59.2,-0.43738008,-9.82249,-0.016316757,1003.126,0,0
59.24,-0.5855554000000001,-9.812956,-0.08259852,1003.139,0,0
59.28,-0.61901516,-9.817722,-0.006848175,1003.1315,0,0
59.32,-0.7624105,-9.841556,0.13044944,1003.15155,0,0
59.36,-0.8484480999999999,-9.798656,-0.0163172,1003.1315,0,0
59.4,-0.8149907,-9.879688,-0.006848499,1003.1214,0,0
59.44,-0.65725857,-9.798656,0.12571473,1003.1136,0,0
59.48,-0.6238011,-9.855855,0.026292102,1003.11395,0,0
59.52,-0.7146188,-9.832022,0.10204247,1003.1461,0,0
59.56,-0.54254705,-9.765289,0.054698295999999993,1003.1235,0,0
59.6,-0.59034634,-9.789124,-0.03525551,1003.1315,0,0
59.64,-0.62380624,-9.841556,-0.03525563,1003.1214,0,0
59.68,-0.7719813,-9.822489,0.05943235,1003.14417,0,0
59.72,-0.7385239,-9.836788,0.13044833,1003.12396,0,0
59.76,-0.79110307,-9.855854,0.08310416,1003.1039,0,0
59.8,-0.70506793,-9.841555,0.14465131,1003.104,0,0
59.84,-0.78154594,-9.755756,-0.06839703,1003.15643,0,0
59.88,-0.77676725,-9.789123,0.14465107,1003.12115,0,0
59.92,-0.647014,-9.741474,-0.025723524,1003.1343,0,0
59.96,-0.70434505,-9.774841,0.06896697,1003.1136,0,0
60.0,-0.64696246,-9.789142,0.064234875,1003.1317,0,0
60.04,-0.6899556,-9.855873,0.07370598,1003.1192,0,0
60.08,-0.68992907,-9.803442,0.17786529999999998,1003.112,0,0
60.12,-0.8332966,-9.836809,0.12105489,1003.0941,0,0
60.16,-0.79981136,-9.82251,0.16840138,1003.11664,0,0
60.2,-0.7758856,-9.731946,0.002699662,1003.1216,0,0
60.24,-0.79975975,-9.793912,0.040577173,1003.1291,0,0
60.28,-0.92878604,-9.927376,0.035845354,1003.1115,0,0
60.32,-0.92398137,-9.808213,0.05005085,1003.1242,0,0
60.36,-0.9908719,-9.7796135,0.102131754,1003.1218,0,0
60.4,-1.0386434000000002,-9.770081,0.15894702,1003.1242,0,0
60.44,-0.94780207,-9.798681,0.03585481,1003.1393,0,0
60.48,-0.7996032,-9.779615,0.07846674,1003.1393,0,0
60.52,-0.5749241,-9.803449,0.045328487,1003.1041,0,0
60.56,-0.63225514,-9.946446,-0.07776362,1003.1067,0,0
60.6,-0.46015722,-9.779617,0.054802015,1003.132,0,0
60.64,-0.6369833,-9.812984,0.073742084,1003.0816,0,0
60.68,-0.579599,-9.760552,0.09268215,1003.1097,0,0
60.72,-0.6369316999999999,-9.812985,0.0832156,1003.1045,0,0
60.76,-0.7277163000000001,-9.832053,0.05007768,1003.12463,0,0
60.8,-0.7563734999999999,-9.851119,0.08795489,1003.1218,0,0
60.84,-0.8089264,-9.836821,0.10689479,1003.1296,0,0
60.88,-0.79456025,-9.832054,0.045349956,1003.1168,0,0
60.92,-0.66069925,-9.751023,0.021680385,1003.0919,0,0
60.96,-0.7801677,-9.827289,0.0974333,1003.13245,0,0
61.0,-0.7658031999999999,-9.855888,0.0027474873,1003.0869,0,0
61.04,-0.7992353,-9.760558,0.007484343,1003.1346,0,0
61.08,-0.87568545,-9.817758,0.012221197,1003.10693,0,0
61.12,-0.8183013000000001,-9.798693,0.13531815,1003.10205,0,0
61.16,-0.89953125,-9.846358,0.06903893,1003.10175,0,0
61.2,-0.8230278,-9.808227,0.14005741,1003.1069,0,0
61.24,-0.8469018,-9.717664,0.11165327,1003.1097,0,0
61.28,-0.87555397,-9.855893,0.059577275,1003.1049,0,0
61.32,-0.8181698000000001,-9.832062,0.19214301,1003.1095,0,0
61.36,-0.89940304,-9.832063,0.07378505,1003.132,0,0
61.4,-0.77988136,-9.7986965,0.10692833,1003.09717,0,0
61.44,-0.7463978,-9.779631,0.08799298,1003.1196,0,0
61.48,-0.7272502,-9.86543,0.07379235,1003.10944,0,0
61.52,-0.8275994000000001,-9.808231,0.026450753,1003.0921,0,0
61.56,-0.88015234,-9.832066,0.0785315,1003.112,0,0
61.6,-0.8896851999999998,-9.817766,0.083268315,1003.1175,0,0
61.64,-0.70324636,-9.751034,0.17322445,1003.1147,0,0
61.68,-0.81793505,-9.779634,0.12114845,1003.12,0,0
61.72,-0.8010122,-9.817714,0.12094739,1003.09717,0,0
61.76,-0.83449244,-9.851079,0.09727339,1003.11487,0,0
61.8,-0.8488549000000001,-9.817713,0.1256777,1003.1201,0,0
61.84,-0.7723996999999999,-9.784347,0.0972693,1003.1226,0,0
61.88,-0.76286745,-9.841544,0.07359478,1003.10254,0,0
61.92,-0.6290517,-9.798644,-0.0021574087,1003.1045,0,0
61.96,-0.62907475,-9.855843,0.016778078000000002,1003.0771,0,0
62.0,-0.54305995,-9.822476,0.09726099,1003.09753,0,0
62.04,-0.78207314,-9.884441,0.030977212,1003.1153,0,0
62.08,-0.90159124,-9.836775,0.09725678,1003.10004,0,0
62.12,-0.935073,-9.755742,-0.021105442,1003.10736,0,0
62.16,-0.84905815,-9.803408,-0.011638626,1003.1202,0,0
62.2,-0.71046543,-9.81294,0.026234645,1003.1303,0,0
62.24,-0.57665545,-9.8844385,-0.13947177,1003.08746,0,0
62.28,-0.52887905,-9.846305,-0.030582447,1003.1152,0,0
62.32,-0.51456416,-9.793874,0.002556149,1003.1153,0,0
62.36,-0.65798134,-9.85107,0.0025540292000000003,1003.1002,0,0
62.4,-0.7201404,-9.83677,0.07356812,1003.1052,0,0
62.44,-0.7631817,-9.750972,0.09250362,1003.0952,0,0
62.48,-0.6867264,-9.82247,0.016751158999999998,1003.0952,0,0
62.52,-0.62461203,-9.793871,0.026217887,1003.08264,0,0
62.56,-0.6150769,-9.874901,-0.002190806,1003.1055,0,0
62.6,-0.6198769000000001,-9.870133,-0.035333466,1003.1481,0,0
62.64,-0.6724793,-9.865367,0.08302441,1003.11304,0,0
62.68,-0.76332295,-9.774801,0.06408427,1003.1078,0,0
62.72,-0.7915758,-9.765278,0.15881135,1003.1305,0,0
62.76,-0.8632776,-9.841543,0.10673249,1003.1281,0,0
62.8,-0.7772464,-9.822477,0.07832556,1003.1078,0,0
62.84,-0.6577565,-9.789111,0.0925283,1003.0905,0,0
62.88,-0.6004036,-9.851076,0.10673107,1003.11304,0,0
62.92,-0.75336236,-9.8129425,0.083058596,1003.10535,0,0
62.96,-0.758147,-9.760511,0.17301184,1003.1003,0,0
63.0,-0.71991485,-9.793877,0.026244717,1003.10785,0,0
63.04,-0.6291033,-9.827242,0.16827641,1003.083,0,0
63.08,-0.6530064999999999,-9.855842,0.012040693,1003.1407,0,0
63.12,-0.6769106,-9.846309,0.04518106,1003.07794,0,0
63.16,-0.6530172,-9.898742,0.007305313000000002,1003.11316,0,0
63.2,-0.56698585,-9.855841,-0.030570406,1003.126,0,0
63.24,-0.5765493,-9.874908,-0.0637116,1003.11835,0,0
63.28,-0.50963837,-9.803409,-0.04004013,1003.11066,0,0
63.32,-0.94460565,-9.817709,0.0688507,1003.1109,0,0
63.36,-0.6387031999999999,-9.803409,0.08305345,1003.07324,0,0
63.4,-0.5526718,-9.741444,0.20141308,1003.1059,0,0
63.44,-0.7151886,-9.779575,0.15406877,1003.1162,0,0
63.48,-0.90638715,-9.827241,0.10198972,1003.11346,0,0
63.52,-0.9733091,-9.798642,0.06884843,1003.10077,0,0
63.56,-0.8585988000000001,-9.793876,0.026238326,1003.1003,0,0
63.6,-0.39496303,-9.712843,0.045175493,1003.0984,0,0
63.64,-0.49056327,-9.903505,-0.054247368,1003.0833,0,0
63.68,-0.44755065,-9.770041,-0.08265433,1003.0808,0,0
63.72,-0.37972483,-9.832029,-0.049430322,1003.08624,0,0
63.76,-0.81944305,-9.855863,0.14941685,1003.0987,0,0
63.8,-0.6664517,-9.812964,-0.106237575,1003.0937,0,0
63.84,-0.6568584,-9.8082,0.05473528,1003.0962,0,0
63.88,-0.771544,-9.860632,0.012128368,1003.096,0,0
63.92,-0.8193183,-9.884465,0.21097553,1003.08093,0,0
63.96,-0.70457125,-9.793901,0.15889996,1003.1088,0,0
64.0,-0.6328365,-9.731937,0.08788734,1003.11127,0,0
64.04,-0.69972205,-9.789137,0.021608584,1003.1137,0,0
64.08,-0.88610274,-9.879703,-0.058873396,1003.08875,0,0
64.12,-0.9386568,-9.898768,0.031082468,1003.11127,0,0
64.16,-0.7856654000000001,-9.74624,0.15418044,1003.0911,0,0
64.2,-0.7617347,-9.827271,0.17312096,1003.1037,0,0
64.24,-0.76648474,-9.774841,0.15892045,1003.0987,0,0
64.28,-0.61349744,-9.836807,0.116313905,1003.0811,0,0
64.32,-0.62302536,-9.870173,-0.011512138,1003.0962,0,0
64.36,-0.5465188,-9.860641,0.016897028,1003.1188,0,0
64.4,-0.6134063,-9.865409,0.026368557,1003.1062,0,0
64.44,-0.6181544,-9.751012,0.04057467,1003.1065,0,0
64.48,-0.65636116,-9.798678,-0.05884492,1003.1163,0,0
64.52,-0.7232526,-9.851111,0.016907895,1003.0962,0,0
64.56,-0.8283726,-9.898777,-0.04937048,1003.08124,0,0
64.6,-0.9048179,-9.817746,-0.03516439,1003.1263,0,0
64.64,-0.7040344000000001,-9.793915,-0.049364675,1003.1216,0,0
64.68,-0.5653884,-9.808216,0.03585749,1003.09155,0,0
64.72,-0.6864912,-9.841541,-0.06844659,1003.1041,0,0
64.76,-0.94463277,-9.889207,-0.0826527,1003.07367,0,0
64.8,-0.968566,-9.793876,0.0025634244,1003.09143,0,0
64.84,-0.8921212,-9.803407,0.101982966,1003.08905,0,0
64.88,-0.5049849000000001,-9.741441,0.12565246,1003.104,0,0
64.92,-0.27081737,-9.765272,0.049898062,1003.06635,0,0
64.96,-0.37600726,-9.879669,0.021488484,1003.0843,0,0
65.0,-0.5098739000000001,-9.798636,0.11143926,1003.0843,0,0
65.04,-0.6963205,-9.812935,0.08302968,1003.1015,0,0
65.08,-0.72981346,-9.793869,0.09722977,1003.0972,0,0
65.12,-0.87323964,-9.851068,0.049882777,1003.07666,0,0
65.16,-1.2604381000000002,-9.865366,0.11142689,1003.09686,0,0
65.2,-1.1218559,-9.822466,0.11615838,1003.07904,0,0
65.24,-0.74906534,-9.803398,0.2865938,1003.1223,0,0
65.28,-0.51967114,-9.779564,0.14455833,1003.0893,0,0
65.32,-0.5579395,-9.817697,0.040398702,1003.0971,0,0
65.36,-0.6009920999999999,-9.898727,0.016723506000000003,1003.0718,0,0
65.4,-0.64404666,-9.798629,-0.040092673,1003.0845,0,0
65.44,-0.62973934,-9.846293,0.07826453400000001,1003.0893,0,0
65.48,-0.5198381,-9.817694,0.045120537,1003.0994,0,0
65.52,-0.62024605,-9.855824,0.11139926,1003.09174,0,0
65.56,-0.7588925999999999,-9.750959,0.13980275,1003.0818,0,0
65.6,-0.86886007,-9.812923,0.09719019,1003.0769,0,0
65.64,-0.85455924,-9.808157,0.17293712,1003.1148,0,0
65.68,-0.81635296,-9.822455,0.15873097,1003.0946,0,0
65.72,-0.6967031,-9.827225,0.120869905,1003.1147,0,0
65.76,-0.8066669,-9.803392,0.16347696,1003.10736,0,0
65.8,-1.0122218,-9.803391,0.16347479999999998,1003.09717,0,0
65.84,-1.2273364,-9.803391,0.0782534,1003.1097,0,0
65.88,-1.1795666,-9.870122,0.12086046,1003.1048,0,0
65.92,-0.8832471,-9.760491,0.120857865,1003.12994,0,0
65.96,-0.5343479999999999,-9.822455,0.068776965,1003.0948,0,0
66.0,-0.31928340000000005,-9.784323,-0.030647945,1003.1201,0,0
66.04,-0.22371066,-9.793856,-0.120603785,1003.11206,0,0
66.08,-0.24285653,-9.908252,-0.0732622,1003.0896,0,0
66.12,-0.31936,-9.860585,-0.05432697,1003.10504,0,0
66.16,-0.40542477,-9.827219,0.021420896,1003.0748,0,0
66.2,-0.50582564,-9.798618,0.054559432000000005,1003.0874,0,0
66.24,-0.62056756,-9.812918,0.04982258,1003.0976,0,0
66.28,-0.68272996,-9.889182,0.08296112,1003.10004,0,0
66.32,-0.70187587,-9.855815,0.03561467,1003.08484,0,0
66.36,-0.7210217,-9.774784,0.07348746,1003.11755,0,0
66.4,-0.63979167,-9.784316,0.07821942,1003.0974,0,0
66.44,-0.6684971,-9.755715,0.0166697,1003.10754,0,0
66.48,-0.72588134,-9.87488,0.09241778,1003.09,0,0
66.52,-0.66854703,-9.81768,0.040337183,1003.1129,0,0
66.56,-0.68291473,-9.798613,0.082944214,1003.09,0,0
66.6,-0.6733802,-9.760481,0.1255516,1003.07495,0,0
66.64,-0.644728,-9.812911,0.021392241,1003.09,0,0
66.68,-0.644753,-9.836742999999998,-0.011750892,1003.11786,0,0
66.72,-0.6636156999999999,-9.908249,0.016679006,1003.085,0,0
66.76,-0.59193385,-9.793851,0.011943242,1003.0678,0,0
66.8,-0.53937125,-9.855815,0.016676238,1003.07495,0,0
66.84,-0.60152394,-9.831983,0.04981566,1003.08,0,0
66.88,-0.6397765999999999,-9.855814,0.021407938,1003.06744,0,0
66.92,-0.6780301999999999,-9.846281,0.026140962,1003.09546,0,0
66.96,-0.6063484,-9.750949,0.10662444,1003.10284,0,0
67.0,-0.721078,-9.774782,0.13502957,1003.10297,0,0
67.04,-0.6876355,-9.8510475,0.054543205,1003.12036,0,0
67.08,-0.706769,-9.812913,0.011932258,1003.0528,0,0
67.12,-0.7641418000000001,-9.836746,0.12082216,1003.0677,0,0
67.16,-0.68290037,-9.879644,0.08294554,1003.09534,0,0
67.2,-0.7307127,-9.77478,0.016662543999999998,1003.07025,0,0
67.24,-0.7498471999999999,-9.817679,0.1397557,1003.07996,0,0
67.28,-0.76898146,-9.822445,0.087675855,1003.09296,0,0
67.32,-0.8263543999999999,-9.817678,0.059268042,1003.08044,0,0
67.36,-0.75945246,-9.817678,0.04979781,1003.0825,0,0
67.4,-0.7499061,-9.851044,0.06399983,1003.10034,0,0
67.44,-0.7403626999999999,-9.82721,0.1160768,1003.11053,0,0
67.48,-0.74993753,-9.860575,0.15868503,1003.093,0,0
67.52,-0.7738508000000001,-9.812909,0.07346445,1003.1055,0,0
67.56,-0.7117295,-9.79861,0.07819739,1003.09045,0,0
67.6,-0.60180825,-9.774776,0.15394656,1003.09076,0,0
67.64,-0.6209416999999999,-9.746178,0.120804414,1003.1132,0,0
67.68,-0.54926085,-9.808142,0.10186532,1003.09576,0,0
67.72,-0.6491164,-9.84152,0.007224854,1003.0632,0,0
67.76,-0.51527596,-9.822454,0.011959823,1003.09827,0,0
67.8,-0.65866333,-9.884419,-0.030649211000000006,1003.07043,0,0
67.84,-0.62519956,-9.851054,-0.0117111355,1003.11334,0,0
67.88,-0.49613774,-9.831988,-0.073257744,1003.0707,0,0
67.92,-0.6156268,-9.836755,-0.035381977,1003.08826,0,0
67.96,-0.5391437,-9.827222,-0.044850204000000005,1003.09076,0,0
68.0,-0.6442926,-9.770023,-0.082724795,1003.09607,0,0
68.04,-0.6203876,-9.789089,-0.054317843,1003.1137,0,0
68.08,-0.7398764,-9.841521,-0.13480216,1003.08075,0,0
68.12,-0.5534581000000001,-9.784323,-0.26263052,1003.0785,0,0
68.16,-0.44829607,-9.870121,-0.21055153,1003.0632,0,0
68.2,-0.45784932,-9.81769,-0.13480045,1003.0735,0,0
68.24,-0.4721824000000001,-9.8653555,-0.20108153,1003.08374,0,0
68.28,-0.4912961,-9.81769,-0.25315946,1003.0861,0,0
68.32,-0.5295276999999999,-9.808157,-0.16793957,1003.0886,0,0
68.36,-0.46260494,-9.798623,-0.21528308,1003.08374,0,0
68.4,-0.50083625,-9.855823,-0.09692235,1003.0962,0,0
68.44,-0.5438486,-9.822457,-0.16793787,1003.04816,0,0
68.48,-0.59642005,-9.808158,-0.096921235,1003.07367,0,0
68.52,-0.5294965,-9.774792,-0.13006148,1003.0937,0,0
68.56,-0.49603146,-9.84629,-0.07324803,1003.1037,0,0
68.6,-0.5008053,-9.874889,-0.09691952,1003.1012,0,0
68.64,-0.62507385,-9.87489,-0.120590955,1003.0939,0,0
68.68,-0.49601322,-10.046487,-0.08271514,1003.1011,0,0
68.72,-0.5391822,-9.89872,0.082975194,1003.0788,0,0
68.76,-0.48182452,-9.913019,0.06877199,1003.0936,0,0
68.8,-0.52962255,-9.9988165,-0.1016666,1003.0936,0,0
68.84,-0.61087924,-10.141813,-0.11586979,1003.0886,0,0
68.88,-0.56786096,-10.117981,-0.011712901,1003.0813,0,0
68.92,-0.52484274,-10.02265,-0.01644731,1003.0811,0,0
68.96,-0.43880624,-10.060782,0.05930318,1003.0838,0,0
69.0,-0.52962255,-10.151347,0.10664722,1003.0738,0,0
69.04,-0.59176004,-10.1751795,-0.06379135,1003.0841,0,0
69.08,-0.56786096,-10.137047,0.06403759,1003.0841,0,0
69.12,-0.5535216,-10.165647,0.1871321,1003.12146,0,0
69.16,-0.5822004,-10.199013,0.1823977,1003.0813,0,0
69.2,-0.67301667,-10.156113,0.07350639,1003.10925,0,0
69.24,-0.5726408000000001,-10.246677,0.17766329999999994,1003.0888,0,0
69.28,-0.52484274,-10.227612,0.30549225,1003.1093,0,0
69.32,-0.56308115,-10.318176,0.23921055,1003.0565,0,0
69.36,-0.64433783,-10.3515415,0.17292888,1003.1016,0,0
69.4,-0.63477826,-10.275276,0.35283628,1003.0868,0,0
69.44,-0.59176004,-10.332476,0.34810188,1003.0816,0,0
69.48,-0.61087924,-10.346776,0.3765083,1003.07416,0,0
69.52,-0.7638329,-10.384908,0.3670395,1003.09174,0,0
69.56,-0.7781723,-10.332476,0.41438353,1003.09924,0,0
69.6,-0.77339256,-10.370608,0.49013403,1003.08167,0,0
69.64,-0.7781723,-10.384908,0.52327484,1003.0667,0,0
69.68,-0.88810784,-10.337242,0.5611501,1003.0793,0,0
69.72,-0.8400583,-10.346782,0.48542264,1003.0745,0,0
69.76,-0.8400482,-10.408748,0.46175152,1003.06195,0,0
69.8,-0.7635619,-10.427814,0.37179872,1003.0542,0,0
69.84,-0.81134987,-10.299117,0.4238781,1003.0645,0,0
69.88,-0.86869794,-10.43258,0.28184682,1003.0545,0,0
69.92,-0.7348526,-10.403982,0.41441113,1003.0465,0,0
69.96,-0.79698116,-10.408749,0.2818486,1003.04456,0,0
70.0,-0.7396128000000001,-10.342016,0.1966303,1003.0546,0,0
70.04,-0.7252632,-10.384916,0.4475547,1003.0796,0,0
70.08,-0.66789544,-10.39445,0.29132026,1003.06464,0,0
70.12,-0.7443621,-10.413515,0.14928906,1003.0416,0,0
70.16,-0.74435264,-10.485015,0.15402435,1003.0269,0,0
70.2,-0.624848,-10.384916,0.1587596,1003.06213,0,0
70.24,-0.6678561,-10.446882,0.09721328,1002.99927,0,0
70.28,-0.5101124,-10.318186,0.17769907,1003.0219,0,0
70.32,-0.5005427,-10.313419,0.11141835,1003.0296,0,0
70.36,-0.5244321999999999,-10.342018,0.045137532,1003.0196,0,0
70.4,-0.5148630999999999,-10.394452,-0.011674438,1003.0323,0,0
70.44,-0.59132916,-10.342019,0.054608203,1003.017,0,0
70.48,-0.55308056,-10.270521,0.2108445,1003.01965,0,0
70.52,-0.64866656,-10.179957,0.16823578,1003.0122,0,0
70.56,-0.72513384,-10.113225,0.08301736400000001,1003.0296,0,0
70.6,-0.41443652,-10.199024,0.02147102,1002.98456,0,0
70.64,-0.14675732,-10.160891,-0.1347634,1003.0123,0,0
70.68,-0.34749895,-10.189491,-0.04007436,1003.00226,0,0
70.72,-0.53921556,-10.036948,0.111378565,1002.9722,0,0
70.76,-0.55834544,-10.036948,0.14925283,1002.98956,0,0
70.8,-0.610934,-10.11798,0.13504864,1002.99207,0,0
70.84,-0.62050575,-10.022648,0.12557873,1002.95966,0,0
70.88,-0.73523176,-10.046481,0.17292178,1002.9695,0,0
70.92,-0.60140723,-10.003582000000002,0.13504565,1002.96234,0,0
70.96,-0.5392826000000001,-10.051246,0.19185731,1002.98987,0,0
71.0,-0.38633958,-10.051246,0.09716825,1002.94226,0,0
71.04,-0.5058467999999999,-10.003581,0.07822952,1002.9495,0,0
71.08,-0.48195922,-9.970214,0.07822849,1002.96747,0,0
71.12,-0.47718942,-9.870115,0.09716518,1002.95496,0,0
71.16,-0.46764123,-9.922548,0.10663295,1002.92456,0,0
71.2,-0.5250103,-9.8415165,0.1113663,1002.9395,0,0
71.24,-0.40074676,-9.846282,0.22499096,1002.93726,0,0
71.28,-0.5011333,-9.80815,0.20605236,1002.942,1,3
71.32,-0.70667636,-9.784317,0.00247192,1002.897,1,3
71.36,-0.4629170999999999,-9.717585,0.08769023,1002.907,1,3
71.4,-0.3673331,-9.855814,0.27233090000000004,1002.91986,1,3
71.44,-0.45816082,-9.827215,0.016671997,1002.8995,1,3
71.48,-0.48684967,-9.827215,0.030874312,1002.88715,1,3
71.52,-0.46774256,-9.927312,0.106623664,1002.8873,1,3
71.56,-0.36259824,-9.87488,0.18710752,1002.92505,1,3
71.6,-0.51556265,-9.884414,-0.016472902,1002.84924,1,3
71.64,-0.5633714,-9.874879,0.06874542,1002.8671,1,3
71.68,-0.5012454000000001,-9.884413,0.13502605,1002.8595,1,3
71.72,-0.5161934,-9.870096,0.12550153,1002.8449,1,3
71.76,-0.5257841,-9.817665,0.13970189,1002.85956,1,3
71.8,-0.55450064,-9.831964,0.15863605,1002.8901,1,3
71.84,-0.5401968,-9.769998,0.15389842,1002.88007,1,3
71.88,-0.6692869,-9.7890625,0.17756717,1002.87256,1,3
71.92,-0.6167424,-9.750929,0.21543938,1002.8294,1,3
71.96,-0.63589716,-9.722329,0.2627802,1002.8553,1,3
72.0,-0.6311505999999999,-9.760461,0.27224594,1002.8272,1,3
72.04,-0.683764,-9.765225,0.24383625,1002.81976,1,3
72.08,-0.7172581,-9.860557,0.31958348,1002.8427,1,3
72.12,-0.6169177,-9.860556,0.25329855,1002.8174,1,3
72.16,-0.6456321,-9.96542,0.19648246,1002.80206,1,3
72.2,-0.6743464,-9.855787,0.3006361,1002.78955,1,3
72.24,-0.6887191,-9.769989,0.34324273,1002.8327,1,3
72.28,-0.72699296,-9.82242,0.33850506,1002.80505,1,3
72.32,-0.7222488,-9.908217,0.29589215,1002.7873,1,3
72.36,-0.6792638000000001,-9.884384,0.3621708,1002.7777,1,3
72.4,-0.7605605,-9.812883,0.32902628,1002.77,1,3
72.44,-0.8227267,-9.831949,0.3621645,1002.8126,1,3
72.48,-0.8132027,-9.7509165,0.49472457,1002.7697,1,3
72.52,-0.8897128000000001,-9.741383,0.52786237,1002.7672,1,3
72.56,-0.8801909,-9.727082,0.35742033,1002.74725,1,3
72.6,-0.7894079,-9.684183,0.39529252,1002.74994,1,3
72.64,-0.77510625,-9.812879,0.29586658,1002.76245,1,3
72.68,-0.7225617,-9.89391,0.24378504,1002.7704,1,3
72.72,-0.7311539,-9.831968,0.28648323,1002.76013,1,3
72.76,-0.82196546,-9.9416,0.2959525,1002.73975,1,3
72.8,-0.86019874,-9.827202,0.26281214,1002.7149,1,3
72.84,-0.85063374,-9.7509365,0.32909429999999995,1002.72003,1,3
72.88,-0.8123906,-9.817669,0.26754746,1002.7501,1,3
72.92,-0.7837069999999999,-9.8701,0.2722823,1002.7477,1,3
72.96,-0.7789221,-9.846269,0.22493872,1002.72504,1,3
73.0,-0.74067867,-9.846269,0.14918871,1002.7403,1,3
73.04,-0.7597928,-9.865335,0.13972035,1002.70264,1,3
73.08,-0.6833111,-9.81767,0.20126805,1002.7152,1,3
73.12,-0.6450677,-9.774771,0.12551805,1002.70013,1,3
73.16,-0.6163838,-9.750937,0.111315295,1002.68994,1,3
73.2,-0.59248,-9.722338,0.0971125,1002.69257,1,3
73.24,-0.51121825,-9.727105,0.045034513,1002.68256,1,3
73.28,-0.58291024,-9.78907,0.15392631,1002.6826,1,3
73.32,-0.6259231,-9.83197,0.07344192,1002.6802,1,3
73.36,-0.6593769,-9.86057,0.07817675,1002.65515,1,3
73.4,-0.54943675,-9.836737,0.07344278,1002.6602,1,3
73.44,-0.6211287,-9.955901,0.09711526,1002.64264,1,3
73.48,-0.6067842,-9.812903,0.0545061,1002.66046,1,3
73.52,-0.61633873,-9.879636,0.05450657,1002.62756,1,3
73.56,-0.6641316999999999,-9.784306,0.08291344,1002.63245,1,3
73.6,-0.6354478,-9.851038,0.13025796,1002.64795,1,3
73.64,-0.6545623,-9.9177685,0.1302584,1002.61005,1,3
73.68,-0.63065815,-9.822438,0.14919649,1002.59247,1,3
73.72,-0.6309663000000001,-9.674666,0.1539027,1002.60785,1,3
73.76,-0.71223056,-9.741399,0.15390198,1002.58734,1,3
73.8,-0.64054114,-9.774764,0.23438618,1002.605,1,3
73.84,-0.6548881999999999,-9.769998,0.18230702,1002.6003,1,3
73.88,-0.68357456,-9.741398,0.15863429,1002.5699,1,3
73.92,-0.7170404,-9.717566,0.24385293,1002.58777,1,3
73.96,-0.6692494999999999,-9.827196,0.1728362,1002.5777,1,3
74.0,-0.64057827,-9.879627,0.21071073,1002.58276,1,3
74.04,-0.64536613,-9.908227,0.09234989,1002.5652,1,3
74.08,-0.6788319,-9.870093,0.18230292,1002.5576,1,3
74.12,-0.6549404999999999,-9.860561,0.17283339999999994,1002.57794,1,3
74.16,-0.73620427,-9.927293,0.2059736,1002.5426,1,3
74.2,-0.70275325,-9.784296,0.19650412,1002.5576,1,3
74.24,-0.7027609,-9.827194,0.32906675,1002.53015,1,3
74.28,-0.6645300999999999,-9.855792999999998,0.27698758,1002.53534,1,3
74.32,-0.7935924,-9.817661,0.21543965,1002.5501,1,3
74.36,-0.78403944,-9.793829,0.2864551,1002.50256,1,3
74.4,-0.7888273,-9.69373,0.329064,1002.5154,1,3
74.44,-0.79361427,-9.789061,0.34326658,1002.5151,1,3
74.48,-0.850979,-9.722329,0.31012508,1002.50507,1,3
74.52,-0.8175285,-9.7985935,0.23437384,1002.5079,1,3
74.56,-0.7745179,-9.803361,0.29118603,1002.50824,1,3
74.6,-0.8462221,-9.822427,0.23910691,1002.51324,1,3
74.64,-0.82711095,-9.874858,0.29591903,1002.4878,1,3
74.68,-0.8653569999999999,-9.893924,0.31959036,1002.4878,1,3
74.72,-0.91338027,-9.870085,0.2722257,1002.4829,1,3
74.76,-0.7939016999999999,-9.83672,0.3243026,1002.4804,1,3
74.8,-0.80347776,-9.865319,0.3006291,1002.4931,1,3
74.84,-0.8704115,-9.80812,0.27695557,1002.4451,1,3
74.88,-0.8513118000000001,-9.841485,0.28168818,1002.49066,1,3
74.92,-0.84654343,-9.789052,0.30062476,1002.45276,1,3
74.96,-0.8609003000000001,-9.808119,0.31482637,1002.463,1,3
75.0,-0.7844399999999999,-9.717554,0.30535606,1002.45306,1,3
75.04,-0.80357563,-9.765218,0.2627449,1002.44293,1,3
75.08,-0.86094975,-9.727086,0.29114982,1002.42755,1,3
75.12,-0.89442384,-9.765217,0.3479613,1002.4481,1,3
75.16,-0.8466413,-9.769984,0.30535018,1002.4406,1,3
75.2,-0.8562184000000002,-9.779516,0.27694216,1002.4155,1,3
75.24,-0.8418943999999999,-9.851015,0.27220637,1002.4231,1,3
75.28,-0.7941129,-9.87008,0.3100801,1002.3954,1,3
75.32,-0.8801669,-9.860547,0.2437968,1002.40546,1,3
75.36,-0.8180449000000001,-9.85578,0.24852979,1002.42816,1,3
75.4,-0.78460175,-9.79858,0.2769348,1002.42065,1,3
75.44,-0.8037375,-9.922511,0.22012044,1002.43585,1,3
75.48,-0.7224972,-9.879611,0.22485334,1002.40576,1,3
75.52,-0.7368531,-9.884378,0.16330455,1002.39545,1,3
75.56,-0.6651726,-9.760447,0.17750625,1002.4131,1,3
75.6,-0.7368851,-9.722314,0.19170806,1002.43335,1,3
75.64,-0.7846996,-9.760447,0.20590977,1002.4186,1,3
75.68,-0.7416958,-9.793812,0.22011167,1002.3832,1,3
75.72,-0.67454606,-9.731852,0.14911689,1002.3881,1,3
75.76,-0.5789563,-9.731852,0.12544428,1002.39575,1,3
75.8,-0.55984306,-9.784284,0.13017815,1002.40356,1,3
75.84,-0.53117096,-9.765217,0.17752157,1002.3806,1,3
75.88,-0.61721337,-9.898682,0.12070817,1002.3838,1,3
75.92,-0.59332037,-9.874848,0.16331728,1002.34827,1,3
75.96,-0.6124459,-9.936812,0.13964467,1002.3282,1,3
76.0,-0.60767245,-9.836716,0.22012895,1002.3531,1,3
76.04,-0.65547717,-9.836716,0.12544025,1002.35077,1,3
76.08,-0.6554831,-9.91298,0.15858054,1002.3308,1,3
76.12,-0.60769105,-9.8653145,0.10176712,1002.3179,1,3
76.16,-0.58857936,-9.812881,0.08282883,1002.3584,1,3
76.2,-0.53122646,-9.789049,0.14437565,1002.33075,1,3
76.24,-0.6650674,-9.808115,0.11123422,1002.3384,1,3
76.28,-0.6077164,-9.769982,0.10649921,1002.30286,1,3
76.32,-0.54558456,-9.755683,0.11123310000000004,1002.3308,1,3
76.36,-0.6077286999999999,-9.760449,0.11123249,1002.3157,1,3
76.4,-0.59339565,-9.817648,-0.0023937784,1002.30566,1,3
76.44,-0.617301,-9.81288,0.01654324,1002.2986,1,3
76.48,-0.64598614,-9.846246,0.026011469,1002.30853,1,3
76.52,-0.6364329000000001,-9.912978,0.07808934,1002.3007,1,3
76.56,-0.5982,-9.889145,0.092292055,1002.2785,1,3
76.6,-0.67946297,-9.889145,0.04021302,1002.29065,1,3
76.64,-0.6507904999999999,-9.82718,0.011806032,1002.2711,1,3
76.68,-0.62689745,-9.898678,0.0023366548,1002.2707,1,3
76.72,-0.6078781999999999,-9.884377,0.04020277,1002.2507,1,3
76.76,-0.5983286999999999,-9.870075,-0.007142238299999998,1002.26355,1,3
76.8,-0.6270177,-9.798576,0.044935293,1002.25854,1,3
76.84,-0.60313135,-9.755678,0.030730916,1002.2485,1,3
76.88,-0.5696803,-9.708012,0.02126142,1002.251,1,3
76.92,-0.5696916999999999,-9.812877,-0.040286902,1002.24097,1,3
76.96,-0.55536306,-9.79381,-0.030819055,1002.246,1,3
77.0,-0.5123544,-9.77951,0.025992915,1002.22845,1,3
77.04,-0.54582316,-9.803343,-0.007148836,1002.2135,1,3
77.08,-0.5697329000000001,-9.822408,0.03072541,1002.21545,1,3
77.12,-0.56974185,-9.889139,0.021255765,1002.22845,1,3
77.16,-0.54585296,-9.908206,0.04492687,1002.2235,1,3
77.2,-0.5410814,-9.941572,-0.05449637400000002,1002.22845,1,3
77.24,-0.59367126,-9.893906,-0.026091035,1002.2212,1,3
77.28,-0.54588085,-9.884373,-0.03556056,1002.2388,1,3
77.32,-0.5889091999999999,-9.908205,0.025985789,1002.21857,1,3
77.36,-0.5650228,-9.870072,0.044922218,1002.20593,1,3
77.4,-0.49333537,-9.793807,0.04492136,1002.20624,1,3
77.44,-0.5363624,-9.822406,-0.049767528,1002.21375,1,3
77.48,-0.47901624,-9.798573,-0.011893343,1002.18335,1,3
77.52,-0.5124844,-9.812873,-0.01189423,1002.19855,1,3
77.56,-0.5507304,-9.769973,0.025980309,1002.1686,1,3
77.6,-0.53640366,-9.7461405,0.002307143,1002.196,1,3
77.64,-0.56509197,-9.736607,-0.04030339,1002.1611,1,3
77.68,-0.4408266,-9.755673,-0.08764829,1002.15076,1,3
77.72,-0.44549072,-9.808108,0.035456814,1002.19116,1,3
77.76,-0.52197266,-9.889138,-0.016622099999999997,1002.14856,1,3
77.8,-0.5219774,-9.889138,-0.030825738,1002.15857,1,3
77.84,-0.51720333,-9.908205,0.021252174,1002.14856,1,3
77.88,-0.42639148,-9.927271,0.02598617,1002.1358,1,3
77.92,-0.5172127999999999,-9.81764,-0.016623925,1002.1558,1,3
77.96,-0.440741,-9.951104,-0.05923402,1002.1563,1,3
78.0,-0.44552433,-9.898672,-0.016624723,1002.1235,1,3
78.04,-0.50766814,-9.827173,-0.03082851,1002.1235,1,3
78.08,-0.46943474,-9.7366085,-0.059235375,1002.11865,1,3
78.12,-0.4503203,-9.831939,-0.08764224,1002.1187,1,3
78.16,-0.36428922,-9.741374,-0.030829895,1002.1187,1,3
78.2,-0.46467018,-9.78904,0.011779292,1002.10614,1,3
78.24,-0.49813354,-9.80334,-0.082909256,1002.10333,1,3
78.28,-0.5363770999999999,-9.80334,-0.09237851,1002.0683,1,3
78.32,-0.4742447,-9.865305,-0.03083172,1002.1109,1,3
78.36,-0.43123156,-9.917737,-0.08291063,1002.0886,1,3
78.4,-0.47903436,-9.970169,-0.0923799,1002.0911,1,3
78.44,-0.45514065,-9.85577,-0.03556751,1002.0657,1,3
78.48,-0.44558555,-9.908203,0.00704173,1002.0484,1,3
78.52,-0.46948963,-9.917736,-0.059240412,1002.0513,1,3
78.56,-0.5125128999999999,-9.87007,-0.12078814,1002.05115,1,3
78.6,-0.47427958,-9.89867,-0.04503816,1002.0634,1,3
78.64,-0.46472502,-9.827171,-0.040304188,1002.0765,1,3
78.68,-0.5029685,-9.750905,-0.0118982345,1002.02374,1,3
78.72,-0.5119975,-9.865316,0.035494395,1002.0388,1,3
78.76,-0.49286288,-9.803352,-0.030785862,1002.0413,1,3
78.8,-0.5119666,-9.784286,0.002356384,1002.0364,1,3
78.84,-0.4593702,-9.75092,0.078108564,1002.02637,1,3
78.88,-0.47847503,-9.760454,0.011828238,1002.02374,1,3
78.92,-0.48323834,-9.865317999999998,0.011829739,1002.02637,1,3
78.96,-0.47366226,-9.82242,0.0970505,1002.02637,1,3
79.0,-0.55012363,-9.855785,0.035504673,1002.0291,1,3
79.04,-0.502309,-9.87962,0.06864703,1002.00116,1,3
79.08,-0.492732,-9.87962,0.044976585,1002.0136,1,3
79.12,-0.5405135,-9.898687,0.16807263,1002.00116,1,3
79.16,-0.540497,-9.884388,0.15860534,1001.97864,1,3
79.2,-0.5452614,-9.936819,0.078121886,1001.9962,1,3
79.24,-0.58348334,-9.903454,0.07338897,1001.98615,1,3
79.28,-0.56912845,-9.769991,0.12546885,1001.96625,1,3
79.32,-0.5882312,-9.798591,0.073391885,1001.989,1,3
79.36,-0.5834349,-9.769992,0.14440946,1001.95856,1,3
79.4,-0.60731745,-9.798591,0.05919171,1001.9765,1,3
79.44,-0.6216403,-9.765225,0.15388131,1001.93365,1,3
79.48,-0.6120653,-9.736627,0.17755474,1001.946,1,3
79.52,-0.64072865,-9.817659,0.106540084,1001.946,1,3
79.56,-0.6646111,-9.779527,0.12074481,1001.94617,1,3
79.6,-0.5976774,-9.865325,0.09707427,1001.949,1,3
79.64,-0.6359004,-9.874859,0.14441973,1001.93097,1,3
79.68,-0.57852626,-9.860559,0.07813961,1001.9261,1,3
79.72,-0.59813225,-9.860548,0.115970284,1001.9314,1,3
79.76,-0.65549344,-9.8653145,0.08282912,1001.9314,1,3
79.8,-0.71763474,-9.893913,0.20118888,1001.9314,1,3
79.84,-0.7606567,-9.836715,0.14911008,1001.9189,1,3
79.88,-0.7558804,-9.798581,0.19645381,1001.90375,1,3
79.92,-0.779783,-9.779515,0.18698467,1001.9113,1,3
79.96,-0.7606679000000001,-9.760449,0.13490584,1001.9267,1,3
80.0,-0.7606715000000001,-9.73185,0.13963993,1001.9038,1,3
80.04,-0.7654553000000001,-9.779515,0.15384279,1001.9013,1,3
80.08,-0.7463396,-9.750916,0.1112328,1001.8637,1,3
80.12,-0.6889858,-9.755683,0.06388842,1001.88617,1,3
80.16,-0.7176684,-9.71755,0.115966514,1001.90137,1,3
80.2,-0.74157107,-9.727083,0.1349038,1001.8687,1,3
80.24,-0.77981293,-9.85578,0.18698195,1001.8913,1,3
80.28,-0.7511385,-9.841479,0.17751274,1001.86395,1,3
80.32,-0.7893802,-9.8748455,0.15857479,1001.8663,1,3
80.36,-0.8324021999999999,-9.917745,0.13016802,1001.8587,1,3
80.4,-0.8276263,-9.898679,0.1443709,1001.8614,1,3
80.44,-0.79417145,-9.889145,0.21065222,1001.85645,1,3
80.48,-0.82763386,-9.860546,0.23432389,1001.8437,1,3
80.52,-0.8849949,-9.81288,0.22485478,1001.83624,1,3
80.56,-0.8180814000000001,-9.822413,0.26746407,1001.8414,1,3
80.6,-0.8658834999999999,-9.765214,0.26746368,1001.83636,1,3
80.64,-0.87066686,-9.755682,0.22958812,1001.8237,1,3
80.68,-0.81331307,-9.803347,0.23905659,1001.8237,1,3
80.72,-0.7711167,-9.78426,0.18690293,1001.7835,1,3
80.76,-0.77115345,-9.7079935,0.22004038,1001.80396,1,3
80.8,-0.7377294,-9.741359,0.21530281,1001.7835,1,3
80.84,-0.81424314,-9.774724,0.19162743,1001.8062,1,3
80.88,-0.7521425,-9.817622,0.20109284,1001.8038,1,3
80.92,-0.78085804,-9.789023,0.2105583,1001.82654,1,3
80.96,-0.7617757,-9.760422,0.17267968,1001.80896,1,3
81.0,-0.7331267,-9.822387,0.26263067,1001.799,1,3
81.04,-0.72360617,-9.793787,0.23422062,1001.7889,1,3
81.08,-0.7475443,-9.798552,0.16320097,1001.7612,1,3
81.12,-0.7236821,-9.722286,0.19160403,1001.79193,1,3
81.16,-0.6950377,-9.693686,0.25314817,1001.7615,1,3
81.2,-0.71419376,-9.555454,0.23420714,1001.73615,1,3
81.24,-0.7715859,-9.579287,0.19632876,1001.75397,1,3
81.28,-0.69514817,-9.626952,0.18685639,1001.7538,1,3
81.32,-0.70952207,-9.526853,0.21052526,1001.7289,1,3
81.36,-0.7143364000000001,-9.541151,0.14897482,1001.7237,1,3
81.4,-0.65701556,-9.460119,0.09215861,1001.74646,1,3
81.44,-0.6427129,-9.4934845,0.11582726,1001.7314,1,3
81.48,-0.6523093000000001,-9.450583,0.234184,1001.73413,1,3
81.52,-0.6810248999999999,-9.493484,0.15369578,1001.7593,1,3
81.56,-0.6810616,-9.536382,0.13002035,1001.7038,1,3
81.6,-0.685876,-9.488715,0.16789244,1001.7292,1,3
81.64,-0.728931,-9.436281,0.14421706,1001.66864,1,3
81.68,-0.6859496,-9.431515,0.09213525,1001.6812,1,3
81.72,-0.6413933,-9.369587,0.11121364,1001.6966,1,3
81.76,-0.6174693,-9.345754,0.13962238,1001.66644,1,3
81.8,-0.6700205,-9.259956,0.08754633,1001.6962,1,3
81.84,-0.6604359999999999,-9.236124,0.049673385999999986,1001.67896,1,3
81.88,-0.57915264,-9.255191,0.12542632,1001.6917,1,3
81.92,-0.63648367,-9.221827,0.09228793,1001.6915,1,3
81.96,-0.62689745,-9.207527,0.10649356,1001.7019,1,3
82.0,-0.6173112,-9.112197,0.14437123,1001.71185,1,3
82.04,-0.64596504,-9.231361,0.054419838,1001.67413,1,3
82.08,-0.70329607,-9.207529,0.13017276,1001.664,1,3
82.12,-0.6602511999999999,-9.178929,0.07809673,1001.68176,1,3
82.16,-0.6315474,-9.159865,0.11123985,1001.6514,1,3
82.2,-0.6171813,-9.217065,0.12071112,1001.6691,1,3
82.24,-0.64583355,-9.217065,0.087572694,1001.64655,1,3
82.28,-0.67926556,-9.29333,0.07810633,1001.6743,1,3
82.32,-0.6027637,-9.245666,0.10651505,1001.6341,1,3
82.36,-0.669656,-9.207534,0.13018934,1001.6316,1,3
82.4,-0.70786613,-9.274266,0.07811349,1001.63385,1,3
82.44,-0.6504819000000001,-9.293333,0.12545998,1001.6343,1,3
82.48,-0.65045685,-9.302866,0.15386870000000002,1001.64166,1,3
82.52,-0.61219186,-9.269501,0.106527105,1001.6242,1,3
82.56,-0.7173225000000001,-9.269502,0.120732576,1001.65674,1,3
82.6,-0.731637,-9.336234,0.20595415,1001.6393,1,3
82.64,-0.7555076999999999,-9.326702,0.20595674,1001.6393,1,3
82.68,-0.74592143,-9.326703,0.20595916,1001.6067,1,3
82.72,-0.75683725,-9.164606,0.20110062,1001.6242,1,3
82.76,-0.7425252,-9.326669,0.10167563,1001.5937,1,3
82.8,-0.6756371,-9.421999,0.14901702,1001.6216,1,3
82.84,-0.7760403,-9.193204,0.13954571,1001.6343,1,3
82.88,-0.75217235,-9.402932,0.14901166,1001.6017,1,3
82.92,-0.70918316,-9.302833,0.13007139,1001.6318,1,3
82.96,-0.7761241999999999,-9.379097,0.22002292,1001.6523,1,3
83.0,-0.7904963,-9.445828,0.12059741,1001.5991,1,3
83.04,-0.7236083000000001,-9.464893,0.11112593,1001.6393,1,3
83.08,-0.709298,-9.407694,0.10638885,1001.632,1,3
83.12,-0.6806465,-9.417227,0.16319920000000002,1001.6243,1,3
83.16,-0.6615565,-9.503025,0.15846212,1001.6142,1,3
83.2,-0.70460385,-9.374327,0.20580351,1001.64746,1,3
83.24,-0.75721085,-9.655553,0.07323751,1001.64233,1,3
83.28,-0.66164035,-9.393391,0.15845446,1001.6323,0,0
83.32,-0.6616695,-9.693684,0.0732325,1001.6294,0,0
83.36,-0.6760381,-9.674617,0.17738672,1001.632,0,0
83.4,-0.62348753,-9.665083,0.11110255,1001.6323,0,0
83.44,-0.64741755,-9.674615,0.14897497,1001.6396,0,0
83.48,-0.714364,-9.812844,0.09689383,1001.6372,0,0
83.52,-0.63791627,-9.874809,0.15843844,1001.61694,0,0
83.56,-0.5901456,-9.703213,0.09215428,1001.632,0,0
83.6,-0.633193,-9.803309,0.04480754,1001.61444,0,0
83.64,-0.60932314,-9.841441,-0.030945573,1001.6324,0,0
83.68,-0.6571467,-9.769942,0.10634981,1001.6092,0,0
83.72,-0.66076434,-9.769971,0.044908904000000006,1001.6349,0,0
83.76,-0.64640826,-9.765203,0.06384808,1001.6349,0,0
83.8,-0.6368295999999999,-9.851004,-0.0024318583,1001.627,0,0
83.84,-0.58423275,-9.82717,-0.0071645305,1001.6399,0,0
83.88,-0.58421373,-9.817638,0.07332212,1001.64746,0,0
83.92,-0.6272129,-9.827171,0.0212454,1001.6427,0,0
83.96,-0.5793959,-9.870071,-0.035565715,1001.64996,0,0
84.0,-0.5602576,-9.831939,0.002311267,1001.6401,0,0
84.04,-0.6701753,-9.808107,-0.11131282,1001.6047,0,0
84.08,-0.5841198000000001,-9.827173,-0.07343584,1001.6349,0,0
84.12,-0.5219645,-9.784275,-0.040293377000000005,1001.59216,0,0
84.16,-0.6175427,-9.827174,-0.021354094,1001.62726,0,0
84.2,-0.6175225000000001,-9.855774,0.0070541576,1001.6249,0,0
84.24,-0.6222833000000001,-9.951106,-0.049756925999999986,1001.62256,0,0
84.28,-0.5840258,-9.7795105,0.054401696,1001.65515,0,0
84.32,-0.5887878000000001,-9.812877,-0.02608155,1001.632,0,0
84.36,-0.61744636,-9.841476,0.021264337,1001.6223,0,0
84.4,-0.6269893,-9.798577,-0.00240615,1001.6401,0,0
84.44,-0.6221905,-9.851011,0.030736424,1001.63763,0,0
84.48,-0.57915443,-9.836712,0.07808209,1001.65533,0,0
84.52,-0.64605147,-9.798579,0.0118022915,1001.605,0,0
84.56,-0.6316941999999999,-9.808113,0.054413565,1001.6452,0,0
84.6,-0.63645494,-9.793815,-0.0071319602,1001.6555,0,0
84.64,-0.5790783,-9.779514,0.040213842,1001.64514,0,0
84.68,-0.5503805,-9.860547,0.059153188,1001.63007,0,0
84.72,-0.5703276999999999,-9.755662,0.078015,1001.6479,0,0
84.76,-0.6659390000000001,-9.8748255,0.068544805,1001.6303,0,0
84.8,-0.6563945999999999,-9.827159,0.11115305,1001.6279,0,0
84.84,-0.57993203,-9.793794,0.059073288,1001.6477,0,0
84.88,-0.64208376,-9.870058,0.14902568,1001.6073,0,0
84.92,-0.6277615,-9.850991,0.06853923,1001.6076,0,0
84.96,-0.6182161,-9.793793,0.12535077,1001.62006,0,0
85.0,-0.66602844,-9.779491,0.07327102,1001.6505,0,0
85.04,-0.6756042,-9.774725,0.12534802,1001.6427,0,0
85.08,-0.7138569,-9.812858,0.18689397,1001.64545,0,0
85.12,-0.670854,-9.879588,0.09220447,1001.6304,0,0
85.16,-0.6278509,-9.841455,0.14901593,1001.66077,0,0
85.2,-0.54660946,-9.884355,0.16795217,1001.6276,0,0
85.24,-0.41278923,-9.817622,0.20582607,1001.66583,0,0
85.28,-0.62789464,-9.808089,0.16321513,1001.6354,0,0
85.32,-0.71872616,-9.846221,0.2105578,1001.63544,0,0
85.36,-0.8764759,-9.831921,0.22475952,1001.63324,0,0
85.4,-1.048562,-9.760423,0.36205605,1001.6407,0,0
85.44,-1.2875675,-9.793788,0.46621156,1001.6203,0,0
85.48,-0.8048225,-9.765187,0.39519408,1001.6307,0,0
85.52,-0.66144454,-9.865285,0.2957701,1001.65826,0,0
85.56,-0.7522751,-9.932016,0.16320547,1001.6101,0,0
85.6,-0.6280145,-9.760421,0.32417393,1001.6558,0,0
85.64,-0.85268044,-9.750886,0.39992303,1001.62286,0,0
85.68,-0.9626321,-9.78902,0.30996788,1001.65326,0,0
85.72,-0.81415904,-9.81286,0.27212,1001.6279,0,0
85.76,-0.8237211999999999,-9.793794,0.19163488,1001.6609,0,0
85.8,-0.8380629,-9.874824,0.18690027,1001.6684,0,0
85.84,-0.86674434,-9.850991,0.17269681,1001.6432,0,0
85.88,-0.6898941,-9.74136,0.1963686,1001.6433,0,0
85.92,-0.6898964,-9.870057,0.15375873,1001.6282,0,0
85.96,-0.7376971,-9.850991,0.14902408,1001.62286,0,0
86.0,-0.71858025,-9.779492,0.2531808,1001.65356,0,0
86.04,-0.7902799,-9.817625,0.1963677,1001.63544,0,0
86.08,-0.81896126,-9.860524,0.14902341,1001.6714,0,0
86.12,-0.809404,-9.789026,0.1442888,1001.6232,0,0
86.16,-0.75204897,-9.831924,0.05433487,1001.6511,0,0
86.2,-0.7090331999999999,-9.831924,0.12061632,1001.6433,0,0
86.24,-0.69469625,-9.846225,0.15375692,1001.65356,0,0
86.28,-0.76161605,-9.860524,0.08274059,1001.6259,0,0
86.32,-0.8572146,-9.808092,0.13955325,1001.6385,0,0
86.36,-0.71860284,-9.798558,0.10641219,1001.6508,0,0
86.4,-0.7759629,-9.765192,0.14902158,1001.6485,0,0
86.44,-0.58955306,-9.755659,0.08273971,1001.6488,0,0
86.48,-0.6230142,-9.803325,0.15848994,1001.6408,0,0
86.52,-0.65647525,-9.889122,0.08273923400000001,1001.6458,0,0
86.56,-0.6421382,-9.779491,0.17742713,1001.64355,0,0
86.6,-0.7042782,-9.860523,0.12534845,1001.63074,0,0
86.64,-0.71861994,-9.846224,0.073269784,1001.65137,0,0
86.68,-0.7234025,-9.889122,0.11114475,1001.63605,0,0
86.72,-0.7572392,-9.779482000000002,0.15845420000000002,1001.6868,0,0
86.76,-0.728577,-9.831914,0.16792148,1001.63354,0,0
86.8,-0.8002929,-9.812847,0.24367024,1001.65125,0,0
86.84,-0.75251275,-9.812847,0.21526217,1001.6492,0,0
86.88,-0.69995147,-9.812846,0.28627673,1001.63605,0,0
86.92,-0.7190896,-9.77948,0.25313416,1001.63635,0,0
86.96,-0.74300414,-9.75088,0.24366395,1001.6411,0,0
87.0,-0.8242796999999998,-9.860511,0.30047506,1001.64606,0,0
87.04,-0.86731344,-9.812845,0.30520806,1001.6492,0,0
87.08,-0.71915835,-9.769945,0.30994076,1001.65643,0,0
87.12,-0.6283586999999999,-9.760412,0.28626716,1001.64606,0,0
87.16,-0.62837654,-9.80331,0.21998389,1001.6542,0,0
87.2,-0.73355,-9.831909,0.23891987,1001.6214,0,0
87.24,-0.6714303,-9.7937765,0.22471504,1001.6263,0,0
87.28,-0.61886907,-9.78901,0.3762145,1001.63385,0,0
87.32,-0.6858052,-9.84144,0.31939986,1001.6388,0,0
87.36,-0.73361987,-9.808075,0.28152314,1001.63885,0,0
87.4,-0.628482,-9.846207,0.31939673,1001.64386,0,0
87.44,-0.56158245,-9.808074,0.28151986,1001.63916,0,0
87.48,-0.59983754,-9.808074,0.3099248,1001.6288,0,0
87.52,-0.6811108,-9.846206,0.29098564,1001.6216,0,0
87.56,-0.77194476,-9.8128395,0.32412484,1001.6441,0,0
87.6,-0.8962375,-9.817605,0.38093606,1001.61664,0,0
87.64,-0.7958794,-9.831904,0.328856,1001.6215,0,0
