Timestamp,Ax,Ay,Az,P,Value,Type
0.0,2.7789738,6.338495,7.0907009999999975,1001.3718,0,0
0.04,3.1469972,6.4052277,8.368989,1001.3972,0,0
0.08,2.8554077,6.638789,6.8681803,1001.3464,0,0
0.12,2.2626917,6.5911240000000015,6.0775332,1001.35913,0,0
0.16,1.6747526999999998,6.019138,7.1664443,1001.34656,0,0
0.2,1.5265574,5.8999742999999985,7.081223,1001.3464,0,0
0.24,1.6651513999999998,5.9619403,6.9675949999999975,1001.32623,0,0
0.28,1.4261384,5.642582,6.820827,1001.35144,0,0
0.32,1.8085037,5.6616480000000005,6.5414949999999985,1001.3541,0,0
0.36,1.6364067,5.2803245,6.36632,1001.3389,0,0
0.4,1.5312321000000002,4.9180660000000005,6.210083,1001.32117,0,0
0.44,1.4595135,4.6225405,6.333175700000001,1001.3565,0,0
0.48,1.3925734,4.188784,6.4420642999999975,1001.3668,0,0
0.52,1.7988352,4.3317814000000014,7.474162599999999,1001.35144,0,0
0.56,1.9661094,3.6024988,7.734553,1001.3693,0,0
0.6,2.568342,3.7025971,6.565153,1001.3844,0,0
0.64,3.2948518,3.5882,8.065958,1001.36426,0,0
0.68,2.300631,2.9351823,8.378427,1001.39465,0,0
0.72,2.29583,2.5872245,6.70718,1001.3489,0,0
0.76,2.5778167,2.7778873,6.6124899999999975,1001.36163,0,0
0.8,4.5614147,3.0924804,8.733500999999999,1001.45825,0,0
0.84,4.3558655,1.3002557,10.385806,1001.4429,0,0
0.88,5.077969,1.0905184,9.888726,1001.4201,0,0
0.92,4.595203,-0.25365055,9.566787,1001.3921,0,0
0.96,6.335045,0.42320073,9.088611,1001.35913,0,0
1.0,5.011033,-2.1602728,8.170136,1001.3693,0,0
1.04,6.688740299999999,-1.4834216999999998,9.107548,1001.4226,0,0
1.08,6.0386805999999975,-4.7389800000000015,9.008125,1001.3565,0,0
1.12,9.265042,-3.3900442,9.642534,1001.3261,0,0
1.16,9.924649,-2.5177639,7.190111999999999,1001.29565,0,0
1.2,11.401602,-0.78750384,8.331103,1001.3464,0,0
1.24,9.819481,-2.1269062,8.283758,1001.37177,0,0
1.28,9.704759,-1.5692188,7.3463454,1001.3692,0,0
1.32,8.80137,-1.9743757,7.299001,1001.36414,0,0
1.36,8.610171000000001,-2.1316721000000003,5.2963476,1001.3921,0,0
1.4,9.030787,-1.2879915000000002,2.877066,1001.4911,0,0
1.44,7.893186999999997,-2.541596,5.4194407,1001.4937,0,0
1.48,7.424761,-2.3318672,5.206392,1001.5063,0,0
1.52,8.954292,-2.1888702,6.8018856,1001.51904,0,0
1.56,9.652138,-1.8266118,9.443682,1001.4175,0,0
1.6,8.151273,-0.5920734999999999,4.8465753,1001.36163,0,0
1.64,6.836819599999999,-1.3451892,6.2006145,1001.3414,0,0
1.68,4.915333,-0.5539408,3.2700174,1001.44293,0,0
1.72,6.5978174,-1.0830283,2.9054675,1001.3971,0,0
1.76,10.024931,-0.82086766,4.358929,1001.4022,0,0
1.8,11.35371,-1.0258294,3.3410316,1001.47046,0,0
1.84,8.3615465,-1.0973276,1.2768307,1001.4248,0,0
1.88,10.870717,-3.7093952,2.7444754,1001.30585,0,0
1.92,7.620435,-3.661729,0.003253743,1001.4632,0,0
1.96,12.572296,-1.9553015,-0.7353148,1001.35144,0,0
2.0,7.606065299999999,-5.3300233,2.11953,1001.0618,0,0
2.04,5.6606708,-4.481576,1.0306154,1001.18115,0,0
2.08,11.253027,-5.3157234,0.04585798,1001.3032,0,0
2.12,7.027664,-6.488296,0.041122098,1001.3844,0,0
2.16,6.6500444000000005,-6.9649515,-0.44652298,1001.4074,0,0
2.2,5.7418666,-6.593159,0.9169842,1001.3159,0,0
2.24,4.714195,-7.374874,1.5182521,1001.3439,0,0
2.28,3.6387236000000014,-7.4273057,0.064788654,1001.3642,0,0
2.32,2.792684,-8.209022000000001,-0.025166377,1001.52655,0,0
2.36,4.3795624,-10.210976,0.41986623,1001.5724,0,0
2.4,6.6164975,-11.502711,-0.70218897,1001.509,0,0
2.44,2.725721,-12.322558,-0.05831137,1001.45825,0,0
2.48,3.5143745,-8.599877000000001,1.0258659,1001.387,0,0
2.52,2.1425545,-9.715252,0.13106205,1001.38464,0,0
2.56,1.6980183,-9.443558,0.14526394,1001.4096,0,0
2.6,1.3729755,-8.499779,-0.27609956,1001.3918,0,0
2.64,0.24492763,-4.20511,0.21627723,1001.4044,0,0
2.68,-2.8715196,-11.478875,-1.0194038,1001.3969,0,0
2.72,-2.4556918,-5.482547,2.3941004,1001.39435,0,0
2.76,9.474684,-13.733457,-3.329796,1001.3588,0,0
2.8,-4.6496515,-26.040707,2.0532207,1001.42523,0,0
2.84,-6.1457453,-5.8305044000000015,-0.7211418,1001.3592,0,0
2.88,-1.0163696,-9.648533,1.5088218,1001.30804,0,0
2.92,-2.1252720000000003,-9.653299,-1.0051458,1001.3562,0,0
2.96,-2.1300411,-9.91546,0.5856150999999999,1001.3816,0,0
3.0,-2.5888906000000005,-7.074592599999999,1.6461228,1001.407,0,0
3.04,-0.9637461,-10.106123,0.8980879,1001.4045,0,0
3.08,-3.2580402000000004,-8.752421,-0.039323132,1001.3791,0,0
3.12,-2.3928852000000003,-8.652324,0.3915087,1001.3893,0,0
3.16,-0.85855687,-10.344452,1.1679521000000002,1001.38666,0,0
3.2,-2.0678358,-9.319642,2.9954333,1001.41455,0,0
3.24,0.09742603,-10.296786,-1.6821575,1001.4781,0,0
3.28,-0.8919812,-9.39114,1.6555988999999998,1001.41974,0,0
3.32,0.035310686,-9.872563,-0.09139551,1001.4604,0,0
3.36,-0.10329221,-10.039393,0.23054506,1001.48566,0,0
3.4,0.27432376,-9.948829,0.24001491,1001.4705,0,0
3.44,0.72363746,-9.634236,0.91230154,1001.45776,0,0
3.48,0.38428277,-10.191924,-0.07245366,1001.4122,0,0
3.52,-0.055447787000000005,-9.839198,0.96438205,1001.3893,0,0
3.56,-0.25140905,-9.877332,0.5051457,1001.37396,0,0
3.6,-0.13190253,-9.639005,0.77500784,1001.374,0,0
3.64,0.16923584,-10.139492,0.50514776,1001.4096,0,0
3.68,0.25528443,-9.510307,1.1632311000000002,1001.3969,0,0
3.72,-0.27048331,-9.97743,0.44833702,1001.3969,0,0
3.76,0.111912444,-9.920232,0.61404216,1001.4474,0,0
3.8,-0.52378935,-9.748635,1.8591917,1001.42706,0,0
3.84,-0.09837614,-10.082295,-0.6074321,1001.4122,0,0
3.88,-0.13248764,-9.367296,0.9501273,1001.43976,0,0
3.92,-0.12772216,-9.967881,0.5619048000000001,1001.422,0,0
3.96,-0.14207587,-9.772452,0.32518324,1001.4702,0,0
4.0,0.14947604,-9.963114,1.1631714,1001.4854,0,0
4.04,-0.41455507,-9.7009535,0.64238554,1001.55396,0,0
4.08,-0.83997184,-9.686654,-0.006229181,1001.64276,0,0
4.12,-0.24729243,-9.739085,0.112129465,1001.64526,0,0
4.16,-0.30944502,-9.901148,0.4435364000000001,1001.5259,0,0
4.2,-0.8256790999999999,-9.691419,0.26836202,1001.43463,0,0
4.24,-0.070481494,-9.839181,0.10265681,1001.41187,0,0
4.28,0.33578473,-9.972645,-0.19087784,1001.4117,0,0
4.32,0.22105323,-10.139474,0.18787304,1001.34076,0,0
4.36,-0.27606064,-9.996477,0.15473092,1001.3357,0,0
4.4,-0.87355125,-9.891613,0.10738549,1001.32043,0,0
4.44,-1.3133057,-9.705716,0.6234344,1001.44214,0,0
4.48,-0.8592395,-9.753382,-0.20508778,1001.5311,0,0
4.52,-0.61070776,-9.562717999999998,-0.24769904,1001.43976,0,0
4.56,-0.63462204,-10.034607,0.17839596,1001.4524,0,0
4.6,-0.5438162,-10.039374,-0.7684859,1001.48804,0,0
4.64,-1.04571,-9.79628,0.3630355,1001.4829,0,0
4.68,-0.7541609,-9.872543,0.17839195,1001.42706,0,0
4.72,-0.5964435,-9.810578,0.045827143,1001.455,0,0
4.76,-0.5390963000000001,-9.882076,0.20206156,1001.42706,0,0
4.8,-0.41005772,-9.958341,0.25413850000000004,1001.4398,0,0
4.84,-0.78767663,-9.772446,-0.015723858,1001.38385,0,0
4.88,-0.6254589,-9.972632,0.22570372,1001.3561,0,0
4.92,-0.33391914,-9.796269,-0.21933295,1001.3712,0,0
4.96,-0.7545685000000001,-9.772436,0.24937071,1001.46,0,0
5.0,-0.3578714000000001,-9.8773,0.04105448,1001.52606,0,0
5.04,-0.24318111,-9.748602,-0.2193401,1001.4879,0,0
5.08,-0.41528064,-9.901131,0.11206582,1001.48285,0,0
5.12,-0.252794,-9.953563,0.0031720772,1001.422,0,0
5.16,-0.20980239,-9.953562,0.41979727,1001.42444,0,0
5.2,-0.41058075,-9.6771,0.26829390000000003,1001.2848,0,0
5.24,-0.60657775,-9.877296,0.4624022,1001.41693,0,0
5.28,-0.57792556,-9.862995,0.18780424,1001.4527,0,0
5.32,-0.80260295,-9.843928,-0.020511985,1001.4727,0,0
5.36,-0.654454,-9.867761,0.4529262,1001.33575,0,0
5.4,-1.051206,-9.815328,0.67544067,1001.26965,0,0
5.44,-1.0321119,-9.729529,0.21620107,1001.1352,0,0
5.48,-1.3667247,-9.7819605,0.5144661,1001.2468,0,0
5.52,-0.9556865,-9.734294,0.6280896,1001.3078,0,0
5.56,-0.69760543,-9.853457,0.6422901999999999,1001.3512,0,0
5.6,-0.85058415,-9.977387,-0.20043616,1001.40924,0,0
5.64,-0.6211802,-9.600829,0.09782894,1001.41437,0,0
5.68,-0.7311406,-9.734291,0.8742690000000001,1001.3715,0,0
5.72,-1.0561957,-9.877288,0.31087226,1001.48315,0,0
5.76,-0.7598744000000001,-9.815322,0.12149362,1001.4652,0,0
5.8,-1.0227885,-9.734289,1.0115594,1001.33344,0,0
5.84,-0.5496146,-9.781954,-0.020543233,1001.3459,0,0
5.88,-0.92705595,-9.810558,0.8695398000000001,1001.36896,0,0
5.92,-1.610587,-9.9154215,-0.26671907,1001.47284,0,0
5.96,0.11968292,-9.662794,1.1299285,1001.48065,0,0
6.0,-1.1326435,-9.82009,0.8600658999999999,1001.4094,0,0
6.04,2.7789738,6.338495,7.0907009999999975,1001.3718,0,0
6.08,3.1469972,6.4052277,8.368989,1001.3972,0,0
6.12,2.8554077,6.638789,6.8681803,1001.3464,0,0
6.16,2.2626917,6.5911240000000015,6.0775332,1001.35913,0,0
6.2,1.6747526999999998,6.019138,7.1664443,1001.34656,0,0
6.24,1.5265574,5.8999742999999985,7.081223,1001.3464,0,0
6.28,1.6651513999999998,5.9619403,6.9675949999999975,1001.32623,0,0
6.32,1.4261384,5.642582,6.820827,1001.35144,0,0
6.36,1.8085037,5.6616480000000005,6.5414949999999985,1001.3541,0,0
6.4,1.6364067,5.2803245,6.36632,1001.3389,0,0
6.44,1.5312321000000002,4.9180660000000005,6.210083,1001.32117,0,0
6.48,1.4595135,4.6225405,6.333175700000001,1001.3565,0,0
6.52,1.3925734,4.188784,6.4420642999999975,1001.3668,0,0
6.56,1.7988352,4.3317814000000014,7.474162599999999,1001.35144,0,0
6.6,1.9661094,3.6024988,7.734553,1001.3693,0,0
6.64,2.568342,3.7025971,6.565153,1001.3844,0,0
6.68,3.2948518,3.5882,8.065958,1001.36426,0,0
6.72,2.300631,2.9351823,8.378427,1001.39465,0,0
6.76,2.29583,2.5872245,6.70718,1001.3489,0,0
6.8,2.5778167,2.7778873,6.6124899999999975,1001.36163,0,0
6.84,4.5614147,3.0924804,8.733500999999999,1001.45825,0,0
6.88,4.3558655,1.3002557,10.385806,1001.4429,0,0
6.92,5.077969,1.0905184,9.888726,1001.4201,0,0
6.96,4.595203,-0.25365055,9.566787,1001.3921,0,0
7.0,6.335045,0.42320073,9.088611,1001.35913,0,0
7.04,5.011033,-2.1602728,8.170136,1001.3693,0,0
7.08,6.688740299999999,-1.4834216999999998,9.107548,1001.4226,0,0
7.12,6.0386805999999975,-4.7389800000000015,9.008125,1001.3565,0,0
7.16,9.265042,-3.3900442,9.642534,1001.3261,0,0
7.2,9.924649,-2.5177639,7.190111999999999,1001.29565,0,0
7.24,11.401602,-0.78750384,8.331103,1001.3464,0,0
7.28,9.819481,-2.1269062,8.283758,1001.37177,0,0
7.32,9.704759,-1.5692188,7.3463454,1001.3692,0,0
7.36,8.80137,-1.9743757,7.299001,1001.36414,0,0
7.4,8.610171000000001,-2.1316721000000003,5.2963476,1001.3921,0,0
7.44,9.030787,-1.2879915000000002,2.877066,1001.4911,0,0
7.48,7.893186999999997,-2.541596,5.4194407,1001.4937,0,0
7.52,7.424761,-2.3318672,5.206392,1001.5063,0,0
7.56,8.954292,-2.1888702,6.8018856,1001.51904,0,0
7.6,9.652138,-1.8266118,9.443682,1001.4175,0,0
7.64,8.151273,-0.5920734999999999,4.8465753,1001.36163,0,0
7.68,6.836819599999999,-1.3451892,6.2006145,1001.3414,0,0
7.72,4.915333,-0.5539408,3.2700174,1001.44293,0,0
7.76,6.5978174,-1.0830283,2.9054675,1001.3971,0,0
7.8,10.024931,-0.82086766,4.358929,1001.4022,0,0
7.84,11.35371,-1.0258294,3.3410316,1001.47046,0,0
7.88,8.3615465,-1.0973276,1.2768307,1001.4248,0,0
7.92,10.870717,-3.7093952,2.7444754,1001.30585,0,0
7.96,7.620435,-3.661729,0.003253743,1001.4632,0,0
8.0,12.572296,-1.9553015,-0.7353148,1001.35144,0,0
8.04,7.606065299999999,-5.3300233,2.11953,1001.0618,0,0
8.08,5.6606708,-4.481576,1.0306154,1001.18115,0,0
8.12,11.253027,-5.3157234,0.04585798,1001.3032,0,0
8.16,7.027664,-6.488296,0.041122098,1001.3844,0,0
8.2,6.6500444000000005,-6.9649515,-0.44652298,1001.4074,0,0
8.24,5.7418666,-6.593159,0.9169842,1001.3159,0,0
8.28,4.714195,-7.374874,1.5182521,1001.3439,0,0
8.32,3.6387236000000014,-7.4273057,0.064788654,1001.3642,0,0
8.36,2.792684,-8.209022000000001,-0.025166377,1001.52655,0,0
8.4,4.3795624,-10.210976,0.41986623,1001.5724,0,0
8.44,6.6164975,-11.502711,-0.70218897,1001.509,0,0
8.48,2.725721,-12.322558,-0.05831137,1001.45825,0,0
8.52,3.5143745,-8.599877000000001,1.0258659,1001.387,0,0
8.56,2.1425545,-9.715252,0.13106205,1001.38464,0,0
8.6,1.6980183,-9.443558,0.14526394,1001.4096,0,0
8.64,1.3729755,-8.499779,-0.27609956,1001.3918,0,0
8.68,0.24492763,-4.20511,0.21627723,1001.4044,0,0
8.72,-2.8715196,-11.478875,-1.0194038,1001.3969,0,0
8.76,-2.4556918,-5.482547,2.3941004,1001.39435,0,0
8.8,9.474684,-13.733457,-3.329796,1001.3588,0,0
8.84,-4.6496515,-26.040707,2.0532207,1001.42523,0,0
8.88,-6.1457453,-5.8305044000000015,-0.7211418,1001.3592,0,0
8.92,-1.0163696,-9.648533,1.5088218,1001.30804,0,0
8.96,-2.1252720000000003,-9.653299,-1.0051458,1001.3562,0,0
9.0,-2.1300411,-9.91546,0.5856150999999999,1001.3816,0,0
9.04,-2.5888906000000005,-7.074592599999999,1.6461228,1001.407,0,0
9.08,-0.9637461,-10.106123,0.8980879,1001.4045,0,0
9.12,-3.2580402000000004,-8.752421,-0.039323132,1001.3791,0,0
9.16,-2.3928852000000003,-8.652324,0.3915087,1001.3893,0,0
9.2,-0.85855687,-10.344452,1.1679521000000002,1001.38666,0,0
9.24,-2.0678358,-9.319642,2.9954333,1001.41455,0,0
9.28,0.09742603,-10.296786,-1.6821575,1001.4781,0,0
9.32,-0.8919812,-9.39114,1.6555988999999998,1001.41974,0,0
9.36,0.035310686,-9.872563,-0.09139551,1001.4604,0,0
9.4,-0.10329221,-10.039393,0.23054506,1001.48566,0,0
9.44,0.27432376,-9.948829,0.24001491,1001.4705,0,0
9.48,0.72363746,-9.634236,0.91230154,1001.45776,0,0
9.52,0.38428277,-10.191924,-0.07245366,1001.4122,0,0
9.56,-0.055447787000000005,-9.839198,0.96438205,1001.3893,0,0
9.6,-0.25140905,-9.877332,0.5051457,1001.37396,0,0
9.64,-0.13190253,-9.639005,0.77500784,1001.374,0,0
9.68,0.16923584,-10.139492,0.50514776,1001.4096,0,0
9.72,0.25528443,-9.510307,1.1632311000000002,1001.3969,0,0
9.76,-0.27048331,-9.97743,0.44833702,1001.3969,0,0
9.8,0.111912444,-9.920232,0.61404216,1001.4474,0,0
9.84,-0.52378935,-9.748635,1.8591917,1001.42706,0,0
9.88,-0.09837614,-10.082295,-0.6074321,1001.4122,0,0
9.92,-0.13248764,-9.367296,0.9501273,1001.43976,0,0
9.96,-0.12772216,-9.967881,0.5619048000000001,1001.422,0,0
10.0,-0.14207587,-9.772452,0.32518324,1001.4702,0,0
10.04,0.14947604,-9.963114,1.1631714,1001.4854,0,0
10.08,-0.41455507,-9.7009535,0.64238554,1001.55396,0,0
10.12,-0.83997184,-9.686654,-0.006229181,1001.64276,0,0
10.16,-0.24729243,-9.739085,0.112129465,1001.64526,0,0
10.2,-0.30944502,-9.901148,0.4435364000000001,1001.5259,0,0
10.24,-0.8256790999999999,-9.691419,0.26836202,1001.43463,0,0
10.28,-0.070481494,-9.839181,0.10265681,1001.41187,0,0
10.32,0.33578473,-9.972645,-0.19087784,1001.4117,0,0
10.36,0.22105323,-10.139474,0.18787304,1001.34076,0,0
10.4,-0.27606064,-9.996477,0.15473092,1001.3357,0,0
10.44,-0.87355125,-9.891613,0.10738549,1001.32043,0,0
10.48,-1.3133057,-9.705716,0.6234344,1001.44214,0,0
10.52,-0.8592395,-9.753382,-0.20508778,1001.5311,0,0
10.56,-0.61070776,-9.562717999999998,-0.24769904,1001.43976,0,0
10.6,-0.63462204,-10.034607,0.17839596,1001.4524,0,0
10.64,-0.5438162,-10.039374,-0.7684859,1001.48804,0,0
10.68,-1.04571,-9.79628,0.3630355,1001.4829,0,0
10.72,-0.7541609,-9.872543,0.17839195,1001.42706,0,0
10.76,-0.5964435,-9.810578,0.045827143,1001.455,0,0
10.8,-0.5390963000000001,-9.882076,0.20206156,1001.42706,0,0
10.84,-0.41005772,-9.958341,0.25413850000000004,1001.4398,0,0
10.88,-0.78767663,-9.772446,-0.015723858,1001.38385,0,0
10.92,-0.6254589,-9.972632,0.22570372,1001.3561,0,0
10.96,-0.33391914,-9.796269,-0.21933295,1001.3712,0,0
11.0,-0.7545685000000001,-9.772436,0.24937071,1001.46,0,0
11.04,-0.3578714000000001,-9.8773,0.04105448,1001.52606,0,0
11.08,-0.24318111,-9.748602,-0.2193401,1001.4879,0,0
11.12,-0.41528064,-9.901131,0.11206582,1001.48285,0,0
11.16,-0.252794,-9.953563,0.0031720772,1001.422,0,0
11.2,-0.20980239,-9.953562,0.41979727,1001.42444,0,0
11.24,-0.41058075,-9.6771,0.26829390000000003,1001.2848,0,0
11.28,-0.60657775,-9.877296,0.4624022,1001.41693,0,0
11.32,-0.57792556,-9.862995,0.18780424,1001.4527,0,0
11.36,-0.80260295,-9.843928,-0.020511985,1001.4727,0,0
11.4,-0.654454,-9.867761,0.4529262,1001.33575,0,0
11.44,-1.051206,-9.815328,0.67544067,1001.26965,0,0
11.48,-1.0321119,-9.729529,0.21620107,1001.1352,0,0
11.52,-1.3667247,-9.7819605,0.5144661,1001.2468,0,0
11.56,-0.9556865,-9.734294,0.6280896,1001.3078,0,0
11.6,-0.69760543,-9.853457,0.6422901999999999,1001.3512,0,0
11.64,-0.85058415,-9.977387,-0.20043616,1001.40924,0,0
11.68,-0.6211802,-9.600829,0.09782894,1001.41437,0,0
11.72,-0.7311406,-9.734291,0.8742690000000001,1001.3715,0,0
11.76,-1.0561957,-9.877288,0.31087226,1001.48315,0,0
11.8,-0.7598744000000001,-9.815322,0.12149362,1001.4652,0,0
11.84,-1.0227885,-9.734289,1.0115594,1001.33344,0,0
11.88,-0.5496146,-9.781954,-0.020543233,1001.3459,0,0
11.92,-0.92705595,-9.810558,0.8695398000000001,1001.36896,0,0
11.96,-1.610587,-9.9154215,-0.26671907,1001.47284,0,0
12.0,0.11968292,-9.662794,1.1299285,1001.48065,0,0
12.04,-1.1326435,-9.82009,0.8600658999999999,1001.4094,0,0
12.08,-0.95103,-9.758124,0.8079856,1001.41455,0,0
12.12,-0.82199544,-9.781956,0.5949356,1001.3969,0,0
12.16,-0.8937103999999999,-9.729525,0.49077708,1001.3663,0,0
12.2,-0.80769414,-9.634192,0.31560224,1001.38666,0,0
12.24,-0.5973994,-9.796255,0.7464314999999999,1001.4527,0,0
12.28,0.38244134,-9.882052,0.91213405,1001.4273,0,0
12.32,-0.46838284,-9.824853,0.5191766,1001.4071,0,0
12.36,-0.4731816,-9.767653,0.27772027,1001.42737,0,0
12.4,-0.32502675,-9.748588,0.53337634,1001.42224,0,0
12.44,-0.54013693,-9.801019,0.9310646,1001.44763,0,0
12.48,-0.69310975,-9.75812,0.8127028000000001,1001.4044,0,0
12.52,-0.59753263,-9.686621,0.79849786,1001.42505,0,0
12.56,-0.3920189,-9.781952,0.9026531,1001.4552,0,0
12.6,-0.26298330000000003,-9.786717,0.8884481,1001.45013,0,0
12.64,-0.83179885,-9.729519,0.7606175000000001,1001.4429,0,0
12.68,-0.20088388,-9.648486,1.0257424000000002,1001.4048,0,0
12.72,-0.51636994,-9.777183,1.125163,1001.4175,0,0
12.76,-0.42079055,-9.729517,1.2671938,1001.4047,0,0
12.8,-0.5833241,-9.7247505,0.99259645,1001.39734,0,0
12.84,-0.4256096,-9.777182,1.1582989,1001.3768,0,0
12.88,-0.59292173,-9.786715,1.2435163,1001.4074,0,0
12.92,-0.34300408,-9.920211,1.1536878000000002,1001.38715,0,0
12.96,-0.5819575,-10.001244,1.3951459,1001.41254,0,0
13.0,-0.24733447,-9.824882,1.5040405,1001.38995,0,0
13.04,-0.6822621,-9.624688,1.6839511000000005,1001.443,0,0
13.08,-0.5053726,-9.615155,2.1905358,1001.4204,0,0
13.12,-0.19465084,-9.691421,1.9017402,1001.3849,0,0
13.16,-0.07033687,-9.610391,1.7028987000000002,1001.40515,0,0
13.2,-0.26149225,-9.743855,1.0542887,1001.405,0,0
13.24,-0.21843952,-9.648525,2.1858149,1001.39246,0,0
13.28,-0.13714606,-9.748623,1.1016393999999998,1001.42804,0,0
13.32,-0.22314802,-9.815356,1.7313182,1001.4382,0,0
13.36,0.13059653,-9.658061,1.9112293,1001.4458,0,0
13.4,0.13063331,-9.658062,1.5135425,1001.45856,0,0
13.44,0.2501629,-9.662829,1.527749,1001.43066,0,0
13.48,0.37925208,-9.629464,1.5987681,1001.4229,0,0
13.52,0.12595932,-9.710496,1.7834134,1001.43066,0,0
13.56,0.36976838,-9.886859,1.6224473,1001.4153,0,0
13.6,0.37936473,-9.920226,1.5609033,1001.3827,0,0
13.64,0.020916238,-9.920227,1.3715304,1001.3827,0,0
13.68,0.083088174,-9.843964,1.7976301,1001.38513,0,0
13.72,0.083124965,-9.605637,1.5183034,1001.37256,0,0
13.76,0.20265685,-9.3768425,1.9159968,1001.37006,0,0
13.8,0.21225096,-9.777234,1.9538753,1001.39526,0,0
13.84,-0.06972303,-9.734336,1.9160032,1001.37744,0,0
13.88,0.25056297,-9.448343,1.7408338,1001.37744,0,0
13.92,0.06311338,-9.80581,1.8401613,1001.38007,0,0
13.96,-0.22846138,-9.786744,1.6933942,1001.3902,0,0
14.0,-0.28582537,-9.696179,1.4992831,1001.41583,0,0
14.04,0.058314547,-9.672346,1.6555179,1001.41296,0,0
14.08,0.06308924,-9.801043,1.253093,1001.398,0,0
14.12,-0.4483558,-9.853475,1.6507823,1001.40826,0,0
14.16,-0.20459327,-9.667579,1.4519367,1001.4031,0,0
14.2,-0.099443965,-9.619913,1.4377329,1001.388,0,0
14.24,-0.013412252,-9.753377,1.3998573,1001.3752,0,0
14.28,-0.12335567,-9.834409,1.3099028,1001.40076,0,0
14.32,-0.01342611,-9.648513,1.5750289,1001.3957,0,0
14.36,-0.17594576,-9.72001,1.5513563999999995,1001.40576,0,0
14.4,-0.13293387,-9.681878,1.565559,1001.41846,0,0
14.44,0.29246235,-8.909696,1.6697153000000002,1001.3957,0,0
14.48,0.5696846,-9.929738,1.5844954,1001.40607,0,0
14.52,0.115596905,-11.130911,0.91220945,1001.42615,0,0
14.56,-0.6348366999999999,-9.6961775,1.8354179,1001.454,0,0
14.6,-0.13774386,-9.553179,1.8543549,1001.3984,0,0
14.64,-0.6683084,-9.886839,2.0058553,1001.36285,0,0
14.68,-0.43888414,-9.572246,1.7123216,1001.3782,0,0
14.72,-0.5297079,-9.753375,1.6271017,1001.4239,0,0
14.76,-0.44367623,-9.705709,1.5229443,1001.39343,0,0
14.8,-0.21425317,-9.748607000000002,1.4708651,1001.4035,0,0
14.84,-0.3433122,-9.777206,1.5608186000000002,1001.373,0,0
14.88,-0.35765840000000004,-9.810573,1.7359909,1001.3808,0,0
14.92,-0.29405522,-9.677145,1.7645314,1001.3835,0,0
14.96,-0.60946566,-9.748645,1.7408645,1001.3909,0,0
15.0,-0.83885294,-9.500786,1.863963,1001.39606,0,0
15.04,-1.0156457,-9.605651,1.8592341,1001.42645,0,0
15.08,-0.75748307,-9.55322,1.9918023,1001.4013,0,0
15.12,-0.6905159000000001,-9.481723,1.7882276,1001.39606,0,0
15.16,-1.111082,-9.562756,1.5515125,1001.4214,0,0
15.2,-1.4264959,-9.772486,1.3147972,1001.3936,0,0
15.24,-1.2639358,-9.662856,1.262723,1001.3988,0,0
15.28,-0.977091,-9.610425,1.1964464,1001.3986,0,0
15.32,-0.96270156,-9.672392,0.9928716,1001.4088,0,0
15.36,-1.2398768999999998,-9.796323,1.2201278999999998,1001.39624,0,0
15.4,-1.1633502,-9.700994,1.040225,1001.41156,0,0
15.44,-1.2349906000000002,-9.767727,1.0639024,1001.4039,0,0
15.48,-1.4500318,-9.777261,0.95975,1001.4194,0,0
15.52,-1.2922484,-9.734364,1.0023642,1001.3991,0,0
15.56,-1.1679169,-9.715299,0.96449417,1001.40656,0,0
15.6,-1.3112544,-9.743899,0.9929058,1001.4293,0,0
15.64,-1.2873088,-9.681935,0.7893306999999999,1001.3989,0,0
15.68,-1.17732,-9.762967,0.841414,1001.4371,0,0
15.72,-1.1390281999999998,-9.72007,0.64257383,1001.4169,0,0
15.76,-1.1915494,-9.720072,0.7656736,1001.43463,0,0
15.8,-1.1389216,-9.810637,0.7041309,1001.42975,0,0
15.84,-0.97157854,-9.772506,0.5573689000000001,1001.39667,0,0
15.88,-0.8185715,-9.782041,0.59998345,1001.41943,0,0
15.92,-1.0097138,-9.853539,0.68047285,1001.4423,0,0
15.96,-1.2151889,-9.762976,0.56211793,1001.43475,0,0
16.0,-1.2963886999999998,-9.815411,0.7420305,1001.44006,0,0
16.04,-1.2389846000000002,-9.772512,0.9314109,1001.43463,0,0
16.08,-1.0333997,-9.615217,0.69469565,1001.44995,0,0
16.12,-1.1815203,-9.786815,0.6473564,1001.422,0,0
16.16,-1.2292684,-9.891681,0.7515179,1001.41693,0,0
16.2,-1.0858177,-9.7963505,0.56688124,1001.4448,0,0
16.24,-0.8993554,-9.734386,0.43432257,1001.4604,0,0
16.28,-0.85628057,-9.796353,0.65211034,1001.44763,0,0
16.32,-1.03308,-9.796354,0.28283164,1001.4501,0,0
16.36,-0.59328806,-9.777289,0.64738536,1001.4273,0,0
16.4,-0.7366323,-9.786823,0.34912246,1001.44006,0,0
16.44,-0.44022787,-9.791593,0.107673004,1001.4351,0,0
16.48,-0.64092636,-9.75346,0.46749264,1001.40717,0,0
16.52,-0.65521574,-9.7296295,0.5953261,1001.43005,0,0
16.56,-0.42859614,-9.734326,0.5856,1001.425,0,0
16.6,-0.4525125,-9.882091,0.26839334,1001.4604,0,0
16.64,0.19752242,-9.901155,0.59506553,1001.4301,0,0
16.68,-0.10840128,-9.924989,0.14529562,1001.4276,0,0
16.72,-0.16099752,-9.872555,0.2257788,1001.397,0,0
16.76,-0.16101262,-9.877322,0.3630752,1001.42255,0,0
16.8,-0.5625346,-9.886853,0.28258863,1001.4047,0,0
16.84,-0.70594597,-9.7867565,0.40568155,1001.4124,0,0
16.88,-0.92583203,-9.786756,0.38674256,1001.41003,0,0
16.92,-0.9736475,-9.829654,0.410413,1001.43756,0,0
16.96,-1.0597023,-9.820122,0.4340833,1001.4202,0,0
17.0,-1.0836188,-9.791521,0.35833126,1001.4152,0,0
17.04,-1.0788552,-9.815353,0.26837608,1001.43036,0,0
17.08,-0.9163591999999998,-9.82012,0.22103044,1001.4431,0,0
17.12,-0.9641755,-9.848719,0.2683728,1001.4406,0,0
17.16,-0.8877149999999999,-9.843951,0.23523049,1001.443,0,0
17.2,-0.8925120999999999,-9.791519,0.4340739000000001,1001.42535,0,0
17.24,-0.9403264,-9.82965,0.017444808,1001.4253,0,0
17.28,-0.8877658000000002,-9.772452,0.2210226,1001.43286,0,0
17.32,-0.80652654,-9.810584,0.23048984,1001.43036,0,0
17.36,-0.8065438,-9.848716,0.06478409,1001.45575,0,0
17.4,-0.7396428,-9.901148,0.06478261,1001.4633,0,0
17.44,-0.67274284,-9.853481,0.0316402,1001.4532,0,0
17.48,-0.6249610999999999,-9.791516,0.0127010625,1001.443,0,0
17.52,-0.71101487,-9.820115,0.2352165,1001.42554,0,0
17.56,-0.6135946,-9.853525,0.09335134,1001.4306,0,0
17.6,-0.5800849,-9.834461,0.08862162,1001.41284,0,0
17.64,-0.49399382,-9.796329,0.17858031,1001.42053,0,0
17.68,-0.48915946,-9.834464,0.06969399,1001.4331,0,0
17.72,-0.5130074,-9.877363,-0.006051801,1001.4306,0,0
17.76,-0.54163164,-9.863065,0.06023486,1001.42554,0,0
17.8,-0.5606963,-9.815401,0.06970866,1001.46356,0,0
17.84,-0.60845345,-9.824935,0.07444680000000001,1001.4663,0,0
17.88,-0.65618664,-9.83447,0.036577497,1001.45355,0,0
17.92,-0.6752479,-9.824938,0.0223796,1001.42316,0,0
17.96,-0.72300845,-9.872604,0.022383016,1001.4332,0,0
18.0,-0.69905496,-9.839239,0.13127933,1001.44354,0,0
18.04,-0.6511887,-9.848775,0.16442639,1001.45605,0,0
18.08,-0.6272350999999999,-9.844008,0.10288414,1001.4513,0,0
18.12,-0.58416235,-9.901209,0.08395151,1001.4334,0,0
18.16,-0.58889097,-9.810645,0.268598,1001.4081,0,0
18.2,-0.5888501,-9.805881,0.21178886,1001.43854,0,0
18.24,-0.5266444,-9.762982,0.25913915,1001.43097,0,0
18.28,-0.51225054,-9.834483,0.10764317,1001.4284,0,0
18.32,-0.41661352,-9.824951,0.20706944,1001.45386,0,0
18.36,-0.38786998,-9.791587,0.33016992,1001.4614,0,0
18.4,-0.4882049,-9.78682,0.26389197,1001.4309,0,0
18.44,-0.44034213,-9.796355,0.42486766,1001.4487,0,0
18.48,-0.38292995,-9.829722,0.31598133,1001.39825,0,0
18.52,-0.35016903,-9.886904,0.20702615,1001.38043,0,0
18.56,-0.39316773,-9.891672,0.26857522,1001.4211,0,0
18.6,-0.34534556,-9.863072,0.1454829,1001.406,0,0
18.64,-0.34532297,-9.844007,0.2022978,1001.39825,0,0
18.68,-0.4839117,-9.829708,0.25437862,1001.3984,0,0
18.72,-0.412192,-9.858308,0.21650544,1001.44385,0,0
18.76,-0.5173221,-9.877375,0.17863257,1001.406,0,0
18.8,-0.5937779000000001,-9.853542,0.33486986,1001.41864,0,0
18.84,-0.6654508000000001,-9.824944,0.25438717,1001.4086,0,0
18.88,-0.7944814,-9.853543,0.33487427,1001.4213,0,0
18.92,-0.8518150999999999,-9.767746,0.43429896,1001.41113,0,0
18.96,-0.76097465,-9.848779,0.32540986,1001.43396,0,0
19.0,-0.9043446,-9.772514,0.48638183,1001.4137,0,0
19.04,-0.82306534,-9.786814,0.46744627,1001.4035,0,0
19.08,-0.90907776,-9.834481,0.36802602,1001.42145,0,0
19.12,-0.91383505,-9.834481,0.46745056,1001.39343,0,0
19.16,-0.8707911,-9.8583145,0.4769217000000001,1001.4188,0,0
19.2,-0.93290585,-9.767751,0.5242678,1001.4087,0,0
19.24,-0.8946434999999999,-9.791584,0.52427006,1001.4112,0,0
19.28,-0.82770205,-9.748685,0.4769282,1001.39856,0,0
19.32,-0.7798815,-9.834485,0.50533664,1001.39374,0,0
19.36,-0.77985585,-9.801119,0.5148077999999999,1001.4036,0,0
19.4,-0.79895246,-9.767754,0.4864035,1001.4214,0,0
19.44,-0.8323870000000001,-9.80112,0.60950017,1001.4138,0,0
19.48,-0.67462933,-9.848786,0.43906385,1001.4165,0,0
19.52,-0.56944966,-9.805888,0.48641008,1001.40155,0,0
19.56,-0.703681,-9.7725115,0.500577,1001.40137,0,0
19.6,-0.674994,-9.824944,0.48637453,1001.4041,0,0
19.64,-0.53637254,-9.858311,0.33013982,1001.3988,0,0
19.68,-0.64152116,-9.84401,0.44376615,1001.40656,0,0
19.72,-0.59849477,-9.834478,0.3017348,1001.38104,0,0
19.76,-0.58892804,-9.801112,0.35854828,1001.4091,0,0
19.8,-0.67495686,-9.829712,0.30173615,1001.3936,0,0
19.84,-0.7418665,-9.839245,0.43430012,1001.3988,0,0
19.88,-0.6892811,-9.80588,0.30173752,1001.3835,0,0
19.92,-0.703613,-9.882145,0.25439414,1001.41174,0,0
19.96,-0.6462477,-9.844011,0.26859808,1001.38104,0,0
20.0,-0.6510198,-9.82018,0.24966115,1001.40656,0,0
20.04,-0.56019646,-9.905978,0.28753704,1001.39624,0,0
20.08,-0.49327207,-9.839246,0.3869602,1001.3992,0,0
20.12,-0.45980537,-9.810646,0.30647606,1001.40924,0,0
20.16,-0.67488885,-9.805881,0.21178865,1001.40155,0,0
20.2,-0.7417986,-9.772515,0.45797843,1001.40936,0,0
20.24,-0.909084,-9.824947,0.44377586,1001.40936,0,0
20.28,-0.8660587,-9.72485,0.4579797000000001,1001.4017,0,0
20.32,-0.7752353,-9.848781,0.17391612,1001.4218,0,0
20.36,-0.5888153,-9.848781,0.30648017,1001.41187,0,0
20.4,-0.43107373,-9.877379,0.13604229999999998,1001.40924,0,0
20.44,-0.579241,-9.891681,0.12657411,1001.389,0,0
20.48,-0.67004913,-9.801116,0.18812211,1001.4195,0,0
20.52,-0.83255494,-9.777283,0.32542056,1001.41943,0,0
20.56,-0.8514718000000001,-9.762987,0.31123585,1001.4144,0,0
20.6,-1.0044103000000002,-9.777288,0.42959735,1001.38403,0,0
20.64,-0.90402013,-9.84402,0.38225463,1001.38654,0,0
20.68,-0.8418674999999999,-9.810654,0.27336472,1001.39417,0,0
20.72,-0.7844946,-9.839254,0.28283492,1001.39166,0,0
20.76,-0.8227188,-9.73439,0.3727899,1001.41174,0,0
20.8,-0.9039602,-9.90122,0.29704085,1001.37646,0,0
20.84,-0.7844498000000001,-9.810656,0.34912068,1001.3816,0,0
20.88,-0.63626164,-9.782057,0.25916827,1001.4296,0,0
20.92,-0.8322174999999999,-9.824957,0.35385787,1001.4296,0,0
20.96,-1.0281743,-9.83449,0.3917345,1001.4119,0,0
21.0,-1.0138196,-9.7486925,0.54323685,1001.4298,0,0
21.04,-1.0281448,-9.786825,0.5195661,1001.39685,0,0
21.08,-1.0281305,-9.772526,0.49589542,1001.41205,0,0
21.12,-0.8942798000000001,-9.75346,0.43434963,1001.3971,0,0
21.16,-1.0424395,-9.820192,0.49589816,1001.3792,0,0
21.2,-1.0711031000000002,-9.839258,0.34439865,1001.39166,0,0
21.24,-0.9085754,-9.753461,0.37280637,1001.4046,0,0
21.28,-0.8559814,-9.762994,0.36807343,1001.4247,0,0
21.32,-0.8655258,-9.83926,0.38227805,1001.41724,0,0
21.36,-0.69343764,-9.805895,0.36334184,1001.4097,0,0
21.4,-0.79857904,-9.858327,0.32546788,1001.41223,0,0
21.44,-0.80334455,-9.820195,0.33020362,1001.4175,0,0
21.48,-0.7889889,-9.696264,0.38228354,1001.3793,0,0
21.52,-0.951489,-9.848795,0.32073748,1001.3996,0,0
21.56,-0.8514218000000001,-9.791589,0.40592852,1001.41223,0,0
21.6,-0.7701626,-9.824955,0.32070947,1001.40466,0,0
21.64,-0.74148124,-9.88692,0.33964735,1001.3972,0,0
21.68,-0.83707494,-9.801123,0.40119478,1001.4021,0,0
21.72,-0.8179533,-9.767756,0.38699183,1001.3921,0,0
21.76,-0.78449196,-9.805889,0.41066408,1001.4021,0,0
21.8,-0.66021466,-9.815422,0.31597620000000004,1001.40466,0,0
21.84,-0.5598363000000001,-9.8201885,0.32544523,1001.39716,0,0
21.88,-0.62197137,-9.815422,0.27336702,1001.40247,0,0
21.92,-0.6315283,-9.858321,0.3301801,1001.3869,0,0
21.96,-0.59328747,-9.834489,0.24022663,1001.42,0,0
22.0,-0.51202875,-9.805889,0.28283647,1001.3921,0,0
22.04,-0.4976867999999999,-9.867853,0.3349152,1001.4251,0,0
22.08,-0.60761946,-9.805889,0.33964983,1001.4049,0,0
22.12,-0.67931443,-9.872621,0.37752524,1001.4124,0,0
22.16,-0.92308134,-9.848789,0.51955765,1001.3946,0,0
22.2,-0.9947759,-9.762989,0.4011978,1001.3795,0,0
22.24,-0.8991773000000001,-9.801124,0.44854206,1001.37213,0,0
22.28,-0.67930394,-9.791591,0.33965100000000004,1001.40765,0,0
22.32,-0.36861485,-9.863089,0.32071352,1001.40265,0,0
22.36,-0.2777952,-9.882155,0.33491707,1001.41754,0,0
22.4,-0.3255909,-9.910754,0.31124523,1001.3771,0,0
22.44,-0.2443323,-9.896455,0.4911528,1001.4278,0,0
22.48,-0.24910955,-9.848789,0.3727929,1001.3823,0,0
22.52,-0.15829077,-9.83449,0.31124586,1001.3974,0,0
22.56,-0.11414322,-9.906015,0.42497498,1001.36957,0,0
22.6,-0.34830666,-9.829752,0.48179212,1001.39233,0,0
22.64,-0.7402006999999999,-9.791621,0.42024943,1001.36707,0,0
22.68,-0.85965174,-9.729656,0.5433479999999999,1001.36975,0,0
22.72,-1.0890355,-9.672458,0.7137908000000001,1001.3796,0,0
22.76,-1.1702452,-9.729658,0.571763,1001.3748,0,0
22.8,-1.2896934,-9.820224,0.60490817,1001.35956,0,0
22.84,-1.4330435,-9.920323,0.40133274,1001.39496,0,0
22.88,-1.4664552,-9.824992,0.10780394,1001.4306,0,0
22.92,-1.3086748,-9.667698,0.03205778,1001.4407,0,0
22.96,-1.0744203,-9.6248,0.2309068,1001.42535,0,0
23.0,-0.89274085,-9.539002,0.33980238,1001.42303,1,1
23.04,-0.9882929,-9.600969,0.46763533,1001.42035,1,1
23.08,-1.1268573,-9.515173,0.26879492,1001.41534,1,1
23.12,-1.0742325,-9.596206,0.3350809,1001.40784,1,1
23.16,-1.0550693000000002,-9.8107,0.29720968,1001.40283,1,1
23.2,-0.8255916999999999,-9.672472,0.5386685999999999,1001.4432,1,1
23.24,-0.83988434,-9.5437765,1.0168476999999998,1001.4078,1,1
23.28,-0.54348946,-9.639109,1.5044957,1001.36475,1,1
23.32,-0.6390387,-9.443681,2.2951458,1001.36206,1,1
23.36,-1.0787395,-10.139599,2.7780588,1001.3696,1,1
23.4,-1.7048439999999998,-9.925106,2.9058921000000004,1001.35223,1,1
23.44,-0.7822948000000001,-9.963239,2.7165203,1001.3293,1,1
23.48,-0.2373532,-10.511394500000002,2.0253012,1001.3798,1,1
23.52,0.07816371,-10.354098,2.4182615000000003,1001.39294,1,1
23.56,-0.42486715,-9.586655,2.0204659,1001.4359,1,1
23.6,-1.2422136,-9.434125,1.9447155,1001.4257,1,1
23.64,-1.57202,-9.000368,1.7553393,1001.44574,1,1
23.68,-0.88372827,-8.723908,1.3765869,1001.4561,1,1
23.72,-0.76423323,-9.000368,1.4239309,1001.4357,1,1
23.76,0.68404734,-9.600954,1.6606511999999998,1001.44073,1,1
23.8,-0.26235378,-9.801149,1.1067258,1001.4588,1,1
23.84,1.4057977,-9.405525,1.2392892,1001.42303,1,1
23.88,0.08179206,-10.263506,-0.15736018,1001.4663,1,1
23.92,1.6065493999999998,-10.640063,-0.048468877,1001.4284,1,1
23.96,2.7059045,-10.620997,-1.1610541,1001.3751,1,1
24.0,-1.7823313000000005,-7.050847,-1.9374964,1001.4433,1,1
24.04,-2.9772823,-13.838424,3.2230046000000003,1001.47894,1,1
24.08,-1.7679919999999998,-16.026272,0.98836577,1001.58026,1,1
24.12,2.4908133,-15.211192,-3.4667091,1001.664,1,1
24.16,1.2624036,-12.489488,-0.95274013,1001.67694,1,1
24.2,-0.5778209,-8.476047,-1.8333395,1001.67175,1,1
24.24,-0.14285870000000006,-6.8411183000000015,0.04148481,1001.69495,1,1
24.28,-0.72599477,-5.9926714999999975,-1.3078206,1001.7351,1,1
24.32,-1.6819556,-5.406385,-0.24257945,1001.67444,1,1
24.36,0.18216796,-5.8592076,-0.62606627,1001.51465,1,1
24.4,2.6294277000000004,-7.8325619999999985,-1.7197136999999998,1001.3703,1,1
24.44,8.021047,-11.207284,-4.2431517,1001.26624,1,1
24.48,10.066803,-12.732582,-5.1237507,1001.2459,1,1
24.52,4.0203505,-12.718283,0.76584876,1001.3347,1,1
24.56,-3.2210522,-16.879486,-3.8880713,1001.246,1,1
24.6,2.031952,-4.939262,4.41134,1001.1546,1,1
24.64,-3.0489793,-11.478977,3.6964455,1001.10913,1,1
24.68,-3.4887214,-8.380716,-4.3615116999999985,1001.2917,1,1
24.72,2.0510712,-8.471281,5.921615,1001.3043,1,1
24.76,-2.422825,-10.010879,2.7116892000000004,1001.3398,1,1
24.8,-1.2135348,-10.134809,-0.91486496,1001.4134,1,1
24.84,1.1859268,-9.186264,0.9315529,1001.39307,1,1
24.88,0.71750593,-8.614277000000001,1.0972571000000002,1001.39557,1,1
24.92,0.72706556,-9.534223,1.3860556999999998,1001.4134,1,1
24.96,-0.4917844,-9.772551,0.39183077,1001.4108,1,1
25.0,-1.1647358,-9.672477,2.4466537999999995,1001.40076,1,1
25.04,0.6898575,-10.878417,0.8274903,1001.4412,1,1
25.08,0.9432164,-11.035715,0.40613097,1001.44635,1,1
25.12,1.8131664,-9.75351,2.0821126,1001.43365,1,1
25.16,1.6028826,-11.054781,1.7128314999999998,1001.4412,1,1
25.2,2.5779886000000003,-11.641068,-1.5775774,1001.4438,1,1
25.24,0.27893043,-8.26158,-3.5092118,1001.46155,1,1
25.28,-1.3461754,-10.03474,2.0489817,1001.49194,1,1
25.32,-4.553396,-17.036814,5.1784263,1001.4362,1,1
25.36,4.3657455,-11.841268,-9.6734,1001.5908,1,1
25.4,2.578123,-14.37231,2.5318985,1001.6441,1,1
25.44,-0.81072867,-9.74875,-1.3929206,1001.61395,1,1
25.48,-1.001895,-6.602823,0.33513954,1001.6241,1,1
25.52,-1.4511691,-6.1738339999999985,-0.65434855,1001.6291,1,1
25.56,-2.483579,-6.3501964000000015,-0.4697042,1001.6466,1,1
25.6,-1.4797926,-6.8220863,-0.6543435000000001,1001.5429,1,1
25.64,1.273402,-8.762075999999999,-3.2582633,1001.3958,1,1
25.68,7.219504,-10.997591,-5.2561800000000005,1001.36804,1,1
25.72,9.160132,-12.251197,-5.2230363,1001.33,1,1
25.76,5.7951755999999985,-9.848853,0.0700302,1001.4289,1,1
25.8,-5.900975,-15.807051,-3.665412200000001,1001.21326,1,1
25.84,5.001785,-9.682025,3.024304,1001.1803,1,1
25.88,-0.6861556,-8.051863,4.5677223,1001.0484,1,1
25.92,-5.4850492,-6.3645024,1.3293921,1001.1956,1,1
25.96,2.9895704,-10.163449,4.837589,1001.23114,1,1
26.0,0.3933519,-10.621019,1.2772443000000002,1001.30963,1,1
26.04,-0.118092164,-9.529478,-0.26143768,1001.4644,1,1
26.08,1.1915696000000002,-9.157686,1.622855,1001.4213,1,1
26.12,0.04919082,-9.300682,0.4013781,1001.4516,1,1
26.16,1.024266,-9.176751,1.0689286,1001.4213,1,1
26.2,-0.12289038,-9.572375,0.77539533,1001.4262,1,1
26.24,-1.097977,-9.610509,1.6891346,1001.411,1,1
26.28,-0.5291838000000001,-10.6114855,1.0594586,1001.4566,1,1
26.32,0.10174422,-10.158662,0.3729694000000001,1001.4774,1,1
26.36,1.4735428,-9.7821045,2.4703102,1001.4393,1,1
26.4,2.1761687000000003,-11.250203,2.063151,1001.4516,1,1
26.44,2.2574217,-12.298846,-0.40820867,1001.4774,1,1
26.48,0.5223479,-9.944166,-1.7622488999999997,1001.485,1,1
26.52,-1.1314692,-7.5227556,-2.2498927,1001.495,1,1
26.56,-0.6917324,-11.941353,1.452411,1001.4163,1,1
26.6,-1.7193953000000002,-14.167335500000002,3.99952,1001.4696,1,1
26.64,2.950468,-13.051961,-3.192041,1001.609,1,1
26.68,0.7087352,-11.874622,0.44398144,1001.6547,1,1
26.72,-0.10383683,-8.099508,-0.61652577,1001.6623,1,1
26.76,-0.8925091999999999,-6.1499867,0.16938502,1001.68256,1,1
26.8,-1.6716220000000002,-5.863993,0.13150933,1001.6319,1,1
26.84,-2.3025615000000004,-5.4350023,0.10310243,1001.60144,1,1
26.88,-1.9106226,-6.850670299999999,-1.7906599,1001.4696,1,1
26.92,3.2085428,-11.002341,-5.331995,1001.29974,1,1
26.96,10.091454,-14.753621,-3.149435,1001.277,1,1
27.0,6.4683585,-14.167335,1.3529833999999998,1001.24896,1,1
27.04,-2.6037138,-19.215117000000006,-3.4855788,1001.1983,1,1
27.08,-2.5798197,-5.039378,4.5345025,1001.1957,1,1
27.12,-1.8389553,-5.511267,5.149975,1001.09937,1,1
27.16,-2.09229,-9.038519,2.5271142,1001.2618,1,1
27.2,1.2487878,-10.5066185,-0.75856334,1001.33527,1,1
27.24,0.30716175,-9.014686,0.8700713999999999,1001.37067,1,1
27.28,-0.041769028,-9.505642,1.2535577,1001.39355,1,1
27.32,0.4027477,-9.863133,2.0631406,1001.3759,1,1
27.36,-0.18517263,-9.886966,-0.5076417000000001,1001.4443,1,1
27.4,-0.04178392,-8.824022,2.6123307,1001.44684,1,1
27.44,-1.8772337,-10.063327,0.80852187,1001.457,1,1
27.48,-2.761502,-10.354087,3.0289571,1001.4092,1,1
27.52,-0.32858735,-10.497085,-0.081547126,1001.48505,1,1
27.56,1.9465946,-10.192024,1.0073655,1001.452,1,1
27.6,1.8270949,-10.344555,-0.9574129,1001.5028,1,1
27.64,3.9158633,-10.678214,2.4655612,1001.38873,1,1
27.68,0.92370135,-11.33123,-1.4119167,1001.4599,1,1
27.72,-1.4184077,-10.48755,-2.4818926,1001.5205,1,1
27.76,-1.8055766,-9.33881,2.1483548,1001.45734,1,1
27.8,0.35488975,-11.81742,6.825946000000001,1001.4799,1,1
27.84,2.955098,-13.109157000000002,-6.340433999999999,1001.56366,1,1
27.88,1.425556,-13.047192,1.1778003,1001.5815,1,1
27.92,-0.5389484999999999,-10.182491,-0.024738844,1001.6524,1,1
27.96,-1.2654839,-8.104272,0.24512179,1001.69794,1,1
28.0,-1.9058888,-6.6361737000000005,-1.34563,1001.6475,1,1
28.04,-1.6047623,-5.7829604,-0.50290614,1001.5509,1,1
28.08,-1.3562138,-6.5551424,-1.4308498,1001.4699,1,1
28.12,1.5546855,-8.352134,-4.370915,1001.36865,1,1
28.16,7.5867963,-12.785032,-3.8359272,1001.3178,1,1
28.2,8.858224,-11.064305,-4.9532475,1001.3102,1,1
28.24,3.8059695,-9.934631,0.5528655,1001.38617,1,1
28.28,-7.278397,-18.438168,-6.2883496,1001.2061,1,1
28.32,2.735291,-7.708648700000001,4.236232299999998,1001.23694,1,1
28.36,-0.13737246,-7.9231443,6.726528599999999,1001.115,1,1
28.4,-4.8311410000000015,-6.803003,-2.9127192,1001.23145,1,1
28.44,1.6598311999999995,-10.23969,5.2967386,1001.2823,1,1
28.48,-2.5607367,-10.072862,3.317757100000001,1001.3764,1,1
28.52,-2.2739496,-9.353111,1.6938561,1001.45715,1,1
28.56,0.77078396,-9.210114,2.792238,1001.4724,1,1
28.6,0.43141663,-9.319745,0.1646433,1001.46014,1,1
28.64,0.98587257,-9.419842,1.2014778999999998,1001.45465,1,1
28.68,0.27846032,-9.605738,1.1304615,1001.4272,1,1
28.72,0.24978025,-9.672469,1.3293065,1001.427,1,1
28.76,0.99064857,-10.0394945,0.50552,1001.4826,1,1
28.8,0.98586756,-9.782101,1.4097911,1001.45996,1,1
28.84,-0.056130946,-9.505641,1.5423543,1001.4399,1,1
28.88,-0.04179278,-9.7678,2.683346,1001.4272,1,1
28.92,-0.40983886,-11.817421,1.2204146,1001.3738,1,1
28.96,0.81378967,-10.792611,0.52919143,1001.41156,1,1
29.0,2.9418092,-9.758293,-0.6969272,1001.42456,1,1
29.04,1.9619862,-9.329303,-4.522322,1001.45966,1,1
29.08,0.6284578000000001,-7.799239,-0.79634297,1001.49036,1,1
29.12,-3.2861621,-12.017643,5.8034205000000005,1001.4474,1,1
29.16,0.0740792,-12.780293,-3.925777,1001.668,1,1
29.2,4.3854989999999985,-15.244604,-2.7042973,1001.7314,1,1
29.24,1.9191595,-12.008113,-2.1503685000000003,1001.61707,1,1
29.28,0.97279793,-8.585727,0.27838470000000004,1001.5919,1,1
29.32,-1.316689,-5.401667,0.25471625,1001.56146,1,1
29.36,-2.0240605,-4.8058486,-1.1087886999999998,1001.4627,1,1
29.4,-1.0632806,-6.2977815,-2.0982757000000003,1001.38904,1,1
29.44,2.665006,-10.721148,-1.9657086,1001.4399,1,1
29.48,5.7288966,-10.578152,-1.3833736,1001.465,1,1
29.52,4.839892400000001,-10.616285,-3.88787,1001.526,1,1
29.56,4.758675599999999,-10.520955,-4.6311684,1001.4653,1,1
29.6,3.3295536,-9.44848,-2.7516057000000003,1001.3663,1,1
29.64,1.661441,-8.847895,-1.0235444,1001.32825,1,1
29.68,0.34225208,-10.444693,-3.0782726,1001.22186,1,1
29.72,1.1405162,-14.748894,-5.4880815,1001.19904,1,1
29.76,1.9531223,-11.617268,-0.21868531,1001.3231,1,1
29.8,-2.9413552000000003,-5.9784317000000025,2.1579900000000003,1001.3969,1,1
29.84,-5.1878242,-8.452276,-0.19027145,1001.3408,1,1
29.88,2.302166,-9.262591,2.0254335,1001.35864,1,1
29.92,-1.5933448,-9.462788,1.7129653000000002,1001.3639,1,1
29.96,0.46201754,-10.158706,1.2916075,1001.3589,1,1
30.0,-0.28428453,-9.381742,2.2526321,1001.3841,1,1
30.04,-1.1303012,-9.7297,1.1826572,1001.4122,1,1
30.08,-0.86739767,-9.705868,1.949632,1001.3941,1,1
30.12,-0.49456233,-9.86793,1.7413193,1001.4172,1,1
30.16,0.27499747,-9.601004,1.3530991,1001.3968,1,1
30.2,-0.059576638,-9.572405,0.9885512,1001.42474,1,1
30.24,-0.12648319,-9.7869005,1.2300067,1001.4296,1,1
30.28,-0.38936386,-9.95373,1.3625709,1001.44257,1,1
30.32,-1.2019191,-10.24449,0.96961635,1001.43744,1,1
30.36,-0.48971474,-9.67727,1.8265448,1001.4399,1,1
30.4,-0.671338,-9.4866085,2.2905173,1001.4095,1,1
30.44,-1.1254086,-9.662971,1.6561081000000002,1001.42474,1,1
30.48,0.19383149,-9.810735,1.4477955,1001.4424,1,1
30.52,0.031329542,-9.906066,1.4762031,1001.46796,1,1
30.56,-0.42274392,-9.853634,1.2110771,1001.4554,1,1
30.6,-0.6569421999999999,-9.691572,1.4241264,1001.41724,1,1
30.64,-0.4800766,-9.748771,1.52355,1001.4349,1,1
30.68,-0.67125946,-9.748771,1.4478004999999998,1001.45276,1,1
30.72,-0.6951470999999999,-9.729705,1.6703185,1001.45514,0,0
30.76,-0.6616755999999999,-9.724939,1.5377563,1001.4222,0,0
30.8,-0.5947491,-9.658207,1.5945702,1001.45514,0,0
30.84,-0.4035462,-9.69634,1.5803678,1001.4325,0,0
30.88,-0.3796351,-9.739239,1.6892602,1001.46295,0,0
30.92,-0.48955703,-9.672507,1.5851046,1001.4225,0,0
30.96,-0.4799880999999999,-9.667742,1.556699,1001.4426,0,0
31.0,-0.5806972,-9.634367999999998,1.5424653,1001.4174,0,0
31.04,-0.5424613,-9.715399,1.5661371000000002,1001.42236,0,0
31.08,-0.56636286,-9.748764,1.5661368,1001.42737,0,0
31.12,-0.5998245,-9.720164,1.5424646,1001.40967,0,0
31.16,-0.6954224,-9.6915655,1.5898083,1001.4399,0,0
31.2,-0.81969994,-9.724932,1.5708705,1001.42236,0,0
31.24,-0.7432253000000001,-9.763063,1.6324177,1001.4454,0,0
31.28,-0.78146636,-9.686799,1.6560895,1001.45795,0,0
31.32,-0.7958083,-9.7535305,1.5756042,1001.45544,0,0
31.36,-0.7527925999999999,-9.724932,1.6750267,1001.44006,0,0
31.4,-0.7623545999999999,-9.682033,1.6750264,1001.4656,0,0
31.44,-0.7432379,-9.558102,1.6750261999999998,1001.4554,0,0
31.48,-0.71934164,-9.682033,1.7981205000000002,1001.4477,0,0
31.52,-0.5424911,-9.682033,1.6797601000000002,1001.4504,0,0
31.56,-0.54249376,-9.724932,1.6608221999999997,1001.4401,0,0
31.6,-0.5424963,-9.6391325,1.5661339,1001.43756,0,0
31.64,-0.6094161,-9.662965,1.5992745000000002,1001.4477,0,0
31.68,-0.6094185000000001,-9.696331,1.6040086999999998,1001.44525,0,0
31.72,-0.5233845,-9.743997,1.5519301,1001.44525,0,0
31.76,-0.5903043,-9.643899,1.5661329,1001.43744,0,0
31.8,-0.5950865,-9.720163,1.6892272000000002,1001.43256,0,0
31.84,-0.41823632,-9.686798,1.5898045,1001.44775,0,0
31.88,-0.30352357,-9.7630625,1.4951161,1001.46545,0,0
31.92,-0.31308556,-9.758296,1.5471944,1001.44257,0,0
31.96,-0.35132664,-9.682032,1.5282565,1001.4529,0,0
32.0,-0.41340393,-9.720165,1.5614028999999998,1001.45294,0,0
32.04,-0.25567043,-9.743998,1.6229502,1001.44006,0,0
32.08,-0.28912905,-9.739231,1.6134814,1001.44525,0,0
32.12,-0.23177138,-9.715399,1.5661373,1001.43744,0,0
32.16,-0.34170687,-9.682033,1.4288396,1001.4401,0,0
32.2,-0.2508906,-9.677265,1.480918,1001.45294,0,0
32.24,-0.37516552,-9.720165,1.3672924,1001.4327,0,0
32.28,-0.2461108,-9.715399,1.4761837,1001.4376,0,0
32.32,-0.31302807,-9.686799,1.5140588,1001.44525,0,0
32.36,-0.36082608,-9.729699,1.5708717,1001.4251,0,0
32.4,-0.31302807,-9.701099,1.5093244,1001.44257,0,0
32.44,-0.49466062,-9.786898,1.4998558000000002,1001.42,0,0
32.48,-0.5806971,-9.720165,1.4430428,1001.42487,0,0
32.52,-0.55679804,-9.772597,1.4856524,1001.4173,0,0
32.56,-0.48510098,-9.724933,1.5187932,1001.4301,0,0
32.6,-0.46120197,-9.763063,1.4856524,1001.4376,0,0
32.64,-0.37516552,-9.6582,1.433574,1001.40967,0,0
32.68,-0.4086241,-9.81073,1.4241052,1001.4401,0,0
32.72,-0.47076154,-9.748765,1.4619805,1001.4376,0,0
32.76,-0.6093759,-9.605768,1.4193708,1001.4352,0,0
32.8,-0.6332749,-9.710631,1.4761837,1001.4352,0,0
32.84,-0.5663577,-9.710631,1.5661373,1001.40466,0,0
32.88,-0.5854769000000001,-9.720165,1.480918,1001.4325,0,0
32.92,-0.6045961,-9.753531,1.5093244,1001.4047,0,0
32.96,-0.80056804,-9.729699,1.480918,1001.4301,0,0
33.0,-0.7862286,-9.696333,1.5992781,1001.41986,0,0
33.04,-0.84836614,-9.701099,1.4998558000000002,1001.4454,0,0
33.08,-0.8722651,-9.672499,1.5614028999999998,1001.40967,0,0
33.12,-0.71453154,-9.682033,1.5471997,1001.4325,0,0
33.16,-0.7097517,-9.743998,1.5756061,1001.4402,0,0
33.2,-0.8244670000000001,-9.667734,1.7081695,1001.44775,0,0
33.24,-0.8101276999999999,-9.653433,1.6797631000000002,1001.4377,0,0
33.28,-0.81490743,-9.743998,1.6655599,1001.473,0,0
33.32,-0.8101276999999999,-9.648666,1.6797631000000002,1001.4454,0,0
33.36,-0.67629313,-9.705865,1.6418878,1001.43,0,0
33.4,-0.7049719,-9.662967,1.7129039,1001.45026,0,0
33.44,-0.6380547,-9.6153,1.7129039,1001.4402,0,0
33.48,-0.5759173000000001,-9.715399,1.7413101999999998,1001.4555,0,0
33.52,-0.6045961,-9.634367999999998,1.7555134,1001.4554,0,0
33.56,-0.5759173000000001,-9.653433,1.6987006999999998,1001.46545,0,0
33.6,-0.5233394,-9.667734,1.8123263,1001.4555,0,0
33.64,-0.48510098,-9.672499,1.6892319,1001.4555,0,0
33.68,-0.39428475,-9.686799,1.7507792000000002,1001.4405,0,0
33.72,-0.34170687,-9.682033,1.7839199,1001.4479,0,0
33.76,-0.35604626,-9.696333,1.7460448,1001.4377,0,0
33.8,-0.39906448,-9.682033,1.8454672,1001.45294,0,0
33.84,-0.38950494,-9.677265,1.7744511000000005,1001.4554,0,0
33.88,-0.4038443,-9.6582,1.760248,1001.4454,0,0
33.92,-0.42774338,-9.701099,1.8028575,1001.4529,0,0
33.96,-0.37994534,-9.629601,1.8359983,1001.46295,0,0
34.0,-0.4028362,-9.677291,1.7650746,1001.4352,0,0
34.04,-0.45537347,-9.667759,1.7698127,1001.4428,0,0
34.08,-0.464895,-9.672526,1.7035346000000002,1001.4328,0,0
34.12,-0.52699184,-9.691594,1.817164,1001.4631,0,0
34.16,-0.5221816,-9.643928,1.7272131000000002,1001.4353,0,0
34.2,-0.5173511,-9.662996,1.8361089,1001.4456,0,0
34.24,-0.5364321999999999,-9.682064,1.7414244,1001.4202,0,0
34.28,-0.479034,-9.686831,1.7414281000000005,1001.4482,0,0
34.32,-0.47899342,-9.710665,1.7130255,1001.4328,0,0
34.36,-0.44071436,-9.667767,1.698826,1001.4507,0,0
34.4,-0.5171532,-9.763099,1.6609541,1001.45825,0,0
34.44,-0.48365396,-9.691601,1.6562235,1001.4658,0,0
34.48,-0.5266316,-9.6582365,1.6372895,1001.4227,0,0
34.52,-0.4787904000000001,-9.701137,1.6799031000000002,1001.41254,0,0
34.56,-0.45486355,-9.72497,1.6893744,1001.47064,0,0
34.6,-0.5073906,-9.729738,1.6183631,1001.4354,0,0
34.64,-0.50735253,-9.748804,1.623101,1001.4253,0,0
34.68,-0.52644384,-9.658241,1.5615563,1001.4557,0,0
34.72,-0.56462896,-9.677308,1.6609836,1001.4709,0,0
34.76,-0.5406995,-9.715443,1.6278456,1001.4429,0,0
34.8,-0.5167625,-9.658244,1.6041771,1001.4507,0,0
34.84,-0.49760008,-9.682078,1.5947123,1001.47076,0,0
34.88,-0.51190144,-9.620113,1.5994501,1001.443,0,0
34.92,-0.4927442,-9.672546,1.5947192,1001.4481,0,0
34.96,-0.5596208,-9.744046,1.5284412,1001.4505,0,0
35.0,-0.4221213,-9.705886,1.5520113000000002,1001.45825,0,0
35.04,-0.4316885,-9.734485,1.4904634,1001.443,0,0
35.08,-0.4508124,-9.739252,1.5378069,1001.45557,0,0
35.12,-0.36478227,-9.724952,1.5614784,1001.4456,0,0
35.16,-0.44126552,-9.677286,1.5662121999999998,1001.4507,0,0
35.2,-0.441271,-9.705886,1.5756805,1001.42523,0,0
35.24,-0.45083737,-9.672519,1.5662111,1001.4379,0,0
35.28,-0.47952288,-9.772617,1.6466953000000002,1001.45825,0,0
35.32,-0.45562947,-9.682053,1.5851475,1001.443,0,0
35.36,-0.42695737,-9.691586,1.5709436,1001.4557,0,0
35.4,-0.48432094,-9.672519,1.5520055,1001.4606,0,0
35.44,-0.43174946,-9.682052,1.5235983999999998,1001.4379,0,0
35.48,-0.49867308,-9.734483,1.5898795,1001.443,0,0
35.52,-0.43654197,-9.696351,1.5378006000000002,1001.4507,0,0
35.56,-0.43176848,-9.744017,1.4620496,1001.4405,0,0
35.6,-0.44133407,-9.691585,1.5567371,1001.46326,0,0
35.64,-0.5417162,-9.672518,1.4667828,1001.4481,0,0
35.68,-0.29795218,-9.634386,1.4336413,1001.47076,0,0
35.72,-0.6516644,-9.791681,1.1590453,1001.43536,0,0
35.76,-0.49871665,-9.744016,1.675095,1001.4582,0,0
35.8,-0.5226215999999999,-9.705883,1.4525774,1001.4481,0,0
35.84,-0.24061948,-9.753549,1.5993433,1001.4709,0,0
35.88,-0.16892917,-9.739249,1.4573106000000002,1001.48096,0,0
35.92,-0.1450361,-9.753549,1.5235916,1001.4988,0,0
35.96,-0.15938187,-9.748782,1.4146997,1001.4557,0,0
36.0,-0.21674626,-9.753548,1.4431056,1001.4582,0,0
36.04,-0.22158906,-9.76308,1.5235847,1001.48096,0,0
36.08,-0.2359365,-9.767845,1.1779723999999998,1001.4303,0,0
36.12,-0.14034839999999998,-9.715414,1.3815511,1001.4204,0,0
36.16,-0.15947671,-9.777378,1.3342062,1001.4254,0,0
36.2,-0.24552117,-9.753546,1.4762375,1001.4658,0,0
36.24,-0.53231794,-9.69158,1.4241585,1001.4404,0,0
36.28,-0.39371222,-9.710646,1.4099544,1001.46826,0,0
36.32,-0.49409604,-9.701113,1.3531408,1001.4733,0,0
36.36,-0.41284794,-9.696346,1.7034858,1001.4458,0,0
36.4,-0.3315993,-9.772612,1.2395135,1001.44293,0,0
36.44,-0.08305802,-9.825042,1.277388,1001.44543,0,0
36.48,-0.30293807,-9.691579,1.1164174,1001.4506,0,0
36.52,-0.6040743000000001,-10.0300045,1.2679175,1001.44324,0,0
36.56,-0.6279813,-9.896541,1.1826975,1001.43787,0,0
36.6,-0.39377946,-9.601014,1.641934,1001.4455,0,0
36.64,-0.66145647,-9.686811,1.6324645,1001.4404,0,0
36.68,-0.61844677,-9.686811,1.3815403,1001.4404,0,0
36.72,-0.14525473,-9.7392435,1.424149,1001.4557,0,0
36.76,0.6003866999999999,-9.791676,1.1684906000000002,1001.43286,0,0
36.8,0.4044057,-9.805975,1.1732242,1001.44574,0,0
36.84,0.17018725,-9.834574,1.5330383,1001.4557,0,0
36.88,0.39960873,-9.72971,1.0122528,1001.4557,0,0
36.92,0.29444504,-9.777374,1.1542841,1001.4204,0,0
36.96,-0.25046060000000003,-9.920372,1.2016276,1001.41785,0,0
37.0,-0.44644165,-9.76784,1.1968923,1001.4278,0,0
37.04,0.23321511,-9.696365,1.3342745,1001.43787,0,0
37.08,-0.04398437,-9.887028,0.7424768,1001.43536,0,0
37.12,-0.01527819,-9.729733,0.8229642,1001.4506,0,0
37.16,0.061229676,-9.696368,0.9934056,1001.4254,0,0
37.2,-0.21119177,-9.944228,0.83717275,1001.41534,0,0
37.24,-0.35455674,-9.739268,1.0454892,1001.4328,0,0
37.28,-0.21591325,-9.772635,0.9555382,1001.4382,0,0
37.32,-0.37839562,-9.848901,0.91293144,1001.4356,0,0
37.36,-0.26843274,-9.758336,0.99341875,1001.4458,0,0
37.4,-0.17758547,-9.853668,0.87506145,1001.4405,0,0
37.44,-0.15365910000000002,-9.734505,0.9981585,1001.4254,0,0
37.48,-0.07715306,-9.601043,0.88453543,1001.44073,0,0
37.52,0.03280793,-9.91087,0.8324594000000001,1001.45844,0,0
37.56,-0.23005027,-9.777406,0.7235709,1001.47614,0,0
37.6,-0.086628795,-9.696376,1.0975913,1001.4432,0,0
37.64,-0.26345417,-9.853672,0.96976495,1001.4508,0,0
37.68,-0.4689529000000001,-9.786942,1.0975969,1001.466,0,0
37.72,-0.48326498,-9.69161,1.1307402,1001.4481,0,0
37.76,-0.80348456,-9.825075,1.286978,1001.4433,0,0
37.8,-0.985086,-9.758344,1.324856,1001.43823,0,0
37.84,-0.7412887,-9.796477,1.3201241,1001.43823,0,0
37.88,-0.25371957,-9.729747,1.2680484,1001.4407,0,0
37.92,-0.29193062,-9.786946,1.0786748,1001.45593,0,0
37.96,-0.4113965,-9.710681,0.92717654,1001.4432,0,0
38.0,-0.5643193,-9.672549,1.1875715,1001.43317,0,0
38.04,-0.63658696,-9.7345,1.3106138,1001.4407,0,0
38.08,-0.54576594,-9.686836,1.1401757,1001.4331,0,0
38.12,-0.39280683,-9.701136,1.3390212,1001.45575,0,0
38.16,-0.28764606,-9.8203,1.424241,1001.44824,0,0
38.2,-0.12990810000000005,-9.853665,1.021817,1001.43317,0,0
38.24,-0.34977368,-9.7821665,1.3768978,1001.4103,0,0
38.28,-0.6222178,-9.825066,1.3106166,1001.4028,0,0
38.32,-0.2780671,-9.8203,1.0975688,1001.4508,0,0
38.36,-0.7608216,-9.786934,1.4526497,1001.42566,0,0
38.4,-0.7416976,-9.701137,1.4431812,1001.43567,0,0
38.44,-1.0667193,-9.682071,1.5852138,1001.44073,0,0
38.48,-1.0141363,-9.705903,1.476323,1001.44824,0,0
38.52,-0.9519938,-9.701137,1.6278245,1001.47107,0,0
38.56,-0.71777827,-9.69637,1.5331368,1001.47107,0,0
38.6,-0.6269573,-9.701137,1.5520749,1001.4433,0,0
38.64,-0.59827465,-9.720202,1.5946848,1001.4307,0,0
38.68,-0.4500944000000001,-9.782168,1.5946854,1001.456,0,0
38.72,-0.43097007,-9.73927,1.4715915000000002,1001.42566,0,0
38.76,-0.44530475,-9.691604,1.4999983,1001.43823,0,0
38.8,-0.5934751,-9.73927,1.4053103999999998,1001.4307,0,0
38.84,-0.6269284,-9.767869,1.5615464,1001.4431,0,0
38.88,-0.65560216,-9.677304,1.4384524,1001.4459,0,0
38.92,-0.665157,-9.734503,1.5094687,1001.4409,0,0
38.96,-0.7464086,-9.729737,1.5236725,1001.4482,0,0
39.0,-0.8037615,-9.682073,1.5189384,1001.42065,0,0
39.04,-0.8284993,-9.705884,1.4951896999999998,1001.4786,0,0
39.08,-0.78073406,-9.724949,1.4573114,1001.4431,0,0
39.12,-0.6899416,-9.686816,1.4715126,1001.4406,0,0
39.16,-0.7712274,-9.701116,1.4573066,1001.45074,0,0
39.2,-0.69955766,-9.744014,1.4052256,1001.4406,0,0
39.24,-0.7043685000000001,-9.767845,1.4241604,1001.4181,0,0
39.28,-0.71873885,-9.715413,1.476236,1001.45325,0,0
39.32,-0.7856835,-9.705879,1.3673423999999998,1001.45575,0,0
39.36,-0.8048301,-9.63438,1.5141063999999995,1001.4406,0,0
39.4,-0.77618045,-9.758309,1.4572908000000002,1001.42834,0,0
39.44,-0.8096683000000001,-9.6868105,1.4667568000000002,1001.4228,0,0
39.48,-0.8192552,-9.6248455,1.438348,1001.446,0,0
39.52,-0.7953835,-9.729709,1.4525486,1001.4228,0,0
39.56,-0.79541457,-9.772607,1.5235618,1001.43054,0,0
39.6,-0.80022347,-9.696341,1.5188248,1001.4332,0,0
39.64,-0.83849114,-9.7058735,1.4714781,1001.451,0,0
39.68,-0.8337404,-9.643907,1.5614291,1001.41815,0,0
39.72,-0.828988,-9.739238,1.4998794,1001.4435,0,0
39.76,-0.7190816999999999,-9.696339,1.5614239,1001.41547,0,0
39.8,-0.7382301,-9.691571,1.4809364,1001.45105,0,0
39.84,-0.7000209,-9.739236,1.4761993,1001.4406,0,0
39.88,-0.704828,-9.701102,1.5046033,1001.4583,0,0
39.92,-0.68573797,-9.724935,1.5472102,1001.46606,0,0
39.96,-0.6809873000000001,-9.729701,1.5330044,1001.45105,0,0
40.0,-0.6857926999999999,-9.691567,1.4903924,1001.41815,0,0
40.04,-0.6224333000000001,-9.705897,1.523645,1001.4131,0,0
40.08,-0.66543126,-9.7487955,1.5425845,1001.42566,0,0
40.12,-0.6988684000000001,-9.662999,1.5473208,1001.4332,0,0
40.16,-0.7466449000000001,-9.7392645,1.4810412,1001.40784,0,0
40.2,-0.7370651,-9.6772995,1.5425903,1001.4484,0,0
40.24,-0.7274839,-9.6772995,1.528389,1001.4609,0,0
40.28,-0.6366460999999999,-9.682068,1.5520631,1001.41547,0,0
40.32,-0.62706494,-9.710668,1.481049,1001.4206,1,2
40.36,-0.56012744,-9.677301,1.5283948,1001.43066,1,2
40.4,-0.6126838000000001,-9.68207,1.5426,1001.4435,1,2
40.44,-0.6031025999999999,-9.643936,1.5568051,1001.42834,1,2
40.48,-0.56006414,-9.653471,1.6372919,1001.41547,1,2
40.52,-0.46444517,-9.782167,1.4668553999999998,1001.4332,1,2
40.56,-0.3114699,-9.772636,1.5804832,1001.39545,1,2
40.6,-0.5600009,-9.534308,1.1638572,1001.43823,1,2
40.64,-0.19193444,-9.729738,2.6883378,1001.45105,1,2
40.68,-0.5312789000000001,-9.61534,0.7803745,1001.46375,1,2
40.72,-1.3964007,-9.801237,1.4431931999999998,1001.446,1,2
40.76,-0.20142803,-9.42468,1.3106319,1001.4511,1,2
40.8,0.037582383,-9.477112,1.6609796,1001.45355,1,2
40.84,-0.73194444,-9.5057125,1.3343077,1001.44855,1,2
40.88,-0.85619915,-9.319817,1.2206838,1001.4484,1,2
40.92,-1.4154147,-9.534313,1.1591386,1001.4359,1,2
40.96,-0.1296259,-9.596278,1.036046,1001.44617,1,2
41.0,-0.3638134,-9.920404,1.935585,1001.45624,1,2
41.04,-0.20640492,-10.020494,1.7177726000000002,1001.4435,1,2
41.08,-0.19683772,-10.354154,1.926087,1001.4509,1,2
41.12,-0.22550845,-12.275076,1.7698523999999998,1001.43854,1,2
41.16,1.6099433,-10.864175,0.1743588,1001.44855,1,2
41.2,2.6710675,-10.530516,0.472627,1001.4714,1,2
41.24,2.3317091,-9.915631,-0.23279859,1001.43335,1,2
41.28,2.2647994,-9.548607,-0.8340673000000001,1001.446,1,2
41.32,-2.6536112000000003,-8.542863,-3.2344096,1001.5425,1,2
41.36,-3.126805,-8.952786,-0.062358018,1001.4765,1,2
41.4,-5.287268599999999,-16.979668,6.172854,1001.4767,1,2
41.44,1.7151514,-13.781309,-8.323893,1001.7021,1,2
41.48,3.1729994,-12.785099,-2.7893732000000004,1001.73737,1,2
41.52,0.1904092,-10.702114,-1.3832542,1001.66675,1,2
41.56,-1.6115693000000002,-7.2415943,-1.0281732,1001.664,1,2
41.6,-2.1660187,-6.2835160000000005,-1.0045005,1001.6539,1,2
41.64,-0.9089234,-5.678164,0.524713,1001.6514,1,2
41.68,0.7974748,-5.6400313,-0.30380708,1001.52716,1,2
41.72,2.2840009,-7.656285,-0.60680836,1001.4206,1,2
41.76,9.286422,-9.9061,-2.7136176,1001.23315,1,2
41.8,8.105818,-11.517197,-4.266502,1001.2227,1,2
41.84,1.9398772,-12.446675,1.7603959999999998,1001.3294,1,2
41.88,-3.9631722,-13.624015,-6.7662663,1001.2381,1,2
41.92,-1.7214376,-12.1797495,3.497924,1001.19257,1,2
41.96,1.1416723999999998,-8.828859,2.953468,1001.21783,1,2
42.0,-2.6582634,-7.1605644,3.6352232,1001.23834,1,2
42.04,-3.05498,-9.081487,4.170212,1001.25085,1,2
42.08,0.09969813,-10.330325,2.1060119,1001.36475,1,2
42.12,1.5240873,-8.938491,2.2385757,1001.398,1,2
42.16,2.9006784,-8.757361,1.4810716999999998,1001.4032,1,2
42.2,1.5432211999999998,-9.710673,0.74250525,1001.408,1,2
42.24,0.9839923,-10.287427,0.11756456,1001.403,1,2
42.28,1.6579522,-9.543845,0.9602893,1001.40045,1,2
42.32,0.76413614,-10.068166,1.6988571,1001.4231,1,2
42.36,0.008934215,-10.258828,3.095507,1001.413,1,2
42.4,1.0319103,-10.511458,-0.3605993,1001.5196,1,2
42.44,2.7430885,-10.392295,0.5294694999999999,1001.4867,1,2
42.48,1.7966988000000002,-10.478093,-1.6720276,1001.4311,1,2
42.52,1.6007378,-8.862229,-3.6794138,1001.47394,1,2
42.56,-1.7212162,-10.292198,0.8466776,1001.5398,1,2
42.6,-5.75536,-18.514507,4.5395145,1001.55756,1,2
42.64,3.383632,-11.417105,-1.3358816,1001.7024,1,2
42.68,5.615811,-13.65262,-1.0186753,1001.6944,1,2
42.72,-0.3828298,-9.200658,0.73779005,1001.5755,1,2
42.76,-0.50231713,-5.711538,0.5768211,1001.6262,1,2
42.8,-1.8310897,-4.5961637,-0.37005875,1001.63885,1,2
42.84,-2.7966034,-4.477,-0.5120903,1001.60077,1,2
42.88,-3.0929403,-5.1204853,-1.0376083,1001.4588,1,2
42.92,3.1925118,-11.888996,-4.9955690000000015,1001.3399,1,2
42.96,13.736770000000002,-16.097866,-1.0612785,1001.4208,1,2
43.0,5.6589103,-12.837542,2.69784,1001.3371,1,2
43.04,-3.5661001000000003,-17.55643,-6.917735,1001.1418,1,2
43.08,1.9163448,-6.793548,2.5037313,1001.175,1,2
43.12,-1.1283801000000002,-6.5123215,3.0103133,1001.1016,1,2
43.16,-2.7965212000000004,-8.261648,1.4811016,1001.2509,1,2
43.2,0.72620326,-9.329357,3.076597,1001.304,1,2
43.24,0.6736364,-10.211171,1.7083548,1001.38275,1,2
43.28,-0.18193887,-9.915644,0.17440863,1001.42084,1,2
43.32,1.4623239,-9.710682,1.4290268,1001.4334,1,2
43.36,0.88397807,-9.567686,0.22175454,1001.42584,1,2
43.4,-0.058327317,-9.49617,0.32584885,1001.4006,1,2
43.44,0.027691364,-9.129146,1.6514804,1001.41565,1,2
43.48,-0.27345845,-9.839361,1.1875067,1001.39557,1,2
43.52,-0.6271773,-9.991892,1.8976662,1001.403,1,2
43.56,-0.37864518,-9.948992,1.7461637,1001.4181,1,2
43.6,-1.0765133,-10.501912,1.1780336,1001.4511,1,2
43.64,-0.21138754,-10.792671,2.0302248,1001.4563,1,2
43.68,1.6479394,-10.068154,1.4715635,1001.4105,1,2
43.72,2.350553,-10.816503,0.5672906,1001.43866,1,2
43.76,1.6431231,-10.249283,-3.2202346,1001.4791,1,2
43.8,1.8390783,-9.114841,-2.0934482,1001.5603,1,2
43.84,2.2501252,-8.852681,1.9023879,1001.4614,1,2
43.88,-2.2476895,-14.706013,6.9776683,1001.4538,1,2
43.92,3.8704417,-11.412321,-2.9267082,1001.57526,1,2
43.96,2.6324560000000004,-12.718358,1.8361013,1001.5553,1,2
44.0,-0.11594899,-11.116793,0.7187803,1001.56287,1,2
44.04,1.2606168,-9.7773905,2.011271,1001.61847,1,2
44.08,-1.1101837,-9.076706,1.1543423000000002,1001.65656,1,2
44.12,-1.7745943,-8.5333185,0.6524937,1001.59326,1,2
44.16,-0.15425846,-9.481862,-1.3548955,1001.5221,1,2
44.2,1.8006647,-11.278855,-3.1539707000000003,1001.5527,1,2
44.24,1.217512,-8.9575405,-1.7289166,1001.5704,1,2
44.28,3.913306,-7.4417753,-0.980882,1001.578,1,2
44.32,5.724831,-9.477094,-0.44116166,1001.51965,1,2
44.36,5.0891023,-10.649667,0.09382464,1001.44867,1,2
44.4,0.5438036999999999,-13.705038,-4.8015227,1001.2382,1,2
44.44,-1.43982,-7.327383999999999,0.8087463,1001.119,1,2
44.48,0.69196784,-8.809783,2.3710997000000003,1001.11896,1,2
44.52,1.7052811,-8.676319,2.9771028,1001.104,1,2
44.56,-0.24966338,-10.540043,-1.8946,1001.2965,1,2
44.6,-0.19709064,-8.838382000000003,1.6751406000000002,1001.3372,1,2
44.64,0.964397,-9.329337,2.9108198,1001.30414,1,2
44.68,0.12314607,-10.3493805,0.38264713,1001.37787,1,2
44.72,-0.41219705,-9.524766,1.5473102,1001.403,1,2
44.76,-0.5221376,-9.248306,2.0112815,1001.388,1,2
44.8,-1.3490487,-9.772628,2.0965004,1001.42584,1,2
44.84,-1.5020072,-9.89179,0.07017459,1001.47144,1,2
44.88,-1.0766095,-9.286437,2.0302176,1001.4742,1,2
44.92,-1.1769906,-9.834592,1.6893401,1001.4106,1,2
44.96,-0.6846754,-9.896557,1.7603557,1001.4106,1,2
45.0,-0.5126078,-9.815525,1.7556207,1001.40326,1,2
45.04,0.7349156,-9.605797,1.5425719999999998,1001.41815,1,2
45.08,-0.33098546,-10.149184,1.8692455,1001.3981,1,2
45.12,0.099191874,-10.277881,1.8597764,1001.39557,1,2
45.16,0.66798407,-10.058619,1.3342569,1001.40814,1,2
45.2,0.42898816,-10.740236,1.0359889000000002,1001.42834,1,2
45.24,1.0933764,-10.177783,-0.53109926,1001.45374,1,2
45.28,-0.20195575,-11.030996,-1.0187436,1001.4993,1,2
45.32,-1.4399298,-10.025253,-1.3832931999999998,1001.53503,1,2
45.36,-1.2726418,-9.396068,-2.0603135,1001.50714,1,2
45.4,-1.3538402,-8.199663000000001,-1.5916021,1001.4286,1,2
45.44,-3.4999747,-11.464754,-2.0129642,1001.48676,1,2
45.48,-2.529677,-11.588684,-2.2212784,1001.5983,1,2
45.52,1.1651088,-9.396069,-1.0708183,1001.49426,1,2
45.56,-0.13022059,-9.929922,-1.0802875,1001.4311,1,2
45.6,-1.66932,-8.371259,-2.5526874,1001.44867,1,2
45.64,-2.094725,-9.057642,-3.2344418,1001.47394,1,2
45.68,-0.25450292,-10.482843,-4.1623855,1001.4106,1,2
45.72,0.33341044,-11.04053,-0.8293648000000001,1001.39026,1,2
45.76,-3.6672878,-10.111052,1.2821794,1001.29425,1,2
45.8,1.0838344,-10.883233,-1.6910268,1001.2711,1,2
45.84,5.2852798,-8.0471325,0.8182074,1001.2863,1,2
45.88,0.12308906,-9.615329,-1.3406813999999998,1001.31683,1,2
45.92,-1.0623046,-9.505698,-1.4448385,1001.365,1,2
45.96,-0.43137306,-9.982354,-0.34645683,1001.3548,0,0
46.0,-1.3395385,-9.786925,0.57201743,1001.38776,0,0
46.04,-0.89023954,-9.791692,2.2811375,1001.34717,0,0
46.08,-0.48873818,-9.729727,0.40157843,1001.41565,0,0
46.12,-1.6263343,-9.734492,-0.19022244,1001.40576,0,0
46.16,-1.3443285,-9.672527,1.187489,1001.43835,0,0
46.2,-1.5881009,-9.796458,1.2348328000000002,1001.4234,0,0
46.24,-1.2821958999999998,-9.920388,0.31162378,1001.4183,0,0
46.28,-1.4542712,-9.920388,0.55781263,1001.45636,0,0
46.32,-1.2296228,-9.7058935,0.92709595,1001.41565,0,0
46.36,-1.4208174999999998,-9.715427,0.7803292,1001.4134,0,0
46.4,-1.4594061000000005,-9.758317,0.68560904,1001.4233,0,0
46.44,-1.4641984,-9.767849,0.59091985,1001.42834,0,0
46.48,-1.4164219,-9.653452,0.5956522,1001.41815,0,0
46.52,-1.3973141000000002,-9.69635,0.63352644,1001.41064,0,0
46.56,-1.53595,-9.686817,0.5198988,1001.4437,0,0
46.6,-1.6267817,-9.834579,0.32578674,1001.42334,0,0
46.64,-1.679375,-9.858412,0.3873326,1001.42584,0,0
46.68,-1.6315935,-9.705882,0.3825967,1001.42065,0,0
46.72,-1.4499763,-9.7201805,0.44887695,1001.41583,0,0
46.76,-1.6459618000000005,-9.74878,0.4157349,1001.4286,0,0
46.8,-1.459569,-9.777378,0.23582569,1001.436,0,0
46.84,-1.3639852,-9.72018,0.2594966,1001.4234,0,0
46.88,-1.4787169,-9.748779,0.25949505,1001.4081,0,0
46.92,-1.3544586,-9.767844,0.34944725,1001.43616,0,0
46.96,-1.2732216,-9.748778,0.27842940000000005,1001.4409,0,0
47.0,-1.1346195,-9.720178,0.3068347,1001.4412,0,0
47.04,-1.1872149,-9.825042,0.20741057,1001.45374,0,0
47.08,-1.2063506000000002,-9.758309,0.2452843,1001.4435,0,0
47.12,-1.2924066,-9.77261,0.2452825,1001.441,0,0
47.16,-1.2350625,-9.796442,0.16006202,1001.4334,0,0
47.2,-1.134702,-9.786908,0.18373261,1001.42065,0,0
47.24,-1.1729568,-9.744009,0.19319989,1001.4131,0,0
47.28,-1.1968723999999995,-9.815506,0.2026672,1001.4309,0,0
47.32,-1.2590253,-9.753541,0.23580663,1001.441,0,0
47.36,-1.2255832,-9.767839,0.292618,1001.4236,0,0
47.4,-1.2822348999999995,-9.758325,0.2832138,1001.4385,0,0
47.44,-1.320459,-9.772625,0.1979958,1001.4311,0,0
47.48,-1.3539057,-9.677294,0.30688822,1001.41815,0,0
47.52,-1.4590489,-9.825057,0.23587331,1001.4385,0,0
47.56,-1.3538803999999998,-9.772626,0.39684424,1001.43115,0,0
47.6,-1.3251889,-9.729728,0.39684543,1001.43335,0,0
47.64,-1.334736,-9.815525,0.34003368,1001.4108,0,0
47.68,-1.3586229,-9.748793,0.30215955,1001.4286,0,0
47.72,-1.3108114,-9.772628,0.30216079999999995,1001.42065,0,0
47.76,-1.2486620000000002,-9.7583275,0.31163067,1001.42834,0,0
47.8,-1.2438704,-9.805993,0.25008452,1001.441,0,0
47.84,-1.2390778999999998,-9.815526,0.25955445,1001.45355,0,0
47.88,-1.1100105,-9.82506,0.25955564,1001.436,0,0
47.92,-1.1195582,-9.796461,0.2548223,1001.43335,0,0
47.96,-1.1004263,-9.767861,0.2642923,1001.42596,0,0
48.0,-1.1051934,-9.777395,0.20748058,1001.42065,0,0
48.04,-1.1338611,-9.8631935,0.25482565,1001.41315,0,0
48.08,-1.1338469,-9.786929,0.18381087,1001.41565,0,0
48.12,-1.1529535,-9.763097,0.14593682,1001.4081,0,0
48.16,-1.0525649,-9.777396,0.17434439,1001.42834,0,0
48.2,-1.0286531,-9.810762,0.15540792,1001.4105,0,0
48.24,-0.9760634,-9.825063,0.18854988,1001.4108,0,0
48.28,-1.0142891,-9.810763,0.19328542,1001.4206,0,0
48.32,-1.0811937,-9.825063,0.14120813,1001.43616,0,0
48.36,-1.0429434000000002,-9.801231,0.18381885,1001.4234,0,0
48.4,-1.0528686,-9.772623,0.22639504,1001.43616,0,0
48.44,-1.0767701,-9.777389,0.15064436,1001.4233,0,0
48.48,-1.0719926000000002,-9.815521,0.1317065,1001.4311,0,0
48.52,-1.052876,-9.777389,0.17905033,1001.4385,0,0
48.56,-1.038539,-9.791689,0.18378448,1001.4535,0,0
48.6,-1.0289819,-9.763089,0.17431544,1001.4307,0,0
48.64,-1.0337646,-9.7249565,0.13170557,1001.42834,0,0
48.68,-1.0433264000000002,-9.815521,0.07489249,1001.42584,0,0
48.72,-0.95729244,-9.796455,0.07962667,1001.42596,0,0
48.76,-1.0576709999999998,-9.796454,0.103298455,1001.4487,0,0
48.8,-1.0528936000000002,-9.782155,0.13170466,1001.42065,0,0
48.84,-1.0003179,-9.801221,0.06068837,1001.43835,0,0
48.88,-0.9955408,-9.763088,0.15064183,1001.4234,0,0
48.92,-1.1150383999999998,-9.777388,0.18378241,1001.4181,0,0
48.96,-1.0529034,-9.739256,0.13170378,1001.4688,0,0
49.0,-1.0433465,-9.744022,0.15064111,1001.436,0,0
49.04,-1.1437247,-9.777388,0.1506409,1001.398,0,0
49.08,-1.1389476,-9.810754,0.16484389,1001.4234,0,0
49.12,-1.1198308,-9.887019,-0.015063725,1001.4234,0,0
49.16,-0.9334211,-9.834587,-0.03400157,1001.40826,0,0
49.2,-1.1915331,-9.820288,0.10329592,1001.4234,0,0
49.24,-1.2202141000000002,-9.810754,0.13643655,1001.43616,0,0
49.28,-1.2727944,-9.791688,0.202718,1001.4234,0,0
49.32,-1.2441182,-9.782154,0.16484253,1001.4184,0,0
49.36,-1.3683957,-9.834587,0.10329503,1001.4311,0,0
49.4,-1.3772938,-9.777404,0.2406533,1001.4412,0,0
49.44,-1.3485909,-9.705906,0.23118669,1001.43353,0,0
49.48,-1.3007686,-9.796472,0.24065772,1001.4234,0,0
49.52,-1.3007461,-9.748806,0.14123729999999998,1001.4282,0,0
49.56,-1.3102801000000002,-9.772639,0.12230201,1001.4284,0,0
49.6,-1.2767988,-9.767874,0.16017932,1001.4563,0,0
49.64,-1.2815562,-9.80124,0.20752546,1001.4311,0,0
49.68,-1.2432936,-9.786942,0.3495598,1001.4309,0,0
49.72,-1.2432694,-9.801242,0.13651377,1001.43616,0,0
49.76,-1.0950714,-9.791709,0.07970312,1001.4437,0,0
49.8,-1.0711483,-9.806009,0.29748797,1001.43353,0,0
49.84,-1.1523808,-9.772644,0.07023874,1001.45105,0,0
49.88,-1.1141181999999998,-9.7774105,0.21227309,1001.4184,0,0
49.92,-1.2001323,-9.782178,0.14125907,1001.43616,0,0
49.96,-1.1857687,-9.825077,0.046573184,1001.42834,0,0
50.0,-1.1188288999999998,-9.786946,-0.00076875836,1001.4184,0,0
50.04,-1.2621988000000002,-9.786947,0.122327924,1001.43854,0,0
50.08,-1.219158,-9.724981,0.122330025,1001.43335,0,0
50.12,-1.1283176,-9.782181,0.093925804,1001.41815,0,0
50.16,-1.2430089,-9.806014,0.09392801,1001.4131,0,0
50.2,-1.309902,-9.772649,0.09393022,1001.4412,0,0
50.24,-1.343335,-9.8012495,0.11287017,1001.4183,0,0
50.28,-1.1807976,-9.78695,0.08920035,1001.4257,0,0
50.32,-1.1712168,-9.791718,0.018186225,1001.42834,0,0
50.36,-1.1616316999999998,-9.85845,0.07026701,1001.43616,0,0
50.4,-1.2677776,-9.820293,0.079645164,1001.43616,0,0
50.44,-1.1817586000000002,-9.805992,0.17433167,1001.4563,0,0
50.48,-1.1005143,-9.701128,0.15539289999999994,1001.43335,0,0
50.52,-1.0144964,-9.777392,0.09857837,1001.4307,0,0
50.56,-0.9667158,-9.73926,0.08910793,1001.45374,0,0
50.6,-1.043207,-9.810758,0.07963783,1001.43866,0,0
50.64,-1.0432256,-9.791691,0.051229697000000005,1001.43866,0,0
50.68,-1.148397,-9.744025,0.0701659,1001.4437,0,0
50.72,-1.0671515,-9.7773905,-0.024523236,1001.4055,0,0
50.76,-1.119751,-9.767857,0.11750692,1001.4234,0,0
50.8,-1.2631565,-9.810756,0.05122422,1001.42584,0,0
50.84,-1.2536135,-9.791689,0.05122272,1001.43866,0,0
50.88,-1.301428,-9.834588,0.15064370000000002,1001.44104,0,0
50.92,-1.2679847,-9.74879,0.15064229,1001.4412,0,0
50.96,-1.2202042,-9.767855,0.19325031,1001.4437,0,0
51.0,-1.2966975,-9.7869215,0.23585847,1001.4307,0,0
51.04,-1.3301716,-9.777387,0.24059145,1001.45135,0,0
51.08,-1.3445276000000002,-9.805986,0.29266837,1001.43854,0,0
51.12,-1.2202692,-9.791686,0.26899487,1001.4055,0,0
51.16,-1.3445596000000002,-9.710654,0.31160307,1001.4412,0,0
51.2,-1.320678,-9.767853,0.24058542,1001.4385,0,0
51.24,-1.3302541,-9.767852,0.24531828,1001.4485,0,0
51.28,-1.3302696000000005,-9.786919,0.19797282,1001.43835,0,0
51.32,-1.2394696000000005,-9.748785,0.23111215,1001.45135,0,0
51.36,-1.3350824,-9.777384,0.29265794,1001.43854,0,0
51.4,-1.2681816,-9.786917,0.31159404,1001.42584,0,0
51.44,-1.3207738000000002,-9.739251,0.25004545,1001.4206,0,0
51.48,-1.1917367,-9.786917,0.25477824,1001.45123,0,0
51.52,-1.3447069,-9.820282,0.3115896,1001.45123,0,0
51.56,-1.2347878,-9.782148,0.24530642,1001.44354,0,0
51.6,-1.3160601,-9.739249,0.35893074,1001.43097,0,0
51.64,-1.3351948,-9.786915,0.29264766,1001.4359,0,0
51.68,-1.2823681999999998,-9.815519,0.33528006,1001.4184,0,0
51.72,-1.2536974,-9.753554,0.24059123,1001.4435,0,0
51.76,-1.2011272,-9.753554,0.3021378,1001.4488,0,0
51.8,-1.2298143999999998,-9.777387,0.31160578,1001.4234,0,0
51.84,-1.2011428999999998,-9.777387,0.30213636,1001.441,0,0
51.88,-1.3063071000000002,-9.825051,0.26426032,1001.43866,0,0
51.92,-1.2585171,-9.77262,0.28793159999999995,1001.4359,0,0
51.96,-1.2298459,-9.77262,0.31160292,1001.4412,0,0
52.0,-1.2680924,-9.777386,0.29739898,1001.43616,0,0
52.04,-1.2537607,-9.7964525,0.33527353,1001.4488,0,0
52.08,-1.3254669,-9.796452,0.25478779999999995,1001.42584,0,0
52.12,-1.3063546,-9.734486,0.34474084,1001.42084,0,0
52.16,-1.311142,-9.710653,0.34947455,1001.4334,0,0
52.2,-1.3159305,-9.815517,0.29739532,1001.42596,0,0
52.24,-1.244241,-9.744019,0.2642538,1001.4412,0,0
52.28,-1.3063866000000002,-9.791684,0.33053473,1001.436,0,0
52.32,-1.287276,-9.815516,0.26425228,1001.40326,0,0
52.36,-1.3637602,-9.734485,0.2973924000000001,1001.42084,0,0
52.4,-1.2777319,-9.763084,0.24531318,1001.4334,0,0
52.44,-1.3207583,-9.772617,0.25951567,1001.42834,0,0
52.48,-1.3255458,-9.763083,0.32579663,1001.4307,0,0
52.52,-1.3112138999999998,-9.744018,0.32106155,1001.4311,0,0
52.56,-1.2347457,-9.729718,0.26424790000000004,1001.4359,0,0
52.6,-1.0913596,-9.782149,0.17429347,1001.42065,0,0
52.64,-1.1535051,-9.758316,0.26424643,1001.44354,0,0
52.68,-1.2097578000000002,-9.76311,0.32116044,1001.42084,0,0
52.72,-1.1236856000000002,-9.782177,0.22174117,1001.41077,0,0
52.76,-1.2383655,-9.796478,0.29749492,1001.45105,0,0
52.8,-1.3195866000000005,-9.806012,0.24068531,1001.44104,0,0
52.84,-1.3099915000000002,-9.763114,0.3874551,1001.4184,0,0
52.88,-1.4820312,-9.791714,0.5152871,1001.4309,0,0
52.92,-1.5250161,-9.715449,0.4774149,1001.436,0,0
52.96,-1.5918956,-9.772649,0.43007427,1001.4334,0,0
53.0,-1.6205411,-9.729752,0.449015,1001.41565,0,0
53.04,-1.7160995,-9.763118,0.420612,1001.4184,0,0
53.08,-1.4914155,-9.710687,0.48689672,1001.4183,0,0
53.12,-1.2523897,-9.815552,0.34013340000000003,1001.4234,0,0
53.16,-1.0516024,-9.825086,0.24544854,1001.42596,0,0
53.2,-0.955973,-9.801254,0.26438925,1001.4462,0,0
53.24,-1.0802124,-9.796488,0.30700213,1001.45135,0,0
53.28,-1.2140114,-9.820323,0.38275588,1001.43866,0,0
53.32,-1.3812714,-9.767891,0.29280522,1001.4334,0,0
53.36,-1.3812357,-9.767891,0.27860525,1001.4309,0,0
53.4,-1.3238426,-9.772658,0.21232684,1001.4286,0,0
53.44,-1.3333688999999995,-9.810792,0.19339223,1001.4412,0,0
53.48,-1.3189918,-9.744061,0.1886613,1001.4282,0,0
53.52,-1.3046169,-9.777428,0.060835622,1001.43616,0,0
53.56,-1.2185472,-9.844161,0.16026120000000002,1001.42834,0,0
53.6,-1.0751175,-9.758364,0.21234289,1001.42834,0,0
53.64,-1.1718332,-9.763103,0.06547385,1001.4437,0,0
53.68,-1.128825,-9.834601,0.17436424,1001.43616,0,0
53.72,-1.2053139,-9.796468,0.16962871,1001.4286,0,0
53.76,-0.951995,-9.801234,0.2264406,1001.45135,0,0
53.8,-0.7751536,-9.839366,0.1459547,1001.4286,0,0
53.84,-0.760825,-9.806001,0.022859171,1001.44604,0,0
53.88,-0.73215747,-9.863198,0.0039205328,1001.42584,0,0
53.92,-0.8182054,-9.867965,0.08440434,1001.4055,0,0
53.96,-0.8564552,-9.786934,0.16962259,1001.42316,0,0
54.0,-0.97118276,-9.786933,0.079667784,1001.43616,0,0
54.04,-0.9520742,-9.796466,0.10333882,1001.4183,0,0
54.08,-0.99032396,-9.815532,0.17908825,1001.4309,0,0
54.12,-1.0381328,-9.767865,0.13647763,1001.4435,0,0
54.16,-1.0046864,-9.791698,0.16488293,1001.43335,0,0
54.2,-1.0238155,-9.815531,0.018115485,1001.4311,0,0
54.24,-1.1003045,-9.763098,0.16961534,1001.4462,0,0
54.28,-1.0907563,-9.7916975,0.093863815,1001.44104,0,0
54.32,-1.0859879,-9.796464,0.12700361,1001.45105,0,0
54.36,-1.1337944,-9.810763,0.12226841,1001.41315,0,0
54.4,-1.0812303,-9.810762,0.14593920000000002,1001.3904,0,0
54.44,-1.1481589,-9.805996,0.13646933,1001.42584,0,0
54.48,-1.1003695,-9.796463,0.09385892,1001.4462,0,0
54.52,-1.0812645,-9.767862,0.06545117,1001.42584,0,0
54.56,-1.023914,-9.786929,0.13646660000000002,1001.43866,0,0
54.6,-1.152983,-9.7487955,0.16960612,1001.4437,0,0
54.64,-1.1577722,-9.801229,0.20748052,1001.43835,0,0
54.68,-1.1621442,-9.782171,0.0891577,1001.4435,0,0
54.72,-1.1095612,-9.782171,0.17437747,1001.4311,0,0
54.76,-1.1095549,-9.791706,0.11283079,1001.43866,0,0
54.8,-1.0904322,-9.844138,0.122299924,1001.4437,0,0
54.84,-1.1191056,-9.801239,0.08915956,1001.4412,0,0
54.88,-1.0569634,-9.772639,0.15544167,1001.4286,0,0
54.92,-1.0856358999999998,-9.839371,0.20752071,1001.4334,0,0
54.96,-1.138209,-9.78694,0.22172436,1001.40814,0,0
55.0,-1.1286452,-9.801239,0.15544306,1001.42334,0,0
55.04,-1.1477594,-9.801239,0.17911555,1001.43616,0,0
55.08,-1.1573133,-9.7964735,0.16017847,1001.42834,0,0
55.12,-1.13819,-9.820307,0.13650681,1001.42596,0,0
55.16,-1.2290014,-9.882272,0.1791169,1001.42584,0,0
55.2,-1.2003173,-9.791707,0.122304514,1001.43616,0,0
55.24,-1.1429545,-9.758341,0.15071142,1001.4184,0,0
55.28,-1.1047113000000002,-9.758341,0.0844302,1001.43866,0,0
55.32,-1.1572841,-9.791707,0.13177472,1001.42334,0,0
55.36,-1.1716183,-9.786941,0.15071277,1001.4233,0,0
55.4,-1.1333752,-9.753575,0.10810357,1001.4311,0,0
55.44,-1.1238105,-9.853673,0.09863524,1001.42084,0,0
55.48,-1.0425488,-9.81554,0.13177654,1001.42584,0,0
55.52,-1.0616629,-9.782174,0.13177702,1001.43866,0,0
55.56,-1.0520985,-9.777408,0.10810539,1001.4385,0,0
55.6,-1.066433,-9.786942,0.09863707,1001.42584,0,0
55.64,-1.0042905,-9.8489065,0.15071598,1001.4286,0,0
55.68,-1.0383886,-9.786926,0.06543815,1001.44104,0,0
55.72,-1.0670877,-9.734492,0.11751476,1001.42584,0,0
55.76,-1.1053463,-9.834591,0.06543444,1001.4589,0,0
55.8,-1.0719093000000002,-9.786924,0.108042106,1001.41815,0,0
55.84,-1.0767095,-9.796457,0.08436824,1001.4412,0,0
55.88,-1.0671701,-9.810756,0.051225543,1001.4334,0,0
55.92,-1.0624093,-9.834589,0.013348563,1001.4437,0,0
55.96,-1.0050707,-9.829822,0.09383168,1001.42334,0,0
56.0,-1.0815692,-9.763089,0.09382971,1001.42584,0,0
56.04,-1.048127,-9.744022,0.07015619,1001.44867,0,0
56.08,-1.0529296,-9.796454,0.046482064,1001.43616,0,0
56.12,-1.0338308,-9.805986,0.08435546,1001.43353,0,0
56.16,-1.1198876,-9.801219,0.10802561,1001.446,0,0
56.2,-1.0816693000000002,-9.810752,0.0322733,1001.42316,0,0
56.24,-1.0960267,-9.74402,0.10802214,1001.4412,0,0
56.28,-0.9956722,-9.772619,0.10802017,1001.43866,0,0
56.32,-1.0291499,-9.753552,0.07961197,1001.4462,0,0
56.36,-1.0435109,-9.8059845,0.09381321,1001.4462,0,0
56.4,-1.0387502,-9.786917,-0.024548654,1001.42584,0,0
56.44,-1.0339906,-9.877481,0.09854403,1001.4307,0,0
56.48,-0.9336338,-9.791682000000002,0.027526228,1001.41815,0,0
56.52,-0.9623329,-9.796449,0.0038523562,1001.45135,0,0
56.56,-1.0053715,-9.83458,0.06539775,1001.4311,0,0
56.6,-1.0531896,-9.758315,0.046458267,1001.4409,0,0
56.64,-1.1105664,-9.805981,0.07486296,1001.44354,0,0
56.68,-1.109713,-9.829833,0.070206665,1001.42334,0,0
56.72,-1.0380038,-9.75357,0.10808301,1001.4412,0,0
56.76,-0.99018997,-9.715438,0.06547482,1001.4208,0,0
56.8,-1.0045164,-9.934699,0.013397569,1001.4435,0,0
56.84,-1.1622358999999998,-9.853668,0.018133244,1001.43854,0,0
56.88,-1.2482592,-9.724971,-0.04814722,1001.41565,0,0
56.92,-1.2721454,-9.777404,0.15543337,1001.45135,0,0
56.96,-1.061819,-9.786938,0.07021544,1001.4437,0,0
57.0,-0.9805483,-9.777404,0.108091965,1001.42615,0,0
57.04,-0.9518565,-9.8679695,0.037077066,1001.4435,0,0
57.08,-0.9327233,-9.82507,0.05128159,1001.4412,0,0
57.12,-1.0283046,-9.83937,0.122299016,1001.4286,0,0
57.16,-1.0617502,-9.767873,0.089159355,1001.4334,0,0
57.2,-1.090415,-9.829838,0.11283268,1001.4535,0,0
57.24,-1.090401,-9.78694,0.08442752,1001.42834,0,0
57.28,-1.1525253999999998,-9.686843,0.051287893,1001.436,0,0
57.32,-1.1716307,-9.834606,0.03708593,1001.41815,0,0
57.36,-1.2528743999999998,-9.729742,0.09390001,1001.42584,0,0
57.4,-1.1477038,-9.748808,0.12230779,1001.4081,0,0
57.44,-1.0616534,-9.772641,0.11757466,1001.42584,0,0
57.48,-1.0759796999999998,-9.834608,0.15545109,1001.446,0,0
57.52,-1.3101752,-9.834608,0.117577225,1001.446,0,0
57.56,-1.3675198999999998,-9.801242,0.1033752,1001.42596,0,0
57.6,-1.3579463,-9.79171,0.098642066,1001.42065,0,0
57.64,-1.1428428,-9.753577,0.09864319,1001.4233,0,0
57.68,-1.0767541,-9.786922,0.07489532,1001.4081,0,0
57.72,-1.15325,-9.839354,0.08436239999999999,1001.43866,0,0
57.76,-1.1676072,-9.767855,0.11750159,1001.4158,0,0
57.8,-1.1676263,-9.777388,0.16010949,1001.4409,0,0
57.84,-1.2680211,-9.801221,0.103294894,1001.4412,0,0
57.88,-1.253702,-9.744021,0.18851233,1001.441,0,0
57.92,-1.2823975,-9.753554,0.14116678,1001.42834,0,0
57.96,-1.1820406,-9.78692,0.11275861,1001.4412,0,0
58.0,-1.2155194,-9.929915,0.07961592,1001.43854,0,0
58.04,-1.1342818,-9.834584,0.079614185,1001.4412,0,0
58.08,-1.2776937,-9.739253,0.098550156,1001.43616,0,0
58.12,-1.2538139,-9.825049,0.11275163,1001.4359,0,0
58.16,-1.225154,-9.705886,0.25004762,1001.4688,0,0
58.2,-1.2586316,-9.748784,0.14115459,1001.44354,0,0
58.24,-1.2108504,-9.758317,0.1979659,1001.4511,0,0
58.28,-1.2013097,-9.782148,0.11274488,1001.4586,0,0
58.32,-1.1774308999999998,-9.744017,0.17429028,1001.4234,0,0
58.36,-1.096192,-9.720182,0.108007,1001.42584,0,0
58.4,-1.2300467,-9.820281,0.13641158,1001.4357,0,0
58.44,-1.1870451000000002,-9.829813,0.14587887,1001.43866,0,0
58.48,-1.115367,-9.796447,0.07486104,1001.45135,0,0
58.52,-1.1823034,-9.767846,0.12220335,1001.4311,0,0
58.56,-1.1106254,-9.710648,0.11273281,1001.45374,0,0
58.6,-1.1010859,-9.629615,0.065386906,1001.42584,0,0
58.64,-1.1287508,-9.643939,0.09388614,1001.4286,0,0
58.68,-1.1574069,-9.629641,0.12229465,1001.42596,0,0
58.72,-1.0570152,-9.59151,0.08915526,1001.4184,0,0
58.76,-1.0808898999999998,-9.496178,0.060751043,1001.4309,0,0
58.8,-1.0665292,-9.3293495,0.089159444,1001.4208,0,0
58.84,-1.090401,-9.486647,0.108099535,1001.42596,0,0
58.88,-1.0616994,-9.391315,0.09863283,1001.46387,0,0
58.92,-0.98519826,-9.529547,-0.02919386,1001.43353,0,0
58.96,-1.0616609,-9.438982,0.084433146,1001.4309,0,0
59.0,-0.95648086,-9.605813,0.074966535,1001.4286,0,0
59.04,-0.90866154,-9.205422,0.032358885,1001.40326,0,0
59.08,-1.0137887,-9.305521,-0.0102481805,1001.43353,0,0
59.12,-0.9516341,-9.48665,0.13651995,1001.42615,0,0
59.16,-0.99940926,-9.400853,0.051302765,1001.4311,0,0
59.2,-0.9707105,-9.37702,0.0039605573,1001.42596,0,0
59.24,-0.9515657,-9.276923,0.013431672,1001.43616,0,0
59.28,-0.9180841,-9.353189,0.07971543,1001.42596,0,0
59.32,-0.9897583,-9.195892,0.060779903,1001.42084,0,0
59.36,-0.99451536,-9.329357,-0.038640495,1001.4106,0,0
59.4,-0.9132373,-9.1053295,0.079721585,1001.4286,0,0
59.44,-0.9753533,-9.262627,0.06552032,1001.42584,0,0
59.48,-0.9036334,-9.172063,0.05605361,1001.43353,0,0
59.52,-0.8653707,-9.167296,0.0181806,1001.4282,0,0
59.56,-0.9418261999999998,-9.157764,0.032385774,1001.41565,0,0
59.6,-0.8987851999999998,-9.224496,-0.033893805,1001.4286,0,0
59.64,-0.88526344,-9.16251,0.06545385,1001.43353,0,0
59.68,-0.90439194,-9.119612,-0.019766297,1001.4334,0,0
59.72,-0.92830235,-9.043346,-0.024501767,1001.4334,0,0
59.76,-0.91875345,-9.091011,0.07491977,1001.46893,1,3
59.8,-0.9139844,-9.048113,-0.010300484,1001.45105,1,3
59.84,-0.8996565000000001,-9.143444,0.046511307,1001.4664,1,3
59.88,-0.88054866,-9.124376,0.055979095,1001.4488,1,3
59.92,-0.9331386,-9.10531,0.008633915,1001.44867,1,3
59.96,-0.95226854,-9.172042,0.041773777000000005,1001.4789,1,3
60.0,-0.9666193,-9.1577425,0.09385118,1001.44867,1,3
60.04,-0.93317145,-9.191108,0.018099729,1001.4742,1,3
60.08,-0.95708185,-9.238772,-0.03871418,1001.46387,1,3
60.12,-0.91885334,-9.291205,0.11752026,1001.4688,1,3
60.16,-1.0288018,-9.319804,0.027565397,1001.46655,1,3
60.2,-1.0335923,-9.243539,0.084377274,1001.48413,1,3
60.24,-0.96668714,-9.33887,0.11278258,1001.454,1,3
60.28,-1.0144959999999998,-9.357936,0.070171975,1001.4588,1,3
60.32,-1.0192864,-9.343635,0.09384301,1001.4664,1,3
60.36,-1.0192986,-9.448499,0.032294653,1001.4917,1,3
60.4,-1.0527686,-9.462799,0.12224729,1001.4638,1,3
60.44,-1.0288788,-9.496165,0.07490239,1001.49695,1,3
60.48,-1.0862495,-9.519998,0.03702597,1001.4794,1,3
60.52,-1.0671415000000002,-9.472331,0.093837775,1001.4893,1,3
60.56,-1.0097946,-9.486631,0.0038831308,1001.517,1,3
60.6,-1.076724,-9.539062,0.065429255,1001.49426,1,3
60.64,-1.0528356,-9.496163,0.06542829,1001.5171,1,3
60.68,-1.0860145,-9.515236,0.12700117,1001.5249,1,3
60.72,-1.0955741,-9.524769,0.041781876,1001.51215,1,3
60.76,-1.0190972,-9.5009365,0.10806355,1001.5349,1,3
60.8,-1.0429962,-9.539068,0.060719498,1001.54724,1,3
60.84,-1.0382164,-9.643932,-0.0008277483,1001.5603,1,3
60.88,-1.0143174,-9.691598,0.07492271,1001.5553,1,3
60.92,-0.9808587,-9.715432,0.032313086,1001.55255,1,3
60.96,-1.023877,-9.710665,0.060719498,1001.5652,1,3
61.0,-1.0764549,-9.720198,0.046516284000000005,1001.5501,1,3
61.04,-1.1099135,-9.748796,0.16961081,1001.573,1,3
61.08,-1.0812346000000002,-9.887027,0.11753237,1001.55786,1,3
61.12,-1.0716751,-9.853662,0.10806355,1001.5807,1,3
61.16,-1.0955741,-9.820296,0.093860336,1001.60815,1,3
61.2,-1.0525558000000002,-9.853662,0.122266755,1001.59076,1,3
61.24,-1.1290327,-9.763097,0.11279796,1001.60315,1,3
61.28,-1.1529317,-9.796463,0.10332914,1001.5858,1,3
61.32,-1.0907942,-9.724964,0.06545391,1001.61365,1,3
61.36,-1.0812346000000002,-9.767863,0.07492271,1001.62103,1,3
61.4,-1.1003538,-9.805996,0.15067318,1001.631,1,3
61.44,-1.0812346000000002,-9.682066,0.12700117,1001.6312,1,3
61.48,-1.1242528,-9.810762,0.17434521,1001.6362,1,3
61.52,-1.0716751,-9.705898,0.11279796,1001.6514,1,3
61.56,-1.0860145,-9.7392645,0.09859474,1001.64404,1,3
61.6,-1.0668951999999998,-9.777396,0.11279796,1001.63873,1,3
61.64,-1.0382164,-9.820296,0.13173558,1001.6463,1,3
61.68,-0.9998163,-9.882265,0.10807833,1001.65405,1,3
61.72,-0.9950294,-9.872732,0.108079016,1001.6362,1,3
61.76,-1.0906196,-9.853666,0.10807954,1001.6669,1,3
61.8,-1.0571547,-9.8489,0.10334572,1001.67413,1,3
61.84,-0.99023134,-9.872732,0.08914304,1001.6665,1,3
61.88,-1.0284631,-9.887032,0.03233082,1001.64655,1,3
61.92,-0.97109956,-9.887032,0.09861304,1001.6843,1,3
61.96,-1.0045518,-9.786936,0.09387918,1001.6691,1,3
62.0,-1.0284444,-9.72497,0.037066907,1001.6895,1,3
62.04,-1.0427774,-9.729737,0.1270212,1001.7071,1,3
62.08,-1.0379918,-9.820302,0.08441208,1001.7222,1,3
62.12,-0.99974656,-9.73927,0.10335031,1001.7172,1,3
62.16,-1.0284195,-9.705904,0.1270229,1001.7074,1,3
62.2,-1.0523121000000002,-9.758336,0.08441383,1001.69476,1,3
62.24,-1.0140679,-9.79647,0.060742356,1001.6944,1,3
62.28,-1.04752,-9.820303,0.07021176,1001.7301,1,3
62.32,-1.0618535,-9.853668,0.098618716,1001.73004,1,3
62.36,-1.033168,-9.825068,0.051275287,1001.7453,1,3
62.4,-1.0283818,-9.858435,0.08441671,1001.7325,1,3
62.44,-1.0427148000000002,-9.882269,0.09862049,1001.72003,1,3
62.48,-1.0522685,-9.891802,0.07494901,1001.7427,1,3
62.52,-1.0427037,-9.844136,0.051277466,1001.7503,1,3
62.56,-1.0140179,-9.744039,0.10809097,1001.7375,1,3
62.6,-1.0044519,-9.71544,0.037075475,1001.7378,1,3
62.64,-1.0326229999999998,-9.734517,0.15074767,1001.77045,1,3
62.68,-1.0134789,-9.701153,0.0892027,1001.76276,1,3
62.72,-1.066035,-9.734519,0.06553266,1001.7426,1,3
62.76,-0.9847533000000002,-9.7297535,0.032394137,1001.7655,1,3
62.8,-1.0133989,-9.696388,0.06553799,1001.7704,1,3
62.84,-0.98947483,-9.74882,0.06080588,1001.7783,1,3
62.88,-0.97989523,-9.80602,0.07501092,1001.76575,1,3
62.92,-1.003761,-9.829853,0.041873116,1001.7756,1,3
62.96,-1.003741,-9.820321,0.08448459,1001.80115,1,3
63.0,-0.9989295,-9.848921,0.12236275,1001.7655,1,3
63.04,-1.0753848999999998,-9.8775215,0.022942223,1001.80597,1,3
63.08,-1.0132208,-9.915654,0.098695144,1001.8036,1,3
63.12,-1.0275369,-9.887054,0.07029083,1001.79865,1,3
63.16,-0.9462518,-9.810791,0.018214969,1001.8011,1,3
63.2,-1.0227021,-9.8060255,0.06556146,1001.8212,1,3
63.24,-1.0083376,-9.748826,0.079766974,1001.82635,1,3
63.28,-1.0035312,-9.715462,0.03242535,1001.84424,1,3
63.32,-1.0130643,-9.767895,0.018224569,1001.8238,1,3
63.36,-1.0034779,-9.763128,0.09397749,1001.8316,1,3
63.4,-0.97955394,-9.744063,0.051370118,1001.8316,1,3
63.44,-1.0560043,-9.786963,0.046638153,1001.86676,1,3
63.48,-0.94604206,-9.782196,0.09871906,1001.84186,1,3
63.52,-1.0463914,-9.80603,0.07504947,1001.83655,1,3
63.56,-1.0081279,-9.839396,0.10819258,1001.8339,1,3
63.6,-1.0033215,-9.84893,0.07031979,1001.8492,1,3
63.64,-1.0128561,-9.844165,0.07032208,1001.88983,1,3
63.68,-1.014408,-9.906092,0.027570374,1001.8542,1,3
63.72,-1.0526819,-9.848892,0.11278641,1001.8746,1,3
63.76,-1.0574974,-9.758327,0.09857996,1001.86707,1,3
63.8,-1.0431935,-9.8202915,0.10331109,1001.8769,1,3
63.84,-1.0623459,-9.786924,0.15538651,1001.86707,1,3
63.88,-1.0289273,-9.729725,0.07963236,1001.9074,1,3
63.92,-1.0767586,-9.739257,0.15537979999999998,1001.8796,1,3
63.96,-1.0672301000000002,-9.786922,0.14590813,1001.89734,1,3
64.0,-1.1102861000000002,-9.748789,0.11276385,1001.9278,1,3
64.04,-1.1198812,-9.763087,0.17904228,1001.89496,1,3
64.08,-1.1342561000000002,-9.686822,0.16010139999999998,1001.8999,1,3
64.12,-1.1151723999999998,-9.791685,0.060675647,1001.9,1,3
64.16,-1.1343272,-9.834583,0.15062606,1001.90765,1,3
64.2,-1.2395183,-9.829816,0.18376365,1001.92535,1,3
64.24,-1.22521,-9.791682000000002,0.19796404,1001.91754,1,3
64.28,-1.2826033,-9.753549,0.25003925,1001.9481,1,3
64.32,-1.2874185,-9.839345,0.13167588,1001.9356,1,3
64.36,-1.2444358,-9.863179,0.14587583,1001.9456,1,3
64.4,-1.2253478,-9.73448,0.18374823,1001.9379,1,3
64.44,-1.4118,-9.85841,0.14113492,1001.9657,1,3
64.48,-1.3305767,-9.720179,0.20741354,1001.9656,1,3
64.52,-1.4692264,-9.696345,0.19794148,1001.9659,1,3
64.56,-1.4740441,-9.753543,0.30209494,1001.98584,1,3
64.6,-1.4310591,-9.634378,0.35417035,1001.9683,1,3
64.64,-1.4788926000000002,-9.710642,0.26421338,1001.9836,1,3
64.68,-1.4633573,-9.705905,0.2974637,1001.9836,1,3
64.72,-1.4490061,-9.6391735,0.3069336,1001.9683,1,3
64.76,-1.5541482,-9.71544,0.29746604,1002.00104,1,3
64.8,-1.5971545,-9.7535715,0.26906067,1001.99347,1,3
64.84,-1.5684623,-9.767871,0.27379632,1001.99896,1,3
64.88,-1.5493311,-9.777405,0.34481347,1002.0037,1,3
64.92,-1.6162359,-9.763105,0.35428348,1002.01654,1,3
64.96,-1.6879208,-9.777405,0.27379966,1002.01404,1,3
65.0,-1.6114322,-9.791706,0.31167597,1002.00653,1,3
65.04,-1.5588408,-9.705908,0.30220842,1002.0268,1,3
65.08,-1.4536732,-9.75834,0.25013104,1002.01385,1,3
65.12,-1.4632201,-9.6296425,0.32114828,1002.0165,1,3
65.16,-1.5444641,-9.705909,0.20752372,1002.0495,1,3
65.2,-1.5014341,-9.653477,0.28327529999999995,1002.04443,1,3
65.24,-1.5683377,-9.677309,0.28327653,1002.0218,1,3
65.28,-1.6065644,-9.710676,0.28801203,1002.04443,1,3
65.32,-1.5874324,-9.658244,0.321154,1002.05725,1,3
65.36,-1.5396216,-9.59628,0.28327996,1002.0522,1,3
65.4,-1.5778475,-9.705911,0.33535957,1002.0595,1,3
65.44,-1.7021105,-9.848907,0.316423,1002.0518,1,3
65.48,-1.5969412,-9.729745,0.29748663,1002.04706,1,3
65.52,-1.6064898,-9.77741,0.36850375,1002.062,1,3
65.56,-1.5969168,-9.720211,0.3116921,1002.0774,1,3
65.6,-1.6255836,-9.79171,0.32116202,1002.08215,1,3
65.64,-1.501296,-9.782177,0.30222556,1002.09265,1,3
65.68,-1.4973155,-9.763091,0.30215237,1002.0698,1,3
65.72,-1.5929271,-9.720192,0.31635416,1002.0924,1,3
65.76,-1.5833889,-9.724957,0.33528984,1002.09265,1,3
65.8,-1.5451684,-9.7154255,0.32581937,1002.0875,1,3
65.84,-1.5451874,-9.643925,0.32581764,1002.095,1,3
65.88,-1.4974083,-9.634393,0.34001914,1002.13544,1,3
65.92,-1.4544091,-9.724956,0.2690013,1002.10754,1,3
65.96,-1.5213443000000002,-9.710656,0.30214050000000003,1002.1101,1,3
66.0,-1.507025,-9.710655,0.27846664,1002.1229,1,3
66.04,-1.4688056,-9.758321,0.27373046,1002.1382,1,3
66.08,-1.4975023,-9.74402,0.27372885,1002.1203,1,3
66.12,-1.4640615,-9.801219,0.28793043,1002.13824,1,3
66.16,-1.4736402,-9.777385,0.2121782,1002.1282,1,3
66.2,-1.4449803999999995,-9.782151,0.27372372,1002.1408,1,3
66.24,-1.4641198,-9.767851,0.2689875,1002.15576,1,3
66.28,-1.4545792,-9.815516,0.22637607,1002.1534,1,3
66.32,-1.4115788,-9.724951,0.23110886,1002.151,1,3
66.36,-1.4115966999999998,-9.720184,0.24057606,1002.1761,1,3
66.4,-1.2729979,-9.753551,0.2026994,1002.1965,1,3
66.44,-1.3638366000000002,-9.7011175,0.22636932,1002.1888,1,3
66.48,-1.3877488000000002,-9.69635,0.24057138,1002.1814,1,3
66.52,-1.282617,-9.729716,0.10327144,1002.18896,1,3
66.56,-1.3973513000000002,-9.672516,0.24530186,1002.1937,1,3
66.6,-1.2587571000000002,-9.691583,0.1411431,1002.19885,1,3
66.64,-1.311348,-9.7726145,0.18848594,1002.2041,1,3
66.68,-1.2626302,-9.820302,0.08914763,1002.20154,1,3
66.72,-1.1957006,-9.782169,0.17910245,1002.2091,1,3
66.76,-1.3199522,-9.829835,0.1222917,1002.22186,1,3
66.8,-1.3342786,-9.81077,0.17437139,1002.21436,1,3
66.84,-1.291239,-9.801237,0.17910773,1002.21686,1,3
66.88,-1.2386435,-9.83937,0.15070291,1002.21686,1,3
66.92,-1.1956129999999998,-9.829837,0.16490723,1002.2216,1,3
66.96,-1.2720722,-9.782171,0.13650243,1002.25476,1,3
67.0,-1.2194756000000002,-9.7440405,0.14597298,1002.2446,1,3
67.04,-1.2194589,-9.748806,0.14597452,1002.2217,1,3
67.08,-1.2863573,-9.77264,0.19805467,1002.24445,1,3
67.12,-1.1955243,-9.672543,0.14124335,1002.23425,1,3
67.16,-1.185948,-9.672544,0.14124487,1002.2597,1,3
67.2,-1.2193889999999998,-9.701143,0.10337125,1002.2473,1,3
67.24,-1.1620135,-9.682078,0.098638475,1002.2647,1,3
67.28,-1.2241333,-9.763109,0.14598414,1002.2725,1,3
67.32,-1.2719135,-9.763109,0.16018897,1002.28253,1,3
67.36,-1.2001988,-9.796476,0.14125301,1002.2777,1,3
67.4,-1.1762841,-9.829842,0.12231679,1002.2926,1,3
67.44,-1.1762654,-9.934708,0.09864652,1002.28784,1,3
67.48,-1.2288253,-9.848909,0.17913301,1002.28,1,3
67.52,-1.2049098,-9.758346,0.12232165,1002.2827,1,3
67.56,-1.1905526000000002,-9.801245,0.13652653,1002.3132,1,3
67.6,-1.1953146,-9.810779,0.15546577,1002.3383,1,3
67.64,-1.1092603,-9.748813,0.14126417,1002.30054,1,3
67.68,-1.095194,-9.720207,0.10809836,1002.3208,1,3
67.72,-1.0999678,-9.739274,0.098630086,1002.3308,1,3
67.76,-1.1573191,-9.729741,0.07495864,1002.3308,1,3
67.8,-1.128634,-9.791706,0.09863126,1002.35114,1,3
67.84,-1.0999488000000002,-9.782173,0.15071027,1002.3562,1,3
67.88,-1.142961,-9.720208,0.13650762,1002.3436,1,3
67.92,-1.1381745,-9.720208,0.07022658,1002.3538,1,3
67.96,-1.1142691,-9.829839,0.1317744,1002.35596,1,3
68.0,-1.1142635,-9.829839,0.09389968,1002.3562,1,3
68.04,-1.1668346,-9.863205,0.18385398,1002.3512,1,3
68.08,-1.1668286,-9.882273,0.11757286,1002.3384,1,3
68.12,-1.1620426,-9.81554,0.117573455,1002.3713,1,3
68.16,-1.1190184,-9.806007,0.11757398,1002.37885,1,3
68.2,-1.0998928999999995,-9.772641,0.10810575,1002.417,1,3
68.24,-1.0951064,-9.806007,0.03709029,1002.38654,1,3
68.28,-1.1572374,-9.791708,0.1459822,1002.407,1,3
68.32,-1.0950941,-9.724977,0.08443547,1002.39685,1,3
68.36,-1.1237663999999998,-9.724977,0.14598332,1002.42474,1,3
68.4,-1.1476592,-9.796475,0.089171045,1002.4067,1,3
68.44,-1.056837,-9.767876,0.08443718,1002.42206,1,3
68.48,-1.109408,-9.7869425,0.12704743,1002.4169,1,3
68.52,-1.1572002,-9.696379,0.08917275,1002.4044,1,3
68.56,-1.1380746000000002,-9.76311,0.065501295,1002.4172,1,3
68.6,-1.1285086000000002,-9.867974,0.05129867,1002.42975,1,3
68.64,-1.085484,-9.877508,0.07497127,1002.4298,1,3
68.68,-1.081993,-9.901309,0.12693176,1002.4449,1,3
68.72,-1.0390191,-9.858408,0.0275052,1002.4652,1,3
68.76,-1.0342809000000002,-9.844108,0.055907827,1002.4677,1,3
68.8,-0.9913098,-9.834574,0.04170027,1002.4829,1,3
68.84,-1.0534888999999998,-9.858405,0.05116529,1002.4498,1,3
68.88,-1.0344114,-9.796439,0.0653647,1002.45245,1,3
68.92,-1.0392382,-9.73924,0.084298,1002.4804,1,3
68.96,-1.0058213,-9.748772,0.07955979,1002.48804,1,3
69.0,-1.0154253,-9.724938,0.051149298,1002.4881,1,3
69.04,-1.0154698,-9.710636,-0.0104020275,1002.4954,1,3
69.08,-1.0298535,-9.791667,0.06534438,1002.4929,1,3
69.12,-1.0442373,-9.744,0.06060591,1002.5159,1,3
69.16,-1.1494347,-9.7439995,0.07953969999999999,1002.52856,1,3
69.2,-1.077782,-9.734465,0.08900444,1002.5233,1,3
69.24,-1.1065052,-9.858395,0.093734786,1002.5336,1,3
69.28,-1.0539716,-9.901293,0.084261924,1002.55646,1,3
69.32,-1.154392,-9.886992,0.093726665,1002.531,1,3
69.36,-1.1639961,-9.810725,0.09845701,1002.5159,1,3
69.4,-1.1735945,-9.848857,0.09845347,1002.5158,1,3
69.44,-1.1401802,-9.834557,0.09844941,1002.54395,1,3
69.48,-1.1115485,-9.834556,0.117382705,1002.5512,1,3
69.52,-1.1307121999999998,-9.796422,0.122113034,1002.5844,1,3
69.56,-1.04472,-9.763055,0.10317135,1002.58435,1,3
69.6,-1.0734406,-9.705855,0.14577720000000002,1002.5793,1,3
69.64,-1.1212802,-9.763052,0.12210134,1002.5666,1,3
69.68,-1.1392453000000002,-9.767847,0.051190943,1002.58685,1,3
69.72,-1.0675457,-9.810746,0.032253567000000004,1002.60455,1,3
69.76,-1.0675429,-9.758315,0.07959784,1002.59955,1,3
69.8,-1.0771004,-9.739248,0.08433245,1002.6224,1,3
69.84,-1.0340794,-9.858413,0.046457443,1002.61224,1,3
69.88,-1.1201134,-9.925145,0.03698886,1002.6097,1,3
69.92,-1.0388541,-9.891779,0.027520306,1002.6095,1,3
69.96,-1.0770904,-9.872712,0.06539574,1002.5895,1,3
70.0,-1.086647,-9.820281,0.041723978,1002.6326,1,3
70.04,-1.1105437,-9.83458,0.041724183,1002.6376,1,3
70.08,-1.0723028,-9.825047,0.04172442,1002.6098,1,3
70.12,-1.124878,-9.772615,0.08433431400000001,1002.67804,1,3
70.16,-1.0675181,-9.734482,0.12694415,1002.64264,1,3
70.2,-1.1392125,-9.786915,0.093803585,1002.6577,1,3
70.24,-1.0722928,-9.734482,0.084334984,1002.65265,1,3
70.28,-1.0961894,-9.739249,0.0748664,1002.6577,1,3
70.32,-1.1057469,-9.772615,0.07486658,1002.69073,1,3
70.36,-1.0770658000000002,-9.791681,0.022788342000000003,1002.6605,1,3
70.4,-1.0531635,-9.772616,0.055929475,1002.6832,1,3
70.44,-1.08184,-9.791682000000002,0.036992073,1002.6731,1,3
70.48,-1.0101405,-9.829815,0.055929914,1002.6731,1,3
70.52,-1.0674956,-9.839347,0.098539785,1002.68066,1,3
70.56,-1.0388143,-9.89178,0.013320731,1002.70856,1,3
70.6,-1.0866103,-9.934679,0.0038521178,1002.70355,1,3
70.64,-0.9763584,-9.877488,-0.019790977,1002.7161,1,3
70.68,-1.0002422,-9.82029,0.08910175,1002.70605,1,3
70.72,-1.0145712,-9.839355,0.04175864,1002.7212,1,3
70.76,-1.0193329,-9.820291,0.08436994,1002.7237,1,3
70.8,-0.97630423,-9.80599,0.0038860478,1002.7058,1,3
70.84,-1.0336457,-9.796458,0.022825126,1002.7313,1,3
70.88,-0.98105156,-9.834591,0.07963945,1002.7211,1,3
70.92,-1.0049336,-9.791693,0.041765798,1002.73645,1,3
70.96,-1.009701,-9.896557,0.0180949,1002.7691,1,3
71.0,-1.0574839,-9.858424,0.065440334,1002.7538,1,3
71.04,-0.96665424,-9.896558,0.06544157,1002.7568,1,3
71.08,-1.0048765,-9.958523,0.008630175,1002.7592,1,3
71.12,-1.0383189,-9.982357,0.06544451400000001,1002.74896,1,3
71.16,-1.0048469999999998,-10.120587,0.022836111,1002.7593,1,3
71.2,-1.0191712,-10.111053,0.060712725,1002.76166,1,3
71.24,-1.0478339,-10.106289,0.037042167,1002.76685,1,3
71.28,-1.0286975,-10.030024,0.055981394,1002.76434,1,3
71.32,-0.99044573,-10.106289,-0.01503348,1002.7566,1,3
71.36,-1.0191113,-10.163488,0.03704617,1002.79474,1,3
71.4,-1.0334355,-10.192087,0.013375569,1002.8074,1,3
71.44,-1.0382,-10.211155,0.03704897,1002.7872,1,3
71.48,-1.009505,-10.182555,0.07492569,1002.7795,1,3
71.52,-1.0620686,-10.192088,0.0039109625,1002.8149,1,3
71.56,-1.0524928999999998,-10.215921,0.013381222,1002.79205,1,3
71.6,-1.0859373,-10.168256,0.027585747,1002.8049,1,3
71.64,-1.1002623,-10.234989,0.10807194,1002.7897,1,3
71.68,-1.1104532,-10.287405,0.089076504,1002.82513,1,3
71.72,-1.1152426000000002,-10.363669,0.09854447,1002.8327,1,3
71.76,-1.1152521,-10.296938,0.022793114,1002.8227,1,3
71.8,-1.1343821000000005,-10.34937,0.055932976,1002.84546,1,3
71.84,-1.1439518999999998,-10.373202,0.1269481,1002.84283,1,3
71.88,-1.1296226,-10.392269,0.046462305,1002.84546,1,3
71.92,-1.1917696000000002,-10.4447,0.10327427,1002.8781,1,3
71.96,-1.2013394,-10.354135,0.08433575,1002.8556,1,3
72.0,-1.196569,-10.4161005,0.022787606,1002.86285,1,3
72.04,-1.1248827,-10.373201,0.13641231,1002.8632,1,3
72.08,-1.2252675,-10.449466,0.13167712,1002.8581,1,3
72.12,-1.2587368,-10.368433,0.14587933,1002.8835,1,3
72.16,-1.2252891,-10.344601,0.10800311,1002.848,1,3
72.2,-1.1727202,-10.401799,0.084330276,1002.87085,1,3
72.24,-1.2396481,-10.3732,0.10800132,1002.8531,1,3
72.28,-1.2396576,-10.373199,0.07012521,1002.84546,1,3
72.32,-1.1727506,-10.335067,0.04171785,1002.8784,1,3
72.36,-1.1632003999999998,-10.3589,0.03224818,1002.86084,1,3
72.4,-1.2301284,-10.363666,0.12693529,1002.8657,1,3
72.44,-1.1918997,-10.3207655,0.07012156,1002.8632,1,3
72.48,-1.2205886,-10.263567,0.08905822,1002.886,1,3
72.52,-1.1680202,-10.277867,0.07011975,1002.86066,1,3
72.56,-1.1489118,-10.263567,0.051181134,1002.88855,1,3
72.6,-1.1680405,-10.273099,0.070117906,1002.8885,1,3
72.64,-1.110693,-10.263566,0.06538255,1002.86584,1,3
72.68,-1.0869014,-10.234964,0.070107125,1002.86835,1,3
72.72,-1.19685,-10.211132,0.09377796,1002.89606,1,3
72.76,-1.0821495,-10.230197,0.018026132,1002.8911,1,3
72.8,-1.1012818000000002,-10.201597,0.060634565,1002.8682,1,3
72.84,-1.1251955,-10.187298,0.07483642,1002.8632,1,3
72.88,-1.0726308,-10.153931,0.03222559,1002.8657,1,3
72.92,-1.1108832,-10.153931,0.04642752,1002.89624,1,3
72.96,-1.1108972,-10.087199,0.051160663,1002.8453,1,3
73.0,-1.1587083,-10.115798,0.07483147,1002.8911,1,3
73.04,-1.0822453,-10.096731,0.05115819,1002.89105,1,3
73.08,-1.0583595,-10.087198,0.07482899999999999,1002.89105,1,3
73.12,-1.0727136,-10.0681305,0.027483612,1002.90125,1,3
73.16,-1.0727267,-10.0585985,0.07956084599999999,1002.89606,1,3
73.2,-1.063181,-9.9585,0.046418745,1002.8908,1,3
73.24,-1.0536363000000002,-9.968033,0.05588621,1002.89105,1,3
73.28,-1.0010716,-9.958499,0.0606194,1002.90375,1,3
73.32,-1.0106442,-9.925134,0.0748214,1002.8884,1,3
73.36,-0.9819802,-9.867933,-0.015133642,1002.87836,1,3
73.4,-0.9628724,-9.887,-0.0009314418,1002.90125,1,3
73.44,-1.015466,-9.891767,0.013270313,1002.8581,1,3
73.48,-1.0202596,-9.8155,0.036941063,1002.90125,1,3
73.52,-0.9915948,-9.8155,0.07954945,1002.8632,1,3
73.56,-1.0346261,-9.934665,-0.0056710355,1002.86835,1,3
73.6,-0.9533826,-9.724936,0.036937382000000005,1002.86066,1,3
73.64,-1.0203137,-9.8012,-0.000939101,1002.8784,1,3
73.68,-0.96654975,-9.887026,0.04651349,1002.8936,1,3
73.72,-0.9378358,-9.834596,0.051251106,1002.8986,1,3
73.76,-0.9139039,-9.782164,0.037050914,1002.89856,1,3
73.8,-0.9090932,-9.853663,-0.005555883,1002.8911,1,3
73.84,-0.90906847,-9.820299,0.06546245,1002.9111,1,3
73.88,-0.9090272,-9.810766,0.032325400000000004,1002.886,1,3
73.92,-0.9520125,-9.829833,-0.024484452,1002.8809,0,0
73.96,-0.8898440999999999,-9.8346,-0.015012804,1002.9114,0,0
74.0,-0.9423992,-9.777402,-0.029213939,1002.9139,0,0
74.04,-0.9566974,-9.782169,-0.067085415,1002.8732,0,0
74.08,-1.0092403,-9.820304,0.027605891,1002.906,0,0
74.12,-1.0187669,-9.83937,0.008671287,1002.9161,0,0
74.16,-1.0139624,-9.85367,0.07022083,1002.8936,0,0
74.2,-1.0330445,-9.772639,0.03708337,1002.881,0,0
74.24,-1.06647,-9.810773,0.093899265,1002.91644,0,0
74.28,-0.95649946,-9.810774,-0.0007856339,1002.8911,0,0
74.32,-0.98037374,-9.791709,0.008685423000000001,1002.9161,0,0
74.36,-1.052042,-9.834608,0.098641776,1002.9062,0,0
74.4,-0.99942905,-9.848908,0.07970737,1002.8911,0,0
74.44,-1.0232972,-9.815543,-0.029181104,1002.87836,0,0
74.48,-0.9659086,-9.858443,0.008696938000000001,1002.9009,0,0
74.52,-0.9802129,-9.810779,-0.033909474,1002.8834,0,0
74.56,-0.9467213,-9.806013,0.056047246,1002.9164,0,0
74.6,-0.9897066,-9.815547,0.008706186,1002.87067,0,0
74.64,-0.9944556,-9.820314,0.051318668,1002.89355,0,0
74.68,-0.9187836,-9.86796,0.037041754,1002.8909,0,0
74.72,-0.97614133,-9.834595,0.041776165,1002.89874,0,0
74.76,-0.9187836,-9.791696,0.06071378700000001,1002.9085,0,0
74.8,-0.96180195,-9.820295,0.008635327,1002.91644,0,0
74.84,-1.0095999,-9.829828,0.10332343,1002.8809,0,0
74.88,-1.0048202,-9.810761,0.074917,1002.9088,0,0
74.92,-1.0287191999999998,-9.825061,0.13646427,1002.89624,0,0
74.96,-0.96180195,-9.825061,0.15540189,1002.8809,0,0
75.0,-0.885325,-9.801229,0.08438582,1002.89105,0,0
75.04,-0.885325,-9.815528,0.07018261,1002.9064,0,0
75.08,-0.8901049000000001,-9.844128,-0.0008334592,1002.89105,0,0
75.12,-0.885325,-9.777395,0.046510573,1002.87585,0,0
75.16,-0.84708667,-9.83936,0.13646427,1002.9111,0,0
75.2,-0.91400385,-9.834595,0.018104147,1002.88605,0,0
75.24,-0.8757654,-9.796462,0.08438582,1002.8885,0,0
75.28,-0.8279674000000001,-9.782162,0.074917,1002.88855,0,0
75.32,-0.78972894,-9.801229,0.074917,1002.87836,0,0
75.36,-0.8279674000000001,-9.763096,0.008635327,1002.87085,0,0
75.4,-0.81840783,-9.791696,0.11279224,1002.87585,0,0
75.44,-0.8901049000000001,-9.801229,0.07018261,1002.9113,0,0
75.48,-0.89966446,-9.77263,0.10805784,1002.906,0,0
75.52,-0.9235635,-9.777395,0.07018261,1002.8958,0,0
75.56,-0.885325,-9.844128,0.074917,1002.8885,0,0
75.6,-0.91400385,-9.820295,0.05124498,1002.9085,0,0
75.64,-0.8518664,-9.801229,0.003900949,1002.91864,0,0
75.68,-0.89517564,-9.791688,0.08909359,1002.8885,0,0
75.72,-0.8665082000000001,-9.839353,0.11276457,1002.8857,0,0
75.76,-0.8999775999999999,-9.772622,0.103294775,1002.90375,0,0
75.8,-0.93344766,-9.777387,-0.034004014,1002.87067,0,0
75.84,-0.9047802,-9.825052,0.08435507,1002.8857,0,0
75.88,-0.90479094,-9.782153,0.103291705,1002.8857,0,0
75.92,-0.93348193,-9.782152,0.032274537,1002.8832,0,0
75.96,-0.9621722,-9.782152,0.11749275,1002.8834,0,0
76.0,-1.0147616,-9.825051,0.1032885,1002.8936,0,0
76.04,-1.0004334,-9.853651,0.10802187,1002.9063,0,0
76.08,-1.0673622,-9.791685,0.14589606,1002.8936,0,0
76.12,-1.0530334,-9.82505,0.1743015,1002.8885,0,0
76.16,-1.0339257,-9.810751,0.16483164,1002.8958,0,0
76.2,-1.057836,-9.8059845,0.09381454,1002.90125,0,0
76.24,-0.9909302,-9.801217,0.16956395,1002.8834,0,0
76.28,-0.98138195,-9.78215,0.08434364,1002.87836,0,0
76.32,-1.0339707,-9.8155155,0.12221788,1002.9164,0,0
76.36,-1.0387619,-9.772617,0.08907601,1002.886,0,0
76.4,-1.0100937,-9.805984,0.11274707,1002.8834,0,0
76.44,-0.9814255,-9.810749,0.1506213,1002.886,0,0
76.48,-1.024456,-9.786916,0.10801056,1002.8832,0,0
76.52,-1.034027,-9.839347,0.10327509,1002.90375,0,0
76.56,-1.0340377,-9.8250475,0.074867696,1002.8784,0,0
76.6,-0.9719124,-9.825047,0.0938042,1002.90125,0,0
76.64,-0.9432442,-9.763082,0.07013121,1002.89105,0,0
76.68,-0.9715127,-9.772626,0.12698165,1002.87335,0,0
76.72,-0.95716804,-9.777391,0.10331005,1002.891,0,0
76.76,-0.9141448,-9.801225,0.0654353,1002.9163,0,0
76.8,-0.8854612,-9.844124,0.06070133,1002.92664,0,0
76.84,-0.89501536,-9.777391,-0.005579825500000001,1002.8834,0,0
76.88,-0.8997905,-9.805991,0.041764647,1002.9163,0,0
76.92,-0.861547,-9.763092,-0.010313354,1002.8908,0,0
76.96,-0.87110156,-9.777392,0.04649997,1002.886,0,0
77.0,-0.90933526,-9.853658,-0.0008436218,1002.9011,0,0
77.04,-0.928449,-9.801226,0.10331376,1002.8784,0,0
77.08,-0.9332244,-9.829825,-0.005577146999999999,1002.8984,0,0
77.12,-1.0049161,-9.782159,0.0322986,1002.8958,0,0
77.16,-0.91409624,-9.829825,0.032298923,1002.9011,0,0
77.2,-0.89497066,-9.858424,0.008627465,1002.8682,0,0
77.24,-0.78025,-9.772628,0.037034363,1002.8885,0,0
77.28,-0.8376030000000001,-9.858425,-0.024512459,1002.8834,0,0
77.32,-0.7659011,-9.844126,-0.04344962,1002.89606,0,0
77.36,-0.78979474,-9.815526,-0.071855545,1002.8857,0,0
77.4,-0.7850098000000001,-9.81076,-0.076589495,1002.8936,0,0
77.44,-0.7228675999999999,-9.844126,-0.09079228,1002.90375,0,0
77.48,-0.77544045,-9.777393,-0.05291659,1002.8961,0,0
77.52,-0.7754357,-9.848892,-0.03397851,1002.924,0,0
77.56,-0.77543056,-9.839359,0.022834815,1002.9189,0,0
77.6,-0.75152653,-9.85366,0.018100848,1002.90125,0,0
77.64,-0.70025456,-9.863161,0.051122174000000006,1002.8908,0,0
77.68,-0.7767795999999999,-9.805962,0.07005538,1002.906,0,0
77.72,-0.80072683,-9.815492,0.013238093,1002.89355,0,0
77.76,-0.8294539000000001,-9.810724,0.032171313,1002.89355,0,0
77.8,-0.7530252,-9.839323,-0.034114774,1002.8885,0,0
77.84,-0.7196178000000001,-9.825022,0.027427804,1002.9113,0,0
77.88,-0.75312155,-9.81072,0.008486044,1002.89624,0,0
77.92,-0.7388183,-9.79642,0.060561173,1002.89856,0,0
77.96,-0.7340926999999999,-9.839318,-0.005725432,1002.8859,0,0
78.0,-0.7914865,-9.829784,0.098428175,1002.8632,0,0
78.04,-0.7724185,-9.848849,0.036876183,1002.8835,0,0
78.08,-0.7724637,-9.8297825,-0.0010031536,1002.87836,0,0
78.12,-0.7629523,-9.801181,-0.0010075718,1002.90125,0,0
78.16,-0.7868965,-9.863146,-0.048355762,1002.8832,0,0
78.2,-0.7726083,-9.829778999999998,-0.024688452000000003,1002.9038,0,0
78.24,-0.73441505,-9.8583765,-0.04836459,1002.89325,0,0
78.28,-0.74880564,-9.858376,-0.03416605,1002.87836,0,0
78.32,-0.8014318,-9.782109,-0.005764041,1002.8885,0,0
78.36,-0.8205962,-9.777341,0.003700655,1002.8707,0,0
78.4,-0.84454334,-9.767807,0.013165027,1002.896,0,0
78.44,-0.8445886,-9.786873,0.055770528,1002.9214,0,0
78.48,-0.81118107,-9.839303,0.013156192,1002.9061,0,0
78.52,-0.83512527,-9.825002,0.0084176585,1002.8734,0,0
78.56,-0.8208341999999998,-9.839301,0.03208529,1002.9112,0,0
78.6,-0.9021361,-9.8393,0.032081135,1002.89606,0,0
78.64,-0.8591689,-9.8106985,0.0036700256,1002.88824,0,0
78.68,-0.8333146999999999,-9.801214,-0.0008854121000000002,1002.896,0,0
78.72,-0.8285045,-9.8250475,0.06539904,1002.8859,0,0
78.76,-0.8141345999999999,-9.853647,-0.04822391,1002.9087,0,0
78.8,-0.8284437,-9.901314,0.027529377,1002.9087,0,0
78.84,-0.8188555000000001,-9.848883,0.03226641,1002.891,0,0
78.88,-0.7805866,-9.791685,0.07961321,1002.8984,0,0
78.92,-0.86181283,-9.820286,0.022803158,1002.886,0,0
78.96,-0.80442476,-9.834585,0.037009154,1002.87836,0,0
79.0,-0.8043943,-9.872718,-0.019800931,1002.88605,0,0
79.04,-0.7709052,-9.796454,-0.019798134,1002.87836,0,0
79.08,-0.80433345,-9.848887,0.055955127,1002.8885,0,0
79.12,-0.75650495,-9.825055,-0.038730178,1002.8832,0,0
79.16,-0.8138340000000001,-9.844122,0.051226135,1002.90125,0,0
79.2,-0.8185834,-9.820291,-0.05766239400000001,1002.8986,0,0
79.24,-0.7707549,-9.844124,0.018090865,1002.8958,0,0
79.28,-0.78028595,-9.848891,-0.0008441210000000001,1002.8834,0,0
79.32,-0.8232738000000002,-9.815525,-0.043451007,1002.89856,0,0
79.36,-0.7897847,-9.834593,-0.024510603,1002.9061,0,0
79.4,-0.82799464,-9.815527,0.04177369,1002.8908,0,0
79.44,-0.7897257,-9.796462,-0.010301985,1002.9114,0,0
79.48,-0.799253,-9.815529,-0.038705435,1002.8732,0,0
79.52,-0.81834376,-9.796463,-0.010296419,1002.8908,0,0
79.56,-0.8183133,-9.825063,-0.0008248016,1002.87585,0,0
79.6,-0.7704867,-9.810764,-0.062369447,1002.9162,0,0
79.64,-0.78957736,-9.810764,0.018118018,1002.8935,0,0
79.68,-0.76109403,-9.853659,-0.019775104,1002.89355,0,0
79.72,-0.75151145,-9.829827,0.018102232,1002.89355,0,0
79.76,-0.79450953,-9.834595,-0.052911993,1002.8808,0,0
79.8,-0.7753687,-9.829828,-0.03870679,1002.89105,0,0
79.84,-0.73232895,-9.858428,0.0133736245,1002.9114,0,0
79.88,-0.7801054000000001,-9.839361,0.008641189,1002.8936,0,0
79.92,-0.7800852,-9.825063,0.03231509,1002.9036,0,0
79.96,-0.7561633000000001,-9.810763,-0.00082365423,1002.8834,0,0
80.0,-0.84695804,-9.896563,-0.0102905,1002.9036,0,0
80.04,-0.79435855,-9.877497,-0.019757345,1002.9036,0,0
80.08,-0.7704393,-9.801232,0.008650936,1002.89856,0,0
80.12,-0.76563793,-9.8965645,-0.029222306,1002.8883,0,0
80.16,-0.8134144,-9.815533,0.09860858,1002.8857,0,0
80.2,-0.865972,-9.825067,0.022859966,1002.89624,0,0
80.24,-0.80859286,-9.820301,0.06073717,1002.88605,0,0
80.28,-0.7798924,-9.867967,0.04653593,1002.85565,0,0
80.32,-0.7081751000000001,-9.801235,0.065475404,1002.8936,0,0
80.36,-0.79896855,-9.834602,0.098618336,1002.9087,0,0
80.4,-0.7989469,-9.848903,-0.033943024,1002.90125,0,0
80.44,-0.84194493,-9.796471,0.18384144,1002.8781,0,0
80.48,-0.8132446,-9.763105,0.112827346,1002.90607,0,0
80.52,-0.8466818000000002,-9.844137,0.08915729,1002.86816,0,0
80.56,-0.86099946,-9.839371,0.112831295,1002.9138,0,0
80.6,-0.7940607,-9.820306,0.07022363,1002.91614,0,0
80.64,-0.79925734,-9.825061,0.032310233,1002.8936,0,0
80.68,-0.8088134,-9.820296,0.027576145,1002.8809,0,0
80.72,-0.8183691999999999,-9.834596,0.10806137,1002.90857,0,0
80.76,-0.80880576,-9.891794,-0.038704816,1002.89606,0,0
80.8,-0.8327007,-9.805996,0.0985933,1002.88605,0,0
80.84,-0.861376,-9.820296,0.013374332,1002.8933,0,0
80.88,-0.86615145,-9.839361,0.05598437,1002.89856,0,0
80.92,-0.8852674,-9.796463,0.0039062202,1002.89856,0,0
80.96,-0.8900437,-9.810762,0.060719382,1002.9061,0,0
81.0,-0.8900408000000001,-9.815529,-0.0008275992999999999,1002.9162,0,0
81.04,-0.86135817,-9.834596,0.0039071627,1002.90125,0,0
81.08,-0.89959186,-9.825063,0.022845212,1002.9011,0,0
81.12,-0.86612934,-9.82983,0.013376746,1002.88574,0,0
81.16,-0.9856209,-9.748797,0.02284589,1002.8808,0,0
81.2,-0.90436023,-9.81553,0.0891279,1002.88605,0,0
81.24,-0.8900173000000001,-9.8536625,0.0039089583,1002.9036,0,0
81.28,-0.86133486,-9.839362,0.037050117,1002.9087,0,0
81.32,-0.89479035,-9.834597,0.022847185,1002.91864,0,0
81.36,-0.8900059000000001,-9.786931,-0.033965226,1002.9136,0,0
81.4,-0.9378005,-9.834597,0.018113513,1002.9288,0,0
81.44,-0.96647626,-9.8536625,-0.033964638,1002.8884,0,0
81.48,-0.9425728,-9.815531,0.1033335,1002.9011,0,0
81.52,-0.94256896,-9.848897,0.06072421400000001,1002.9009,0,0
81.56,-0.9664641,-9.820298,0.027583744,1002.9214,0,0
81.6,-0.8756450000000001,-9.758332,0.04652159,1002.8834,0,0
81.64,-0.91865915,-9.782165,0.08439721,1002.9035,0,0
81.68,-0.92379045,-9.805989,-0.029260647,1002.8933,0,0
81.72,-0.9094626,-9.76309,0.018082324,1002.87573,0,0
81.76,-0.9572713,-9.834588,0.04648778,1002.92114,0,0
81.8,-0.88558185,-9.834588,-0.010325782,1002.9162,0,0
81.84,-0.9047106,-9.791689,0.12223667,1002.90607,0,0
81.88,-0.89516175,-9.796454,0.027547609,1002.891,0,0
81.92,-0.93818945,-9.825053,0.032281134,1002.8909,0,0
81.96,-0.92385966,-9.834587,-0.03400139,1002.8885,0,0
82.0,-0.8426130999999999,-9.81552,0.055951357,1002.9164,0,0
82.04,-0.90476066,-9.80122,0.037012804,1002.896,0,0
82.08,-0.9095513,-9.748788,0.018074196,1002.92365,0,0
82.12,-0.8808819999999999,-9.810753,0.03701095,1002.89355,0,0
82.16,-0.8378733,-9.839352,0.037010066,1002.91113,0,0
82.2,-0.8617831,-9.791686,0.027540274,1002.87585,0,0
82.24,-0.90959066,-9.810752,0.070149064,1002.8859,0,0
82.28,-0.8570222,-9.829819,0.07488257,1002.89594,0,0
82.32,-0.84269434,-9.810752,0.06541274,1002.8985,0,0
82.36,-0.8713814000000001,-9.820285,0.02280233,1002.911,0,0
82.4,-0.8522735999999999,-9.83935,0.112754986,1002.901,0,0
82.44,-0.8522824000000001,-9.796452,0.003862869,1002.911,0,0
82.48,-0.82839423,-9.85365,0.0038618967,1002.9136,0,0
82.52,-0.8379639999999999,-9.825049,-0.015076682,1002.9136,0,0
82.56,-0.8523135000000001,-9.853649,-0.010343187,1002.8883,0,0
82.6,-0.7997458000000001,-9.825049,0.022796707000000003,1002.9262,0,0
82.64,-0.8140953000000001,-9.796451,0.04646778,1002.9086,0,0
82.68,-0.79911953,-9.791699,0.055994883,1002.91864,0,0
82.72,-0.76086676,-9.801232,-0.029223103,1002.8985,0,0
82.76,-0.8134284,-9.863198,-0.005549609699999999,1002.8983,0,0
82.8,-0.8325334000000001,-9.848899,0.013389323,1002.8983,0,0
82.84,-0.8325171999999998,-9.815534,0.060734846,1002.8631,0,0
82.88,-0.76558566,-9.829833,-0.00081110746,1002.9112,0,0
82.92,-0.7846898,-9.758335,0.032331143,1002.8808,0,0
82.96,-0.75121593,-9.872733,0.018129297,1002.89594,0,0
83.0,-0.82767856,-9.815535,0.04180261,1002.911,0,0
83.04,-0.77986515,-9.829835,-0.052884076,1002.9162,0,0
83.08,-0.8180875,-9.834602,0.00866466,1002.89594,0,0
83.12,-0.8324126000000001,-9.848902,0.08441645,1002.8806,0,0
83.16,-0.82761765,-9.858436,0.018136159,1002.90607,0,0
83.2,-0.79414374,-9.848903,0.07495043,1002.8958,0,0
83.24,-0.7797900999999999,-9.882269,0.037076477,1002.9034,0,0
83.28,-0.78933454,-9.801238,0.07968751,1002.91113,0,0
83.32,-0.80843854,-9.872736,0.08915773,1002.9009,0,0
83.36,-0.79886466,-9.825071,0.02761178,1002.90857,0,0
83.4,-0.7797301999999999,-9.839371,-0.0007932596,1002.8909,0,0
83.44,-0.7653746,-9.853671,0.065489866,1002.8883,0,0
83.48,-0.79403824,-9.867971,0.022881642,1002.87067,0,0
83.52,-0.7653451,-9.829839,0.013414118,1002.8808,0,0
83.56,-0.7605502,-9.839373,0.018149912,1002.90857,0,0
83.6,-0.83701175,-9.791708,0.122308224,1002.8985,0,0
83.64,-0.7847930999999999,-9.820299,0.02285284,1002.906,0,0
83.68,-0.68441725,-9.834599,0.098603316,1002.8985,0,0
83.72,-0.72265565,-9.848898,0.055993676,1002.9262,0,0
83.76,-0.6939769,-9.834599,0.041790448,1002.90356,0,0
83.8,-0.7847930999999999,-9.858431,-0.024491224,1002.90607,0,0
83.84,-0.72743547,-9.853664,0.008649612,1002.9011,0,0
83.88,-0.7083162,-9.834599,0.01811843,1002.92896,0,0
83.92,-0.70353645,-9.863197,0.008649612,1002.90857,0,0
83.96,-0.6605181999999999,-9.848898,0.01811843,1002.8884,0,0
84.0,-0.71787584,-9.810765,0.055993676,1002.90607,0,0
84.04,-0.7608941,-9.853664,0.02285284,1002.9136,0,0
84.08,-0.7704536999999999,-9.867964,0.01811843,1002.8834,0,0
84.12,-0.6557384,-9.786933,-0.057632033,1002.9112,0,0
84.16,-0.48366547,-9.753567,0.046524856,1002.89606,0,0
84.2,-0.6127201999999999,-9.853664,-0.06710085,1002.8757,0,0
84.24,-0.7752335,-9.834599,0.02758725,1002.9262,0,0
84.28,-0.68919706,-9.796466,0.01811843,1002.8933,0,0
84.32,-0.6509585999999999,-9.896564,0.041790448,1002.8859,0,0
84.36,-0.6509585999999999,-9.844131,-0.06710085,1002.8909,0,0
84.4,-0.6175,-9.863197,-0.043428835,1002.8958,0,0
84.44,-0.6366191999999999,-9.810765,-0.024491224,1002.8706,0,0
84.48,-0.593601,-9.844131,-0.04816324,1002.89343,0,0
84.52,-0.68919706,-9.815532,-0.06710085,1002.8983,0,0
84.56,-0.6127201999999999,-9.810765,-0.03396001,1002.9086,0,0
84.6,-0.67963743,-9.844131,-0.05289765,1002.89325,0,0
84.64,-0.6704842,-9.848887,-0.043466028,1002.90607,0,0
84.68,-0.6705007,-9.867953,-0.11921799,1002.9189,0,0
84.72,-0.63227874,-9.867952,-0.06714105599999999,1002.8834,0,0
84.76,-0.63707405,-9.8488865,-0.090814486,1002.8985,0,0
84.8,-0.6370905,-9.810753,-0.05767517,1002.8909,0,0
84.84,-0.62754226,-9.848886,-0.052941825,1002.8857,0,0
84.88,-0.61800426,-9.815519,-0.024537373,1002.89825,0,0
84.92,-0.57500255,-9.86795,-0.09555493,1002.8983,0,0
84.96,-0.60847765,-9.805985,-0.09555647,1002.90356,0,0
85.0,-0.60370916,-9.844117,-0.029275816,1002.9061,0,0
85.04,-0.62284803,-9.844117,-0.09082487,1002.8554,0,0
85.08,-0.584626,-9.872716,-0.019810326,1002.89343,0,0
85.12,-0.6276618,-9.891782,-0.114500016,1002.8985,0,0
85.16,-0.5942185999999999,-9.872715,-0.12870467,1002.9009,0,0
85.2,-0.59423095,-9.844115,-0.06715852,1002.8985,0,0
85.24,-0.62292635,-9.834582,-0.10030085,1002.8757,0,0
85.28,-0.6372821999999999,-9.8250475,-0.08136475,1002.878,0,0
85.32,-0.6181826,-9.848881,-0.010350462,1002.8757,0,0
85.36,-0.6468738,-9.89178,-0.076633275,1002.90106,0,0
85.4,-0.6468901999999999,-9.853646,-0.07663478,1002.9058,0,0
85.44,-0.7042644,-9.810747,-0.052964266,1002.8756,0,0
85.48,-0.60868484,-9.867945,-0.02929375,1002.8882,0,0
85.52,-0.60392153,-9.848879,-0.08610813,1002.9137,0,0
85.56,-0.6660754,-9.820279,-0.043499988,1002.8859,0,0
85.6,-0.73300815,-9.848878,-0.05770459400000001,1002.906,0,0
85.64,-0.68044674,-9.863178,0.0038411655,1002.8983,0,0
85.68,-0.6279823,-9.796443,-0.043513294,1002.89343,0,0
85.72,-0.6519003000000001,-9.834575,-0.08612469,1002.89325,0,0
85.76,-0.70449847,-9.86794,-0.071923316,1002.9135,0,0
85.8,-0.6519409,-9.839339,-0.076659575,1002.8907,0,0
85.84,-0.6185026,-9.805975,-0.024582993,1002.896,0,0
85.88,-0.6185229,-9.882238,-0.12400733,1002.86035,0,0
85.92,-0.6376599000000001,-9.829806,-0.062461685,1002.8985,0,0
85.96,-0.61378115,-9.834572,-0.07666677,1002.86053,0,0
86.0,-0.613804,-9.872704,-0.0340592,1002.8884,0,0
86.04,-0.6616196999999999,-9.853637,-0.015123215,1002.9287,0,0
86.08,-0.66164005,-9.858403,-0.038797114,1002.9211,0,0
86.12,-0.7237965000000001,-9.820271,-0.010392427,1002.9059,0,0
86.16,-0.6521197,-9.801203999999998,-0.057738315,1002.89575,0,0
86.2,-0.6234625,-9.848868,0.041682187,1002.8907,0,0
86.24,-0.66649973,-9.82027,-0.057742026,1002.8757,0,0
86.28,-0.68563926,-9.839334,-0.05774388,1002.9135,0,0
86.32,-0.68088096,-9.820268,-0.043542657,1002.8983,0,0
86.36,-0.6952395,-9.8441,0.0037996694,1002.8881,0,0
86.4,-0.66658086,-9.853632,-0.04828066,1002.8935,0,0
86.44,-0.7048384,-9.810733,-0.03881358,1002.9287,0,0
86.48,-0.6761786,-9.848865,-0.057752926,1002.8935,0,0
86.52,-0.6427415,-9.791666,0.013261152,1002.9086,0,0
86.56,-0.7144589,-9.872696,0.008524859000000001,1002.90356,0,0
86.6,-0.7240386999999999,-9.815497,-0.024617832000000003,1002.883,0,0
