Timestamp,Ax,Ay,Az,P,Value,Type
0.0,-4.6394067,5.4947004,6.2436695,1001.1045,0,0
0.04,-2.4570165,3.2784173,8.359328999999999,1001.13495,0,0
0.08,-2.0172403,3.640675,9.220994,1001.21387,0,0
0.12,-1.955071,3.6931062,7.980583,1001.20355,0,0
0.16,-1.7351657,3.3165472,9.774925,1001.244,0,0
0.2,-1.9406631,3.4261775,9.381973,1001.2849,0,0
0.24,-2.1700592,3.4309433,8.226780999999999,1001.234,0,0
0.28,-1.7016044,3.3785102,8.790178,1001.2747,0,0
0.32,-1.8545258,3.1354146000000003,9.505077,1001.3178,0,0
0.36,-1.4768893,3.3594425,8.454042,1001.31006,0,0
0.4,-0.9606341,4.0696583,7.4598203,1001.2163,0,0
0.44,0.32994509999999994,3.0591476,7.3319945,1001.15533,0,0
0.48,0.0814317,0.81409836,8.747584,1001.1301,0,0
0.52,2.5382853,0.90466213,9.940658,1001.1706,0,0
0.56,3.0688756,0.76166457,8.785466,1001.23926,0,0
0.6,3.666383,1.3717833,8.534545,1001.25433,0,0
0.64,3.8480523,1.0524228999999998,8.075312,1001.2544,0,0
0.68,3.441803,-0.26791418,7.313076,1001.2873,0,0
0.72,4.5507493,0.5995984000000001,7.5213923,1001.26715,0,0
0.76,5.1195827000000005,0.08480937,7.398300999999999,1001.3102,0,0
0.8,4.426545,-1.5024548999999998,9.405691,1001.33575,0,0
0.84,6.3145976,-1.4309573,9.983292,1001.32806,0,0
0.88,5.9322475999999975,-0.9686021,7.545077,1001.3027,0,0
0.92,6.294967,-1.5453421,9.07424,1001.33307,0,0
0.96,7.3178625,-1.6740396,8.004265,1001.3382,0,0
1.0,5.7835636,-3.509164,7.8385630000000015,1001.29254,0,0
1.04,5.9460974,-3.0086763,8.529788,1001.3256,0,0
1.08,7.528231599999999,-2.3842578,6.9248266,1001.30023,0,0
1.12,8.326477,-1.9076028000000005,8.444572,1001.2875,0,0
1.16,7.537828,-2.7274508,8.084759,1001.31067,0,0
1.2,7.566525500000001,-2.9133472,7.1142073,1001.2878,0,0
1.24,8.211817,-2.5034237,7.014786999999999,1001.2725,0,0
1.28,10.2480345,-2.022002,6.9201007,1001.2852,0,0
1.32,10.5635195,-2.660721,5.6986256,1001.2954,0,0
1.36,8.575138,-3.4186041,4.4676824,1001.3131,0,0
1.4,8.938425,-3.1373777,6.830152,1001.2852,0,0
1.44,8.952783,-2.3270636,5.9211483,1001.2343,0,0
1.48,7.8486657000000015,-3.656933,7.0858135,1001.25226,0,0
1.52,7.8104453,-2.350897,6.29517,1001.2471,0,0
1.56,6.529478,-3.432906,8.629233000000001,1001.27765,0,0
1.6,7.9060807,-0.06771733,-2.008973,1001.3004,0,0
1.64,9.038914,-0.41567653,0.08363572,1001.2827,0,0
1.68,6.6585894,-0.005753040300000001,8.013765,1001.3105,0,0
1.72,5.248565,1.4385133999999995,1.9537289,1001.2979,0,0
1.76,5.430217,-1.3546895,5.1778607,1001.32324,0,0
1.8,7.8679375999999985,-0.7493373999999999,5.291487999999998,1001.30554,0,0
1.84,7.824937299999997,0.08004311,4.813315,1001.2903,0,0
1.88,9.263832,-2.6988637000000004,4.1741858,1001.32825,0,0
1.92,7.476209,-1.7884520000000002,3.8948584,1001.3157,0,0
1.96,7.375857000000001,-1.8980832,2.5266175,1001.3182,0,0
2.0,7.863422,-6.578842999999999,1.9821632,1001.3157,0,0
2.04,6.3817080000000015,-8.7809925,1.9726968,1001.26996,0,0
2.08,7.7200785,-4.9439154,0.6186593,1001.2827,0,0
2.12,12.91575,-2.5749369,1.0447578000000002,1001.25714,0,0
2.16,10.258204,-3.366186,0.4624285,1001.26996,0,0
2.2,6.7402929999999985,-5.072614700000001,0.007927926,1001.27765,0,0
2.24,7.849234599999999,-7.0078369999999985,-0.23825862,1001.2649,0,0
2.28,6.3961983,-7.656089,-1.2892944,1001.26746,0,0
2.32,8.112173,-8.175645,-0.8489923,1001.14056,0,0
2.36,5.292113,-9.133722,-1.3887124,1001.13293,0,0
2.4,8.623662,-5.6779699999999975,0.5381928,1001.1888,0,0
2.44,6.4775550000000015,-5.949664,-0.32820103,1001.22437,0,0
2.48,7.161086,-5.7018037,-0.5554505999999999,1001.2471,0,0
2.52,5.832332,-7.0316740000000015,0.026884,1001.24207,0,0
2.56,5.5216699999999985,-7.880122,-0.029926527,1001.26996,0,0
2.6,5.4260993,-8.8239,-0.28558204,1001.2903,0,0
2.64,6.0618324,-6.9792438,0.6044878,1001.30304,0,0
2.68,2.6777601000000004,-7.088875,-1.4360381000000002,1001.43225,0,0
2.72,4.26946,-9.62945,-2.6764498,1001.8157,0,0
2.76,4.2025633,-10.263403,0.23521103,1002.0769,0,0
2.8,3.1510367,-11.979363,-1.3034678,1001.8207,0,0
2.84,3.2466502,-10.830625,0.21154334,1001.2598,0,0
2.88,2.8451738,-8.371082000000001,1.466163,1001.14307,0,0
2.92,3.040527,-9.453075,-1.0573313,1001.2852,0,0
2.96,2.9305916,-8.175638000000001,-0.07730949,1001.19635,0,0
3.0,3.4372509,-9.024086,-0.08677831,1001.18115,0,0
3.04,3.260398,-9.605605,-0.33770177,1001.34357,0,0
3.08,2.3904736,-6.678939,-1.251442,1001.28015,0,0
3.12,3.4037921000000004,-7.5035534,-0.048903067,1001.32324,0,0
3.16,2.1371443,-6.726603999999999,-0.29982647,1001.2954,0,0
3.2,3.4898286,-12.017483,-0.70225096,1001.33093,0,0
3.24,4.206799,-10.725745,0.4624127000000001,1001.29285,0,0
3.28,2.2470796,-10.029829,1.8874683,1001.2954,0,0
3.32,3.0261877,-9.076517,-0.73539174,1001.3029,0,0
3.36,0.33993787,-7.7275815,1.063682,1001.3103,0,0
3.4,2.6485832,-4.0525660000000014,-1.0005186,1001.33856,0,0
3.44,3.5854247000000004,-12.670502,0.6091791999999999,1001.26715,0,0
3.48,6.5775820000000005,-13.86214,-1.8432424,1001.2976,0,0
3.52,2.6055648,-11.345398,0.1120667,1001.3052,0,0
3.56,2.7728581,-10.558916,0.23042682,1001.2875,0,0
3.6,3.040527,-9.257647,0.3156461,1001.27484,0,0
3.64,2.1371443,-9.68187,0.06472265,1001.3053,0,0
3.68,2.361795,-8.280502,1.0447444,1001.33826,0,0
3.72,1.5587877,-9.395877,-0.091512695,1001.35583,0,0
3.76,2.213621,-9.839166,0.60444486,1001.34076,0,0
3.8,2.8445551,-9.815333,0.6991329000000001,1001.3103,0,0
3.84,2.6342437000000003,-9.68187,0.14047313,1001.29254,0,0
3.88,2.0750067,-10.320588,0.09312908,1001.2975,0,0
3.92,2.6768110000000003,-9.843922,0.11675982,1001.2976,0,0
3.96,2.8966641,-9.295767,0.85059094,1001.2875,0,0
4.0,2.6815555,-9.338666,0.5854627,1001.31287,0,0
4.04,2.8727298,-9.324367,0.585461,1001.3053,0,0
4.08,1.9167522,-10.234777,-0.09629479,1001.3229,0,0
4.12,2.5428900000000003,-9.920185,-0.40876698,1001.323,0,0
4.16,3.3363197,-8.904907000000003,0.59019077,1001.3305,0,0
4.2,2.7914045,-8.785743,0.41028175,1001.333,0,0
4.24,2.9825776000000004,-9.476892,0.27298227,1001.3405,0,0
4.28,3.0303578,-9.472127,-0.006349221,1001.3505,0,0
4.32,3.0637999,-9.367262,-0.14838289,1001.3102,0,0
4.36,2.724417,-9.362494,0.3534625,1001.3076,0,0
4.4,3.1354613,-9.448292,0.19722539,1001.3026,0,0
4.44,2.643126,-9.24333,0.3203185,1001.30005,0,0
4.48,2.428016,-9.596055,-0.91536295,1001.3378,0,0
4.52,2.7339056,-9.791483,0.5428321999999999,1001.32275,0,0
4.56,3.4126213,-8.876304,0.6233156,1001.31,0,0
4.6,2.4853203,-9.472123,0.040982,1001.3176,0,0
4.64,3.2500713,-9.505488,0.20195015,1001.29724,0,0
4.68,2.925028,-10.053641,0.022041243,1001.3329,0,0
4.72,3.5272667,-8.871535,2.2093349,1001.2923,0,0
4.76,3.96221,-10.091773,0.34871194,1001.31744,0,0
4.8,0.25306422,-9.829613,-1.2609873,1001.32275,0,0
4.84,2.2462246,-9.424455,0.6611794,1001.3124,0,0
4.88,1.806466,-9.700914,0.44812965,1001.34033,0,0
4.92,1.8930017,-9.705693,0.5523321999999999,1001.305,0,0
4.96,1.9455825,-9.600829,0.5618013000000001,1001.3277,0,0
5.0,2.041181,-9.524564,0.36295655,1001.31757,0,0
5.04,2.2610543,-9.596063,0.34401914,1001.3124,0,0
5.08,2.399671,-9.586529,0.23039365,1001.34283,0,0
5.12,2.538288,-9.524564,0.23986271,1001.31,0,0
5.16,2.504832,-9.524564,0.15464365,1001.33026,0,0
5.2,2.4140182,-9.515031,0.14044067,1001.31244,0,0
5.24,2.3471036,-9.562697,0.07889365,1001.3226,0,0
5.28,2.2515097,-9.710461,0.055221833,1001.3302,0,0
5.32,2.261072,-9.615129,0.13570695,1001.3124,0,0
5.36,2.2993128,-9.576998,0.14517596,1001.3226,0,0
5.4,2.3423336,-9.567464,0.12623858,1001.3124,0,0
5.44,2.4570513,-9.476899,0.17358287,1001.29724,0,0
5.48,2.6052282000000004,-9.510265,0.10730146,1001.3023,0,0
5.52,2.6817071,-9.576998,0.24933378,1001.3277,0,0
5.56,2.5144165000000003,-9.619896,0.29667807,1001.34033,0,0
5.6,2.5335383,-9.500732,0.21619344,1001.3378,0,0
5.64,2.5813386,-9.291004,0.27774093,1001.31744,0,0
5.68,2.5813413,-9.481666,0.21145949,1001.31244,0,0
5.72,2.2802162,-9.72476,0.07416198,1001.3023,0,0
5.76,2.175063,-9.691395,-0.034729112,1001.31744,0,0
5.8,2.1989644,-9.600831,0.026818383,1001.31757,0,0
5.84,2.4809754,-9.443534,0.06469382,1001.32007,0,0
5.88,2.4522989,-9.581765,0.0031468086,1001.3048,0,0
5.92,2.5340126,-9.619907,0.041063845,1001.31506,0,0
5.96,2.6344072999999995,-9.481678,0.04106561,1001.3099,0,0
6.0,2.4766943,-9.529344,0.045801874000000006,1001.2794,0,0
6.04,-4.6394067,5.4947004,6.2436695,1001.1045,0,0
6.08,-2.4570165,3.2784173,8.359328999999999,1001.13495,0,0
6.12,-2.0172403,3.640675,9.220994,1001.21387,0,0
6.16,-1.955071,3.6931062,7.980583,1001.20355,0,0
6.2,-1.7351657,3.3165472,9.774925,1001.244,0,0
6.24,-1.9406631,3.4261775,9.381973,1001.2849,0,0
6.28,-2.1700592,3.4309433,8.226780999999999,1001.234,0,0
6.32,-1.7016044,3.3785102,8.790178,1001.2747,0,0
6.36,-1.8545258,3.1354146000000003,9.505077,1001.3178,0,0
6.4,-1.4768893,3.3594425,8.454042,1001.31006,0,0
6.44,-0.9606341,4.0696583,7.4598203,1001.2163,0,0
6.48,0.32994509999999994,3.0591476,7.3319945,1001.15533,0,0
6.52,0.0814317,0.81409836,8.747584,1001.1301,0,0
6.56,2.5382853,0.90466213,9.940658,1001.1706,0,0
6.6,3.0688756,0.76166457,8.785466,1001.23926,0,0
6.64,3.666383,1.3717833,8.534545,1001.25433,0,0
6.68,3.8480523,1.0524228999999998,8.075312,1001.2544,0,0
6.72,3.441803,-0.26791418,7.313076,1001.2873,0,0
6.76,4.5507493,0.5995984000000001,7.5213923,1001.26715,0,0
6.8,5.1195827000000005,0.08480937,7.398300999999999,1001.3102,0,0
6.84,4.426545,-1.5024548999999998,9.405691,1001.33575,0,0
6.88,6.3145976,-1.4309573,9.983292,1001.32806,0,0
6.92,5.9322475999999975,-0.9686021,7.545077,1001.3027,0,0
6.96,6.294967,-1.5453421,9.07424,1001.33307,0,0
7.0,7.3178625,-1.6740396,8.004265,1001.3382,0,0
7.04,5.7835636,-3.509164,7.8385630000000015,1001.29254,0,0
7.08,5.9460974,-3.0086763,8.529788,1001.3256,0,0
7.12,7.528231599999999,-2.3842578,6.9248266,1001.30023,0,0
7.16,8.326477,-1.9076028000000005,8.444572,1001.2875,0,0
7.2,7.537828,-2.7274508,8.084759,1001.31067,0,0
7.24,7.566525500000001,-2.9133472,7.1142073,1001.2878,0,0
7.28,8.211817,-2.5034237,7.014786999999999,1001.2725,0,0
7.32,10.2480345,-2.022002,6.9201007,1001.2852,0,0
7.36,10.5635195,-2.660721,5.6986256,1001.2954,0,0
7.4,8.575138,-3.4186041,4.4676824,1001.3131,0,0
7.44,8.938425,-3.1373777,6.830152,1001.2852,0,0
7.48,8.952783,-2.3270636,5.9211483,1001.2343,0,0
7.52,7.8486657000000015,-3.656933,7.0858135,1001.25226,0,0
7.56,7.8104453,-2.350897,6.29517,1001.2471,0,0
7.6,6.529478,-3.432906,8.629233000000001,1001.27765,0,0
7.64,7.9060807,-0.06771733,-2.008973,1001.3004,0,0
7.68,9.038914,-0.41567653,0.08363572,1001.2827,0,0
7.72,6.6585894,-0.005753040300000001,8.013765,1001.3105,0,0
7.76,5.248565,1.4385133999999995,1.9537289,1001.2979,0,0
7.8,5.430217,-1.3546895,5.1778607,1001.32324,0,0
7.84,7.8679375999999985,-0.7493373999999999,5.291487999999998,1001.30554,0,0
7.88,7.824937299999997,0.08004311,4.813315,1001.2903,0,0
7.92,9.263832,-2.6988637000000004,4.1741858,1001.32825,0,0
7.96,7.476209,-1.7884520000000002,3.8948584,1001.3157,0,0
8.0,7.375857000000001,-1.8980832,2.5266175,1001.3182,0,0
8.04,7.863422,-6.578842999999999,1.9821632,1001.3157,0,0
8.08,6.3817080000000015,-8.7809925,1.9726968,1001.26996,0,0
8.12,7.7200785,-4.9439154,0.6186593,1001.2827,0,0
8.16,12.91575,-2.5749369,1.0447578000000002,1001.25714,0,0
8.2,10.258204,-3.366186,0.4624285,1001.26996,0,0
8.24,6.7402929999999985,-5.072614700000001,0.007927926,1001.27765,0,0
8.28,7.849234599999999,-7.0078369999999985,-0.23825862,1001.2649,0,0
8.32,6.3961983,-7.656089,-1.2892944,1001.26746,0,0
8.36,8.112173,-8.175645,-0.8489923,1001.14056,0,0
8.4,5.292113,-9.133722,-1.3887124,1001.13293,0,0
8.44,8.623662,-5.6779699999999975,0.5381928,1001.1888,0,0
8.48,6.4775550000000015,-5.949664,-0.32820103,1001.22437,0,0
8.52,7.161086,-5.7018037,-0.5554505999999999,1001.2471,0,0
8.56,5.832332,-7.0316740000000015,0.026884,1001.24207,0,0
8.6,5.5216699999999985,-7.880122,-0.029926527,1001.26996,0,0
8.64,5.4260993,-8.8239,-0.28558204,1001.2903,0,0
8.68,6.0618324,-6.9792438,0.6044878,1001.30304,0,0
8.72,2.6777601000000004,-7.088875,-1.4360381000000002,1001.43225,0,0
8.76,4.26946,-9.62945,-2.6764498,1001.8157,0,0
8.8,4.2025633,-10.263403,0.23521103,1002.0769,0,0
8.84,3.1510367,-11.979363,-1.3034678,1001.8207,0,0
8.88,3.2466502,-10.830625,0.21154334,1001.2598,0,0
8.92,2.8451738,-8.371082000000001,1.466163,1001.14307,0,0
8.96,3.040527,-9.453075,-1.0573313,1001.2852,0,0
9.0,2.9305916,-8.175638000000001,-0.07730949,1001.19635,0,0
9.04,3.4372509,-9.024086,-0.08677831,1001.18115,0,0
9.08,3.260398,-9.605605,-0.33770177,1001.34357,0,0
9.12,2.3904736,-6.678939,-1.251442,1001.28015,0,0
9.16,3.4037921000000004,-7.5035534,-0.048903067,1001.32324,0,0
9.2,2.1371443,-6.726603999999999,-0.29982647,1001.2954,0,0
9.24,3.4898286,-12.017483,-0.70225096,1001.33093,0,0
9.28,4.206799,-10.725745,0.4624127000000001,1001.29285,0,0
9.32,2.2470796,-10.029829,1.8874683,1001.2954,0,0
9.36,3.0261877,-9.076517,-0.73539174,1001.3029,0,0
9.4,0.33993787,-7.7275815,1.063682,1001.3103,0,0
9.44,2.6485832,-4.0525660000000014,-1.0005186,1001.33856,0,0
9.48,3.5854247000000004,-12.670502,0.6091791999999999,1001.26715,0,0
9.52,6.5775820000000005,-13.86214,-1.8432424,1001.2976,0,0
9.56,2.6055648,-11.345398,0.1120667,1001.3052,0,0
9.6,2.7728581,-10.558916,0.23042682,1001.2875,0,0
9.64,3.040527,-9.257647,0.3156461,1001.27484,0,0
9.68,2.1371443,-9.68187,0.06472265,1001.3053,0,0
9.72,2.361795,-8.280502,1.0447444,1001.33826,0,0
9.76,1.5587877,-9.395877,-0.091512695,1001.35583,0,0
9.8,2.213621,-9.839166,0.60444486,1001.34076,0,0
9.84,2.8445551,-9.815333,0.6991329000000001,1001.3103,0,0
9.88,2.6342437000000003,-9.68187,0.14047313,1001.29254,0,0
9.92,2.0750067,-10.320588,0.09312908,1001.2975,0,0
9.96,2.6768110000000003,-9.843922,0.11675982,1001.2976,0,0
10.0,2.8966641,-9.295767,0.85059094,1001.2875,0,0
10.04,2.6815555,-9.338666,0.5854627,1001.31287,0,0
10.08,2.8727298,-9.324367,0.585461,1001.3053,0,0
10.12,1.9167522,-10.234777,-0.09629479,1001.3229,0,0
10.16,2.5428900000000003,-9.920185,-0.40876698,1001.323,0,0
10.2,3.3363197,-8.904907000000003,0.59019077,1001.3305,0,0
10.24,2.7914045,-8.785743,0.41028175,1001.333,0,0
10.28,2.9825776000000004,-9.476892,0.27298227,1001.3405,0,0
10.32,3.0303578,-9.472127,-0.006349221,1001.3505,0,0
10.36,3.0637999,-9.367262,-0.14838289,1001.3102,0,0
10.4,2.724417,-9.362494,0.3534625,1001.3076,0,0
10.44,3.1354613,-9.448292,0.19722539,1001.3026,0,0
10.48,2.643126,-9.24333,0.3203185,1001.30005,0,0
10.52,2.428016,-9.596055,-0.91536295,1001.3378,0,0
10.56,2.7339056,-9.791483,0.5428321999999999,1001.32275,0,0
10.6,3.4126213,-8.876304,0.6233156,1001.31,0,0
10.64,2.4853203,-9.472123,0.040982,1001.3176,0,0
10.68,3.2500713,-9.505488,0.20195015,1001.29724,0,0
10.72,2.925028,-10.053641,0.022041243,1001.3329,0,0
10.76,3.5272667,-8.871535,2.2093349,1001.2923,0,0
10.8,3.96221,-10.091773,0.34871194,1001.31744,0,0
10.84,0.25306422,-9.829613,-1.2609873,1001.32275,0,0
10.88,2.2462246,-9.424455,0.6611794,1001.3124,0,0
10.92,1.806466,-9.700914,0.44812965,1001.34033,0,0
10.96,1.8930017,-9.705693,0.5523321999999999,1001.305,0,0
11.0,1.9455825,-9.600829,0.5618013000000001,1001.3277,0,0
11.04,2.041181,-9.524564,0.36295655,1001.31757,0,0
11.08,2.2610543,-9.596063,0.34401914,1001.3124,0,0
11.12,2.399671,-9.586529,0.23039365,1001.34283,0,0
11.16,2.538288,-9.524564,0.23986271,1001.31,0,0
11.2,2.504832,-9.524564,0.15464365,1001.33026,0,0
11.24,2.4140182,-9.515031,0.14044067,1001.31244,0,0
11.28,2.3471036,-9.562697,0.07889365,1001.3226,0,0
11.32,2.2515097,-9.710461,0.055221833,1001.3302,0,0
11.36,2.261072,-9.615129,0.13570695,1001.3124,0,0
11.4,2.2993128,-9.576998,0.14517596,1001.3226,0,0
11.44,2.3423336,-9.567464,0.12623858,1001.3124,0,0
11.48,2.4570513,-9.476899,0.17358287,1001.29724,0,0
11.52,2.6052282000000004,-9.510265,0.10730146,1001.3023,0,0
11.56,2.6817071,-9.576998,0.24933378,1001.3277,0,0
11.6,2.5144165000000003,-9.619896,0.29667807,1001.34033,0,0
11.64,2.5335383,-9.500732,0.21619344,1001.3378,0,0
11.68,2.5813386,-9.291004,0.27774093,1001.31744,0,0
11.72,2.5813413,-9.481666,0.21145949,1001.31244,0,0
11.76,2.2802162,-9.72476,0.07416198,1001.3023,0,0
11.8,2.175063,-9.691395,-0.034729112,1001.31744,0,0
11.84,2.1989644,-9.600831,0.026818383,1001.31757,0,0
11.88,2.4809754,-9.443534,0.06469382,1001.32007,0,0
11.92,2.4522989,-9.581765,0.0031468086,1001.3048,0,0
11.96,2.5340126,-9.619907,0.041063845,1001.31506,0,0
12.0,2.6344072999999995,-9.481678,0.04106561,1001.3099,0,0
12.04,2.4766943,-9.529344,0.045801874000000006,1001.2794,0,0
12.08,2.7539432,-9.457847,0.093147784,1001.3124,0,0
12.12,2.6296885,-9.519814,0.1546969,1001.32764,0,0
12.16,2.4576344,-9.653276,0.18783946,1001.29974,0,0
12.2,2.3763982999999995,-9.557946,0.14996608,1001.31494,0,0
12.24,2.2856011,-9.605612,0.25412473,1001.3099,0,0
12.28,2.4624752999999995,-9.534114,0.27306432,1001.32513,0,0
12.32,2.3716779,-9.586546,0.225722,1001.32513,0,0
12.36,2.4386158,-9.653279,0.24466151,1001.33276,0,0
12.4,2.438636,-9.61038,0.26360100000000003,1001.3176,0,0
12.44,2.5963848,-9.47215,0.26360238,1001.32526,0,0
12.48,2.5103722,-9.524583,0.24466695,1001.32526,0,0
12.52,2.5916507,-9.5007515,0.34409145,1001.30005,0,0
12.56,2.5343056,-9.453086,0.23993568,1001.305,0,0
12.6,2.3622532000000005,-9.553183,0.24940634,1001.32263,0,0
12.64,2.5439072,-9.453087,0.19732986,1001.32776,0,0
12.68,2.429212,-9.486454,0.20680057,1001.3302,0,0
12.72,2.4531302000000004,-9.515053,0.2210055,1001.3305,0,0
12.76,2.3384352,-9.71525,0.263617,1001.3127,0,0
12.8,2.47229,-9.476921,0.3677758,1001.3356,0,0
12.84,2.2046413,-9.629452,0.16893262,1001.3204,0,0
12.88,2.4484315,-9.505522,0.107387215,1001.3178,0,0
12.92,2.2955008,-9.629453,0.2020774,1001.29254,0,0
12.96,2.505089,-9.462605,0.24935524,1001.3152,0,0
13.0,2.4047039,-9.53887,0.21147922,1001.31793,0,0
13.04,2.4333746,-9.586535,0.14046238,1001.2822,0,0
13.08,2.4285858,-9.577003,0.21147764,1001.33057,0,0
13.12,2.5385127,-9.519804,0.14046076,1001.3381,0,0
13.16,2.5050452,-9.553169,0.23988244,1001.328,0,0
13.2,2.552834,-9.419705,0.22094397,1001.3255,0,0
13.24,2.4189913,-9.624667,0.15466158,1001.33057,0,0
13.28,2.519358,-9.500736,0.1404575,1001.32806,0,0
13.32,2.4858909,-9.429238,0.18306635,1001.32074,0,0
13.36,2.5432396,-9.577002,0.18779998,1001.323,0,0
13.4,2.581469,-9.519803,0.097845465,1001.33307,0,0
13.44,2.5623417,-9.538867,0.16412635,1001.31824,0,0
13.48,2.557553,-9.495969,0.14518796,1001.2979,0,0
13.52,2.4906268,-9.519802,0.14045271,1001.3157,0,0
13.56,2.4810588,-9.510268,0.13571754,1001.3157,0,0
13.6,2.3137565,-9.662798,0.12624788,1001.3382,0,0
13.64,2.557518,-9.586532,0.22566961,1001.3257,0,0
13.68,2.5097108,-9.443536,0.03155824,1001.33856,0,0
13.72,2.5957384,-9.515034,0.23987116,1001.3004,0,0
13.76,2.6865466,-9.4769,0.08836949,1001.30804,0,0
13.8,2.5813813,-9.557932,0.2493384,1001.3157,0,0
13.84,2.5240150000000003,-9.576999,0.20672794,1001.31824,0,0
13.88,2.4618697,-9.557932,0.22566484,1001.336,0,0
13.92,2.4809797,-9.591298,0.3250865,1001.3182,0,0
13.96,2.5338387000000004,-9.491207,0.2730338,1001.3029,0,0
14.0,2.6198776,-9.476907,0.31090924,1001.3157,0,0
14.04,2.5338435,-9.5674715,0.38665995,1001.3059,0,0
14.08,2.6055436000000003,-9.495974,0.32511294,1001.2931,0,0
14.12,2.6581237,-9.481673,0.41506687,1001.316,0,0
14.16,2.5673099,-9.481673,0.47661436,1001.2956,0,0
14.2,2.5577528,-9.429242,0.4245361,1001.2905,0,0
14.24,2.5290763,-9.5055065,0.43400517,1001.28546,0,0
14.28,2.4478223,-9.519807,0.4245366,1001.3286,0,0
14.32,2.4048064,-9.54364,0.33458313,1001.3286,0,0
14.36,2.3283322,-9.638971000000002,0.28723928,1001.3184,0,0
14.4,2.352234,-9.615138,0.30617717,1001.316,0,0
14.44,2.409594,-9.615138,0.30617740000000004,1001.3134,0,0
14.48,2.3570187,-9.581773,0.29670882,1001.30835,0,0
14.52,2.3187823,-9.581773,0.32511544,1001.321,0,0
14.56,2.2853267,-9.581773,0.41033497,1001.3135,0,0
14.6,2.1992927000000004,-9.610372,0.38192877,1001.33386,0,0
14.64,2.2470932,-9.596072,0.381929,1001.3162,0,0
14.68,2.2996733,-9.648504,0.344054,1001.2936,0,0
14.72,2.3092356,-9.553173,0.36299184,1001.29095,0,0
14.76,2.242321,-9.658037,0.4103361,1001.29346,0,0
14.8,2.1849658,-9.605605,0.41507077,1001.30115,0,0
14.84,2.2757845000000003,-9.538873,0.37719575,1001.2936,0,0
14.88,2.3427043,-9.610372,0.33458632,1001.324,0,0
14.92,2.3761650000000003,-9.615139,0.35352415,1001.29614,0,0
14.96,2.3327296000000004,-9.605596,0.39136124,1001.3114,0,0
15.0,2.351836,-9.605595,0.3392816,1001.31885,0,0
15.04,2.3900588,-9.581762,0.32034248,1001.3063,0,0
15.08,2.308789,-9.5626955,0.34874773,1001.2986,0,0
15.12,2.3135548,-9.519796,0.4055593,1001.2883,0,0
15.16,2.323102,-9.553162,0.37241733,1001.3038,0,0
15.2,2.2896295,-9.581761,0.2824624,1001.2987,0,0
15.24,2.2752752,-9.62466,0.32033628,1001.30115,0,0
15.28,2.2848208,-9.572227,0.39135107,1001.2912,0,0
15.32,2.3134875,-9.562694,0.29666188,1001.27856,0,0
15.36,2.3230314,-9.534094,0.30612925,1001.2912,0,0
15.4,2.3230186,-9.557926,0.32506564,1001.30646,0,0
15.44,2.327785,-9.586525,0.3582053,1001.3014,0,0
15.48,2.2895317000000004,-9.610358,0.3155943,1001.29645,0,0
15.52,2.217821,-9.64849,0.35346824,1001.2962,0,0
15.56,2.1461105,-9.581758,0.3866079,1001.3369,0,0
15.6,2.1986756,-9.59129,0.37240347,1001.2938,0,0
15.64,2.1699817,-9.548391,0.33926132,1001.2938,0,0
15.68,2.193867,-9.586523,0.28244713,1001.2989,0,0
15.72,2.2129722000000003,-9.610356,0.30611792,1001.31146,0,0
15.76,2.2081792,-9.667554,0.37713277,1001.2839,0,0
15.8,2.189047,-9.572222,0.35345954,1001.29877,0,0
15.84,2.1460147000000003,-9.648487,0.37239587,1001.35455,0,0
15.88,2.2224777,-9.581756,0.38659784,1001.2891,0,0
15.92,2.217683,-9.562688,0.34398684,1001.31934,0,0
15.96,2.241569,-9.610354,0.35818884,1001.3092,0,0
16.0,2.2845732999999995,-9.615119,0.33451557,1001.3196,0,0
16.04,2.2463207,-9.648485,0.32504544,1001.3168,0,0
16.08,2.260648,-9.605586,0.33924752,1001.28656,0,0
16.12,2.3036513,-9.572219,0.32977740000000005,1001.2942,0,0
16.16,2.3466558,-9.581753,0.33924493,1001.3092,0,0
16.2,2.3036244,-9.51502,0.36765015,1001.29926,0,0
16.24,2.3131702,-9.591285,0.27769518,1001.3068,0,0
16.28,2.3179357000000005,-9.557919,0.33450678,1001.3093,0,0
16.32,2.3418255,-9.52932,0.39605314,1001.28394,0,0
16.36,2.3800454,-9.543618,0.37711385,1001.29926,0,0
16.4,2.3800316,-9.510252,0.4102534000000001,1001.3017,0,0
16.44,2.3131006000000003,-9.572216,0.3723769,1001.26654,0,0
16.48,2.2700697999999995,-9.519785,0.33923492,1001.3299,0,0
16.52,2.270055,-9.58175,0.38184324,1001.29443,0,0
16.56,2.2270226,-9.6389475,0.3202947,1001.28674,0,0
16.6,2.2270088,-9.610349,0.26821494,1001.29694,0,0
16.64,2.2652342,-9.586515,0.26347935,1001.28937,0,0
16.68,2.174404,-9.596047,0.3013533,1001.31476,0,0
16.72,2.1791697,-9.615113,0.2587424,1001.302,0,0
16.76,2.150478,-9.586514,0.28714759999999995,1001.3223,0,0
16.8,2.2412841,-9.610347,0.25400582,1001.31213,0,0
16.84,2.3129644,-9.629412,0.25873870000000004,1001.3223,0,0
16.88,2.3368518,-9.543614,0.31081614,1001.3224,0,0
16.92,2.4055648,-9.567491,0.28730848,1001.28186,0,0
16.96,2.3386703,-9.605624,0.36306107,1001.31726,0,0
17.0,2.4056106,-9.672356,0.3109847,1001.30975,0,0
17.04,2.295697,-9.610392,0.30151787,1001.29193,0,0
17.08,2.2670407000000004,-9.662824,0.3299264,1001.28674,0,0
17.12,2.2670639,-9.624693,0.4009446,1001.30975,0,0
17.16,2.2623055,-9.562728,0.31099287,1001.2945,0,0
17.2,2.47264,-9.529362,0.3394014,1001.2973,0,0
17.24,2.4200854,-9.562729,0.31573147,1001.33264,0,0
17.28,2.5061445,-9.5484295,0.30626479999999995,1001.31744,0,0
17.32,2.4727077,-9.476932,0.21157865,1001.3099,0,0
17.36,2.3484573,-9.643761,0.22578408,1001.33264,0,0
17.4,2.4631953,-9.510299,0.31573987,1001.2973,0,0
17.44,2.4823346,-9.729562,0.14056875,1001.2973,0,0
17.48,2.3437448,-9.624698,0.35835359999999994,1001.2924,0,0
17.52,2.391563,-9.557966,0.2257921,1001.30255,0,0
17.56,2.4632845000000003,-9.5817995,0.29681042,1001.2821,0,0
17.6,2.4059496,-9.586566,0.33468777,1001.2722,0,0
17.64,2.448991,-9.581801,0.40570593,1001.3077,0,0
17.68,2.1909034,-9.562735,0.30628544,1001.27716,0,0
17.72,2.2291658,-9.557969,0.39624134,1001.26965,0,0
17.76,2.4203799,-9.548436,0.35363367,1001.2824,0,0
17.8,2.4443016,-9.505538,0.25894767,1001.2671,0,0
17.84,2.5160217,-9.577037,0.21160574,1001.3126,0,0
17.88,2.4443476000000004,-9.472173,0.24001426,1001.28754,0,0
17.92,2.2430804,-9.705722,0.23049822,1001.2772,0,0
17.96,2.2144027000000004,-9.562725,0.1831543,1001.2697,0,0
18.0,2.2765412,-9.577024,0.24943608,1001.2825,0,0
18.04,2.2765427000000003,-9.591325,0.27310824,1001.33075,0,0
18.08,2.4342775000000003,-9.529359,0.32992122,1001.32294,0,0
18.12,2.3386824,-9.557959,0.30151492,1001.2977,0,0
18.16,2.281326,-9.586557,0.26837417,1001.2749,0,0
18.2,2.2048507,-9.553191,0.39146885,1001.31793,0,0
18.24,2.0949163,-9.63899,0.3299217,1001.3003,0,0
18.28,2.204853,-9.529359,0.28257772,1001.2977,0,0
18.32,2.4295049,-9.610391,0.19262414,1001.30786,0,0
18.36,2.4295063,-9.586557,0.3157188,1001.29034,0,0
18.4,2.3100126,-9.581792,0.17842117,1001.3154,0,0
18.44,2.2622156,-9.63899,0.23049973,1001.3053,0,0
18.48,2.3530330000000004,-9.47216,0.3583288,1001.31067,0,0
18.52,2.3100164,-9.505527,0.32518807,1001.2951,0,0
18.56,2.3004577,-9.538892,0.3441258,1001.2977,0,0
18.6,2.1857438,-9.734321,0.30151626,1001.3027,0,0
18.64,2.1427267000000003,-9.615157,0.31098518,1001.30304,0,0
18.68,2.0901504,-9.653291,0.3914702000000001,1001.313,0,0
18.72,2.1714082,-9.610391,0.2920478,1001.3257,0,0
18.76,2.2239876,-9.553192,0.34886077,1001.3487,0,0
18.8,2.2909057,-9.586558,0.3630641,1001.29553,0,0
18.84,2.348265,-9.658057,0.26837614,1001.3007,0,0
18.88,2.4343023,-9.467395,0.20209457,1001.2981,0,0
18.92,2.3155330000000003,-9.619942,0.24477062,1001.31323,0,0
18.96,2.15305,-9.677141,0.17849173,1001.3056,0,0
19.0,2.3681717,-9.63901,0.18796334,1001.3336,0,0
19.04,2.6693277,-9.619945,0.23531,1001.31085,0,0
19.08,2.1770382,-9.624713,0.17849992,1001.2983,0,0
19.12,2.5690126,-9.810608,0.036470562000000005,1001.3109,0,0
19.16,2.1770992,-9.524615,0.32527205,1001.3338,0,0
19.2,2.344421,-9.662847,0.33947790000000005,1001.2803,0,0
19.24,2.234516,-9.505551,0.20691733,1001.3031,0,0
19.28,2.2010877,-9.6628475,0.23532653,1001.29565,0,0
19.32,2.229797,-9.615183,0.2874078,1001.326,0,0
19.36,2.215486,-9.63425,0.20219111,1001.2931,0,0
19.4,2.4401693,-9.653317,0.19272524,1001.3134,0,0
19.44,2.4306343,-9.40069,0.30161884,1001.3007,0,0
19.48,2.5501637,-9.42929,0.3158252,1001.3031,0,0
19.52,2.7318267999999994,-9.667619,0.15012379,1001.316,0,0
19.56,2.4355075,-9.586588,0.2542833,1001.3188,0,0
19.6,2.3017032000000004,-9.496024,0.19273885,1001.329,0,0
19.64,2.4116693,-9.762951,0.17853841,1001.3311,0,0
19.68,2.4403787,-9.443594,0.339511,1001.3388,0,0
19.72,2.2109764,-9.591358,0.24482548,1001.3467,0,0
19.76,2.1440897,-9.634257,0.09806172,1001.27325,0,0
19.8,2.096322,-9.720056,0.23062783,1001.33624,0,0
19.84,2.2349668,-9.572293,0.22589622,1001.31366,0,0
19.88,2.0581446,-9.696225,0.23063341,1001.31116,0,0
19.92,2.0954974,-9.748634,0.20214593,1001.31396,0,0
19.96,2.2819035,-9.586572,0.15006689999999998,1001.3315,0,0
20.0,2.6690614,-9.510307,0.22108236,1001.31366,0,0
20.04,2.826789,-9.448341,0.23055065,1001.3088,0,0
20.08,2.8936996,-9.434042,0.31576934,1001.3063,0,0
20.12,2.8936934,-9.4912405,0.2968312,1001.31647,0,0
20.16,2.5973394,-9.405442,0.5146132000000001,1001.34186,0,0
20.2,2.3105447,-9.553205,0.50040936,1001.3114,0,0
20.24,1.9759518,-9.700969,0.41045514,1001.3266,0,0
20.28,1.9950649,-9.577038,0.37257934,1001.3441,0,0
20.32,1.9950589,-9.662836,0.32523474,1001.3114,0,0
20.36,2.0285127,-9.748632,0.24474938,1001.31647,0,0
20.4,2.109762,-9.743867,0.20687348,1001.32153,0,0
20.44,2.1336546000000003,-9.734333,0.17846647,1001.3064,0,0
20.48,2.300941,-9.619936,0.19266905,1001.3367,0,0
20.52,2.3009372000000003,-9.58657,0.1879343,1001.3291,0,0
20.56,2.3152685,-9.653302,0.22580878,1001.33936,0,0
20.6,2.2292259,-9.634234,0.33943394,1001.32416,0,0
20.64,2.21488,-9.634234,0.40098062,1001.35706,0,0
20.68,2.2483325,-9.600869,0.38677683,1001.29865,0,0
20.72,2.281786,-9.591336,0.35363555,1001.3063,0,0
20.76,2.2961178,-9.586569,0.3110252,1001.3165,0,0
20.8,2.3200102000000005,-9.605636,0.29682142,1001.3291,0,0
20.84,2.3200042,-9.586568,0.28735206,1001.347,0,0
20.88,2.358236,-9.581802,0.31575787,1001.3042,0,0
20.92,2.3352718,-9.586591,0.2827026,1001.3141,0,0
20.96,2.3353095,-9.586592,0.32531568,1001.3192,0,0
21.0,2.349675,-9.543694,0.3442557,1001.3346,0,0
21.04,2.3975105,-9.548462,0.27324304,1001.3295,0,0
21.08,2.39754,-9.586595,0.28744897,1001.3218,0,0
21.12,2.3497682,-9.548464,0.27798253,1001.3244,0,0
21.16,2.3736987000000003,-9.548464,0.29218867,1001.2914,0,0
21.2,2.3880696,-9.61043,0.27325392,1001.3269,0,0
21.24,2.4406774,-9.596131,0.29692870000000005,1001.33716,0,0
21.28,2.4359295,-9.538933,0.24011871,1001.3346,0,0
21.32,2.340363,-9.553232,0.30640313,1001.299,0,0
21.36,2.3499563,-9.610433,0.33954704,1001.30414,0,0
21.4,2.2257133,-9.5866,0.3821595999999999,1001.34216,0,0
21.44,2.2066216,-9.610435,0.38216212,1001.3092,0,0
21.48,2.168415,-9.567535,0.358493,1001.32214,0,0
21.52,2.2114646,-9.634269,0.32535505,1001.30695,0,0
21.56,2.3692322,-9.619969,0.28274852,1001.312,0,0
21.6,2.5174377,-9.491274,0.18332891,1001.32214,0,0
21.64,2.4792309,-9.49604,0.2780199,1001.33234,0,0
21.68,2.3645453,-9.55324,0.18806894,1001.3169,0,0
21.72,2.49363,-9.548475,0.21174368,1001.3269,0,0
21.76,2.4219666,-9.515109,0.23068438,1001.2944,0,0
21.8,2.4219964,-9.500811,0.23542151,1001.29425,0,0
21.84,2.3312097,-9.662874,0.25436184,1001.3499,0,0
21.88,2.345583,-9.667642,0.22122408,1001.3449,0,0
21.92,2.3161817000000005,-9.562759,0.2542988,1001.32965,0,0
21.96,2.5312738,-9.505561,0.2116893,1001.29193,0,0
22.0,2.368762,-9.534161,0.29217428,1001.3221,0,0
22.04,2.249268,-9.648558,0.30637765,1001.31195,0,0
22.08,2.1393337000000003,-9.615191,0.26850250000000003,1001.30206,0,0
22.12,2.139335,-9.619958,0.3537219,1001.32745,0,0
22.16,2.3114092,-9.457895,0.36319086,1001.31195,0,0
22.2,2.4117866,-9.5532255,0.2495652,1001.335,0,0
22.24,2.397448,-9.605659,0.28744057,1001.31226,0,0
22.28,2.3831103,-9.648559,0.23536222,1001.30457,0,0
22.32,2.3687720000000003,-9.543693,0.30637842,1001.3173,0,0
22.36,2.3305347000000003,-9.543693,0.3158473,1001.31744,0,0
22.4,2.3592145,-9.56276,0.23062813,1001.3046,0,0
22.44,2.3687758,-9.572293,0.27323790000000003,1001.2972,0,0
22.48,2.3974557,-9.56276,0.24956599,1001.3098,0,0
22.52,2.2827415,-9.586593,0.2543005,1001.31726,0,0
22.56,2.3209815,-9.586593,0.31111350000000004,1001.2972,0,0
22.6,2.3783402,-9.557994,0.19748789,1001.33496,0,0
22.64,2.41658,-9.56276,0.173816,1001.29456,0,0
22.68,2.4452598,-9.515095,0.20695694,1001.2869,0,0
22.72,2.4834998,-9.567526,0.21642587,1001.3046,0,0
22.76,2.4548223,-9.524628,0.28270763,1001.3046,0,0
22.8,2.4357042,-9.56276,0.19748847,1001.30975,0,0
22.84,2.4691641,-9.586593,0.26377028,1001.29486,0,0
22.88,2.4261470000000003,-9.596127,0.26850477,1001.3149,0,0
22.92,2.4700785,-9.5341835,0.2212443,1001.29706,0,0
22.96,2.4892359,-9.581851,0.2165134,1001.3153,0,0
23.0,2.4414735,-9.596151,0.24018869,1001.2924,0,0
23.04,2.455851,-9.538952,0.24019217,1001.3046,0,0
23.08,2.4511092,-9.534186,0.22599241,1001.29987,0,0
23.12,2.4272482,-9.567553,0.25440234,1001.3101,0,0
23.16,2.4320683,-9.548489,0.24020283,1001.31256,0,0
23.2,2.4321017000000005,-9.600921,0.28281555,1001.2948,0,0
23.24,2.446479,-9.53419,0.24494377,1001.3227,0,0
23.28,2.4465172,-9.562791,0.26388487,1001.3049,0,0
23.32,2.4417756,-9.600924,0.24495071,1001.29736,0,0
23.36,2.3892357000000004,-9.553259,0.34911114,1001.2975,0,0
23.4,2.4561884,-9.586626,0.23548868,1001.2872,0,0
23.44,2.3701928,-9.596161,0.35858690000000004,1001.29724,0,0
23.48,2.4467049,-9.558028,0.31598052,1001.3074,0,0
23.52,2.3893852000000004,-9.505598,0.38700008,1001.30237,0,0
23.56,2.3846436,-9.567563,0.34912834,1001.3229,0,0
23.6,2.3846817,-9.548499,0.3680694000000001,1001.3254,0,0
23.64,2.3847198,-9.567565,0.32546327,1001.3202,0,0
23.68,2.4134343,-9.591399,0.24971604,1001.31506,0,0
23.72,2.4564905,-9.524669,0.33967322,1001.3202,0,0
23.76,2.3370287,-9.600934,0.3444107,1001.3075,0,0
23.8,2.3036106,-9.505605,0.34914878,1001.30237,0,0
23.84,2.294089,-9.615235,0.33021468,1001.31506,0,0
23.88,2.3323655,-9.596171,0.25920206,1001.32043,0,0
23.92,2.3513339,-9.648599,0.20710976,1001.3176,0,0
23.96,2.3179057000000003,-9.591401,0.29706627,1001.3153,0,0
24.0,2.2988167,-9.577103,0.3302099,1001.3077,0,0
24.04,2.2892857,-9.548504,0.23078996,1001.3027,0,0
24.08,2.3610132,-9.586637,0.30180886,1001.30023,0,0
24.12,2.3849409,-9.534205,0.35388990000000003,1001.30023,0,0
24.16,2.294155,-9.643837,0.34915830000000003,1001.3078,0,0
24.2,2.4949353,-9.591405,0.23080078,1001.318,0,0
24.24,2.4232705,-9.534207,0.28288218,1001.3154,0,0
24.28,2.4567597,-9.572341,0.21660331,1001.3077,0,0
24.32,2.3946507,-9.558042,0.2923564,1001.2977,0,0
24.36,2.3421032000000004,-9.624775,0.31129682,1001.31036,0,0
24.4,2.2991157,-9.56281,0.29236197,1001.3053,0,0
24.44,2.3804026,-9.543744,0.34444323,1001.2901,0,0
24.48,2.409104,-9.529446,0.25922602,1001.30286,0,0
24.52,2.390021,-9.548513,0.34444863,1001.30786,0,0
24.56,2.4474092,-9.395983,0.28290415,1001.2977,1,1
24.6,2.4904580000000003,-9.391217,0.24976608,1001.33325,1,1
24.64,2.6529999,-9.400752,0.62852114,1001.3232,1,1
24.68,2.739065,-9.434118,0.60958606,1001.323,1,1
24.72,3.2218575,-9.424585,0.32079035,1001.3255,1,1
24.76,3.2410052000000005,-9.4579525,0.017791058999999998,1001.3156,1,1
24.8,3.4752479,-9.44842,0.16456057,1001.31824,1,1
24.84,3.5899937000000004,-9.400756,-0.3940964,1001.3232,1,1
24.88,3.910269,-9.0956955,-1.0805825,1001.3563,1,1
24.92,4.257993,-8.704809,-1.9423542,1001.3614,1,1
24.96,4.157605,-8.352084,-2.42053,1001.3713,1,1
25.0,4.707257299999998,-11.088087,-2.1506712,1001.4526,1,1
25.04,5.529365,-12.6991825,-3.5994008,1001.48816,1,1
25.08,3.1442240000000004,-10.406467,-4.612565,1001.5871,1,1
25.12,2.5897477,-7.8134604,0.33962038,1001.6251,1,1
25.16,3.4978914,-7.2510059999999985,-2.2879758,1001.4119,1,1
25.2,3.2636633,-6.2214300000000025,-0.8155778,1001.3333,1,1
25.24,3.287542,-5.73524,-2.0796657,1001.2599,1,1
25.28,3.7750676,-6.0927315,-2.5909827,1001.2597,1,1
25.32,4.171775,-6.454989,-3.5189276,1001.2549,1,1
25.36,5.295008,-6.9268785,-3.5189295,1001.24976,1,1
25.4,6.1696935,-6.7362156,-3.6372912,1001.2597,1,1
25.44,6.556841,-8.213847999999999,-4.607846,1001.2903,1,1
25.48,7.001342299999999,-9.653348,-4.049188,1001.26746,1,1
25.52,6.757553,-9.024161,-3.5899522000000004,1001.30817,1,1
25.56,6.1552805999999975,-10.864052,-2.501041,1001.28265,1,1
25.6,4.864713,-12.351216,-3.4905334000000003,1001.27765,1,1
25.64,3.196539,-6.8696766,1.6652315,1001.2269,1,1
25.68,-1.6071782,-7.6037254,-0.27587587,1001.1052,1,1
25.72,-0.5460795999999999,-8.423573,3.1518314,1001.1078,1,1
25.76,5.5099114999999985,-10.134767,2.9482505,1001.1609,1,1
25.8,2.4125810000000003,-9.252953,-0.11017683,1001.29803,1,1
25.84,1.3753444,-10.163364,1.3858932,1001.27277,1,1
25.88,2.947881,-9.653343,1.2533282,1001.3513,1,1
25.92,3.0291197,-8.957424000000003,1.8498615000000005,1001.3588,1,1
25.96,3.4449437000000005,-8.5761,1.8498598,1001.3969,1,1
26.0,3.483162,-8.480769,1.0592124,1001.32855,1,1
26.04,3.7986112,-8.781061,0.6993961,1001.33636,1,1
26.08,4.353050700000002,-9.076587,0.8982394,1001.293,1,1
26.12,4.1857386,-9.248183,1.5515856,1001.31586,1,1
26.16,3.7609315,-9.925049,1.082934,1001.3615,1,1
26.2,3.6270983,-10.730597,0.30649173,1001.392,1,1
26.24,5.615497,-9.367361,0.15972525,1001.33875,1,1
26.28,5.6250577,-9.824951,-0.78715557,1001.3386,1,1
26.32,5.811471,-11.054723,-0.85343724,1001.34125,1,1
26.36,1.96851,-9.338762,-3.4810314,1001.39966,1,1
26.4,0.05658962,-12.33216,0.57635325,1001.3059,1,1
26.44,-0.39749074,-14.138685,2.2712703,1001.28796,1,1
26.48,8.88011,-10.72583,-4.877681,1001.496,1,1
26.52,5.844935,-11.540912,-1.4310341,1001.47327,1,1
26.56,2.3795786,-8.342552,0.71838576,1001.42236,1,1
26.6,-0.1059184,-6.2643330000000015,-0.69720113,1001.4833,1,1
26.64,-0.7607505999999999,-5.2204576,-1.350549,1001.46826,1,1
26.68,0.17609207,-5.2252230000000015,-1.3505489,1001.4022,1,1
26.72,1.519218,-6.030772,-1.8950051,1001.35645,1,1
26.76,4.7455864000000005,-7.9612274,-4.271676,1001.31586,1,1
26.8,11.958312,-9.901216,-4.9344926,1001.2199,1,1
26.84,8.851439,-9.820185,-6.1512346,1001.2449,1,1
26.88,4.630874,-11.421748,-2.3305700000000003,1001.3082,1,1
26.92,1.7677729,-15.907077,-2.7898073,1001.14606,1,1
26.96,2.9005876,-6.812487,4.520114,1000.9967,1,1
27.0,-1.4681521999999998,-6.6313580000000005,1.6842053,1001.0145,1,1
27.04,-0.59822685,-9.915516,2.1671147,1001.1131,1,1
27.08,6.0457015,-8.685744,4.2928624000000015,1001.1995,1,1
27.12,0.54918385,-9.8106575,-2.3163426,1001.3112,1,1
27.16,1.4764773000000002,-9.729627,1.5279946000000002,1001.2783,1,1
27.2,4.6550574000000005,-8.523688,2.3659854,1001.3209,1,1
27.24,3.6847687000000007,-8.900247,0.5669126,1001.31635,1,1
27.28,3.593964,-8.814447999999997,0.9882757,1001.32385,1,1
27.32,2.4946206,-9.295872,0.84151024,1001.3114,1,1
27.36,2.7145028,-9.581866,-0.13377616,1001.35925,1,1
27.4,5.7974873,-9.877392,1.0356228,1001.34674,1,1
27.44,4.4352550000000015,-9.79636,0.18343104,1001.3671,1,1
27.48,6.055619,-9.472235,0.708951,1001.32886,1,1
27.52,5.1570269999999985,-10.010857,-1.8334235,1001.34436,1,1
27.56,4.138941,-9.39597,-2.4299572,1001.395,1,1
27.6,-1.0232368,-11.717283,-0.706633,1001.3595,1,1
27.64,-0.4878866,-16.502907,3.980429,1001.26025,1,1
27.68,9.893859,-10.411248,-3.4052413,1001.453,1,1
27.72,6.8156757,-12.699196,-0.78238034,1001.44794,1,1
27.76,1.9068285,-9.376905,0.60953575,1001.4226,1,1
27.8,-0.49740124,-5.2729006,0.19764353,1001.4684,1,1
27.84,-1.4963697,-4.948775,-0.9291438,1001.4659,1,1
27.88,-0.82240576,-4.6818480000000005,-0.49357754,1001.3974,1,1
27.92,0.37733638,-6.3263106,-0.8297190999999999,1001.2883,1,1
27.96,3.9144022000000014,-7.9374065,-3.8029242,1001.2476,1,1
28.0,12.470263,-11.078568,-7.1312103,1001.2376,1,1
28.04,12.279081,-9.558036,-5.284791,1001.2655,1,1
28.08,6.01277,-8.490329,-4.617239,1001.3569,1,1
28.12,0.477957,-12.541906,-1.0758858999999998,1001.22473,1,1
28.16,5.3151364,-12.465641,-3.3578672,1001.088,1,1
28.2,4.588625,-7.136632400000001,5.594894,1001.0626,1,1
28.24,-6.605657000000001,-7.946947,-4.3094788,1001.13885,1,1
28.28,0.95601004,-8.85736,5.8268830000000005,1001.1008,1,1
28.32,4.837232,-9.720106,1.7032182,1001.2454,1,1
28.36,0.70750064,-10.435092,-1.3978151,1001.36957,1,1
28.4,3.5801806000000003,-9.000358,2.4133823,1001.33154,1,1
28.44,2.9110272,-8.619034,0.12666667,1001.357,1,1
28.48,3.1691544,-8.514171000000001,1.679553,1001.3114,1,1
28.52,2.863266,-8.509404,0.38706234,1001.3241,1,1
28.56,2.4474432,-9.3626175,1.0688183,1001.31396,1,1
28.6,3.4177601,-8.952695,0.56697303,1001.3391,1,1
28.64,4.64141,-9.30542,1.6464192,1001.3545,1,1
28.68,3.2887387,-11.0023155,1.2061206,1001.3369,1,1
28.72,4.373777400000002,-10.215834,0.53383744,1001.3723,1,1
28.76,5.4110155,-10.211068,-1.1089991,1001.3925,1,1
28.8,5.6834755,-10.230134,-1.6439859,1001.32153,1,1
28.84,2.2898393,-8.552307,-3.1400557,1001.41284,1,1
28.88,-0.19085991,-13.042403,-0.57400644,1001.33167,1,1
28.92,-2.0071664,-17.346602999999998,2.6595938,1001.3089,1,1
28.96,9.641235,-10.616227,-3.5708811000000003,1001.5118,1,1
29.0,5.1099997,-12.670613,-0.98589426,1001.46625,1,1
29.04,1.1332171,-9.09093,0.37288108,1001.38745,1,1
29.08,-0.38195813,-5.3015175,0.00833399,1001.4434,1,1
29.12,-0.90299976,-4.367271400000001,-0.21892141,1001.3851,1,1
29.16,-0.9316681999999998,-4.0622120000000015,0.10301909,1001.3062,1,1
29.2,0.4019187,-5.339649700000002,-1.8002096,1001.2301,1,1
29.24,6.759073299999999,-12.270225,-8.177451,1001.2278,1,1
29.28,14.387657999999998,-11.798335,-8.646155,1001.2406,1,1
29.32,7.045891,-10.082375,-4.252627,1001.3293,1,1
29.36,-0.7690683,-12.432288,-1.1468558,1001.26575,1,1
29.4,0.42589808,-13.147271,-2.2689083,1001.16705,1,1
29.44,6.8738666,-7.351139,3.2987528,1001.1846,1,1
29.48,-0.31016287,-6.8029850000000005,1.8594952,1001.11115,1,1
29.52,-2.1408122000000005,-10.6114645,0.18825178,1001.15686,1,1
29.56,5.669403,-8.733442,3.4218519,1001.2356,1,1
29.6,0.048370793,-10.463702,0.88421226,1001.3216,1,1
29.64,0.9469915,-10.144343,1.0167772,1001.32434,1,1
29.68,3.4420695,-9.59619,1.7269398,1001.30396,1,1
29.72,3.2317697999999995,-9.024204,0.8652791999999999,1001.33417,1,1
29.76,2.7060077,-9.052803,1.0357193,1001.3142,1,1
29.8,2.027292,-9.491326,0.52440506,1001.3166,1,1
29.84,1.673603,-9.724889,0.6143603,1001.3395,1,1
29.88,1.7931136000000003,-9.186268,1.3387256,1001.3194,1,1
29.92,2.1229377,-9.438896000000002,2.3376868,1001.3167,1,1
29.96,1.8409445,-9.424597,1.9826076,1001.3042,1,1
30.0,2.5866146,-9.643859,2.1672516,1001.2812,0,0
30.04,2.3619761,-9.572361,1.9447354,1001.299,0,0
30.08,1.3295549,-9.73919,1.1020129,1001.27106,0,0
30.12,0.7701776,-9.577125,1.0735936,1001.3218,0,0
30.16,1.7357081,-9.844051,1.1446106000000005,1001.2939,0,0
30.2,2.5291653,-9.524692,1.2345651000000002,1001.3042,0,0
30.24,2.5387347,-9.4007635,1.457083,1001.3066,0,0
30.28,1.9030305,-9.457962,1.3908024,1001.3091,0,0
30.32,1.7166289,-9.705822,1.4476161,1001.2763,0,0
30.36,1.9699687,-9.615257,1.4996957,1001.31177,0,0
30.4,1.9699782,-9.596193,1.4854931999999998,1001.29663,0,0
30.44,1.860053,-9.4627285,1.5281037,1001.2987,0,0
30.48,1.9174205,-9.5151615,1.5328392,1001.3065,0,0
30.52,2.16598,-9.600959,1.4192142,1001.3014,0,0
30.56,2.2663665,-9.510395,1.4286841,1001.2913,0,0
30.6,2.2090185,-9.443664,1.5139042,1001.3013,0,0
30.64,2.299845,-9.477029,1.4523579,1001.30426,0,0
30.68,2.2998552000000005,-9.515162,1.4618276,1001.3192,0,0
30.72,2.2329478,-9.49133,1.4902351,1001.2864,0,0
30.76,2.2568564,-9.472264,1.5091734,1001.3241,0,0
30.8,2.18039,-9.510396,1.4618303999999998,1001.3115,0,0
30.84,2.1565008,-9.51993,1.4949721,1001.2913,0,0
30.88,2.0848134,-9.457966,1.4286913,1001.32153,0,0
30.92,2.3285942000000004,-9.457966,1.5707243999999998,1001.3091,0,0
30.96,2.342944,-9.481798,1.5375845,1001.2888,0,0
31.0,2.19,-9.543763,1.5991327,1001.28394,0,0
31.04,2.1947896,-9.481799,1.3860854,1001.289,0,0
31.08,2.3668725,-9.453199,1.4618368,1001.3065,0,0
31.12,2.5681987,-9.372182,1.679672,1001.3194,0,0
31.16,2.214526,-9.52948,1.7790976000000005,1001.29645,0,0
31.2,2.1715388,-9.362651,1.7743659,1001.27625,0,0
31.24,2.162012,-9.415084,1.6749464,1001.28143,0,0
31.28,1.9469517,-9.596213,1.5139794,1001.2688,0,0
31.32,1.7749138,-9.705845,1.2393873,1001.2812,0,0
31.36,1.6936881999999998,-9.67248,1.1825771,1001.29926,0,0
31.4,1.894473,-9.486586,1.1115642,1001.2688,0,0
31.44,2.1908517000000005,-9.5580845,1.1020982,1001.2534,0,0
31.48,2.329503,-9.534252,1.201524,1001.29926,0,0
31.52,2.1240025,-9.562853,1.0358229,1001.2917,0,0
31.56,1.818128,-9.667718,0.86065286,1001.2763,0,0
31.6,1.6747648000000002,-9.677252,0.87485886,1001.2866,0,0
31.64,1.9998225,-9.615287,0.91273695,1001.312,0,0
31.68,2.0811121,-9.5294895,0.8085829999999999,1001.29663,0,0
31.72,1.8182558,-9.715386,0.6239443,1001.2942,0,0
31.76,1.5888562,-9.772586,0.5860719,1001.2764,0,0
31.8,1.4550588,-9.739221,0.6476225,1001.29926,0,0
31.84,1.5650231,-9.596225,0.74231327,1001.25867,0,0
31.88,1.6271955,-9.596226,0.6807692,1001.29675,0,0
31.92,1.5029515,-9.7392235,0.6949753000000001,1001.2942,0,0
31.96,1.4504046,-9.734456,0.60029,1001.3118,0,0
32.0,1.5077973999999998,-9.748757,0.6192308000000001,1001.30945,0,0
32.04,1.6703415,-9.648661,0.7944066999999999,1001.3015,0,0
32.08,1.53654,-9.67726,0.76126885,1001.2917,0,0
32.12,1.4208219,-9.639104,0.8179898,1001.29675,0,0
32.16,1.435153,-9.739202,0.7517075,1001.2916,0,0
32.2,1.4351442,-9.748734,0.7848475,1001.3221,0,0
32.24,1.7314825,-9.734434,0.70436174,1001.30945,0,0
32.28,1.6406586,-9.820232,0.7753770999999999,1001.3043,0,0
32.32,1.4733571,-9.710601,0.87953323,1001.3068,0,0
32.36,1.3108349,-9.677236,0.8558604,1001.2891,0,0
32.4,1.1865506,-9.748733,0.78010905,1001.27893,0,0
32.44,1.1961013,-9.772566,0.8795306999999999,1001.28406,0,0
32.48,1.3108082,-9.772566,0.77537304,1001.30945,0,0
32.52,1.4111757,-9.729667,0.690153,1001.27136,0,0
32.56,1.5402211,-9.701068,0.7185585999999999,1001.3145,0,0
32.6,1.616689,-9.653401,0.6996201999999999,1001.28656,0,0
32.64,1.5593237,-9.786864,0.6522754,1001.3018,0,0
32.68,1.5927728,-9.596203,0.7280251,1001.29675,0,0
32.72,1.6596811000000002,-9.629567,0.6996178000000001,1001.30444,0,0
32.76,1.5592964,-9.696299,0.7185545999999999,1001.28406,0,0
32.8,1.454132,-9.7677965,0.7658978,1001.29926,0,0
32.84,1.5019209,-9.76303,0.7374906,1001.2713,0,0
32.88,1.5305921,-9.715365,0.68541145,1001.2916,0,0
32.92,1.5927206,-9.73443,0.67594177,1001.2916,0,0
32.96,1.6548492,-9.715364,0.78009784,1001.32715,0,0
33.0,1.5305655,-9.758264,0.7516906999999999,1001.28406,0,0
33.04,1.4540797,-9.79163,0.7232834,1001.3043,0,0
33.08,1.4636303999999998,-9.681998,0.7469545999999999,1001.26904,0,0
33.12,1.4489673,-9.610492,0.71378416,1001.28406,0,0
33.16,1.3963693,-9.7630205,0.6569694,1001.28424,0,0
33.2,1.3963476,-9.796386,0.6664363,1001.28656,0,0
33.24,1.5684046,-9.729654,0.6522316,1001.30176,0,0
33.28,1.7022133999999998,-9.73442,0.6711669,1001.31195,0,0
33.32,1.8551441,-9.701055,0.6238206999999999,1001.2917,0,0
33.36,1.9937369,-9.710587,0.73744446,1001.2992,0,0
33.4,1.8455482,-9.667686,0.69483346,1001.2967,0,0
33.44,1.5157201,-9.677219,0.76111317,1001.28143,0,0
33.48,1.4057578000000002,-9.653386,0.8510644,1001.2663,0,0
33.52,1.3866168,-9.734417,0.7658431,1001.3144,0,0
33.56,1.6542643,-9.743949,0.7563724000000001,1001.2741,0,0
33.6,1.7689593999999995,-9.691517,0.73743284,1001.3068,0,0
33.64,1.9792506,-9.615251,0.6711494,1001.3118,0,0
33.68,1.8884169,-9.562819500000002,0.69481975,1001.2789,0,0
33.72,1.5203516,-9.758247,0.5717234,1001.28143,0,0
33.76,0.9228547,-9.872644,0.7042847,1001.26624,0,0
33.8,0.65994394,-9.872643,0.917331,1001.2716,0,0
33.84,0.9275927,-9.882176,0.98834527,1001.2741,0,0
33.88,1.4437898,-9.658147,1.0404216999999998,1001.2992,0,0
33.92,1.8261541,-9.66768,1.0640918,1001.2941,0,0
33.96,1.8595897,-9.591414,0.9409952,1001.289,0,0
34.0,1.7352918000000002,-9.658145,0.8936491,1001.28424,0,0
34.04,1.5679798,-9.72011,0.8557722,1001.264,0,0
34.08,1.4436821000000002,-9.724876,0.9125829,1001.2792,0,0
34.12,1.3910854,-9.701044,0.8226275,1001.26904,0,0
34.16,1.3778927,-9.782103,0.8653421,1001.28656,0,0
34.2,1.2249616,-9.791637,0.86534417,1001.289,0,0
34.24,1.2154261999999998,-9.734438,0.93162805,1001.26904,0,0
34.28,1.2250098,-9.805938,0.7280509000000001,1001.26904,0,0
34.32,1.3875457,-9.758273,0.7611938,1001.297,0,0
34.36,1.4927255,-9.7201395,0.8038056,1001.2512,0,0
34.4,1.4736303,-9.691542,0.8369485999999999,1001.2842,0,0
34.44,1.401956,-9.68201,0.8085441999999999,1001.297,0,0
34.48,1.4354402,-9.724909,0.8748282,1001.2615,0,0
34.52,1.4641416,-9.710609,0.7990799,1001.30707,0,0
34.56,1.3972483999999998,-9.73921,0.7564724,1001.28674,0,0
34.6,1.3924912,-9.729677,0.7612089,1001.264,0,0
34.64,1.4403132,-9.720144,0.8274927,1001.317,0,0
34.68,1.4403358999999998,-9.724912,0.84643245,1001.31213,0,0
34.72,1.526398,-9.758279,0.78488755,1001.30963,0,0
34.76,1.406927,-9.71538,0.81803054,1001.28687,0,0
34.8,1.43085,-9.677248,0.94112724,1001.2665,0,0
34.84,1.3926326999999998,-9.748747,0.9127228,1001.2894,0,0
34.88,1.3353007,-9.677249,0.90325636,1001.30457,0,0
34.92,1.473939,-9.696316,0.94113374,1001.26154,0,0
34.96,1.5647794,-9.677251,0.9932144,1001.2817,0,0
35.0,1.5265651000000002,-9.629584,0.9600758,1001.31213,0,0
35.04,1.4501123,-9.7773485,0.9695468,1001.2995,0,0
35.08,1.4071167,-9.710617,0.9600801,1001.2844,0,0
35.12,1.3975811000000002,-9.729685,0.9790199,1001.3096,0,0
35.16,1.4152646999999998,-9.777314,0.96941966,1001.30707,0,0
35.2,1.3578762,-9.805914,0.9457448,1001.27167,0,0
35.24,1.3769625,-9.743948,0.9741483,1001.28687,0,0
35.28,1.353033,-9.791614,0.9978174,1001.29706,0,0
35.32,1.305202,-9.72488,1.0167521000000002,1001.30457,0,0
35.36,1.458121,-9.720112,1.0640929,1001.2766,0,0
35.4,1.5536861000000002,-9.672445,1.1303717,1001.2842,0,0
35.44,1.5249726,-9.677212,1.0972278,1001.31976,0,0
35.48,1.5297216,-9.643845,1.0214744,1001.30457,0,0
35.52,1.381517,-9.667677,1.026206,1001.3022,0,0
35.56,1.3050052,-9.720108,1.016734,1001.30707,0,0
35.6,1.3049725,-9.610477,1.0451374,1001.2745,0,0
35.64,1.472235,-9.634309,0.9693842,1001.27155,0,0
35.68,1.6012568,-9.729639,0.8841619000000001,1001.30707,0,0
35.72,1.5964441,-9.720104,0.8888933000000001,1001.2919,0,0
35.76,1.653771,-9.6915045,0.90782815,1001.30975,0,0
35.8,1.6393968999999995,-9.667671,0.9741066,1001.302,0,0
35.84,1.4672931,-9.701037,0.95043176,1001.2944,0,0
35.88,1.4577028,-9.720102,1.0498514,1001.3248,0,0
35.92,1.4815669,-9.686736,1.0403794,1001.30707,0,0
35.96,1.4910936,-9.739166,0.98829806,1001.2742,0,0
36.0,1.5914409,-9.686734,0.9693578000000002,1001.28925,0,0
36.04,1.6774426,-9.705798,0.89833844,1001.30707,0,0
36.08,1.6296138999999998,-9.681966,0.8983357,1001.2745,0,0
36.12,1.5779643,-9.677222,0.85581106,1001.28186,0,0
36.16,1.4967128,-9.63909,0.9173588,1001.2817,0,0
36.2,1.5062799999999998,-9.686755,0.86528105,1001.2817,0,0
36.24,1.5779827,-9.677222,0.87001586,1001.2817,0,0
36.28,1.5971084999999998,-9.74872,0.7563908,1001.29443,0,0
36.32,1.6305735,-9.672455,0.8084698,1001.307,0,0
36.36,1.6496987,-9.7010565,0.82267356,1001.292,0,0
36.4,1.6783837,-9.66769,0.8652839,1001.2944,0,0
36.44,1.6019129,-9.672456,0.884222,1001.26434,0,0
36.48,1.7309740000000002,-9.643857,0.84161294,1001.3199,0,0
36.52,1.7262005,-9.615257,0.89369196,1001.2919,0,0
36.56,1.6545093999999998,-9.624792,0.81320757,1001.292,0,0
36.6,1.7835708,-9.610493,0.84161466,1001.27924,0,0
36.64,1.888733,-9.69629,0.87002164,1001.31213,0,0
36.68,1.8361609,-9.629559,0.8132093,1001.2944,0,0
36.72,1.8409467,-9.667691,0.76113147,1001.3045,0,0
36.76,1.7835953999999998,-9.772555,0.72325677,1001.2948,0,0
36.8,1.7836021,-9.653392,0.8084766,1001.26154,0,0
36.84,1.7405898999999998,-9.653393,0.84161806,1001.30206,0,0
36.88,1.7166976000000005,-9.677225,0.77060264,1001.28723,0,0
36.92,1.6928046,-9.615259,0.8321504000000001,1001.297,0,0
36.96,1.8935622,-9.6915245,0.7753380999999999,1001.2821,0,0
37.0,1.9700457,-9.6295595,0.77533877,1001.2897,0,0
37.04,1.9270338,-9.562829,0.7279953,1001.2794,0,0
37.08,1.7358482,-9.62956,0.7800743,1001.297,0,0
37.12,1.6070181,-9.586666,0.8037669,1001.3048,0,0
37.16,1.6070343,-9.672464,0.6948771,1001.2718,0,0
37.2,1.6405073,-9.701065,0.7658944999999999,1001.2743,0,0
37.24,1.7169994,-9.80593,0.76589584,1001.2821,0,0
37.28,1.7265732,-9.662932,0.8321788,1001.3149,0,0
37.32,1.7696028999999998,-9.600967,0.80850786,1001.2972,0,0
37.36,1.8556594,-9.7106,0.84165055,1001.3049,0,0
37.4,1.8365533,-9.624802,0.79430765,1001.29443,0,0
37.44,1.7983273999999998,-9.639102,0.91266894,1001.28723,0,0
37.48,1.7648878,-9.58667,0.8511234000000001,1001.2718,0,0
37.52,1.6836416,-9.658168,0.8227179,1001.3022,0,0
37.56,1.5498252,-9.772567,0.84165716,1001.29456,0,0
37.6,1.5211576999999998,-9.767799,0.82745504,1001.3251,0,0
37.64,1.5020547,-9.724901,0.8605974000000001,1001.33264,0,0
37.68,1.5164084,-9.70107,0.8227234,1001.2794,0,0
37.72,1.4590659,-9.65817,0.8416624,1001.2795,0,0
37.76,1.6024753,-9.648638,0.68542844,1001.35284,0,0
37.8,1.7411067,-9.653405,0.6759611999999999,1001.2819,0,0
37.84,1.81282,-9.710603,0.8274636000000001,1001.30475,0,0
37.88,1.8032718,-9.720137,0.78485507,1001.2819,0,0
37.92,1.7793869999999998,-9.543775,0.8748100000000001,1001.29205,0,0
37.96,1.6360091,-9.724904,0.8132642,1001.27185,0,0
38.0,1.5930042,-9.791637,0.63335806,1001.29205,0,0
38.04,1.5691252,-9.63434,0.8132673,1001.30225,0,0
38.08,1.5786963,-9.753505,0.87955004,1001.3048,0,0
38.12,1.5882701,-9.624808,0.7990665,1001.2922,0,0
38.16,1.6074053999999998,-9.677241,0.72805184,1001.30225,0,0
38.2,1.5739609,-9.743973,0.7043811,1001.282,0,0
38.24,1.6122137,-9.682008,0.5339439,1001.3098,0,0
38.28,1.483175,-9.615276,0.3729756,1001.2794,0,0
38.32,1.9659506,-9.548545,0.98844963,1001.3073,0,0
38.36,1.7126353,-9.777339,0.54341686,1001.31244,0,0
38.4,1.8895031,-9.677243,0.61443436,1001.29974,0,0
38.44,1.7222261000000003,-9.767807,0.40612197,1001.31,0,0
38.48,2.0520473000000004,-9.6391115,0.7327971999999999,1001.28955,0,0
38.52,1.8035123,-9.662944,0.51975036,1001.31995,0,0
38.56,1.8322064,-9.648644,0.66651833,1001.31,0,0
38.6,1.9803947,-9.653412,0.61444116,1001.3124,0,0
38.64,1.7270782999999998,-9.71061,0.43453503,1001.29724,0,0
38.68,1.9660839,-9.78211,0.4818805,1001.28955,0,0
38.72,1.6888721999999998,-9.6915455,0.6854615,1001.2844,0,0
38.76,1.7940421000000002,-9.653413,0.40613288,1001.2895,0,0
38.8,1.975691,-9.600982,0.75174594,1001.29474,0,0
38.84,1.5120652,-9.705846,-0.010491852,1001.2998,0,0
38.88,1.884904,-9.53425,0.7186078,1001.29474,0,0
38.92,1.602911,-9.877443,0.51029533,1001.3022,0,0
38.96,1.7128617,-9.605749,0.7044074,1001.287,0,0
39.0,1.7463346000000002,-9.805946,0.4487508,1001.3023,0,0
39.04,1.6746526999999998,-9.758281,0.60972196,1001.3149,0,0
39.08,1.6268699,-9.739214,0.52450407,1001.3403,0,0
39.12,1.7320398,-9.591452,0.6144590999999999,1001.29456,0,0
39.16,1.5880783,-9.667703,0.55285984,1001.2897,0,0
39.2,1.6836672,-9.739201,0.63334405,1001.2744,0,0
39.24,1.7171177,-9.643869,0.5481241,1001.29724,0,0
39.28,1.7888081000000002,-9.667702,0.5528579,1001.33264,0,0
39.32,1.7696807,-9.753499,0.57652915,1001.28973,0,0
39.36,1.7170959,-9.648635,0.500778,1001.2897,0,0
39.4,1.7887847,-9.620036,0.58599657,1001.3023,0,0
39.44,1.6692826,-9.705833,0.37294766,1001.3023,0,0
39.48,1.8413479,-9.753499,0.5812608,1001.2922,0,0
39.52,1.760084,-9.786864,0.5528536999999999,1001.2643,0,0
39.56,1.8461124,-9.648634,0.600197,1001.3049,0,0
39.6,1.9082428,-9.672466,0.5623210999999999,1001.30725,0,0
39.64,2.0277305,-9.677234,0.57178926,1001.31,0,0
39.68,1.9369065,-9.662932,0.41555318,1001.2897,0,0
39.72,1.9225594,-9.634334,0.61913186,1001.3049,0,0
39.76,1.7600389,-9.7677965,0.6191312,1001.31,0,0
39.8,1.8556279,-9.543769,0.6191306,1001.277,0,0
39.84,1.434997,-9.672465,0.32559678,1001.2922,0,0
39.88,1.7647959,-9.691532,0.65700436,1001.28723,0,0
39.92,1.6213946,-9.915559,0.5765189000000001,1001.3048,0,0
39.96,1.7361025,-9.763029,0.67594063,1001.28705,0,0
40.0,1.6309395,-9.629565,0.72801846,1001.32007,0,0
40.04,1.5926936,-9.681998,0.68067366,1001.2923,0,0
40.08,1.8460153,-9.600966,0.6285946,1001.29724,0,0
40.12,1.960723,-9.701064,0.54810905,1001.28467,0,0
40.16,2.0616746,-9.58668,0.5386929,1001.3074,0,0
40.2,2.1286073,-9.639113,0.49135023,1001.2947,0,0
40.24,2.138183,-9.639113,0.4818829000000001,1001.33527,0,0
40.28,2.1190782,-9.710612,0.49608743,1001.3049,0,0
40.32,1.9709183,-9.610516,0.60024565,1001.3226,0,0
40.36,1.860999,-9.6200485,0.68073195,1001.3049,0,0
40.4,1.8514546000000005,-9.615282,0.70440537,1001.29724,0,0
40.44,1.7606525000000002,-9.653415,0.6665314999999999,1001.30225,0,0
40.48,1.7702284,-9.672482,0.66653293,1001.2796,0,0
40.52,1.7511245,-9.696315,0.69020635,1001.2948,0,0
40.56,1.7415779999999998,-9.729681,0.67600435,1001.3124,0,0
40.6,1.7941711,-9.710615,0.6807401999999999,1001.3226,0,0
40.64,1.7798479,-9.643884,0.6665385,1001.29724,0,0
40.68,1.7416238000000002,-9.653417,0.6712741,1001.29736,0,0
40.72,1.7703179,-9.6629505,0.68547875,1001.3049,0,0
40.76,1.7990118000000002,-9.648651,0.71862096,1001.3124,0,0
40.8,1.8707241,-9.677251,0.7280911,1001.29724,0,0
40.84,1.8420606,-9.672484,0.6854829000000001,1001.28723,0,0
40.88,1.9759094,-9.634353,0.77543795,1001.31,0,0
40.92,1.8659881,-9.586688,0.7565016,1001.28973,0,0
40.96,1.822985,-9.562856,0.7943783,1001.3176,0,0
41.0,1.7082849999999998,-9.743984,0.80384845,1001.31256,0,0
41.04,1.7035203999999995,-9.772585,0.7280994000000001,1001.3078,0,0
41.08,1.8947288,-9.577156,0.69969445,1001.3176,0,0
41.12,1.9708754,-9.653413,0.6996642,1001.305,0,0
41.16,1.8179232,-9.686779,0.6333827,1001.32764,0,0
41.2,1.5454755,-9.839309,0.6901956,1001.3327,0,0
41.24,1.5550362,-9.715379,0.9079783,1001.32007,0,0
41.28,1.6458536,-9.567615,1.0452762,1001.31757,0,0
41.32,1.9947807,-9.64388,0.9316505,1001.305,0,0
41.36,2.29591,-9.529483,1.0026667,1001.3179,0,0
41.4,2.4536445,-9.5056505,0.87010354,1001.3027,0,0
41.44,2.2767932,-9.605747,0.87957245,1001.3151,0,0
41.48,2.042584,-9.558082,0.87483823,1001.29224,0,0
41.52,1.8179342,-9.620048,1.0736833,1001.28723,0,0
41.56,1.5311473999999998,-9.758278,0.93165123,1001.2849,0,0
41.6,1.3590757,-9.79641,0.90797937,1001.30237,0,0
41.64,1.301719,-9.763043,0.9742611,1001.3078,0,0
41.68,1.282601,-9.710611,0.8511666999999999,1001.3027,0,0
41.72,1.2539234,-9.724912,0.7754164000000001,1001.305,0,0
41.76,1.3590804,-9.8059435,0.803823,1001.3179,0,0
41.8,1.5550536,-9.705845,0.8274950999999999,1001.3025,0,0
41.84,1.7844855,-9.6915455,0.8748391999999999,1001.3176,0,0
41.88,1.7080097,-9.686779,0.8606360999999999,1001.2923,0,0
41.92,1.5215986,-9.662946,0.86537063,1001.3202,0,0
41.96,1.3925453,-9.715379,0.9458556,1001.3075,0,0
42.0,1.4403447,-9.7439785,0.88430846,1001.30023,0,0
42.04,1.7558129,-9.643881,0.9411214,1001.3154,0,0
42.08,1.8179517,-9.820243,0.6996669,1001.3382,0,0
42.12,1.8753103,-9.634347,0.7801519,1001.3179,0,0
42.16,1.7461925,-9.624813,1.0121319,1001.3252,0,0
42.2,1.7796499,-9.58668,0.92691255,1001.3126,0,0
42.24,1.7844285,-9.610514,0.9931941,1001.3053,0,0
42.28,1.7461888,-9.639112,0.9789908000000002,1001.3608,0,0
42.32,1.7414078000000002,-9.615279,0.9695219,1001.3354,0,0
42.36,1.6697093999999997,-9.734444,0.88903683,1001.33276,0,0
42.4,1.6840476000000002,-9.691545,0.8464271000000001,1001.31256,0,0
42.44,1.5932299,-9.677245,0.8748334000000001,1001.30005,0,0
42.48,1.6792653000000002,-9.667712,0.9032397,1001.3027,0,0
42.52,1.6744843,-9.705844,0.8606299999999999,1001.2747,0,0
42.56,1.6983819,-9.691545,0.780145,1001.2975,0,0
42.6,1.736619,-9.672478,0.86536413,1001.3279,0,0
42.64,1.6553612000000002,-9.701077,0.80855113,1001.29486,0,0
42.68,1.6123418,-9.715378,0.76120704,1001.3176,0,0
42.72,1.5549828,-9.72491,0.88430136,1001.32043,0,0
42.76,1.5167431999999998,-9.729676,0.8558949,1001.29486,0,0
42.8,1.540641,-9.720142,0.86062914,1001.30005,0,0
42.84,1.6410156000000002,-9.710609,0.7848786,1001.31256,0,0
42.88,1.6314548,-9.720142,0.87956655,1001.3126,0,0
42.92,1.6171141000000002,-9.672477,0.84642565,1001.33276,0,0
42.96,1.6123329,-9.686777,0.9127072,1001.30255,0,0
43.0,1.6171116,-9.691544,0.8558941999999999,1001.3305,0,0
43.04,1.6171103,-9.729676,0.9079726,1001.3178,0,0
43.08,1.6840262,-9.72491,0.8937691999999999,1001.31287,0,0
43.12,1.636227,-9.748742,0.8653627,1001.3126,0,0
43.16,1.6794706999999998,-9.639117,0.87011766,1001.3,0,0
43.2,1.5695429,-9.7344475,0.8985248,1001.3001,0,0
43.24,1.665146,-9.66295,0.97427595,1001.29504,0,0
43.28,1.6555939999999998,-9.567618,0.85591656,1001.32025,0,0
43.32,1.7989961,-9.53902,0.80383885,1001.30505,0,0
43.36,1.8945996,-9.610519,0.68547934,1001.3279,0,0
43.4,1.9997622,-9.653418,0.60026073,1001.30505,0,0
43.44,1.9567515,-9.696317,0.60026145,1001.2924,0,0
43.48,1.813365,-9.701085,0.6902158,1001.3103,0,0
43.52,1.7464554,-9.691551,0.7233574,1001.3077,0,0
43.56,1.7608023999999998,-9.705851,0.77070206,1001.3051,0,0
43.6,1.7177918999999997,-9.710617,0.7044210999999999,1001.3178,0,0
43.64,1.7130191000000003,-9.691551,0.6949529000000001,1001.3077,0,0
43.68,1.7608248,-9.715385,0.67128164,1001.3406,0,0
43.72,1.8086306,-9.705852,0.69021994,1001.3025,0,0
43.76,1.8181977,-9.662952,0.7280959,1001.3152,0,0
43.8,1.8468835,-9.634354,0.71862775,1001.3252,0,0
43.84,1.971166,-9.610521,0.6570812,1001.2823,0,0
43.88,1.9663936,-9.634355,0.6428786,1001.343,0,0
43.92,2.042878,-9.658187,0.68548894,1001.32275,0,0
43.96,1.9377297,-9.639121,0.7423024,1001.2898,0,0
44.0,1.7704438999999998,-9.686787,0.83225685,1001.32025,0,0
44.04,1.6079386,-9.720152,0.8180544,1001.2849,0,0
44.08,1.5362493,-9.753518,0.9316807,1001.2953,0,0
44.12,1.4024219999999998,-9.791652,0.8748686,1001.29755,0,0
44.16,1.4461285,-9.777368,0.76130587,1001.3051,0,0
44.2,1.6421368000000005,-9.724937,0.91281015,1001.348,0,0
44.24,1.6756276,-9.596241,0.78971857,1001.3103,0,0
44.28,1.8955327,-9.667741,0.72817445,1001.31006,0,0
44.32,2.1058786,-9.553344,0.7045055,1001.3152,0,0
44.36,2.387919,-9.577178,0.7471181,1001.3103,0,0
44.4,2.1776419,-9.601011,0.65716755,1001.33044,0,0
44.44,2.0916398000000003,-9.558113,0.695046,1001.31006,0,0
44.48,2.1203527,-9.524747,0.7755340000000001,1001.3179,0,0
44.52,2.120387,-9.620079,1.0832734,1001.29486,0,0
44.56,2.058282,-9.515216,0.9933226,1001.29755,0,0
44.6,2.0487542000000003,-9.601015,0.7329333,1001.30505,0,0
44.64,2.0679097,-9.620082,0.6619206,1001.3126,0,0
44.68,2.1683178,-9.610551,0.7755493,1001.2822,0,0
44.72,2.0345154,-9.643916,0.6193168000000001,1001.3077,0,0
44.76,2.0249898,-9.672516,0.69507045,1001.3101,0,0
44.8,1.9533292,-9.643917,0.71874577,1001.3101,0,0
44.84,1.867325,-9.648685,0.6856079,1001.26715,0,0
44.88,1.915157,-9.605787,0.789768,1001.3101,0,0
44.92,1.9247509,-9.65822,0.8418495,1001.2924,0,0
44.96,1.8722054,-9.648688,0.64774185,1001.2899,0,0
45.0,1.8483427,-9.682055,0.6524795999999999,1001.3077,0,0
45.04,1.8866132,-9.748788,0.68562335,1001.3178,0,0
45.08,1.8292898,-9.66299,0.7803146,1001.3356,0,0
45.12,1.7528384999999995,-9.69159,0.61934716,1001.3101,0,0
45.16,1.6943853,-9.629598,0.7186695,1001.3001,0,0
45.2,1.7708526000000002,-9.653431,0.7044653000000001,1001.3308,0,0
45.24,1.7899617,-9.696329,0.7423397,1001.3026,0,0
45.28,1.7803919999999998,-9.677262,0.7423387,1001.33044,0,0
45.32,1.8329604,-9.686796,0.7470723000000001,1001.3101,0,0
45.36,1.8138303,-9.653429,0.7707433000000001,1001.3179,0,0
45.4,1.7134444,-9.629596,0.7470703000000001,1001.32025,0,0
45.44,1.7516732,-9.7725935,0.7565383000000001,1001.2927,0,0
45.48,1.737323,-9.672495,0.74706846,1001.2923,0,0
45.52,1.7373141,-9.691561,0.8086149,1001.3176,0,0
45.56,1.6608264,-9.748759,0.81334835,1001.32275,0,0
45.6,1.6894951,-9.701095,0.7944098,1001.29736,0,0
45.64,1.6416876,-9.724927,0.82754976,1001.3356,0,0
45.68,1.6416781000000005,-9.691561,0.82754886,1001.3381,0,0
45.72,1.737264,-9.653427,0.8559544,1001.3254,0,0
45.76,1.7181365000000002,-9.615294,0.84175044,1001.3305,0,0
45.8,1.7085643,-9.677259,0.8133428,1001.3279,0,0
45.84,1.6989976000000002,-9.701093,0.70918524,1001.33044,0,0
45.88,1.7515653000000002,-9.605761,0.76126283,1001.2927,0,0
45.92,1.7276568,-9.724925,0.7423243,1001.3405,0,0
45.96,1.727646,-9.701093,0.7944018,1001.30505,0,0
46.0,1.7180761999999998,-9.705857,0.79913527,1001.2899,0,0
46.04,1.6893892,-9.724924,0.7328528,1001.3152,0,0
46.08,1.7371759999999998,-9.710624,0.8038679,1001.32526,0,0
46.12,1.6739313999999998,-9.643865,0.79903215,1001.3405,0,0
46.16,1.6786564999999998,-9.667697,0.8179647,1001.3483,0,0
46.2,1.7216406000000002,-9.681995,0.799024,1001.2927,0,0
46.24,1.7215792,-9.705827,0.85109687,1001.3126,0,0
46.28,1.7071854,-9.720124,0.77060694,1001.2898,0,0
46.32,1.688015,-9.643859,0.7800710999999999,1001.3232,0,0
46.36,1.6688411,-9.696289,0.8084725,1001.3025,0,0
46.4,1.6974688999999998,-9.701056,0.7516550000000001,1001.3127,0,0
46.44,1.6782917000000002,-9.691521,0.86054105,1001.3127,0,0
46.48,1.635219,-9.705818,0.7658479,1001.3407,0,0
46.52,1.668623,-9.720117,0.8557966,1001.3127,0,0
46.56,1.6590123,-9.667684,0.8321199,1001.333,0,0
46.6,1.6446183,-9.710582,0.7658332,1001.3305,0,0
46.64,1.6541268,-9.672447,0.82737577,1001.32526,0,0
46.68,1.6588521,-9.734411,0.8841836999999999,1001.3077,0,0
46.72,1.6062196000000002,-9.72011,0.83683467,1001.32776,0,0
46.76,1.6396238,-9.696276,0.82736075,1001.36346,0,0
46.8,1.6778077,-9.681975,0.794215,1001.3304,0,0
46.84,1.6538506999999998,-9.643841,0.8131473000000001,1001.34076,0,0
46.88,1.6633592,-9.653374,0.8178770000000001,1001.333,0,0
46.92,1.6680912,-9.658138,0.74212223,1001.30286,0,0
46.96,1.6632535,-9.710569,0.82733613,1001.3179,0,0
47.0,1.6154008999999998,-9.743935,0.73737746,1001.31006,0,0
47.04,1.6774873,-9.729633,0.8131233,1001.3304,0,0
47.08,1.7347868999999998,-9.7200985,0.77997714,1001.3129,0,0
47.12,1.6725984,-9.658132,0.74209726,1001.32806,0,0
47.16,1.7174383000000002,-9.677243,0.79907686,1001.3534,0,0
47.2,1.6839986,-9.686776,0.7990786,1001.3177,0,0
47.24,1.6601186999999995,-9.701077,0.80854905,1001.333,0,0
47.28,1.722274,-9.682011,0.78487873,1001.3506,0,0
47.32,1.6983941000000002,-9.667712,0.83695894,1001.3279,0,0
47.36,1.7223121,-9.639112,0.78961664,1001.28265,0,0
47.4,1.6984308,-9.705845,0.7706805999999999,1001.3279,0,0
47.44,1.7271299,-9.705845,0.82276094,1001.3179,0,0
47.48,1.6554506999999998,-9.729679,0.7896218,1001.3053,0,0
47.52,1.7319478,-9.65818,0.76121724,1001.3202,0,0
47.56,1.6507089,-9.743979,0.7943597,1001.3304,0,0
47.6,1.7463242,-9.682014,0.7943614,1001.3152,0,0
47.64,1.7559028,-9.691548,0.8227696,1001.3053,0,0
47.68,1.6937832,-9.682015,0.78016156,1001.3181,0,0
47.72,1.7320403999999998,-9.696316,0.79910094,1001.3181,0,0
47.76,1.7368393,-9.729682,0.7422898,1001.3432,0,0
47.8,1.7177379000000002,-9.648651,0.8038387,1001.33295,0,0
47.84,1.6986378,-9.672483,0.72335553,1001.3256,0,0
47.88,1.7273357,-9.72015,0.813311,1001.33295,0,0
47.92,1.7321343,-9.648652,0.72809345,1001.3355,0,0
47.96,1.736932,-9.672485,0.70442307,1001.3431,0,0
48.0,1.7178319,-9.73445,0.79911286,1001.33826,0,0
48.04,1.7847693,-9.743985,0.7801771,1001.33295,0,0
48.08,1.818246,-9.629587,0.7754443,1001.3103,0,0
48.12,1.7609073,-9.667722,0.77544606,1001.3256,0,0
48.16,1.7651867,-9.686775,0.7848691,1001.3232,0,0
48.2,1.8082037,-9.63911,0.79433775,1001.30023,0,0
48.24,1.7699641,-9.686775,0.75172806,1001.3176,0,0
48.28,1.7699629,-9.648643,0.72332144,1001.2951,0,0
48.32,1.7651817,-9.691542,0.76593095,1001.3207,0,0
48.36,1.755621,-9.662942,0.7564621,1001.30023,0,0
48.4,1.7651793000000002,-9.600977,0.6996491,1001.3054,0,0
48.44,1.7460587,-9.662942,0.77066505,1001.2926,0,0
48.48,1.7556173,-9.662941,0.69964886,1001.33545,0,0
48.52,1.7460563000000002,-9.672474,0.72805524,1001.3154,0,0
48.56,1.7651743999999998,-9.672474,0.6996486,1001.3054,0,0
48.6,1.8225306,-9.629575,0.73278934,1001.3207,0,0
48.64,1.7603918,-9.70584,0.7753989,1001.3154,0,0
48.68,1.7125927,-9.691541,0.7327891,1001.2926,0,0
48.72,1.6886922999999998,-9.634342,0.7659298000000001,1001.35315,0,0
48.76,1.6504526999999998,-9.653408,0.80380505,1001.3129,0,0
48.8,1.6743505,-9.667708,0.7753985,1001.3256,0,0
48.84,1.7030281000000005,-9.753506,0.818008,1001.30023,0,0
48.88,1.6886873,-9.667708,0.7469918000000001,1001.34076,0,0
48.92,1.6695668999999995,-9.643875,0.7943358,1001.3156,0,0
48.96,1.6600058999999998,-9.686774,0.6949131,1001.29785,0,0
49.0,1.7173624,-9.70584,0.7896011,1001.313,0,0
49.04,1.7317005,-9.777338,0.68070966,1001.30023,0,0
49.08,1.6839012999999998,-9.710607,0.77539766,1001.3105,0,0
49.12,1.6943338,-9.729695,0.84175926,1001.323,0,0
49.16,1.6848065,-9.691563,0.8464966,1001.3232,0,0
49.2,1.6609436000000002,-9.691564,0.7991559,1001.3105,0,0
49.24,1.7613516,-9.629599,0.80862755,1001.3053,0,0
49.28,1.8091841,-9.639133,0.7470834,1001.3384,0,0
49.32,1.8617963,-9.6868,0.6902736999999999,1001.30804,0,0
49.36,1.8618218,-9.6820345,0.7518233,1001.2926,0,0
49.4,1.8283974,-9.686801,0.7328889000000001,1001.3257,0,0
49.44,1.7328439999999998,-9.639136,0.8323153,1001.29004,0,0
49.48,1.665959,-9.710635,0.78497416,1001.31036,0,0
49.52,1.6420878,-9.667738,0.8370552,1001.35364,0,0
49.56,1.7090456000000005,-9.7154045,0.85599655,1001.2902,0,0
49.6,1.6899586,-9.66774,0.76604575,1001.31287,0,0
49.64,1.6804332,-9.643907,0.73764247,1001.32043,0,0
49.68,1.6900291,-9.734472,0.751849,1001.30035,0,0
49.72,1.7282997,-9.701108,0.7471175,1001.3207,0,0
49.76,1.7474511,-9.715408,0.77079254,1001.3232,0,0
49.8,1.7474833,-9.729709,0.7045137,1001.3358,0,0
49.84,1.766641,-9.677277,0.7518614,1001.3181,0,0
49.88,1.7379879,-9.715411,0.77080137,1001.32806,0,0
49.92,1.7045635,-9.710645,0.7471325,1001.3205,0,0
49.96,1.7619532,-9.682047,0.6855880999999999,1001.31006,0,0
50.0,1.7333086,-9.643914,0.6808568,1001.3435,0,0
50.04,1.7381291,-9.696348,0.7187358,1001.31036,0,0
50.08,1.7429432,-9.677282,0.6808637,1001.3459,0,0
50.12,1.7668679,-9.691583,0.7187413,1001.33325,0,0
50.16,1.7420026000000002,-9.686792,0.6807776,1001.33325,0,0
50.2,1.7706765,-9.682026,0.7044491999999999,1001.31793,0,0
50.24,1.8567075,-9.629593,0.7517928,1001.3384,0,0
50.28,1.8567027,-9.6677265,0.7186515,1001.32806,0,0
50.32,1.7993401000000002,-9.6152935,0.6997134,1001.29504,0,0
50.36,1.8758117,-9.615293,0.770729,1001.3207,0,0
50.4,1.8327888,-9.596227,0.7044469,1001.3358,0,0
50.44,1.9188207,-9.691558,0.6192272,1001.30286,0,0
50.48,1.904476,-9.639126,0.8180717,1001.3308,0,0
50.52,1.904471,-9.653425,0.66657025,1001.3053,0,0
50.56,1.8710073,-9.672491,0.72811705,1001.376,0,0
50.6,1.8327636000000005,-9.658192,0.6334285,1001.3103,0,0
50.64,1.8279793,-9.620059,0.6334281,1001.32825,0,0
50.68,1.8470931,-9.629591,0.55767715,1001.3155,0,0
50.72,1.7897304,-9.667725,0.7091776,1001.3078,0,0
50.76,1.7801657,-9.662957,0.57187945,1001.3152,0,0
50.8,1.7084635,-9.639125,0.6144885999999999,1001.3129,0,0
50.84,1.7419174,-9.705856,0.59081614,1001.3232,0,0
50.88,1.7658111,-9.705856,0.65709734,1001.3129,0,0
50.92,1.8136047,-9.71539,0.5624088,1001.3205,0,0
50.96,1.8470582,-9.558093,0.6428931999999999,1001.34326,1,2
51.0,1.9617683,-9.705855,0.6428928,1001.3053,1,2
51.04,1.9474236,-9.62959,0.62868905,1001.29004,1,2
51.08,2.0238957,-9.634357,0.6239541999999999,1001.2901,1,2
51.12,2.1099272,-9.620058,0.40617114,1001.3382,1,2
51.16,2.1721568,-9.662958,0.5245396999999999,1001.3156,1,2
51.2,2.0431008000000004,-9.553328,0.40617943,1001.33325,1,2
51.24,2.0717785,-9.643892,0.15999028,1001.33325,1,2
51.28,2.00008,-9.705857,0.24047507,1001.33325,1,2
51.32,2.0622163,-9.629592,0.09844278,1001.328,1,2
51.36,2.2677464,-9.529495,-0.10040234,1001.3509,1,2
51.4,2.4589374,-9.496129,-0.27557543,1001.3712,1,2
51.44,2.5879908,-9.472297,-0.4933582,1001.35596,1,2
51.48,2.5019531,-9.920353,-1.2745352,1001.3612,1,2
51.52,2.702704,-9.634359,-1.8284605,1001.3637,1,2
51.56,2.4398136000000004,-9.014707,-2.2924323,1001.3256,1,2
51.6,1.7897586,-9.357899,-2.0178368000000004,1001.3409,1,2
51.64,3.6108627,-11.393219,0.21680197,1001.3992,1,2
51.68,1.4217111999999998,-12.155868,-3.045203,1001.44995,1,2
51.72,2.4350286,-10.120548,-1.4781151,1001.40424,1,2
51.76,5.28857,-9.138638,0.3540994,1001.38904,1,2
51.8,2.9464650000000003,-9.672491,-1.6864291,1001.4321,1,2
51.84,1.8901271,-8.42842,-1.4165683,1001.46515,1,2
51.88,1.5698788,-7.527541,-1.4970533,1001.49554,1,2
51.92,2.1769130000000003,-6.3454347,-1.492319,1001.52356,1,2
51.96,2.9990377,-6.4693656,-1.9562906,1001.45233,1,2
52.0,3.9406583,-6.3597345,-3.2440488,1001.42194,1,2
52.04,7.377335499999999,-8.26159,-1.1325046,1001.4247,1,2
52.08,8.361974,-9.2625675,-4.697511,1001.3382,1,2
52.12,7.0092880000000015,-13.175911,-4.725918,1001.36865,1,2
52.16,1.9470531,-12.341753,-0.47446114,1001.21155,1,2
52.2,1.0149735999999998,-7.565662400000001,1.8548642,1001.0441,1,2
52.24,0.6086726,-7.274902,1.215718,1000.9934,1,2
52.28,2.5922735,-10.854586,1.7412352999999998,1001.0493,1,2
52.32,3.8828027,-9.415086,2.4987385,1001.1812,1,2
52.36,-0.4620567,-9.906039,-0.21407704,1001.3028,1,2
52.4,0.5034481,-10.05857,1.4003536,1001.2876,1,2
52.44,3.390431,-9.362651,2.0631685,1001.3308,1,2
52.48,2.3531957,-9.233954,0.99319136,1001.3813,1,2
52.52,2.4439943,-8.576169,2.082103,1001.313,1,2
52.56,3.5767910000000005,-9.429382,1.2961901000000002,1001.2902,1,2
52.6,3.2899895,-9.291152,1.2204385,1001.3611,1,2
52.64,3.4955,-9.314983,0.3682437,1001.3612,1,2
52.68,3.8587472,-9.052823,1.9779396,1001.4016,1,2
52.72,3.8443902,-9.686774,0.69017994,1001.3968,1,2
52.76,4.355812,-9.334049,0.07470581,1001.35345,1,2
52.8,4.9198112,-9.481812,-1.1704444,1001.3103,1,2
52.84,5.4742494000000015,-10.0109,-1.2130557,1001.3152,1,2
52.88,2.047113,-10.868879,-4.527140599999999,1001.35864,1,2
52.92,-0.8064468000000001,-12.737369,0.82746965,1001.346,1,2
52.96,-1.2414267,-14.572493,0.46291888,1001.32825,1,2
53.0,7.7684855,-9.276848,-3.7222967,1001.5233,1,2
53.04,3.7629926,-10.106229,-1.8522084,1001.5032,1,2
53.08,2.391171,-7.4178896,-0.94320416,1001.5158,1,2
53.12,1.5307906,-6.66954,-1.4261149,1001.5031,1,2
53.16,0.71820515,-6.4455113,-1.2840846,1001.53107,1,2
53.2,0.058574468,-6.383545400000001,-0.8011768,1001.5007,1,2
53.24,1.1531329,-6.631406,-1.7433249,1001.38153,1,2
53.28,4.5658984,-7.799212,-4.006371499999998,1001.2294,1,2
53.32,11.878982,-9.496106,-6.0232296,1001.22925,1,2
53.36,7.0274587,-9.667702,-6.605563,1001.3486,1,2
53.4,3.6720185,-10.825974,-0.92901385,1001.3232,1,2
53.44,-1.1125818,-12.956625,-3.9685035,1001.1051,1,2
53.48,2.075534,-10.725876,-1.17994,1001.04913,1,2
53.52,2.5152537999999995,-7.2176895,3.9616215,1001.03894,1,2
53.56,0.010618851,-9.686766,0.25931537,1001.11005,1,2
53.6,4.3076453,-9.605733,2.6785947999999995,1001.2595,1,2
53.64,0.5554821,-10.225386,-0.12417455,1001.3714,1,2
53.68,0.42163533,-10.296884,0.5859850000000001,1001.3608,1,2
53.72,3.1461048,-8.924114,1.5802082,1001.3688,1,2
53.76,3.150868,-8.51419,1.3955649,1001.4039,1,2
53.8,2.5724938,-8.561856,1.1730462,1001.3509,1,2
53.84,2.7349906,-9.300672,0.9505278,1001.35596,1,2
53.88,2.8066688,-9.457968,-0.22834067,1001.33057,1,2
53.92,2.5055256,-9.982288,-0.26148295,1001.3486,1,2
53.96,2.865144,-9.305465,2.3330748,1001.3332,1,2
54.0,0.90543264,-10.725899,0.6618305,1001.35364,1,2
54.04,2.0334733,-10.363641,1.1826156,1001.313,1,2
54.08,3.204533,-9.305466,1.7223383,1001.3207,1,2
54.12,4.5906844000000016,-9.572392,0.339893,1001.3207,1,2
54.16,3.9932168,-10.182512,-0.25190684,1001.3433,1,2
54.2,3.4626653,-9.434163,-2.05098,1001.38385,1,2
54.24,2.80306,-8.628615,-2.538623,1001.4321,1,2
54.28,2.2247124,-10.435141,1.0121813,1001.38654,1,2
54.32,-0.07914552,-15.625921,3.6208394,1001.3257,1,2
54.36,5.08305,-9.801188,0.060567327,1001.50824,1,2
54.4,7.0523367,-10.783101,-0.74428076,1001.4399,1,2
54.44,2.7122834,-9.1386385,0.39197716,1001.285,1,2
54.48,1.9857599,-8.714414999999999,1.9590657,1001.35864,1,2
54.52,1.6989793999999998,-7.641939,0.53401065,1001.40936,1,2
54.56,0.75258666,-8.585718,-1.1040927,1001.4169,1,2
54.6,2.3299294,-9.052841,-1.6438142,1001.35315,1,2
54.64,4.9922867,-9.763058,-1.4639062,1001.34076,1,2
54.68,3.4197397000000005,-9.500897,-1.5585934,1001.2902,1,2
54.72,3.8786094,-8.824046000000003,-1.350279,1001.22174,1,2
54.76,5.1404843,-9.477064,-1.8426563,1001.26984,1,2
54.8,6.301985,-9.782125,-1.9231405,1001.3865,1,2
54.84,5.522884,-8.933679,0.11265421,1001.42444,1,2
54.88,2.277405,-8.576186,1.2110368,1001.3865,1,2
54.92,1.7276998,-8.938443,1.570849,1001.31793,1,2
54.96,1.0250748,-8.623852000000001,1.9496019,1001.3078,1,2
55.0,-0.44709867,-11.164426,-0.37025574,1001.23694,1,2
55.04,2.1770198,-13.233112,-3.4097428,1001.15326,1,2
55.08,3.5679492999999995,-9.772593,-2.7990043,1001.1937,1,2
55.12,2.301307,-8.771614999999999,-0.90524185,1001.2192,1,2
55.16,1.8328927,-9.334069,-0.6732554000000001,1001.2418,1,2
55.2,1.8281192,-9.396034,1.443024,1001.2167,1,2
55.24,1.9428407,-9.329302,0.3304396,1001.23444,1,2
55.28,3.0135229,-9.438934,-2.4344523,1001.2192,1,2
55.32,1.0681486999999998,-10.049053,-1.8142447,1001.25964,1,2
55.36,1.6321723,-9.472301,1.3246661,1001.2167,1,2
55.4,1.0968406000000002,-10.277848,0.9932585,1001.3001,1,2
55.44,1.0777273,-9.934656,-0.7868771,1001.35614,1,2
55.48,1.9237593,-9.539031,0.17420769,1001.3511,1,2
55.52,2.3204892000000004,-9.529499,0.07478571,1001.346,1,2
55.56,2.6980999,-9.629597,0.49614832,1001.3483,1,2
55.6,2.0815115,-9.896525,0.9743238,1001.3156,1,2
55.64,0.18393533,-10.468511,0.8701674,1001.35364,1,2
55.68,0.7049407,-9.310239,0.0416472,1001.35596,1,2
55.72,2.6120884,-9.539032,0.1600079,1001.346,1,2
55.76,3.2334692000000005,-10.149152,0.6949962,1001.34326,1,2
55.8,2.435248,-11.111998,-1.4023446000000002,1001.417,1,2
55.84,1.8234392,-9.7010975,-0.37024376,1001.35864,1,2
55.88,0.35604596,-9.329305,2.2999613,1001.25476,1,2
55.92,-0.10746345,-9.6868,2.4988182,1001.17865,1,2
55.96,0.16021769,-9.286409,-0.13350978,1001.29785,1,2
56.0,-1.029942,-9.88223,-0.18085279,1001.29004,1,2
56.04,0.17935969,-9.944195,1.2205321000000002,1001.30023,1,2
56.08,2.2107866,-9.839332,2.0490537,1001.3205,1,2
56.12,1.6563412,-9.515205,0.084276974,1001.323,1,2
56.16,1.4412607,-10.039527,0.04166829,1001.30023,1,2
56.2,0.9059349,-10.015696,0.8181118000000001,1001.2571,1,2
56.24,0.89160544,-9.729702,0.45829797,1001.30756,0,0
56.28,1.3265797,-9.834566,0.16950034,1001.285,0,0
56.32,1.4699845,-9.810733,0.4914409000000001,1001.3054,0,0
56.36,1.4891151000000002,-9.791668,0.30206573,1001.3156,0,0
56.4,1.1832191,-9.739236,0.21211305,1001.32043,0,0
56.44,0.71002996,-9.829801,0.39675587,1001.31793,0,0
56.48,0.74827987,-9.968031,0.42989776,1001.32825,0,0
56.52,0.8152085,-9.74877,0.23578823,1001.3358,0,0
56.56,0.9060369,-9.810735,0.2973366,1001.3257,0,0
56.6,0.9251669,-9.791669,0.051148534,1001.3232,0,0
56.64,0.8248017,-9.758304,0.31627616,1001.323,0,0
56.68,0.7578958,-9.834569,0.43937176,1001.3435,0,0
56.72,0.9204199,-9.744004,0.32101262,1001.3409,0,0
56.76,0.96822923,-9.853636,0.30207604,1001.3256,0,0
56.8,0.99691886,-9.820271,0.33521786,1001.32043,0,0
56.84,1.044729,-9.772605,0.25946847,1001.3435,0,0
56.88,0.9587038,-9.9299,0.36362645,1001.32825,0,0
56.92,0.9575489,-9.743977,0.5055528,1001.328,0,0
56.96,0.8666993000000001,-9.734444,0.4960810000000001,1001.3205,0,0
57.0,0.7949646,-9.729676,0.66651607,1001.32825,0,0
57.04,1.0482585,-9.848839,0.6807161,1001.32825,0,0
57.08,0.77099675,-9.867904,1.0405278,1001.3486,0,0
57.12,0.56542975,-9.9584675,0.7043818000000001,1001.3257,0,0
57.16,0.41244048,-9.796404,0.36350143,1001.35864,0,0
57.2,0.63705575,-9.677239,0.8464074,1001.31793,0,0
57.24,0.5270937,-9.696304,1.0641875,1001.313,0,0
57.28,0.83295673,-9.777334,0.62388396,1001.3382,0,0
57.32,0.83293235,-9.743969,0.8369299000000001,1001.3207,0,0
57.36,0.9858394,-9.815467,0.91267616,1001.2951,0,0
57.4,1.0383862,-9.777332,1.1115183000000002,1001.30023,0,0
57.44,0.9905594,-9.720133,1.0404996,1001.30286,0,0
57.48,1.1052413,-9.810697,1.0073556,1001.3207,0,0
57.52,0.9665826,-9.891727,0.95053875,1001.29504,0,0
57.56,1.0095654,-9.705831,0.8700505999999999,1001.2927,0,0
57.6,1.0429972,-9.681997,1.2535348,1001.29004,0,0
57.64,0.98082215,-9.763027,1.1067649,1001.3256,0,0
57.68,0.90908307,-9.877424,1.0641514,1001.2902,0,0
57.72,0.8660291999999999,-9.839291,1.097289,1001.3257,0,0
57.76,0.9138029,-9.801158,1.1635684,1001.32043,0,0
57.8,0.96156543,-9.705826,1.1114867,1001.3206,0,0
57.84,0.9567502,-9.786857,1.0499362,1001.346,0,0
57.88,0.9853956,-9.824988,1.0025891,1001.3232,0,0
57.92,1.0482786,-9.772574,0.89850056,1001.29785,0,0
57.96,1.0243766,-9.763041,0.9411099,1001.30505,0,0
58.0,1.0148132,-9.753508,0.91743755,1001.32825,0,0
58.04,0.9144339,-9.801173,0.8890308000000001,1001.33057,0,0
58.08,0.8570724000000001,-9.805941,0.8322174999999999,1001.2976,0,0
58.12,0.95266443,-9.825006,0.8274828000000002,1001.3079,0,0
58.16,1.0052389000000002,-9.782107,0.71859115,1001.3027,0,0
58.2,0.9813358,-9.810706,0.6239026999999999,1001.3079,0,0
58.24,1.0195706,-9.79164,0.70438725,1001.3332,0,0
58.28,0.966989,-9.829773,0.6428396,1001.3409,0,0
58.32,1.0339024,-9.820239,0.61916727,1001.31036,0,0
58.36,0.9430825,-9.777339,0.53868204,1001.3384,0,0
58.4,0.9287395,-9.786873,0.5244785,1001.3358,0,0
58.44,0.96219426,-9.834538,0.5481501999999999,1001.313,0,0
58.48,0.98608917,-9.782106,0.5434154,1001.28015,0,0
58.52,1.0673423999999998,-9.80594,0.49133664,1001.33325,0,0
58.56,1.1246961000000002,-9.782106,0.46766427,1001.3486,0,0
58.6,1.1533715,-9.767806,0.5008047000000001,1001.3181,0,0
58.64,1.0864503,-9.72014,0.4629292,1001.30286,0,0
58.68,1.1772628,-9.7725725,0.39664716,1001.3508,0,0
58.72,1.0625435,-9.801171,0.38244358,1001.2926,0,0
58.76,1.0959988,-9.786872,0.44872496,1001.31793,0,0
58.8,1.0338575,-9.777338,0.453459,1001.33057,0,0
58.84,1.0816516,-9.777338,0.4155834,1001.3332,0,0
58.88,1.03385,-9.7725725,0.4960679,1001.3257,0,0
58.92,1.0395685,-9.782128,0.45354423,1001.32275,0,0
58.96,1.0396028,-9.810728,0.40620333,1001.3384,0,0
59.0,0.9966188,-9.820263,0.49142575,1001.31793,0,0
59.04,1.0348914,-9.786898,0.49616328,1001.3207,0,0
59.08,0.9966852,-9.829798,0.46302536,1001.35864,0,0
59.12,0.9967194,-9.834565,0.5056382,1001.3181,0,0
59.16,0.9632929,-9.805967,0.53404754,1001.3153,0,0
59.2,0.94898564,-9.810733,0.481972,1001.34076,0,0
59.24,0.94902414,-9.767835,0.4393659,1001.3232,0,0
59.28,1.0972301000000002,-9.820269,0.43936884,1001.3105,0,0
59.32,1.0446864,-9.858401,0.39202794,1001.31006,0,0
59.36,1.0590581,-9.782138,0.48671898,1001.32776,0,0
59.4,1.092553,-9.772606,0.46305028,1001.33295,0,0
59.44,1.1021405,-9.815504,0.49619368,1001.32043,0,0
59.48,1.0878375,-9.89177,0.49146256,1001.3358,0,0
59.52,1.1356697,-9.739242,0.5056689,1001.323,0,0
59.56,1.0592294,-9.801208,0.5246099,1001.34814,0,0
59.6,1.1118371,-9.844108,0.529347,1001.3304,0,0
59.64,1.0784105,-9.7916765,0.50567794,1001.3154,0,0
59.68,1.131027,-9.758311,0.49147823,1001.3509,0,0
59.72,1.2457743,-9.744013,0.46307477,1001.34076,0,0
59.76,1.2410309,-9.758313,0.42993727,1001.3152,0,0
59.8,1.1072263999999998,-9.863178,0.38733035,1001.32043,0,0
59.84,1.0929233,-9.796447,0.43467775,1001.31793,0,0
59.88,1.1359758,-9.739249,0.36366484,1001.3305,0,0
59.92,1.0680524,-9.844089,0.39671353,1001.313,0,0
59.96,0.96288973,-9.867921,0.38250965,1001.3181,0,0
60.0,1.034579,-9.820256,0.37304017,1001.3435,0,0
60.04,1.1062685,-9.815489,0.3683051,1001.343,0,0
60.08,1.2114171,-9.74399,0.26888192,1001.3305,0,0
60.12,1.211409,-9.815488,0.24047475,1001.3181,0,0
60.16,1.1588244,-9.834555,0.14105162,1001.3129,0,0
60.2,1.1349173,-9.782123,0.25467660000000003,1001.33795,0,0
60.24,1.1349101,-9.839321,0.18365988,1001.2927,0,0
60.28,1.1253426000000002,-9.777354,0.23573759,1001.30023,0,0
60.32,1.0153999,-9.877453,0.23100251,1001.32275,0,0
60.36,1.106209,-9.796421,0.2546739,1001.34564,0,0
60.4,1.1731181,-9.867919,0.15998507,1001.3405,0,0
60.44,1.2065698,-9.763055,0.09843716,1001.3105,0,0
60.48,1.1348653999999998,-9.76782,0.074764475,1001.3126,0,0
60.52,1.1348578,-9.825019,0.14577985,1001.34564,0,0
60.56,1.0774921,-9.801187,0.06529423,1001.3154,0,0
60.6,1.0392462,-9.8631525,0.013215063,1001.3381,0,0
60.64,1.1013759,-9.710622,0.09369927,1001.3358,0,0
60.68,1.0296712,-9.815486,0.07476094,1001.32526,0,0
60.72,1.0965815,-9.786886,-0.015193395,1001.3126,0,0
60.76,1.0965738,-9.825018,-0.010459691,1001.3026,0,0
60.8,1.1969421,-9.810719,-0.015194781,1001.328,0,0
60.84,1.110899,-9.825018,0.0037422404,1001.3308,0,0
60.88,1.2160461,-9.815486,-0.076743454,1001.3508,0,0
60.92,1.2208183,-9.786885,-0.09094733,1001.3407,0,0
60.96,1.1777934,-9.858383,-0.07674475,1001.3333,0,0
61.0,1.2638222,-9.820251,-0.124089494,1001.3078,0,0
61.04,1.1777781,-9.810718,-0.08621496,1001.3154,0,0
61.08,1.3116056,-9.777351,-0.15249728,1001.3304,0,0
61.12,1.3450565,-9.77735,-0.1903732,1001.313,0,0
61.16,1.2253093000000002,-9.7964115,-0.15725546,1001.32526,0,0
61.2,1.2300737,-9.772578,-0.11938162,1001.3156,0,0
61.24,1.2635167,-9.786878,-0.08624223,1001.3356,0,0
61.28,1.2013648,-9.83931,-0.20933811,1001.3152,0,0
61.32,1.27783,-9.801176,-0.11465107,1001.3431,0,0
61.36,1.3064903,-9.75351,-0.14779356,1001.3456,0,0
61.4,1.2825748,-9.791643,-0.18093589,1001.3358,0,0
61.44,1.3494773000000002,-9.734444,-0.25668773,1001.3405,0,0
61.48,1.2538658,-9.863141,-0.32770520000000003,1001.3181,0,0
61.52,1.2729725,-9.758276,-0.22354944,1001.33795,0,0
61.56,1.2825174,-9.801174,-0.2566916,1001.3304,0,0
61.6,1.3350759,-9.801173,-0.2850998,1001.32275,0,0
61.64,1.3494046,-9.844072,-0.2851008,1001.3356,0,0
61.68,1.3541651,-9.829773,-0.3466498,1001.29755,0,0
61.72,1.3254745,-9.815473,-0.30404124,1001.30756,0,0
61.76,1.3397986000000002,-9.810705,-0.28037068,1001.3077,0,0
61.8,1.2728657,-9.801172,-0.29457527,1001.30505,0,0
61.84,1.277631,-9.810704,-0.25670138,1001.3025,0,0
61.88,1.3158538,-9.748739,-0.22829638,1001.3051,0,0
61.92,1.3062787,-9.820237,-0.2803763,1001.3126,0,0
61.96,1.3731804,-9.763038,-0.389269,1001.328,0,0
62.0,1.3636073,-9.839303,-0.3324574,1001.2953,0,0
62.04,1.3157927,-9.767803,-0.30878687,1001.3126,0,0
62.08,1.4113731000000005,-9.791637,-0.33719474,1001.3355,0,0
62.12,1.3874587,-9.796403,-0.35139933,1001.3103,0,0
62.16,1.4075258,-9.7201605,-0.34657815,1001.35077,0,0
62.2,1.4410058,-9.715395,-0.3607794,1001.3356,0,0
62.24,1.4936079,-9.701097,-0.3276364,1001.32544,0,0
62.28,1.4553909,-9.753529,-0.37971285,1001.3177,0,0
62.32,1.3454783,-9.867926,-0.3844452,1001.3051,0,0
62.36,1.2642444,-9.815495,-0.36077103,1001.30505,0,0
62.4,1.2594861000000002,-9.758296,-0.29448742,1001.32043,0,0
62.44,1.2021512,-9.867928,-0.30868855,1001.3126,0,0
62.48,1.3455682,-9.729699,-0.3323585,1001.29486,0,0
62.52,1.4603063,-9.720165,-0.32762203,1001.32025,0,0
62.56,1.4890051000000002,-9.7439995,-0.40810505,1001.3356,0,0
62.6,1.402993,-9.791665,-0.37022758,1001.3431,0,0
62.64,1.4269148,-9.805966,-0.41283512,1001.3103,0,0
62.68,1.3982588,-9.729702,-0.43177068,1001.3356,0,0
62.72,1.3552634,-9.744001,-0.3607525,1001.3026,0,0
62.76,1.3313859,-9.791668,-0.39862582,1001.3177,0,0
62.8,1.3266303999999998,-9.763068,-0.4459676,1001.3354,0,0
62.84,1.2884132,-9.815501,-0.46963763,1001.3051,0,0
62.88,1.2071867,-9.782137,-0.47910374,1001.3103,0,0
62.92,1.1116062,-9.786903,-0.46489912,1001.33295,0,0
62.96,1.1498661,-9.791671,-0.5075068,1001.3279,0,0
63.0,1.1976869,-9.77737,-0.5595831,1001.3229,0,0
63.04,1.226387,-9.805972,-0.46962744,1001.31537,0,0
63.08,1.2072923,-9.772606,-0.5122349,1001.3305,0,0
63.12,1.2025324,-9.715408,-0.25657523,1001.33044,0,0
63.16,1.3875678,-9.7201395,-0.25670126,1001.33795,0,0
63.2,1.4162115,-9.753505,-0.20462605,1001.3025,0,0
63.24,1.2154267,-9.777337,-0.22356667,1001.3126,0,0
63.28,1.3062098999999998,-9.739204,-0.22356968,1001.29736,0,0
63.32,1.3205165,-9.705837,-0.17149429,1001.3177,0,0
63.36,1.3252633,-9.767801,-0.25671655,1001.3229,0,0
63.4,1.2630969,-9.7678,-0.2519848,1001.3127,0,0
63.44,1.2296034,-9.805933,-0.39402017,1001.30005,0,0
63.48,1.1052976,-9.829765,-0.24725644,1001.32025,0,0
63.52,1.0192281,-9.87743,-0.24252503,1001.2851,0,0
63.56,1.0144153,-9.810697,-0.1620432,1001.2899,0,0
63.6,1.0860794,-9.891727,-0.14310859,1001.30756,0,0
63.64,1.1338444,-9.85836,-0.18572125,1001.313,0,0
63.68,1.267648,-9.867892,-0.23780252,1001.31006,0,0
63.72,1.291514,-9.791629,-0.22360234,1001.29755,0,0
63.76,1.2771416000000002,-9.782094,-0.100510836,1001.32275,0,0
63.8,1.219751,-9.7868595,-0.048435424000000005,1001.2823,0,0
63.84,1.2197222,-9.715361,0.013109218,1001.32294,0,0
63.88,1.2961638999999998,-9.763024,0.04624684,1001.32275,0,0
63.92,1.2531148,-9.75349,0.07465044400000001,1001.3152,0,0
63.96,1.1766028,-9.786856,0.09358485,1001.31506,0,0
64.0,1.2100285,-9.786856,0.06517540000000001,1001.3127,0,0
64.04,1.3294908,-9.753489,0.16459487,1001.35315,0,0
64.08,1.2529827,-9.743955,0.13145123,1001.30005,0,0
64.12,1.1955923000000002,-9.777319,0.11724499,1001.2925,0,0
64.16,1.1674565,-9.777332,0.06048183,1001.31006,0,0
64.2,1.1435479,-9.839298,0.12202822,1001.29736,0,0
64.24,1.2104558,-9.772567,0.12676176,1001.3026,0,0
64.28,1.1530873,-9.853597,0.0557447,1001.3179,0,0
64.32,1.2247747,-9.810698,0.13149433,1001.3355,0,0
64.36,1.1960852,-9.829764,0.08414927,1001.30505,0,0
64.4,1.2343141000000002,-9.777331,0.14096127,1001.3254,0,0
64.44,1.234304,-9.772565,0.16936675,1001.3126,0,0
64.48,1.1339179,-9.805931,0.15989704,1001.3355,0,0
64.52,1.1386875,-9.824996,0.21197455,1001.33295,0,0
64.56,1.2103751,-9.805931,0.27352095,1001.33795,0,0
64.6,1.1673467,-9.810696,0.23564477,1001.3355,0,0
64.64,1.157777,-9.848829,0.23564383,1001.3152,0,0
64.68,1.1912248,-9.758265,0.24984607,1001.34814,0,0
64.72,1.1147391000000002,-9.767796,0.32559574,1001.3254,0,0
64.76,1.0573714,-9.810695,0.35400125,1001.32275,0,0
64.8,1.1290582,-9.786862,0.29718745,1001.3153,0,0
64.84,1.1864057,-9.805929,0.32559296,1001.3252,0,0
64.88,1.1863956,-9.84406,0.35399845,1001.29486,0,0
64.92,1.148147,-9.824993,0.29718468,1001.2975,0,0
64.96,1.1242391,-9.810694,0.25457420000000003,1001.3077,0,0
65.0,1.1242282,-9.782095,0.25930762,1001.3103,0,0
65.04,1.0955393,-9.78686,0.28771314,1001.3254,0,0
65.08,1.1624471,-9.824992,0.2593058,1001.32275,0,0
65.12,1.1241986000000002,-9.824992,0.28771132,1001.3152,0,0
65.16,1.1488881000000002,-9.801179,0.22623642,1001.2847,0,0
65.2,1.0963317,-9.810713,0.25937924,1001.33044,0,0
65.24,1.125031,-9.772581,0.2783187,1001.3254,0,0
65.28,1.1346120000000002,-9.805948,0.2925239,1001.2797,0,0
65.32,1.0963951,-9.796414,0.28779146,1001.3178,0,0
65.36,1.1059723,-9.815482,0.27832425,1001.3152,0,0
65.4,1.1394551000000002,-9.80595,0.31146732,1001.3001,0,0
65.44,1.2111698,-9.80595,0.26885927,1001.3026,0,0
65.48,1.230316,-9.796417,0.33040902,1001.35315,0,0
65.52,1.2255508999999998,-9.772585,0.23098785,1001.33276,0,0
65.56,1.1729947,-9.801185,0.26413065,1001.33044,0,0
65.6,1.254277,-9.782119,0.24519539,1001.3254,0,0
65.64,1.2638581,-9.743987,0.24046296,1001.3304,0,0
65.68,1.2017436,-9.825019,0.25466827,1001.3382,0,0
65.72,1.1013826,-9.834553,0.27360725,1001.338,0,0
65.76,1.1444237,-9.820253999999998,0.27360934,1001.3177,0,0
65.8,1.1874622,-9.8011875,0.23573595,1001.3153,0,0
65.84,1.2974191000000002,-9.810721,0.2120659,1001.29504,0,0
65.88,1.4073762,-9.753523,0.15052061,1001.3103,0,0
65.92,1.4217372,-9.705858,0.14578818,1001.3255,0,0
65.96,1.4456565,-9.6772585,0.17893086,1001.32043,0,0
66.0,1.3453021,-9.777357,0.18840165,1001.3051,0,0
66.04,1.2258285,-9.791657,0.21207565,1001.36096,0,0
66.08,1.2019483999999998,-9.810724,0.23574941,1001.3279,0,0
66.12,1.1924118,-9.820258,0.20734507,1001.2923,0,0
66.16,1.1637226,-9.791658,0.24048497,1001.30286,0,0
66.2,1.1541833,-9.782126,0.27362764,1001.33044,0,0
66.24,1.1350806,-9.858391,0.27362916,1001.3025,0,0
66.28,1.0490645,-9.810726,0.28309983,1001.30035,0,0
66.32,1.1160058000000002,-9.767827,0.30203965,1001.3382,0,0
66.36,1.1686014,-9.786895,0.19314997,1001.32275,0,0
66.4,1.3263565000000002,-9.782128,0.26416802,1001.2898,0,0
66.44,1.3885142,-9.796429,0.20262262,1001.3304,0,0
66.48,1.2547001,-9.834561,0.17895246,1001.3304,0,0
66.52,1.2069211000000002,-9.758297,0.26417348,1001.3254,0,0
66.56,1.1639217,-9.8154955,0.24050319,1001.3,0,0
66.6,1.1543812,-9.796431,0.18842648,1001.32275,0,0
66.64,1.2500002,-9.777364,0.20736618,1001.3154,0,0
66.68,1.2213404,-9.829798,0.14108627,1001.3456,0,0
66.72,1.2548193,-9.820265,0.09374407,1001.32025,0,0
66.76,1.3121959,-9.763066,0.17896509,1001.3254,0,0
66.8,1.2309595,-9.815498,0.19790459,1001.328,0,0
66.84,1.2548788,-9.810733,0.22631286,1001.32025,0,0
66.88,1.2071011,-9.739235,0.20264271,1001.32544,0,0
66.92,1.1736628999999998,-9.825033,0.27366063,1001.3254,0,0
66.96,1.1497828,-9.786901,0.2783968,1001.30505,0,0
67.0,1.1450232,-9.724937,0.29260185,1001.3026,0,0
67.04,1.1689426,-9.82027,0.3636198,1001.30756,0,0
67.08,1.0255675,-9.801203,0.40623116,1001.328,0,0
67.12,0.9347729,-9.829803,0.35415468,1001.30505,0,0
67.16,1.024428,-9.777341,0.37298605,1001.2848,0,0
67.2,1.1916945,-9.8154745,0.32563955,1001.2898,0,0
67.24,1.0865139,-9.863139,0.16940188,1001.3025,0,0
67.28,1.1008267,-9.810705,0.15993065,1001.29486,0,0
67.32,1.1724987,-9.820239,0.29722613,1001.3027,0,0
67.36,1.1868113999999998,-9.724907,0.3208957,1001.3152,0,0
67.4,1.1246473999999995,-9.791638,0.33509648,1001.29,0,0
67.44,1.1485198,-9.815471,0.30195320000000003,1001.34076,0,0
67.48,1.1245941000000002,-9.78687,0.339826,1001.2924,0,0
67.52,1.1914847,-9.791636,0.3824332,1001.30237,0,0
67.56,1.1006435,-9.786869,0.35402447,1001.32043,0,0
67.6,0.9094247,-9.834534,0.35875645,1001.2924,0,0
67.64,0.9237376,-9.886965,0.38716042,1001.29987,0,0
67.68,0.9380503,-9.820233,0.35401717,1001.2822,0,0
67.72,0.985825,-9.777332,0.29720217,1001.323,0,0
67.76,1.0766128,-9.772566,0.30193400000000004,1001.32263,0,0
67.8,1.1291641,-9.886963,0.29246274,1001.3102,0,0
67.84,1.1243594,-9.810697,0.27825725,1001.3153,0,0
67.88,1.1004337,-9.796396,0.26878598,1001.3305,0,0
67.92,1.0669468999999998,-9.80593,0.2593146,1001.30505,0,0
67.96,1.0669235,-9.772563,0.3113909,1001.3027,0,0
68.0,1.1003555,-9.848827,0.29245088,1001.32263,0,0
68.04,1.1337857,-9.915558,0.29718268,1001.33276,0,0
68.08,1.085961,-9.858358,0.26403940000000004,1001.3075,0,0
68.12,1.2006531,-9.748727,0.38239738,1001.3154,0,0
68.16,1.2253227,-9.753512,0.36826473,1001.343,0,0
68.2,1.3304834,-9.767812,0.377734,1001.28723,0,0
68.24,1.3257087,-9.763046,0.30671838,1001.305,0,0
68.28,1.3209339,-9.7344475,0.29251564,1001.3103,0,0
68.32,1.3113792,-9.791646,0.3493289,1001.2976,0,0
68.36,1.2588063,-9.863145,0.3587982,1001.3025,0,0
68.4,1.2540317,-9.753513,0.4203459,1001.2875,0,0
68.44,1.2157984,-9.763046,0.39193997,1001.29987,0,0
68.48,1.1488858,-9.77258,0.33512756,1001.2924,0,0
68.52,1.2540462,-9.805946,0.382472,1001.33795,0,0
68.56,1.2301521999999998,-9.796412,0.38720688,1001.2976,0,0
68.6,1.1919188,-9.81548,0.39194176,1001.30237,0,0
68.64,1.1632454,-9.844079,0.37300462,1001.3154,0,0
68.68,1.0963331,-9.839313,0.3730051,1001.3354,0,0
68.72,1.0819986,-9.791647,0.2641142,1001.3078,0,0
68.76,1.0867832,-9.7868805,0.3067243,1001.2898,0,0
68.8,1.1967237,-9.777347,0.3303968,1001.3329,0,0
68.84,1.2349671999999998,-9.867911,0.29725644,1001.3252,0,0
68.88,1.2493113999999998,-9.877446,0.1930999,1001.2796,0,0
68.92,1.3927108999999998,-9.810714,0.31146052,1001.3227,0,0
68.96,1.3305782,-9.701084,0.31146097,1001.31006,0,0
69.0,1.3210241000000005,-9.786881,0.20730458,1001.3176,0,0
69.04,1.4405239,-9.724916,0.18363298,1001.3202,0,0
69.08,1.4118501,-9.743982,0.23571189,1001.328,0,0
69.12,1.4214146,-9.710616,0.14575867,1001.3176,0,0
69.16,1.4555835,-9.672502,0.15055807,1001.31256,0,0
69.2,1.4842911,-9.729701,0.16002953,1001.31506,0,0
69.24,1.4221886,-9.724936,0.19317353,1001.305,0,0
69.28,1.4078718,-9.805968,0.089018725,1001.305,0,0
69.32,1.3935736,-9.834568,0.10322571,1001.3176,0,0
69.36,1.336251,-9.729705,0.15057297,1001.29004,0,0
69.4,1.3554012,-9.748772,0.10323174,1001.34045,0,0
69.44,1.2789491000000002,-9.667741,0.15057807,1001.34045,0,0
69.48,1.3172288,-9.519979,0.25947315,1001.31256,0,0
69.52,1.3220395,-9.591477,0.23106954,1001.3329,0,0
69.56,1.3364118,-9.558112,0.15532207,1001.328,0,0
69.6,1.3077577,-9.596246,0.2263404,1001.3075,0,0
69.64,1.3603767,-9.534282,0.23107858,1001.31256,0,0
69.68,1.30305,-9.424651,0.23581582,1001.30237,0,0
69.72,1.3222022,-9.486617,0.23581885,1001.3126,0,0
69.76,1.3031161,-9.448484,0.24055627,1001.3126,0,0
69.8,1.4417633,-9.319789,0.22635607,1001.31006,0,0
69.84,1.2601618,-9.324557,0.24056213,1001.33795,0,0
69.88,1.3462311000000002,-9.577186,0.12693942,1001.29987,0,0
69.92,1.3892822,-9.286426,0.28791222,1001.3103,0,0
69.96,1.2124562,-9.329325,0.25477383,1001.305,0,0
70.0,1.174257,-9.372225,0.22637098,1001.3179,0,0
70.04,1.265096,-9.424658,0.25477946,1001.3252,0,0
70.08,1.2268926000000002,-9.172031,0.2879235,1001.31006,0,0
70.12,1.2938408,-9.381762,0.19797264,1001.31256,0,0
70.16,1.1625953000000002,-9.167212,0.2877258,1001.3202,0,0
70.2,1.2246768,-9.324507,0.2735175,1001.31006,0,0
70.24,1.0860068,-9.171976,0.33505967,1001.305,0,0
70.28,1.2245651000000002,-9.210107,0.2877105,1001.32526,0,0
70.32,1.1623789,-9.291137,0.24509634,1001.3256,0,0
70.36,1.2292403,-9.162438,0.26402888,1001.3053,0,0
70.4,1.1335847,-9.233935,0.2545546,1001.33545,0,0
70.44,1.2291286,-9.157669,0.2261434,1001.2948,0,0
70.48,1.1908306999999998,-9.148135,0.27348202,1001.33777,1,3
70.52,1.1859986,-9.1814995,0.27821162,1001.3329,1,3
70.56,1.1955023,-9.143366,0.29240975,1001.34546,1,3
70.6,1.171551,-9.13383,0.2497953,1001.31006,1,3
70.64,1.1189171999999998,-9.195795,0.259259,1001.34076,1,3
70.68,1.1427604,-9.200561,0.2545195,1001.3304,1,3
70.72,1.0423322,-9.17196,0.2734523,1001.3176,1,3
70.76,1.037493,-9.133825,0.29711893,1001.35315,1,3
70.8,1.0708921999999998,-9.109991,0.3065823,1001.31287,1,3
70.84,1.0851828,-9.133822,0.32078102,1001.35596,1,3
70.88,1.0946901000000002,-9.138588,0.33024502,1001.36096,1,3
70.92,1.0372765,-9.138587,0.32077113,1001.3709,1,3
70.96,1.0706758,-9.233917,0.3539065,1001.33795,1,3
71.0,1.0515007,-9.214849,0.39651105,1001.3608,1,3
71.04,1.0227695,-9.31018,0.31128696,1001.3788,1,3
71.08,1.11353,-9.224379,0.2923442,1001.3988,1,3
71.12,1.0752425,-9.348309,0.28760535,1001.3556,1,3
71.16,1.0770625,-9.36742,0.29724076,1001.3508,1,3
71.2,1.0818602,-9.429385,0.3019768,1001.38617,1,3
71.24,1.0293014,-9.496118,0.35879138,1001.35315,1,3
71.28,1.0436598,-9.462751,0.33038670000000003,1001.4092,1,3
71.32,0.99110097,-9.529485,0.35879487,1001.394,1,3
71.36,1.0197989,-9.4961195,0.3493278,1001.41394,1,3
71.4,1.1201925,-9.572384,0.37300143,1001.42163,1,3
71.44,0.9959368,-9.48182,0.31619033,1001.40137,1,3
71.48,1.1058924,-9.567618,0.30672340000000003,1001.38354,1,3
71.52,1.0915708999999998,-9.51042,0.32092825,1001.42413,1,3
71.56,1.1154877,-9.415091,0.3777427,1001.4089,1,3
71.6,1.110727,-9.534254,0.3114628,1001.41156,1,3
71.64,1.2398006,-9.510422,0.29726133,1001.42145,1,3
71.68,1.2876176,-9.491356,0.28779423,1001.42676,1,3
71.72,1.1299032,-9.73445,0.1978423,1001.457,1,3
71.76,1.3641315,-9.624821,0.28779763,1001.452,1,3
71.8,1.1920787,-9.629587,0.22151779,1001.46747,1,3
71.84,1.2590138000000002,-9.672486,0.24045704,1001.4622,1,3
71.88,1.3307298,-9.753519,0.22625555,1001.48486,1,3
71.92,1.3833256,-9.743986,0.20258519,1001.485,1,3
71.96,1.3785659,-9.78212,0.18364942,1001.49756,1,3
72.0,1.3594657,-9.805953,0.23099521,1001.498,1,3
72.04,1.3021271,-9.820253,0.12684004,1001.4722,1,3
72.08,1.2400075000000002,-9.8631525,0.1457793,1001.49,1,3
72.12,1.326063,-9.782122,0.19312508,1001.495,1,3
72.16,1.397491,-9.772582,0.19783485,1001.48236,1,3
72.2,1.3927174,-9.820248,0.12681934,1001.4828,1,3
72.24,1.3879455,-9.734448,0.13628888,1001.51544,1,3
72.28,1.3927331,-9.634352,0.15522721,1001.48505,1,3
72.32,1.3592824,-9.686784,0.2073064,1001.54083,1,3
72.36,1.2875925,-9.72015,0.14102538,1001.5355,1,3
72.4,1.3497370000000002,-9.734449,0.12682281,1001.5355,1,3
72.44,1.3593043,-9.7153845,0.15996437,1001.53577,1,3
72.48,1.335413,-9.767816,0.14102745,1001.55334,1,3
72.52,1.4118973999999995,-9.8297825,0.14102812,1001.53326,1,3
72.56,1.4740419,-9.739218,0.25465447,1001.53827,1,3
72.6,1.48839,-9.801183,0.11262314,1001.53314,1,3
72.64,1.4931765,-9.739218,0.2546559,1001.5585,1,3
72.68,1.4549456,-9.80595,0.17417169,1001.58887,1,3
72.72,1.4645133999999995,-9.886981,0.06054674,1001.5585,1,3
72.76,1.4597406000000002,-9.858382,0.09842263,1001.56116,1,3
72.8,1.5123261,-9.739219,0.18364258,1001.5685,1,3
72.84,1.2972424,-9.739219,0.093689606,1001.6117,1,3
72.88,1.2829101,-9.720152,0.0037365854,1001.59644,1,3
72.92,1.364175,-9.763051,0.01794052,1001.5788,1,3
72.96,1.4167598,-9.682021,0.10789485,1001.58887,1,3
73.0,1.4597857,-9.701088,0.0321451,1001.59393,1,3
73.04,1.4884722,-9.734452,0.10789627,1001.6017,1,3
73.08,1.4693596000000002,-9.715387,0.06528722,1001.6066,1,3
73.12,1.4884868999999998,-9.748753,0.04635033400000002,1001.6168,1,3
73.16,1.4691194,-9.820246,0.08893727,1001.60144,1,3
73.2,1.4595573999999998,-9.829778999999998,0.05579621,1001.6142,1,3
73.24,1.402197,-9.815479,-0.043626536,1001.6243,1,3
73.28,1.4786716999999998,-9.777346,0.032123752,1001.6294,1,3
73.32,1.354394,-9.915576,0.032123484,1001.6396,1,3
73.36,1.4738870000000002,-9.825011,0.0037168823,1001.64716,1,3
73.4,1.5599205,-9.763046,0.10787349999999997,1001.627,1,3
73.44,1.4977806,-9.739214,-0.034158867,1001.63715,1,3
73.48,1.6124933,-9.667715,-0.076768756,1001.6319,1,3
73.52,1.6077113,-9.753512,-0.08150336,1001.6573,1,3
73.56,1.6316077,-9.715381,0.008450083,1001.6598,1,3
73.6,1.5503486000000002,-9.653415,-0.038894188,1001.66,1,3
73.64,1.4738698,-9.72968,-0.06730078,1001.6598,1,3
73.68,1.6268206,-9.653415,0.060527865,1001.6624,1,3
73.72,1.6315976,-9.696314,-0.053098094000000005,1001.6979,1,3
73.76,1.5885768,-9.743979,-0.10991119,1001.6852,1,3
73.8,1.6268129,-9.748746,-0.024692137000000003,1001.69037,1,3
73.84,1.583792,-9.777345,-0.057833175999999986,1001.6903,1,3
73.88,1.6220286,-9.777345,-0.019958138,1001.72076,1,3
73.92,1.5885676000000002,-9.829778,-0.043630365,1001.6828,1,3
73.96,1.6076834,-9.772579,-0.02469305,1001.6877,1,3
74.0,1.512085,-9.844077,0.036853977,1001.68787,1,3
74.04,1.4881833999999998,-9.805944,0.0037129372,1001.7106,1,3
74.08,1.6028969,-9.72968,-0.0010216497,1001.7105,1,3
74.12,1.7415080000000005,-9.67248,0.017915692,1001.72833,1,3
74.16,1.7938294,-9.61051,-0.029451814,1001.7082,1,3
74.2,1.7316768,-9.724906,-0.010515589,1001.7334,1,3
74.24,1.7794654,-9.682007,0.08890602,1001.74097,1,3
74.28,1.6312789,-9.66294,0.06523285,1001.7157,1,3
74.32,1.612147,-9.672472,0.07943489,1001.75104,1,3
74.36,1.5595572,-9.772571,0.08890261,1001.76636,1,3
74.4,1.5308657,-9.734438,0.14571433,1001.74866,1,3
74.44,1.5643108,-9.724904,0.1646507,1001.7512,1,3
74.48,1.4926019,-9.777335,0.19305603,1001.74866,1,3
74.52,1.5212688,-9.767802,0.12203887,1001.7714,1,3
74.56,1.4925765,-9.834534,0.12677205,1001.7512,1,3
74.6,1.5308031000000002,-9.777334,0.08889571,1001.76886,1,3
74.64,1.5260106000000002,-9.8107,0.06522255,1001.76636,1,3
74.68,1.4829803999999998,-9.777334,-0.043669853,1001.76886,1,3
74.72,1.554664,-9.748734,0.06522022,1001.7764,1,3
74.76,1.5642109,-9.748734,-0.005796995,1001.80444,1,3
74.8,1.5450807,-9.696302,-0.0010636188,1001.80194,1,3
74.84,1.4446921,-9.705834,0.03207607,1001.80695,1,3
74.88,1.4781373,-9.705834,-0.062613264,1001.80444,1,3
74.92,1.4924648,-9.586671,0.05101135,1001.8095,1,3
74.96,1.5880473999999998,-9.643868,-0.048412394,1001.79175,1,3
75.0,1.5975943,-9.677235,-0.0058039166,1001.78674,1,3
75.04,1.6214821,-9.777331,-0.010539327,1001.8196,1,3
75.08,1.5497725,-9.786864,0.03206918,1001.80945,1,3
75.12,1.5067408000000002,-9.858362,-0.020010531,1001.83234,1,3
75.16,1.4592811,-9.815473,0.06523974,1001.8399,1,3
75.2,1.5548784,-9.801172,0.008426966,1001.8399,1,3
75.24,1.5787787,-9.853604,0.0036927052,1001.8299,1,3
75.28,1.5118628,-9.867904,-0.0152448155,1001.845,1,3
75.32,1.535763,-9.815473,-0.010510288,1001.8602,1,3
75.36,1.6026815,-9.734441,0.022630665,1001.8577,1,3
75.4,1.5023069,-9.76304,-0.0010412335,1001.86273,1,3
75.44,1.4449506,-9.782106,0.0226309,1001.8855,1,3
75.48,1.4736303999999998,-9.710608,0.084178284,1001.87286,1,3
75.52,1.4784116000000005,-9.686775,0.103115976,1001.85254,1,3
75.56,1.4927523,-9.734441,0.06524089,1001.9084,1,3
75.6,1.5357718,-9.772573,0.12678827,1001.9007,1,3
75.64,1.5070940000000002,-9.739207,0.0652411,1001.8881,1,3
75.68,1.4640772,-9.810705,0.13625728,1001.8831,1,3
75.72,1.3159046,-9.80594,0.07944455,1001.9109,1,3
75.76,1.3637038,-9.834538,0.15992954,1001.9058,1,3
75.8,1.3350263,-9.796406,0.25935218,1001.9135,1,3
75.84,1.3063488,-9.815473,0.20253943,1001.9084,1,3
75.88,1.2967904,-9.825005,0.1599299,1001.9363,1,3
75.92,1.3015714,-9.810705,0.20727403,1001.92615,1,3
75.96,1.3254716,-9.782106,0.18833657,1001.9186,1,3
76.0,1.3398125,-9.76304,0.23568073,1001.9337,1,3
76.04,1.3493731000000002,-9.739208,0.16939917,1001.9337,1,3
76.08,1.3637138999999998,-9.753507,0.19307128,1001.95404,1,3
76.12,1.3302566,-9.767807,0.1978058,1001.96405,1,3
76.16,1.3731482,-9.739204,0.19305983,1001.95404,1,3
76.2,1.3110071,-9.743971,0.1788563,1001.95404,1,3
76.24,1.3635814,-9.691539,0.18832478,1001.9591,1,3
76.28,1.3874764,-9.767803,0.13151155,1001.96674,1,3
76.32,1.4400505,-9.796403,0.15518321,1002.00464,1,3
76.36,1.4687253999999998,-9.839302,0.08890122,1001.97174,1,3
76.4,1.4830613,-9.872668,0.1220417,1001.99207,1,3
76.44,1.5117362,-9.782103,0.060494088,1001.9641,1,3
76.48,1.4973935,-9.796403,0.02261856,1002.01746,1,3
76.52,1.5260682,-9.777335,0.112571865,1002.01733,1,3
76.56,1.483046,-9.767802,0.055758663,1001.99963,1,3
76.6,1.4687032,-9.815469,0.04628952,1002.01996,1,3
76.64,1.5403966,-9.75827,0.07469562,1002.03,1,3
76.68,1.5738511999999998,-9.686771,0.09363286,1002.02747,1,3
76.72,1.5164898999999998,-9.686771,0.14571099,1002.0199,1,3
76.76,1.5738438,-9.720137,0.12203863,1002.0426,1,3
76.8,1.5786198,-9.643872,0.1362415,1002.0351,1,3
76.84,1.5308181,-9.682005,0.15044436,1002.0073,1,3
76.88,1.5833921,-9.71537,0.15517841,1002.0402,1,3
76.92,1.5308107,-9.720136,0.24986619,1002.0124,1,3
76.96,1.5738249,-9.763035,0.17884974,1002.04785,1,3
77.0,1.6168395,-9.763035,0.26880312,1002.05035,1,3
77.04,1.5881569,-9.848834,0.23566191,1002.0604,1,3
77.08,1.5403551000000002,-9.8107,0.240396,1002.0529,1,3
77.12,1.4925532,-9.772569,0.27353647,1002.05804,1,3
77.16,1.4972336000000002,-9.796398,0.26405856,1002.07574,1,3
77.2,1.5115659,-9.791633,0.3208708,1002.1036,1,3
77.24,1.4303015,-9.715367,0.28772923,1002.0883,1,3
77.28,1.430294,-9.729667,0.3256038,1002.0707,1,3
77.32,1.439846,-9.715367,0.35874394,1002.0707,1,3
77.36,1.4398379,-9.7106,0.3540088,1002.096,1,3
77.4,1.4637294,-9.672466,0.3729457000000001,1002.10864,1,3
77.44,1.4685022,-9.734432,0.37294504,1002.0757,1,3
77.48,1.4541556,-9.7106,0.3871476,1002.09607,1,3
77.52,1.4589273,-9.767797,0.4250221,1002.0884,1,3
77.56,1.3681043,-9.758265,0.4202871,1002.1187,1,3
77.6,1.3585385,-9.796396,0.44869298,1002.1213,1,3
77.64,1.2820522,-9.844062,0.5433802,1002.12897,1,3
77.68,1.4158791000000002,-9.786863,0.46289462,1002.1365,1,3
77.72,1.4110916,-9.872662,0.4676283,1002.1391,1,3
77.76,1.4302037,-9.844061,0.43922123,1002.1468,1,3
77.8,1.4827758,-9.824994,0.4581583,1002.1441,1,3
77.84,1.4301885,-9.782096,0.5433768,1002.15424,1,3
77.88,1.3871632,-9.729664,0.52917284,1002.16693,1,3
77.92,1.3441368,-9.701065,0.55757856,1002.1796,1,3
77.96,1.33457,-9.753495,0.6001876,1002.15936,1,3
78.0,1.3297846000000002,-9.658164,0.5528430000000001,1002.14935,1,3
78.04,1.3727958,-9.681997,0.5102327,1002.1391,1,3
78.08,1.2915292,-9.710597,0.5197005,1002.16693,1,3
78.12,1.353661,-9.710597,0.42501196,1002.16705,1,3
78.16,1.2533718,-9.796396,0.39661348,1002.1976,1,3
78.2,1.3059458000000002,-9.810696,0.33980033,1002.1821,1,3
78.24,1.3489608,-9.853595,0.32559678,1002.21515,1,3
78.28,1.258141,-9.824995,0.30665886,1002.20746,1,3
78.32,1.2007796,-9.82023,0.23564242,1002.2125,1,3
78.36,1.2533538,-9.810696,0.30665818,1002.2228,1,3
78.4,1.2151117,-9.844061,0.2687826,1002.2253,1,3
78.44,1.1768696,-9.810695,0.33032954,1002.22046,1,3
78.48,1.2246639,-9.763029,0.31139153,1002.2584,1,3
78.52,1.22466,-9.772563,0.28771916,1002.205,1,3
78.56,1.2437751,-9.686765,0.29245323,1002.2354,1,3
78.6,1.2007537,-9.753496,0.28771847,1002.2202,1,3
78.64,1.2533276000000002,-9.74873,0.24984288,1002.23535,1,3
78.68,1.2533242,-9.681998,0.33032745,1002.2354,1,3
78.72,1.2342011,-9.767796,0.26404545,1002.2278,1,3
78.76,1.2772153999999998,-9.724896,0.28298270000000003,1002.24817,1,3
78.8,1.2580924999999998,-9.772562,0.2167007,1002.26855,1,3
78.84,1.2628683,-9.829761,0.26877877,1002.27875,1,3
78.88,1.2772039,-9.805928,0.24510638,1002.266,1,3
78.92,1.2819802,-9.867892,0.28771573,1002.29877,1,3
78.96,1.2771968,-9.848827,0.27824658,1002.26843,1,3
79.0,1.3488897,-9.772562,0.27351183,1002.29895,1,3
79.04,1.353666,-9.8392935,0.16462018,1002.30115,1,3
79.08,1.3154242,-9.834527,0.26877677,1002.2735,1,3
79.12,1.2341633,-9.877426,0.19776031,1002.2862,1,3
79.16,1.2584733,-9.834537,0.22620434,1002.3066,1,3
79.2,1.4066597,-9.667708,0.25934634,1002.30646,1,3
79.24,1.3445343,-9.682008,0.2404098,1002.3269,1,3
79.28,1.3541065,-9.786872,0.24514538,1002.32916,1,3
79.32,1.4353759,-9.786873,0.26408416,1002.3193,1,3
79.36,1.3302321,-9.743974,0.22621,1002.3269,1,3
79.4,1.3780428,-9.686775,0.17886715,1002.3318,1,3
79.44,1.3111367,-9.743975,0.16466491,1002.30896,1,3
79.48,1.382848,-9.772574,0.18833826,1002.3371,1,3
79.52,1.3780801,-9.791641,0.19780813,1002.3419,1,3
79.56,1.4115512,-9.844073,0.1741373,1002.3445,1,3
79.6,1.3924448,-9.810707,0.122059986,1002.352,1,3
79.64,1.3972383,-9.805942,0.13626444,1002.33936,1,3
79.68,1.3685712,-9.844073,0.17414077,1002.3572,1,3
79.72,1.4498405,-9.839308,0.15520433,1002.35706,1,3
79.76,1.3446976000000002,-9.724911,0.23569036,1002.36725,1,3
79.8,1.2969114,-9.643879,0.21675383,1002.3723,1,3
79.84,1.3877403,-9.624814,0.23569259,1002.38245,1,3
79.88,1.3781925,-9.672479,0.24516249,1002.37994,1,3
79.92,1.4546822,-9.78211,0.10786593,1002.3899,1,3
79.96,1.4116751,-9.791644,0.10786694,1002.38245,1,3
80.0,1.469047,-9.720145,0.15521231,1002.36224,1,3
80.04,1.483399,-9.724913,0.103135005,1002.38763,1,3
80.08,1.4356138,-9.772579,0.07946417,1002.39764,1,3
80.12,1.4882044,-9.8583765,0.10787174,1002.38763,1,3
80.16,1.4680436,-9.834518,0.074635565,1002.3954,1,3
80.2,1.4632365,-9.839284,0.06516426,1002.3954,1,3
80.24,1.4440862,-9.7725525,0.084099025,1002.41315,1,3
80.28,1.4297193,-9.786851,0.12670617,1002.441,1,3
80.32,1.4201287,-9.801149,0.11723453,1002.40784,1,3
80.36,1.4248812,-9.786849,0.17404488,1002.4231,1,3
80.4,1.4152924999999998,-9.677218,0.14563578,1002.40784,1,3
80.44,1.3961458999999998,-9.72965,0.15036766,1002.44086,1,3
80.48,1.4152359,-9.791615,0.19770907,1002.4233,1,3
80.52,1.4104251,-9.715348,0.1740342,1002.42053,1,3
80.56,1.5490122,-9.701049,0.15982847,1002.4636,1,3
80.6,1.4820656,-9.720113,0.17876345,1002.4459,1,3
80.64,1.4581374,-9.720112,0.18822958,1002.4914,1,3
80.68,1.4055303,-9.7582445,0.1882269,1002.4509,1,3
80.72,1.4055031999999998,-9.824976,0.18348998,1002.47107,1,3
80.76,1.4867325,-9.877407,0.23083152,1002.4814,1,3
80.8,1.4532428,-9.791609,0.17875025,1002.4839,1,3
80.84,1.5535913,-9.748708,0.20715417,1002.4813,1,3
80.88,1.3862671999999998,-9.824973,0.20241694,1002.4888,1,3
80.92,1.4244782,-9.848805,0.16927357,1002.504,1,3
80.96,1.324075,-9.858336,0.112458214,1002.4917,1,3
81.0,1.2762479,-9.844037,0.1313932,1002.4789,1,3
81.04,1.3240167,-9.777304,0.254485,1002.5016,1,3
81.08,1.3909083999999998,-9.720104,0.2544827,1002.5041,1,3
81.12,1.4004352,-9.748703,0.22607325,1002.51935,1,3
81.16,1.3964909,-9.772557,0.20721214,1002.5323,1,3
81.2,1.3773768,-9.7439575,0.2214158,1002.5298,1,3
81.24,1.3678218,-9.691525,0.28296348,1002.5497,1,3
81.28,1.3391479,-9.763023,0.20247905,1002.522,1,3
81.32,1.2913549,-9.739191,0.2829644,1002.53705,1,3
81.36,1.2722406000000002,-9.748725,0.26402727,1002.53723,1,3
81.4,1.2483472,-9.891722,0.26876214,1002.5448,1,3
81.44,1.4108652,-9.853589,0.1977465,1002.5399,1,3
81.48,1.401311,-9.834523,0.13619974,1002.54474,1,3
81.52,1.3296187,-9.824989,0.19774744,1002.54224,1,3
81.56,1.2866051,-9.820224,0.19301344,1002.5575,1,3
81.6,1.3200690000000002,-9.815457,0.19774832,1002.57245,1,3
81.64,1.3057348999999998,-9.796391,0.20248324,1002.56256,1,3
81.68,1.29618,-9.85359,0.1267332,1002.57776,1,3
81.72,1.3009648,-9.772559,0.09832722,1002.58276,1,3
81.76,1.3487679,-9.763025,0.17881256,1002.5981,1,3
81.8,1.2770761,-9.8488245,0.103062555,1002.6054,1,3
81.84,1.3105395,-9.805925,0.15514146,1002.58795,1,3
81.88,1.3487825,-9.872657,0.19301713,1002.59814,1,3
81.92,1.29143,-9.886956,0.11253269,1002.6083,1,3
81.96,1.3344536,-9.9632225,0.16461164,1002.60583,1,3
82.0,1.3248985,-9.972754,0.06045515,1002.61835,1,3
82.04,1.3440214,-10.058554,0.12673718,1002.63885,1,3
82.08,1.3153476999999998,-10.09192,0.10779999,1002.60565,1,3
82.12,1.2818958,-10.053786,0.13147265,1002.6209,1,3
82.16,1.2342315,-10.101456,0.1362193,1002.64606,1,3
82.2,1.2629173,-10.115756,0.15989198,1002.6386,1,3
82.24,1.24381,-10.177721,0.20723711,1002.6285,1,3
82.28,1.3155153999999998,-10.163422,0.12675299,1002.664,1,3
82.32,1.282067,-10.182488,0.10781628,1002.6714,1,3
82.36,1.3059754,-10.120523,0.15042679999999994,1002.65643,1,3
82.4,1.329884,-10.134823,0.13149008,1002.6641,1,3
82.44,1.4159307,-10.220621,0.1409598,1002.67426,1,3
82.48,1.3681427,-10.192021,0.15042955,1002.6617,1,3
82.52,1.3346944,-10.215855,0.17410249,1002.67426,1,3
82.56,1.3633858,-10.230155,0.08888437,1002.6919,1,3
82.6,1.4159714,-10.239689,0.14096351,1002.7022,1,3
82.64,1.3490635,-10.306419,0.12202677,1002.68176,1,3
82.68,1.3873122,-10.373153,0.12202768,1002.7072,1,3
82.72,1.4016618,-10.325487,0.14570066,1002.6993,1,3
82.76,1.387333,-10.382686,0.09362317,1002.7072,1,3
82.8,1.4303602,-10.330255,0.093623996,1002.7046,1,3
82.84,1.4255912,-10.377921,0.08415619,1002.7044,1,3
82.88,1.4064815,-10.335021,0.11729789,1002.7146,1,3
82.92,1.4734089,-10.34932,0.15043965,1002.7272,1,3
82.96,1.4542999,-10.354087,0.09836212,1002.717,1,3
83.0,1.4351908000000002,-10.363621,0.13623829,1002.7249,1,3
83.04,1.4160818000000002,-10.349321,0.14570802,1002.70483,1,3
83.08,1.4830091,-10.344556,0.17884979,1002.7475,1,3
83.12,1.4208819,-10.396988,0.112569064,1002.7225,1,3
83.16,1.4831879,-10.311194,0.15519413,1002.7627,1,3
83.2,1.4640852,-10.382692,0.14099243,1002.7273,1,3
83.24,1.4641018,-10.301662,0.14099394,1002.73773,1,3
83.28,1.4354383999999998,-10.315962,0.09838571,1002.7223,1,3
83.32,1.430675,-10.268297,0.19780973,1002.72,1,3
83.36,1.4450309,-10.268297,0.13152957,1002.7326,1,3
83.4,1.4020282,-10.234931,0.107858956,1002.74255,1,3
83.44,1.4737427,-10.234932,0.14100139,1002.74994,1,3
83.48,1.4594197,-10.268298,0.117330894,1002.76556,1,3
83.52,1.4307553999999998,-10.2254,0.13153544,1002.7326,1,3
83.56,1.4403315,-10.2206335,0.12206812,1002.7402,1,3
83.6,1.3973308999999998,-10.273066,0.13627292,1002.74994,1,3
83.64,1.3638886,-10.144369,0.11733684,1002.75256,1,3
83.68,1.3734636999999998,-10.172969,0.16468228,1002.76013,1,3
83.72,1.3925995,-10.196803,0.069995716,1002.7426,1,3
83.76,1.3830564,-10.125303,0.07473160000000001,1002.7631,1,3
83.8,1.3878525,-10.120539,0.12681156,1002.76013,1,3
83.84,1.3687499,-10.063339,0.10787548,1002.78033,1,3
83.88,1.450022,-10.063339,0.04159522,1002.75037,1,3
83.92,1.3687819,-10.125305,0.12681602,1002.7424,1,3
83.96,1.4357146,-10.015676,0.098411,1002.74506,1,3
84.0,1.3974928,-10.01091,0.06053726,1002.7781,1,3
84.04,1.3640516000000005,-10.001377,0.0700077,1002.7528,1,3
84.08,1.3831863000000002,-9.963244,0.07474351,1002.77295,1,3
84.12,1.3688623,-9.963244,0.027400885,1002.7529,1,3
84.16,1.3632053999999998,-9.906025,0.1314775,1002.7576,1,3
84.2,1.3488481,-9.896492,0.08413181,1002.73737,1,3
84.24,1.3631673,-9.820226,0.131474,1002.7527,1,3
84.28,1.4061677,-9.839292,0.13147238,1002.7527,1,3
84.32,1.3248932,-9.829758,0.08886111,1002.77545,1,3
84.36,1.3392136,-9.782092,0.15514101,1002.7502,1,3
84.4,1.3678721,-9.777324,0.11726396,1002.7273,0,0
84.44,1.2531402,-9.824989,0.10779360000000003,1002.7605,0,0
84.48,1.3152575,-9.848824,0.18354222,1002.78033,0,0
84.52,1.3391377,-9.820223,0.12672764,1002.74536,0,0
84.56,1.3295602,-9.829756,0.11725721,1002.74994,0,0
84.6,1.2721834,-9.820222,0.09831785,1002.73755,0,0
84.64,1.2817241,-9.83452,0.13145693,1002.73737,0,0
84.68,1.3342829,-9.763021,0.20247124,1002.7753,0,0
84.72,1.2577882,-9.805922,0.15512557,1002.76556,0,0
84.76,1.2673275,-9.824986,0.13145171,1002.7451,0,0
84.8,1.2912077,-9.796386,0.084105924,1002.78296,0,0
84.84,1.28641,-9.810685,0.13144834,1002.76276,0,0
84.88,1.3007305,-9.777319,0.17879066,1002.7753,0,0
84.92,1.3485093,-9.810684,0.13144484,1002.7753,0,0
84.96,1.2863563999999998,-9.796385,0.18825628,1002.77277,0,0
85.0,1.3102341999999998,-9.844049,0.1409103,1002.7753,0,0
85.04,1.3484534,-9.772552,0.15037736,1002.7753,0,0
85.08,1.4296911,-9.801149,0.1172348,1002.7529,0,0
85.12,1.4057744,-9.78685,0.12196754,1002.75256,0,0
85.16,1.4544482,-9.753505,0.14098532,1002.77045,0,0
85.2,1.4114462,-9.743973,0.17412767,1002.76776,0,0
85.24,1.4162427,-9.743973,0.13625395,1002.75006,0,0
85.28,1.4066994,-9.782106,0.11258344,1002.74756,0,0
85.32,1.406716,-9.786873,0.10785054,1002.76526,0,0
85.36,1.4306304,-9.763041,0.12205516,1002.77045,0,0
85.4,1.4067478999999998,-9.758275,0.09838465,1002.77026,0,0
85.44,1.3733058,-9.805941,0.08891736,1002.76544,0,0
85.48,1.3589817,-9.777341,0.18360686,1002.7576,0,0
85.52,1.3064204,-9.820241,0.17413956,1002.76013,0,0
85.56,1.3781329,-9.796409,0.12679693,1002.7475,0,0
85.6,1.3972687,-9.763042,0.1078608,1002.77045,0,0
85.64,1.3447083,-9.758277,0.14100327,1002.7906,0,0
85.68,1.3590631000000002,-9.76781,0.13153587,1002.778,0,0
85.72,1.3829798,-9.76781,0.13153747,1002.7755,0,0
85.76,1.3734356,-9.782111,0.11733566,1002.773,0,0
85.8,1.4069107,-9.848843,0.09839955,1002.74994,0,0
85.84,1.430824,-9.796411,0.11260408,1002.7652,0,0
85.88,1.4356184,-9.782112,0.09366779,1002.7831,0,0
85.92,1.4786521,-9.739213,0.13627884,1002.778,0,0
85.96,1.4069715,-9.753513,0.09840511,1002.77026,0,0
86.0,1.4500104,-9.720147,0.2025639,1002.76776,0,0
86.04,1.3592095,-9.7249155,0.18362768,1002.788,0,0
86.08,1.502617,-9.705849,0.20730096,1002.7527,0,0
86.12,1.564774,-9.696316,0.09841144,1002.7398,0,0
86.16,1.5544931,-9.801163,0.15989268,1002.73773,0,0
86.2,1.5258025,-9.696299,0.23564206,1002.76294,0,0
86.24,1.5257921,-9.753496,0.18829706,1002.7501,0,0
86.28,1.5401188,-9.701065,0.23090553,1002.74536,0,0
86.32,1.5544462,-9.739197,0.20249802,1002.74506,0,0
86.36,1.5257556,-9.7153635,0.1930281,1002.7831,0,0
86.4,1.5831004,-9.724896,0.23090221,1002.7576,0,0
86.44,1.578308,-9.710597,0.22143221,1002.7602,0,0
86.48,1.6069741000000002,-9.7248955,0.27350953,1002.7806,0,0
86.52,1.5448233,-9.710596,0.33032116,1002.77783,0,0
86.56,1.5304719,-9.777327,0.29244483,1002.7451,0,0
86.6,1.5734781999999998,-9.739194,0.31611577,1002.7424,0,0
86.64,1.5591254,-9.705828,0.31611452,1002.7451,0,0
86.68,1.5495546,-9.677229,0.3871296,1002.75006,0,0
86.72,1.5495411,-9.724894,0.4202692,1002.73773,0,0
86.76,1.5638695,-9.791626,0.43920577,1002.74255,0,0
86.8,1.5256168,-9.72966,0.46287653,1002.72473,0,0
86.84,1.5208249,-9.71536,0.4297346,1002.74994,0,0
86.88,1.5160325,-9.772558,0.4534054,1002.7629,0,0
86.92,1.5446986,-9.734426,0.4723419,1002.7501,0,0
86.96,1.5255675,-9.758258,0.5859665,1002.79315,0,0
87.0,1.5542336,-9.696292,0.4628708,1002.74994,0,0
87.04,1.5112027,-9.710592,0.51021373,1002.78546,0,0
87.08,1.5494285,-9.6915245,0.54808784,1002.76544,0,0
87.12,1.6354521999999998,-9.653393,0.51968014,1002.7831,0,0
87.16,1.6691855,-9.681998,0.52443975,1002.7553,0,0
87.2,1.6500651999999998,-9.743963,0.6191277,1002.73474,0,0
87.24,1.6022658,-9.686765,0.6049244,1002.76794,0,0
87.28,1.5831455,-9.591434,0.6238619000000001,1002.7806,0,0
87.32,1.779116,-9.677232,0.6285961999999999,1002.76013,0,0
87.36,1.7838944,-9.758264,0.6333305,1002.75775,0,0
87.4,1.7169759999999998,-9.801162,0.69014317,1002.745,0,0
87.44,1.6404982,-9.74873,0.71381515,1002.76794,0,0
87.48,1.6882946,-9.677232,0.77062786,1002.75507,0,0
87.52,1.7169723999999995,-9.658165,0.89372224,1002.7576,0,0
87.56,1.6978518,-9.72013,0.8179717,1002.7627,0,0
87.6,1.6548322,-9.710598,0.95053494,1002.7755,0,0
87.64,1.6452715,-9.667699,0.9505348,1002.7729,0,0
87.68,1.6548299,-9.662931,0.84164333,1002.73755,0,0
87.72,1.8077824,-9.715364,0.9600034,1002.7781,0,0
87.76,1.8412398,-9.653399,1.0878321000000002,1002.7576,0,0
87.8,1.7504221999999998,-9.591434,1.0310191999999998,1002.73737,0,0
87.84,1.7169622,-9.667699,1.0026126,1002.7477,0,0
87.88,1.7504196,-9.6248,1.1635823,1002.77045,0,0
87.92,1.7265193,-9.6105,1.1635822,1002.76526,0,0
87.96,1.6357019,-9.639098,1.0594251,1002.735,0,0
88.0,1.6404805,-9.643866,1.1209723,1002.75775,0,0
88.04,1.6548187,-9.672464,1.0783626,1002.7704,0,0
88.08,1.6930557000000002,-9.701064,1.1825192,1002.76794,0,0
88.12,1.7408526000000002,-9.591433,1.2535353,1002.76276,0,0
88.16,1.6260719,-9.624798,1.2914045,1002.7954,0,0
88.2,1.6451876,-9.653398,1.2819353,1002.76776,0,0
88.24,1.5830466,-9.610497,1.386092,1002.79034,0,0
88.28,1.721657,-9.60573,1.4239669,1002.75256,0,0
88.32,1.7407727,-9.648629,1.4239665,1002.7753,0,0
88.36,1.826805,-9.615263,1.4997166000000002,1002.773,0,0
88.4,1.6977466,-9.658162,1.4523722,1002.75775,0,0
