Timestamp,Ax,Ay,Az,P,Value,Type
0.0,0.7370424,4.0688167,8.944828999999997,1004.2979,0,0
0.04,1.1194433,5.432051,9.333052,1004.3106,0,0
0.08,0.47896737,4.7742662000000005,8.52347,1004.3639,0,0
0.12,-0.028799385,4.659896,8.405008,1004.3611,0,0
0.16,0.8649959999999999,5.184218,9.422903,1004.36646,0,0
0.2,0.53994155,5.513111,5.938378299999999,1004.2602,0,0
0.24,0.66896826,6.685685,7.401307000000001,1004.2729,0,0
0.28,0.3247962,4.1641765,9.347145,1004.3209,0,0
0.32,1.4097855,5.2938514,6.18456,1004.31335,0,0
0.36,0.5159326,4.0926800000000005,6.6769357000000005,1004.3209,0,0
0.4,2.9440433999999995,5.3176856,6.9420600000000015,1004.34125,0,0
0.44,-0.3636089,2.3147554,2.9414852,1004.2958,0,0
0.48,2.4564493,3.639859,7.1172276,1004.2226,0,0
0.52,1.7012124,2.4196212000000004,4.5180373,1004.2378,0,0
0.56,1.5912507,1.4806101,3.2302766,1004.2604,0,0
0.6,5.1665177,1.404346,4.6032515,1004.3541,0,0
0.64,3.5891528,-1.9942086,4.6269207,1004.37933,0,0
0.68,8.713077,-0.42124408,4.8636384,1004.3187,0,0
0.72,8.311544,-3.0619159,5.2707953000000005,1004.4273,0,0
0.76,7.7809587,-6.055313,2.576916,1004.4124,0,0
0.8,11.442261,-5.1591997,3.3533561,1004.37445,0,0
0.84,9.530311,-10.416711,2.30705,1004.3464,0,0
0.88,16.819487,-7.1659190000000015,6.478058,1004.3895,0,0
0.92,15.328159,-9.968654,3.2681293,1004.35394,0,0
0.96,19.290592,-9.310868,2.1555414,1004.3162,0,0
1.0,21.852533,-0.38310617,-9.46269,1004.26807,0,0
1.04,9.166909,-10.125948,-1.4426113,1004.30615,0,0
1.08,8.1296625,-6.6606603,3.528511,1004.3138,0,0
1.12,8.186524,-7.599660000000001,0.9718872,1004.32635,0,0
1.16,6.666502,-6.817943,1.1281184,1004.34393,0,0
1.2,5.743953,-6.069593,1.1517861,1004.3213,0,0
1.24,5.4379992,-8.724563999999999,5.6589355,1004.3516,0,0
1.28,6.87667,-5.5738688,2.7425373,1004.3972,0,0
1.32,6.3317285000000005,-4.8302846,2.037107,1004.4402,0,0
1.36,3.8270671,-3.1381555,3.3390644,1004.45026,0,0
1.4,5.0410900000000005,-1.9274492,1.0618111,1004.377,0,0
1.44,3.836536,-2.346905,2.065501,1004.34924,0,0
1.48,5.3755827000000025,-3.8722022,5.024499400000002,1004.34924,0,0
1.52,4.801962400000002,-4.906544,4.039739,1004.36945,0,0
1.56,7.273074,-6.241179,4.214908,1004.36945,0,0
1.6,6.799823299999999,-6.164912,4.5557804000000015,1004.324,0,0
1.64,5.275025,-2.499429,4.1344147000000016,1004.3441,0,0
1.68,7.9134307,-9.248873,4.915587,1004.3263,0,0
1.72,8.783305,-9.425234,2.6004589,1004.3492,0,0
1.76,8.768921,-10.507241,4.5841703,1004.3492,0,0
1.8,9.060445,-10.316579,8.849864,1004.286,0,0
1.84,2.2204957000000003,-2.7663505,0.29005656,1004.2835,0,0
1.88,2.0961769,-2.9474785,2.7093337,1004.3545,0,0
1.92,6.6321607,-0.3783033,4.498933999999998,1004.405,0,0
1.96,4.6580606,-3.1381385,4.721447,1004.4024,0,0
2.0,6.3930798,-7.2707424,0.33738372,1004.41003,0,0
2.04,6.187501,-6.3078965999999985,2.4725962000000004,1004.37476,0,0
2.08,6.6415386,-6.57959,4.3663535000000016,1004.3823,0,0
2.12,6.077914,-6.4890347,4.1059976,1004.38983,0,0
2.16,8.252697999999999,-8.757914999999999,1.0238975,1004.443,0,0
2.2,7.851165299999999,-9.878056,1.5446793,1004.36957,0,0
2.24,1.6995267,-12.042071,1.7435215,1004.39246,0,0
2.28,2.6076622000000005,-8.977175,0.46996415,1004.40247,0,0
2.32,14.791353,-4.3726797,5.081271599999999,1004.69073,0,0
2.36,4.677258,-6.851289,-0.8793465,1004.5769,0,0
2.4,4.61031,-7.5662713,-1.0876633,1004.3597,0,0
2.44,1.1688243,-3.3335679,2.501013,1004.10925,0,0
2.48,1.8523105,-8.691177,1.4357696000000002,1004.19525,0,0
2.52,0.9297777,-13.758026,0.22375923,1004.9538,0,0
2.56,2.4831848,-13.901023,-1.4711603000000002,1005.1865,0,0
2.6,1.9334799,-12.156463,0.11959717,1004.44824,0,0
2.64,3.0567029,-10.087776,0.02017181,1004.20795,0,0
2.68,-1.5701747,-7.0181127000000005,1.9991504,1004.213,0,0
2.72,2.0767882,-8.881835,-1.0403398,1004.1827,0,0
2.76,1.5605403,-10.955286,-0.17394646,1004.309,0,0
2.8,2.4304338,-7.509065,-0.3491222,1004.5845,0,0
2.84,2.1388383,-4.353605,1.3884016,1004.4758,0,0
2.88,1.8185623,-11.26511,-0.543238,1004.64545,0,0
2.92,1.1063423,-12.223189,-0.453287,1004.9083,0,0
2.96,2.6358523,-8.66257,0.4699194,1004.8274,0,0
3.0,1.5986074,-4.205838,-0.44855762,1004.06116,0,0
3.04,3.1089962000000004,-16.331957,1.37892,1003.67944,0,0
3.08,2.5975263,-12.823771,-1.1208486999999998,1004.10925,0,0
3.12,3.0945354,-11.150707,0.7350298000000001,1004.23834,0,0
3.16,0.9818303,-9.353715,0.19057032,1004.3091,0,0
3.2,0.9053237,-9.558677,0.9149315999999998,1004.5722,0,0
3.24,-0.13670728,-5.154376999999998,0.30419025,1004.37976,0,0
3.28,0.6041306,-5.7740290000000005,0.33259377,1004.29144,0,0
3.32,3.3190298,-12.6760025,0.15268366,1004.28143,0,0
3.36,4.126786,-7.7902809999999985,0.20002496,1004.28894,0,0
3.4,3.0417392000000003,-12.566371,0.62611854,1004.304,0,0
3.44,4.012006,-10.597781,0.5124897,1004.3218,0,0
3.48,1.8323874,-9.053416,0.47461194,1004.337,0,0
3.52,1.9996487,-9.015283,0.84862703,1004.3725,0,0
3.56,2.8169618,-10.273652,0.29943296,1004.36975,0,0
3.6,2.888627,-9.849428,0.4367278,1004.39264,0,0
3.64,3.7680833,-10.445248,1.0853387,1004.3901,0,0
3.68,1.9134856,-5.993283,-0.8178949999999999,1004.3749,0,0
3.72,2.05685,-9.310805,1.3646626,1004.41534,0,0
3.76,3.1370542,-9.38707,0.5740143,1004.39764,0,0
3.8,2.8502321,-9.60633,-0.2071656,1004.3952,0,0
3.84,2.8549821,-9.592031,0.10056803,1004.39764,0,0
3.88,2.955326,-9.501465,0.08162748,1004.38245,0,0
3.92,3.06045,-9.325102,0.03428053,1004.38495,0,0
3.96,3.146457,-9.253602,0.005871395,1004.3724,0,0
4.0,3.4427733,-9.172569,0.12896300000000002,1004.3723,0,0
4.04,3.696071,-8.953307,0.34200835,1004.38495,0,0
4.08,3.428374,-9.172569,0.20470804,1004.3824,0,0
4.12,3.2571478,-9.396618,0.11956625,1004.3698,0,0
4.16,3.1041982000000004,-9.425217,0.23792675,1004.3799,0,0
4.2,2.9130092,-9.3823185,0.23319262,1004.3826,0,0
4.24,2.927353,-9.439517,0.24739623,1004.3724,0,0
4.28,2.9942740000000003,-9.396618,0.31841263,1004.36475,0,0
4.32,2.9942777,-9.286986,0.23792809,1004.3774,0,0
4.36,3.0134006,-9.348952,0.24739726,1004.3547,0,0
4.4,3.1281197,-9.406151,0.1574439,1004.3723,0,0
4.44,3.0325272,-9.363253,0.17164743,1004.3774,0,0
4.48,3.1185672,-9.348953,0.10536611,1004.3572,0,0
4.52,3.2285066,-9.220257,0.09589763,1004.3749,0,0
4.56,3.2093914,-9.282222,0.072226,1004.37994,0,0
4.6,3.1759365,-9.282222,0.034351125,1004.3419,0,0
4.64,3.1329215,-9.358486,-0.027195845,1004.38257,0,0
4.68,3.142485,-9.406152,-0.03666431,1004.38495,0,0
4.72,3.0373333,-9.439518,-0.012991939,1004.3648,0,0
4.76,2.9608603,-9.47765,-0.017725993,1004.3648,0,0
4.8,2.9895425,-9.382319,-0.03192887,1004.3699,0,0
4.84,2.951308,-9.391851,-0.008256499,1004.37744,0,0
4.88,2.9704309,-9.406153,-0.031928163,1004.3673,0,0
4.92,2.9465356,-9.348954,-0.012990229,1004.3799,0,0
4.96,3.0421352,-9.410919,-0.04139633,1004.38257,0,0
5.0,2.874846,-9.4347515,0.001213674,1004.3723,0,0
5.04,2.7935932,-9.520551,-0.046130005,1004.3952,0,0
5.08,3.1473024,-9.272689,0.0248864,1004.4052,0,0
5.12,3.2901666,-9.258376,0.11479159,1004.3699,0,0
5.16,3.3809638,-9.263143,0.048508175,1004.39014,0,0
5.2,3.5100021,-9.139213,0.16213235,1004.3899,0,0
5.24,3.5769005,-9.215476,0.14792745,1004.3927,0,0
5.28,3.4382696000000004,-9.391839,0.30889568,1004.38245,0,0
5.32,3.2183807,-9.229774,0.17633072,1004.39264,0,0
5.36,3.2279215,-9.163043,0.25207946,1004.3876,0,0
5.4,3.0080347,-9.368004,0.37990698,1004.37213,0,0
5.44,3.1466303,-9.482401,0.07216892400000001,1004.3927,0,0
5.48,2.945862,-9.544366,0.0863706,1004.3495,0,0
5.52,2.7068539,-9.572965,0.048493743,1004.3899,0,0
5.56,3.0223033,-9.410901,0.08636737,1004.3647,0,0
5.6,3.0461845000000003,-9.348936,0.22839785,1004.36725,0,0
5.64,3.175228,-9.329869,0.37042898,1004.3799,0,0
5.68,3.2994797,-9.253604,0.19051947,1004.37225,0,0
5.72,3.1082695,-9.272669,0.17158023,1004.3748,0,0
5.76,3.1608307,-9.406133,0.13370347,1004.36957,0,0
5.8,3.0556617000000004,-9.3966,0.12896785,1004.35956,0,0
5.84,3.1128917,-9.315565,0.08634652,1004.3924,0,0
5.88,3.0515883,-9.310819,0.15270450000000002,1004.3848,0,0
5.92,3.2284577000000003,-9.29652,0.2473941000000001,1004.405,0,0
5.96,3.128098,-9.449049,0.15270755,1004.357,0,0
6.0,2.9751608,-9.406151,0.1006306,1004.37213,0,0
6.04,0.7370424,4.0688167,8.944828999999997,1004.2979,0,0
6.08,1.1194433,5.432051,9.333052,1004.3106,0,0
6.12,0.47896737,4.7742662000000005,8.52347,1004.3639,0,0
6.16,-0.028799385,4.659896,8.405008,1004.3611,0,0
6.2,0.8649959999999999,5.184218,9.422903,1004.36646,0,0
6.24,0.53994155,5.513111,5.938378299999999,1004.2602,0,0
6.28,0.66896826,6.685685,7.401307000000001,1004.2729,0,0
6.32,0.3247962,4.1641765,9.347145,1004.3209,0,0
6.36,1.4097855,5.2938514,6.18456,1004.31335,0,0
6.4,0.5159326,4.0926800000000005,6.6769357000000005,1004.3209,0,0
6.44,2.9440433999999995,5.3176856,6.9420600000000015,1004.34125,0,0
6.48,-0.3636089,2.3147554,2.9414852,1004.2958,0,0
6.52,2.4564493,3.639859,7.1172276,1004.2226,0,0
6.56,1.7012124,2.4196212000000004,4.5180373,1004.2378,0,0
6.6,1.5912507,1.4806101,3.2302766,1004.2604,0,0
6.64,5.1665177,1.404346,4.6032515,1004.3541,0,0
6.68,3.5891528,-1.9942086,4.6269207,1004.37933,0,0
6.72,8.713077,-0.42124408,4.8636384,1004.3187,0,0
6.76,8.311544,-3.0619159,5.2707953000000005,1004.4273,0,0
6.8,7.7809587,-6.055313,2.576916,1004.4124,0,0
6.84,11.442261,-5.1591997,3.3533561,1004.37445,0,0
6.88,9.530311,-10.416711,2.30705,1004.3464,0,0
6.92,16.819487,-7.1659190000000015,6.478058,1004.3895,0,0
6.96,15.328159,-9.968654,3.2681293,1004.35394,0,0
7.0,19.290592,-9.310868,2.1555414,1004.3162,0,0
7.04,21.852533,-0.38310617,-9.46269,1004.26807,0,0
7.08,9.166909,-10.125948,-1.4426113,1004.30615,0,0
7.12,8.1296625,-6.6606603,3.528511,1004.3138,0,0
7.16,8.186524,-7.599660000000001,0.9718872,1004.32635,0,0
7.2,6.666502,-6.817943,1.1281184,1004.34393,0,0
7.24,5.743953,-6.069593,1.1517861,1004.3213,0,0
7.28,5.4379992,-8.724563999999999,5.6589355,1004.3516,0,0
7.32,6.87667,-5.5738688,2.7425373,1004.3972,0,0
7.36,6.3317285000000005,-4.8302846,2.037107,1004.4402,0,0
7.4,3.8270671,-3.1381555,3.3390644,1004.45026,0,0
7.44,5.0410900000000005,-1.9274492,1.0618111,1004.377,0,0
7.48,3.836536,-2.346905,2.065501,1004.34924,0,0
7.52,5.3755827000000025,-3.8722022,5.024499400000002,1004.34924,0,0
7.56,4.801962400000002,-4.906544,4.039739,1004.36945,0,0
7.6,7.273074,-6.241179,4.214908,1004.36945,0,0
7.64,6.799823299999999,-6.164912,4.5557804000000015,1004.324,0,0
7.68,5.275025,-2.499429,4.1344147000000016,1004.3441,0,0
7.72,7.9134307,-9.248873,4.915587,1004.3263,0,0
7.76,8.783305,-9.425234,2.6004589,1004.3492,0,0
7.8,8.768921,-10.507241,4.5841703,1004.3492,0,0
7.84,9.060445,-10.316579,8.849864,1004.286,0,0
7.88,2.2204957000000003,-2.7663505,0.29005656,1004.2835,0,0
7.92,2.0961769,-2.9474785,2.7093337,1004.3545,0,0
7.96,6.6321607,-0.3783033,4.498933999999998,1004.405,0,0
8.0,4.6580606,-3.1381385,4.721447,1004.4024,0,0
8.04,6.3930798,-7.2707424,0.33738372,1004.41003,0,0
8.08,6.187501,-6.3078965999999985,2.4725962000000004,1004.37476,0,0
8.12,6.6415386,-6.57959,4.3663535000000016,1004.3823,0,0
8.16,6.077914,-6.4890347,4.1059976,1004.38983,0,0
8.2,8.252697999999999,-8.757914999999999,1.0238975,1004.443,0,0
8.24,7.851165299999999,-9.878056,1.5446793,1004.36957,0,0
8.28,1.6995267,-12.042071,1.7435215,1004.39246,0,0
8.32,2.6076622000000005,-8.977175,0.46996415,1004.40247,0,0
8.36,14.791353,-4.3726797,5.081271599999999,1004.69073,0,0
8.4,4.677258,-6.851289,-0.8793465,1004.5769,0,0
8.44,4.61031,-7.5662713,-1.0876633,1004.3597,0,0
8.48,1.1688243,-3.3335679,2.501013,1004.10925,0,0
8.52,1.8523105,-8.691177,1.4357696000000002,1004.19525,0,0
8.56,0.9297777,-13.758026,0.22375923,1004.9538,0,0
8.6,2.4831848,-13.901023,-1.4711603000000002,1005.1865,0,0
8.64,1.9334799,-12.156463,0.11959717,1004.44824,0,0
8.68,3.0567029,-10.087776,0.02017181,1004.20795,0,0
8.72,-1.5701747,-7.0181127000000005,1.9991504,1004.213,0,0
8.76,2.0767882,-8.881835,-1.0403398,1004.1827,0,0
8.8,1.5605403,-10.955286,-0.17394646,1004.309,0,0
8.84,2.4304338,-7.509065,-0.3491222,1004.5845,0,0
8.88,2.1388383,-4.353605,1.3884016,1004.4758,0,0
8.92,1.8185623,-11.26511,-0.543238,1004.64545,0,0
8.96,1.1063423,-12.223189,-0.453287,1004.9083,0,0
9.0,2.6358523,-8.66257,0.4699194,1004.8274,0,0
9.04,1.5986074,-4.205838,-0.44855762,1004.06116,0,0
9.08,3.1089962000000004,-16.331957,1.37892,1003.67944,0,0
9.12,2.5975263,-12.823771,-1.1208486999999998,1004.10925,0,0
9.16,3.0945354,-11.150707,0.7350298000000001,1004.23834,0,0
9.2,0.9818303,-9.353715,0.19057032,1004.3091,0,0
9.24,0.9053237,-9.558677,0.9149315999999998,1004.5722,0,0
9.28,-0.13670728,-5.154376999999998,0.30419025,1004.37976,0,0
9.32,0.6041306,-5.7740290000000005,0.33259377,1004.29144,0,0
9.36,3.3190298,-12.6760025,0.15268366,1004.28143,0,0
9.4,4.126786,-7.7902809999999985,0.20002496,1004.28894,0,0
9.44,3.0417392000000003,-12.566371,0.62611854,1004.304,0,0
9.48,4.012006,-10.597781,0.5124897,1004.3218,0,0
9.52,1.8323874,-9.053416,0.47461194,1004.337,0,0
9.56,1.9996487,-9.015283,0.84862703,1004.3725,0,0
9.6,2.8169618,-10.273652,0.29943296,1004.36975,0,0
9.64,2.888627,-9.849428,0.4367278,1004.39264,0,0
9.68,3.7680833,-10.445248,1.0853387,1004.3901,0,0
9.72,1.9134856,-5.993283,-0.8178949999999999,1004.3749,0,0
9.76,2.05685,-9.310805,1.3646626,1004.41534,0,0
9.8,3.1370542,-9.38707,0.5740143,1004.39764,0,0
9.84,2.8502321,-9.60633,-0.2071656,1004.3952,0,0
9.88,2.8549821,-9.592031,0.10056803,1004.39764,0,0
9.92,2.955326,-9.501465,0.08162748,1004.38245,0,0
9.96,3.06045,-9.325102,0.03428053,1004.38495,0,0
10.0,3.146457,-9.253602,0.005871395,1004.3724,0,0
10.04,3.4427733,-9.172569,0.12896300000000002,1004.3723,0,0
10.08,3.696071,-8.953307,0.34200835,1004.38495,0,0
10.12,3.428374,-9.172569,0.20470804,1004.3824,0,0
10.16,3.2571478,-9.396618,0.11956625,1004.3698,0,0
10.2,3.1041982000000004,-9.425217,0.23792675,1004.3799,0,0
10.24,2.9130092,-9.3823185,0.23319262,1004.3826,0,0
10.28,2.927353,-9.439517,0.24739623,1004.3724,0,0
10.32,2.9942740000000003,-9.396618,0.31841263,1004.36475,0,0
10.36,2.9942777,-9.286986,0.23792809,1004.3774,0,0
10.4,3.0134006,-9.348952,0.24739726,1004.3547,0,0
10.44,3.1281197,-9.406151,0.1574439,1004.3723,0,0
10.48,3.0325272,-9.363253,0.17164743,1004.3774,0,0
10.52,3.1185672,-9.348953,0.10536611,1004.3572,0,0
10.56,3.2285066,-9.220257,0.09589763,1004.3749,0,0
10.6,3.2093914,-9.282222,0.072226,1004.37994,0,0
10.64,3.1759365,-9.282222,0.034351125,1004.3419,0,0
10.68,3.1329215,-9.358486,-0.027195845,1004.38257,0,0
10.72,3.142485,-9.406152,-0.03666431,1004.38495,0,0
10.76,3.0373333,-9.439518,-0.012991939,1004.3648,0,0
10.8,2.9608603,-9.47765,-0.017725993,1004.3648,0,0
10.84,2.9895425,-9.382319,-0.03192887,1004.3699,0,0
10.88,2.951308,-9.391851,-0.008256499,1004.37744,0,0
10.92,2.9704309,-9.406153,-0.031928163,1004.3673,0,0
10.96,2.9465356,-9.348954,-0.012990229,1004.3799,0,0
11.0,3.0421352,-9.410919,-0.04139633,1004.38257,0,0
11.04,2.874846,-9.4347515,0.001213674,1004.3723,0,0
11.08,2.7935932,-9.520551,-0.046130005,1004.3952,0,0
11.12,3.1473024,-9.272689,0.0248864,1004.4052,0,0
11.16,3.2901666,-9.258376,0.11479159,1004.3699,0,0
11.2,3.3809638,-9.263143,0.048508175,1004.39014,0,0
11.24,3.5100021,-9.139213,0.16213235,1004.3899,0,0
11.28,3.5769005,-9.215476,0.14792745,1004.3927,0,0
11.32,3.4382696000000004,-9.391839,0.30889568,1004.38245,0,0
11.36,3.2183807,-9.229774,0.17633072,1004.39264,0,0
11.4,3.2279215,-9.163043,0.25207946,1004.3876,0,0
11.44,3.0080347,-9.368004,0.37990698,1004.37213,0,0
11.48,3.1466303,-9.482401,0.07216892400000001,1004.3927,0,0
11.52,2.945862,-9.544366,0.0863706,1004.3495,0,0
11.56,2.7068539,-9.572965,0.048493743,1004.3899,0,0
11.6,3.0223033,-9.410901,0.08636737,1004.3647,0,0
11.64,3.0461845000000003,-9.348936,0.22839785,1004.36725,0,0
11.68,3.175228,-9.329869,0.37042898,1004.3799,0,0
11.72,3.2994797,-9.253604,0.19051947,1004.37225,0,0
11.76,3.1082695,-9.272669,0.17158023,1004.3748,0,0
11.8,3.1608307,-9.406133,0.13370347,1004.36957,0,0
11.84,3.0556617000000004,-9.3966,0.12896785,1004.35956,0,0
11.88,3.1128917,-9.315565,0.08634652,1004.3924,0,0
11.92,3.0515883,-9.310819,0.15270450000000002,1004.3848,0,0
11.96,3.2284577000000003,-9.29652,0.2473941000000001,1004.405,0,0
12.0,3.128098,-9.449049,0.15270755,1004.357,0,0
12.04,2.9751608,-9.406151,0.1006306,1004.37213,0,0
12.08,3.0707684,-9.329886,0.08169401,1004.35693,0,0
12.12,2.9608536,-9.44905,0.105367914,1004.40247,0,0
12.16,3.032566,-9.401385,0.1763854,1004.3671,0,0
12.2,3.0851614,-9.296522,0.17165262,1004.3595,0,0
12.24,3.0708344,-9.401386,0.07696564,1004.39484,0,0
12.28,2.9035556,-9.396621,0.08170137,1004.3846,0,0
12.32,3.104329,-9.358488,0.07223454,1004.3695,0,0
12.36,3.0852222,-9.449053,0.020157231,1004.3569,0,0
12.4,2.683733,-9.625417,-0.017716717,1004.3645,0,0
12.44,3.0709147,-9.120161,-0.003511868,1004.3492,0,0
12.48,3.2430074,-9.320357,0.26161660000000003,1004.34424,0,0
12.52,3.6540868,-9.186894,0.18113321,1004.3645,0,0
12.56,3.3529756,-9.186895,0.13852507,1004.3745,0,0
12.6,3.2287164,-9.2917595,0.11958887,1004.3668,0,0
12.64,3.2048306,-9.382324,0.28529426,1004.3643,0,0
12.68,3.2239695,-9.29176,0.2994993,1004.3769,0,0
12.72,3.166624,-9.29176,0.2995004000000001,1004.3821,0,0
12.76,2.9467728,-9.401392,0.3137054,1004.3746,0,0
12.8,2.7508173,-9.444291,0.25689405,1004.3491,0,0
12.84,2.8034074,-9.410926,0.20481674,1004.3466,0,0
12.88,2.9038007,-9.425225,0.11486465,1004.3695,0,0
12.92,2.9180005,-9.401389,0.039101347,1004.3693,0,0
12.96,2.9514685000000003,-9.463355,0.015430214,1004.33136,0,0
13.0,2.9180193,-9.415689,0.18586963,1004.382,0,0
13.04,2.9610484,-9.482421,0.06277612,1004.3945,0,0
13.08,2.9419405,-9.348958,0.26162216,1004.36444,0,0
13.12,3.0471032000000005,-9.387092,0.18113792,1004.4021,0,0
13.16,2.9085002,-9.387092,0.076982066,1004.3971,0,0
13.2,3.0710232000000004,-9.348959,0.1337958,1004.3819,0,0
13.24,3.0088952,-9.429991,0.20481274,1004.3771,0,0
13.28,2.9515483,-9.425224,0.15746966,1004.36926,0,0
13.32,2.9085398,-9.377559,0.2048146,1004.39716,0,0
13.36,2.846413,-9.434757,0.27109724,1004.3944,0,0
13.4,2.8464224,-9.410925,0.19534764,1004.36926,0,0
13.44,2.7221577,-9.434758,0.16694212,1004.3845,0,0
13.48,2.7604063,-9.396626,0.28530318,1004.3868,0,0
13.52,2.726957,-9.477657,0.2474288,1004.37177,0,0
13.56,2.755646,-9.487191,0.23322652,1004.37427,0,0
13.6,2.6887395,-9.477658,0.11013301,1004.3691,0,0
13.64,2.7795653,-9.458592,0.19061874,1004.38434,0,0
13.68,2.8703918,-9.458592,0.22849491,1004.36896,0,0
13.72,2.8656216,-9.49196,0.14801091,1004.38184,0,0
13.76,2.985127,-9.377562,0.21429351,1004.3589,0,0
13.8,3.028155,-9.301297,0.3421234,1004.36664,0,0
13.84,3.037725,-9.377562,0.2663738,1004.35144,0,0
13.88,3.0329554,-9.358496,0.29004675,1004.374,0,0
13.92,2.9799182,-9.377551,0.24739505,1004.374,0,0
13.96,2.8078368,-9.491948,0.17637822,1004.3513,0,0
14.0,2.8508468,-9.472882,0.1290334,1004.39185,0,0
14.04,2.9273145,-9.382318,0.11482939,1004.3107,0,0
14.08,2.917746,-9.534847,0.13850059,1004.3537,0,0
14.12,2.8938384,-9.363251,0.072218135,1004.35364,0,0
14.16,2.87949,-9.458581,0.05327969,1004.37897,0,0
14.2,3.0276556,-9.315584,0.110091776,1004.38916,0,0
14.24,2.8555737,-9.472881,0.062746935,1004.40436,0,0
14.28,2.826886,-9.468114,0.001198862,1004.37897,0,0
14.32,2.7312818,-9.48718,-0.06981799,1004.3537,0,0
14.36,2.8890057,-9.32035,-0.04141241,1004.3992,0,0
14.4,3.151887,-9.377548,-0.07928836,1004.38654,0,0
14.44,3.0658414,-9.382316,-0.09349245,1004.37646,0,0
14.48,3.051493,-9.391848,-0.11716527,1004.4194,0,0
14.52,2.9176495,-9.410913,-0.12663491,1004.40924,0,0
14.56,3.0419173,-9.353715,-0.10769795,1004.389,0,0
14.6,3.132724,-9.248851,-0.003541909,1004.4167,0,0
14.64,3.0180001,-9.491945,-0.17398129999999998,1004.41174,0,0
14.68,3.1135871,-9.425212,-0.17398211,1004.42444,0,0
14.72,3.0801196,-9.334648,-0.22132693,1004.394,0,0
14.76,3.5055134,-9.27745,-0.09349884,1004.3738,0,0
14.8,3.1040008,-9.11062,-0.0319524,1004.42706,0,0
14.84,3.2617261,-9.320347,-0.14084449999999998,1004.4092,0,0
14.88,2.7837365000000003,-9.4728775,-0.20712702,1004.44434,0,0
14.92,2.7741687,-9.406145,-0.055626746,1004.40155,0,0
14.96,2.879315,-9.425211,-0.02722117,1004.42444,0,0
15.0,2.692894,-9.4728775,-0.06509724,1004.4116,0,0
15.04,3.0274713,-9.391844,-0.14558294,1004.3812,0,0
15.08,2.6976562000000004,-9.482409,0.053261254,1004.38885,0,0
15.12,2.6785285,-9.506242,0.06272929,1004.4014,0,0
15.16,2.8219137,-9.296514,-0.008287596999999999,1004.42676,0,0
15.2,2.8553636000000004,-9.458576,0.005914835,1004.3886,0,0
15.24,3.0465467,-9.401377,0.14321174,1004.4039,0,0
15.28,3.060877,-9.496708,0.001178805,1004.42664,0,0
15.32,3.2425015,-9.339412,0.06272529,1004.4088,0,0
15.36,3.2424927,-9.215481,0.20002219,1004.3961,0,0
15.4,3.2185857,-9.234547,0.25209996,1004.38855,0,0
15.44,3.0417237,-9.3155775,0.29470876,1004.40155,0,0
15.48,2.907881,-9.396609,0.20475428,1004.4191,0,0
15.52,2.8074954,-9.472875,0.14794058,1004.38873,0,0
15.56,2.6334412,-9.463408,0.17186873,1004.4165,0,0
15.6,2.5474615000000003,-9.534909,0.28549963,1004.37067,0,0
15.64,2.399352,-9.611176,0.25236472,1004.38074,0,0
15.68,2.4519904,-9.539679,0.24763584,1004.4035,0,0
15.72,2.4950655,-9.568278,0.23817225,1004.3759,0,0
15.76,2.423429,-9.644546,0.18136492,1004.40857,0,0
15.8,2.5716636000000004,-9.568281,0.16243288,1004.4139,0,0
15.84,2.6673162,-9.472953,0.048812337,1004.4114,0,0
15.88,2.2658734000000003,-9.792314,-0.1594959,1004.3961,0,0
15.92,3.197996,-9.248928,-0.0032550020000000003,1004.42896,0,0
15.96,2.944727,-9.353793,0.58381677,1004.41644,0,0
16.0,2.6149771,-9.51109,0.21927276,1004.38574,0,0
16.04,2.5051024,-9.77802,-0.08845800000000001,1004.4289,0,0
16.08,2.1514575,-9.68269,0.063048504,1004.3958,0,0
16.12,2.43831,-9.430064,0.1719457,1004.4213,0,0
16.16,2.4288107999999995,-9.596895,0.16248244,1004.4313,0,0
16.2,2.2042131,-9.534931,0.039392762000000005,1004.4034,0,0
16.24,2.3906898,-9.639797,-0.060023826,1004.40356,0,0
16.28,2.4959025,-9.649331,-0.11683147,1004.4034,0,0
16.32,2.3716843,-9.654099,-0.06474784,1004.42114,0,0
16.36,2.1901124,-9.558769,-0.25885287,1004.44635,0,0
16.4,2.35269,-9.50634,-0.6849434,1004.4538,1,1
16.44,2.9311032000000004,-9.120249,-0.5902501,1004.4135,1,1
16.48,4.0305185,-8.815191,-0.77488637,1004.4614,1,1
16.52,4.1022763,-8.786593,-1.1441643999999995,1004.45886,1,1
16.56,3.5654573,-8.867589,-0.56670254,1004.4765,1,1
16.6,3.5367775000000004,-8.81039,-0.1879503,1004.4034,1,1
16.64,2.924961,-8.724591,0.058238633,1004.3782,1,1
16.68,3.125712,-8.838989,0.754196,1004.37317,1,1
16.72,3.7805436,-9.453876,2.2786741000000004,1004.3428,1,1
16.76,2.7337654,-9.272746,2.979366,1004.3327,1,1
16.8,1.706106,-10.268956,2.548535,1004.36053,1,1
16.84,3.8809154,-10.340455,2.8704746,1004.3476,1,1
16.88,4.22984,-10.864776,2.3260176,1004.34,1,1
16.92,2.8150167,-10.059228,2.3212836,1004.3628,1,1
16.96,2.7003005,-9.005818,1.3459958,1004.4031,1,1
17.0,2.1745205000000003,-8.267002,1.0998065,1004.3829,1,1
17.04,1.5196861000000002,-8.619727000000001,1.1613537,1004.3955,1,1
17.08,3.465065,-8.791323,1.3601986,1004.4233,1,1
17.12,5.4104433,-8.224103,0.20500378,1004.4485,1,1
17.16,8.005877,-8.238402,0.54114646,1004.3879,1,1
17.2,6.978217,-9.063017,-1.5846014,1004.451,1,1
17.24,7.986753999999999,-8.4576645,-1.6698208,1004.4713,1,1
17.28,5.888419,-8.672158999999999,-2.4131227,1004.44855,1,1
17.32,3.5941124,-14.244264,-0.5477671,1004.441,1,1
17.36,-0.005081117,-17.256726999999998,1.3317914,1004.3573,1,1
17.4,5.2861605,-11.250866,-0.54776734,1004.5269,1,1
17.44,7.341475,-9.024884,-0.25896874,1004.63275,1,1
17.48,4.119886,-8.92002,0.34703493,1004.6001,1,1
17.52,0.9078564,-6.8227350000000015,0.42751968,1004.63043,1,1
17.56,-1.4485881,-6.47001,0.3328315,1004.6253,1,1
17.6,-1.5059471000000002,-5.097241,0.6784429,1004.5975,1,1
17.64,-0.6455835999999999,-4.501422,-1.3478825,1004.5066,1,1
17.68,5.066281,-6.8989997,-5.485752,1004.4457,1,1
17.72,18.053007,-11.370029,-5.481018,1004.37744,1,1
17.76,9.387222,-9.239379,-7.763001400000001,1004.3245,1,1
17.8,2.341789,-12.876262,-2.0817156000000003,1004.332,1,1
17.84,0.5302418999999999,-12.108846,-0.7371446999999999,1004.14264,1,1
17.88,3.8235254,-6.798902,3.4670064,1004.1022,1,1
17.92,-0.6742712,-7.5996833,0.10084462,1004.188,1,1
17.96,7.0594497,-9.077316,5.3986435,1004.2361,1,1
18.0,5.214444599999998,-8.705524,-0.7276765000000001,1004.36206,1,1
18.04,0.9699777,-9.739867,1.7910267,1004.39264,1,1
18.08,4.597847,-8.824689,1.6300569,1004.4025,1,1
18.12,3.4745922,-9.553971,1.3033828,1004.4278,1,1
18.16,3.0444086,-9.658835,1.8525738,1004.35706,1,1
18.2,3.6371033,-8.557761,1.1424128,1004.34955,1,1
18.24,5.3339324,-8.638793,-1.1158983,1004.4404,1,1
18.28,7.0594397,-8.581594,0.8299419,1004.4151,1,1
18.32,5.9808526,-9.125022,-0.61390066,1004.5415,1,1
18.36,7.0993633,-9.196521,-2.5928786,1004.47833,1,1
18.4,6.535381,-9.28232,-2.3088112,1004.4127,1,1
18.44,3.3616257000000007,-12.404416,-1.3193173,1004.4278,1,1
18.48,1.2920092,-17.857357,4.423518700000002,1004.2786,1,1
18.52,8.490431,-10.71229,-3.6297,1004.49084,1,1
18.56,5.5365480000000025,-10.02114,1.9900417,1004.6574,1,1
18.6,3.5864227,-9.005864,1.2798842,1004.6245,1,1
18.64,0.58952206,-5.035323,1.6065614,1004.6548,1,1
18.68,-1.8529236,-5.821806,0.85379434,1004.6702,1,1
18.72,-2.0727580000000003,-5.569179,0.40402922,1004.5691,1,1
18.76,-1.3700902,-6.4557595,-1.6080894,1004.4201,1,1
18.8,9.4562025,-12.151795,-10.31939,1004.3215,1,1
18.84,12.802101,-10.72183,-4.567085700000002,1004.2658,1,1
18.88,5.3217444,-9.072601,-2.0294414,1004.3695,1,1
18.92,-2.1108136,-18.624783,-1.2009173999999998,1004.1419,1,1
18.96,5.8189154,-5.974342,8.873899,1004.0964,1,1
19.0,2.559126,-4.7350379999999985,-0.5191564999999999,1004.2277,1,1
19.04,1.8230699,-9.635059,3.4340746,1004.2963,1,1
19.08,5.312363,-9.001108,1.2799237,1004.40967,1,1
19.12,0.58995384,-10.087884,-0.7511325,1004.5183,1,1
19.16,3.1137269,-9.897223,2.3167653,1004.5084,1,1
19.2,3.9119904,-9.105975,-0.16879405,1004.4554,1,1
19.24,2.884367,-8.924846,1.2467961,1004.4349,1,1
19.28,3.8929398,-8.529223,1.5971452,1004.4172,1,1
19.32,4.805081,-8.109746000000001,-0.53814465,1004.48553,1,1
19.36,5.1922474,-8.657900999999999,-1.5181663,1004.55365,1,1
19.4,5.92834,-8.757997999999999,0.76855147,1004.46277,1,1
19.44,7.175871000000001,-9.754209,-3.3125052000000004,1004.52075,1,1
19.48,5.4073462,-9.611213,-2.4177024,1004.53326,1,1
19.52,4.967606,-13.824848,3.4861004,1004.41455,1,1
19.56,-0.008166358,-21.317875,3.6328673,1004.35144,1,1
19.6,13.270132,-8.414807000000001,-4.851186,1004.58887,1,1
19.64,5.7084837,-10.00207,1.450307,1004.56116,1,1
19.68,1.3254063,-7.9000187,2.018436,1004.58636,1,1
19.72,0.07310012,-5.1211160000000016,1.8622009,1004.6419,1,1
19.76,-1.0597107,-5.39281,2.5108147,1004.6546,1,1
19.8,-2.895153,-6.9657740000000015,-0.3440313,1004.4827,1,1
19.84,-0.596065,-8.615002,-1.2246305,1004.30066,1,1
19.88,8.863171000000003,-13.596054999999998,-11.043785,1004.25775,1,1
19.92,10.316233,-7.013439,-0.8222056000000001,1004.30585,1,1
19.96,6.3059797,-9.792343,0.13887885,1004.39166,1,1
20.0,3.820484200000001,-17.256767,-3.5444875,1004.1669,1,1
20.04,5.1683910000000015,-8.982027,0.9579314,1004.2198,1,1
20.08,-3.3157578,-8.962962,-1.750148,1004.2805,1,1
20.12,0.13048287,-9.568314,3.4340255,1004.2629,1,1
20.16,7.4770436,-8.410041,4.7170489999999985,1004.40686,1,1
20.2,0.77098167,-11.02688,-0.31562263,1004.4928,1,1
20.24,2.6685662,-8.88193,3.8411849,1004.4572,1,1
20.28,2.4582574,-8.605471000000001,0.5128987,1004.4749,1,1
20.32,2.3301466,-8.767555999999999,1.5592883999999998,1004.43445,1,1
20.36,2.5404985,-9.12505,1.2373526,1004.3788,1,1
20.4,3.8215265,-8.97252,1.0101049000000002,1004.4243,1,1
20.44,4.500299,-9.74947,-0.43861917,1004.45215,1,1
20.48,5.226867,-8.662696,1.38413,1004.4697,1,1
20.52,3.697371,-8.920092,1.3273209,1004.485,1,1
20.56,4.4430575,-9.768539,1.2184331,1004.485,1,1
20.6,5.6380525000000015,-10.912514,-0.15454026,1004.51276,1,1
20.64,4.0464129999999985,-11.217574,-2.483864,1004.5556,1,1
20.68,2.8323857999999995,-10.092669,-1.9725446,1004.5252,1,1
20.72,-0.22665045,-9.844808,0.69292885,1004.4621,1,1
20.76,0.45690465,-14.2395735,2.1511295,1004.52295,1,1
20.8,1.7188109,-12.456882,-2.445974,1004.5883,1,1
20.84,3.353542,-10.564561,-1.4990897,1004.60864,1,1
20.88,2.622275,-8.30998,-0.3817661,1004.5252,1,1
20.92,0.82510936,-5.8361382000000015,0.56038415,1004.452,1,1
20.96,0.49055862,-6.1459655999999985,-0.14977334,1004.4163,1,1
21.0,0.046067297,-7.523500999999999,-1.2386836,1004.3911,1,1
21.04,1.8098682,-11.007855,-2.5359056,1004.3636,1,1
21.08,1.5517993,-13.624695999999998,-9.268226,1004.3027,1,1
21.12,0.58631957,-9.453959,2.4683673,1004.2624,1,1
21.16,-2.3054264,-9.239465,0.8539388000000001,1004.2623,1,1
21.2,2.8042274,-10.416806,-1.6931671,1004.4089,1,1
21.24,5.8872285,-8.581682,0.15798782,1004.41895,1,1
21.28,3.2966282,-8.762813000000001,0.11064863,1004.3103,1,1
21.32,1.3311306,-11.689455,-4.273501,1004.4139,0,0
21.36,1.6704955,-10.030693,0.97695327,1004.4265,0,0
21.4,2.2153919,-9.806665,-0.39128986,1004.4139,0,0
21.44,3.0279572,-9.234678,0.3709492,1004.4189,0,0
21.48,3.228708,-8.729422999999999,1.5072062,1004.4263,0,0
21.52,2.6360111,-9.263278,0.35201135,1004.44403,0,0
21.56,2.3683407,-9.749465,0.10108779,1004.44403,0,0
21.6,2.7077055,-9.582636,0.22418214,1004.43646,0,0
21.64,2.425696,-9.587402,0.6076689000000001,1004.42377,0,0
21.68,2.7316022,-9.439639,0.7639041,1004.42114,0,0
21.72,2.8797748,-9.458706,0.85385764,1004.42365,0,0
21.76,1.9381517,-9.5063715,1.0811089,1004.4008,0,0
21.8,1.71828,-9.468238,1.1568593,1004.4062,0,0
21.84,1.1972798,-9.816197,1.2657504,1004.411,0,0
21.88,1.1160219,-9.754231,1.5829555,1004.4186,0,0
21.92,1.2163965,-9.668434,1.554549,1004.42865,0,0
21.96,1.1351385,-9.792365,1.3651726,1004.4236,0,0
22.0,0.9917436,-9.882929,1.1284523000000002,1004.42114,0,0
22.04,1.1160169,-9.882929,1.2184058,1004.4236,0,0
22.08,0.96306187,-9.806664,1.2515466,1004.42615,0,0
22.12,0.99651927,-9.844796,1.1473895,1004.44354,0,0
22.16,1.0204173,-9.906762,1.22314,1004.4463,0,0
22.2,1.259406,-9.720865,1.284687,1004.44867,0,0
22.24,1.4888353,-9.663667,1.1047796,1004.41583,0,0
22.28,1.5748707,-9.758999,1.0242946,1004.43115,0,0
22.32,1.5892091,-9.744699,0.9864194,1004.45374,0,0
22.36,1.6188646999999998,-9.5492935,1.1096033,1004.4563,0,0
22.4,1.8387724,-9.587427,1.0149184000000002,1004.4387,0,0
22.44,1.7336444,-9.596961,0.97704583,1004.4437,0,0
22.48,1.781486,-9.744725,0.87289286,1004.4487,0,0
22.52,1.6763694,-9.7065935,0.8728965,1004.4282,0,0
22.56,1.614255,-9.735192,0.88710177,1004.44617,0,0
22.6,1.6143056,-9.6970625,0.98179454,1004.4233,0,0
22.64,1.6669086,-9.611266,0.92971843,1004.4005,0,0
22.68,1.6526153,-9.673231,0.7924249,1004.4231,0,0
22.72,1.5618333999999998,-9.658933,0.7592871999999999,1004.4409,0,0
22.76,1.542744,-9.706598,0.7782275,1004.408,0,0
22.8,1.7052896,-9.725666,0.6740735999999999,1004.42065,0,0
22.84,1.647978,-9.692301,0.65040576,1004.4231,0,0
22.88,1.6241088,-9.658936,0.6740805000000001,1004.44617,0,0
22.92,1.6623886000000003,-9.7209015,0.740366,1004.4281,0,0
22.96,1.7293472,-9.744736,0.7072289,1004.4309,0,0
23.0,1.7484916,-9.668472,0.66935605,1004.4281,0,0
23.04,1.7485377,-9.735204,0.6930321999999999,1004.42303,0,0
23.08,1.7485629,-9.663707,0.7640505999999999,1004.451,0,0
23.12,1.8824435,-9.57791,0.64096034,1004.44867,0,0
23.16,1.9207071,-9.60651,0.6599001999999999,1004.41284,0,0
23.2,1.8538359,-9.616044,0.53207546,1004.41284,0,0
23.24,1.9590191000000003,-9.616044,0.5462813,1004.4231,0,0
23.28,2.0116453,-9.59698,0.49420723,1004.4256,0,0
23.32,2.145505,-9.687545,0.4421311,1004.4382,0,0
23.36,2.077979,-9.582666,0.45154417,1004.4181,0,0
23.4,2.1257863,-9.5779,0.48942024,1004.43304,0,0
23.44,2.1783755,-9.5493,0.41367084,1004.40784,0,0
23.48,2.1114712000000004,-9.544534,0.44681284,1004.43335,0,0
23.52,2.082804,-9.554068,0.48942354,1004.41547,0,0
23.56,2.0780346,-9.6065,0.6125189999999999,1004.4307,0,0
23.6,2.0398054,-9.649399,0.56517583,1004.438,0,0
23.64,1.9012026,-9.749497,0.54150486,1004.4179,0,0
23.68,1.6909033,-9.625567,0.6882725000000001,1004.4128,0,0
23.72,1.7243727,-9.716132,0.60305417,1004.4179,0,0
23.76,1.6622496,-9.6923,0.45628896,1004.41754,0,0
23.8,1.7004958,-9.701834,0.51310253,1004.41504,0,0
23.84,1.8391209,-9.759032,0.44682187,1004.4202,0,0
23.88,1.987306,-9.592202,0.39001003,1004.43286,0,0
23.92,1.9968766,-9.620803,0.42788628,1004.395,0,0
23.96,2.059026,-9.658935,0.32846487,1004.40753,0,0
24.0,2.0351393,-9.701835,0.42788845,1004.4228,0,0
24.04,2.0494895,-9.654169,0.40421742,1004.4277,0,0
24.08,2.0638394,-9.592204,0.33320236,1004.4353,0,0
24.12,2.0256112,-9.587438,0.43262577,1004.448,0,0
24.16,2.1498988,-9.616036,0.39948612,1004.4202,0,0
24.2,2.1260104,-9.616037,0.3190022,1004.4228,0,0
24.24,2.126024,-9.544539,0.3900195,1004.42004,0,0
24.28,2.159492,-9.606504,0.34267634,1004.4327,0,0
24.32,2.2264209,-9.592206,0.26692688,1004.41504,0,0
24.36,2.0697722,-9.635132,0.2859638,1004.39734,0,0
24.4,2.055476,-9.682798,0.30017102,1004.4402,0,0
24.44,2.108110700000001,-9.644666,0.33805147,1004.4074,0,0
24.48,2.0555859,-9.687568,0.30018106,1004.4301,0,0
24.52,2.003058,-9.658969,0.34279525,1004.41986,0,0
24.56,2.0509095,-9.639904,0.31439373,1004.4123,0,0
24.6,2.0892045,-9.635139,0.3191333,1004.4074,0,0
24.64,2.0366766,-9.644672,0.3238723,1004.4125,0,0
24.68,2.0654087,-9.668507,0.30493957,1004.4376,0,0
24.72,2.0845811000000003,-9.658976,0.2718036,1004.42004,0,0
24.76,2.0129373,-9.68281,0.32388693,1004.4172,0,0
24.8,2.1133664,-9.587479,0.338095,1004.4122,0,0
24.84,2.1134164,-9.673279,0.33809959999999994,1004.42487,0,0
24.88,2.1086898,-9.5874815,0.2812916,1004.392,0,0
24.92,2.0848408,-9.60655,0.28129616,1004.43,0,0
24.96,2.075338,-9.654217,0.31444216,1004.4248,0,0
25.0,2.0897272,-9.668517,0.34285322,1004.4324,0,0
25.04,2.2140553,-9.573188,0.3854677,1004.4071,0,0
25.08,2.1328487000000003,-9.54459,0.3333938,1004.41473,0,0
25.12,2.1998224,-9.601789,0.38074303,1004.4172,0,0
25.16,2.1520712000000004,-9.601791,0.34760648,1004.3996,0,0
25.2,2.1425680000000003,-9.606559,0.44703418,1004.44763,0,0
25.24,2.0565782,-9.57796,0.35235032,1004.43744,0,0
25.28,1.9036812,-9.706659,0.34288675,1004.42224,0,0
25.32,1.9897708,-9.654228,0.4375797000000001,1004.4323,0,0
25.36,2.0181108,-9.601788,0.3760014,1004.402,0,0
25.4,2.0707264,-9.616088,0.37600487,1004.43744,0,0
25.44,2.046863,-9.658988,0.3523361,1004.42725,0,0
25.48,2.1807356,-9.639923,0.32393315,1004.42224,0,0
25.52,2.2142322,-9.620857,0.26238936,1004.4348,0,0
25.56,2.2572887,-9.54936,0.32394013,1004.4019,0,0
25.6,2.3242464,-9.549361,0.25766215,1004.41943,0,0
25.64,2.3386214,-9.487397,0.3002751,1004.4018,0,0
25.68,2.367336,-9.616095,0.28607512,1004.40674,0,0
25.72,2.27656,-9.58273,0.26240677,1004.3993,0,0
25.76,2.2574787,-9.620863,0.2529415,1004.40936,0,0
25.8,2.1571386,-9.582732,0.29555437,1004.43475,0,0
25.84,2.0950391,-9.577966,0.3239643,1004.4247,0,0
25.88,2.0377173,-9.644698,0.22927941,1004.4144,0,0
25.92,1.9995166,-9.635166,0.3713151,1004.4094,0,0
25.96,2.0091145,-9.658999,0.3145057,1004.3941,0,0
26.0,1.970914,-9.611336,0.3287124,1004.42194,0,0
26.04,1.9900712,-9.611337,0.32871586,1004.4169,0,0
26.08,2.0235655,-9.668536,0.30978152,1004.43964,0,0
26.12,1.985365,-9.625639,0.38553548,1004.43207,0,0
26.16,1.9949602,-9.697138,0.3097883,1004.43207,0,0
26.2,1.9424206,-9.706672,0.23877566,1004.4394,0,0
26.24,2.0858529,-9.568442,0.3571393,1004.42175,0,0
26.28,2.1480258,-9.611342,0.34293932,1004.4495,0,0
26.32,2.200644,-9.625644,0.23878612,1004.4192,0,0
26.36,2.277159,-9.568445,0.20564875,1004.4293,0,0
26.4,2.3919098,-9.525546,0.21512084,1004.4243,0,0
26.44,2.3584893,-9.511248,0.19618668,1004.4167,0,0
26.48,2.2151334,-9.577981,0.25300306,1004.4066,0,0
26.52,2.1339123,-9.659012,0.21986549,1004.4268,0,0
26.56,2.0479116000000004,-9.644713,0.281416,1004.4067,0,0
26.6,2.0766284,-9.616116,0.33349797,1004.4368,0,0
26.64,2.0049717,-9.697148,0.3713769,1004.4395,0,0
26.68,1.8998541,-9.644716,0.30509868,1004.4341,0,0
26.72,1.9285709,-9.644717,0.38558707,1004.442,0,0
26.76,1.9764069,-9.635185,0.38085613,1004.4089,0,0
26.8,2.086376,-9.60182,0.37139037,1004.4367,0,0
26.84,2.1389918,-9.573222,0.35245624,1004.4698,0,0
26.88,2.1820502,-9.630422,0.31458467,1004.4112,0,0
26.92,2.2872417,-9.587523,0.28618150000000003,1004.3963,0,0
26.96,2.382876,-9.5160265,0.2814506,1004.40137,0,0
27.0,2.4020307,-9.563693,0.27671945,1004.3911,0,0
27.04,2.2538948,-9.649492,0.29566056,1004.4114,0,0
27.08,2.1200984,-9.635193,0.27199203,1004.4316,0,0
27.12,2.196611,-9.616128,0.32407373,1004.4112,0,0
27.16,2.1679702,-9.601829,0.25306118,1004.4038,0,0
27.2,2.1154304,-9.668562,0.24359582,1004.4088,0,0
27.24,2.1441495,-9.6542635,0.21992747,1004.4013,0,0
27.28,2.0091794,-9.663769,0.271902,1004.39355,0,0
27.32,1.9613942,-9.663769,0.34291926,1004.4137,0,0
27.36,1.8849319,-9.701901,0.28137332,1004.43146,0,0
27.4,1.9375232,-9.625638,0.29084340000000003,1004.4036,0,0
27.44,2.061813,-9.678069,0.24823506,1004.42145,0,0
27.48,2.1383018,-9.616104,0.29084584,1004.4214,0,0
27.52,2.248251,-9.644704,0.11567409,1004.4262,0,0
27.56,2.296062,-9.549374,0.12987852,1004.4416,0,0
27.6,2.4585892999999994,-9.535074,0.23403665,1004.4312,0,0
27.64,2.5111809,-9.530308,0.27191317,1004.4493,0,0
27.68,2.4347177,-9.563674,0.21036717,1004.4667,0,0
27.72,2.3917112,-9.516008,0.15355539999999998,1004.4212,0,0
27.76,2.3152494,-9.539842,0.23404163,1004.406,0,0
27.8,2.291364,-9.592275,0.2529805,1004.4337,0,0
27.84,2.2818174,-9.592275,0.23877846,1004.4261,0,0
27.88,2.1718965,-9.730506,0.25298303,1004.4136,0,0
27.92,2.1910293,-9.611341,0.25771868,1004.4389,0,0
27.96,2.0906665,-9.601808,0.44709608,1004.4314,0,0
28.0,1.9807435,-9.611342,0.28139308,1004.4134,0,0
28.04,2.0572343,-9.620875,0.36187923,1004.4286,0,0
28.08,2.062028,-9.659008,0.33820847,1004.4137,0,0
28.12,2.0859400000000003,-9.606577,0.37608486,1004.4134,0,0
28.16,2.1289728,-9.639943,0.29086690000000004,1004.4515,0,0
28.2,2.1289866,-9.678076,0.38555628,1004.4286,0,0
28.24,2.3106310000000003,-9.525546,0.3003381,1004.44116,0,0
28.28,2.468192,-9.50171,0.22930622,1004.41583,0,0
28.32,2.6354918,-9.477877,0.26718208,1004.43353,0,0
28.36,2.5972593,-9.468344,0.271917,1004.45374,0,0
28.4,2.5351284,-9.4969425,0.21510476,1004.4134,0,0
28.44,2.4012997000000005,-9.492177,0.23877731,1004.42847,0,0
28.48,2.3535085,-9.568441,0.32873163,1004.41583,0,0
28.52,2.2244596000000003,-9.5493765,0.38554505,1004.3907,0,0
28.56,2.167109,-9.625642,0.36187363,1004.41846,0,0
28.6,2.0093815,-9.687607,0.30979577,1004.40826,0,0
28.64,2.0189474,-9.649474,0.3902812,1004.42346,0,0
28.68,2.0285127,-9.687607,0.41395372,1004.4588,0,0
28.72,2.0189598,-9.625642,0.4470952,1004.4134,0,0
28.76,2.1097827,-9.649475,0.4707678,1004.4208,0,0
28.8,2.2053845,-9.668541,0.4139555,1004.45374,0,0
28.84,2.2675283,-9.587509,0.39028403,1004.4282,0,0
28.88,2.348791,-9.554143,0.39501902,1004.43085,0,0
28.92,2.406155,-9.501712,0.33347234,1004.43335,0,0
28.96,2.4348400000000003,-9.496944,0.3334729,1004.4134,0,0
29.0,2.4635246,-9.554143,0.40448955,1004.42596,0,0
29.04,2.3966142999999995,-9.506479,0.44236538,1004.4409,0,0
29.08,2.2962449,-9.597044,0.47077236,1004.42316,0,0
29.12,2.1576364,-9.644709,0.51811695,1004.43085,0,0
29.16,2.2102208,-9.5398445,0.5938680000000001,1004.43335,0,0
29.2,2.0955117,-9.577977,0.58439976,1004.4284,0,0
29.24,2.0477197,-9.625644,0.5607284,1004.41815,0,0
29.28,1.9043955,-9.711443,0.49918744,1004.42316,0,0
29.32,1.813589,-9.735276,0.5323292,1004.4334,0,0
29.36,1.8183765,-9.71621,0.5086579000000001,1004.42584,0,0
29.4,1.9378811,-9.616113,0.58440924,1004.4284,0,0
29.44,1.976128,-9.678078,0.5275970999999999,1004.42334,0,0
29.48,2.1386502,-9.6447115,0.54653555,1004.42334,0,0
29.52,2.286833,-9.544615,0.43764508,1004.44324,0,0
29.56,2.5258317000000003,-9.439751,0.42344263,1004.4281,0,0
29.6,2.4589232999999995,-9.535083,0.42344344,1004.4458,0,0
29.64,2.2868586,-9.601813,0.43764743,1004.4409,0,0
29.68,2.1769319,-9.568448,0.49919552,1004.44086,0,0
29.72,2.1291428,-9.601814,0.57021236,1004.39044,0,0
29.76,2.004877,-9.63518,0.5512756999999999,1004.436,0,0
29.8,1.8280327,-9.706679,0.5796828,1004.4282,0,0
29.84,1.756344,-9.720979,0.6080899999999999,1004.4181,0,0
29.88,1.7515726000000005,-9.70668,0.60809076,1004.42554,0,0
29.92,1.8710772,-9.649482,0.64123243,1004.41547,0,0
29.96,2.1005168,-9.544617,0.4944667,1004.4356,0,0
30.0,2.339515,-9.487418,0.442389,1004.4332,0,0
30.04,2.411221,-9.554151,0.37137377,1004.43317,0,0
30.08,2.3921106,-9.558917999999998,0.36190578,1004.418,0,0
30.12,2.2200465,-9.635182,0.46606347,1004.4306,0,0
30.16,2.0575416,-9.63995,0.53708035,1004.42053,0,0
30.2,1.890258,-9.644715,0.65070695,1004.4053,0,0
30.24,1.9332849,-9.663783,0.60336363,1004.43317,0,0
30.28,2.1439562000000003,-9.587526,0.53238046,1004.4127,0,0
30.32,2.2539144,-9.558928,0.49450734,1004.43036,0,0
30.36,2.1679022,-9.630426,0.5039784,1004.4306,0,0
30.4,1.9671732,-9.687627,0.579731,1004.4229,0,0
30.44,1.881158,-9.692392,0.6412802,1004.4228,0,0
30.48,1.8525022,-9.740059,0.6744230999999999,1004.4127,0,0
30.52,1.7473694,-9.744827,0.7407068,1004.39514,0,0
30.56,1.7282687,-9.749593,0.6223484,1004.42554,0,0
30.6,1.8477893,-9.735294,0.5939444,1004.4381,0,0
30.64,1.9577478,-9.558932,0.5655399999999999,1004.4432,0,0
30.68,2.1537426,-9.601831,0.47558844,1004.4177,0,0
30.72,2.383196,-9.577999,0.3430272,1004.395,0,0
30.76,2.4501348,-9.496968,0.29568508,1004.4124,0,0
30.8,2.3832388,-9.578,0.38564074,1004.4229,0,0
30.84,2.1777318,-9.5923,0.38090855,1004.3872,0,0
30.88,2.0343604,-9.639968,0.5229428,1004.4404,0,0
30.92,1.9387854,-9.6781,0.44245988,1004.4101,0,0
30.96,1.9674872,-9.620902,0.4850716,1004.42004,0,0
31.0,2.1013446,-9.616136,0.42352647,1004.42755,0,0
31.04,2.163505,-9.582771,0.324106,1004.41,0,0
31.08,2.2065432,-9.582772,0.30990466,1004.4124,0,0
31.12,2.187448,-9.587538,0.24835958,1004.4355,0,0
31.16,2.1970308,-9.654271,0.29097134,1004.4125,0,0
31.2,2.225731,-9.630438,0.3288485,1004.4228,0,0
31.24,2.240093,-9.649505,0.3477882,1004.4228,0,0
31.28,2.363781,-9.544626,0.29565606,1004.4352,0,0
31.32,2.2681835,-9.558927,0.30985916,1004.4327,0,0
31.36,2.2347236,-9.558927,0.21043652,1004.42505,0,0
31.4,2.3255386,-9.573226,0.25778046,1004.4226,0,0
31.44,2.143905,-9.639958,0.27198356,1004.39233,0,0
31.48,2.134344,-9.568459,0.33353072,1004.4381,0,0
31.52,2.1008842,-9.64949,0.2577801,1004.4254,0,0
31.56,2.153460700000001,-9.573226,0.17256072,1004.4226,0,0
31.6,2.1725786,-9.597058,0.22463901,1004.43054,0,0
31.64,2.1534584,-9.520794,0.17729489999999998,1004.4126,0,0
31.68,2.3350894,-9.563692,0.16782595,1004.4429,0,0
31.72,2.4259045,-9.568458,0.111012995,1004.4149,0,0
31.76,2.4593618,-9.549392999999998,-0.012081653,1004.41,0,0
31.8,2.4737002999999995,-9.620891,-0.054691393,1004.4352,0,0
31.84,2.4115613,-9.601824,0.12521584,1004.43005,0,0
31.88,2.3924408,-9.554158,0.096809305,1004.4303,0,0
31.92,2.2012475,-9.539859,0.31932625,1004.4201,0,0
31.96,2.163008,-9.582759,0.07787145,1004.4073,0,0
32.0,2.1821258,-9.616124,0.18202828,1004.43506,0,0
32.04,2.029171,-9.668556,0.054199226,1004.43506,0,0
32.08,2.0004907,-9.730522,0.030527089,1004.42505,0,0
32.12,1.885774,-9.673323,0.19623111,1004.4402,0,0
32.16,1.8092959,-9.735288,0.17255898,1004.4125,0,0
32.2,1.9001111,-9.706689,0.15362124,1004.3972,0,0
32.24,1.8953298,-9.668556,0.16308998,1004.4123,0,0
32.28,1.8913201,-9.749606,0.2531141,1004.43256,0,0
32.32,1.805311,-9.78774,0.2389134,1004.4021,0,0
32.36,1.7910006999999997,-9.66381,0.23418167,1004.4248,0,0
32.4,1.8292701,-9.721009,0.28626296,1004.42,0,0
32.44,1.9057745,-9.682878,0.23418699,1004.42224,0,0
32.48,1.9249209,-9.65428,0.20578307,1004.43506,0,0
32.52,1.9631885,-9.678112,0.20105134,1004.4374,0,0
32.56,1.9871167,-9.678113,0.08269392,1004.45276,0,0
32.6,1.9775862,-9.654282,0.14897823,1004.4248,0,0
32.64,2.0254135,-9.544651,0.20579377,1004.43256,0,0
32.68,2.0111034,-9.60185,0.29101574,1004.42755,0,0
32.72,2.0637085,-9.649516,0.22000216,1004.4273,0,0
32.76,2.0541763,-9.673349,0.25314552,1004.42,0,0
32.8,2.135464,-9.597087,0.27208596,1004.4223,0,0
32.84,2.1307116,-9.654285,0.26261964,1004.3997,0,0
32.88,2.2741365,-9.587554,0.26735687,1004.42224,0,0
32.92,2.178568,-9.582789,0.2815626,1004.4298,0,0
32.96,2.1403584,-9.597089,0.33364373,1004.41473,0,0
33.0,2.1451676,-9.630455,0.22948949,1004.4248,0,0
33.04,2.1499765,-9.649522,0.24842979,1004.4248,0,0
33.08,2.2551577000000003,-9.592324,0.3478546,1004.4324,0,0
33.12,2.1691525,-9.587559,0.1916221,1004.4273,0,0
33.16,2.1930785,-9.620925,0.22476542,1004.4071,0,0
33.2,2.260027,-9.601859,0.25317472,1004.41724,0,0
33.24,2.312632,-9.597095,0.26738042,1004.402,0,0
33.28,2.3118572,-9.616141,0.16315259,1004.41724,0,0
33.32,2.2305982,-9.587542,0.16315235,1004.4194,0,0
33.36,2.3022926,-9.635206,0.106339276,1004.4147,0,0
33.4,2.3214095,-9.563709,0.14421432,1004.42975,0,0
33.44,2.1971323,-9.578008,0.1678861,1004.4218,0,0
33.48,2.3214042,-9.587541,0.115807384,1004.42474,0,0
33.52,2.2162464,-9.611374,0.17735444,1004.4273,0,0
33.56,2.2305832000000003,-9.5970745,0.18682301,1004.39667,0,0
33.6,2.1732233,-9.61614,0.17261957,1004.417,0,0
33.64,2.264037,-9.620907,0.17735374,1004.3918,0,0
33.68,2.225796,-9.592307,0.17261912,1004.4272,0,0
33.72,2.2449126,-9.549409,0.22469732,1004.38916,0,0
33.76,2.197112,-9.60184,0.2341659,1004.44995,0,0
33.8,2.2018895,-9.60184,0.15368083,1004.39667,0,0
33.84,2.1827674,-9.582775,0.22469662,1004.4222,0,0
33.88,2.1827650000000003,-9.60184,0.24836844,1004.4071,0,0
33.92,2.2831392000000004,-9.539875,0.22943065,1004.4095,0,0
33.96,2.240118,-9.50651,0.31464967,1004.4222,0,0
34.0,2.2114365,-9.625672,0.15367967,1004.4119,0,0
34.04,2.3357089,-9.43501,0.6365887,1004.4096,0,0
34.08,2.3357065,-9.554173,0.6413229,1004.40436,0,0
34.12,2.2018695,-9.625672,0.41407126,1004.40936,0,0
34.16,2.211427,-9.701938,0.23416367,1004.4069,0,0
34.2,2.0919287,-9.840167,0.54663414,1004.422,0,0
34.24,1.8911747,-9.735303,0.44721138,1004.417,0,0
34.28,1.4663742,-10.016545,0.2578903,1004.3866,0,0
34.32,1.6528136000000002,-9.482691,0.34311208,1004.41174,0,0
34.36,1.753207,-9.659054,0.3336449,1004.39417,0,0
34.4,1.8775076,-9.530358,0.51355463,1004.4295,0,0
34.44,1.9683455,-9.520825,0.37625885,1004.40936,0,0
34.48,1.7484946,-9.663823,0.30524465,1004.41956,0,0
34.52,1.7724166,-9.644756,0.26737148,1004.3916,0,0
34.56,1.6624956999999998,-9.506528,0.47095224,1004.394,1,2
34.6,2.116603,-9.625691,0.45201698,1004.4368,1,2
34.64,2.7284405,-9.454096,0.8497091,1004.44214,1,2
34.68,2.8383977,-9.301566,0.36206737,1004.4672,1,2
34.72,3.6079664,-9.010808,0.2531779,1004.4597,1,2
34.76,4.2197976,-8.810611999999997,-0.14451061,1004.4419,1,2
34.8,4.5830874,-9.358767,-0.93041945,1004.4798,1,2
34.84,4.9750489999999985,-9.153805,-1.5837656999999998,1004.4445,1,2
34.88,3.9330795,-9.592329,-2.0666726000000004,1004.4597,1,2
34.92,2.32708,-10.088052,-2.9046607000000004,1004.4116,1,2
34.96,1.7344058,-9.754393,-4.3391833,1004.4521,1,2
35.0,1.476322,-12.304502,-0.06874807,1004.54803,1,2
35.04,-4.493630400000002,-16.15588,-8.690097999999999,1004.6591,1,2
35.08,3.7802308,-9.96889,2.4546938,1004.6162,1,2
35.12,4.1387377,-9.906925,-1.5790174,1004.67676,1,2
35.16,1.1035768999999995,-8.238631,-1.7731265,1004.6641,1,2
35.2,4.2009163,-5.1499023,-0.34333375,1004.6086,1,2
35.24,1.0128076,-5.135603400000001,-2.5874398,1004.6919,1,2
35.28,0.7069233,-3.2146811,-1.957762,1004.6237,1,2
35.32,4.865374,-6.8038993,-4.348634,1004.46466,1,2
35.36,14.974679,-10.388351,-3.0750775000000004,1004.3662,1,2
35.4,6.0699263,-13.305484,-4.239739,1004.336,1,2
35.44,-1.9075445,-12.661999,-1.8914723,1004.2072,1,2
35.48,2.2891421000000003,-10.240589,1.9528658,1004.16425,1,2
35.52,3.4028552000000003,-7.1661600000000005,1.1338155,1004.2045,1,2
35.56,1.9020237,-8.51033,4.7935133,1004.2299,1,2
35.6,3.8378646,-9.859266,1.6309323,1004.27264,1,2
35.64,-0.04331459,-10.1833935,-0.16340496,1004.35114,1,2
35.68,2.494783,-8.85829,3.6383243,1004.3888,1,2
35.72,2.9727833,-9.701972,2.2984896,1004.424,1,2
35.76,2.1650183,-9.768703,1.967083,1004.4317,1,2
35.8,2.915469,-9.006055,2.6251674,1004.3938,1,2
35.84,4.2872887,-8.982222,1.5173179,1004.4317,1,2
35.88,5.563516,-8.739128,0.60831416,1004.472,1,2
35.92,4.311229,-10.054698,-0.1728607,1004.4847,1,2
35.96,4.191753,-9.072788,0.32425356,1004.55536,1,2
36.0,5.1707435,-8.967902,-1.4038838,1004.4695,1,2
36.04,5.7060822999999985,-9.439792,-1.7258233,1004.42163,1,2
36.08,5.6439457000000015,-9.144265,-1.8773241000000005,1004.39374,1,2
36.12,1.7962043,-13.048076,-1.0203968,1004.419,1,2
36.16,-1.3058876,-17.871832,4.2395267,1004.3232,1,2
36.2,8.597866999999999,-9.682886,-1.7921046000000005,1004.6008,1,2
36.24,7.05877,-11.127153,-0.9257085,1004.6182,1,2
36.28,3.6125329,-8.462647,1.0722102,1004.5503,1,2
36.32,0.17107461,-4.9878282999999985,1.2284458,1004.5654,1,2
36.36,-0.8661421,-5.7266445,0.551426,1004.56036,1,2
36.4,-2.2522845,-5.416818599999999,1.3846812,1004.49457,1,2
36.44,-2.3000817,-6.970716,-0.7647384,1004.35583,1,2
36.48,15.389974,-13.891756,-10.886895,1004.37854,1,2
36.52,7.651471000000001,-7.728598599999999,-1.8678547,1004.414,1,2
36.56,2.3076513,-11.122386,-2.4170454,1004.4416,1,2
36.6,0.8115734,-14.101484,0.15847078,1004.31036,1,2
36.64,3.10588,-5.8267419999999985,3.1506145,1004.2272,1,2
36.68,6.566458,-8.796308,2.1043112,1004.26495,1,2
36.72,4.9891242999999985,-9.311096,0.23895587,1004.323,1,2
36.76,1.7723169,-10.145243,0.49461377,1004.34564,1,2
36.8,3.4548087,-10.211975,1.4651667,1004.4064,1,2
36.84,3.5695245000000004,-8.505548,0.94438237,1004.49713,1,2
36.88,2.6087847,-9.053702,-0.70792484,1004.43677,1,2
36.92,2.3841348,-8.50078,2.4783297,1004.38855,1,2
36.96,2.0925674,-9.287263,0.21528423,1004.39874,1,2
37.0,2.594461,-9.740086,0.6508508000000001,1004.37354,1,2
37.04,3.2684145,-9.697187,0.025909452000000003,1004.4694,1,2
37.08,3.2827551,-9.85925,-0.6274383000000001,1004.47174,1,2
37.12,5.0512834,-10.207209,0.37152126,1004.3609,1,2
37.16,6.2557955000000005,-10.15001,-1.2334418,1004.419,1,2
37.2,3.0055304,-10.674331,-4.012537,1004.5222,1,2
37.24,5.113425,-10.788728,1.8770622,1004.48456,1,2
37.28,4.171805,-14.282615,7.6246295,1004.4187,1,2
37.32,5.185124,-11.966068,1.9480785,1004.4868,1,2
37.36,6.069389299999999,-11.804006,1.5787951,1004.4843,1,2
37.4,3.3927007000000007,-9.868782,2.9707105,1004.5451,1,2
37.44,3.5982332,-8.210021000000001,3.680871,1004.58026,1,2
37.48,2.914723,-8.60088,3.5625112,1004.59546,1,2
37.52,0.98368317,-9.3873625,1.5125138,1004.5477,1,2
37.56,0.027723536,-10.207209,0.8212908999999999,1004.4566,1,2
37.6,-0.08221060000000001,-9.835419,-1.1103462,1004.40125,1,2
37.64,0.74469674,-8.481716,-1.1387525,1004.3759,1,2
37.68,3.7081764,-8.853507,-4.8647285,1004.5149,1,2
37.72,8.27767,-7.8715963,-5.077776999999998,1004.5779,1,2
37.76,6.9680047000000025,-7.323442,-0.03563575,1004.59033,1,2
37.8,5.199479,-7.6142020000000015,-1.3802066000000002,1004.4063,1,2
37.84,4.8266554,-10.20721,-1.3612688999999998,1004.35565,1,2
37.88,2.7904603,-15.946143,-1.4796288999999998,1004.23706,1,2
37.92,1.2226858,-11.508479,-2.6584954,1004.1993,1,2
37.96,1.1557698,-6.5512605000000015,5.1580067000000005,1004.2269,1,2
38.0,1.8923951,-9.60187,0.5798865,1004.2596,1,2
38.04,4.7889805,-7.8191776,2.3789625,1004.32794,1,2
38.08,2.1840105,-10.769677,3.7992861,1004.30505,1,2
38.12,-2.1894886,-8.92502,1.1432868,1004.3554,1,2
38.16,2.1075792,-10.097593,2.099639,1004.4339,1,2
38.2,3.0587816,-9.473176,-0.8167524,1004.5324,1,2
38.24,2.035925,-9.544674,1.3089972,1004.49207,1,2
38.28,2.0024908,-9.48271,1.4368283000000002,1004.44135,1,2
38.32,1.8017616,-9.506543,1.8723955,1004.38824,1,2
38.36,2.236745,-9.802071,1.375285,1004.34033,1,2
38.4,2.7195268,-9.539909,0.73614246,1004.32776,1,2
38.44,1.013161,-10.192929,0.6414565999999999,1004.3533,1,2
38.48,0.79331297,-10.0261,0.4710201,1004.3935,1,2
38.52,1.4481688999999998,-9.244385,1.4557782,1004.4388,1,2
38.56,2.050447,-9.177653,1.204857,1004.406,1,2
38.6,0.79338,-10.069,0.75982493,1004.3936,0,0
38.64,0.29152340000000004,-10.150033,0.19169846,1004.4515,0,0
38.68,0.8938001,-10.035636,0.1917004,1004.42645,0,0
38.72,1.4339406,-9.530381,0.42842275,1004.4035,0,0
38.76,1.6490547999999998,-9.735344,0.594129,1004.434,0,0
38.8,1.3097101,-9.849742,0.55625576,1004.4136,0,0
38.84,1.161559,-9.749644,0.15856779,1004.39575,0,0
38.88,1.0229676,-9.973672,-0.045009527,1004.46655,0,0
38.92,1.1185849,-9.849744,0.53732425,1004.43115,0,0
38.96,1.6921828,-9.663848,0.8924065000000001,1004.4061,0,0
39.0,1.6098475,-9.79252,0.31944484,1004.43365,0,0
39.04,1.6671823,-9.6352215,0.3667868,1004.47406,0,0
39.08,1.5237666,-9.663821,0.55616105,1004.4437,0,0
39.12,1.1270213,-9.740085,0.47093976,1004.4286,0,0
39.16,0.89756924,-9.844948,0.41412494,1004.4388,0,0
39.2,1.165218,-9.902146,0.3478414,1004.444,0,0
39.24,1.2512329,-9.825881,0.32890183,1004.4616,0,0
39.28,1.3468088,-9.806815,0.25314948,1004.4263,0,0
39.32,1.2320719999999998,-9.673349,0.32889798,1004.43616,0,0
39.36,1.1507937,-9.787747,0.25314555,1004.47424,0,0
39.4,1.2511466999999998,-9.844945,0.24840903,1004.44147,0,0
39.44,1.1459721,-9.897378,0.29575136,1004.43616,0,0
39.48,1.1555088,-9.811578,0.39043736,1004.46643,0,0
39.52,1.3084424,-9.816345,0.48985797,1004.4286,0,0
39.56,1.3132005,-9.7877445,0.42357436,1004.4438,0,0
39.6,1.3800975,-9.740079,0.49932298,1004.42865,0,0
39.64,1.4852316,-9.635214,0.5940091,1004.4286,0,0
39.68,1.4756505,-9.711478,0.52299106,1004.44867,0,0
39.72,1.5138675,-9.730544,0.51352024,1004.4591,0,0
39.76,1.3417728,-9.87354,0.5845344,1004.4412,0,0
39.8,1.3513110000000002,-9.682878,0.627142,1004.44617,0,0
39.84,1.3130509,-9.740075,0.66974974,1004.4463,0,0
39.88,1.3034698,-9.787741,0.58926284,1004.4362,0,0
39.92,1.2938899,-9.721008,0.61766744,1004.4438,0,0
39.96,1.351226,-9.782973,0.62713426,1004.44867,0,0
40.0,1.3045777,-9.754401,0.5751611,1004.4463,0,0
40.04,1.2568035,-9.821135,0.56096005,1004.43616,0,0
40.08,1.3237461,-9.797302,0.57516557,1004.43854,0,0
40.12,1.2664138,-9.797302,0.5467615,1004.4538,0,0
40.16,1.4528517,-9.7591715,0.44734126,1004.4588,0,0
40.2,1.4337561,-9.768704,0.5136251000000001,1004.47394,0,0
40.24,1.4290001,-9.721039,0.43314242,1004.4765,0,0
40.28,1.5963186000000005,-9.673374,0.3810663,1004.436,0,0
40.32,1.4864085,-9.8116045,0.34319338,1004.46906,0,0
40.36,1.4099555,-9.706741,0.35739878,1004.46387,0,0
40.4,1.4291017,-9.744876,0.3242604,1004.436,0,0
40.44,1.3430904,-9.783008,0.43788844,1004.441,0,0
40.48,1.314437,-9.668612,0.40001553,1004.46387,0,0
40.52,1.3049012,-9.840208,0.35740805,1004.45105,0,0
40.56,1.3383836999999998,-9.773477,0.34320703,1004.45886,0,0
40.6,1.4340067,-9.682913,0.36214712,1004.44855,0,0
40.64,1.4866098,-9.744879,0.42843112,1004.44855,0,0
40.68,1.5535526000000002,-9.735346,0.4947151,1004.44855,0,0
40.72,1.6013743,-9.668615,0.48051408,1004.4309,0,0
40.76,1.653976,-9.568518,0.32428090000000004,1004.4536,0,0
40.8,1.859533,-9.554218,0.27220473,1004.44867,0,0
40.84,1.9694954,-9.792548,0.063893385,1004.45105,0,0
40.88,1.8404644,-9.797314,0.1017708,1004.4309,0,0
40.92,1.381627,-9.768716,0.20119548,1004.44366,0,0
40.96,1.0996441,-9.744884,0.366902,1004.44855,0,0
41.0,0.8844518,-9.873578,0.47104964,1004.44604,0,0
41.04,0.8079951999999999,-9.945077,0.3668946,1004.4335,0,0
41.08,0.9753086,-9.892645,0.34795883,1004.45874,0,0
41.12,1.2095393,-9.811614,0.38583592,1004.45874,0,0
41.16,1.4342091,-9.763948,0.33375922,1004.4259,0,0
41.2,1.6110833999999998,-9.706751,0.2769483,1004.46625,0,0
41.24,1.6541206000000002,-9.6924515,0.14438672,1004.4385,0,0
41.28,1.5776628,-9.706752,0.21067013,1004.4561,0,0
41.32,1.6446016,-9.711519,0.28168818,1004.43585,0,0
41.36,1.5442448,-9.68292,0.33376837,1004.4714,0,0
41.4,1.5060266000000002,-9.673387,0.35270786,1004.4359,0,0
41.44,1.525166,-9.701988,0.24381842,1004.44867,0,0
41.48,1.5299649,-9.783019,0.30536744,1004.45105,0,0
41.52,1.5443233,-9.687689,0.2674939,1004.4687,0,0
41.56,1.4630883999999995,-9.711522,0.37165278,1004.4536,0,0
41.6,1.4535476,-9.754421,0.37165454,1004.4485,0,0
41.64,1.305394,-9.787787,0.366922,1004.43585,0,0
41.68,1.3101941,-9.783022,0.35272062,1004.44867,0,0
41.72,1.2671963,-9.797321,0.37639448,1004.4789,0,0
41.76,1.305455,-9.797322,0.37639636,1004.4636,0,0
41.8,1.2911358,-9.7687235,0.3669294,1004.46375,0,0
41.84,1.3150539,-9.773491,0.37166557,1004.4686,0,0
41.88,1.2816155,-9.768724,0.34326100000000004,1004.4409,0,0
41.92,1.2816344,-9.740126,0.34326276,1004.46625,0,0
41.96,1.2720965,-9.725826,0.3479991,1004.41815,0,0
42.0,1.2666081,-9.840206,0.30532459999999995,1004.3904,0,0
42.04,1.3908741000000002,-9.687677,0.32426143,1004.4435,0,0
42.08,1.4147649,-9.759175,0.39527673,1004.43823,0,0
42.12,1.4434341999999998,-9.783008,0.38107264,1004.45856,0,0
42.16,1.4625446000000002,-9.744875,0.31005576,1004.4332,0,0
42.2,1.4768763,-9.697208,0.31952387,1004.46625,0,0
42.24,1.5485638000000002,-9.697208,0.319523,1004.43823,0,0
42.28,1.4672989,-9.735341,0.3905383,1004.4433,0,0
42.32,1.3860327,-9.725807,0.338459,1004.451,0,0
42.36,1.4864004,-9.754406,0.36213028,1004.43835,0,0
42.4,1.5819875,-9.678142,0.3242542,1004.46106,0,0
42.44,1.4242451,-9.754406,0.4236759,1004.4484,0,0
42.48,1.2521639,-9.844971,0.42367515,1004.456,0,0
42.52,1.2425956,-9.6972065,0.47101834,1004.46857,0,0
42.56,1.342963,-9.792539,0.41420475,1004.45856,0,0
42.6,1.4767879,-9.759172,0.22482768,1004.45593,0,0
42.64,1.5914955,-9.773472,0.28637424,1004.43317,0,0
42.68,1.5293487,-9.763937,0.26743576,1004.4433,0,0
42.72,1.500661,-9.740105,0.29584140000000003,1004.4788,0,0
42.76,1.3954964,-9.744872,0.27690294,1004.44073,0,0
42.8,1.471965,-9.725805,0.33844945,1004.4534,0,0
42.84,1.5340936,-9.668606,0.3147766,1004.4558,0,0
42.88,1.5579836,-9.754403,0.28636935,1004.4534,0,0
42.92,1.5579747,-9.768703,0.2626965,1004.43835,0,0
42.96,1.5149476999999998,-9.759171,0.23902369,1004.44073,0,0
43.0,1.4827155,-9.754433,0.28648,1004.4433,0,0
43.04,1.5353315,-9.7735,0.25807706,1004.4635,0,0
43.08,1.5736104,-9.697236,0.30542484,1004.4585,0,0
43.12,1.5593116000000002,-9.7544365,0.27228773,1004.451,0,0
43.16,1.5928133999999998,-9.697239,0.27702606,1004.476,0,0
43.2,1.6119707,-9.687707,0.27702954,1004.44073,0,0
43.24,1.4781767,-9.783039,0.22968920000000004,1004.4736,0,0
43.28,1.5021139,-9.687709,0.2580991,1004.4483,0,0
43.32,1.5069342,-9.68771,0.32911890000000005,1004.43066,0,0
43.36,1.5260965,-9.768742,0.22970033,1004.41785,0,0
43.4,1.4592147,-9.730611,0.28651646,1004.42316,0,0
43.44,1.4735973999999998,-9.7687435,0.22497313,1004.4382,0,0
43.48,1.4927572,-9.744912,0.22971125,1004.4483,0,0
43.52,1.4880154,-9.6972475,0.2817932,1004.4483,0,0
43.56,1.4832762,-9.749680499999998,0.28179693,1004.443,0,0
43.6,1.5072159,-9.744915,0.22972217,1004.4635,0,0
43.64,1.4690155,-9.716317,0.32914817,1004.48364,0,0
43.68,1.4069185,-9.75445,0.2581358,1004.4281,0,0
43.72,1.4069566,-9.711552,0.31495216,1004.438,0,0
43.76,1.2253648,-9.740152,0.40490955,1004.4634,0,0
43.8,1.330561,-9.725854,0.36703807,1004.44324,0,0
43.84,1.4214203,-9.849785,0.39544842,1004.42566,0,0
43.88,1.3784403,-9.835486,0.291295,1004.4481,0,0
43.92,1.3163409,-9.816421,0.35758016,1004.4256,0,0
43.96,1.498014,-9.778289,0.26763020000000004,1004.443,0,0
44.0,1.4693757,-9.79259,0.30550915,1004.45593,0,0
44.04,1.440735,-9.749692,0.31024703,1004.4735,0,0
44.08,1.5268146,-9.706794,0.31025097,1004.4409,0,0
44.12,1.5125132,-9.78306,0.25817597,1004.443,0,0
44.16,1.4677368,-9.76395,0.2722183,1004.41785,0,0
44.2,1.3577812,-9.783016,0.33849812,1004.4354,0,0
44.24,1.4103388,-9.744884,0.35269946,1004.43317,0,0
44.28,1.4150969999999998,-9.730583,0.2722126,1004.4483,0,0
44.32,1.3959548000000002,-9.792549,0.3668986,1004.44037,0,0
44.36,1.3863763999999998,-9.768715,0.33375603,1004.4609,0,0
44.4,1.4006929,-9.721048,0.36689478,1004.44324,0,0
44.44,1.4102336000000002,-9.759181,0.4284403000000001,1004.45807,0,0
44.48,1.4627872,-9.806846,0.36689085,1004.42535,0,0
44.52,1.4579871000000002,-9.802078,0.42843625,1004.4382,0,0
44.56,1.4006094999999998,-9.759179,0.3952936,1004.43286,0,0
44.6,1.1711572,-9.844976,0.3952916,1004.44293,0,0
44.64,1.1472353000000002,-9.806844,0.4284303,1004.43036,0,0
44.68,1.247591,-9.792544,0.47577253,1004.453,0,0
44.72,1.2619101,-9.778242,0.4852395000000001,1004.44037,0,0
44.76,1.4387401000000002,-9.706744,0.3858149,1004.4353,0,0
44.8,1.5390943,-9.744877,0.37160972,1004.4606,0,0
44.84,1.5629731000000002,-9.7305765,0.31006062,1004.45844,0,0
44.88,1.5677313999999998,-9.706742,0.25798014,1004.43787,0,0
44.92,1.6824251,-9.692443,0.31005666,1004.4278,0,0
44.96,1.6107079,-9.740108,0.20116347,1004.4557,0,0
45.0,1.5915658,-9.759173,0.23903662,1004.4483,0,0
45.04,1.5628669,-9.72104,0.2721756,1004.4455,0,0
45.08,1.5628452,-9.787771,0.13014148,1004.4455,0,0
45.12,1.5293677,-9.711507,0.23903108,1004.42523,0,0
45.16,1.5102255,-9.725805,0.24849777,1004.43787,0,0
45.2,1.5247372,-9.754409,0.2201071,1004.4533,0,0
45.24,1.5725222,-9.763941,0.23430912,1004.46826,0,0
45.28,1.5533899,-9.716276,0.24377674,1004.4532,0,0
45.32,1.548596,-9.7925415,0.19169702,1004.46826,0,0
45.36,1.6298388,-9.706741,0.276915,1004.4884,0,0
45.4,1.6154889,-9.735341,0.26271084,1004.44794,0,0
45.44,1.6106925,-9.74964,0.31005338,1004.4404,0,0
45.48,1.5628806,-9.768706,0.28638008,1004.45557,0,0
45.52,1.5819857,-9.740107,0.1822219,1004.43787,0,0
45.56,1.5437335,-9.79254,0.19168942,1004.4457,0,0
45.6,1.4815822,-9.787771,0.27690744,1004.42523,0,0
45.64,1.4003114,-9.84497,0.22956212,1004.4479,0,0
45.68,1.2760234,-9.868801,0.24376413,1004.453,0,0
45.72,1.1182795,-9.854502,0.22955993,1004.4354,0,0
45.76,1.2090793,-9.783004,0.22482403,1004.4327,0,0
45.8,1.4528342,-9.740104,0.19641624,1004.47327,0,0
45.84,1.6774721,-9.673371,0.09225814,1004.45044,0,0
45.88,1.7969540000000002,-9.644773,0.07331932,1004.443,0,0
45.92,1.7348026,-9.682904,0.030708417,1004.47076,0,0
45.96,1.7395678,-9.692437,0.14906718,1004.4479,0,0
46.0,1.5866,-9.701971,0.092253044,1004.44794,0,0
46.04,1.5531282,-9.7162695,0.17273672,1004.45557,0,0
46.08,1.5435556,-9.821134,0.13012588,1004.448,0,0
46.12,1.5674398,-9.721034,0.23901583,1004.4657,0,0
46.16,1.482735,-9.811632,0.2296689,1004.44293,0,0
46.2,1.4588739,-9.8021,0.20600039,1004.47076,0,0
46.24,1.4445752,-9.716304,0.26281697,1004.453,0,0
46.28,1.4063773000000002,-9.840235,0.196539,1004.4379,0,0
46.32,1.5928277,-9.7449045,0.26282415,1004.4681,0,0
46.36,1.4972721000000002,-9.735373,0.22021821,1004.4607,0,0
46.4,1.4781936000000002,-9.759207,0.22969076,1004.4607,0,0
46.44,1.3252803999999998,-9.792573,0.24863209,1004.4331,0,0
46.48,1.2583936000000002,-9.806874,0.2912445,1004.4457,0,0
46.52,1.363595,-9.768742,0.24863903,1004.4634,0,0
46.56,1.2823815,-9.787809,0.29598704,1004.4504,0,0
46.6,1.3636761,-9.744911,0.2865217,1004.4455,0,0
46.64,1.2872424999999998,-9.816411,0.31019774,1004.4428,0,0
46.68,1.421115,-9.744913,0.28652915,1004.4301,0,0
46.72,1.4546066999999998,-9.76398,0.24392252,1004.4352,0,0
46.76,1.5406888,-9.792581,0.28653634,1004.43036,0,0
46.8,1.4929313999999998,-9.659118,0.27233684,1004.443,0,0
46.84,1.454736,-9.687719,0.25813755,1004.4329,0,0
46.88,1.440422,-9.763984,0.3386248,1004.4482,0,0
46.92,1.1871457,-9.768752,0.44752097,1004.4253,0,0
46.96,1.2923292,-9.73062,0.4143827000000001,1004.4301,0,0
47.0,1.153763,-9.835486,0.36704308,1004.4454,0,0
47.04,1.3019674,-9.730622,0.310233,1004.4454,0,0
47.08,1.3737077,-9.721089,0.28656492,1004.45795,0,0
47.12,1.3068258999999998,-9.744924,0.31970897,1004.4482,0,0
47.16,1.3341508999999998,-9.787789,0.30064747,1004.4457,0,0
47.2,1.4249518,-9.725824,0.36692774,1004.4306,0,0
47.24,1.3006656,-9.821156,0.3716611,1004.41504,0,0
47.28,1.2671894,-9.816388,0.27697137,1004.4405,0,0
47.32,1.2432749,-9.749656,0.25329795,1004.4605,0,0
47.36,1.2384756,-9.816387,0.3905939000000001,1004.4529,0,0
47.4,1.262357,-9.787787,0.33851385,1004.4354,0,0
47.44,1.080708,-9.849752,0.35744998,1004.443,0,0
47.48,1.028119,-9.883118,0.41899616,1004.4352,0,0
47.52,1.0759004,-9.906951,0.35744742,1004.42804,0,0
47.56,1.0758798,-9.825918,0.37164873,1004.4454,0,0
47.6,1.2479372,-9.825918,0.35270968,1004.4479,0,0
47.64,1.2766007,-9.763951,0.3432395,1004.4379,0,0
47.68,1.4868987,-9.763951,0.28169098,1004.4706,0,0
47.72,1.5490196000000005,-9.649554,0.38111198,1004.4379,0,0
47.76,1.6780578999999998,-9.673386,0.3006256,1004.443,0,0
47.8,1.7545191999999998,-9.649553,0.25328013,1004.4631,0,0
47.84,1.9600343,-9.606653,0.17752811,1004.4454,0,0
47.88,1.735366,-9.706751,0.30062106,1004.4479,0,0
47.92,1.7783697,-9.678152,0.2816821,1004.4251,0,0
47.96,1.735334,-9.678151,0.2722117,1004.41,0,0
48.0,1.7544366999999998,-9.663851,0.32902303,1004.42004,0,0
48.04,1.6827241000000002,-9.711516,0.32428720000000005,1004.4277,0,0
48.08,1.6349096,-9.8163805,0.3053481,1004.4402,0,0
48.12,1.5345173,-9.668616,0.32901862,1004.4378,0,0
48.16,1.5727391000000002,-9.77348,0.35268915,1004.4251,0,0
48.2,1.5443995,-9.687691,0.36218897,1004.4454,0,0
48.24,1.5204978999999998,-9.740123,0.36692318,1004.4428,0,0
48.28,1.4774773,-9.792556,0.39059496,1004.4226,0,0
48.32,1.396218,-9.787787,0.39532912,1004.44525,0,0
48.36,1.3292981,-9.778254,0.35271925,1004.46295,0,0
48.4,1.3149563999999998,-9.8402195,0.34325022,1004.468,0,0
48.44,1.2814952,-9.749655,0.3385156,1004.4454,0,0
48.48,1.3579698,-9.787787,0.37639058,1004.4455,0,0
48.52,1.3436277,-9.82592,0.32431188,1004.4327,0,0
48.56,1.3436253,-9.778254,0.30063966,1004.4127,0,0
48.6,1.3962004,-9.68769,0.31484264,1004.4504,0,0
48.64,1.506133,-9.735355,0.27223270000000005,1004.45557,0,0
48.68,1.5634887,-9.721055,0.2390917,1004.4405,0,0
48.72,1.5300275,-9.773488,0.187013,1004.45544,0,0
48.76,1.4870067,-9.79732,0.2154192,1004.4301,0,0
48.8,1.4870043,-9.768722,0.28170067,1004.4402,0,0
48.84,1.5013413,-9.79732,0.276966,1004.45294,0,0
48.88,1.4057426000000002,-9.787787,0.23909055,1004.4402,0,0
48.92,1.4822171,-9.711523,0.24855913,1004.45795,0,0
48.96,1.443976,-9.778254,0.31957498,1004.45325,0,0
49.0,1.4487532,-9.75442,0.27223070000000005,1004.4455,0,0
49.04,1.4535308,-9.744887,0.31010570000000004,1004.45544,0,0
49.08,1.386611,-9.763953,0.29116786,1004.4529,0,0
49.12,1.4630853,-9.759188,0.28643322,1004.4605,0,0
49.16,1.4152846,-9.759188,0.32904264,1004.4731,0,0
49.2,1.429912,-9.806861,0.28172493,1004.4451,0,0
49.24,1.4729391,-9.77826,0.26278812,1004.4655,0,0
49.28,1.4586085,-9.773495,0.26752335,1004.4529,0,0
49.32,1.4729563,-9.697229,0.3432746,1004.45306,0,0
49.36,1.4825248,-9.744895,0.28646255,1004.46295,0,0
49.4,1.4729741000000005,-9.744896,0.28646335,1004.45044,0,0
49.44,1.5733588,-9.763962,0.28646415,1004.4378,0,0
49.48,1.5255691999999998,-9.778261,0.31487134,1004.4506,0,0
49.52,1.4730002,-9.749662,0.27226254,1004.443,0,0
49.56,1.5064676,-9.773497,0.29120097,1004.4378,0,0
49.6,1.5160360000000002,-9.763963,0.35748345,1004.4428,0,0
49.64,1.4539075,-9.711532,0.35748428,1004.4428,0,0
49.68,1.525613,-9.725831,0.28173453,1004.42,0,0
49.72,1.5495209,-9.759198,0.30067298,1004.4326,0,0
49.76,1.5543083999999998,-9.702,0.33854893,1004.4126,0,0
49.8,1.5543184,-9.759198,0.24386173,1004.448,0,0
49.84,1.5686656,-9.673399,0.27700326,1004.4251,0,0
49.88,1.4587395,-9.52087,0.33381703,1004.4352,0,0
49.92,1.4300691,-9.535171,0.27227053,1004.4479,0,0
49.96,1.4491965,-9.516105,0.22492719,1004.4401,0,0
50.0,1.4444263000000002,-9.501804,0.28647533,1004.4376,0,0
50.04,1.4396553,-9.39694,0.26280412,1004.4376,0,0
50.08,1.4874622,-9.382642,0.17285125,1004.4376,0,0
50.12,1.4731312,-9.392175,0.23913369,1004.46027,0,0
50.16,1.5687361000000002,-9.377874,0.28174412,1004.4527,0,0
50.2,1.5642234,-9.458913,0.1776117,1004.4605,0,0
50.24,1.5642425,-9.416015,0.25809829999999995,1004.425,0,0
50.28,1.497343,-9.249186,0.2154903,1004.4451,0,0
50.32,1.5021406000000002,-9.273018,0.29597682,1004.44775,1,3
50.36,1.4591426,-9.182454,0.31965068,1004.4502,1,3
50.4,1.5165193,-9.358817,0.26757398,1004.45795,1,3
50.44,1.5499957,-9.28732,0.20602834,1004.42,1,3
50.48,1.5069977,-9.239654,0.24390544,1004.4326,1,3
50.52,1.5213549,-9.187223,0.23917265,1004.45026,1,3
50.56,1.5070344999999998,-9.19199,0.258112,1004.4175,1,3
50.6,1.4735926,-9.258722,0.26758236,1004.44775,1,3
50.64,1.5500896999999998,-9.149092,0.22024015,1004.45264,1,3
50.68,1.5501087,-9.220592,0.18710105,1004.4554,1,3
50.72,1.5596874,-9.068061,0.1823684,1004.46027,1,3
50.76,1.5310264,-9.187226,0.18237005,1004.4198,1,3
50.8,1.5023679,-9.149094,0.26285675,1004.43744,1,3
50.84,1.5071654,-9.134794,0.17763911,1004.44525,1,3
50.88,1.4211481,-9.101429,0.2297193,1004.42487,1,3
50.92,1.5167631,-9.106196,0.22972102,1004.4755,1,3
50.96,1.5454597,-9.182461,0.25339472,1004.468,1,3
51.0,1.5454788000000002,-9.134796,0.25339645,1004.46796,1,3
51.04,1.440341,-9.101431,0.2723357,1004.4198,1,3
51.08,1.4977163999999998,-9.082365,0.22025888,1004.44775,1,3
51.12,1.4833972,-9.039467,0.20605752,1004.4653,1,3
51.16,1.5455537,-9.082367,0.20605926,1004.46545,1,3
51.2,1.525069,-9.149064,0.22487189,1004.4476,1,3
51.24,1.5154694,-9.063265,0.21539944,1004.4504,1,3
51.28,1.4532988000000002,-9.106163,0.28167805,1004.4627,1,3
51.32,1.4676026000000002,-9.129995,0.24853396,1004.4806,1,3
51.36,1.4388883999999995,-9.115695,0.25326514,1004.4781,1,3
51.4,1.4388552,-9.225325,0.25326207,1004.46545,1,3
51.44,1.4866153999999998,-9.272989,0.27219626,1004.4806,1,3
51.48,1.4865799,-9.253922,0.24378657,1004.46533,1,3
51.52,1.4387486,-9.234856,0.30533078,1004.49554,1,3
51.56,1.4817336,-9.234855,0.2721869,1004.49835,1,3
51.6,1.4769181999999998,-9.420749,0.2579804,1004.5058,1,3
51.64,1.5151212,-9.373082,0.2863836,1004.49554,1,3
51.68,1.433829,-9.454113,0.34319326,1004.5235,1,3
51.72,1.4098966999999998,-9.406446,0.3384558,1004.5107,1,3
51.76,1.4146432,-9.387381,0.3005775,1004.5412,1,3
51.8,1.4385046,-9.444578,0.31477726,1004.5309,1,3
51.84,1.4528106,-9.444577,0.2958366,1004.5334,1,3
51.88,1.4623325,-9.463642,0.32897398,1004.5308,1,3
51.92,1.4909781000000002,-9.473175,0.26742366,1004.5032,1,3
51.96,1.4240253,-9.411209,0.2768892,1004.5385,1,3
52.0,1.4192122,-9.430274,0.31002703,1004.5513,1,3
52.04,1.4669726,-9.535137,0.29582036,1004.56366,1,3
52.08,1.4382583,-9.563736,0.29581708,1004.531,1,3
52.12,1.4621217,-9.620934,0.34789228,1004.5614,1,3
52.16,1.4668661,-9.6114,0.2863418,1004.56366,1,3
52.2,1.4437739,-9.58282,0.30535325,1004.5713,1,3
52.24,1.4628903999999998,-9.692451,0.3669003,1004.5765,1,3
52.28,1.505906,-9.701984,0.30535278,1004.58636,1,3
52.32,1.4772248,-9.783015,0.33849338,1004.58636,1,3
52.36,1.4772223,-9.773482,0.29588354,1004.5788,1,3
52.4,1.5011188999999998,-9.830681,0.34796172,1004.5916,1,3
52.44,1.4963367,-9.768716,0.33849272,1004.5967,1,3
52.48,1.5154533,-9.802081,0.3479613,1004.6017,1,3
52.52,1.5058913,-9.802081,0.33375785,1004.6092,1,3
52.56,1.429412,-9.783015,0.33375764,1004.6192,1,3
52.6,1.5441246000000002,-9.70675,0.39530465,1004.62195,1,3
52.64,1.5536816999999998,-9.706749,0.31481950000000003,1004.62195,1,3
52.68,1.5011015,-9.701984,0.33849135,1004.64215,1,3
52.72,1.5393374,-9.69245,0.29588148,1004.6292,1,3
52.76,1.510656,-9.64955,0.3432253,1004.6572,1,3
52.8,1.5297725,-9.630485,0.31955302,1004.6522,1,3
52.84,1.4915318000000002,-9.725816,0.29114637,1004.68256,1,3
52.88,1.5154283000000002,-9.725816,0.30534938,1004.642,1,3
52.92,1.5106459,-9.759182,0.2722083,1004.6596,1,3
52.96,1.5058637,-9.80208,0.3100833,1004.67737,1,3
53.0,1.558439,-9.80208,0.31008309999999994,1004.652,1,3
53.04,1.5823356000000002,-9.80208,0.26747322,1004.67725,1,3
53.08,1.5154159,-9.7639475,0.33375466,1004.6697,1,3
53.12,1.4962941,-9.792548,0.37636405,1004.6823,1,3
53.16,1.5249704,-9.778247,0.32901978,1004.67725,1,3
53.2,1.5115023,-9.725837,0.3243651,1004.66187,1,3
53.24,1.5784513,-9.72107,0.2912272,1004.6823,1,3
53.28,1.5163455,-9.692472,0.35277736,1004.6949,1,3
53.32,1.5163733999999998,-9.792572,0.36224872,1004.69244,1,3
53.36,1.5355263,-9.640041,0.2628293,1004.7026,1,3
53.4,1.5116569,-9.687708,0.31491047,1004.71014,1,3
53.44,1.4830099,-9.711541,0.3291166,1004.69995,1,3
53.48,1.5308415000000002,-9.668644,0.2723068,1004.71515,1,3
53.52,1.5260893999999998,-9.725843,0.35279426,1004.70245,1,3
53.56,1.5404606,-9.8402405,0.28651544,1004.7353,1,3
53.6,1.497476,-9.849774,0.29125297,1004.7202,1,3
53.64,1.5309643999999998,-9.806877,0.30072448,1004.7479,1,3
53.68,1.5740162,-9.906975,0.26758674,1004.7252,1,3
53.72,1.5644865,-9.840244,0.26285505,1004.74286,1,3
53.76,1.593197,-9.873611,0.30073320000000003,1004.75543,1,3
53.8,1.5597701000000002,-9.945109,0.26286083,1004.74786,1,3
53.84,1.5502403,-9.854546,0.24392596,1004.7553,1,3
53.88,1.5359327,-9.86408,0.25813207,1004.7553,1,3
53.92,1.540742,-9.868847,0.30074444,1004.7729,1,3
53.96,1.4977576,-9.9069805,0.27234109999999995,1004.7782,1,3
54.0,1.579044,-9.921281,0.26760942,1004.7655,1,3
54.04,1.593415,-9.973713,0.29601878,1004.78564,1,3
54.08,1.6173438,-9.949882,0.22973979,1004.78564,1,3
54.12,1.5743573,-9.973715,0.2202739,1004.78827,1,3
54.16,1.6221869,-10.045215,0.2297456,1004.76025,1,3
54.2,1.6219916,-10.088109,0.19658688,1004.8059,1,3
54.24,1.6363538999999998,-10.159607,0.18238577,1004.77795,1,3
54.28,1.688953,-10.183441,0.19185652,1004.77545,1,3
54.32,1.5933783,-10.1453085,0.24867135,1004.81866,1,3
54.36,1.6746578,-10.173909,0.2107982,1004.8034,1,3
54.4,1.5934254,-10.245408,0.21080041,1004.80316,1,3
54.44,1.6603656000000002,-10.288308,0.19186488,1004.811,1,3
54.48,1.6603869999999998,-10.245409,0.24394529,1004.8107,1,3
54.52,1.6604098000000005,-10.283542,0.23921296,1004.8488,1,3
54.56,1.6747718999999996,-10.226344,0.22027743,1004.8513,1,3
54.6,1.6317753000000002,-10.264476,0.3149675,1004.8183,1,3
54.64,1.6509172,-10.278777,0.25815675,1004.82104,1,3
54.68,1.6079218000000002,-10.297843,0.19661155,1004.85114,1,3
54.72,1.6892014,-10.188213,0.2297545,1004.8488,0,0
54.76,1.6127472,-10.274012,0.22502214,1004.85394,0,0
54.8,1.651007,-10.307378,0.22028972,1004.8539,0,0
54.84,1.6892683999999998,-10.302613,0.24869823,1004.8486,0,0
54.88,1.6558325,-10.283546,0.16348104,1004.8687,0,0
54.92,1.6319548,-10.278781,0.2771087,1004.86646,0,0
54.96,1.6319777,-10.259715,0.25343877,1004.8715,0,0
55.0,1.6128798999999998,-10.331214,0.27711275,1004.8639,0,0
55.04,1.6463627,-10.331215,0.26291177,1004.8538,0,0
55.08,1.6368245,-10.2644825,0.27711695,1004.8713,0,0
55.12,1.5651503999999998,-10.302617,0.31499428,1004.8841,0,0
55.16,1.5651716999999998,-10.28355,0.35287148,1004.8716,0,0
55.2,1.5928702,-10.264461,0.366985,1004.8715,0,0
55.24,1.5450568,-10.235861,0.27229548,1004.8791,0,0
55.28,1.5593798,-10.293058,0.3385756,1004.87885,0,0
55.32,1.5354652,-10.188194,0.32910538,1004.89667,0,0
55.36,1.5975852,-10.288293,0.3527758,1004.88916,0,0
55.4,1.5258727,-10.216792,0.34803998,1004.8688,0,0
55.44,1.5497551,-10.245392,0.3811793,1004.8687,0,0
55.48,1.5640782,-10.212026,0.35750577,1004.85364,0,0
55.52,1.5449433,-10.226325,0.33383235,1004.8816,0,0
55.56,1.5544866000000002,-10.154825,0.36223727,1004.8866,0,0
55.6,1.5879277,-10.212025,0.39537647,1004.90686,0,0
55.64,1.5162141000000002,-10.159591,0.3243589000000001,1004.9066,0,0
55.68,1.5257583,-10.116693,0.3385607,1004.87885,0,0
55.72,1.5735397,-10.054727,0.29594955,1004.884,0,0
55.76,1.5448455,-10.088092,0.329089,1004.89667,0,0
55.8,1.4922502,-10.011827,0.3669626,1004.90936,0,0
55.84,1.4970145,-10.0213585,0.35275796,1004.9142,0,0
55.88,1.5065576,-9.97846,0.33381885,1004.88904,0,0
55.92,1.5113218000000002,-9.99276,0.33855185,1004.90436,0,0
55.96,1.5495438999999998,-9.987993,0.3338159,1004.8991,0,0
56.0,1.5256273,-9.8974285,0.25806382,1004.8993,0,0
56.04,1.520832,-9.897428,0.33854732,1004.8991,0,0
56.08,1.4730175,-9.873594,0.3385458,1004.8865,0,0
56.12,1.4730021,-9.873593,0.30540356,1004.92676,0,0
56.16,1.4968845,-9.787795,0.32907405,1004.87885,0,0
56.2,1.5208653,-9.854528,0.32434709999999994,1004.874,0,0
56.24,1.530413,-9.811629,0.25333,1004.8637,0,0
56.28,1.5877572,-9.773497,0.35275126,1004.8813,0,0
56.32,1.5208271999999998,-9.78303,0.25806198,1004.88904,0,0
56.36,1.5542733999999998,-9.835462,0.2343888,1004.88153,0,0
56.4,1.5542606,-9.706764,0.26279405,1004.87885,0,0
56.44,1.5064507,-9.7925625,0.25332415,1004.9066,0,0
56.48,1.5255564,-9.844994,0.25805736,1004.89905,0,0
56.52,1.5446637,-9.730597,0.30066592,1004.89154,0,0
56.56,1.5924498,-9.763961,0.22491431,1004.8816,0,0
56.6,1.5111803999999998,-9.716296,0.18703791,1004.9117,0,0
56.64,1.554186,-9.773495,0.24858403,1004.88635,0,0
56.68,1.5302743,-9.697228,0.23437963,1004.8738,0,0
56.72,1.4968046,-9.768726,0.2012378,1004.9018,0,0
56.76,1.50635,-9.778259,0.19176766,1004.87885,0,0
56.8,1.6067132,-9.73536,0.19650091,1004.9066,0,0
56.84,1.6258205,-9.768726,0.19176543,1004.89905,0,0
56.88,1.5732298999999998,-9.768726,0.11601381,1004.93445,0,0
56.92,1.5971164,-9.749659,0.16809107,1004.89154,0,0
56.96,1.5397475,-9.768725,0.1964965,1004.9092,0,0
57.0,1.5445131,-9.725826,0.18229197,1004.88403,0,0
57.04,1.5492808999999998,-9.7067585,0.19649409,1004.8738,0,0
57.08,1.5779478999999998,-9.725825,0.17282097,1004.8964,0,0
57.12,1.6209527,-9.721058,0.14914775,1004.8763,0,0
57.16,1.5974163,-9.768732,0.16338415,1004.889,0,0
57.2,1.592639,-9.716301,0.13024352,1004.8862,0,0
57.24,1.5830818000000002,-9.721066,0.1633846,1004.8813,0,0
57.28,1.6213226,-9.754433,0.15391602,1004.8941,0,0
57.32,1.573527,-9.711534,0.16338503,1004.87885,0,0
57.36,1.6022085,-9.706767,0.21072932,1004.9117,0,0
57.4,1.6643484,-9.778265,0.08290063,1004.90405,0,0
57.44,1.6739106,-9.7735,0.1207761,1004.9144,0,0
57.48,1.6261152,-9.740134,0.11130753,1004.88635,0,0
57.52,1.5878792,-9.716302,0.1444486,1004.8862,0,0
57.56,1.6213403,-9.716302,0.20126165,1004.92426,0,0
57.6,1.5735447,-9.730601,0.21546511,1004.8891,0,0
57.64,1.5831065,-9.6495695,0.21546532,1004.8991,0,0
57.68,1.5974488000000002,-9.721067,0.19652794,1004.9016,0,0
57.72,1.6548089,-9.754434,0.15391852,1004.9018,0,0
57.76,1.6117933,-9.744901,0.30068532,1004.9091,0,0
57.8,1.5400985,-9.792567,0.29121673,1004.90686,0,0
57.84,1.5018629,-9.778266,0.29595140000000003,1004.9067,0,0
57.88,1.5066451,-9.759201,0.31488922,1004.9268,0,0
57.92,1.5018678,-9.735368,0.35276467,1004.93207,0,0
57.96,1.4445122,-9.749667,0.34329608,1004.9117,0,0
58.0,1.4923131,-9.783033,0.3717028,1004.92175,0,0
58.04,1.4923155,-9.759202,0.31015575,1004.9018,0,0
58.08,1.5066569,-9.816401,0.34803113,1004.8838,0,0
58.12,1.4540823,-9.687703,0.40957868,1004.9318,0,0
58.16,1.4493042,-9.7639675,0.40484446,1004.8964,0,0
58.2,1.3965994,-9.811629,0.34802,1004.8941,0,0
58.24,1.3679181,-9.792564,0.41903582,1004.8891,0,0
58.28,1.434833,-9.735365,0.38116035,1004.8992,0,0
58.32,1.4061514,-9.749664,0.41430095,1004.91187,0,0
58.36,1.3726903999999998,-9.740131,0.38115987,1004.91174,0,0
58.4,1.4157068000000002,-9.811629,0.37642533,1004.9016,0,0
58.44,1.3679056,-9.792564,0.36695623,1004.92944,0,0
58.48,1.4109216,-9.706765,0.4711129,1004.91925,0,0
58.52,1.3344423,-9.711533,0.4947847,1004.9167,0,0
58.56,1.3583386,-9.79733,0.42376843,1004.9141,0,0
58.6,1.3726754,-9.735365,0.40483057,1004.9117,0,0
58.64,1.348774,-9.802096,0.46637762,1004.8992,0,0
58.68,1.3631115,-9.7830305,0.39062694,1004.9017,0,0
58.72,1.372668,-9.768729,0.52792436,1004.92957,0,0
58.76,1.3487663,-9.716298,0.4663769,1004.8992,0,0
58.8,1.348764,-9.797329,0.3906262,1004.9067,0,0
58.84,1.3439816,-9.759197,0.50898606,1004.9042,0,0
58.88,1.3774378,-9.725831,0.475845,1004.88654,0,0
58.92,1.4347935,-9.787796,0.45690724,1004.91437,0,0
58.96,1.4108921,-9.768729,0.4237662,1004.87616,0,0
59.0,1.3678713,-9.759197,0.39535952,1004.89374,0,0
59.04,1.396547,-9.706764,0.39535922,1004.9067,0,0
59.08,1.4013245,-9.773497,0.42376545,1004.88135,0,0
59.12,1.3726428999999998,-9.749663,0.4142964,1004.8916,0,0
59.16,1.4108797,-9.759197,0.3953586,1004.8737,0,0
59.2,1.3821651,-9.783029,0.40008974,1004.91425,0,0
59.24,1.4203999,-9.730597,0.37641737,1004.90936,0,0
59.28,1.4347365,-9.7925625,0.38115153,1004.9067,0,0
59.32,1.377375,-9.759196,0.36694798,1004.9039,0,0
59.36,1.3773712,-9.763962,0.40008846,1004.8891,0,0
59.4,1.4108251,-9.701998,0.4758385,1004.90424,0,0
59.44,1.4347217,-9.744895,0.38588458,1004.89417,0,0
59.48,1.4203781,-9.792562,0.38114977,1004.91675,0,0
59.52,1.4586126,-9.816394,0.41429028,1004.92175,0,0
59.56,1.4299303,-9.754428,0.44269636,1004.9194,0,0
59.6,1.4347062,-9.768727,0.37641433,1004.90936,0,0
59.64,1.4968399,-9.749661,0.40008605,1004.90424,0,0
59.68,1.4920566000000002,-9.749661,0.40008575,1004.8963,0,0
59.72,1.4585941,-9.754428,0.35747573,1004.9141,0,0
59.76,1.4490306,-9.725829,0.31486574,1004.9017,0,0
59.8,1.4968249,-9.721061,0.38588145,1004.90936,0,0
59.84,1.5876373,-9.802093,0.34800583,1004.91174,0,0
59.88,1.5446159,-9.802093,0.25331748,1004.90155,0,0
59.92,1.4490159,-9.730595,0.30539557,1004.9017,0,0
59.96,1.4729108999999998,-9.740128,0.28645757,1004.89124,0,0
60.0,1.5398246000000002,-9.754427,0.2533164,1004.9343,0,0
60.04,1.5923985,-9.701996,0.28172252,1004.9117,0,0
60.08,1.5302575,-9.773494,0.27698776,1004.919,0,0
60.12,1.5637125,-9.716295,0.3243315,1004.89124,0,0
60.16,1.5971675,-9.759194,0.30539355,1004.89124,0,0
60.2,1.5406458,-9.754447,0.2675948,1004.86365,0,0
60.24,1.5741318000000002,-9.725849,0.22498766,1004.924,0,0
60.28,1.5741591,-9.735382,0.23919338,1004.9013,0,0
60.32,1.5646288000000002,-9.706783,0.25813368,1004.8684,0,0
60.36,1.5455352,-9.716318,0.27233922,1004.8812,0,0
60.4,1.5981458,-9.7306185,0.29127985,1004.93964,0,0
60.44,1.5599365,-9.787818,0.22973526,1004.914,0,0
60.48,1.5790848999999998,-9.702021,0.2912852,1004.89874,0,0
60.52,1.5791141000000002,-9.725854,0.29128787,1004.8913,0,0
60.56,1.5265635,-9.721087,0.28655595,1004.8913,0,0
60.6,1.6174072,-9.740155,0.21554239,1004.88885,0,0
60.64,1.5935372,-9.787821,0.2486859,1004.91156,0,0
60.68,1.6461407,-9.663891,0.27709466,1004.90137,0,0
60.72,1.5649151,-9.787823,0.22501902,1004.90155,0,0
60.76,1.5267075,-9.725859,0.22975628,1004.9166,0,0
60.8,1.5554156,-9.735391,0.18714929,1004.91675,0,0
60.84,1.5554429,-9.759225,0.27710548,1004.89905,0,0
60.88,1.4694356000000002,-9.744926,0.19188888,1004.8838,0,0
60.92,1.5507214,-9.735394,0.18242276,1004.8964,0,0
60.96,1.5842074,-9.76876,0.29131657,1004.88367,0,0
61.0,1.50298,-9.773528,0.20609993,1004.92145,0,0
61.04,1.5077872,-9.716331,0.18716481,1004.90656,0,0
61.08,1.6081922,-9.730631,0.33393407,1004.9114,0,0
61.12,1.6130011,-9.749697,0.2108422,1004.89636,0,0
61.16,1.5126543,-9.687733,0.2534545,1004.92676,0,0
61.2,1.5933271999999998,-9.692485,0.30074513,1004.89636,0,0
61.24,1.5789928,-9.730618,0.30074558,1004.879,0,0
61.28,1.5311998,-9.78305,0.3338869,1004.90137,0,0
61.32,1.5646633,-9.692485,0.2297304,1004.90906,0,0
61.36,1.5598882,-9.763984,0.26287168,1004.8911,0,0
61.4,1.5742329,-9.740151,0.26287216,1004.8561,0,0
61.44,1.5216602,-9.740151,0.29127905,1004.9039,0,0
61.48,1.5838028,-9.76875,0.32442036,1004.8886,0,0
61.52,1.5455692,-9.749684,0.21552949,1004.8763,0,0
61.56,1.5933721,-9.754451,0.22026436,1004.8911,0,0
61.6,1.5551387,-9.787817,0.29128087,1004.9142,0,0
61.64,1.5551441,-9.749684,0.2581405,1004.92163,0,0
61.68,1.5216901000000005,-9.716319,0.29601622,1004.8963,0,0
61.72,1.5360343,-9.763985,0.31021988,1004.90393,0,0
61.76,1.5647181,-9.730619,0.26287624,1004.90155,0,0
61.8,1.5312645,-9.744919,0.25340793,1004.8911,0,0
61.84,1.5025909,-9.759219,0.24393958,1004.8989,0,0
61.88,1.5886321,-9.730619,0.19659595,1004.9166,0,0
61.92,1.5503991,-9.644821,0.2534093,1004.932,0,0
61.96,1.5217249,-9.730619,0.27708176,1004.90155,0,0
62.0,1.4404734,-9.778284,0.28655103,1004.88873,0,0
62.04,1.5695335,-9.749686,0.30548918,1004.9368,0,0
62.08,1.5695378999999998,-9.692488,0.28181756,1004.9089,0,0
62.12,1.5169652,-9.725854,0.30075562,1004.894,0,0
62.16,1.6077864,-9.711554,0.24867761,1004.8989,0,0
62.2,1.5744298,-9.778288,0.25342137,1004.9063,0,0
62.24,1.555319,-9.740156,0.3149694000000001,1004.8913,0,0
62.28,1.5457687,-9.735389,0.22975095,1004.90125,0,0
62.32,1.564897,-9.735389,0.30550229999999995,1004.88617,0,0
62.36,1.5649053,-9.716325,0.2770966,1004.89374,0,0
62.4,1.5983728,-9.768756,0.24395657,1004.8964,0,0
62.44,1.5553633,-9.73539,0.24869178,1004.89874,0,0
62.48,1.5840498,-9.744924,0.22975487,1004.90906,0,0
62.52,1.5840594,-9.740157,0.22502132,1004.8838,0,0
62.56,1.5314903,-9.783057,0.28183502,1004.9116,0,0
62.6,1.5553983,-9.706792,0.23449178,1004.8737,0,0
62.64,1.5840853,-9.749691,0.24869573,1004.8838,0,0
62.68,1.5458558999999998,-9.773524,0.2013525,1004.894,0,0
62.72,1.574543,-9.768758,0.2250253,1004.894,0,0
62.76,1.5697726,-9.706793,0.29130784,1004.9142,0,0
62.8,1.545882,-9.668661,0.20135489,1004.92426,0,0
62.84,1.5889091,-9.711559,0.23923096,1004.8989,0,0
62.88,1.5841379999999998,-9.730627,0.17295009,1004.87604,0,0
62.92,1.560248,-9.749693,0.19662292,1004.86096,0,0
62.96,1.5459169,-9.754459,0.1918893,1004.90393,0,0
63.0,1.5650451,-9.697261,0.24870294,1004.90656,0,0
63.04,1.5937327,-9.744926,0.17295329999999998,1004.90906,0,0
63.08,1.5698426,-9.730628,0.24397020000000005,1004.9091,0,0
63.12,1.5746312,-9.740161,0.2392366,1004.8911,0,0
63.16,1.5603002,-9.740161,0.25344056,1004.89874,0,0
63.2,1.526204,-9.730613,0.22497575,1004.88617,0,0
63.24,1.5548663,-9.744911,0.19656782,1004.88617,0,0
63.28,1.526172,-9.749678,0.19183202,1004.90137,0,0
63.32,1.5596151000000005,-9.697245,0.24864346,1004.8561,0,0
63.36,1.5309198999999998,-9.759211,0.2628452,1004.90906,0,0
63.4,1.5213416000000002,-9.706778,0.26757790000000004,1004.8684,0,0
63.44,1.5308868,-9.725843,0.2912486,1004.88873,0,0
63.48,1.4735118,-9.706777,0.25810614,1004.8938,0,0
63.52,1.4734973,-9.759209,0.24390161,1004.88617,0,0
63.56,1.5356163,-9.773508,0.22496226,1004.89636,0,0
63.6,1.5164815,-9.7878065,0.23442967,1004.8911,0,0
63.64,1.4877871,-9.744907,0.196553,1004.9166,0,0
63.68,1.4877696000000002,-9.749674,0.2580987,1004.91156,0,0
63.72,1.4973139,-9.716308,0.20128442,1004.87854,0,0
63.76,1.5259763000000002,-9.763972,0.295971,1004.8911,0,0
63.8,1.4733819,-9.72584,0.27229747,1004.90155,0,0
63.84,1.5594028,-9.744905,0.26756164,1004.90137,0,0
63.88,1.5259279,-9.76397,0.2202161,1004.88873,0,0
63.92,1.5832688999999998,-9.749671,0.27229306,1004.9165,0,0
63.96,1.4828765,-9.749671,0.28649473,1004.90393,0,0
64.0,1.4972016,-9.773503,0.2675558,1004.8838,0,0
64.04,1.4924043,-9.735371,0.32910147,1004.8963,0,0
64.08,1.4541503999999998,-9.792569,0.28175598,1004.8938,0,0
64.12,1.5067106,-9.763967999999998,0.2817544,1004.88135,0,0
64.16,1.5305941,-9.754435,0.24861215,1004.92413,0,0
64.2,1.4929857,-9.773518,0.22499779,1004.8911,0,0
64.24,1.5599123,-9.706785,0.19659221,1004.9191,0,0
64.28,1.5455819,-9.735384,0.28654674,1004.9038,0,0
64.32,1.4930124,-9.754452,0.23446901,1004.9113,0,0
64.36,1.5073607,-9.711553,0.27234509999999995,1004.914,0,0
64.4,1.4834707,-9.768751,0.25340828,1004.9217,0,0
64.44,1.4739193000000002,-9.721086,0.25814342,1004.90137,0,0
64.48,1.5169469,-9.802117,0.26761314,1004.88617,0,0
64.52,1.5217351,-9.754453,0.30548915,1004.9064,0,0
64.56,1.4500468,-9.740153,0.26288027,1004.88873,0,0
64.6,1.5456518,-9.725854,0.29602194,1004.9039,0,0
64.64,1.4930823,-9.778285,0.31496033,1004.90125,0,0
64.68,1.4978704,-9.759221,0.32442990000000005,1004.9089,0,0
64.72,1.555237,-9.692489,0.3291651,1004.88873,0,0
64.76,1.5409069,-9.721087,0.31496274,1004.9166,0,0
64.8,1.5552548000000002,-9.740154,0.24394743,1004.9091,0,0
64.84,1.5743828000000002,-9.721087,0.30076113,1004.9063,0,0
64.88,1.5600523000000002,-9.759222,0.23448026,1004.92395,0,0
64.92,1.5266025,-9.697256,0.28182513,1004.8988,0,0
64.96,1.4788133999999995,-9.725856,0.30549797,1004.9217,0,0
65.0,1.5075005,-9.716323,0.29129553,1004.88617,0,0
65.04,1.5122892,-9.721089,0.2723587,1004.91144,0,0
65.08,1.5314167,-9.773522,0.25342184,1004.8964,0,0
65.12,1.5648848999999998,-9.759223,0.30550116,1004.8911,0,0
65.16,1.5409942,-9.744923,0.24395464,1004.88367,0,0
65.2,1.5219809,-9.806891,0.20608912,1004.87866,0,0
65.24,1.5554522,-9.802124,0.18715265,1004.88873,0,0
65.28,1.5363457,-9.692494,0.15874739999999998,1004.88135,0,0
65.32,1.6271739,-9.706794,0.21556136,1004.9038,0,0
65.36,1.6032875,-9.730627,0.14928085,1004.90137,0,0
65.4,1.5746213,-9.687729,0.29131413,1004.88354,0,0
65.44,1.6128716,-9.763993,0.21083033,1004.87354,0,0
65.48,1.5746466,-9.759227,0.17769074,1004.89624,0,0
65.52,1.5698795,-9.749695,0.18242632,1004.88104,0,0
65.56,1.6129097,-9.759228,0.21556824,1004.8735,0,0
65.6,1.5890226,-9.730629,0.22503813,1004.9089,0,0
65.64,1.5794756,-9.754461,0.19189845,1004.8735,0,0
65.68,1.6272866,-9.735395,0.16822757,1004.92426,0,0
65.72,1.5986203,-9.721096,0.19190079,1004.894,0,0
65.76,1.627311,-9.697265,0.13508902,1004.8989,0,0
65.8,1.6034254,-9.735396,0.15402786,1004.87604,0,0
65.84,1.6560152,-9.721097,0.1824354,1004.9164,0,0
65.88,1.6560278000000002,-9.716332,0.19663975,1004.9089,0,0
65.92,1.6656002,-9.754464,0.21557853,1004.88104,0,0
65.96,1.6082544,-9.80213,0.13036034,1004.8936,0,0
66.0,1.632166,-9.735397,0.13509591,1004.90155,0,0
66.04,1.6799768,-9.6782,0.16823788,1004.8989,0,0
66.08,1.7182278999999998,-9.735398,0.15403585,1004.90137,0,0
66.12,1.7134608,-9.711567,0.14456819,1004.89905,0,0
66.16,1.7176602,-9.735384,0.09243661,1004.90906,0,0
66.2,1.6889706999999998,-9.711552,0.22026457,1004.9267,0,0
66.24,1.6411619,-9.697252,0.19185717,1004.90906,0,0
66.28,1.6172514999999998,-9.692486,0.16818407,1004.89905,0,0
66.32,1.6745977,-9.735383,0.2249959,1004.8913,0,0
66.36,1.6363478,-9.74015,0.21552604,1004.8988,0,0
66.4,1.669795,-9.692485,0.22499381,1004.9267,0,0
66.44,1.6602241000000002,-9.71155,0.2581336,1004.90906,0,0
66.48,1.6745534,-9.735382,0.24866387,1004.88135,0,0
66.52,1.6649817,-9.71155,0.23919395,1004.90155,0,0
66.56,1.6888694,-9.697249,0.23919292,1004.8838,0,0
66.6,1.6362808,-9.706782,0.25812957,1004.89374,0,0
66.64,1.6410493000000002,-9.735381,0.23445646,1004.8989,0,0
66.68,1.6744964,-9.730616,0.2817995,1004.88135,0,0
66.72,1.6601456,-9.744914,0.19657913,1004.89374,0,0
66.76,1.641015,-9.773514,0.28179740000000003,1004.8988,0,0
66.8,1.6027651000000005,-9.711548,0.27706194,1004.8559,0,0
66.84,1.5692952,-9.74968,0.2628577,1004.92926,0,0
66.88,1.5836238,-9.730614,0.2439191000000001,1004.9116,0,0
66.92,1.6218508,-9.773513,0.26759008,1004.90656,0,0
66.96,1.6266200000000002,-9.740147,0.23444825,1004.8913,0,0
67.0,1.5883694,-9.744912,0.23444714,1004.9089,0,0
67.04,1.5262213,-9.740146,0.22024295,1004.8915,0,0
67.08,1.6026874,-9.735378,0.27705485,1004.8763,0,0
67.12,1.5166388000000002,-9.735378,0.23444407,1004.87103,0,0
67.16,1.5596462,-9.67818,0.26758394,1004.88104,0,0
67.2,1.5650959,-9.735394,0.24397321,1004.9091,0,0
67.24,1.58901,-9.7258625,0.21083376,1004.90405,0,0
67.28,1.5890253,-9.7258625,0.24397600000000005,1004.88885,0,0
67.32,1.5890394,-9.754462,0.28185254,1004.90405,0,0
67.36,1.5412576,-9.692497,0.30552605,1004.9142,0,0
67.4,1.512594,-9.730631,0.28658983,1004.9444,0,0
67.44,1.5747458,-9.74493,0.33393517,1004.90405,0,0
67.48,1.574761,-9.754463,0.2723893,1004.9217,0,0
67.52,1.5843347,-9.749698,0.2676562,1004.9116,0,0
67.56,1.5939086999999998,-9.744931,0.21557906,1004.86346,0,0
67.6,1.5700248,-9.730632,0.22504923,1004.9142,0,0
67.64,1.5795997,-9.749699,0.31026998,1004.9089,0,0
67.68,1.5748352,-9.7687645,0.23925526,1004.88104,0,0
67.72,1.5939696,-9.702033,0.22031902,1004.89624,0,0
67.76,1.6131041000000002,-9.744933,0.2629301,1004.9164,0,0
67.8,1.5748798000000002,-9.773533,0.22032173,1004.8559,0,0
67.84,1.6131335,-9.744934,0.25346395,1004.8964,0,0
67.88,1.5988085,-9.721101,0.24873087,1004.88635,0,0
67.92,1.6227236,-9.754467,0.2866076,1004.8989,0,0
67.96,1.5749398,-9.68297,0.24399924,1004.9166,0,0
68.0,1.5797358999999995,-9.7783,0.2250631,1004.8988,0,0
68.04,1.6466682,-9.72587,0.27714294,1004.90656,0,0
68.08,1.6036633,-9.754469,0.24873772,1004.88617,0,0
68.12,1.6227987,-9.74017,0.23453602,1004.8911,0,0
68.16,1.6084737,-9.735403,0.25820935,1004.9142,0,0
68.2,1.5980517,-9.692483,0.2912712,1004.89636,0,0
68.24,1.5836943,-9.783048,0.2675976,1004.8684,0,0
68.28,1.5215425,-9.768747,0.22498663,1004.8863,0,0
68.32,1.6314543,-9.721081,0.22025004,1004.90405,0,0
68.36,1.5692979,-9.754447,0.17763866,1004.90125,0,0
68.4,1.6266378,-9.72108,0.21551226,1004.9091,0,0
68.44,1.6457378,-9.74968,0.13976005,1004.8863,0,0
68.48,1.62182,-9.735378,0.23444639,1004.87854,0,0
68.52,1.5883423,-9.721079,0.23444466,1004.88885,0,0
68.56,1.5500848,-9.744911,0.16342686,1004.9063,0,0
68.6,1.5930898999999998,-9.740145,0.16816005,1004.8988,0,0
68.64,1.6121866000000002,-9.687712,0.26284608,1004.9191,0,0
68.68,1.6073878,-9.706778,0.25810993,1004.90155,0,0
68.72,1.6408273999999998,-9.744909,0.18235773,1004.88135,0,0
68.76,1.6647073,-9.773509,0.18709037,1004.9089,0,0
68.8,1.6312296,-9.692476,0.2533703,1004.8964,0,0
68.84,1.6837885,-9.678177,0.22969653,1004.90405,0,0
68.88,1.6264131000000002,-9.773507,0.19655406,1004.9166,0,0
68.92,1.6598574,-9.682942,0.24389684,1004.9139,0,0
68.96,1.626375,-9.744906,0.23442584,1004.88617,0,0
69.0,1.6502561999999998,-9.678175,0.24389301,1004.8886,0,0
69.04,1.6884756,-9.783038,0.2770321,1004.92395,0,0
69.08,1.6502194,-9.778271,0.26282728,1004.9038,0,0
69.12,1.6406406000000002,-9.706772,0.24862231,1004.90656,0,0
69.16,1.5884181999999998,-9.73538,0.2202484,1004.88885,0,0
69.2,1.6314334,-9.702015,0.25812337,1004.9063,0,0
69.24,1.6362086999999998,-9.725847,0.29599822,1004.9038,0,0
69.28,1.5836277,-9.72108,0.1823722,1004.89624,0,0
69.32,1.6935589,-9.735379,0.14449657,1004.93677,0,0
69.36,1.6935549,-9.792579,-0.1490369,1004.93176,0,0
69.4,1.9182032,-9.911743,0.045073446,1004.9644,0,0
69.44,1.9659973,-9.768745,-0.09695904,1004.9391,0,0
69.48,1.9468733,-9.392188,0.551654,1004.9063,0,0
69.52,1.8895134,-9.311157,0.21551102,1004.90125,0,0
69.56,2.1189398999999995,-9.530418,1.157657,1004.88617,1,4
69.6,1.6361756,-9.625749,0.5090434,1004.9191,1,4
69.64,1.7413278000000003,-9.620982,0.6889504,1004.89386,1,4
69.68,2.0711305,-9.5208845,0.8451854,1004.90155,1,4
69.72,2.3292363,-9.387421,0.59899604,1004.92926,1,4
69.76,3.0223043,-9.40172,1.2097338,1004.9444,1,4
69.8,3.2230522999999995,-9.325456,0.31966550000000005,1004.91895,1,4
69.84,2.6446922,-9.978474,-0.011743177,1004.92426,1,4
69.88,-0.23275352,-10.979451,-1.1101255,1004.93176,1,4
69.92,0.16874547,-9.53995,-0.23426096,1004.90155,1,4
69.96,1.2346381000000002,-8.939363499999997,0.21077277,1004.929,1,4
70.0,0.8044525,-9.806878,0.11608437,1004.89374,1,4
70.04,0.43162394,-9.98324,-0.049620163,1004.8687,1,4
70.08,1.9229194,-9.983239,-1.2000809,1004.92926,1,4
70.12,2.8979952,-10.069037,-1.7587409,1004.91895,1,4
70.16,2.8023956,-10.722055,-3.3731732000000005,1004.9139,1,4
70.2,2.558525,-11.203476,-4.054937000000002,1004.9013,1,4
70.24,3.6148546,-11.518068,-5.754589,1004.977,1,4
70.28,5.134824,-8.543736,2.4169931,1005.0275,1,4
70.32,-5.194339299999998,-11.437036,-9.352737,1005.1586,1,4
70.36,8.437654,-7.9860487,1.4227667,1005.0756,1,4
70.4,2.8500555,-9.802107,-3.1364655,1005.1359,1,4
70.44,0.4792655,-6.5989804,-1.9007868000000003,1005.035,1,4
70.48,2.2430058,-4.964051,-1.9812723,1005.0101,1,4
70.52,1.6981001,-4.8973193,-2.6062142999999995,1005.0302,1,4
70.56,1.3778464,-5.0307827000000005,-2.6866999,1004.9747,1,4
70.6,2.7305226,-6.3415856,-4.9592147,1004.88367,1,4
70.64,5.885186,-9.620976,-5.8966274000000025,1004.8283,1,4
70.68,8.891676,-12.766903,-5.958175700000001,1004.8105,1,4
70.72,3.94935,-12.390346,-5.8114095,1004.8105,1,4
70.76,-1.2845424,-11.961355,0.8498969000000001,1004.7802,1,4
70.8,0.4457389,-12.952799,-0.6935197,1004.6087,1,4
70.84,2.8117354,-7.3997602,4.163979,1004.6541,1,4
70.88,1.5546392,-7.3616275999999985,3.4774897000000005,1004.7274,1,4
70.92,3.1654255,-10.069032,1.5127107,1004.7702,1,4
70.96,1.5737438999999998,-10.283526,-1.9812804,1004.86115,1,4
71.0,3.6290517,-8.705796000000001,2.644232,1004.88635,1,4
71.04,6.4443480000000015,-7.871647999999999,1.1055499,1004.9366,1,4
71.08,3.0793586,-8.615231,0.55635834,1004.90894,1,4
71.12,2.964636,-8.586632,-0.24849115,1004.8888,1,4
71.16,3.2036192000000003,-8.810659,0.8120148,1004.89624,1,4
71.2,3.9397008,-8.810659,1.0629376,1004.9013,1,4
71.24,3.6959238,-11.551429,-1.3752816,1004.9747,1,4
71.28,3.6627295,-11.050947,-0.23900016,1004.9694,1,4
71.32,5.8088636,-9.573315,-0.9349575,1004.9669,1,4
71.36,5.1110144,-9.749678,-2.615671,1004.9316,1,4
71.4,3.0509212000000003,-10.102403,-2.4641697,1004.9265,1,4
71.44,-0.85417634,-13.043368,1.905686,1004.87616,1,4
71.48,-1.4373101,-16.775581,4.7510633,1004.8233,1,4
71.52,7.8641906000000015,-12.585779,-6.7014613,1005.1715,1,4
71.56,4.8242373,-12.538114,-0.73611116,1005.13367,1,4
71.6,0.3216647,-7.433130999999999,2.1140008,1005.0756,1,4
71.64,-1.661952,-5.0879855,0.6416009,1005.0353,1,4
71.68,-2.5987911,-4.954521700000001,1.1387136,1005.0681,1,4
71.72,-4.9265532,-3.3434253,0.42855316,1005.00494,1,4
71.76,0.79009455,-6.1366277,-3.4583929,1004.8182,1,4
71.8,24.445345,-16.575385999999998,-9.068662,1004.8182,1,4
71.84,7.9741434999999985,-6.4845867,-6.5452247,1004.8233,1,4
71.88,-5.9494224,-18.281813,2.8431005000000003,1004.7024,1,4
71.92,1.4305973,-9.663879,4.9262385,1004.5707,1,4
71.96,1.0290960999999998,-5.493143,1.9577671000000003,1004.7526,1,4
72.0,-4.1617690000000005,-8.005118,4.632706,1004.74506,1,4
72.04,1.6026768999999998,-11.680134,4.1545315,1004.778,1,4
72.08,3.6245365,-10.545693,-1.933913,1004.9543,1,4
72.12,3.9447858,-9.601915,2.5495687,1004.9823,1,4
72.16,2.3961313,-10.2597,1.7873296000000003,1004.90906,1,4
72.2,1.9085935,-9.382654,0.9446057,1004.8762,1,4
72.24,3.1417851000000003,-9.191992,-1.0391097,1004.93933,1,4
72.28,3.7244549,-8.805889,-0.4473517,1004.9444,1,4
72.32,6.5206222999999985,-9.196746,-0.94920015,1004.9571,1,4
72.36,3.700522,-9.687701,-0.60359013,1004.98474,1,4
72.4,3.8152225,-10.812609,-5.3332615,1005.00494,1,4
72.44,3.7530677,-9.449372,-1.8582102,1004.9547,1,4
72.48,0.22555591,-14.416125,2.469034,1004.89124,1,4
72.52,-3.3258538,-19.683167,8.278148,1004.81573,1,4
72.56,8.661878,-10.569512,-7.5584380000000015,1005.14905,1,4
72.6,3.3467185,-10.259685,-0.11122106,1005.0175,1,4
72.64,1.320066,-7.266288,2.1092134,1005.02747,1,4
72.68,-0.9216785,-4.420653,1.2333469,1005.05286,1,4
72.72,-1.4761513000000002,-4.392053,2.0192568,1005.08826,1,4
72.76,-3.072622,-4.210923,0.87352926,1004.9872,1,4
72.8,-2.4321446,-7.299652,-1.3611112,1004.8462,1,4
72.84,13.565842000000002,-18.024403,-12.91306,1004.8256,1,4
72.88,9.383499,-8.000335,-3.0465624,1004.86096,1,4
72.92,-0.6302084,-16.90426,0.94453925,1004.80554,1,4
72.96,-0.529848,-12.709692,1.6026200000000002,1004.54315,1,4
73.0,7.806114,-6.7848615999999975,2.5210934,1004.72754,1,4
73.04,-4.315486,-5.7266855,0.6604706,1004.7428,1,4
73.08,1.4871807,-11.503752,5.2481074,1004.7476,1,4
73.12,2.7920517999999994,-10.478942,-1.2048877,1004.93176,1,4
73.16,2.533925,-10.059485,2.023975,1004.9572,1,4
73.2,2.8876150000000003,-9.587595,1.0912956,1004.88885,1,4
73.24,1.0760516000000002,-10.307344,1.0534186,1004.88654,1,4
73.28,1.1633081,-8.777308999999999,-0.021179482000000003,1004.90686,1,4
73.32,2.6307433,-8.877408,-0.096926734,1004.9392,1,4
73.36,2.7932894,-9.721089,-0.9443822,1004.9723,1,4
73.4,5.2358,-9.568561,-0.45673564,1004.9848,1,4
73.44,3.9309485,-9.978486,-0.53721726,1004.9694,1,4
73.48,4.4949965,-10.755434,-3.4299357,1005.0102,1,4
73.52,1.8422382,-10.235881,-3.8797011,1004.952,1,4
73.56,-0.93957454,-13.348444,2.3365753,1004.8737,1,4
73.6,-1.9241812,-17.10449,7.061514,1004.8508,1,4
73.64,8.605758,-12.361768,-7.1985100000000015,1005.1944,1,4
73.68,4.5907555,-12.199706,-1.2994386999999998,1005.0908,1,4
73.72,0.15991016,-7.595213,1.8631465,1005.09357,1,4
73.76,-1.7949966,-5.4836287000000015,0.88312787,1005.07544,1,4
73.8,-1.9383597,-4.9640746,0.38601822,1004.98206,1,4
73.84,-3.1954172,-4.220493,0.05934712,1004.9924,1,4
73.88,-3.5586492999999995,-5.9173875,-1.3846434,1004.879,1,4
73.92,3.8787587,-12.137745,-8.135900999999999,1004.79584,1,4
73.96,16.06251,-15.460035,-2.7860212000000004,1004.74756,1,4
74.0,4.5527763,-13.17209,-4.736593,1004.83356,1,4
74.04,-5.8002477,-14.854685,0.52333367,1004.6594,1,4
74.08,1.7709968,-8.505631,3.458668,1004.5456,1,4
74.12,-1.4266611,-3.6532776,-1.3656878,1004.77783,1,4
74.16,-1.0872620000000002,-11.789792,6.0483932000000005,1004.7198,1,4
74.2,3.9554636,-9.988034,0.8121444,1004.9064,1,4
74.24,-0.15513638,-10.703017,-1.2094437,1004.9694,1,4
74.28,3.5480367999999993,-9.072826,2.440675,1004.93933,1,4
74.32,2.745015,-9.306388,-0.50412613,1004.92944,1,4
74.36,2.1570845000000003,-9.072825,0.75048983,1004.9013,1,4
74.4,1.3731803,-8.958428,0.7741603,1004.8788,1,4
74.44,3.3998032,-9.487515,-0.38103572,1004.9067,1,4
74.48,4.193235,-9.702011,-1.010713,1004.985,1,4
74.52,3.3185167,-10.316896,-1.52203,1004.97974,1,4
74.56,3.605291,-10.674387,0.31018338,1004.9392,1,4
74.6,5.1634910000000005,-12.280717,-3.1269958,1004.9417,1,4
74.64,-0.1755655,-11.518068,-5.9676404000000005,1004.9674,1,4
74.68,-3.6887355,-12.762138,2.985118,1004.9018,1,4
74.72,-0.16603535,-13.529553,2.6584427,1004.9442,1,4
74.76,8.423258,-13.06243,-5.281155,1005.1818,1,4
74.8,3.6099803,-13.06243,-2.3600292,1005.06335,1,4
74.84,0.35013878,-6.2891526,1.7825736,1005.0076,1,4
74.88,-1.394505,-4.3872957,1.4464294,1004.9571,1,4
74.92,-1.6860881999999997,-4.606557,0.15866995,1004.88153,1,4
74.96,-3.3877134,-4.720954,0.40959203,1004.9117,1,4
75.0,-4.185955,-6.5608444000000015,-0.9160426,1004.7908,1,4
75.04,8.93459,-17.023436,-9.89721,1004.74756,1,4
75.08,8.174588,-12.19968,-3.5436400000000003,1004.8258,1,4
75.12,3.8297315,-11.484697,-4.092832,1004.8715,1,4
75.16,-2.8333304,-15.078681,-3.0181236,1004.70996,1,4
75.2,3.294363,-8.786825,3.131867,1004.76544,1,4
75.24,-0.37176096,-4.9306800000000015,2.1376402000000003,1004.78815,1,4
75.28,-3.512108,-10.416986,-1.2711327,1004.8135,1,4
75.32,7.486205,-10.459886,4.4764338,1004.874,1,4
75.36,-0.018102124,-10.307354,-0.106471896,1004.99725,1,4
75.4,0.42162555,-10.641013,0.71257883,1005.00494,1,4
75.44,2.2905147,-9.435074,0.67943674,1004.94464,1,4
75.48,1.8507565,-8.963184,1.7399418000000002,1004.8637,1,4
75.52,1.4540193,-8.958418,1.1292025,1004.8637,1,4
75.56,1.5591598,-9.7449,0.5989477,1004.8715,1,4
75.6,1.5687033,-10.335952,0.08763053,1004.92175,1,4
75.64,1.3679363000000002,-10.183423,0.8261963,1004.8589,1,4
75.68,1.9606186,-9.273008,2.8667235,1004.85364,1,4
75.72,0.7656525,-9.163378,2.023998,1004.8739,1,4
75.76,-0.11384663,-9.9069605,0.5705344,1004.93195,1,4
75.8,0.7130433,-9.9069605,0.86406606,1004.889,0,0
75.84,1.1957883,-9.859294,1.1244569,1004.9117,0,0
75.88,0.15377675,-9.787795,1.2570188,1004.917,0,0
75.92,0.5170266,-9.735363,1.2570175,1004.9016,0,0
75.96,0.7273238000000001,-9.673397,1.370642,1004.9117,0,0
76.0,0.44529915,-10.011823,0.86879355,1004.9167,0,0
76.04,0.36402816,-9.787794,1.2475446,1004.9092,0,0
76.08,0.11068429,-9.816394,1.5505451,1004.90405,0,0
76.12,-0.43422854,-9.983222,1.1528538000000002,1004.9041,0,0
76.16,-0.33864868,-9.849759,1.114977,1004.91925,0,0
76.2,0.18233569,-9.783026,1.0913037,1004.87646,0,0
76.24,0.4882279000000001,-9.778258,0.9634735,1004.92175,0,0
76.28,0.45035702,-9.802101,0.8356781999999999,1004.90686,0,0
76.32,0.35476090000000005,-9.868832,0.7930686,1004.91943,0,0
76.36,0.2591648,-9.797335,0.88775665,1004.9268,0,0
76.4,0.30218303,-9.902198,0.9161631,1004.8964,0,0
76.44,0.33086187,-9.749668,0.85935026,1004.9142,0,0
76.48,0.40255892,-9.778267,0.77886534,1004.91943,0,0
76.52,0.5411733,-9.806869,0.70311487,1004.9067,0,0
76.56,0.5029348,-9.8593,0.58475477,1004.9318,0,0
76.6,0.5220541,-9.811633,0.69838053,1004.9092,0,0
76.64,0.38343972,-9.821167,0.8025374,1004.92175,0,0
76.68,0.17790814,-9.787801,0.69838053,1004.9041,0,0
76.72,0.05841306,-9.797335,0.70784926,1004.9041,0,0
76.76,0.16356875,-9.802101,0.76939654,1004.9016,0,0
76.8,0.048853442,-9.697236,0.77413094,1004.8739,0,0
76.84,0.08231208,-9.883132000000002,0.70311487,1004.9041,0,0
76.88,0.10621111,-9.8593,0.59422356,1004.8966,0,0
76.92,0.16834857,-9.849766,0.5232074999999999,1004.8991,0,0
76.96,0.17790814,-9.835467,0.4995355,1004.894,0,0
77.0,0.254385,-9.830701,0.47586346,1004.90186,0,0
77.04,0.16834857,-9.902198,0.44272262,1004.9145,0,0
77.08,0.23048599,-9.816401,0.518473,1004.8991,0,0
77.12,0.2257062,-9.825933,0.39537856,1004.8714,0,0
77.16,0.14922933,-9.8783655,0.3243625,1004.9218,0,0
77.2,0.28306383,-9.830701,0.36697215,1004.9016,0,0
77.24,0.2591648,-9.821167,0.37644094,1004.9117,0,0
77.28,0.20592342,-9.897416,0.33377054,1004.9144,0,0
77.32,0.067277476,-9.878348,0.34797087,1004.9041,0,0
77.36,0.009893194,-9.816383,0.42845333,1004.90405,0,0
77.4,-0.009245977,-9.783016,0.3574354,1004.9142,0,0
77.44,0.11021747,-9.830682,0.36690134,1004.9268,0,0
77.48,0.14364947,-9.864047,0.3763677,1004.9268,0,0
77.52,0.19620068,-9.80208,0.32902122,1004.89154,0,0
77.56,0.1531608,-9.887878,0.25326875,1004.89667,0,0
77.6,0.31086105,-9.868811,0.20592164,1004.93695,0,0
77.64,0.3825348,-9.902176,0.24379477,1004.9167,0,0
77.68,0.36816704,-9.854509,0.22012015,1004.93713,0,0
77.72,0.22475465,-9.830677,0.343213,1004.92426,0,0
77.76,-0.10985823,-9.878342,0.2911321,1004.8915,0,0
77.8,-0.19592799,-9.873574,0.45209885,1004.9117,0,0
77.84,-0.17205562,-9.859274,0.41895556,1004.89166,0,0
77.88,-0.2294299,-9.849741,0.4094852000000001,1004.9018,0,0
77.92,-0.08128927,-9.926004,0.4236854000000001,1004.91925,0,0
77.96,0.10031664,-9.878339,0.3763389,1004.8943,0,0
78.0,0.26758146,-9.821139,0.37160188,1004.884,0,0
78.04,0.18629985,-9.849738,0.31478673,1004.90155,0,0
78.08,0.25319046,-9.821138,0.39053482,1004.9222,0,0
78.12,0.21014558,-9.83067,0.28164107,1004.8612,0,0
78.16,0.20056103,-9.883102,0.32424840000000005,1004.8993,0,0
78.2,0.29613715,-9.844969,0.33371540000000005,1004.93964,0,0
78.24,0.19094814,-9.864035,0.35264996,1004.90155,0,0
78.28,0.20722513,-9.821183,0.4238434,1004.9018,0,0
78.32,0.19773056,-9.806886,0.3907085,1004.89404,0,0
78.36,0.14519174,-9.854551,0.38597766,1004.90436,0,0
78.4,0.18348537,-9.80212,0.4333268,1004.92706,0,0
78.44,0.17875434,-9.840254,0.40965924,1004.9044,0,0
78.48,0.17880635,-9.835489,0.41439837,1004.90686,0,0
78.52,0.13584013,-9.845023,0.41913757,1004.92706,0,0
78.56,0.0976537,-9.835491,0.4144079000000001,1004.9222,0,0
78.6,0.045137644000000005,-9.878392,0.40967917,1004.88916,0,0
78.64,0.05951604200000001,-9.816427,0.4380892,1004.91956,0,0
78.68,0.002210408,-9.878394,0.42862508,1004.90155,0,0
78.72,0.112191394,-9.84503,0.542255,1004.9268,0,0
78.76,0.16482453,-9.87363,0.3812903,1004.907,0,0
78.8,0.21267454,-9.883164,0.37656063,1004.92426,0,0
78.84,0.17926468,-9.887933,0.41444033,1004.92706,0,0
78.88,0.21277855,-9.840267,0.37657017,1004.922,0,0
78.92,0.16981234,-9.811669,0.33396527,1004.93964,0,0
78.96,0.0599256,-9.849804,0.37657937,1004.9268,0,0
79.0,0.29418802,-9.792606,0.433397,1004.89667,0,0
79.04,0.19386087,-9.883172,0.29136932,1004.88916,0,0
79.08,0.19391288,-9.8784075,0.35292137,1004.9245,0,0
79.12,0.2608822,-9.825975,0.30084765,1004.90686,0,0
79.16,0.25137132,-9.821211,0.30558655,1004.9273,0,0
79.2,0.29922462,-9.840278,0.36713883,1004.90936,0,0
79.24,0.265818,-9.854579,0.25825226,1004.93225,0,0
79.28,0.32148427,-9.873603999999998,0.31017593,1004.912,0,0
79.32,0.29278773,-9.864071,0.3196431,1004.8918,0,0
79.36,0.19717275,-9.811637,0.40012628,1004.9044,0,0
79.4,0.23539455,-9.887902,0.30543667,1004.93207,0,0
79.44,0.24971507,-9.883135,0.31963813,1004.92957,0,0
79.48,0.26403785,-9.830703,0.3149022,1004.9122,0,0
79.52,0.3070383,-9.830703,0.26282212,1004.9044,0,0
79.56,0.23054482,-9.840235,0.2722894,1004.912,0,0
79.6,0.27354527,-9.778269,0.30069423,1004.9119,0,0
79.64,0.28308713,-9.878366,0.32909903,1004.9094,0,0
79.68,0.24483092,-9.830701,0.25808132,1004.92957,0,0
79.72,0.2687133,-9.811633,0.2817518,1004.90686,0,0
79.76,0.30693287,-9.8783655,0.2959533,1004.89166,0,0
79.8,0.31169713,-9.830699,0.23440461,1004.9046,0,0
79.84,0.29255903,-9.849766,0.24387169,1004.90186,0,0
79.88,0.35467875,-9.830698,0.21546364,1004.9147,0,0
79.92,0.34988117,-9.88313,0.27700928,1004.91974,0,0
79.96,0.28772712,-9.844997,0.20125726,1004.922,0,0
80.0,0.30204868,-9.859296,0.2580685,1004.90686,0,0
80.04,0.32115132,-9.835464,0.25333259,1004.9119,0,0
80.08,0.35937090000000005,-9.864062,0.20598681,1004.93207,0,0
80.12,0.3354563,-9.802096,0.27700144,1004.92957,0,0
80.16,0.2924192,-9.887894,0.21545248,1004.912,0,0
80.2,0.28762275,-9.806863,0.26752940000000003,1004.9145,0,0
80.24,0.2923848,-9.835461,0.18704289,1004.9145,0,0
80.28,0.2302296000000001,-9.816395,0.2249165,1004.897,0,0
80.32,0.24455123,-9.873592,0.19650842,1004.91974,0,0
80.36,0.29233265,-9.864059,0.18230373,1004.89435,0,0
80.4,0.30665427,-9.854526,0.16809885,1004.9145,0,0
80.44,0.29707688,-9.91649,0.13495639999999998,1004.9247,0,0
80.48,0.3687573,-9.844992,0.11601725,1004.9324,0,0
80.52,0.306601,-9.88789,0.1633596,1004.95245,0,0
80.56,0.45475823,-9.79256,0.24384294,1004.922,0,0
80.6,0.3499158,-9.902197,0.17758992,1004.9374,0,0
80.64,0.32122976,-9.844998,0.23913655,1004.91974,0,0
80.68,0.53631276,-9.783032,0.26280785,1004.9095,0,0
80.72,0.4598282,-9.86883,0.22966628,1004.9046,0,0
80.76,0.49327958,-9.91173,0.27227527,1004.94226,0,0
80.8,0.46937287,-9.778265,0.24860252,1004.92206,0,0
80.84,0.5123833999999999,-9.844997,0.19178899,1004.8996,0,0
80.88,0.33074367,-9.849765,0.111303434,1004.9044,0,0
80.92,0.40243262,-9.921262,0.17284995,1004.9044,0,0
80.96,0.4167648,-9.816398,0.16811487,1004.90186,0,0
81.0,0.49801427,-9.887896,0.2485991,1004.92224,0,0
81.04,0.5075657,-9.854529,0.18231670000000005,1004.8945,0,0
81.08,0.5553560000000001,-9.82593,0.10656552,1004.89935,0,0
81.12,0.6461650999999999,-9.773498,0.059220806,1004.90686,0,0
81.16,0.54100174,-9.835463,-0.03073359,1004.90967,0,0
81.2,0.564894,-9.849763,-0.002327781,1004.92206,0,0
81.24,0.2064005,-9.873595,-0.021266155,1004.9094,0,0
81.28,0.3402269,-9.9069605,-0.02600127,1004.91724,0,0
81.32,0.4119172,-9.849762,-0.08281477,1004.92706,0,0
81.36,0.34499174,-9.911727,0.01187256,1004.8968,0,0
81.4,0.3736629,-9.864061,-0.007065754000000001,1004.8841,0,0
81.44,0.18724336,-9.802095,0.045012042,1004.92224,0,0
81.48,0.5600604,-9.7925625,0.10182421,1004.9321,0,0
81.52,0.6843281,-9.8545265,-0.19644396,1004.9122,0,0
81.56,0.55048543,-10.040422,-0.11595982,1004.9273,0,0
81.6,0.7034338000000001,-9.86406,-0.1159603,1004.9094,0,0
81.64,0.7225459,-9.873593,0.026071195,1004.89435,0,0
81.68,0.7846753000000001,-9.835461,0.035539277,1004.9046,0,0
81.72,0.521779,-9.735362,0.06394504,1004.90717,0,0
81.76,0.4357344,-9.773495,0.20124201,1004.90717,0,0
81.8,0.44528687,-9.926024,-0.09229173,1004.91724,0,0
81.84,0.1776102,-9.83546,0.03553654,1004.91455,0,0
81.88,0.4930697,-9.902191,-0.06388667,1004.8894,0,0
81.92,0.43092507,-9.773494,0.082879215,1004.92474,0,0
81.96,0.3735603,-9.711529,0.1254882,1004.8995,0,0
82.0,0.42613012,-9.787793,0.33380127,1004.8943,0,0
82.04,0.14889382,-10.011822,-0.040217396,1004.8945,0,0
82.08,0.2922808,-9.90219,0.030798035,1004.907,0,0
82.12,0.5456028,-9.821159,-0.03548434,1004.8919,0,0
82.16,0.6842095,-9.783026,0.082875066,1004.9119,0,0
82.2,0.765459,-9.840224,-0.002344862,1004.9147,0,0
82.24,0.9948824,-9.883123,0.035529733,1004.8918,0,0
82.28,0.746325,-9.830691,0.002388191,1004.9046,0,0
82.32,0.56946427,-9.864058,-0.07809745,1004.8869,0,0
82.36,0.4738611,-9.84499,0.15862215,1004.8971,0,0
82.4,0.26832140000000004,-9.84499,0.13021499,1004.92474,0,0
82.44,0.1201403,-9.83069,0.1917616,1004.9145,0,0
82.48,-0.0901782,-9.930788,0.0686664,1004.90967,0,0
82.52,-0.028048329,-9.892654,0.12074418,1004.8945,0,0
82.56,0.12011798,-9.81639,0.06866502,1004.9019,0,0
82.6,0.29648703,-9.802078,0.09229277,1004.9398,0,0
82.64,0.37293732,-9.84021,0.05914950400000001,1004.88184,0,0
82.68,0.36335272,-9.859275,0.054412797,1004.91974,0,0
82.72,0.38722342,-9.806844,0.13962951,1004.9348,0,0
82.76,0.3585196,-9.897408,0.19644007,1004.9197,0,0
82.8,0.4158523,-9.797308,0.18696897,1004.9451,0,0
82.84,0.24375106,-9.897407,0.14909115,1004.9321,0,0
82.88,0.43013847,-9.783008,0.27691782,1004.9122,0,0
82.92,0.52092814,-9.844972,0.14435203,1004.92236,0,0
82.96,0.39184678,-9.973668,0.16802160000000002,1004.92474,0,0
83.0,0.5447738,-9.830671,0.14908154,1004.9247,0,0
83.04,0.49695092,-9.821137,0.16328248,1004.92487,0,0
83.08,0.5208216,-9.763938,0.22482714,1004.91724,0,0
83.12,0.32004315,-9.792538,0.32898164,1004.90717,0,0
83.16,-0.019347876,-9.692438,0.52782434,1004.87933,0,0
83.2,0.06666364,-9.80207,0.2768986,1004.88434,0,0
83.24,0.36776465,-9.792536,0.28163058,1004.9045,0,0
83.28,0.35339856,-9.987964,0.14433038,1004.8894,0,0
83.32,0.88871163,-10.226291,-0.0687201,1004.9122,0,0
83.36,0.061778963,-9.973661,-0.27703637,1004.9123,0,0
83.4,0.4106797,-9.6733675,0.41891885,1004.9272,0,0
83.44,-0.000411764,-9.854497,0.31475934,1004.8843,0,0
83.48,0.10471566,-9.730566,0.42364812,1004.907,0,0
83.52,0.16205,-9.835429,0.26267618,1004.91223,0,0
83.56,0.20504157,-9.787763,0.13484482,1004.8919,0,0
83.6,0.21935605,-9.945059,0.08276410000000001,1004.907,0,0
83.64,0.2480049,-9.659064,0.26266873,1004.9147,0,0
83.68,0.06156923,-9.859261,0.15377527,1004.907,0,0
83.72,0.1427993,-9.921225,0.22478889,1004.9045,0,0
83.76,0.0376153,-9.892624,0.26739597,1004.9021,0,0
83.8,0.19054238,-9.73056,0.19164306,1004.9021,0,0
83.84,0.29089332,-9.992721,0.28632885,1004.8946,0,0
83.88,0.04709837,-9.568496,0.37154588,1004.8896,0,0
83.92,-0.11544329,-9.830656,0.60352916,1004.89734,0,0
83.96,0.094843134,-9.906921,0.19163361,1004.8971,0,0
84.0,0.28122884,-9.373065,0.30525690000000005,1004.91974,0,0
84.04,0.07567063,-9.759156,0.22003515,1004.9021,0,0
84.08,-0.3019604,-9.949818,0.16795427,1004.8746,0,0
84.12,-0.4883994,-10.312076,-0.20133175,1004.90717,0,0
84.16,-0.34980845,-9.506527,0.20109051,1004.9022,0,0
84.2,0.17594166,-9.620924,0.4188706,1004.90717,0,0
84.24,-0.010497287,-10.05468,0.23422635,1004.8843,0,0
84.28,-0.16825578,-10.307306,0.12533274,1004.88684,0,0
84.32,-0.23519967,-10.054679,0.15847114,1004.8946,0,0
84.36,0.4261859000000001,-9.778261,-0.08282125,1004.9149,0,0
84.4,1.2435459,-9.806862,0.054477736,1004.9123,0,0
84.44,-0.19994044,-9.902192,0.60367006,1004.90967,0,0
84.48,-0.2620634,-9.859294,-0.0212701,1004.89966,0,0
84.52,-0.24292976,-9.92126,0.07341933,1004.9198,0,0
84.56,0.35455924,-9.721064,0.26279676,1004.8896,0,0
84.6,0.0008682010000000001,-9.830696,0.62734723,1004.8897,0,0
84.64,0.13471721,-9.7830305,0.29594025,1004.9022,0,0
84.68,0.11083259,-9.945093,0.13970621,1004.8996,0,0
84.72,0.19688265,-9.926028,0.35749006,1004.90717,0,0
84.76,0.053502932,-9.864063,0.6510245,1004.8971,0,0
84.8,0.4167825,-10.002295,0.054490812,1004.9122,0,0
84.84,0.2017058,-9.945095,-0.1396185,1004.94525,0,0
84.88,0.02964729,-10.150058,0.27701044,1004.92255,0,0
84.92,-0.05637473,-9.668636,0.3953719,1004.91974,0,0
84.96,0.010556087,-9.844998,0.253341,1004.91724,0,0
85.0,-0.44351083,-9.802099,0.38117126,1004.9351,0,0
85.04,-0.4434973,-9.992763,0.13498345,1004.91473,0,0
85.08,-0.041979313,-10.016596,0.17286,1004.92505,0,0
85.12,-0.66811913,-9.535174,0.1539237,1004.90466,0,0
85.16,0.38823193,-10.116694,0.90196097,1004.90967,0,0
85.2,-0.7302276999999999,-9.692471,-0.2769045,1004.9048,0,0
85.24,-0.87360746,-10.540919,-0.06385493,1004.91504,0,0
85.28,0.14450525,-9.8879,-0.42366835,1004.90753,0,0
85.32,-0.81144196,-9.620974,0.14446144,1004.8897,0,0
85.36,-0.01420486,-9.721046,0.9681572,1004.892,0,0
85.4,-1.9596103,-9.697213,-0.40482244,1004.8823,0,0
85.44,-0.07639305,-9.373086,0.9018709,1004.88965,0,0
85.48,-0.48270017,-9.835443,0.09701994,1004.8972,0,0
85.52,-0.35845065,-9.787776,0.28639380000000003,1004.8819,0,0
85.56,0.29157734,-9.606647,0.5089085,1004.90216,0,0
85.6,-0.59749156,-9.873573,-0.021347173,1004.92523,0,0
85.64,-0.95600057,-9.98797,0.24851172,1004.92523,0,0
85.68,-0.34421268,-9.759175,0.32425976,1004.92523,0,0
85.72,-0.70750153,-9.93077,0.43314892,1004.88464,0,0
85.76,-0.1960879,-9.935535,0.7598205,1004.872,0,0
85.8,-0.7314513000000001,-10.531355,0.21536162,1004.8743,0,0
85.84,-0.44468683,-10.712483,0.59884626,1004.86676,0,0
85.88,-0.95137143,-11.098574,0.5325622,1004.89746,0,0
85.92,-1.7878625,-10.707716,0.22482358,1004.9225,0,0
85.96,0.27698898,-9.930766,0.84502846,1004.9225,0,0
86.0,-1.1904378,-10.57425,0.9444485,1004.9173,0,0
86.04,-0.8271963999999999,-9.687672,-0.28176448,1004.93994,0,0
86.08,0.20522217,-10.08806,1.3752753999999998,1004.9148,0,0
86.12,0.6162536,-9.906931,0.040170345,1004.9579,0,0
86.16,2.121868,-10.145258,0.021230556,1004.925,0,0
86.2,-2.7631168,-10.383585,0.2863549,1004.8695,0,0
86.24,0.52536917,-10.564714,-0.47115153,1004.9072,0,0
86.28,1.0941341,-10.702944,-0.20602784,1004.87213,0,0
86.32,-2.2613053,-12.585733,3.2074764,1004.8392,0,0
86.36,-2.049464,-10.493252,0.48533377,1004.877,0,0
86.4,-2.9719317000000003,-14.69259,7.7147727,1004.89716,0,0
86.44,-0.2617369,-10.383623,0.7694054,1004.9124,0,0
86.48,-0.6775453,-10.803081,5.333375,1004.8266,0,0
86.52,1.7458543000000002,-11.070009,-0.23428167,1004.8039,0,0
86.56,3.7773051,-11.19394,-0.6935157,1004.8467,0,0
86.6,0.15425079,-11.179642,4.448051,1004.89716,0,0
86.64,4.0354857000000015,-9.8402405,1.0724237,1004.87976,0,0
86.68,3.12258,-10.717288,-0.191659,1004.8693,0,0
86.72,5.3117647,-9.706778,-0.54673624,1004.86694,0,0
86.76,2.5156188,-10.416996,1.7778599999999998,1004.8997,0,0
86.8,3.8444386,-9.763978,2.876245,1004.9074,0,0
86.84,3.0892687000000003,-9.649582,2.6774037,1004.8921,0,0
86.88,3.3904285000000005,-8.376911999999999,2.8951893,1004.85956,0,0
86.92,5.1828938,-6.684786,2.8620522,1004.89496,0,0
86.96,4.155268,-6.5131907,3.690576,1004.8492,0,0
87.0,5.0204496,-4.897329,4.855242700000002,1004.8745,0,0
87.04,5.1495433,-4.4969387,5.712174,1004.8544,0,0
87.08,5.1017730000000014,-3.6580253,5.9394274000000005,1004.8544,0,0
87.12,5.249981,-2.5855508,5.7595234,1004.8544,0,0
87.16,6.0912614000000005,-1.8848677,5.745323,1004.8467,0,0
87.2,5.5511823,-1.2747495,6.384472,1004.8367,0,0
87.24,5.704175,-0.58359975,6.019926,1004.85944,0,0
87.28,5.7328978,-0.23087554,6.526511,1004.862,0,0
87.32,5.517834,-0.17367758,6.891062700000001,1004.87463,0,0
87.36,5.678215,-0.08782728,9.030819,1004.82153,0,0
87.4,4.9181767,1.0370814,7.487398,1004.8392,0,0
87.44,2.9488451,1.4327068,8.476885000000001,1004.9607,0,0
87.48,3.192581,1.7663667,7.979768300000001,1005.0186,0,0
87.52,3.6466131,2.1238596000000003,9.177568,1004.9806,0,0
87.56,2.3512366,1.9951639,8.405856,1004.94775,0,0
87.6,2.379866,2.371723,8.969246,1005.0058,0,0
87.64,2.1886244,2.6386514,8.315892,1004.9505,0,0
87.68,1.2278372,3.5681312000000007,9.750414,1004.9579,0,0
87.72,1.6531904,3.6968298,9.532626,1004.92255,0,0
87.76,1.0604451,4.974267500000002,8.775117,1004.9504,0,0
87.8,0.9695795,3.6301,9.026036,1004.86475,0,0
87.84,1.4714031,4.8360405,9.504206,1004.9152,0,0
87.88,1.7151297,4.6406126,8.159632,1004.9909,0,0
87.92,-0.029544994,3.2583122,8.599926,1004.953,0,0
87.96,1.5095023,4.020962,9.797726,1004.94293,0,0
88.0,0.34796053,2.2239718,8.723011,1005.0058,0,0
88.04,0.87369555,3.9304001,9.442637,1005.03357,0,0
88.08,-1.6739956000000005,3.658708,9.603601,1004.9377,0,0
88.12,-1.4302689,3.873204,9.608333,1004.8216,0,0
88.16,0.194815,4.1162996,8.306367,1004.6881,0,0
88.2,-3.0698404,4.564357,7.913406399999999,1004.4887,0,0
88.24,-3.0316484,3.7731097,6.53569,1004.5667,0,0
88.28,-0.7851902,3.6396475,8.5146675,1004.85724,0,0
88.32,-0.07304889999999999,3.1868255000000003,10.4415655,1004.91785,0,0
88.36,0.6312183000000001,2.9961236,10.152916,1004.814,0,0
88.4,-0.109633505,2.6529307,9.01666,1004.77893,0,0
88.44,1.3673426000000002,3.9113014,10.313889,1004.8067,0,0
