Timestamp,Ax,Ay,Az,P,LPFRMSAcc,LPFPValue,Value,Type
0.0,0.7370424,4.0688167,8.944828999999997,1004.2979,0.02048190850589706,3.61547244,0,0
0.02,1.1194433,5.432051,9.333052,1004.3106,0.06107104826430334,10.4126063472,0,0
0.04,0.47896737,4.7742662000000005,8.52347,1004.3639,0.11704567264232953,19.996778524752,0,0
0.06,-0.028799385,4.659896,8.405008,1004.3611,0.1860583093927672,32.00906461814784,0,0
0.08,0.8649959999999999,5.184218,9.422903,1004.36646,0.26879382461854984,46.12360723364706,0,0
0.1,0.53994155,5.513111,5.938378299999999,1004.2602,0.3578104017231837,62.04450882266104,0,0
0.12,0.66896826,6.685685,7.401307000000001,1004.2729,0.4559541715645181,79.50423967495223,0,0
0.14,0.3247962,4.1641765,9.347145,1004.3209,0.5623116858833179,98.26099783320689,0,0
0.16,1.4097855,5.2938514,6.18456,1004.31335,0.6714371704062402,118.09625780964113,0,0
0.18,0.5159326,4.0926800000000005,6.6769357000000005,1004.3209,0.7817559080156105,138.81310223670377,0,0
0.2,2.9440433999999995,5.3176856,6.9420600000000015,1004.34125,0.8955971646084658,160.23440730440416,0,0
0.22,-0.3636089,2.3147554,2.9414852,1004.2958,1.0007795550442606,182.2008934759284,0,0
0.24,2.4564493,3.639859,7.1172276,1004.2226,1.1074978140295535,204.56975880057377,0,0
0.26,1.7012124,2.4196212000000004,4.5180373,1004.2378,1.2090310248504619,227.21369314974842,0,0
0.28,1.5912507,1.4806101,3.2302766,1004.2604,1.3024856471921415,250.01924168534,0,0
0.30000000000000004,5.1665177,1.404346,4.6032515,1004.3541,1.3950488181188865,272.8858298613215,0,0
0.32,3.5891528,-1.9942086,4.6269207,1004.37933,1.4846729348244143,295.724123774118,0,0
0.34,8.713077,-0.42124408,4.8636384,1004.3187,1.5792786085880386,318.4549807498782,0,0
0.36000000000000004,8.311544,-3.0619159,5.2707953000000005,1004.4273,1.6786098922281174,341.0094663229603,0,0
0.38,7.7809587,-6.055313,2.576916,1004.4124,1.7815170178991868,363.326860336573,0,0
0.4,11.442261,-5.1591997,3.3533561,1004.37445,1.893035306747096,385.35428100978953,0,0
0.42,9.530311,-10.416711,2.30705,1004.3464,2.0144920782679496,407.0460815450084,0,0
0.44,16.819487,-7.1659190000000015,6.478058,1004.3895,2.1548732582582018,428.3633928043658,0,0
0.46,15.328159,-9.968654,3.2681293,1004.35394,2.309762626510747,449.2729350030382,0,0
0.48,19.290592,-9.310868,2.1555414,1004.3162,2.4830533548423843,469.74676224377424,0,0
0.5,21.852533,-0.38310617,-9.46269,1004.26807,2.676735576297724,489.7617127016111,0,0
0.52,9.166909,-10.125948,-1.4426113,1004.30615,2.8667844450898463,509.2992829004298,0,0
0.54,8.1296625,-6.6606603,3.528511,1004.3138,3.0474336574719447,528.3447321896646,0,0
0.56,8.186524,-7.599660000000001,0.9718872,1004.32635,3.2193891371494665,546.8868250057494,0,0
0.5800000000000001,6.666502,-6.817943,1.1281184,1004.34393,3.3796966715395804,564.9174637960214,0,0
0.6,5.743953,-6.069593,1.1517861,1004.3213,3.5267105932535947,582.43119004144,0,0
0.62,5.4379992,-8.724563999999999,5.6589355,1004.3516,3.668306957277921,599.4252320277428,0,0
0.64,6.87667,-5.5738688,2.7425373,1004.3972,3.7994767898614543,615.8990666115399,0,0
0.66,6.3317285000000005,-4.8302846,2.037107,1004.4402,3.918785772133242,631.8540949299816,0,0
0.68,3.8270671,-3.1381555,3.3390644,1004.45026,4.02250847924978,647.2933041464088,0,0
0.7000000000000001,5.0410900000000005,-1.9274492,1.0618111,1004.377,4.11110933008857,662.2208907151166,0,0
0.72,3.836536,-2.346905,2.065501,1004.34924,4.18488349126571,676.6425682646525,0,0
0.74,5.3755827000000025,-3.8722022,5.024499400000002,1004.34924,4.252286813574044,690.5653065656695,0,0
0.76,4.801962400000002,-4.906544,4.039739,1004.36945,4.313092570348895,703.997133044812,0,0
0.78,7.273074,-6.241179,4.214908,1004.36945,4.373054341241613,716.9468352628209,0,0
0.8,6.799823299999999,-6.164912,4.5557804000000015,1004.324,4.431591339185824,729.4237499357073,0,0
0.8200000000000001,5.275025,-2.499429,4.1344147000000016,1004.3441,4.4822282797964945,741.4380650009011,0,0
0.84,7.9134307,-9.248873,4.915587,1004.3263,4.538119720733072,753.0003114385032,0,0
0.86,8.783305,-9.425234,2.6004589,1004.3492,4.59848580804155,764.1215683895897,0,0
0.88,8.768921,-10.507241,4.5841703,1004.3492,4.665269104685988,774.8131305053674,0,0
0.9,9.060445,-10.316579,8.849864,1004.286,4.741436237793623,785.0862971210491,0,0
0.92,2.2204957000000003,-2.7663505,0.29005656,1004.2835,4.799065865566685,794.9527770730299,0,0
0.94,2.0961769,-2.9474785,2.7093337,1004.3545,4.842103497143148,804.4246449611371,0,0
0.96,6.6321607,-0.3783033,4.498933999999998,1004.405,4.879375539032432,813.5139167052084,0,0
0.98,4.6580606,-3.1381385,4.721447,1004.4024,4.909993871999497,822.2323957581311,0,0
1.0,6.3930798,-7.2707424,0.33738372,1004.41003,4.939507487016777,830.5918833325644,0,0
1.02,6.187501,-6.3078965999999985,2.4725962000000004,1004.37476,4.966874257127744,838.6039449093363,0,0
1.04,6.6415386,-6.57959,4.3663535000000016,1004.3823,4.99462084755915,846.2802045968982,0,0
1.06,6.077914,-6.4890347,4.1059976,1004.38983,5.021511996257772,853.6321423082794,0,0
1.08,8.252697999999999,-8.757914999999999,1.0238975,1004.443,5.052297363452263,860.6712335577458,0,0
1.1,7.851165299999999,-9.878056,1.5446793,1004.36957,5.087733083191775,867.4082885969666,0,0
1.12,1.6995267,-12.042071,1.7435215,1004.39246,5.126263704598624,873.8542934466728,0,0
1.14,2.6076622000000005,-8.977175,0.46996415,1004.40247,5.161309300208784,880.0199567674654,0,0
1.16,14.791353,-4.3726797,5.081271599999999,1004.69073,5.2074481962795005,885.9167516613546,0,0
1.18,4.677258,-6.851289,-0.8793465,1004.5769,5.2468083809459225,891.5543361636142,0,0
1.2,4.61031,-7.5662713,-1.0876633,1004.3597,5.281252380826518,896.9418051396219,0,0
1.22,1.1688243,-3.3335679,2.501013,1004.10925,5.30167072361075,902.0879755283196,0,0
1.24,1.8523105,-8.691177,1.4357696000000002,1004.19525,5.319335859074754,907.0027178718711,0,0
1.26,0.9297777,-13.758026,0.22375923,1004.9538,5.344459682576232,911.6980081022944,0,0
1.28,2.4831848,-13.901023,-1.4711603000000002,1005.1865,5.3769279843752456,916.183325120728,0,0
1.3,1.9334799,-12.156463,0.11959717,1004.44824,5.41184556381804,920.4643049317816,0,0
1.32,3.0567029,-10.087776,0.02017181,1004.20795,5.445124596290084,924.548455815074,0,0
1.34,-1.5701747,-7.0181127000000005,1.9991504,1004.213,5.4704417824269225,928.4440038946167,0,0
1.36,2.0767882,-8.881835,-1.0403398,1004.1827,5.492199855640167,932.1587694836804,0,0
1.38,1.5605403,-10.955286,-0.17394646,1004.309,5.51465619917442,935.7008771880354,0,0
1.4,2.4304338,-7.509065,-0.3491222,1004.5845,5.531066355065821,939.0786645977267,0,0
1.42,2.1388383,-4.353605,1.3884016,1004.4758,5.536141218248278,942.298707240378,0,0
1.44,1.8185623,-11.26511,-0.543238,1004.64545,5.544439342701062,945.3683851933597,0,0
1.46,1.1063423,-12.223189,-0.453287,1004.9083,5.557338250412623,948.2950963259178,0,0
1.48,2.6358523,-8.66257,0.4699194,1004.8274,5.567574503604636,951.084654575873,0,0
1.5,1.5986074,-4.205838,-0.44855762,1004.06116,5.5659741776157885,953.7402236650604,0,0
1.52,3.1089962000000004,-16.331957,1.37892,1003.67944,5.579196192003501,956.266465691072,0,0
1.54,2.5975263,-12.823771,-1.1208486999999998,1004.10925,5.598088654243337,958.670887168768,0,0
1.56,3.0945354,-11.150707,0.7350298000000001,1004.23834,5.618729625047027,960.9594768166523,0,0
1.58,0.9818303,-9.353715,0.19057032,1004.3091,5.6362927135794285,963.1377332729834,0,0
1.6,0.9053237,-9.558677,0.9149315999999998,1004.5722,5.651567452255309,965.2116047580147,0,0
1.62,-0.13670728,-5.154376999999998,0.30419025,1004.37976,5.655454140918508,967.1850829610593,0,0
1.64,0.6041306,-5.7740290000000005,0.33259377,1004.29144,5.650615173740983,969.0624311866096,0,0
1.66,3.3190298,-12.6760025,0.15268366,1004.28143,5.6532338360010685,970.8480444744343,0,0
1.68,4.126786,-7.7902809999999985,0.20002496,1004.28894,5.653524116489963,972.5461995994482,0,0
1.7,3.0417392000000003,-12.566371,0.62611854,1004.304,5.660332383032667,974.1610175493524,0,0
1.72,4.012006,-10.597781,0.5124897,1004.3218,5.669547700311469,975.6964495067099,0,0
1.74,1.8323874,-9.053416,0.47461194,1004.337,5.676504032527308,977.1562631660072,0,0
1.76,1.9996487,-9.015283,0.84862703,1004.3725,5.6814894249737735,978.5441329679643,0,0
1.78,2.8169618,-10.273652,0.29943296,1004.36975,5.6875914323803975,979.8634269462892,0,0
1.8,2.888627,-9.849428,0.4367278,1004.39264,5.693861039947463,981.1174602725304,0,0
1.82,3.7680833,-10.445248,1.0853387,1004.3901,5.702092444705937,982.309305622616,0,0
1.84,1.9134856,-5.993283,-0.8178949999999999,1004.3749,5.702024508330385,983.44185631371,0,0
1.86,2.05685,-9.310805,1.3646626,1004.41534,5.701457855617527,984.5180826456316,0,0
1.88,3.1370542,-9.38707,0.5740143,1004.39764,5.7010378053058375,985.540602638993,0,0
1.9,2.8502321,-9.60633,-0.2071656,1004.3952,5.700974060776618,986.5119778556267,0,0
1.92,2.8549821,-9.592031,0.10056803,1004.39764,5.70119630083664,987.4346733807644,0,0
1.94,2.955326,-9.501465,0.08162748,1004.38245,5.701550718152566,988.310979142605,0,0
1.96,3.06045,-9.325102,0.03428053,1004.38495,5.701737422335906,989.1431492088541,0,0
1.98,3.146457,-9.253602,0.0058713946,1004.3724,5.701690836199367,989.9332799822397,0,0
2.0,3.4427733,-9.172569,0.12896300000000002,1004.3723,5.701488827521822,990.6834200056672,0,0
2.02,3.696071,-8.953307,0.34200835,1004.38495,5.70092992620135,991.3955692383473,0,0
2.04,3.428374,-9.172569,0.20470804,1004.3824,5.700270160384848,992.0715768910857,0,0
2.06,3.2571478,-9.396618,0.11956625,1004.3698,5.6998382594377,992.7131708562372,0,0
2.08,3.1041982000000004,-9.425217,0.23792675,1004.3799,5.699568216017842,993.3220835087624,0,0
2.1,2.9130092,-9.3823185,0.23319262,1004.3826,5.699235981638299,993.8999365879024,0,0
2.12,2.927353,-9.439517,0.24739623,1004.3724,5.698973054194911,994.4482284369141,0,0
2.14,2.9942740000000003,-9.396618,0.31841263,1004.36475,5.698733214207327,994.9683985923276,0,0
2.16,2.9942777,-9.286986,0.23792809,1004.3774,5.698292995843782,995.4618933467192,0,0
2.18,3.0134006,-9.348952,0.24739726,1004.3547,5.697812531012263,995.9299594156508,0,0
2.2,3.1281197,-9.406151,0.1574439,1004.3723,5.697481540755341,996.3739350202626,0,0
2.22,3.0325272,-9.363253,0.17164743,1004.3774,5.6971376540910175,996.7950443384246,0,0
2.24,3.1185672,-9.348953,0.10536611,1004.3572,5.696809279746013,997.1943602923344,0,0
2.26,3.2285066,-9.220257,0.09589763,1004.3749,5.696316400898451,997.5730458121564,0,0
2.28,3.2093914,-9.282222,0.072226,1004.37994,5.6957880963422856,997.9321571565476,0,0
2.3,3.1759365,-9.282222,0.034351125,1004.3419,5.695207348214573,998.2725430146879,0,0
2.32,3.1329215,-9.358486,-0.027195845,1004.38257,5.694703787804996,998.5953040560879,0,0
2.34,3.142485,-9.406152,-0.03666431,1004.38495,5.694370567585598,998.9013384376668,0,0
2.36,3.0373333,-9.439518,-0.012991939,1004.3648,5.694186734208372,999.1914188788546,0,0
2.38,2.9608603,-9.47765,-0.017725993,1004.3648,5.6941630838567985,999.4663581287242,0,0
2.4,2.9895425,-9.382319,-0.03192887,1004.3699,5.694110108901974,999.7269472006456,0,0
2.42,2.951308,-9.391851,-0.008256499,1004.37744,5.694026226589386,999.9739454786728,0,0
2.44,2.9704309,-9.406153,-0.031928163,1004.3673,5.693955731591459,1000.2080092334143,0,0
2.46,2.9465356,-9.348954,-0.012990229,1004.3799,5.693768909754209,1000.429846773864,0,0
2.48,3.0421352,-9.410919,-0.04139633,1004.38257,5.693663253269388,1000.6400922282193,0,0
2.5,2.874846,-9.4347515,0.0012136735,1004.3723,5.693572621537451,1000.839301059666,0,0
2.52,2.7935932,-9.520551,-0.046130005,1004.3952,5.693618282671211,1001.0281232193176,0,0
2.54,3.1473024,-9.272689,0.0248864,1004.4052,5.693514490243013,1001.2071239559959,0,0
2.56,3.2901666,-9.258376,0.11479159,1004.3699,5.6933496793245695,1001.3766750006836,0,0
2.58,3.3809638,-9.263143,0.048508175,1004.39014,5.6932036725593225,1001.537338777767,0,0
2.6,3.5100021,-9.139213,0.16213235,1004.3899,5.6929301813126525,1001.689570511598,0,0
2.62,3.5769005,-9.215476,0.14792745,1004.3927,5.692742492571387,1001.8338137377693,0,0
2.64,3.4382696000000004,-9.391839,0.30889568,1004.38245,5.692880244452858,1001.9704421429582,0,0
2.66,3.2183807,-9.229774,0.17633072,1004.39264,5.6928274374791386,1002.0998869140684,0,0
2.68,3.2279215,-9.163043,0.25207946,1004.3876,5.692485601264048,1002.2225000809308,0,0
2.7,3.0080347,-9.368004,0.37990698,1004.37213,5.692156018327893,1002.3385797428792,0,0
2.72,3.1466303,-9.482401,0.07216892400000001,1004.3927,5.692139183944787,1002.4485425651023,0,0
2.74,2.945862,-9.544366,0.0863706,1004.3495,5.692394392526598,1002.5525491615844,0,0
2.76,2.7068539,-9.572965,0.048493743,1004.3899,5.69280467853384,1002.6510638532542,0,0
2.78,3.0223033,-9.410901,0.08636737,1004.3647,5.693218025196616,1002.7442805249416,0,0
2.8,3.0461845000000003,-9.348936,0.22839785,1004.36725,5.6935300539743485,1002.8324894661553,0,0
2.82,3.175228,-9.329869,0.37042898,1004.3799,5.693807542715378,1002.9160015645332,0,0
2.84,3.2994797,-9.253604,0.19051947,1004.37225,5.693978169818926,1002.9950353490276,0,0
2.86,3.1082695,-9.272669,0.17158023,1004.3748,5.693960594644055,1003.0698367537508,0,0
2.88,3.1608307,-9.406133,0.13370347,1004.36957,5.694073274597355,1003.1406103146504,0,0
2.9,3.0556617000000004,-9.3966,0.12896785,1004.35956,5.694213091642528,1003.2075340519284,0,0
2.92,2.9839413,-9.444264,0.05321525,1004.37994,5.694423766069478,1003.2708885276004,0,0
2.94,2.9695854,-9.401365,0.15737063,1004.3671,5.694604594277951,1003.3308149036047,0,0
2.96,2.9217708,-9.277434,0.17630671,1004.3671,5.694483560065522,1003.3874964757891,0,0
2.98,2.9456565,-9.320333,0.2804624,1004.38995,5.6942012456238675,1003.4411891456588,0,0
3.0,3.0221155,-9.234534,0.13842861,1004.3595,5.693650022360793,1003.4919379078308,0,0
3.02,2.9790752,-9.434729,0.020066466,1004.35205,5.693229921701904,1003.5398759176179,0,0
3.04,3.1128917,-9.315565,0.08634652,1004.3924,5.692778331062709,1003.5853030297624,0,0
3.06,3.0515883,-9.310819,0.15270450000000002,1004.3848,5.692252827642634,1003.6283206151462,0,0
3.08,3.2284577000000003,-9.29652,0.2473941000000001,1004.405,5.6917572898778745,1003.6691269993767,0,0
3.1,3.128098,-9.449049,0.15270755,1004.357,5.691519226928402,1003.7076598632852,0,0
3.12,2.9751608,-9.406151,0.1006306,1004.37213,5.691325441057672,1003.7440995943268,0,0
3.14,3.0707684,-9.329886,0.08169401,1004.35693,5.6910812880864965,1003.7785039301357,0,0
3.16,2.9608536,-9.44905,0.105367914,1004.40247,5.690959915067575,1003.8111498791077,0,0
3.18,3.032566,-9.401385,0.1763854,1004.3671,5.690900325270048,1003.8419972600548,0,0
3.2,3.0851614,-9.296522,0.17165262,1004.3595,5.6907222425877935,1003.8711170157233,0,0
3.22,3.0708344,-9.401386,0.07696564,1004.39484,5.690635308562095,1003.8987326345754,0,0
3.24,2.9035556,-9.396621,0.08170137,1004.3846,5.690514564548128,1003.9248829179086,0,0
3.26,3.104329,-9.358488,0.07223454,1004.3695,5.69041604563233,1003.9495899297574,0,0
3.28,3.0852222,-9.449053,0.020157231,1004.3569,5.690503399102602,1003.9728873616797,0,0
3.3,2.683733,-9.625417,-0.017716717,1004.3645,5.69086393224527,1003.9948827780245,0,0
3.32,3.0709147,-9.120161,-0.0035118684,1004.3492,5.690697038644161,1004.0155934699058,0,0
3.34,3.2430074,-9.320357,0.26161660000000003,1004.34424,5.690581440460213,1004.03507656476,0,0
3.36,3.6540868,-9.186894,0.18113321,1004.3645,5.690546249790436,1004.0534777517404,0,0
3.38,3.3529756,-9.186895,0.13852507,1004.3745,5.690357841329013,1004.07089272065,0,0
3.4,3.2287164,-9.2917595,0.11958887,1004.3668,5.690152861160548,1004.0873458533839,0,0
3.42,3.2048306,-9.382324,0.28529426,1004.3643,5.690102792482983,1004.1028808763956,0,0
3.44,3.2239695,-9.29176,0.2994993,1004.3769,5.690025697261093,1004.1175940915739,0,0
3.46,3.166624,-9.29176,0.2995004000000001,1004.3821,5.689886257148976,1004.1315469097757,0,0
3.48,2.9467728,-9.401392,0.3137054,1004.3746,5.689767648744445,1004.1447506110637,0,0
3.5,2.7508173,-9.444291,0.25689405,1004.3491,5.689631952397777,1004.1571530593216,0,0
3.52,2.8034074,-9.410926,0.20481674,1004.3466,5.68944347873346,1004.1687938715892,0,0
3.54,2.9038007,-9.425225,0.11486465,1004.3695,5.689294949630402,1004.1798022353706,0,0
3.56,2.9180005,-9.401389,0.039101347,1004.3693,5.6891424098259975,1004.1902114175607,0,0
3.58,2.9514685000000003,-9.463355,0.015430214,1004.33136,5.689130383684871,1004.1999171058408,0,0
3.6,2.9180193,-9.415689,0.18586963,1004.382,5.689130930380744,1004.2091485504236,0,0
3.62,2.9610484,-9.482421,0.06277612,1004.3945,5.689298360476246,1004.217972720076,0,0
3.64,2.9419405,-9.348958,0.26162216,1004.36444,5.689342913272292,1004.2262970385884,0,0
3.66,3.0471032000000005,-9.387092,0.18113792,1004.4021,5.68941697636746,1004.2342852970868,0,0
3.68,2.9085002,-9.387092,0.076982066,1004.3971,5.689426914005648,1004.2419298552268,0,0
3.7,3.0710232000000004,-9.348959,0.1337958,1004.3819,5.6894086145242015,1004.2491884793204,0,0
3.72,3.0088952,-9.429991,0.20481274,1004.3771,5.689488400909339,1004.256062681044,0,0
3.74,2.9515483,-9.425224,0.15746966,1004.36926,5.689607400359592,1004.262544236035,0,0
3.76,2.9085398,-9.377559,0.2048146,1004.39716,5.689641270148558,1004.2687559547752,0,0
3.78,2.846413,-9.434757,0.27109724,1004.3944,5.6896790151574015,1004.2746969480173,0,0
3.8,2.8464224,-9.410925,0.19534764,1004.36926,5.689668920792228,1004.2802868366327,0,0
3.82,2.7221577,-9.434758,0.16694212,1004.3845,5.689589825110196,1004.2856012296016,0,0
3.84,2.7604063,-9.396626,0.28530318,1004.3868,5.689401856977294,1004.2906613428024,0,0
3.86,2.726957,-9.477657,0.2474288,1004.37177,5.68925849455616,1004.2954244499924,0,0
3.88,2.755646,-9.487191,0.23322652,1004.37427,5.6891899294744075,1004.2999169754856,0,0
3.9,2.6887395,-9.477658,0.11013301,1004.3691,5.689125844153912,1004.3041356298996,0,0
3.92,2.7795653,-9.458592,0.19061874,1004.38434,5.689082800072223,1004.3081519686723,0,0
3.94,2.8703918,-9.458592,0.22849491,1004.36896,5.689114185259287,1004.3119197145244,0,0
3.96,2.8656216,-9.49196,0.14801091,1004.38184,5.689271538351389,1004.3155006077873,0,0
3.98,2.985127,-9.377562,0.21429351,1004.3589,5.6893886427581535,1004.3188209228862,0,0
4.0,3.028155,-9.301297,0.3421234,1004.36664,5.689353863373718,1004.3219269019853,0,0
4.02,3.037725,-9.377562,0.2663738,1004.35144,5.689336959275582,1004.3247775922699,0,0
4.039999999999999,3.0329554,-9.358496,0.29004675,1004.374,5.689296562321537,1004.3274736628732,0,0
4.06,2.9799182,-9.377551,0.24739505,1004.374,5.689237156024054,1004.330023405672,0,0
4.079999999999999,2.8078368,-9.491948,0.17637822,1004.3513,5.6892803984212215,1004.3323529541487,0,0
4.1,2.8508468,-9.472882,0.1290334,1004.39185,5.6894002549518765,1004.3346255325478,0,0
4.119999999999999,2.9273145,-9.382318,0.11482939,1004.3107,5.689453618497328,1004.3365474509039,0,0
4.14,2.917746,-9.534847,0.13850059,1004.3537,5.689745665874258,1004.3383074071402,0,0
4.159999999999998,2.8938384,-9.363251,0.072218135,1004.35364,5.689890610903423,1004.3399177018048,0,0
4.18,2.87949,-9.458581,0.05327969,1004.37897,5.690085482545728,1004.3414811464439,0,0
4.199999999999998,3.0276556,-9.315584,0.110091776,1004.38916,5.690133681444602,1004.34303425,0,0
4.22,2.8555737,-9.472881,0.062746935,1004.40436,5.690256341716428,1004.344627345002,0,0
4.239999999999998,2.826886,-9.468114,0.0011988617,1004.37897,5.69041731703866,1004.3461586373038,0,0
4.26,2.7312818,-9.48718,-0.06981799,1004.3537,5.690594195562612,1004.3475388360872,0,0
4.2799999999999985,2.8890057,-9.32035,-0.04141241,1004.3992,5.690545801150686,1004.3489443599224,0,0
4.3,3.151887,-9.377548,-0.07928836,1004.38654,5.6905800914336275,1004.3503216250875,0,0
4.3199999999999985,3.0658414,-9.382316,-0.09349245,1004.37646,5.690640720407174,1004.3516326747373,0,0
4.34,3.051493,-9.391848,-0.11716527,1004.4194,5.6907345262254525,1004.3530350805783,0,0
4.3599999999999985,2.9176495,-9.410913,-0.12663491,1004.40924,5.690811151402673,1004.3544765840896,0,0
4.38,3.0419173,-9.353715,-0.10769795,1004.389,5.690836730394052,1004.3558745808892,0,0
4.4,3.132724,-9.248851,-0.0035419092,1004.4167,5.690668490275832,1004.3573288223703,0,0
4.42,3.0180001,-9.491945,-0.17398129999999998,1004.41174,5.690738446722831,1004.3588096703824,0,0
4.44,3.1135871,-9.425212,-0.17398211,1004.42444,5.690947948043347,1004.3603544168726,0,0
4.46,3.0801196,-9.334648,-0.22132693,1004.394,5.691081454446256,1004.3618404789706,0,0
4.48,3.5055134,-9.27745,-0.09349884,1004.3738,5.691325883660747,1004.3631966177161,0,0
4.5,3.1040008,-9.11062,-0.0319524,1004.42706,5.6910581252794925,1004.364624810088,0,0
4.52,3.2617261,-9.320347,-0.14084449999999998,1004.4092,5.690859783041638,1004.3660472315512,0,0
4.539999999999999,2.7837365000000003,-9.4728775,-0.20712702,1004.44434,5.6907234842167504,1004.3675859371226,0,0
4.56,2.7741687,-9.406145,-0.055626746,1004.40155,5.690499639469408,1004.3690678079918,0,0
4.579999999999999,2.879315,-9.425211,-0.02722117,1004.42444,5.690299787742562,1004.3705765289833,0,0
4.6,2.692894,-9.4728775,-0.06509724,1004.4116,5.69010767054533,1004.3720573193466,0,0
4.619999999999999,3.0274713,-9.391844,-0.14558294,1004.3812,5.689965475078307,1004.3733986593622,0,0
4.64,2.6976562000000004,-9.482409,0.053261254,1004.38885,5.689847121108066,1004.3746394922264,0,0
4.659999999999998,2.6785285,-9.506242,0.06272929,1004.4014,5.68978720670567,1004.3758322299733,0,0
4.68,2.8219137,-9.296514,-0.008287596999999999,1004.42676,5.689444052300487,1004.3770694730181,0,0
4.699999999999998,2.8553636000000004,-9.458576,0.0059148353,1004.3886,5.68919439408367,1004.3782042108696,0,0
4.72,3.0465467,-9.401377,0.14321174,1004.4039,5.689035614612807,1004.3792993700764,0,0
4.739999999999998,3.060877,-9.496708,0.0011788048,1004.42664,5.6891532504048925,1004.3804374790193,0,0
4.76,3.2425015,-9.339412,0.06272529,1004.4088,5.68932489189325,1004.3815452171564,0,0
4.7799999999999985,3.2424927,-9.215481,0.20002219,1004.3961,5.68930430930629,1004.3825764117928,0,0
4.8,3.2185857,-9.234547,0.25209996,1004.38855,5.6891374264445815,1004.383509080291,0,0
4.8199999999999985,3.0417237,-9.3155775,0.29470876,1004.40155,5.688886358828684,1004.3843981334868,0,0
4.84,2.907881,-9.396609,0.20475428,1004.4191,5.68863323833864,1004.3853086276104,0,0
4.8599999999999985,2.8074954,-9.472875,0.14794058,1004.38873,5.688468312380762,1004.3861254571583,0,0
4.88,2.6334412,-9.463408,0.17186873,1004.4165,5.688263920972067,1004.3869565561013,0,0
4.9,2.5474615000000003,-9.534909,0.28549963,1004.37067,5.688127208413112,1004.3876322835252,0,0
4.92,2.399352,-9.611176,0.25236472,1004.38074,5.68812535523004,1004.3882045440564,0,0
4.94,2.4519904,-9.539679,0.24763584,1004.4035,5.688125273115977,1004.3887652571028,0,0
4.96,2.4950655,-9.568278,0.23817225,1004.3759,5.688206231946242,1004.3892143882256,0,0
4.98,2.423429,-9.644546,0.18136492,1004.40857,5.688472623956798,1004.3896809206875,0,0
5.0,2.5716636000000004,-9.568281,0.16243288,1004.4139,5.688825349426932,1004.3901803374569,0,0
5.02,2.6673162,-9.472953,0.048812337,1004.4114,5.6891122800679925,1004.3906980128993,0,0
5.039999999999999,2.2658734000000003,-9.792314,-0.1594959,1004.3961,5.689778351925478,1004.3911748780736,0,0
5.06,3.197996,-9.248928,-0.0032550021999999995,1004.42896,5.690223941374374,1004.3917322625804,0,0
5.079999999999999,2.944727,-9.353793,0.58381677,1004.41644,5.690551100730529,1004.3923137153856,0,0
5.1,2.6149771,-9.51109,0.21927276,1004.38574,5.6908612452958405,1004.3928038217086,0,0
5.119999999999999,2.5051024,-9.77802,-0.08845800000000001,1004.4289,5.691628606183367,1004.3933668258977,0,0
5.14,2.1514575,-9.68269,0.063048504,1004.3958,5.692433107738826,1004.3938730558259,0,0
5.159999999999998,2.43831,-9.430064,0.1719457,1004.4213,5.692898982325818,1004.3944190975895,0,0
5.18,2.4288107999999995,-9.596895,0.16248244,1004.4313,5.693394627056392,1004.3950343513403,0,0
5.199999999999998,2.2042131,-9.534931,0.039392762000000005,1004.4034,5.693677156264219,1004.39560810589,0,0
5.22,2.3906898,-9.639797,-0.060023826,1004.40356,5.694072842223668,1004.3961437022288,0,0
5.239999999999998,2.4959025,-9.649331,-0.11683147,1004.4034,5.694641046245666,1004.3966430778256,0,0
5.26,2.3716843,-9.654099,-0.06474784,1004.42114,5.69530513935443,1004.3971725150227,0,0
5.2799999999999985,2.1901124,-9.558769,-0.25885287,1004.44635,5.695778277349576,1004.397817364676,0,0
5.3,2.35269,-9.50634,-0.6849434,1004.4538,5.696095930176426,1004.398588691317,1,1
5.3199999999999985,2.9311032000000004,-9.120249,-0.5902501,1004.4135,5.695819417133403,1004.399323916248,1,1
5.34,4.0305185,-8.815191,-0.77488637,1004.4614,5.695280768232063,1004.4001970348987,1,1
5.3599999999999985,4.1022763,-8.786593,-1.1441643999999995,1004.45886,5.694596571107457,1004.4011797092128,1,1
5.38,3.5654573,-8.867589,-0.56670254,1004.4765,5.693391335613033,1004.4023191532837,1,1
5.4,3.5367775000000004,-8.81039,-0.1879503,1004.4034,5.691566488354333,1004.4033298571127,1,1
5.42,2.924961,-8.724591,0.058238633,1004.3782,5.688590465181212,1004.4041324475304,1,1
5.44,3.125712,-8.838989,0.754196,1004.37317,5.68503124181249,1004.4047301516124,1,1
5.46,3.7805436,-9.453876,2.2786741000000004,1004.3428,5.683106092494612,1004.4050353343936,1,1
5.48,2.7337654,-9.272746,2.979366,1004.3327,5.6819716067773545,1004.4050445866952,1,1
5.5,1.706106,-10.268956,2.548535,1004.36053,5.682789253597642,1004.4048925095168,1,1
5.52,3.8809154,-10.340455,2.8704746,1004.3476,5.686772388980407,1004.4045518810876,1,1
5.539999999999999,4.22984,-10.864776,2.3260176,1004.34,5.694530061858982,1004.4040185150355,1,1
5.56,2.8150167,-10.059228,2.3212836,1004.3628,5.703125009291828,1004.403398846138,1,1
5.579999999999999,2.7003005,-9.005818,1.3459958,1004.4031,5.7099290483259715,1004.402850230854,1,1
5.6,2.1745205000000003,-8.267002,1.0998065,1004.3829,5.713298917410662,1004.402293653558,1,1
5.619999999999999,1.5196861000000002,-8.619727000000001,1.1613537,1004.3955,5.714060171177371,1004.4017774047064,1,1
5.64,3.465065,-8.791323,1.3601986,1004.4233,5.714005152790197,1004.401398728564,1,1
5.6599999999999975,5.4104433,-8.224103,0.20500378,1004.4485,5.713851393690853,1004.4012336949021,1,1
5.68,8.005877,-8.238402,0.54114646,1004.3879,5.717048706892163,1004.4010398698564,1,1
5.6999999999999975,6.978217,-9.063017,-1.5846014,1004.451,5.723293505081473,1004.4010484625146,1,1
5.72,7.986753999999999,-8.4576645,-1.6698208,1004.4713,5.732633548142237,1004.4013089605223,1,1
5.7399999999999975,5.888419,-8.672158999999999,-2.4131227,1004.44855,5.7426059613941876,1004.4017092043043,1,1
5.76,3.5941124,-14.244264,-0.5477671,1004.441,5.761299471560931,1004.4022043065744,1,1
5.7799999999999985,-0.005081117,-17.256726999999998,1.3317914,1004.3573,5.793050468976798,1004.4024801234366,1,1
5.8,5.2861605,-11.250866,-0.54776734,1004.5269,5.8261127311564325,1004.4031717467717,1,1
5.8199999999999985,7.341475,-9.024884,-0.25896874,1004.63275,5.858538972688169,1004.404609346862,1,1
5.84,4.119886,-8.92002,0.34703493,1004.6001,5.886534687147229,1004.4065833766533,1,1
5.8599999999999985,0.9078564,-6.8227350000000015,0.42751968,1004.63043,5.904413524701674,1004.4091334772207,1,1
5.88,-1.4485881,-6.47001,0.3328315,1004.6253,5.9127533232138045,1004.4121649455644,1,1
5.9,-1.5059471000000002,-5.097241,0.6784429,1004.5975,5.909973212475238,1004.4155107571887,1,1
5.92,-0.6455835999999999,-4.501422,-1.3478825,1004.5066,5.896099012772567,1004.418795037614,1,1
5.94,5.066281,-6.8989997,-5.485752,1004.4457,5.8837444003083,1004.4217938856624,1,1
5.96,18.053007,-11.370029,-5.481018,1004.37744,5.897430600247122,1004.4242839938097,1,1
5.98,9.387222,-9.239379,-7.763001400000001,1004.3245,5.920070343900348,1004.4261250309908,1,1
6.0,2.341789,-12.876262,-2.0817156000000003,1004.332,5.946306343476111,1004.4274129213323,1,1
6.02,0.5302418999999999,-12.108846,-0.7371446999999999,1004.14264,5.9733201997249035,1004.4275257187213,1,1
6.039999999999999,3.8235254,-6.798902,3.4670064,1004.1022,5.993427585678318,1004.426454213907,1,1
6.06,-0.6742712,-7.5996833,0.10084462,1004.188,6.005477211682893,1004.424648997083,1,1
6.079999999999999,7.0594497,-9.077316,5.3986435,1004.2361,6.020908266879848,1004.4223751311076,1,1
6.1,5.214444599999998,-8.705524,-0.7276765000000001,1004.36206,6.03401371218117,1004.42014880866,1,1
6.119999999999999,0.9699777,-9.739867,1.7910267,1004.39264,6.044553084682553,1004.418082598434,1,1
6.14,4.597847,-8.824689,1.6300569,1004.4025,6.053062974973527,1004.416200797724,1,1
6.1599999999999975,3.4745922,-9.553971,1.3033828,1004.4278,6.060094240764317,1004.4145797957448,1,1
6.18,3.0444086,-9.658835,1.8525738,1004.35706,6.065889141977771,1004.4129404071311,1,1
6.1999999999999975,3.6371033,-8.557761,1.1424128,1004.34955,6.06864438940381,1004.4112636378868,1,1
6.22,5.3339324,-8.638793,-1.1158983,1004.4404,6.070461106077517,1004.4098869354857,1,1
6.2399999999999975,7.0594397,-8.581594,0.8299419,1004.4151,6.073373155308197,1004.4086892482763,1,1
6.26,5.9808526,-9.125022,-0.61390066,1004.5415,6.076794789217472,1004.4081090905644,1,1
6.2799999999999985,7.0993633,-9.196521,-2.5928786,1004.47833,6.082683225718327,1004.4078492584842,1,1
6.3,6.535381,-9.28232,-2.3088112,1004.4127,6.090066756371978,1004.4076371335277,1,1
6.3199999999999985,3.3616257000000007,-12.404416,-1.3193173,1004.4278,6.101519053509544,1004.4075222862352,1,1
6.34,1.2920092,-17.857357,4.423518700000002,1004.2786,6.128004636860965,1004.4069566869373,1,1
6.3599999999999985,8.490431,-10.71229,-3.6297,1004.49084,6.15874148265625,1004.4067589033244,1,1
6.38,5.5365480000000025,-10.02114,1.9900417,1004.6574,6.187881922540676,1004.4074864496724,1,1
6.4,3.5864227,-9.005864,1.2798842,1004.6245,6.211676895135684,1004.4089105584063,1,1
6.42,0.58952206,-5.035323,1.6065614,1004.6548,6.221393728584522,1004.4110541028737,1,1
6.44,-1.8529236,-5.821806,0.85379434,1004.6702,6.2204043885225815,1004.4138810639945,1,1
6.46,-2.0727580000000003,-5.569179,0.40402922,1004.5691,6.209516306873827,1004.4169377550104,1,1
6.48,-1.3700902,-6.4557595,-1.6080894,1004.4201,6.1916595719391525,1004.4196500312739,1,1
6.5,9.4562025,-12.151795,-10.31939,1004.3215,6.19211731299384,1004.421693258468,1,1
6.52,12.802101,-10.72183,-4.567085700000002,1004.2658,6.206212728468504,1004.4229374382865,1,1
6.539999999999999,5.3217444,-9.072601,-2.0294414,1004.3695,6.21859000558291,1004.4238444207956,1,1
6.56,-2.1108136,-18.624783,-1.2009173999999998,1004.1419,6.246178224575273,1004.4236308306264,1,1
6.579999999999999,5.8189154,-5.974342,8.873899,1004.0964,6.273379998991232,1004.4222640713623,1,1
6.6,2.559126,-4.7350379999999985,-0.5191564999999999,1004.2277,6.286070246389557,1004.4203559722197,1,1
6.619999999999999,1.8230699,-9.635059,3.4340746,1004.2963,6.296248576958785,1004.4182233743173,1,1
6.64,5.312363,-9.001108,1.2799237,1004.40967,6.30446169605767,1004.4163082186632,1,1
6.6599999999999975,0.58995384,-10.087884,-0.7511325,1004.5183,6.3100837869017425,1004.41498315754,1,1
6.68,3.1137269,-9.897223,2.3167653,1004.5084,6.314431240169146,1004.4141486341645,1,1
6.6999999999999975,3.9119904,-9.105975,-0.16879405,1004.4554,6.316142737728376,1004.4135597542266,1,1
6.72,2.884367,-8.924846,1.2467961,1004.4349,6.314583026841701,1004.4131162447984,1,1
6.7399999999999975,3.8929398,-8.529223,1.5971452,1004.4172,6.310239995275923,1004.4127390613866,1,1
6.76,4.805081,-8.109746000000001,-0.53814465,1004.48553,6.303309908860988,1004.4126678295028,1,1
6.7799999999999985,5.1922474,-8.657900999999999,-1.5181663,1004.55365,6.295713559632538,1004.413112424824,1,1
6.8,5.92834,-8.757997999999999,0.76855147,1004.46277,6.288376229473193,1004.4136840365204,1,1
6.8199999999999985,7.175871000000001,-9.754209,-3.3125052000000004,1004.52075,6.2853484293541335,1004.4145745500841,1,1
6.84,5.4073462,-9.611213,-2.4177024,1004.53326,6.283511266336013,1004.4157886754884,1,1
6.8599999999999985,4.967606,-13.824848,3.4861004,1004.41455,6.290648381925889,1004.4168570174639,1,1
6.88,-0.008166358,-21.317875,3.6328673,1004.35144,6.319255552179588,1004.4175655031706,1,1
6.9,13.270132,-8.414807000000001,-4.851186,1004.58887,6.3559639044561065,1004.4188082173296,1,1
6.92,5.7084837,-10.00207,1.450307,1004.56116,6.389643448542709,1004.4204187459784,1,1
6.94,1.3254063,-7.9000187,2.018436,1004.58636,6.4135697609394136,1004.4224391976063,1,1
6.96,0.07310012,-5.1211160000000016,1.8622009,1004.6419,6.422949137607398,1004.425014527554,1,1
6.98,-1.0597107,-5.39281,2.5108147,1004.6546,6.420672854920513,1004.4281165967959,1,1
7.0,-2.895153,-6.9657740000000015,-0.3440313,1004.4827,6.4112422114158845,1004.4310540854301,1,1
7.02,-0.596065,-8.615002,-1.2246305,1004.30066,6.397957158092638,1004.4331802316797,1,1
7.039999999999999,8.863171000000003,-13.596054999999998,-11.043785,1004.25775,6.403987976149831,1004.4344273456717,1,1
7.06,10.316233,-7.013439,-0.8222056000000001,1004.30585,6.412246455576055,1004.4350664171506,1,1
7.079999999999999,6.3059797,-9.792343,0.13887885,1004.39166,6.420669362130878,1004.4354748376076,1,1
7.1,3.820484200000001,-17.256767,-3.5444875,1004.1669,6.44246485521938,1004.434868848508,1,1
7.119999999999999,5.1683910000000015,-8.982027,0.9579314,1004.2198,6.4601611284016345,1004.4335591486847,1,1
7.14,-3.3157578,-8.962962,-1.750148,1004.2805,6.472734371478754,1004.4318508849859,1,1
7.1599999999999975,0.13048287,-9.568314,3.4340255,1004.2629,6.481673375430825,1004.4297332399956,1,1
7.18,7.4770436,-8.410041,4.7170489999999985,1004.40686,6.491598956380639,1004.4277797452182,1,1
7.1999999999999975,0.77098167,-11.02688,-0.31562263,1004.4928,6.499983699115052,1004.42628771015,1,1
7.22,2.6685662,-8.88193,3.8411849,1004.4572,6.504856437272563,1004.4250806322071,1,1
7.239999999999997,2.4582574,-8.605471000000001,0.5128987,1004.4749,6.504376633024818,1004.4241934078611,1,1
7.26,2.3301466,-8.767555999999999,1.5592883999999998,1004.43445,6.499669039804232,1004.4234463801604,1,1
7.2799999999999985,2.5404985,-9.12505,1.2373526,1004.3788,6.491965258626082,1004.4226255795157,1,1
7.3,3.8215265,-8.97252,1.0101049000000002,1004.4243,6.482165633994746,1004.4219063479798,1,1
7.3199999999999985,4.500299,-9.74947,-0.43861917,1004.45215,6.472508035365014,1004.4213797121415,1,1
7.34,5.226867,-8.662696,1.38413,1004.4697,6.461898115134331,1004.4210883297516,1,1
7.3599999999999985,3.697371,-8.920092,1.3273209,1004.485,6.449518727939893,1004.4210609462848,1,1
7.38,4.4430575,-9.768539,1.2184331,1004.485,6.4378103451852144,1004.4212669308464,1,1
7.399999999999999,5.6380525000000015,-10.912514,-0.15454026,1004.51276,6.42982033143476,1004.4217783138542,1,1
7.42,4.0464129999999985,-11.217574,-2.483864,1004.5556,6.424930755971621,1004.42271192995,1,1
7.439999999999999,2.8323857999999995,-10.092669,-1.9725446,1004.5252,6.419650586184837,1004.4239058301844,1,1
7.46,-0.22665045,-9.844808,0.69292885,1004.4621,6.412392366526929,1004.4250982594432,1,1
7.479999999999999,0.45690465,-14.2395735,2.1511295,1004.52295,6.412841658059621,1004.4265041562018,1,1
7.5,1.7188109,-12.456882,-2.445974,1004.5883,6.416778716580692,1004.4283288716156,1,1
7.52,3.353542,-10.564561,-1.4990897,1004.60864,6.420404613249429,1004.4305903102173,1,1
7.539999999999999,2.622275,-8.30998,-0.3817661,1004.5252,6.418623878248497,1004.432929112249,1,1
7.56,0.82510936,-5.8361382000000015,0.56038415,1004.452,6.406249433922612,1004.4350643329201,1,1
7.579999999999999,0.49055862,-6.1459655999999985,-0.14977334,1004.4163,6.385071433941097,1004.4368834623068,1,1
7.6,0.046067297,-7.523500999999999,-1.2386836,1004.3911,6.359220411173784,1004.438326024568,1,1
7.619999999999999,1.8098682,-11.007855,-2.5359056,1004.3636,6.33726336632866,1004.439331658894,1,1
7.64,1.5517993,-13.624695999999998,-9.268226,1004.3027,6.329448884429332,1004.4397283634123,1,1
7.659999999999997,0.58631957,-9.453959,2.4683673,1004.2624,6.320102924229463,1004.4394405094164,1,1
7.68,-2.3054264,-9.239465,0.8539388000000001,1004.2623,6.308964541078849,1004.4385484557918,1,1
7.699999999999997,2.8042274,-10.416806,-1.6931671,1004.4089,6.299106611711795,1004.4376535027684,1,1
7.72,5.8872285,-8.581682,0.15798782,1004.41895,6.289352304950088,1004.4367953896665,1,1
7.739999999999997,3.2966282,-8.762813000000001,0.11064863,1004.3103,6.277552485927467,1004.4355817775273,1,1
7.76,1.3311306,-11.689455,-4.273501,1004.4139,6.270543304369366,1004.4344313754416,0,0
7.7799999999999985,1.6704955,-10.030693,0.97695327,1004.4265,6.263008894953753,1004.4333863272071,0,0
7.8,2.2153919,-9.806665,-0.39128986,1004.4139,6.2547168836413025,1004.4323927718096,0,0
7.8199999999999985,3.0279572,-9.234678,0.3709492,1004.4189,6.2450871597634965,1004.4314662922817,0,0
7.84,3.228708,-8.729422999999999,1.5072062,1004.4263,6.2336930601068214,1004.4306290563184,0,0
7.8599999999999985,2.6360111,-9.263278,0.35201135,1004.44403,6.221215039320517,1004.4299375180184,0,0
7.88,2.3683407,-9.749465,0.10108779,1004.44403,6.208647345062525,1004.4293772077119,0,0
7.899999999999999,2.7077055,-9.582636,0.22418214,1004.43646,6.1958936265757645,1004.4289076155773,0,0
7.92,2.425696,-9.587402,0.6076689000000001,1004.42377,6.1829129377469485,1004.428474188551,0,0
7.939999999999999,2.7316022,-9.439639,0.7639041,1004.42114,6.1696712118568575,1004.4280648093518,0,0
7.96,2.8797748,-9.458706,0.85385764,1004.42365,6.156387021653504,1004.4276871885776,0,0
7.979999999999999,1.9381517,-9.5063715,1.0811089,1004.4008,6.1427760202050585,1004.4272567289827,0,0
8.0,1.71828,-9.468238,1.1568593,1004.4062,6.128780162122911,1004.4268005706604,0,0
8.02,1.1972798,-9.816197,1.2657504,1004.411,6.115071279759003,1004.4263406271124,0,0
8.04,1.1160219,-9.754231,1.5829555,1004.4186,6.1016134437021075,1004.4259063547356,0,0
8.059999999999999,1.2163965,-9.668434,1.554549,1004.42865,6.088266274083088,1004.4255325087868,0,0
8.08,1.1351385,-9.792365,1.3651726,1004.4236,6.07523983590049,1004.4251952214743,0,0
8.1,0.9917436,-9.882929,1.1284523000000002,1004.42114,6.062636067087866,1004.4248825956081,0,0
8.12,1.1160169,-9.882929,1.2184058,1004.4236,6.050500262266231,1004.424601742048,0,0
8.139999999999999,0.96306187,-9.806664,1.2515466,1004.42615,6.0386406197984375,1004.4243591535713,0,0
8.16,0.99651927,-9.844796,1.1473895,1004.44354,6.027126722054121,1004.4242138534404,0,0
8.18,1.0204173,-9.906762,1.22314,1004.4463,6.016110673554647,1004.4241649763724,0,0
8.2,1.259406,-9.720865,1.284687,1004.44867,6.005266427836633,1004.42421000668,0,0
8.219999999999999,1.4888353,-9.663667,1.1047796,1004.41583,5.994517340888603,1004.4242196274356,0,0
8.24,1.5748707,-9.758999,1.0242946,1004.43115,5.984095308328433,1004.4242530776767,0,0
8.26,1.5892091,-9.744699,0.9864194,1004.45374,5.9739673706664425,1004.4243887872302,0,0
8.28,1.6188646999999998,-9.5492935,1.1096033,1004.4563,5.963774739633122,1004.4246235805575,0,0
8.299999999999999,1.8387724,-9.587427,1.0149184000000002,1004.4387,5.953698578233238,1004.4248817190517,0,0
8.32,1.7336444,-9.596961,0.97704583,1004.4437,5.943733196463053,1004.4251775560364,0,0
8.34,1.781486,-9.744725,0.87289286,1004.4487,5.934199832662275,1004.4255236383943,0,0
8.36,1.6763694,-9.7065935,0.8728965,1004.4282,5.924966702234316,1004.4258390716676,0,0
8.379999999999999,1.614255,-9.735192,0.88710177,1004.44617,5.916071637678332,1004.4261909798497,0,0
8.4,1.6143056,-9.6970625,0.98179454,1004.4233,5.907448087996817,1004.426491518392,0,0
8.42,1.6669086,-9.611266,0.92971843,1004.4005,5.8989282387009485,1004.4266635047819,0,0
8.44,1.6526153,-9.673231,0.7924249,1004.4231,5.890627087029448,1004.4268026433388,0,0
8.459999999999999,1.5618333999999998,-9.658933,0.7592871999999999,1004.4409,5.882483548770349,1004.4269763366516,0,0
8.48,1.542744,-9.706598,0.7782275,1004.408,5.874602931246108,1004.4270614972509,0,0
8.5,1.7052896,-9.725666,0.6740735999999999,1004.42065,5.867061612849896,1004.427113663766,0,0
8.52,1.647978,-9.692301,0.65040576,1004.4231,5.85975554169037,1004.4271453089093,0,0
8.54,1.6241088,-9.658936,0.6740805000000001,1004.44617,5.852610475610232,1004.4272417594459,0,0
8.559999999999999,1.6623886000000003,-9.7209015,0.740366,1004.4281,5.8457832040162145,1004.4273300728064,0,0
8.58,1.7293472,-9.744736,0.7072289,1004.4309,5.839328779899629,1004.4274209582292,0,0
8.6,1.7484916,-9.668472,0.66935605,1004.4281,5.833072909817108,1004.4275037091393,0,0
8.62,1.7485377,-9.735204,0.6930321999999999,1004.42303,5.82715458838677,1004.4275607224904,0,0
8.639999999999999,1.7485629,-9.663707,0.7640505999999999,1004.451,5.821420874355644,1004.4276954808867,0,0
8.66,1.8824435,-9.57791,0.64096034,1004.44867,5.815729300989492,1004.4278900616742,0,0
8.68,1.9207071,-9.60651,0.6599001999999999,1004.41284,5.810171676925433,1004.4280078130362,0,0
8.7,1.8538359,-9.616044,0.53207546,1004.41284,5.804728960306865,1004.4280572540126,0,0
8.719999999999999,1.9590191000000003,-9.616044,0.5462813,1004.4231,5.799451441256733,1004.428083093945,0,0
8.74,2.0116453,-9.59698,0.49420723,1004.4256,5.7943165150755,1004.428096986971,0,0
8.76,2.145505,-9.687545,0.4421311,1004.4382,5.789563298702261,1004.4281456336956,0,0
8.78,2.077979,-9.582666,0.45154417,1004.4181,5.7849226274601735,1004.4281524536605,0,0
8.799999999999997,2.1257863,-9.5779,0.48942024,1004.43304,5.780413484236977,1004.4281760749479,0,0
8.82,2.1783755,-9.5493,0.41367084,1004.40784,5.775995586763152,1004.4281237368477,0,0
8.84,2.1114712000000004,-9.544534,0.44681284,1004.43335,5.771637135835414,1004.4280963054497,0,0
8.86,2.082804,-9.554068,0.48942354,1004.41547,5.767357704495907,1004.4280266123668,0,0
8.879999999999997,2.0780346,-9.6065,0.6125189999999999,1004.4307,5.7632820825719655,1004.4279746557544,0,0
8.9,2.0398054,-9.649399,0.56517583,1004.438,5.759465794199492,1004.427964838131,0,0
8.92,1.9012026,-9.749497,0.54150486,1004.4179,5.756035943427179,1004.4279199298616,0,0
8.94,1.6909033,-9.625567,0.6882725000000001,1004.4128,5.752646619876506,1004.4278258171672,0,0
8.959999999999997,1.7243727,-9.716132,0.60305417,1004.4179,5.7494907246362725,1004.4277069262483,0,0
8.98,1.6622496,-9.6923,0.45628896,1004.41754,5.746465182845148,1004.4275652732982,0,0
9.0,1.7004958,-9.701834,0.51310253,1004.41504,5.7436045869320616,1004.4273950177676,0,0
9.02,1.8391209,-9.759032,0.44682187,1004.4202,5.741061679836746,1004.4272186779167,0,0
9.04,1.987306,-9.592202,0.39001003,1004.43286,5.7385234785185055,1004.4270831727839,0,0
9.06,1.9968766,-9.620803,0.42788628,1004.395,5.736064044050711,1004.4268479410267,0,0
9.08,2.059026,-9.658935,0.32846487,1004.40753,5.733779207335052,1004.4265705456584,0,0
9.1,2.0351393,-9.701835,0.42788845,1004.4228,5.731741670933814,1004.4263118651463,0,0
9.12,2.0494895,-9.654169,0.40421742,1004.4277,5.72983721838621,1004.4260882923317,0,0
9.14,2.0638394,-9.592204,0.33320236,1004.4353,5.727932059040092,1004.42592390554,0,0
9.16,2.0256112,-9.587438,0.43262577,1004.448,5.726014960580004,1004.4258581273108,0,0
9.18,2.1498988,-9.616036,0.39948612,1004.4202,5.72420416671827,1004.4257796364093,0,0
9.2,2.1260104,-9.616037,0.3190022,1004.4228,5.7224769594011065,1004.4256995551576,0,0
9.22,2.126024,-9.544539,0.3900195,1004.42004,5.720690181214282,1004.4256084209653,0,0
9.24,2.159492,-9.606504,0.34267634,1004.4327,5.71899430270939,1004.4255534244772,0,0
9.26,2.2264209,-9.592206,0.26692688,1004.41504,5.717381985768935,1004.4254669812525,0,0
9.28,2.0697722,-9.635132,0.2859638,1004.39734,5.715866484818902,1004.4252893428862,0,0
9.3,2.055476,-9.682798,0.30017102,1004.4402,5.714533504171977,1004.4251860599916,0,0
9.32,2.108110700000001,-9.644666,0.33805147,1004.4074,5.713314726265291,1004.4250307694099,0,0
9.34,2.0555859,-9.687568,0.30018106,1004.4301,5.712262858252668,1004.424911803882,0,0
9.36,2.003058,-9.658969,0.34279525,1004.41986,5.711284589490367,1004.4247884994477,0,0
9.38,2.0509095,-9.639904,0.31439373,1004.4123,5.710354585412418,1004.4246345890514,0,0
9.4,2.0892045,-9.635139,0.3191333,1004.4074,5.709477920780996,1004.4244365493048,0,0
9.42,2.0366766,-9.644672,0.3238723,1004.4125,5.7086483944319495,1004.424218589807,0,0
9.44,2.0654087,-9.668507,0.30493957,1004.4376,5.7079230886672425,1004.4240741738716,0,0
9.46,2.0845811000000003,-9.658976,0.2718036,1004.42004,5.7072794768424036,1004.423932044925,0,0
9.48,2.0129373,-9.68281,0.32388693,1004.4172,5.706731220072221,1004.423782224426,0,0
9.5,2.1133664,-9.587479,0.338095,1004.4122,5.706120227561648,1004.4236081470253,0,0
9.52,2.1134164,-9.673279,0.33809959999999994,1004.42487,5.705630108489523,1004.4234588749048,0,0
9.54,2.1086898,-9.5874815,0.2812916,1004.392,5.705068643812324,1004.4232137261093,0,0
9.56,2.0848408,-9.60655,0.28129616,1004.43,5.704474287574415,1004.4230215432198,0,0
9.58,2.075338,-9.654217,0.31444216,1004.4248,5.7039477182801175,1004.4228581328628,0,0
9.6,2.0897272,-9.668517,0.34285322,1004.4324,5.70352024069676,1004.4227480941933,0,0
9.62,2.2140553,-9.573188,0.3854677,1004.4071,5.703048271187173,1004.4225945308856,0,0
9.64,2.1328487000000003,-9.54459,0.3333938,1004.41473,5.70243940424244,1004.422430530036,0,0
9.66,2.1998224,-9.601789,0.38074303,1004.4172,5.7018619241473845,1004.422266788977,0,0
9.68,2.1520712000000004,-9.601791,0.34760648,1004.3996,5.701289794194528,1004.4220405069368,0,0
9.7,2.1425680000000003,-9.606559,0.44703418,1004.44763,5.7007381447911625,1004.4219326863013,0,0
9.72,2.0565782,-9.57796,0.35235032,1004.43744,5.700102373210963,1004.4218932423172,0,0
9.74,1.9036812,-9.706659,0.34288675,1004.42224,5.699591835433719,1004.4218596379401,0,0
9.76,1.9897708,-9.654228,0.4375797000000001,1004.4323,5.6991300618605925,1004.421867530416,0,0
9.78,2.0181108,-9.601788,0.3760014,1004.402,5.698613125774692,1004.4218029810984,0,0
9.8,2.0707264,-9.616088,0.37600487,1004.43744,5.698101100694393,1004.4218022385893,0,0
9.82,2.046863,-9.658988,0.3523361,1004.42725,5.697670225890156,1004.4218211944493,0,0
9.84,2.1807356,-9.639923,0.32393315,1004.42224,5.69733140745471,1004.4218394515473,0,0
9.86,2.2142322,-9.620857,0.26238936,1004.4348,5.697048218817312,1004.4219022414934,0,0
9.88,2.2572887,-9.54936,0.32394013,1004.4019,5.6966946787678046,1004.4218857146203,0,0
9.9,2.3242464,-9.549361,0.25766215,1004.41943,5.6963086227545965,1004.4218622709027,0,0
9.92,2.3386214,-9.487397,0.3002751,1004.4018,5.695779810153308,1004.4217693318586,0,0
9.94,2.367336,-9.616095,0.28607512,1004.40674,5.695399765185902,1004.4216331053244,0,0
9.96,2.27656,-9.58273,0.26240677,1004.3993,5.695039455844637,1004.4214323363797,0,0
9.98,2.2574787,-9.620863,0.2529415,1004.40936,5.694765368965999,1004.4212114765293,0,0
10.0,2.1571386,-9.582732,0.29555437,1004.43475,5.694447005385992,1004.4210650634498,0,0
10.02,2.0950391,-9.577966,0.3239643,1004.4247,5.694054912784692,1004.4209487786244,0,0
10.04,2.0377173,-9.644698,0.22927941,1004.4144,5.6937040627370346,1004.4208224537497,0,0
10.06,1.9995166,-9.635166,0.3713151,1004.4094,5.693364267386731,1004.4206697122568,0,0
10.08,2.0091145,-9.658999,0.3145057,1004.3941,5.693083882624352,1004.4204390989096,0,0
10.1,1.970914,-9.611336,0.3287124,1004.42194,5.6927449499639335,1004.4202407321995,0,0
10.12,1.9900712,-9.611337,0.32871586,1004.4169,5.69236353818973,1004.4200534287393,0,0
10.14,2.0235655,-9.668536,0.30978152,1004.43964,5.6920751999461565,1004.4199584390581,0,0
10.16,1.985365,-9.625639,0.38553548,1004.43207,5.691772309148138,1004.419918107795,0,0
10.18,1.9949602,-9.697138,0.3097883,1004.43207,5.6916015863355325,1004.4199262179027,0,0
10.2,1.9424206,-9.706672,0.23877566,1004.4394,5.691541878805201,1004.4200034896097,0,0
10.22,2.0858529,-9.568442,0.3571393,1004.42175,5.6913677894527765,1004.4200780543277,0,0
10.24,2.1480258,-9.611342,0.34293932,1004.4495,5.691207059357453,1004.4202498587164,0,0
10.26,2.200644,-9.625644,0.23878612,1004.4192,5.6911054146874935,1004.420397885583,0,0
10.28,2.277159,-9.568445,0.20564875,1004.4293,5.690975166068776,1004.4205607297343,0,0
10.3,2.3919098,-9.525546,0.21512084,1004.4243,5.690790581304058,1004.4207180801994,0,0
10.32,2.3584893,-9.511248,0.19618668,1004.4167,5.690512183277855,1004.4208426499816,0,0
10.34,2.2151334,-9.577981,0.25300306,1004.4066,5.6902200367719695,1004.4209014463013,0,0
10.36,2.1339123,-9.659012,0.21986549,1004.4268,5.6900421529956615,1004.4209746335226,0,0
10.38,2.0479116000000004,-9.644713,0.281416,1004.4067,5.689902249022047,1004.4209879130707,0,0
10.4,2.0766284,-9.616116,0.33349797,1004.4368,5.689754185747246,1004.4210565703924,0,0
10.42,2.0049717,-9.697148,0.3713769,1004.4395,5.689736155406887,1004.4211836323483,0,0
10.44,1.8998541,-9.644716,0.30509868,1004.4341,5.6896783990157065,1004.4213424032164,0,0
10.46,1.9285709,-9.644717,0.38558707,1004.442,5.6896032347695575,1004.4215570605032,0,0
10.48,1.9764069,-9.635185,0.38085613,1004.4089,5.689512895816826,1004.4217011662644,0,0
10.5,2.086376,-9.60182,0.37139037,1004.4367,5.689388116356258,1004.4218824939163,0,0
10.52,2.1389918,-9.573222,0.35245624,1004.4698,5.689197414750074,1004.4222152180516,0,0
10.54,2.1820502,-9.630422,0.31458467,1004.4112,5.689082040911803,1004.4224695583124,0,0
10.56,2.2872417,-9.587523,0.28618150000000003,1004.3963,5.6889945410998655,1004.4226000829573,0,0
10.58,2.382876,-9.5160265,0.2814506,1004.40137,5.6888345946807135,1004.4226389862345,0,0
10.6,2.4020307,-9.563693,0.27671945,1004.3911,5.688716670291394,1004.4225598208199,0,0
10.62,2.2538948,-9.649492,0.29566056,1004.4114,5.688738195055732,1004.4224496949048,0,0
10.64,2.1200984,-9.635193,0.27199203,1004.4316,5.688790991618757,1004.4223853287442,0,0
10.66,2.196611,-9.616128,0.32407373,1004.4112,5.688870629704919,1004.4222881876216,0,0
10.68,2.1679702,-9.601829,0.25306118,1004.4038,5.6889272303936815,1004.42213579625,0,0
10.7,2.1154304,-9.668562,0.24359582,1004.4088,5.689074443133774,1004.4219531343676,0,0
10.72,2.1441495,-9.6542635,0.21992747,1004.4013,5.689283871071434,1004.4217173830444,0,0
10.74,2.0091794,-9.663769,0.271902,1004.39355,5.689510569310047,1004.4214076705963,0,0
10.76,1.9613942,-9.663769,0.34291926,1004.4137,5.689736332038429,1004.4211062610632,0,0
10.78,1.8849319,-9.701901,0.28137332,1004.43146,5.690003166062355,1004.4208772090598,0,0
10.8,1.9375232,-9.625638,0.29084340000000003,1004.4036,5.690171668651595,1004.420612620757,0,0
10.82,2.061813,-9.678069,0.24823506,1004.42145,5.690409313597399,1004.4203818450978,0,0
10.84,2.1383018,-9.616104,0.29084584,1004.4214,5.690617620895098,1004.4201815970832,0,0
10.86,2.248251,-9.644704,0.11567409,1004.4262,5.690900442079184,1004.4200263241878,0,0
10.88,2.296062,-9.549374,0.12987852,1004.4416,5.691078552097938,1004.4199667902903,0,0
10.9,2.4585892999999994,-9.535074,0.23403665,1004.4312,5.691220315037096,1004.4199546256937,0,0
10.92,2.5111809,-9.530308,0.27191317,1004.4493,5.691349452988925,1004.4200495204036,0,0
10.94,2.4347177,-9.563674,0.21036717,1004.4667,5.6914911183083525,1004.4203013110954,0,0
10.96,2.3917112,-9.516008,0.15355539999999998,1004.4212,5.6915232128305675,1004.420527028631,0,0
10.98,2.3152494,-9.539842,0.23404163,1004.406,5.6914716582791485,1004.4206741753424,0,0
11.0,2.291364,-9.592275,0.2529805,1004.4337,5.691441652458183,1004.4208510871453,0,0
11.02,2.2818174,-9.592275,0.23877846,1004.4261,5.6914254597126215,1004.4210263025003,0,0
11.04,2.1718965,-9.730506,0.25298303,1004.4136,5.691650839929142,1004.4211543880997,0,0
11.06,2.1910293,-9.611341,0.25771868,1004.4389,5.691856334866945,1004.4213314487376,0,0
11.08,2.0906665,-9.601808,0.44709608,1004.4314,5.6919929348150005,1004.421524146302,0,0
11.1,1.9807435,-9.611342,0.28139308,1004.4134,5.692027445204906,1004.4216651669432,0,0
11.12,2.0572343,-9.620875,0.36187923,1004.4286,5.6920291281682625,1004.4218147381807,0,0
11.14,2.062028,-9.659008,0.33820847,1004.4137,5.692079592979411,1004.4219176862688,0,0
11.16,2.0859400000000003,-9.606577,0.37608486,1004.4134,5.692079821129083,1004.4219779875286,0,0
11.18,2.1289728,-9.639943,0.29086690000000004,1004.4515,5.692116494851831,1004.4221375489673,0,0
11.2,2.1289866,-9.678076,0.38555628,1004.4286,5.692269325788171,1004.4223018022777,0,0
11.22,2.3106310000000003,-9.525546,0.3003381,1004.44116,5.6922943922922835,1004.4225148260147,0,0
11.24,2.468192,-9.50171,0.22930622,1004.41583,5.692234201350379,1004.4226789884152,0,0
11.26,2.6354918,-9.477877,0.26718208,1004.43353,5.692143326999536,1004.4228631059536,0,0
11.28,2.5972593,-9.468344,0.271917,1004.45374,5.691985698732992,1004.4231369490294,0,0
11.3,2.5351284,-9.4969425,0.21510476,1004.4134,5.6917903640032055,1004.4233438637546,0,0
11.32,2.4012997000000005,-9.492177,0.23877731,1004.42847,5.691484005663153,1004.4235451476962,0,0
11.34,2.3535085,-9.568441,0.32873163,1004.41583,5.691215748762867,1004.4236952276552,0,0
11.36,2.2244596000000003,-9.5493765,0.38554505,1004.3907,5.690885482201513,1004.4237090554876,0,0
11.38,2.167109,-9.625642,0.36187363,1004.41846,5.690627554887987,1004.4237023771603,0,0
11.4,2.0093815,-9.687607,0.30979577,1004.40826,5.690487353511728,1004.4236408836329,0,0
11.42,2.0189474,-9.649474,0.3902812,1004.42346,5.6903841143307545,1004.4235858967708,0,0
11.44,2.0285127,-9.687607,0.41395372,1004.4588,5.690397490137489,1004.423664081151,0,0
11.46,2.0189598,-9.625642,0.4470952,1004.4134,5.690386859523415,1004.4236962141772,0,0
11.48,2.1097827,-9.649475,0.4707678,1004.4208,5.690445222962557,1004.4237141805479,0,0
11.5,2.2053845,-9.668541,0.4139555,1004.45374,5.690640976930159,1004.4238381485836,0,0
11.52,2.2675283,-9.587509,0.39028403,1004.4282,5.690820707847105,1004.4239633894048,0,0
11.54,2.348791,-9.554143,0.39501902,1004.43085,5.69095822924962,1004.4240988439923,0,0
11.56,2.406155,-9.501712,0.33347234,1004.43335,5.6909764032238535,1004.4242518358278,0,0
11.58,2.4348400000000003,-9.496944,0.3334729,1004.4134,5.690894171592075,1004.4243479528044,0,0
11.6,2.4635246,-9.554143,0.40448955,1004.42596,5.690858946252135,1004.4244386851352,0,0
11.62,2.3966142999999995,-9.506479,0.44236538,1004.4409,5.690738532486288,1004.4245781169556,0,0
11.64,2.2962449,-9.597044,0.47077236,1004.42316,5.690678905539137,1004.4246962136915,0,0
11.66,2.1576364,-9.644709,0.51811695,1004.43085,5.6907096357634925,1004.424822717598,0,0
11.68,2.2102208,-9.5398445,0.5938680000000001,1004.43335,5.690641026275007,1004.4249651946665,0,0
11.7,2.0955117,-9.577977,0.58439976,1004.4284,5.690508596223585,1004.4251034527033,0,0
11.72,2.0477197,-9.625644,0.5607284,1004.41815,5.6903931552196685,1004.4252005850748,0,0
11.74,1.9043955,-9.711443,0.49918744,1004.42316,5.6904011801811425,1004.425279065132,0,0
11.76,1.813589,-9.735276,0.5323292,1004.4334,5.690535048841691,1004.425377645476,0,0
11.78,1.8183765,-9.71621,0.5086579000000001,1004.42584,5.6907399693544045,1004.4254664155444,0,0
11.8,1.9378811,-9.616113,0.58440924,1004.4284,5.690859051466641,1004.4255554136806,0,0
11.82,1.976128,-9.678078,0.5275970999999999,1004.42334,5.691036997451084,1004.4256260769447,0,0
11.84,2.1386502,-9.6447115,0.54653555,1004.42334,5.691270973942026,1004.425680285128,0,0
11.86,2.286833,-9.544615,0.43764508,1004.44324,5.6914089812961945,1004.425791398452,0,0
11.88,2.5258317000000003,-9.439751,0.42344263,1004.4281,5.691371286159352,1004.4258978891507,0,0
11.9,2.4589232999999995,-9.535083,0.42344344,1004.4458,5.691334635994238,1004.4260636319314,0,0
11.92,2.2868586,-9.601813,0.43764743,1004.4409,5.691348817295745,1004.4262634931772,0,0
11.94,2.1769319,-9.568448,0.49919552,1004.44086,5.691294725120157,1004.4264926379986,0,0
11.96,2.1291428,-9.601814,0.57021236,1004.39044,5.691234350032308,1004.426565320866,0,0
11.98,2.004877,-9.63518,0.5512756999999999,1004.436,5.691179915117593,1004.4266635082927,0,0
12.0,1.8280327,-9.706679,0.5796828,1004.4282,5.691208504049008,1004.4267557980728,0,0
12.02,1.756344,-9.720979,0.6080899999999999,1004.4181,5.691316083679272,1004.4268061844493,0,0
12.04,1.7515726000000005,-9.70668,0.60809076,1004.42554,5.691462121830032,1004.4268461475881,0,0
12.06,1.8710772,-9.649482,0.64123243,1004.41547,5.691574960851022,1004.4268405048856,0,0
12.08,2.1005168,-9.544617,0.4944667,1004.4356,5.69152381482508,1004.4268670531765,0,0
12.1,2.339515,-9.487418,0.442389,1004.4332,5.691319857047643,1004.4269133098546,0,0
12.12,2.411221,-9.554151,0.37137377,1004.43317,5.691146000379086,1004.4269767063402,0,0
12.14,2.3921106,-9.558917999999998,0.36190578,1004.418,5.690998563389094,1004.427000407332,0,0
12.16,2.2200465,-9.635182,0.46606347,1004.4306,5.690954575524216,1004.4270343080617,0,0
12.18,2.0575416,-9.63995,0.53708035,1004.42053,5.690946225877244,1004.4270408472375,0,0
12.2,1.890258,-9.644715,0.65070695,1004.4053,5.690923704322229,1004.4269683582036,0,0
12.22,1.9332849,-9.663783,0.60336363,1004.43317,5.690938619886406,1004.4269266328032,0,0
12.24,2.1439562000000003,-9.587526,0.53238046,1004.4127,5.6909138390652565,1004.4268385483616,0,0
12.26,2.2539144,-9.558928,0.49450734,1004.43036,5.69084320412314,1004.4267733941748,0,0
12.28,2.1679022,-9.630426,0.5039784,1004.4306,5.6908378360680185,1004.4267295997162,0,0
12.3,1.9671732,-9.687627,0.579731,1004.4229,5.690927665829965,1004.4266771163736,0,0
12.32,1.881158,-9.692392,0.6412802,1004.4228,5.691084121034615,1004.4266167844733,0,0
12.34,1.8525022,-9.740059,0.6744230999999999,1004.4127,5.691389319951067,1004.4265133747818,0,0
12.36,1.7473694,-9.744827,0.7407068,1004.39514,5.691804786816966,1004.4263090578296,0,0
12.38,1.7282687,-9.749593,0.6223484,1004.42554,5.692302074797005,1004.426125754762,0,0
12.4,1.8477893,-9.735294,0.5939444,1004.4381,5.692881833868992,1004.4260068954544,0,0
12.42,1.9577478,-9.558932,0.5655399999999999,1004.4432,5.693214050158337,1004.4259637665468,0,0
12.44,2.1537426,-9.601831,0.47558844,1004.4177,5.6934888172522,1004.4258959082842,0,0
12.46,2.383196,-9.577999,0.3430272,1004.395,5.693761920106485,1004.425724723454,0,0
12.48,2.4501348,-9.496968,0.29568508,1004.4124,5.6939003598569915,1004.4255254955333,0,0
12.5,2.3832388,-9.578,0.38564074,1004.4229,5.69405481297987,1004.4253400059584,0,0
12.52,2.1777318,-9.5923,0.38090855,1004.3872,5.694152584129082,1004.4250388033487,0,0
12.54,2.0343604,-9.639968,0.5229428,1004.4404,5.694246449812487,1004.4248279610307,0,0
12.56,1.9387854,-9.6781,0.44245988,1004.4101,5.694365915079674,1004.4245886400987,0,0
12.58,1.9674872,-9.620902,0.4850716,1004.42004,5.694407167747285,1004.4243608010192,0,0
12.6,2.1013446,-9.616136,0.42352647,1004.42755,5.6944210869042085,1004.4241709635248,0,0
12.62,2.163505,-9.582771,0.324106,1004.41,5.694363303292291,1004.423952207646,0,0
12.64,2.2065432,-9.582772,0.30990466,1004.4124,5.694261297610325,1004.4237173270038,0,0
12.66,2.187448,-9.587538,0.24835958,1004.4355,5.694117743218223,1004.4235522040912,0,0
12.68,2.1970308,-9.654271,0.29097134,1004.4125,5.694080020842008,1004.4233665135512,0,0
12.7,2.225731,-9.630438,0.3288485,1004.4228,5.694103481747824,1004.4232003979407,0,0
12.72,2.240093,-9.649505,0.3477882,1004.4228,5.694227582229106,1004.423052176755,0,0
12.74,2.363781,-9.544626,0.29565606,1004.4352,5.694284703843888,1004.4229649406793,0,0
12.76,2.2681835,-9.558927,0.30985916,1004.4327,5.694265421643388,1004.4229229050958,0,0
12.78,2.2347236,-9.558927,0.21043652,1004.42505,5.694157288187982,1004.4228934199961,0,0
12.8,2.3255386,-9.573226,0.25778046,1004.4226,5.6940460303924985,1004.4228663106501,0,0
12.82,2.143905,-9.639958,0.27198356,1004.39233,5.693982741635147,1004.4227324261136,0,0
12.84,2.134344,-9.568459,0.33353072,1004.4381,5.693816698088582,1004.422669449003,0,0
12.86,2.1008842,-9.64949,0.2577801,1004.4254,5.693705166486564,1004.4226236324116,0,0
12.88,2.153460700000001,-9.573226,0.17256072,1004.4226,5.6935072130016895,1004.4225830637953,0,0
12.9,2.1725786,-9.597058,0.22463901,1004.43054,5.693292851028343,1004.4225758623356,0,0
12.92,2.1534584,-9.520794,0.17729489999999998,1004.4126,5.6928994057385305,1004.4225335860216,0,0
12.94,2.3350894,-9.563692,0.16782595,1004.4429,5.6925219831884375,1004.4225695497607,0,0
12.96,2.4259045,-9.568458,0.111012995,1004.4149,5.692213594984798,1004.4225737169417,0,0
12.98,2.4593618,-9.549392999999998,-0.012081653,1004.41,5.691944858087053,1004.4225321336818,0,0
13.0,2.4737002999999995,-9.620891,-0.054691393,1004.4352,5.691863766240034,1004.422540995032,0,0
13.02,2.4115613,-9.601824,0.12521584,1004.43005,5.691879881762371,1004.422575857339,0,0
13.04,2.3924408,-9.554158,0.096809305,1004.4303,5.69187541155408,1004.4226344685867,0,0
13.06,2.2012475,-9.539859,0.31932625,1004.4201,5.6917407572606376,1004.4226771333988,0,0
13.08,2.163008,-9.582759,0.07787145,1004.4073,5.691550623853544,1004.4226594743463,0,0
13.1,2.1821258,-9.616124,0.18202828,1004.43506,5.691391412340857,1004.4226885126998,0,0
13.12,2.029171,-9.668556,0.054199226,1004.43506,5.691295555894438,1004.4227587083432,0,0
13.14,2.0004907,-9.730522,0.030527089,1004.42505,5.691369791506304,1004.4228289818635,0,0
13.16,1.885774,-9.673323,0.19623111,1004.4402,5.691434622583678,1004.4229536112117,0,0
13.18,1.8092959,-9.735288,0.17255898,1004.4125,5.691586764986464,1004.4230261007033,0,0
13.2,1.9001111,-9.706689,0.15362124,1004.3972,5.691791849436755,1004.4229971784556,0,0
13.22,1.8953298,-9.668556,0.16308998,1004.4123,5.6919636110229925,1004.4229331129147,0,0
13.24,1.8913201,-9.749606,0.2531141,1004.43256,5.692272957361452,1004.4229111613968,0,0
13.26,1.805311,-9.78774,0.2389134,1004.4021,5.69274665945612,1004.422816844854,0,0
13.28,1.7910006999999997,-9.66381,0.23418167,1004.4248,5.693105021362896,1004.4227406461156,0,0
13.3,1.8292701,-9.721009,0.28626296,1004.42,5.693494455974512,1004.4226634505844,0,0
13.32,1.9057745,-9.682878,0.23418699,1004.42224,5.693859342960442,1004.4225937161908,0,0
13.34,1.9249209,-9.65428,0.20578307,1004.43506,5.69414934783595,1004.4225769775024,0,0
13.36,1.9631885,-9.678112,0.20105134,1004.4374,5.6944361702464175,1004.4226155500779,0,0
13.38,1.9871167,-9.678113,0.08269392,1004.45276,5.694725560905168,1004.4227581528256,0,0
13.4,1.9775862,-9.654282,0.14897823,1004.4248,5.694965298659105,1004.4228915072637,0,0
13.42,2.0254135,-9.544651,0.20579377,1004.43256,5.694959694699451,1004.4230441458186,0,0
13.44,2.0111034,-9.60185,0.29101574,1004.42755,5.694851979345657,1004.4231952383208,0,0
13.46,2.0637085,-9.649516,0.22000216,1004.4273,5.694770118771234,1004.4233435207981,0,0
13.48,2.0541763,-9.673349,0.25314552,1004.42,5.694757353247608,1004.4234625065196,0,0
13.5,2.135464,-9.597087,0.27208596,1004.4223,5.694687782720143,1004.4235634572801,0,0
13.52,2.1307116,-9.654285,0.26261964,1004.3997,5.6946816254120005,1004.4235667489256,0,0
13.54,2.2741365,-9.587554,0.26735687,1004.42224,5.694663133937207,1004.4235648811276,0,0
13.56,2.178568,-9.582789,0.2815626,1004.4298,5.694580067735671,1004.4235856771692,0,0
13.58,2.1403584,-9.597089,0.33364373,1004.41473,5.694455171907362,1004.4235721721136,0,0
13.6,2.1451676,-9.630455,0.22948949,1004.4248,5.694357413273429,1004.4235646592273,0,0
13.62,2.1499765,-9.649522,0.24842979,1004.4248,5.694325780391703,1004.4235624680673,0,0
13.64,2.2551577000000003,-9.592324,0.3478546,1004.4324,5.694291862824451,1004.4235923470734,0,0
13.66,2.1691525,-9.587559,0.1916221,1004.4273,5.694197342850207,1004.4236320957136,0,0
13.68,2.1930785,-9.620925,0.22476542,1004.4071,5.694129694021666,1004.4236077020676,0,0
13.7,2.260027,-9.601859,0.25317472,1004.41724,5.694080261963781,1004.4235632241147,0,0
13.72,2.312632,-9.597095,0.26738042,1004.402,5.6940635773828525,1004.4234462957884,0,0
13.74,2.3118572,-9.616141,0.16315259,1004.41724,5.6941092709512855,1004.4233206352549,0,0
13.76,2.2305982,-9.587542,0.16315235,1004.4194,5.6941132081434445,1004.42319548732,0,0
13.78,2.3022926,-9.635206,0.106339276,1004.4147,5.69420923479333,1004.4230543228508,0,0
13.8,2.3214095,-9.563709,0.14421432,1004.42975,5.6942521261290455,1004.4229536943633,0,0
13.82,2.1971323,-9.578008,0.1678861,1004.4218,5.694218278875924,1004.4228606257319,0,0
13.84,2.3214042,-9.587541,0.115807384,1004.42474,5.694193734689077,1004.422785156037,0,0
13.86,2.2162464,-9.611374,0.17735444,1004.4273,5.694177334887883,1004.4227347244523,0,0
13.88,2.2305832000000003,-9.5970745,0.18682301,1004.39667,5.6941463233015135,1004.4225963300964,0,0
13.9,2.1732233,-9.61614,0.17261957,1004.417,5.694113961926327,1004.4224538980553,0,0
13.92,2.264037,-9.620907,0.17735374,1004.3918,5.694132768768072,1004.4222176910704,0,0
13.94,2.225796,-9.592307,0.17261912,1004.4272,5.6941205866184035,1004.4220269148907,0,0
13.96,2.2449126,-9.549409,0.22469732,1004.38916,5.694005481774154,1004.4217400241647,0,0
13.98,2.197112,-9.60184,0.2341659,1004.44995,5.693883994366902,1004.4215880834323,0,0
14.0,2.2018895,-9.60184,0.15368083,1004.39667,5.693756228838451,1004.421364123501,0,0
14.02,2.1827674,-9.582775,0.22469662,1004.4222,5.6935787373907925,1004.4211692416608,0,0
14.04,2.1827650000000003,-9.60184,0.24836844,1004.4071,5.693397755560981,1004.420946394797,0,0
14.06,2.2831392000000004,-9.539875,0.22943065,1004.4095,5.693135385999116,1004.4207082802867,0,0
14.08,2.240118,-9.50651,0.31464967,1004.4222,5.692718870498755,1004.4205032524968,0,0
14.1,2.2114365,-9.625672,0.15367967,1004.4119,5.692387323768905,1004.4202911182324,0,0
14.12,2.3357089,-9.43501,0.6365887,1004.4096,5.691847328351475,1004.4200651883704,0,0
14.14,2.3357065,-9.554173,0.6413229,1004.40436,5.691365725068438,1004.4198090180664,0,0
14.16,2.2018695,-9.625672,0.41407126,1004.40936,5.690992646945992,1004.4195450495207,0,0
14.18,2.211427,-9.701938,0.23416367,1004.4069,5.690863453915216,1004.4192662847356,0,0
14.2,2.0919287,-9.840167,0.54663414,1004.422,5.691202502842428,1004.4190298095464,0,0
14.22,1.8911747,-9.735303,0.44721138,1004.417,5.691647407399024,1004.418813552755,0,0
14.24,1.4663742,-10.016545,0.2578903,1004.3866,5.6925983276916,1004.418506499464,0,0
14.26,1.6528136000000002,-9.482691,0.34311208,1004.41174,5.692964459923546,1004.418210827778,0,0
14.28,1.753207,-9.659054,0.3336449,1004.39417,5.6932090773958155,1004.4178630252964,0,0
14.3,1.8775076,-9.530358,0.51355463,1004.4295,5.693147068795277,1004.4175976001325,0,0
14.32,1.9683455,-9.520825,0.37625885,1004.40936,5.692819216322395,1004.417333415097,0,0
14.34,1.7484946,-9.663823,0.30524465,1004.41956,5.692457234914628,1004.4171079969052,0,0
14.36,1.7724166,-9.644756,0.26737148,1004.3916,5.6920340499601245,1004.4168169886025,0,0
14.38,1.6624956999999998,-9.506528,0.47095224,1004.394,5.6912514845992686,1004.416477712507,1,2
14.4,2.116603,-9.625691,0.45201698,1004.4368,5.690577631900692,1004.4162510883839,1,2
14.42,2.7284405,-9.454096,0.8497091,1004.44214,5.690024168745412,1004.4161440433908,1,2
14.44,2.8383977,-9.301566,0.36206737,1004.4672,5.6892780792706885,1004.4162332598784,1,2
14.46,3.6079664,-9.010808,0.2531779,1004.4597,5.6883184420154045,1004.4164685718314,1,2
14.48,4.2197976,-8.810611999999997,-0.14451061,1004.4419,5.68729928963382,1004.4167680466144,1,2
14.5,4.5830874,-9.358767,-0.93041945,1004.4798,5.6876696901297565,1004.4172595775647,1,2
14.52,4.9750489999999985,-9.153805,-1.5837656999999998,1004.4445,5.689424396704424,1004.4177919598337,1,2
14.54,3.9330795,-9.592329,-2.0666726000000004,1004.4597,5.6924650251554025,1004.4184132417508,1,2
14.56,2.32708,-10.088052,-2.9046607000000004,1004.4116,5.697007974742885,1004.4189376787823,1,2
14.58,1.7344058,-9.754393,-4.3391833,1004.4521,5.702993434239067,1004.4195204557001,1,2
14.6,1.476322,-12.304502,-0.06874807,1004.54803,5.713509657047945,1004.4204980317438,1,2
14.62,-4.493630400000002,-16.15588,-8.690097999999999,1004.6591,5.741489280562879,1004.422220785022,1,2
14.64,3.7802308,-9.96889,2.4546938,1004.6162,5.768282106666862,1004.4244413349924,1,2
14.66,4.1387377,-9.906925,-1.5790174,1004.67676,5.793746245434424,1004.4273117601401,1,2
14.68,1.1035768999999995,-8.238631,-1.7731265,1004.6641,5.8130541885312175,1004.4307005054643,1,2
14.7,4.2009163,-5.1499023,-0.34333375,1004.6086,5.823019544355633,1004.4343352390132,1,2
14.72,1.0128076,-5.135603400000001,-2.5874398,1004.6919,5.822998396269625,1004.4384741227163,1,2
14.74,0.7069233,-3.2146811,-1.957762,1004.6237,5.809976836937955,1004.4427980535147,1,2
14.76,4.865374,-6.8038993,-4.348634,1004.46466,5.797149515601247,1004.4466973817757,1,2
14.78,14.974679,-10.388351,-3.0750775000000004,1004.3662,5.803361393843128,1004.4498530376522,1,2
14.8,6.0699263,-13.305484,-4.239739,1004.336,5.819606408253473,1004.4522315042494,1,2
14.82,-1.9075445,-12.661999,-1.8914723,1004.2072,5.839913155493879,1004.4534510039192,1,2
14.84,2.2891421000000003,-10.240589,1.9528658,1004.16425,5.8590169550877285,1004.4534874302136,1,2
14.86,3.4028552000000003,-7.1661600000000005,1.1338155,1004.2045,5.871460699154342,1004.4526232617386,1,2
14.88,1.9020237,-8.51033,4.7935133,1004.2299,5.882001370547643,1004.4510578787317,1,2
14.9,3.8378646,-9.859266,1.6309323,1004.27264,5.892389560165341,1004.4490324019432,1,2
14.92,-0.04331459,-10.1833935,-0.16340496,1004.35114,5.901524664176209,1004.4468902780064,1,2
14.94,2.494783,-8.85829,3.6383243,1004.3888,5.9089193853602335,1004.4447883722943,1,2
14.96,2.9727833,-9.701972,2.2984896,1004.424,5.915806112471567,1004.4428562902672,1,2
14.98,2.1650183,-9.768703,1.967083,1004.4317,5.9217889464186975,1004.4411089399432,1,2
15.0,2.915469,-9.006055,2.6251674,1004.3938,5.9261746295606255,1004.439394669013,1,2
15.02,4.2872887,-8.982222,1.5173179,1004.4317,5.929641410250907,1004.4378522384106,1,2
15.04,5.563516,-8.739128,0.60831416,1004.472,5.932927438504119,1004.436612278672,1,2
15.06,4.311229,-10.054698,-0.1728607,1004.4847,5.937213640101335,1004.435689766044,1,2
15.08,4.191753,-9.072788,0.32425356,1004.55536,5.940410676290947,1004.4353054467281,1,2
15.1,5.1707435,-8.967902,-1.4038838,1004.4695,5.943562879039343,1004.435088962572,1,2
15.12,5.7060822999999985,-9.439792,-1.7258233,1004.42163,5.948156451858424,1004.4348492249063,1,2
15.14,5.6439457000000015,-9.144265,-1.8773241000000005,1004.39374,5.953474925740973,1004.4344893994956,1,2
15.16,1.7962043,-13.048076,-1.0203968,1004.419,5.964199527706518,1004.4341156959247,1,2
15.18,-1.3058876,-17.871832,4.2395267,1004.3232,5.990477781647817,1004.4333861949438,1,2
15.2,8.597866999999999,-9.682886,-1.7921046000000005,1004.6008,6.01930244480657,1004.4333442975752,1,2
15.22,7.05877,-11.127153,-0.9257085,1004.6182,6.050558315926549,1004.4339727575892,1,2
15.24,3.6125329,-8.462647,1.0722102,1004.5503,6.075648264587308,1004.4349468429305,1,2
15.26,0.17107461,-4.9878282999999985,1.2284458,1004.5654,6.086628128019912,1004.4362771761032,1,2
15.28,-0.8661421,-5.7266445,0.551426,1004.56036,6.086510489628466,1004.4378993566603,1,2
15.3,-2.2522845,-5.416818599999999,1.3846812,1004.49457,6.077023253347758,1004.4395367297172,1,2
15.32,-2.3000817,-6.970716,-0.7647384,1004.35583,6.062102326490632,1004.4406821683227,1,2
15.34,15.389974,-13.891756,-10.886895,1004.37854,6.075765982194411,1004.4414705660687,1,2
15.36,7.651471000000001,-7.728598599999999,-1.8678547,1004.414,6.0889016732431225,1004.4420683002797,1,2
15.38,2.3076513,-11.122386,-2.4170454,1004.4416,6.102726660142827,1004.442594772347,1,2
15.4,0.8115734,-14.101484,0.15847078,1004.31036,6.122332334510915,1004.4425839178856,1,2
15.42,3.10588,-5.8267419999999985,3.1506145,1004.2272,6.132821522291019,1004.4417989447786,1,2
15.44,6.566458,-8.796308,2.1043112,1004.26495,6.143242216220608,1004.4404686863403,1,2
15.46,4.9891242999999985,-9.311096,0.23895587,1004.323,6.152295741799184,1004.4388703827133,1,2
15.48,1.7723169,-10.145243,0.49461377,1004.34564,6.159577677871798,1004.4371224922509,1,2
15.5,3.4548087,-10.211975,1.4651667,1004.4064,6.166450451121402,1004.435467455266,1,2
15.52,3.5695245000000004,-8.505548,0.94438237,1004.49713,6.169596367976958,1004.4342270497473,1,2
15.54,2.6087847,-9.053702,-0.70792484,1004.43677,6.169804142738264,1004.4331401820517,1,2
15.56,2.3841348,-8.50078,2.4783297,1004.38855,6.166835990132477,1004.4320193011008,1,2
15.58,2.0925674,-9.287263,0.21528423,1004.39874,6.1618049128028085,1004.4309090852084,1,2
15.6,2.594461,-9.740086,0.6508508000000001,1004.37354,6.156170862754591,1004.4297215697392,1,2
15.62,3.2684145,-9.697187,0.025909452000000003,1004.4694,6.1502997340278345,1004.4288151234192,1,2
15.64,3.2827551,-9.85925,-0.6274383000000001,1004.47174,6.14460839019474,1004.4281687170073,1,2
15.66,5.0512834,-10.207209,0.37152126,1004.3609,6.141142497247009,1004.4273553849199,1,2
15.68,6.2557955000000005,-10.15001,-1.2334418,1004.419,6.140885643068447,1004.426606645302,1,2
15.7,3.0055304,-10.674331,-4.012537,1004.5222,6.143062802661585,1004.4262891950524,1,2
15.72,5.113425,-10.788728,1.8770622,1004.48456,6.147991427205431,1004.4262184709096,1,2
15.74,4.171805,-14.282615,7.6246295,1004.4187,6.164963818631108,1004.4261289125619,1,2
15.76,5.185124,-11.966068,1.9480785,1004.4868,6.1851730808412135,1004.4262681947208,1,2
15.78,6.069389299999999,-11.804006,1.5787951,1004.4843,6.208545212687239,1004.4266001789352,1,2
15.8,3.3927007000000007,-9.868782,2.9707105,1004.5451,6.229397931959834,1004.4273201195427,1,2
15.82,3.5982332,-8.210021000000001,3.680871,1004.58026,6.245538324936493,1004.4285068426332,1,2
15.84,2.914723,-8.60088,3.5625112,1004.59546,6.257591660177106,1004.4301564625226,1,2
15.86,0.98368317,-9.3873625,1.5125138,1004.5477,6.265583037898233,1004.4320372233916,1,2
15.88,0.027723536,-10.207209,0.8212908999999999,1004.4566,6.271372048068281,1004.4337874896913,1,2
15.9,-0.08221060000000001,-9.835419,-1.1103462,1004.40125,6.274483377187452,1004.435216890031,1,2
15.92,0.74469674,-8.481716,-1.1387525,1004.3759,6.2724987182620575,1004.4362663673668,1,2
15.94,3.7081764,-8.853507,-4.8647285,1004.5149,6.270530553263531,1004.4374767666184,1,2
15.96,8.27767,-7.8715963,-5.077776999999998,1004.5779,6.272199637389718,1004.4390517990373,1,2
15.98,6.9680047000000025,-7.323442,-0.03563575,1004.59033,6.272105198248564,1004.4409880992059,1,2
16.0,5.199479,-7.6142020000000015,-1.3802066000000002,1004.4063,6.268819363222359,1004.4425741368781,1,2
16.02,4.8266554,-10.20721,-1.3612688999999998,1004.35565,6.266985824405594,1004.443662632872,1,2
16.04,2.7904603,-15.946143,-1.4796288999999998,1004.23706,6.276591888501039,1004.443880658454,1,2
16.06,1.2226858,-11.508479,-2.6584954,1004.1993,6.287165101769243,1004.443192815488,1,2
16.08,1.1557698,-6.5512605000000015,5.1580067000000005,1004.2269,6.291369928409965,1004.4418063833072,1,2
16.099999999999998,1.8923951,-9.60187,0.5798865,1004.2596,6.292813074238657,1004.4399253888524,1,2
16.12,4.7889805,-7.8191776,2.3789625,1004.32794,6.291122889554418,1004.4378601947524,1,2
16.14,2.1840105,-10.769677,3.7992861,1004.30505,6.291147959750942,1004.4355572725444,1,2
16.16,-2.1894886,-8.92502,1.1432868,1004.3554,6.287769576665074,1004.4332338443004,1,2
16.18,2.1075792,-10.097593,2.099639,1004.4339,6.28402783608832,1004.4311832612643,1,2
16.2,3.0587816,-9.473176,-0.8167524,1004.5324,6.278859233742431,1004.4297357463533,1,2
16.22,2.035925,-9.544674,1.3089972,1004.49207,6.27215453138739,1004.4286811254907,1,2
16.24,2.0024908,-9.48271,1.4368283000000002,1004.44135,6.264014775913767,1004.4277948704453,1,2
16.259999999999998,1.8017616,-9.506543,1.8723955,1004.38824,6.254755852313839,1004.4268693779532,1,2
16.28,2.236745,-9.802071,1.375285,1004.34033,6.245149064605077,1004.4257400710268,1,2
16.3,2.7195268,-9.539909,0.73614246,1004.32776,6.2348529216809485,1004.4243894871704,1,2
16.32,1.013161,-10.192929,0.6414565999999999,1004.3533,6.224641489422343,1004.4229401891215,1,2
16.34,0.79331297,-10.0261,0.4710201,1004.3935,6.2141368596291136,1004.4215536046845,1,2
16.36,1.4481688999999998,-9.244385,1.4557782,1004.4388,6.202166469028407,1004.4203905056993,1,2
16.38,2.050447,-9.177653,1.204857,1004.406,6.188967078969916,1004.4193109856152,1,2
16.4,0.79338,-10.069,0.75982493,1004.3936,6.176076024911575,1004.4182645621206,0,0
16.419999999999998,0.29152340000000004,-10.150033,0.19169846,1004.4515,6.163560523589019,1004.4174595898974,0,0
16.44,0.8938001,-10.035636,0.1917004,1004.42645,6.1512580403175665,1004.4167806819173,0,0
16.46,1.4339406,-9.530381,0.42842275,1004.4035,6.13829430396645,1004.4161329883708,0,0
16.48,1.6490547999999998,-9.735344,0.594129,1004.434,6.125301573929331,1004.4156250075952,0,0
16.5,1.3097101,-9.849742,0.55625576,1004.4136,6.112454942459685,1004.4151688657547,0,0
16.52,1.161559,-9.749644,0.15856779,1004.39575,6.099509045486643,1004.4146959109074,0,0
16.54,1.0229676,-9.973672,-0.045009527,1004.46655,6.086950669714563,1004.4144646827252,0,0
16.56,1.1185849,-9.849744,0.53732425,1004.43115,6.074575212822047,1004.4143204366457,0,0
16.58,1.6921828,-9.663848,0.8924065000000001,1004.4061,6.062247512173599,1004.4141633872375,0,0
16.599999999999998,1.6098475,-9.79252,0.31944484,1004.43365,6.0501679195073095,1004.4140947701868,0,0
16.62,1.6671823,-9.6352215,0.3667868,1004.47406,6.038052090145367,1004.4142500149879,0,0
16.64,1.5237666,-9.663821,0.55616105,1004.4437,6.025976417643433,1004.4144932092404,0,0
16.66,1.1270213,-9.740085,0.47093976,1004.4286,6.014015790499812,1004.4147588801284,0,0
16.68,0.89756924,-9.844948,0.41412494,1004.4388,6.002362150629451,1004.4150801749569,0,0
16.7,1.165218,-9.902146,0.3478414,1004.444,5.991192326325457,1004.4154681824373,0,0
16.72,1.2512329,-9.825881,0.32890183,1004.4616,5.980353351288461,1004.41597710039,0,0
16.74,1.3468088,-9.806815,0.25314948,1004.4263,5.969827890779264,1004.416463942732,0,0
16.759999999999998,1.2320719999999998,-9.673349,0.32889798,1004.43616,5.95931584311442,1004.4169650224312,0,0
16.78,1.1507937,-9.787747,0.25314555,1004.47424,5.949064197231933,1004.4176139663726,0,0
16.8,1.2511466999999998,-9.844945,0.24840903,1004.44147,5.939222584645457,1004.4182732549608,0,0
16.82,1.1459721,-9.897378,0.29575136,1004.43616,5.92986320280252,1004.418920194639,0,0
16.84,1.1555088,-9.811578,0.39043736,1004.46643,5.920795692546557,1004.4196628658381,0,0
16.86,1.3084424,-9.816345,0.48985797,1004.4286,5.9120772810727855,1004.4203512637926,0,0
16.88,1.3132005,-9.7877445,0.42357436,1004.4438,5.9036348158605865,1004.4210439476757,0,0
16.9,1.3800975,-9.740079,0.49932298,1004.42865,5.8953948754314185,1004.4216833849428,0,0
16.919999999999998,1.4852316,-9.635214,0.5940091,1004.4286,5.8871911644041015,1004.4222732915264,0,0
16.94,1.4756505,-9.711478,0.52299106,1004.44867,5.8791940124568125,1004.4228895611342,0,0
16.96,1.5138675,-9.730544,0.51352024,1004.4591,5.871458298691791,1004.4235644545396,0,0
16.98,1.3417728,-9.87354,0.5845344,1004.4412,5.864231772518443,1004.4242242783162,0,0
17.0,1.3513110000000002,-9.682878,0.627142,1004.44617,5.857097465617766,1004.4248863032033,0,0
17.02,1.3130509,-9.740075,0.66974974,1004.4463,5.850182910312084,1004.425548357702,0,0
17.04,1.3034698,-9.787741,0.58926284,1004.4362,5.843572106126348,1004.4261716949692,0,0
17.06,1.2938899,-9.721008,0.61766744,1004.4438,5.837117255419433,1004.4267859376766,0,0
17.08,1.351226,-9.782973,0.62713426,1004.44867,5.8309680365291765,1004.4274074651573,0,0
17.099999999999998,1.3045777,-9.754401,0.5751611,1004.4463,5.825032665754845,1004.4280246599646,0,0
17.12,1.2568035,-9.821135,0.56096005,1004.43616,5.819430365214517,1004.4285993005203,0,0
17.14,1.3237461,-9.797302,0.57516557,1004.43854,5.81411330991775,1004.429142839434,0,0
17.16,1.2664138,-9.797302,0.5467615,1004.4538,5.809048502185616,1004.4297118761957,0,0
17.18,1.4528517,-9.7591715,0.44734126,1004.4588,5.8041893269664095,1004.4303193943242,0,0
17.2,1.4337561,-9.768704,0.5136251000000001,1004.47394,5.799549820118357,1004.4310132315227,0,0
17.22,1.4290001,-9.721039,0.43314242,1004.4765,5.795013744758303,1004.4317900584384,0,0
17.24,1.5963186000000005,-9.673374,0.3810663,1004.436,5.7905366588695895,1004.4324916184904,0,0
17.259999999999998,1.4864085,-9.8116045,0.34319338,1004.46906,5.786372831541801,1004.4332431631257,0,0
17.28,1.4099555,-9.706741,0.35739878,1004.46387,5.782263069908834,1004.4340174845779,0,0
17.3,1.4291017,-9.744876,0.3242604,1004.436,5.778297616621742,1004.4347088120693,0,0
17.32,1.3430904,-9.783008,0.43788844,1004.441,5.774536370119122,1004.4353423173168,0,0
17.34,1.314437,-9.668612,0.40001553,1004.46387,5.7707223258131775,1004.4360047822113,0,0
17.36,1.3049012,-9.840208,0.35740805,1004.45105,5.767222540079263,1004.4366442989757,0,0
17.38,1.3383836999999998,-9.773477,0.34320703,1004.45886,5.763883908317464,1004.4372893525128,0,0
17.4,1.4340067,-9.682913,0.36214712,1004.44855,5.760542893153249,1004.4378998601493,0,0
17.419999999999998,1.4866098,-9.744879,0.42843112,1004.44855,5.757360838310118,1004.4384776452,0,0
17.44,1.5535526000000002,-9.735346,0.4947151,1004.44855,5.754339015353812,1004.4390244365483,0,0
17.46,1.6013743,-9.668615,0.48051408,1004.4309,5.751347389922162,1004.439478333412,0,0
17.48,1.653976,-9.568518,0.32428090000000004,1004.4536,5.748193110260747,1004.4399302346803,0,0
17.5,1.859533,-9.554218,0.27220473,1004.44867,5.744951094611717,1004.4403609977963,0,0
17.52,1.9694954,-9.792548,0.063893385,1004.45105,5.742166046605963,1004.4407801004936,0,0
17.54,1.8404644,-9.797314,0.1017708,1004.4309,5.739753981798388,1004.4411148512752,0,0
17.56,1.381627,-9.768716,0.20119548,1004.44366,5.737469794681085,1004.4414197996007,0,0
17.58,1.0996441,-9.744884,0.366902,1004.44855,5.735193764729067,1004.4417149206633,0,0
17.599999999999994,0.8844518,-9.873578,0.47104964,1004.44604,5.733163232570868,1004.4419912599193,0,0
17.62,0.8079951999999999,-9.945077,0.3668946,1004.4335,5.731482245968518,1004.4422048647502,0,0
17.64,0.9753086,-9.892645,0.34795883,1004.45874,5.730037405975398,1004.442453132466,0,0
17.66,1.2095393,-9.811614,0.38583592,1004.45874,5.728695683800657,1004.4427311345424,0,0
17.68,1.4342091,-9.763948,0.33375922,1004.4259,5.727410310331493,1004.4429161850928,0,0
17.7,1.6110833999999998,-9.706751,0.2769483,1004.46625,5.726115082427637,1004.443163697493,0,0
17.72,1.6541206000000002,-9.6924515,0.14438672,1004.4385,5.724795452555185,1004.4433656101387,0,0
17.74,1.5776628,-9.706752,0.21067013,1004.4561,5.723464702713343,1004.443589863956,0,0
17.759999999999994,1.6446016,-9.711519,0.28168818,1004.43585,5.722165148452635,1004.4437601511188,0,0
17.78,1.5442448,-9.68292,0.33376837,1004.4714,5.720808775470233,1004.4440101203118,0,0
17.8,1.5060266000000002,-9.673387,0.35270786,1004.4359,5.719376540635227,1004.4442017966576,0,0
17.82,1.525166,-9.701988,0.24381842,1004.44867,5.717940398696983,1004.4443872474087,0,0
17.84,1.5299649,-9.783019,0.30536744,1004.45105,5.716677401407113,1004.4445750976016,0,0
17.86,1.5443233,-9.687689,0.2674939,1004.4687,5.715378675241393,1004.4448279316812,0,0
17.88,1.4630883999999995,-9.711522,0.37165278,1004.4536,5.714083171117243,1004.4450829153192,0,0
17.9,1.4535476,-9.754421,0.37165454,1004.4485,5.712880358369932,1004.445320520367,0,0
17.919999999999995,1.305394,-9.787787,0.366922,1004.43585,5.711789013843205,1004.4454963743136,0,0
17.94,1.3101941,-9.783022,0.35272062,1004.44867,5.710790527059313,1004.4456631839136,0,0
17.96,1.2671963,-9.797321,0.37639448,1004.4789,5.709897289631883,1004.4459302294141,0,0
17.98,1.305455,-9.797322,0.37639636,1004.4636,5.709110612403599,1004.446229801992,0,0
18.0,1.2911358,-9.7687235,0.3669294,1004.46375,5.708357388229357,1004.4465575770348,0,0
18.02,1.3150539,-9.773491,0.37166557,1004.4686,5.707653185529558,1004.4469265517854,0,0
18.04,1.2816155,-9.768724,0.34326100000000004,1004.4409,5.706973730157312,1004.4472308822886,0,0
18.06,1.2816344,-9.740126,0.34326276,1004.46625,5.706259695326621,1004.4475682575453,0,0
18.08,1.2720965,-9.725826,0.3479991,1004.41815,5.705485994755591,1004.4477604565944,0,0
18.1,1.2666081,-9.840206,0.30532459999999995,1004.3904,5.704893584633192,1004.4477237860306,0,0
18.12,1.3908741000000002,-9.687677,0.32426143,1004.4435,5.704185599693716,1004.4476761782907,0,0
18.14,1.4147649,-9.759175,0.39527673,1004.43823,5.703537512597136,1004.44760010585,0,0
18.16,1.4434341999999998,-9.783008,0.38107264,1004.45856,5.70300111817282,1004.4475723438603,0,0
18.18,1.4625446000000002,-9.744875,0.31005576,1004.4332,5.702487679158818,1004.4474960729283,0,0
18.2,1.4768763,-9.697208,0.31952387,1004.46625,5.701903541909399,1004.44749619407,0,0
18.22,1.5485638000000002,-9.697208,0.319523,1004.43823,5.701281991742077,1004.4474629428123,0,0
18.24,1.4672989,-9.735341,0.3905383,1004.4433,5.700687328992601,1004.4474185754068,0,0
18.26,1.3860327,-9.725807,0.338459,1004.451,5.700070477141444,1004.4473922654961,0,0
18.28,1.4864004,-9.754406,0.36213028,1004.43835,5.69952716891538,1004.4473364659027,0,0
18.3,1.5819875,-9.678142,0.3242542,1004.46106,5.69892254794391,1004.4473365661052,0,0
18.32,1.4242451,-9.754406,0.4236759,1004.4484,5.69838022354131,1004.447340483006,0,0
18.34,1.2521639,-9.844971,0.42367515,1004.456,5.6980328771967015,1004.4473751182406,0,0
18.36,1.2425956,-9.6972065,0.47101834,1004.46857,5.697556676842297,1004.4474820235083,0,0
18.38,1.342963,-9.792539,0.41420475,1004.45856,5.6971866524770665,1004.4476163657184,0,0
18.4,1.4767879,-9.759172,0.22482768,1004.45593,5.696870131008657,1004.4477649995785,0,0
18.42,1.5914955,-9.773472,0.28637424,1004.43317,5.696671666540658,1004.4478437904587,0,0
18.44,1.5293487,-9.763937,0.26743576,1004.4433,5.696537201286953,1004.4478970524347,0,0
18.46,1.500661,-9.740105,0.29584140000000003,1004.4788,5.696403377677521,1004.4480553653284,0,0
18.48,1.3954964,-9.744872,0.27690294,1004.44073,5.696247133180039,1004.4481688792856,0,0
18.5,1.471965,-9.725805,0.33844945,1004.4534,5.696059595696959,1004.448288012253,0,0
18.52,1.5340936,-9.668606,0.3147766,1004.4558,5.695745796581156,1004.4484203212987,0,0
18.54,1.5579836,-9.754403,0.28636935,1004.4534,5.695503587016119,1004.4485551564153,0,0
18.56,1.5579747,-9.768703,0.2626965,1004.43835,5.6953534762388625,1004.4486375581607,0,0
18.58,1.5149476999999998,-9.759171,0.23902369,1004.44073,5.69525057408324,1004.4486819011336,0,0
18.6,1.4827155,-9.754433,0.28648,1004.4433,5.695172481880628,1004.4487017077403,0,0
18.62,1.5353315,-9.7735,0.25807706,1004.4635,5.695170813536103,1004.4487724827104,0,0
18.64,1.5736104,-9.697236,0.30542484,1004.4585,5.695095566194155,1004.448870038536,0,0
18.66,1.5593116000000002,-9.7544365,0.27228773,1004.451,5.695066158589921,1004.448963906725,0,0
18.68,1.5928133999999998,-9.697239,0.27702606,1004.476,5.694971463363812,1004.4491441785924,0,0
18.7,1.6119707,-9.687707,0.27702954,1004.44073,5.694806374364475,1004.4492731757716,0,0
18.72,1.4781767,-9.783039,0.22968920000000004,1004.4736,5.694729202647184,1004.4494747342463,0,0
18.74,1.5021139,-9.687709,0.2580991,1004.4483,5.694543181698394,1004.4496486022713,0,0
18.76,1.5069342,-9.68771,0.32911890000000005,1004.43066,5.694267608834804,1004.44973387309,0,0
18.78,1.5260965,-9.768742,0.22970033,1004.41785,5.6940805131506025,1004.449694436442,0,0
18.8,1.4592147,-9.730611,0.28651646,1004.42316,5.693876015309214,1004.449564066249,0,0
18.82,1.4735973999999998,-9.7687435,0.22497313,1004.4382,5.693736353501698,1004.449407960508,0,0
18.84,1.4927572,-9.744912,0.22971125,1004.4483,5.6936117364573695,1004.4492660368173,0,0
18.86,1.4880154,-9.6972475,0.2817932,1004.4483,5.693404291486951,1004.4491371553114,0,0
18.88,1.4832762,-9.749680499999998,0.28179693,1004.443,5.693230605179021,1004.449001181854,0,0
18.9,1.5072159,-9.744915,0.22972217,1004.4635,5.69308232211697,1004.4489332314522,0,0
18.92,1.4690155,-9.716317,0.32914817,1004.48364,5.692892152930727,1004.448998134844,0,0
18.94,1.4069185,-9.75445,0.2581358,1004.4281,5.692720776614348,1004.4489802501956,0,0
18.96,1.4069566,-9.711552,0.31495216,1004.438,5.692481866562433,1004.4489249184194,0,0
18.98,1.2253648,-9.740152,0.40490955,1004.4634,5.692199281814491,1004.4489281375556,0,0
19.0,1.330561,-9.725854,0.36703807,1004.44324,5.691875031130638,1004.4489105046891,0,0
19.02,1.4214203,-9.849785,0.39544842,1004.42566,5.691798564021123,1004.4488112224716,0,0
19.04,1.3784403,-9.835486,0.291295,1004.4481,5.691891864127992,1004.4487209363033,0,0
19.06,1.3163409,-9.816421,0.35758016,1004.4256,5.692082576598338,1004.4485579240744,0,0
19.08,1.498014,-9.778289,0.26763020000000004,1004.443,5.6923280207299864,1004.4483938779416,0,0
19.1,1.4693757,-9.79259,0.30550915,1004.45593,5.692643677178304,1004.4482760568187,0,0
19.12,1.440735,-9.749692,0.31024703,1004.4735,5.692923633434508,1004.44826275627,0,0
19.14,1.5268146,-9.706794,0.31025097,1004.4409,5.693109902251647,1004.4482244979822,0,0
19.16,1.5125132,-9.78306,0.25817597,1004.443,5.693361579618311,1004.4481718847667,0,0
19.18,1.4677368,-9.76395,0.2722183,1004.41785,5.693617654948772,1004.448016236944,0,0
19.2,1.3577812,-9.783016,0.33849812,1004.4354,5.69388747374612,1004.447833288075,0,0
19.22,1.4103388,-9.744884,0.35269946,1004.43317,5.694106397896498,1004.4476188466174,0,0
19.24,1.4150969999999998,-9.730583,0.2722126,1004.4483,5.69424627204734,1004.4474318182974,0,0
19.26,1.3959548000000002,-9.792549,0.3668986,1004.44037,5.694443911097124,1004.4472411375281,0,0
19.28,1.3863763999999998,-9.768715,0.33375603,1004.4609,5.694637623214593,1004.4471218239051,0,0
19.3,1.4006929,-9.721048,0.36689478,1004.44324,5.694735813425826,1004.447002423822,0,0
19.32,1.4102336000000002,-9.759181,0.4284403000000001,1004.45807,5.694835622802152,1004.4469367651826,0,0
19.34,1.4627872,-9.806846,0.36689085,1004.42535,5.695045157683058,1004.4468010368544,0,0
19.36,1.4579871000000002,-9.802078,0.42843625,1004.4382,5.69534475658911,1004.4466501435708,0,0
19.38,1.4006094999999998,-9.759179,0.3952936,1004.43286,5.695614610263196,1004.4464671697484,0,0
19.4,1.1711572,-9.844976,0.3952916,1004.44293,5.695971888686907,1004.446292760268,0,0
19.42,1.1472353000000002,-9.806844,0.4284303,1004.43036,5.69632353205874,1004.446081294114,0,0
19.44,1.247591,-9.792544,0.47577253,1004.453,5.69666923219115,1004.4459193499617,0,0
19.46,1.2619101,-9.778242,0.4852395000000001,1004.44037,5.696983724545581,1004.4457562784488,0,0
19.48,1.4387401000000002,-9.706744,0.3858149,1004.4353,5.697163728387637,1004.4455745458577,0,0
19.5,1.5390943,-9.744877,0.37160972,1004.4606,5.697332941180584,1004.4454680585746,0,0
19.52,1.5629731000000002,-9.7305765,0.31006062,1004.45844,5.6974660574394775,1004.4454206654007,0,0
19.54,1.5677313999999998,-9.706742,0.25798014,1004.43787,5.697516361495715,1004.4453516063968,0,0
19.56,1.6824251,-9.692443,0.31005666,1004.4278,5.697506510719335,1004.445227400078,0,0
19.58,1.6107079,-9.740108,0.20116347,1004.4557,5.697510419710647,1004.4451553527343,0,0
19.6,1.5915658,-9.759173,0.23903662,1004.4483,5.69756087228449,1004.4451030124317,0,0
19.62,1.5628669,-9.72104,0.2721756,1004.4455,5.697566308778976,1004.4450581936952,0,0
19.64,1.5628452,-9.787771,0.13014148,1004.4455,5.697662851569568,1004.4450201823628,0,0
19.66,1.5293677,-9.711507,0.23903108,1004.42523,5.697676357909881,1004.4449153508928,0,0
19.68,1.5102255,-9.725805,0.24849777,1004.43787,5.697640138873575,1004.4447973585426,0,0
19.7,1.5247372,-9.754409,0.2201071,1004.4533,5.697622079520787,1004.4447237100113,0,0
19.72,1.5725222,-9.763941,0.23430912,1004.46826,5.697655932979956,1004.4447433648128,0,0
19.74,1.5533899,-9.716276,0.24377674,1004.4532,5.697631923102902,1004.4447911756822,0,0
19.76,1.548596,-9.7925415,0.19169702,1004.46826,5.697709431271285,1004.4449179091341,0,0
19.78,1.6298388,-9.706741,0.276915,1004.4884,5.697731762716777,1004.4451864263393,0,0
19.8,1.6154889,-9.735341,0.26271084,1004.44794,5.697758153618567,1004.4454336010066,0,0
19.82,1.6106925,-9.74964,0.31005338,1004.4404,5.697818569427446,1004.4456338835793,0,0
19.84,1.5628806,-9.768706,0.28638008,1004.45557,5.697930504013599,1004.4458466232795,0,0
19.86,1.5819857,-9.740107,0.1822219,1004.43787,5.69803007615691,1004.4460058842348,0,0
19.88,1.5437335,-9.79254,0.19168942,1004.4457,5.698213768745205,1004.4461455060318,0,0
19.9,1.4815822,-9.787771,0.27690744,1004.42523,5.698445804405134,1004.44619358003,0,0
19.92,1.4003114,-9.84497,0.22956212,1004.4479,5.698810271094617,1004.4462422013264,0,0
19.94,1.2760234,-9.868801,0.24376413,1004.453,5.699305469356832,1004.4463094911792,0,0
19.96,1.1182795,-9.854502,0.22955993,1004.4354,5.699844703652582,1004.4463296743248,0,0
19.98,1.2090793,-9.783004,0.22482403,1004.4327,5.700295353808207,1004.4462984413252,0,0
20.0,1.4528342,-9.740104,0.19641624,1004.47327,5.7006449491608535,1004.4463679414572,0,0
20.02,1.6774721,-9.673371,0.09225814,1004.45044,5.700838220187782,1004.4464440111853,0,0
20.04,1.7969540000000002,-9.644773,0.07331932,1004.443,5.700877793946267,1004.4464988279562,0,0
20.06,1.7348026,-9.682904,0.030708417,1004.47076,5.70083569056697,1004.4466346042744,0,0
20.08,1.7395678,-9.692437,0.14906718,1004.4479,5.7007450652001825,1004.4467591316541,0,0
20.1,1.5866,-9.701971,0.092253044,1004.44794,5.700576236565125,1004.4468734151727,0,0
20.12,1.5531282,-9.7162695,0.17273672,1004.45557,5.700359400129869,1004.4470057037953,0,0
20.14,1.5435556,-9.821134,0.13012588,1004.448,5.700311698049421,1004.447126173488,0,0
20.16,1.5674398,-9.721034,0.23901583,1004.4657,5.700220211642038,1004.4472994862844,0,0
20.18,1.482735,-9.811632,0.2296689,1004.44293,5.700248746129582,1004.4474368953204,0,0
20.2,1.4588739,-9.8021,0.20600039,1004.47076,5.7003552060050175,1004.4476422731217,0,0
20.22,1.4445752,-9.716304,0.26281697,1004.453,5.700352238488701,1004.4478430327632,0,0
20.24,1.4063773000000002,-9.840235,0.196539,1004.4379,5.700492761172888,1004.4479846290652,0,0
20.26,1.5928277,-9.7449045,0.26282415,1004.4681,5.700625607290213,1004.4481821588928,0,0
20.28,1.4972721000000002,-9.735373,0.22021821,1004.4607,5.700698358090923,1004.448401760476,0,0
20.3,1.4781936000000002,-9.759207,0.22969076,1004.4607,5.700761172417723,1004.4486400740976,0,0
20.32,1.3252803999999998,-9.792573,0.24863209,1004.4331,5.700839463479035,1004.4487947037468,0,0
20.34,1.2583936000000002,-9.806874,0.2912445,1004.4457,5.700944861391956,1004.4489201935713,0,0
20.36,1.363595,-9.768742,0.24863903,1004.4634,5.701021904824518,1004.4490832036834,0,0
20.38,1.2823815,-9.787809,0.29598704,1004.4504,5.701092965268464,1004.4492319798852,0,0
20.4,1.3636761,-9.744911,0.2865217,1004.4455,5.701092259225128,1004.4493500034092,0,0
20.42,1.2872424999999998,-9.816411,0.31019774,1004.4428,5.7011555007905415,1004.4494307089833,0,0
20.44,1.421115,-9.744913,0.28652915,1004.4301,5.701164544875307,1004.4494324298756,0,0
20.46,1.4546066999999998,-9.76398,0.24392252,1004.4352,5.70117262597688,1004.4493827137088,0,0
20.48,1.5406888,-9.792581,0.28653634,1004.43036,5.7012680174331765,1004.4492703027347,0,0
20.5,1.4929313999999998,-9.659118,0.27233684,1004.443,5.701150112155669,1004.4491484033076,0,0
20.52,1.454736,-9.687719,0.25813755,1004.4329,5.700890155781641,1004.4489821987222,0,0
20.54,1.440422,-9.763984,0.3386248,1004.4482,5.700663028308388,1004.4488325244353,0,0
20.56,1.1871457,-9.768752,0.44752097,1004.4253,5.700414438525821,1004.4486155551473,0,0
20.58,1.2923292,-9.73062,0.4143827000000001,1004.4301,5.700093766345023,1004.4483571850856,0,0
20.6,1.153763,-9.835486,0.36704308,1004.4454,5.699887062091963,1004.4481182434332,0,0
20.62,1.3019674,-9.730622,0.310233,1004.4454,5.699599964033883,1004.4478973289124,0,0
20.64,1.3737077,-9.721089,0.28656492,1004.45795,5.6992420589629065,1004.4477383184579,0,0
20.66,1.3068258999999998,-9.744924,0.31970897,1004.4482,5.698855100838691,1004.447599478874,0,0
20.68,1.3341508999999998,-9.787789,0.30064747,1004.4457,5.6985384702087325,1004.4474699620937,0,0
20.7,1.4249518,-9.725824,0.36692774,1004.4306,5.6981887428441444,1004.4472947892027,0,0
20.72,1.3006656,-9.821156,0.3716611,1004.41504,5.697971851818485,1004.4470238891954,0,0
20.74,1.2671894,-9.816388,0.27697137,1004.4405,5.697847835928111,1004.4467610359476,0,0
20.76,1.2432749,-9.749656,0.25329795,1004.4605,5.697661163096595,1004.4465782390887,0,0
20.78,1.2384756,-9.816387,0.3905939000000001,1004.4529,5.6975653740857375,1004.4464394781234,0,0
20.8,1.262357,-9.787787,0.33851385,1004.4354,5.69749359507396,1004.4462771268132,0,0
20.82,1.080708,-9.849752,0.35744998,1004.443,5.6975277729843175,1004.4461218755388,0,0
20.84,1.028119,-9.883118,0.41899616,1004.4352,5.697717750329202,1004.4459453767613,0,0
20.86,1.0759004,-9.906951,0.35744742,1004.42804,5.698099432849528,1004.4457249630846,0,0
20.88,1.0758798,-9.825918,0.37164873,1004.4454,5.698482892303289,1004.4455290356927,0,0
20.9,1.2479372,-9.825918,0.35270968,1004.4479,5.698907066934867,1004.4453644497212,0,0
20.92,1.2766007,-9.763951,0.3432395,1004.4379,5.6992449469831,1004.4451921495372,0,0
20.94,1.4868987,-9.763951,0.28169098,1004.4706,5.699562520736633,1004.4451313733567,0,0
20.96,1.5490196000000005,-9.649554,0.38111198,1004.4379,5.699653135988376,1004.4450516385796,0,0
20.98,1.6780578999999998,-9.673386,0.3006256,1004.443,5.699630044693444,1004.4449737990312,0,0
21.0,1.7545191999999998,-9.649553,0.25328013,1004.4631,5.699482821481887,1004.4449702743301,0,0
21.02,1.9600343,-9.606653,0.17752811,1004.4454,5.699216345117521,1004.4449687069164,0,0
21.04,1.735366,-9.706751,0.30062106,1004.4479,5.698968215927633,1004.4449778746048,0,0
21.06,1.7783697,-9.678152,0.2816821,1004.4251,5.698693500127543,1004.4449144148256,0,0
21.08,1.735334,-9.678151,0.2722117,1004.41,5.698379755515349,1004.4447326498716,0,0
21.1,1.7544366999999998,-9.663851,0.32902303,1004.42004,5.698014075499216,1004.4444831488188,0,0
21.12,1.6827241000000002,-9.711516,0.32428720000000005,1004.4277,5.6976749669780125,1004.4442022703523,0,0
21.14,1.6349096,-9.8163805,0.3053481,1004.4402,5.697557438258463,1004.4439396779663,0,0
21.16,1.5345173,-9.668616,0.32901862,1004.4378,5.697301237935183,1004.4436855484937,0,0
21.18,1.5727391000000002,-9.77348,0.35268915,1004.4251,5.697152757304791,1004.4433940917163,0,0
21.2,1.5443995,-9.687691,0.36218897,1004.4454,5.696915449194665,1004.4431437817784,0,0
21.22,1.5204978999999998,-9.740123,0.36692318,1004.4428,5.696700708351492,1004.4429213703024,0,0
21.24,1.4774773,-9.792556,0.39059496,1004.4226,5.696602649445545,1004.4426516905893,0,0
21.26,1.396218,-9.787787,0.39532912,1004.44525,5.696574129437819,1004.4424227555085,0,0
21.28,1.3292981,-9.778254,0.35271925,1004.46295,5.6965650193802775,1004.4422943665512,0,0
21.3,1.3149563999999998,-9.8402195,0.34325022,1004.468,5.696695981776197,1004.4422734623492,0,0
21.32,1.2814952,-9.749655,0.3385156,1004.4454,5.696754277049255,1004.4422662469316,0,0
21.34,1.3579698,-9.787787,0.37639058,1004.4455,5.696850762896907,1004.4422715128999,0,0
21.36,1.3436277,-9.82592,0.32431188,1004.4327,5.6970512203314065,1004.4422417084627,0,0
21.38,1.3436253,-9.778254,0.30063966,1004.4127,5.697243166479416,1004.442109023112,0,0
21.4,1.3962004,-9.68769,0.31484264,1004.4504,5.697256743541802,1004.4420216298528,0,0
21.42,1.506133,-9.735355,0.27223270000000005,1004.45557,5.697241707420463,1004.4419931833013,0,0
21.44,1.5634887,-9.721055,0.2390917,1004.4405,5.697188878251429,1004.4419626724688,0,0
21.46,1.5300275,-9.773488,0.187013,1004.45544,5.697197219384426,1004.441984231476,0,0
21.48,1.4870067,-9.79732,0.2154192,1004.4301,5.697296104757178,1004.4419604977817,0,0
21.5,1.4870043,-9.768722,0.28170067,1004.4402,5.69741935162439,1004.4419331888972,0,0
21.52,1.5013413,-9.79732,0.276966,1004.45294,5.697626635277063,1004.4419486832868,0,0
21.54,1.4057426000000002,-9.787787,0.23909055,1004.4402,5.697856620657808,1004.4419560788697,0,0
21.56,1.4822171,-9.711523,0.24855913,1004.45795,5.69797285213909,1004.4420201917227,0,0
21.58,1.443976,-9.778254,0.31957498,1004.45325,5.698117711466447,1004.4421172691497,0,0
21.6,1.4487532,-9.75442,0.27223070000000005,1004.4455,5.69823686945696,1004.4422152245952,0,0
21.62,1.4535308,-9.744887,0.31010570000000004,1004.45544,5.698317084880428,1004.442349387218,0,0
21.64,1.386611,-9.763953,0.29116786,1004.4529,5.6983805696267815,1004.4425059155176,0,0
21.66,1.4630853,-9.759188,0.28643322,1004.4605,5.698441906584728,1004.4427090026272,0,0
21.68,1.4152846,-9.759188,0.32904264,1004.4731,5.698489398833423,1004.442997857988,0,0
21.7,1.429912,-9.806861,0.28172493,1004.4451,5.698623831321032,1004.443260658296,0,0
21.72,1.4729391,-9.77826,0.26278812,1004.4655,5.698787843796357,1004.4435729302783,0,0
21.74,1.4586085,-9.773495,0.26752335,1004.4529,5.698963460720205,1004.4438824312526,0,0
21.76,1.4729563,-9.697229,0.3432746,1004.45306,5.699001346078434,1004.4441889455612,0,0
21.78,1.4825248,-9.744895,0.28646255,1004.46295,5.699014499547863,1004.4445273214,0,0
21.8,1.4729741000000005,-9.744896,0.28646335,1004.45044,5.699002779715363,1004.4448475959344,0,0
21.82,1.5733588,-9.763962,0.28646415,1004.4378,5.699040436880993,1004.4451052191672,0,0
21.84,1.5255691999999998,-9.778261,0.31487134,1004.4506,5.699137171497669,1004.4453526362672,0,0
21.86,1.4730002,-9.749662,0.27226254,1004.443,5.699207825145386,1004.445562784526,0,0
21.88,1.5064676,-9.773497,0.29120097,1004.4378,5.699315745001305,1004.4457205255032,0,0
21.9,1.5160360000000002,-9.763963,0.35748345,1004.4428,5.699444189036992,1004.4458493915387,0,0
21.92,1.4539075,-9.711532,0.35748428,1004.4428,5.699463192646264,1004.4459522797583,0,0
21.94,1.525613,-9.725831,0.28173453,1004.42,5.6994322416687355,1004.4459497635817,0,0
21.96,1.5495209,-9.759198,0.30067298,1004.4326,5.6994346412307735,1004.4458994811397,0,0
21.98,1.5543083999999998,-9.702,0.33854893,1004.4126,5.699353281109322,1004.4457351734413,0,0
22.0,1.5543184,-9.759198,0.24386173,1004.448,5.699309736667368,1004.4455981445348,0,0
22.02,1.5686656,-9.673399,0.27700326,1004.4251,5.699130306599219,1004.4454032724727,0,0
22.04,1.4587395,-9.52087,0.33381703,1004.4352,5.698486590560888,1004.4451943517378,0,0
22.06,1.4300691,-9.535171,0.27227053,1004.4479,5.697451374653201,1004.4450194897099,0,0
22.08,1.4491965,-9.516105,0.22492719,1004.4401,5.696038186960468,1004.4448472714597,0,0
22.1,1.4444263000000002,-9.501804,0.28647533,1004.4376,5.69426864432057,1004.444669009236,0,0
22.12,1.4396553,-9.39694,0.26280412,1004.4376,5.691972316229186,1004.444486048302,0,0
22.14,1.4874622,-9.382642,0.17285125,1004.4376,5.689200446503618,1004.4442995942468,0,0
22.16,1.4731312,-9.392175,0.23913369,1004.46027,5.686036281198411,1004.4441923369044,0,0
22.18,1.5687361000000002,-9.377874,0.28174412,1004.4527,5.682541745701664,1004.444128191904,0,0
22.2,1.5642234,-9.458913,0.1776117,1004.4605,5.678927235385832,1004.4441304518904,0,0
22.22,1.5642425,-9.416015,0.25809829999999995,1004.425,5.675135604586874,1004.444063579188,0,0
22.24,1.497343,-9.249186,0.2154903,1004.4451,5.670834337271504,1004.4440082215827,0,0
22.26,1.5021406000000002,-9.273018,0.29597682,1004.44775,5.6661532697165615,1004.4439727780052,1,3
22.28,1.4591426,-9.182454,0.31965068,1004.4502,5.660955175924064,1004.4439638780592,1,3
22.3,1.5165193,-9.358817,0.26757398,1004.45795,5.6556962089487275,1004.444006364106,1,3
22.32,1.5499957,-9.28732,0.20602834,1004.42,5.650263882508613,1004.443957481866,1,3
22.34,1.5069977,-9.239654,0.24390544,1004.4326,5.644587550848835,1004.4438734025841,1,3
22.36,1.5213549,-9.187223,0.23917265,1004.45026,5.638613136993625,1004.4438221018812,1,3
22.38,1.5070344999999998,-9.19199,0.258112,1004.4175,5.632402831476033,1004.4436820130134,1,3
22.4,1.4735926,-9.258722,0.26758236,1004.44775,5.626132792285058,1004.4435728752428,1,3
22.42,1.5500896999999998,-9.149092,0.22024015,1004.45264,5.619630966408545,1004.443509082758,1,3
22.44,1.5501087,-9.220592,0.18710105,1004.4554,5.613092743709905,1004.4434955230206,1,3
22.46,1.5596874,-9.068061,0.1823684,1004.46027,5.606236558211338,1004.4435439297536,1,3
22.48,1.5310264,-9.187226,0.18237005,1004.4198,5.599358317320761,1004.4435012237958,1,3
22.5,1.5023679,-9.149094,0.26285675,1004.43744,5.592401467391491,1004.4434416684056,1,3
22.52,1.5071654,-9.134794,0.17763911,1004.44525,5.585368294114324,1004.4433955552568,1,3
22.54,1.4211481,-9.101429,0.2297193,1004.42487,5.578198596503794,1004.4432881176796,1,3
22.56,1.5167631,-9.106196,0.22972102,1004.4755,5.570975502278913,1004.4433091486128,1,3
22.58,1.5454597,-9.182461,0.25339472,1004.468,5.563898642090548,1004.4434166186104,1,3
22.6,1.5454788000000002,-9.134796,0.25339645,1004.46796,5.556878825265052,1004.4435999352727,1,3
22.62,1.440341,-9.101431,0.2723357,1004.4198,5.549832100684391,1004.4436762341091,1,3
22.64,1.4977163999999998,-9.082365,0.22025888,1004.44775,5.542763983433251,1004.4437583173179,1,3
22.66,1.4833972,-9.039467,0.20605752,1004.4653,5.5356089385172265,1004.4439083960988,1,3
22.68,1.5455537,-9.082367,0.20605926,1004.46545,5.5285120584011365,1004.444118555484,1,3
22.7,1.525069,-9.149064,0.22487189,1004.4476,5.521622627576932,1004.4443167855168,1,3
22.72,1.5154694,-9.063265,0.21539944,1004.4504,5.514761701518403,1004.4445138411456,1,3
22.74,1.4532988000000002,-9.106163,0.28167805,1004.4627,5.5080215119543645,1004.4447534296713,1,3
22.76,1.4676026000000002,-9.129995,0.24853396,1004.4806,5.5014638831586815,1004.445094177746,1,3
22.78,1.4388883999999995,-9.115695,0.25326514,1004.4781,5.49505271320293,1004.4455140837047,1,3
22.8,1.4388552,-9.225325,0.25326207,1004.46545,5.489019047434373,1004.4459568819084,1,3
22.82,1.4866153999999998,-9.272989,0.27219626,1004.4806,5.4834550823058406,1004.4464728536265,1,3
22.84,1.4865799,-9.253922,0.24378657,1004.46533,5.478285425591585,1004.4469966519632,1,3
22.86,1.4387486,-9.234856,0.30533078,1004.49554,5.473431887877259,1004.4476342362268,1,3
22.88,1.4817336,-9.234855,0.2721869,1004.49835,5.4688869640635716,1004.4483801824316,1,3
22.9,1.4769181999999998,-9.420749,0.2579804,1004.5058,5.465010150852356,1004.4492460118414,1,3
22.92,1.5151212,-9.373082,0.2863836,1004.49554,5.4616540021717634,1004.4501777170652,1,3
22.94,1.433829,-9.454113,0.34319326,1004.5235,5.4589140595923675,1004.4512649320196,1,3
22.96,1.4098966999999998,-9.406446,0.3384558,1004.5107,5.456622793280977,1004.452439561398,1,3
22.98,1.4146432,-9.387381,0.3005775,1004.5412,5.454695881973889,1004.4537970014958,1,3
23.0,1.4385046,-9.444578,0.31477726,1004.5309,5.453223708924642,1004.4552740063608,1,3
23.02,1.4528106,-9.444577,0.2958366,1004.5334,5.452161879746739,1004.4568603414363,1,3
23.04,1.4623325,-9.463642,0.32897398,1004.5308,5.451510857355178,1004.4585282098802,1,3
23.06,1.4909781000000002,-9.473175,0.26742366,1004.5032,5.451249926310692,1004.4601627568816,1,3
23.08,1.4240253,-9.411209,0.2768892,1004.5385,5.451186724833393,1004.4618890566874,1,3
23.1,1.4192122,-9.430274,0.31002703,1004.5513,5.451338256803461,1004.4637362945912,1,3
23.12,1.4669726,-9.535137,0.29582036,1004.56366,5.451908342111653,1004.4657282393428,1,3
23.14,1.4382583,-9.563736,0.29581708,1004.531,5.452895975896574,1004.4677233000638,1,3
23.16,1.4621217,-9.620934,0.34789228,1004.5614,5.454377482073362,1004.4698233718364,1,3
23.18,1.4668661,-9.6114,0.2863418,1004.56366,5.456267776189806,1004.4720168071162,1,3
23.2,1.4437739,-9.58282,0.30535325,1004.5713,5.458447777767764,1004.4743123460236,1,3
23.22,1.4628903999999998,-9.692451,0.3669003,1004.5765,5.461111428402656,1004.4767085597567,1,3
23.24,1.505906,-9.701984,0.30535278,1004.58636,5.464221556156424,1004.4792205993962,1,3
23.26,1.4772248,-9.783015,0.33849338,1004.58636,5.467874617285094,1004.4818259394638,1,3
23.28,1.4772223,-9.773482,0.29588354,1004.5788,5.471971841882748,1004.4844771245653,1,3
23.3,1.5011188999999998,-9.830681,0.34796172,1004.5916,5.476575223149531,1004.4872053540726,1,3
23.32,1.4963367,-9.768716,0.33849272,1004.5967,5.481479854221737,1004.4900101983908,1,3
23.34,1.5154533,-9.802081,0.3479613,1004.6017,5.486708234437459,1004.4928906421158,1,3
23.36,1.5058913,-9.802081,0.33375785,1004.6092,5.4921998177843125,1004.4958545158796,1,3
23.38,1.429412,-9.783015,0.33375764,1004.6192,5.497841482747322,1004.4989174384804,1,3
23.4,1.5441246000000002,-9.70675,0.39530465,1004.62195,5.503479522276425,1004.5020667541118,1,3
23.42,1.5536816999999998,-9.706749,0.31481950000000003,1004.62195,5.509091148743472,1004.5052810690887,1,3
23.44,1.5011015,-9.701984,0.33849135,1004.64215,5.514634109759438,1004.5086139659539,1,3
23.46,1.5393374,-9.69245,0.29588148,1004.6292,5.520086318217032,1004.5119930233463,1,3
23.48,1.510656,-9.64955,0.3432253,1004.6572,5.525344608809734,1004.5155015035743,1,3
23.5,1.5297725,-9.630485,0.31955302,1004.6522,5.530378020166404,1004.519093711291,1,3
23.52,1.4915318000000002,-9.725816,0.29114637,1004.68256,5.535376191793373,1004.5228562646687,1,3
23.54,1.5154283000000002,-9.725816,0.30534938,1004.642,5.540333710776599,1004.5266097742804,1,3
23.56,1.5106459,-9.759182,0.2722083,1004.6596,5.54530241949142,1004.5304051401857,1,3
23.58,1.5058637,-9.80208,0.3100833,1004.67737,5.550352010808768,1004.5342877989954,1,3
23.6,1.558439,-9.80208,0.31008309999999994,1004.652,5.555471758997444,1004.5381422802428,1,3
23.62,1.5823356000000002,-9.80208,0.26747322,1004.67725,5.5606403452818345,1004.5420488876644,1,3
23.64,1.5154159,-9.7639475,0.33375466,1004.6697,5.5657376721475975,1004.5459603099864,1,3
23.66,1.4962941,-9.792548,0.37636405,1004.6823,5.570809529162943,1004.5499072656343,1,3
23.68,1.5249704,-9.778247,0.32901978,1004.67725,5.575816849722762,1004.5538532294884,1,3
23.7,1.5115023,-9.725837,0.3243651,1004.66187,5.580636919017159,1004.5577287435235,1,3
23.72,1.5784513,-9.72107,0.2912272,1004.6823,5.585284073421113,1004.5616016042486,1,3
23.74,1.5163455,-9.692472,0.35277736,1004.6949,5.589686922193023,1004.5655035382097,1,3
23.76,1.5163733999999998,-9.792572,0.36224872,1004.69244,5.594064218198938,1004.5694082583203,1,3
23.78,1.5355263,-9.640041,0.2628293,1004.7026,5.598089759099015,1004.5733379592804,1,3
23.8,1.5116569,-9.687708,0.31491047,1004.71014,5.601883291338104,1004.5773027303948,1,3
23.82,1.4830099,-9.711541,0.3291166,1004.69995,5.605498982968896,1004.5812475323224,1,3
23.84,1.5308415000000002,-9.668644,0.2723068,1004.71515,5.608868109894803,1004.585215208189,1,3
23.86,1.5260893999999998,-9.725843,0.35279426,1004.70245,5.61212840539421,1004.5891430918354,1,3
23.88,1.5404606,-9.8402405,0.28651544,1004.7353,5.615515757861239,1004.5931399346948,1,3
23.9,1.497476,-9.849774,0.29125297,1004.7202,5.619009426412144,1004.5971289612804,1,3
23.92,1.5309643999999998,-9.806877,0.30072448,1004.7479,5.622507557460921,1004.6011964409108,1,3
23.94,1.5740162,-9.906975,0.26758674,1004.7252,5.626214426465981,1004.6052368787248,1,3
23.96,1.5644865,-9.840244,0.26285505,1004.74286,5.629952092533643,1004.6093024528141,1,3
23.98,1.593197,-9.873611,0.30073320000000003,1004.75543,5.633783622660233,1004.6134208532492,1,3
24.0,1.5597701000000002,-9.945109,0.26286083,1004.74786,5.6378178780267145,1004.6175438528016,1,3
24.02,1.5502403,-9.854546,0.24392596,1004.7553,5.641826778509045,1004.6216828573364,1,3
24.04,1.5359327,-9.86408,0.25813207,1004.7553,5.645814560552398,1004.6258211034567,1,3
24.06,1.540742,-9.868847,0.30074444,1004.7729,5.649783129042628,1004.6300071417564,1,3
24.08,1.4977576,-9.9069805,0.27234109999999995,1004.7782,5.653783488385535,1004.6342394194876,1,3
24.1,1.579044,-9.921281,0.26760942,1004.7655,5.657852529842043,1004.6384515981807,1,3
24.12,1.593415,-9.973713,0.29601878,1004.78564,5.662081539343497,1004.6427033575204,1,3
24.14,1.6173438,-9.949882,0.22973979,1004.78564,5.666392110620083,1004.646974783986,1,3
24.16,1.5743573,-9.973715,0.2202739,1004.78827,5.670793563986358,1004.6512576791887,1,3
24.18,1.6221869,-10.045215,0.2297456,1004.76025,5.675422298226029,1004.6554344177445,1,3
24.2,1.6219916,-10.088109,0.19658688,1004.8059,5.680321688150397,1004.6596666600284,1,3
24.22,1.6363538999999998,-10.159607,0.18238577,1004.77795,5.685593481392425,1004.6638320893346,1,3
24.24,1.688953,-10.183441,0.19185652,1004.77545,5.691242223520316,1004.667914487148,1,3
24.26,1.5933783,-10.1453085,0.24867135,1004.81866,5.697096346715869,1004.672064377702,1,3
24.28,1.6746578,-10.173909,0.2107982,1004.8034,5.703194607609707,1004.676204029236,1,3
24.3,1.5934254,-10.245408,0.21080041,1004.80316,5.709606666396582,1004.680318866826,1,3
24.32,1.6603656000000002,-10.288308,0.19186488,1004.811,5.71638197290316,1004.6844251894,1,3
24.34,1.6603869999999998,-10.245409,0.24394529,1004.8107,5.723368127886222,1004.6885081253447,1,3
24.36,1.6604098000000005,-10.283542,0.23921296,1004.8488,5.730593437318473,1004.6926928582941,1,3
24.38,1.6747718999999996,-10.226344,0.22027743,1004.8513,5.737890658813432,1004.6969614740384,1,3
24.4,1.6317753000000002,-10.264476,0.3149675,1004.8183,5.745294210218126,1004.7011700416033,1,3
24.42,1.6509172,-10.278777,0.25815675,1004.82104,5.752797426161879,1004.705320263754,1,3
24.44,1.6079218000000002,-10.297843,0.19661155,1004.85114,5.760384057462963,1004.7095123510968,1,3
24.46,1.6892014,-10.188213,0.2297545,1004.8488,5.767820419519595,1004.7137179150087,0,0
24.48,1.6127472,-10.274012,0.22502214,1004.85394,5.775247716728891,1004.7179387507878,0,0
24.5,1.651007,-10.307378,0.22028972,1004.8539,5.7827209860394415,1004.722157741779,0,0
24.52,1.6892683999999998,-10.302613,0.24869823,1004.8486,5.7902122440794646,1004.7263408343484,0,0
24.54,1.6558325,-10.283546,0.16348104,1004.8687,5.797638675769659,1004.7305495079393,0,0
24.56,1.6319548,-10.278781,0.2771087,1004.86646,5.804968476272402,1004.7347575696956,0,0
24.58,1.6319777,-10.259715,0.25343877,1004.8715,5.812146134886178,1004.7389680858122,0,0
24.6,1.6128798999999998,-10.331214,0.27711275,1004.8639,5.819305344904758,1004.743138252744,0,0
24.62,1.6463627,-10.331215,0.26291177,1004.8538,5.826432560585317,1004.7472213945352,0,0
24.64,1.6368245,-10.2644825,0.27711695,1004.8713,5.83336656697547,1004.7512759416015,0,0
24.66,1.5651503999999998,-10.302617,0.31499428,1004.8841,5.8401625080420905,1004.7553367059996,0,0
24.68,1.5651716999999998,-10.28355,0.35287148,1004.8716,5.846775360157138,1004.7593433452803,0,0
24.7,1.5928702,-10.264461,0.366985,1004.8715,5.853173192074437,1004.7632873757054,0,0
24.72,1.5450568,-10.235861,0.27229548,1004.8791,5.859278176203412,1004.7671892464366,0,0
24.74,1.5593798,-10.293058,0.3385756,1004.87885,5.865228416713268,1004.7710389181276,0,0
24.76,1.5354652,-10.188194,0.32910538,1004.89667,5.87079705074563,1004.7748927599284,0,0
24.78,1.5975852,-10.288293,0.3527758,1004.88916,5.8762351327853395,1004.7787093766078,0,0
24.8,1.5258727,-10.216792,0.34803998,1004.8688,5.881368684036003,1004.7824060653501,0,0
24.82,1.5497551,-10.245392,0.3811793,1004.8687,5.886283217683536,1004.7859831176872,0,0
24.84,1.5640782,-10.212026,0.35750577,1004.85364,5.890920740001824,1004.7893873659089,0,0
24.86,1.5449433,-10.226325,0.33383235,1004.8816,5.895318543266572,1004.7927273251204,0,0
24.88,1.5544866000000002,-10.154825,0.36223727,1004.8866,5.899346834497694,1004.7960164547087,0,0
24.9,1.5879277,-10.212025,0.39537647,1004.90686,5.903164663189376,1004.7993217663762,0,0
24.92,1.5162141000000002,-10.159591,0.3243589000000001,1004.9066,5.9066475198702175,1004.8026285414068,0,0
24.94,1.5257583,-10.116693,0.3385607,1004.87885,5.909737623592871,1004.8058248050746,0,0
24.96,1.5735397,-10.054727,0.29594955,1004.884,5.9123546510508325,1004.8089304543532,0,0
24.98,1.5448455,-10.088092,0.329089,1004.89667,5.91460573723243,1004.8119904684204,0,0
25.0,1.4922502,-10.011827,0.3669626,1004.90936,5.916355102520527,1004.8150448271632,0,0
25.02,1.4970145,-10.0213585,0.35275796,1004.9142,5.9176748431535104,1004.8181006171714,0,0
25.04,1.5065576,-9.97846,0.33381885,1004.88904,5.918523701637134,1004.821056095,0,0
25.06,1.5113218000000002,-9.99276,0.33855185,1004.90436,5.918984610856272,1004.8239674492676,0,0
25.08,1.5495438999999998,-9.987993,0.3338159,1004.8991,5.919102976197682,1004.8268103990814,0,0
25.1,1.5256273,-9.8974285,0.25806382,1004.8993,5.9187200788063965,1004.8295833921001,0,0
25.12,1.520832,-9.897428,0.33854732,1004.8991,5.917899108594877,1004.8322838685195,0,0
25.14,1.4730175,-9.873594,0.3385458,1004.8865,5.916630190488317,1004.8348651875574,0,0
25.16,1.4730021,-9.873593,0.30540356,1004.92676,5.914967806384863,1004.837476862384,0,0
25.18,1.4968845,-9.787795,0.32907405,1004.87885,5.912796482047515,1004.8399334815559,0,0
25.2,1.5208653,-9.854528,0.32434709999999994,1004.874,5.910327536109379,1004.8422267897232,0,0
25.22,1.530413,-9.811629,0.25333,1004.8637,5.907515186441339,1004.8443304603762,0,0
25.24,1.5877572,-9.773497,0.35275126,1004.8813,5.904356340615991,1004.846322354108,0,0
25.26,1.5208271999999998,-9.78303,0.25806198,1004.88904,5.9008943661869875,1004.8482361749346,0,0
25.28,1.5542733999999998,-9.835462,0.2343888,1004.88153,5.897294182284638,1004.8500470847873,0,0
25.3,1.5542606,-9.706764,0.26279405,1004.87885,5.893322227182497,1004.851750895228,0,0
25.32,1.5064507,-9.7925625,0.25332415,1004.9066,5.889196266557635,1004.8534538389104,0,0
25.34,1.5255564,-9.844994,0.25805736,1004.89905,5.8850630556258166,1004.855122706128,0,0
25.36,1.5446637,-9.730597,0.30066592,1004.89154,5.880712161180723,1004.8567284194597,0,0
25.38,1.5924498,-9.763961,0.22491431,1004.8816,5.876264609780521,1004.8582367654492,0,0
25.4,1.5111803999999998,-9.716296,0.18703791,1004.9117,5.871621635348669,1004.85976200761,0,0
25.42,1.554186,-9.773495,0.24858403,1004.88635,5.8669568208542096,1004.861205428356,0,0
25.44,1.5302743,-9.697228,0.23437963,1004.8738,5.862124486279005,1004.8625261753853,0,0
25.46,1.4968046,-9.768726,0.2012378,1004.9018,5.857296122253926,1004.8638345732288,0,0
25.48,1.50635,-9.778259,0.19176766,1004.87885,5.852510850133988,1004.8650447290996,0,0
25.5,1.6067132,-9.73536,0.19650091,1004.9066,5.847725898387351,1004.8662636218022,0,0
25.52,1.6258205,-9.768726,0.19176543,1004.89905,5.8430331579034895,1004.8674586663558,0,0
25.54,1.5732298999999998,-9.768726,0.11601381,1004.93445,5.8384186813558046,1004.8687557765244,0,0
25.56,1.5971164,-9.749659,0.16809107,1004.89154,5.833860371714381,1004.8699839262739,0,0
25.58,1.5397475,-9.768725,0.1964965,1004.9092,5.8293893915305794,1004.871210297258,0,0
25.6,1.5445131,-9.725826,0.18229197,1004.88403,5.82492459999828,1004.8723400695894,0,0
25.62,1.5492808999999998,-9.7067585,0.19649409,1004.8738,5.820444345022692,1004.8733435921713,0,0
25.64,1.5779478999999998,-9.725825,0.17282097,1004.8964,5.816014216111946,1004.8743133077922,0,0
25.66,1.6209527,-9.721058,0.14914775,1004.8763,5.811648254199778,1004.8751773006073,0,0
25.68,1.5974163,-9.768732,0.16338415,1004.889,5.80744495882441,1004.8759904863762,0,0
25.7,1.592639,-9.716301,0.13024352,1004.8862,5.803290367128085,1004.8767457715708,0,0
25.72,1.5830818000000002,-9.721066,0.1633846,1004.8813,5.799201363893705,1004.8774295367908,0,0
25.74,1.6213226,-9.754433,0.15391602,1004.8941,5.795266044057728,1004.8780937254072,0,0
25.76,1.573527,-9.711534,0.16338503,1004.87885,5.791376940399005,1004.8786833250572,0,0
25.78,1.6022085,-9.706767,0.21072932,1004.9117,5.787544388231846,1004.8793231553373,0,0
25.8,1.6643484,-9.778265,0.08290063,1004.90405,5.783939546101656,1004.8799775260136,0,0
25.82,1.6739106,-9.7735,0.1207761,1004.9144,5.780543277072878,1004.8806796488497,0,0
25.84,1.6261152,-9.740134,0.11130753,1004.88635,5.777258361336393,1004.8813204578518,0,0
25.86,1.5878792,-9.716302,0.1444486,1004.8862,5.7740227377490445,1004.8819042430375,0,0
25.88,1.6213403,-9.716302,0.20126165,1004.92426,5.77085571949654,1004.882572556353,0,0
25.9,1.5735447,-9.730601,0.21546511,1004.8891,5.767774565409327,1004.8831865767957,0,0
25.92,1.5831065,-9.6495695,0.21546532,1004.8991,5.7646173771763936,1004.8837864135824,0,0
25.94,1.5974488000000002,-9.721067,0.19652794,1004.9016,5.7615549828496695,1004.884380558278,0,0
25.96,1.6548089,-9.754434,0.15391852,1004.9018,5.758673828886446,1004.8849682545214,0,0
25.98,1.6117933,-9.744901,0.30068532,1004.9091,5.75593589972326,1004.8855744172057,0,0
26.0,1.5400985,-9.792567,0.29121673,1004.90686,5.75340783278575,1004.8861866506516,0,0
26.02,1.5018629,-9.778266,0.29595140000000003,1004.9067,5.7510330337905025,1004.8868014681821,0,0
26.04,1.5066451,-9.759201,0.31488922,1004.9268,5.748765793821978,1004.8874887156668,0,0
26.06,1.5018678,-9.735368,0.35276467,1004.93207,5.746553976245906,1004.8882564601674,0,0
26.08,1.4445122,-9.749667,0.34329608,1004.9117,5.744409952719398,1004.8890192359517,0,0
26.1,1.4923131,-9.783033,0.3717028,1004.92175,5.742418982608439,1004.8898110553854,0,0
26.12,1.4923155,-9.759202,0.31015575,1004.9018,5.740517074404229,1004.8905538672376,0,0
