Timestamp,Ax,Ay,Az,P,LPFRMSAcc,LPFPValue,Value,Type
0.0,1.000085,-0.8239023999999999,8.224058,1004.73206,0.017304247382889545,3.617035416,0,0
0.02,0.7897229,-1.2528912,9.96158,1004.80707,0.05346431344448013,10.41733203408,0,0
0.04,1.5867587,-0.49974608,9.847844,1004.8424,0.10598123722783116,20.0060043704928,0,0
0.06,0.4586287,-1.5197867,8.507999,1004.83777,0.16999239176844472,32.023949603213374,0,0
0.08,2.1362436,-1.7390461,9.880968,1004.8528,0.2472609993609259,46.14518987227368,0,0
0.1,1.8111326,-1.5150158,9.781538,1004.9007,0.33555992046534505,62.07423761047521,0,0
0.12,1.5051226999999998,-1.8915713,8.910397999999997,1004.8608,0.4315621742267087,79.54317581655235,0,0
0.14,1.882631,-1.8296038,9.095031,1004.86835,0.534511532087335,98.30990024250252,0,0
0.16,2.7429292000000003,-2.1584945,9.024009,1004.89154,0.6436635134738758,118.15587184839909,0,0
0.18,3.0534961,-3.2833986000000004,9.596861,1004.8615,0.7598094302476427,138.88391262071505,0,0
0.2,3.5696187000000004,-3.3691945,10.037151,1004.8992,0.8829234899944547,160.31686448169887,0,0
0.22,3.9136684,-1.4911687,7.698346000000001,1004.88666,1.0067438508512196,182.29547200993005,0,0
0.24,5.715564,-3.0116982000000005,7.45215,1004.83966,1.133026447777849,204.67692869863941,0,0
0.26,6.136096,-3.378721,8.361147,1004.8871,1.263201920962184,227.33394044546785,0,0
0.28,5.815747,-3.049826,9.421645,1004.9172,1.3975473467193338,250.15297575936177,0,0
0.30000000000000004,4.792783999999998,-3.4978802000000004,9.142306,1004.9225,1.5338768931218512,273.03304564998473,0,0
0.32,5.4236164,-2.1918411,6.6235940000000015,1004.88776,1.6671829902743764,295.88455237699924,0,0
0.34,6.317349,-3.0021536,9.170696,1004.84076,1.8029424968115144,318.628386068432,0,0
0.36000000000000004,5.5907225999999985,-2.6017604,4.7487526,1004.78827,1.9325857855106825,341.1950131003357,0,0
0.38,6.3601747,-1.5102165,1.5908957,1005.01843,2.054164792180423,363.52464904656455,0,0
0.4,8.209863,-1.8915389,4.1143246,1005.0659,2.1736844443274186,385.5646638720848,0,0
0.42,9.261324,-1.4387137,3.820783,1004.8589,2.292503439975574,407.2686802219749,0,0
0.44,7.7842674,-2.7924132,4.573544,1004.67896,2.408881139550018,428.59702607593874,0,0
0.46,8.983913000000003,-3.3262656,4.1048307,1004.57965,2.5247028498819657,449.5162899186277,0,0
0.48,8.840418,-3.9554484,3.4420044,1004.6818,2.639317281614109,469.99914728632064,0,0
0.5,7.975182000000001,-4.0126452000000015,2.4525057999999995,1004.787,2.7503324610456885,490.0230363261834,0,0
0.52,9.208276,-4.503598,2.8265147,1004.79736,2.8606248687022067,509.5693322470318,0,0
0.54,8.028634,-5.356836,0.96124804,1004.8424,2.9679408463258685,528.6234223666041,0,0
0.56,5.03164,-5.518897,-0.070857376,1004.8603,3.067603942536712,547.1740691557386,0,0
0.5800000000000001,11.5082245,-3.3787117,-1.2355254999999998,1004.8255,3.1696837630551453,565.2129658096571,0,0
0.6,6.0352955,-4.2319245,0.3552296,1004.8406,3.2638090764717997,582.7347943761447,0,0
0.62,8.171814999999999,-3.7838666,-1.7563199,1004.85077,3.3542983974691962,599.736699609739,0,0
0.64,7.2636020000000014,-6.653332700000001,0.47358033,1004.8359,3.4426762246651847,616.2179401955481,0,0
0.66,7.23487,-7.1252210000000025,-1.4438585,1004.93396,3.529691080023976,632.1801420484646,0,0
0.68,5.929933,-6.3673363,-1.0082979,1004.89374,3.612076192273365,647.6261125583272,0,0
0.7000000000000001,6.030256,-7.482710000000001,0.6298013000000001,1004.8963,3.69188536709282,662.5603447756321,0,0
0.72,6.250074,-8.397886999999999,-0.16558357,1004.9046,3.770874901999227,676.9886716816502,0,0
0.74,6.187883,-8.860242999999997,0.38833693,1004.80457,3.8495715756310127,690.9176785697539,0,0
0.76,5.1506124,-7.2348447,-0.40231353,1004.8321,3.923727197064253,704.3554409732312,0,0
0.78,4.075106,-8.269186999999999,-0.4023181,1004.91974,3.994304802666483,717.3110793094403,0,0
0.8,4.744226,-8.602844000000001,-0.24135326,1004.92755,4.062713234732383,729.7941006378004,0,0
0.8200000000000001,5.9200044,-10.17104,0.32203606,1004.8854,4.133002586025303,741.8144269612434,0,0
0.84,4.127524,-9.446523,0.42145365,1004.83,4.201675975424833,753.3824433635773,0,0
0.86,4.9735,-9.770646,0.03322791,1004.7956,4.2700173345271635,764.5090300205702,0,0
0.88,5.202877,-11.667735,0.19892718,1004.8559,4.341587689526114,775.2057307226156,0,0
0.9,3.7115252,-9.017529,-0.20823652,1004.8611,4.4094702186636505,785.4840947923414,0,0
0.92,3.300412,-8.216745,0.20365213,1004.84894,4.471986367532369,795.3557707270984,0,0
0.94,4.5717897,-9.375017,-0.2887305,1004.9214,4.532813866017633,804.8328198484323,0,0
0.96,2.4447207000000004,-8.83163,-0.06148428,1004.9321,4.589289842996528,813.9270978605887,0,0
0.98,2.1530993,-7.034636,0.04740216,1004.95966,4.6379616319320665,822.6505191358317,0,0
1.0,1.4121795,-6.400682,0.080538414,1004.89215,4.677895903095814,831.0146040457475,0,0
1.02,3.477002,-10.590486,0.26990974,1004.79987,4.719516080073456,839.0307364295845,0,0
1.04,1.7856792,-9.341664,-0.113510355,1004.88513,4.759070647147038,846.7108668207964,0,0
1.06,1.6135862,-9.089037,0.42620993,1004.75775,4.796095446746541,854.0659988139163,0,0
1.08,2.3114161,-8.421717999999998,0.11847164,1004.8581,4.829697805878556,861.1078450073069,0,0
1.1,2.2922754000000003,-10.4522705,1.3872901000000002,1004.8381,4.8644290097738505,867.8474492217606,0,0
1.12,3.6783967,-14.608707,-0.9799141,1004.8986,4.908983101075107,874.2959476484532,0,0
1.14,2.7128563,-10.423671,0.28417,1004.8606,4.95307346347833,880.4638736067446,0,0
1.16,2.837111,-10.733496,0.34571543,1004.8191,4.997287157623308,886.3615317985068,0,0
1.18,1.3696882,-9.818316,0.18474355,1004.8441,5.0389723234874175,891.9992398222729,0,0
1.2,2.464243,-9.074733,0.14686646,1004.86664,5.077211946405995,897.3870412727125,0,0
1.22,1.3744261,-9.074733,1.0227294,1004.84143,5.111917166139467,902.5345384337393,0,0
1.24,1.0780581,-9.16053,0.05690894,1004.87933,5.14335136069042,907.4513081748613,0,0
1.26,1.4460801,-7.4779353,1.4724938,1004.85474,5.168734223891605,912.1464182726868,0,0
1.28,1.7089491,-11.562874,0.6913151999999999,1004.8347,5.196891582646838,916.628695369344,0,0
1.3,1.6324507,-9.904111,0.4167178,1004.81494,5.223943645848935,920.9067058926204,0,0
1.32,1.2978427,-10.104306,0.5256071,1004.7852,5.25024275269329,924.9887185697743,0,0
1.34,1.3312813,-9.851678,1.1505466999999998,1004.81036,5.2753801308560355,928.882942880456,0,0
1.36,1.3503789,-9.87551,1.1410758,1004.8686,5.299452332052585,932.597427847005,0,0
1.38,1.1352675,-9.966074,1.2357621,1004.8485,5.32265018147912,936.1396506231982,0,0
1.4,1.0731071,-9.80401,1.3683233,1004.8634,5.344681562263089,939.5169641659993,0,0
1.42,1.1543423000000002,-9.532316,1.4061965,1004.86163,5.365077806605863,942.7363992094204,0,0
1.44,0.96313137,-9.708679,1.4109293,1004.8566,5.384274760699282,945.8047247366336,0,0
1.46,1.3024744,-9.889808,1.4582711000000002,1004.85175,5.402807253388613,948.7284664634273,0,0
1.48,1.0586841,-9.603813,1.4630038,1004.8602,5.420043437072655,951.5139588939536,0,0
1.5,1.4410483,-9.684845,1.7281286,1004.88745,5.436426894273035,954.1673645735488,0,0
1.52,1.5653002,-9.613346,1.8180803,1004.8975,5.451925942608996,956.694542319574,0,0
1.54,1.560499,-8.850696000000003,1.8370157,1004.9179,5.46505976720966,959.1011606636116,0,0
1.56,1.4645892,-9.923164,1.8985343,1004.9379,5.4782090941151935,961.3926608940139,0,0
1.58,1.3737401000000002,-9.270144,1.8701249,1004.908,5.489968381855683,963.5740857183793,0,0
1.6,1.4788649,-9.589503,1.8322468,1004.9133,5.501118448093458,965.650413864602,0,0
1.62,1.2876418,-9.384541,1.7754310000000002,1004.9155,5.511197613127524,967.6264117246919,0,0
1.64,1.502702,-9.513236,1.9884765,1004.8859,5.520703498145057,969.5065375916588,0,0
1.66,1.3497132,-8.946016,1.9884733,1004.87646,5.528481574156891,971.2951485283804,0,0
1.68,1.8563393,-10.085222,2.1068306,1004.8961,5.5372108061769785,972.9965285773656,0,0
1.7,1.7798318,-9.336872,2.2062502,1004.86426,5.545270975117711,974.6145918217703,0,0
1.72,1.1440848,-8.926947,2.0452776000000004,1004.85455,5.5516129856141605,976.1531763539681,0,0
1.74,1.8419033,-9.813525,1.2593632,1004.85724,5.558148587853118,977.6160042757435,0,0
1.76,1.8801106,-9.560897,1.8558954,1004.86237,5.564530716833893,979.0066459440317,0,0
1.78,1.708007,-9.632394,1.5718282,1004.86456,5.570731307030027,980.3285054127327,0,0
1.8,1.6410546,-9.660994,1.6901851000000003,1004.8774,5.5768238837513655,981.584876459791,0,0
1.82,1.5884438,-9.389299,2.2961862,1004.8628,5.582490573699889,982.7788064417163,0,0
1.84,1.6314291,-9.689591,1.9032273,1004.8503,5.5882031725635875,983.9132203505555,0,0
1.86,1.7508932,-9.470328,2.1446793,1004.8654,5.5936409096272905,984.9910163271436,0,0
1.88,2.1332447999999995,-9.279666,2.0121126,1004.8408,5.598536137745394,986.0148160732796,0,0
1.9,1.9659206,-9.394062,1.6286231000000002,1004.84827,5.602940161192362,986.9872459631011,0,0
1.92,1.8416147,-8.988904,1.8416685,1004.87537,5.606112488617028,987.9108822602803,0,0
1.94,2.3864796000000004,-9.1080675,1.9458225,1004.911,5.608716892828168,988.788207716331,0,0
1.96,1.8176477,-9.417893,1.6996301,1004.8732,5.611073287991093,989.6213184615184,0,0
1.98,2.0613868,-9.570421,1.79905,1004.8837,5.613644194898517,990.4123996895047,0,0
2.0,1.7315453,-9.374991,1.7564371,1004.8891,5.615855344854047,991.1635151836713,0,0
2.02,1.9705068,-9.274893,2.2772188,1004.8993,5.617860204249718,991.8766496596553,0,0
2.04,2.3432984,-9.203395,2.3103569,1004.89185,5.61972230004524,992.5536300038603,0,0
2.06,2.3848937,-9.332056,1.9172708,1004.867,5.621549093580573,993.1961379679857,0,0
2.08,2.413485,-9.394019,1.4106815,1004.8695,5.623296977619809,993.8058821084024,0,0
2.1,2.4325168,-9.274853,1.382267,1004.8799,5.624732955800622,994.3845184952839,0,0
2.12,1.8397332,-9.594211,1.3964622,1004.8549,5.626263651741851,994.9334949801497,0,0
2.14,1.4859513,-9.713373,1.3538456,1004.85205,5.627978299300613,995.4542774002488,0,0
2.16,1.5384417,-9.484576,1.533745,1004.8678,5.629456434622121,995.948329428007,0,0
2.18,1.8633806,-9.446441,1.2402038999999998,1004.86285,5.630674200518749,996.4169660737932,0,0
2.2,2.0688193,-9.618034,1.3206801,1004.9034,5.632111150990782,996.8616045761447,0,0
2.22,1.75805,-8.702853999999999,1.0413429,1004.87854,5.63168565866386,997.2833481243484,0,0
2.24,1.8774575,-9.289139,1.1549606,1004.853,5.6308788744757186,997.6832514702933,0,0
2.26,1.4137347,-9.341569,1.3632668,1004.87115,5.629735382164255,998.062482501477,0,0
2.28,1.4853442,-9.536995,0.5158005,1004.84607,5.628547812763856,998.4219919556256,0,0
2.3,1.6286508,-9.622791,0.7430439,1004.8536,5.627579444604954,998.7628082982711,0,0
2.32,1.4517105,-9.85635,0.4779092,1004.87366,5.627195372019424,999.085952684759,0,0
2.34,1.2700013,-9.694285,0.18436909,1004.88904,5.626923076089792,999.3923741789946,0,0
2.36,1.2555743,-9.656151,0.22223632,1004.89154,5.626669709669783,999.6829252082567,0,0
2.38,1.398881,-9.637082,0.33585402,1004.88403,5.626442079002006,999.9583800749632,0,0
2.4,1.0642072,-9.875408,0.49208137,1004.889,5.626655560348652,1000.2195222269148,0,0
2.42,1.1310152,-9.684743,0.35950804,1004.90906,5.626868163756937,1000.4671497683626,0,0
2.44,1.0735754,-9.632309,0.45418862,1004.9092,5.6269657467186915,1000.7019448448196,0,0
2.46,1.1834397,-9.689507,0.19378982,1004.92456,5.6270878093862935,1000.9246111889357,0,0
2.48,1.3124125,-9.393977,0.31214246,1004.9022,5.626663461169443,1001.1356784903166,0,0
2.5,0.7148331,-9.965961,0.49204034,1004.9151,5.6268247620061835,1001.3357834752517,0,0
2.52,0.5809111,-9.865862,0.58672047,1004.8701,5.627288209494656,1001.5253197794293,0,0
2.54,1.2659341999999998,-9.53224,0.5016395,1004.8952,5.627452995319195,1001.7049256265947,0,0
2.56,2.164513,-9.751501,-0.36475882,1004.89044,5.628115017280377,1001.8750932048944,0,0
2.58,2.073674,-9.546538,-0.052290205,1004.9077,5.628743877059604,1002.0363706615422,0,0
2.6,1.5861112,-9.603736,0.23650637,1004.90283,5.629273421436342,1002.1891946758548,0,0
2.62,1.3040856,-9.818232,0.042394243,1004.9032,5.630062163691242,1002.334000394068,0,0
2.64,1.1367655,-9.965994,-0.22746931,1004.86816,5.631344478065035,1002.4710737012629,0,0
2.66,1.261019,-9.684767,-0.2416745,1004.9059,5.632510232071153,1002.6009570501757,0,0
2.68,0.91685027,-9.727665,-0.37897432,1004.8757,5.633586703853122,1002.7239110518942,0,0
2.7,0.83079094,-9.598968,0.30277790000000004,1004.88574,5.634292514654787,1002.840335792026,0,0
2.72,0.76863074,-9.679998,0.22702532,1004.8604,5.634821056284022,1002.9504809235553,0,0
2.74,0.7351506999999999,-9.88496,-0.629904,1004.86835,5.635646521122197,1003.0547094904497,0,0
2.76,0.9597786,-9.846827,-0.1469967,1004.88324,5.63665308023095,1003.1533885619916,0,0
2.78,1.1509492,-9.880192,-0.5020789999999999,1004.88635,5.637951303330588,1003.2468200507832,0,0
2.8,0.87847775,-9.784861,0.0991883,1004.90137,5.6392220796120895,1003.3353324940966,0,0
2.82,0.84977746,-9.637096,0.089717515,1004.89685,5.640152650847813,1003.4191635520295,0,0
2.84,0.7159187,-9.808692,-0.014441613,1004.87885,5.6411115909826215,1003.4984915460319,0,0
2.86,0.7158974,-9.818225,0.009228462,1004.8986,5.642111890876826,1003.5736261519666,0,0
2.88,0.82103026,-9.842056,-0.12807138,1004.8735,5.643213262536652,1003.6446946356233,0,0
2.9,0.9882991,-9.718126,0.20806915,1004.9039,5.644178398486616,1003.712023887094,0,0
2.92,0.60111356,-9.746725,-0.31271735,1004.90137,5.645019232896511,1003.7757976597003,0,0
2.94,0.8114021,-9.827756,0.312222,1004.8835,5.6459465039946535,1003.8361358936,0,0
2.96,0.6058491,-9.556061,0.19385992,1004.90186,5.646346288900004,1003.893287363857,0,0
2.98,0.8304771000000001,-9.803922,-0.58731896,1004.9139,5.646859140810615,1003.947460608466,0,0
3.0,0.6392635999999999,-9.775322,0.26960635,1004.89685,5.647352337440133,1003.9987458892124,0,0
3.02,0.77307665,-9.808687,0.013946556,1004.8808,5.647907873927058,1004.0472369580783,0,0
3.04,0.7596196,-9.622813,0.24127872,1004.8993,5.648135405033949,1004.0931510934796,0,0
3.06,0.993844,-9.598981,0.08504465,1004.89636,5.648061701028002,1004.1366123755834,0,0
3.08,0.96517915,-10.018438,0.07084271,1004.8913,5.64858341490425,1004.1777316398982,0,0
3.1,0.9890912,-9.923107,0.047171883,1004.89636,5.649436726126879,1004.2166516839432,0,0
3.12,0.9365273,-9.646647,0.24128376,1004.8787,5.6500034267987065,1004.2534248087993,0,0
3.14,0.7644683000000001,-9.761045,0.29809788,1004.8813,5.650523657604982,1004.2881778926101,0,0
3.16,0.8170590999999999,-9.722912,0.30756792,1004.8662,5.650931443692633,1004.320966597052,0,0
3.18,0.74537605,-9.856377,0.5064142,1004.851,5.651519946446043,1004.3518468165477,0,0
3.2,0.7501699000000001,-9.584683,0.45907143,1004.8639,5.651699557190264,1004.3809759699542,0,0
3.22,0.51119274,-9.680015,0.066117,1004.85846,5.651660179989549,1004.4084334324124,0,0
3.24,0.28655672,-9.823012,0.26022896,1004.87146,5.6517120022879075,1004.434361741884,0,0
3.26,0.30568904,-9.699081,0.42119992,1004.884,5.651599791100455,1004.4588906938623,0,0
3.28,0.30570298,-9.813478,0.3501851,1004.8787,5.651574683135673,1004.4820757893324,0,0
3.3,0.49212754,-9.8039465,0.35965505,1004.891,5.651623294871137,1004.504034266848,0,0
3.32,0.38220692,-9.694316,0.41646925,1004.8815,5.651503886178591,1004.5247956542204,0,0
3.34,0.68812823,-10.037509,0.4732834,1004.85846,5.651987626068557,1004.544341607747,0,0
3.36,0.40135312,-9.522721,0.5300974,1004.8662,5.651908694199004,1004.5627711024956,0,0
3.38,0.6642563,-10.013677,0.5490364000000001,1004.8632,5.652382049194694,1004.5801369480864,0,0
3.4,0.51131564,-9.741982,0.3975366,1004.85834,5.65274475842521,1004.5964829402373,0,0
3.42,0.5973669,-10.004145,0.5537733,1004.8732,5.653577403850348,1004.6119224403168,0,0
3.44,0.63083774,-10.042276,0.53483677,1004.8835,5.654903394583796,1004.626542461802,0,0
3.46,0.54481614,-9.994612,0.4496189,1004.8679,5.656542617750298,1004.6403295999236,0,0
3.48,0.25326115,-9.31776,0.5443081,1004.881,5.657034238373824,1004.6533783286084,0,0
3.5,0.66911894,-9.989846,0.84257704,1004.8704,5.657986898307165,1004.6656894632913,0,0
3.52,0.40146214,-9.603755,0.75262445,1004.87317,5.658499526919682,1004.6773145118292,0,0
3.54,0.21028389,-9.589456,0.81417304,1004.8807,5.658589680196923,1004.6883185924748,0,0
3.56,0.71081424,-9.908782,0.3926875,1004.8829,5.658962481705131,1004.6987422912002,0,0
3.58,0.6056191999999999,-9.770551,0.6436073,1004.8807,5.659310234332522,1004.7086077191457,0,0
3.6,1.0787829,-10.433101,1.2259357,1004.8807,5.6611928040110255,1004.7179443434892,0,0
3.62,0.2805164,-9.332026,0.27431682,1004.87317,5.661889335649836,1004.7267529971228,0,0
3.64,0.45732987,-9.780081,0.60572153,1004.8702,5.662510625078473,1004.7350527326836,0,0
3.66,0.60068715,-9.675215,0.27904424,1004.8707,5.662831180316807,1004.7428747091876,0,0
3.68,0.5050542,-9.73718,0.5631050999999999,1004.8757,5.66302755369621,1004.7502643786736,0,0
3.7,0.6053883000000001,-9.627548,0.80455595,1004.8802,5.662933788767211,1004.7572616588684,0,0
3.72,0.6627066,-9.751477,0.73827064,1004.88324,5.662837061034902,1004.7638979776759,0,0
3.74,0.681789,-9.794376,0.47787505,1004.86487,5.662796026772707,1004.7701253282553,0,0
3.76,0.7391073,-9.81344,0.6719821,1004.8854,5.662875952806759,1004.7760428040448,0,0
3.78,1.0163064,-9.770541,0.5867601,1004.89014,5.663013866052643,1004.7816822355583,0,0
3.8,1.1357523,-9.727641,0.54888034,1004.8977,5.663136682293953,1004.7870829011957,0,0
3.82,1.0687982,-9.718107,0.56308013,1004.8774,5.663212081925298,1004.7921800709082,0,0
3.84,0.8823466,-9.746706,0.6530302,1004.90015,5.663277364614168,1004.7970726218113,0,0
3.86,0.88708943,-9.613241,0.6482925,1004.8971,5.663058077060293,1004.8017557783504,0,0
3.88,0.8392521999999999,-9.6466055,0.78085226,1004.9052,5.662668467720822,1004.8062662146665,0,0
3.9,0.8535524,-9.641839,0.7429733000000001,1004.8996,5.6621163396567855,1004.8105876378224,0,0
3.92,0.8630751,-9.67997,0.70509475,1004.87994,5.661497207160465,1004.8146557158267,0,0
3.94,0.96819144,-9.822966,0.8660610000000001,1004.89496,5.661163155519241,1004.8185393649746,0,0
3.96,1.0207323,-9.60847,0.79030704,1004.87964,5.660638066570858,1004.8221909196477,0,0
3.98,0.987232,-9.708566,0.87552255,1004.88226,5.66016020263903,1004.825633682046,0,0
4.0,1.0158739,-9.637067,0.97020733,1004.88226,5.6596033290601575,1004.828879561646,0,0
4.02,0.9680366,-9.708564,0.8234370999999999,1004.87195,5.659087729809464,1004.8319026744383,0,0
4.039999999999999,0.86762387,-9.756229,0.94179386,1004.85956,5.658711291157278,1004.8346734632738,0,0
4.06,0.9121874,-9.618036,0.8898568000000001,1004.87396,5.658172724389624,1004.8372631638208,0,0
4.079999999999999,0.9504487,-9.689537,0.93720305,1004.8692,5.657656944009021,1004.8396663958348,0,0
4.1,0.8596552,-9.794401,0.8945953999999999,1004.8715,5.65735359324955,1004.8419044926172,0,0
4.119999999999999,0.92659384,-9.718137,0.842519,1004.9067,5.657084879272783,1004.8441153387607,0,0
4.14,0.90749747,-9.761037,0.8945995000000001,1004.88367,5.656942029874848,1004.8462112391936,0,0
4.159999999999998,0.964878,-9.656173,0.7809758000000001,1004.8565,5.656685954292924,1004.8481002163546,0,0
4.18,0.84062445,-9.737205,0.76677465,1004.87115,5.656471717608207,1004.8498522957956,0,0
4.199999999999998,0.85498816,-9.765803,0.80938655,1004.87646,5.656363931568666,1004.8514962209247,0,0
4.22,0.8884681000000001,-9.746739,0.7620444000000001,1004.884,5.6563095586772665,1004.8530658067737,0,0
4.239999999999998,0.8789299,-9.713373,0.7431087,1004.89856,5.656228905230267,1004.854616471925,0,0
4.26,0.9410916,-9.713374,0.6673604999999999,1004.8886,5.656125991524188,1004.856108980354,0,0
4.2799999999999985,0.86941737,-9.699075,0.67209697,1004.87604,5.655961130897343,1004.8574995124727,0,0
4.3,0.98415405,-9.732441,0.60108286,1004.87354,5.6558240062625895,1004.8587859324077,0,0
4.3199999999999985,0.92203945,-9.7181425,0.5632096999999999,1004.88104,5.6556651073591695,1004.8600027277057,0,0
4.34,0.9029388,-9.751508,0.52533615,1004.89606,5.655548405624193,1004.861207694211,0,0
4.3599999999999985,0.90296584,-9.761043,0.610558,1004.89856,5.655499365335582,1004.862406870916,0,0
4.38,0.9460055,-9.675244,0.55848145,1004.893,5.65533506447554,1004.8635765987174,0,0
4.4,0.9555865,-9.689546,0.50167054,1004.901,5.65509457010246,1004.8647448944472,0,0
4.42,1.046427,-9.741978,0.4732663,1004.9159,5.654912268335629,1004.865961358934,0,0
4.44,1.0225494000000002,-9.756277,0.41172105,1004.89056,5.654800566535838,1004.8671247820624,0,0
4.46,0.9747729,-9.71338,0.47800463,1004.8674,5.654659180070175,1004.8681537735234,0,0
4.48,1.0273734,-9.727679,0.40225628,1004.8674,5.654525711135957,1004.8690602767937,0,0
4.5,1.0704143999999998,-9.646648,0.41646156,1004.8801,5.654243286577837,1004.8699010060866,0,0
4.52,0.993962,-9.69908,0.36911976,1004.8876,5.653917717958808,1004.870707590868,0,0
4.539999999999999,1.0656803,-9.7515135,0.35491848,1004.8851,5.6536780935645305,1004.8714721018538,0,0
4.56,1.1565166,-9.727682,0.30757627,1004.90515,5.653484151251298,1004.872268864194,0,0
4.579999999999999,1.161322,-9.6800165,0.2981098,1004.8843,5.653233521648867,1004.8730161954868,0,0
4.6,1.1231049,-9.646651,0.312315,1004.882,5.652856476075701,1004.8737088791136,0,0
4.619999999999999,1.2235037,-9.699083,0.30758268,1004.8716,5.652502017737747,1004.874313342401,0,0
4.64,1.1948477,-9.689551,0.32652238,1004.9116,5.6521430532502475,1004.8749816781293,0,0
4.659999999999998,1.3430445,-9.613288,0.250774,1004.8845,5.651659784454537,1004.8756064855374,0,0
4.68,1.3239466999999998,-9.713386,0.19396308,1004.8637,5.651266346407013,1004.8761157020152,0,0
4.699999999999998,1.4386847,-9.684787,0.22710602,1004.8741,5.6509299615039525,1004.8765583891679,0,0
4.72,1.5343009,-9.656188,0.12295094,1004.88873,5.650612774988657,1004.8769933653352,0,0
4.739999999999998,1.4769675,-9.699087,0.2886573,1004.8986,5.650390695954684,1004.8774554941613,0,0
4.76,1.5056678,-9.579925,0.25551847,1004.8891,5.650015983940501,1004.8779057514129,0,0
4.7799999999999985,1.4100959,-9.713388,0.25078627,1004.8715,5.64975201237205,1004.8782805380152,0,0
4.8,1.4244581,-9.703856,0.27446038,1004.8762,5.649572871376938,1004.8786042095204,0,0
4.8199999999999985,1.5678736999999998,-9.622825,0.28866556,1004.83856,5.6493494071175885,1004.878746046508,0,0
4.84,1.7017295,-9.613293,0.22238584,1004.84863,5.649111054627912,1004.8787629559027,0,0
4.8599999999999985,1.6396148999999998,-9.613293,0.33127925,1004.85333,5.648844727813446,1004.8786863384028,0,0
4.88,1.634855,-9.651425,0.260265,1004.8707,5.648626617461554,1004.8785898883617,0,0
4.9,1.5823015,-9.722924,0.33601773,1004.87836,5.648585321121124,1004.8785038375073,0,0
4.92,1.5679921,-9.703859,0.30761403,1004.8458,5.6486546244595095,1004.8783100691572,0,0
4.94,1.5680063999999998,-9.6228285,0.3644282,1004.87836,5.648659313932228,1004.878139035194,0,0
4.96,1.5011119,-9.63236,0.45438397,1004.85785,5.64861241907887,1004.8779148690576,0,0
4.98,1.6158514,-9.665728,0.42124534,1004.86285,5.648623415272818,1004.8776625623308,0,0
5.0,1.5194247,-9.608509,0.46851337,1004.8476,5.6485405899762675,1004.8773313988825,0,0
5.02,1.4286133,-9.6752405,0.5016546,1004.8448,5.648487030134637,1004.8769216698233,0,0
5.039999999999999,1.4811959,-9.575144,0.5111239000000001,1004.8652,5.6482714258975175,1004.8765174352156,0,0
5.06,1.4238428,-9.660941,0.56320274,1004.8806,5.648077666793853,1004.8761749507497,0,0
5.079999999999999,1.4764254,-9.660941,0.6010784,1004.8525,5.647924784634644,1004.8757871016523,0,0
5.1,1.3760529,-9.694307,0.59160995,1004.8577,5.64784549491324,1004.8753792846243,0,0
5.119999999999999,1.3091416,-9.670475,0.71470493,1004.8552,5.647780561352241,1004.8749462920737,0,0
5.14,1.2039906,-9.660941,0.74311185,1004.8548,5.647685257613465,1004.8744911732043,0,0
5.159999999999998,1.1753162,-9.627576,0.7431121999999999,1004.8749,5.6474875610150255,1004.874090501948,0,0
5.18,1.1036233,-9.60851,0.9088168,1004.86975,5.647172690113112,1004.8737208430186,0,0
5.199999999999998,0.88853747,-9.665709,1.0271773000000002,1004.8269,5.646851803481685,1004.8732256573539,0,0
5.22,0.89332134,-9.699075,0.9893026,1004.8618,5.646588233199843,1004.8727469789343,0,0
5.239999999999998,0.93156487,-9.689543,1.0697877,1004.8742,5.646381637983905,1004.8723292495582,0,0
5.26,0.96024805,-9.680009,0.9466938,1004.8842,5.646185909906192,1004.8720028785832,0,0
5.2799999999999985,1.1227663,-9.713375,0.9372254,1004.87396,5.646103133919579,1004.8717215428267,0,0
5.3,0.99371606,-9.699075,0.9182882,1004.85645,5.64605838279601,1004.8714179769985,0,0
5.3199999999999985,0.95070225,-9.699075,1.0224454,1004.8865,5.646059963336687,1004.871204041515,0,0
5.34,0.96026665,-9.737207,1.0981964,1004.83356,5.6461998207463475,1004.8708794895724,0,0
5.3599999999999985,0.88857394,-9.699075,0.99403995,1004.894,5.646345810437268,1004.8706759493136,0,0
5.38,0.8407809000000002,-9.708609,1.060322,1004.86365,5.6465219990871045,1004.8704708077232,0,0
5.4,0.850345,-9.741975,1.0366504,1004.86615,5.646789389223733,1004.8702739897064,0,0
5.42,0.97462493,-9.670477,1.0319164,1004.8883,5.6470122816727875,1004.8701649749437,0,0
5.44,0.96029013,-9.713376,0.85674393,1004.8833,5.647245280006027,1004.8701159355896,0,0
5.46,0.97941405,-9.732442,0.9277605,1004.89606,5.6475429892410425,1004.870166003048,0,0
5.48,0.95073956,-9.684776,0.91829205,1004.873,5.6477909348905815,1004.8702204450432,0,0
5.5,0.8930715,-9.660935,0.83777875,1004.89343,5.647918502354566,1004.8703521043884,0,0
5.52,0.9456417,-9.713368,0.8283091999999999,1004.87054,5.648055948004275,1004.8704691150098,0,0
5.539999999999999,0.90261644,-9.737201,0.7809645000000001,1004.9108,5.64823426573258,1004.8707176967807,0,0
5.56,0.9121683,-9.746735,0.7620262,1004.8631,5.648466466978783,1004.8709099199252,0,0
5.579999999999999,0.80700517,-9.827765,0.6768062,1004.8754,5.648880756507444,1004.8710959325841,0,0
5.6,0.7305216,-9.7372,0.6105239,1004.9078,5.649245750318342,1004.871392428012,0,0
5.619999999999999,0.8261096,-9.722899,0.6152576,1004.9053,5.649552728508381,1004.8717764786313,0,0
5.64,0.82610196,-9.675234,0.61525697,1004.9078,5.649708821707038,1004.8722455104352,0,0
5.6599999999999975,0.8213155000000001,-9.761033,0.59158427,1004.89307,5.6499045073631375,1004.8727349150998,0,0
5.68,0.9360232,-9.727667,0.48742667,1004.9072,5.650074968998354,1004.8732914273672,0,0
5.6999999999999975,0.99337333,-9.6609335,0.40220672,1004.8768,5.650088365579369,1004.873795792468,0,0
5.72,0.8690904,-9.794398,0.36906514,1004.8768,5.650211534995532,1004.8742522646181,0,0
5.7399999999999975,0.8117260000000001,-9.718133,0.48269022,1004.84924,5.6502735181355295,1004.8745655592572,0,0
5.76,0.9120937,-9.708599,0.383267,1004.89465,5.650270749142259,1004.8749146903873,0,0
5.7799999999999985,0.99812263,-9.689534,0.18915568,1004.86176,5.650177031525308,1004.8751758257682,0,0
5.8,1.2275459999999998,-9.646633,0.340656,1004.9114,5.6499778162817815,1004.8755369720184,0,0
5.8199999999999985,1.2179787,-9.761031,0.1654823,1004.88153,5.6499100156120825,1004.8758776557453,0,0
5.84,1.2562101,-9.727665,0.15127844,1004.8993,5.649899318893112,1004.8762630043256,0,0
5.8599999999999985,1.1988448,-9.718132,0.2317626,1004.90405,5.649907800788839,1004.876703531516,0,0
5.88,1.0889018,-9.722898,0.18441789,1004.8663,5.649914242759986,1004.8770553286279,0,0
5.9,1.103233,-9.679998,0.20808917,1004.89166,5.6498346069214,1004.8774187533728,0,0
5.92,1.1797034,-9.722897,0.20808855,1004.8859,5.6497863002210655,1004.8777704079653,0,0
5.94,1.1510163999999998,-9.689532,0.17021258,1004.9114,5.649688380294262,1004.8782021964945,0,0
5.96,1.2752846000000002,-9.737197,0.08499268,1004.8732,5.649674967377718,1004.8785657169316,0,0
5.98,1.299176,-9.679998,0.0802576,1004.9035,5.649624866494741,1004.8789766870086,0,0
6.0,1.3817203000000002,-9.78966,-0.023781437,1004.8778,5.6497911018047615,1004.8793355840957,0,0
6.02,1.2049079,-9.727696,0.16559842,1004.8856,5.649974791869007,1004.879675257459,0,0
6.039999999999999,1.2097308999999998,-9.680032,0.4638699000000001,1004.87787,5.6500961739067606,1004.879968893916,0,0
6.06,0.92776567,-9.7705965,-0.056910697,1004.83295,5.650262573729836,1004.8800590830713,0,0
6.079999999999999,1.181133,-9.756298,0.22715703,1004.83765,5.650500261168427,1004.87998610151,0,0
6.1,1.061681,-9.780131,0.21769217,1004.8653,5.6508205282093735,1004.8798687450368,0,0
6.119999999999999,1.0808433000000002,-9.856398,0.31238425,1004.87286,5.651379731861344,1004.8797398173747,0,0
6.14,1.0235288,-9.8039665,0.29818496,1004.8924,5.652026157712813,1004.8796714735504,0,0
6.1599999999999975,0.97099143,-9.708637,0.26031342,1004.87445,5.65253695523822,1004.879592287642,0,0
6.18,1.0666332,-9.78967,0.28872404,1004.8869,5.6531158230889105,1004.8795486267385,0,0
6.1999999999999975,1.1861714,-9.742005,0.25558716,1004.8767,5.653680927294962,1004.8794997929073,0,0
6.22,1.353505,-9.684808,0.11829311,1004.9045,5.654153614445978,1004.8795466440796,0,0
6.2399999999999975,1.4873853,-9.680042,0.2982047,1004.8668,5.654581475532077,1004.8795421538573,0,0
6.26,1.4491873,-9.694343,0.24612993,1004.89435,5.654982666452249,1004.8795914945424,0,0
6.2799999999999985,1.3631912,-9.6419115,0.33135292,1004.8841,5.655230572292122,1004.8796513225916,0,0
6.3,1.2963143999999998,-9.670512,0.30768463,1004.8869,5.65538043603321,1004.8797302818944,0,0
6.3199999999999985,1.114725,-9.660979,0.38343903,1004.8816,5.655382384676567,1004.8798067813198,0,0
6.34,0.94747764,-9.756311,0.4355217000000001,1004.8865,5.6554183403973495,1004.8798984717993,0,0
6.3599999999999985,0.7850048000000001,-9.742014,0.430791,1004.8715,5.6554243543499085,1004.8799492550082,0,0
6.38,0.88064665,-9.737247,0.440264,1004.894,5.655411823724332,1004.8800447097336,0,0
6.4,0.9189256,-9.799214,0.32664198,1004.88403,5.6555091728892215,1004.8801434005741,0,0
6.42,1.0528031999999998,-9.737249,0.39766198,1004.88135,5.65560857447124,1004.8802349475586,0,0
6.44,1.2010174,-9.684819,0.307712,1004.88367,5.6556300046709564,1004.8803282046628,0,0
6.46,1.2345166,-9.751552,0.35505974,1004.87885,5.655731988574217,1004.8804052851033,0,0
6.48,1.1533056000000002,-9.680054,0.36926714,1004.8781,5.65573790699394,1004.8804650943543,0,0
6.5,1.1240543,-9.732472,0.26979223,1004.8856,5.655753231716304,1004.8805364274688,0,0
6.52,1.0428156,-9.765839,0.36921635,1004.8807,5.655833790022007,1004.8806000462697,0,0
6.539999999999999,0.99981755,-9.703875,0.38815582,1004.9006,5.655835911870695,1004.8807282596756,0,0
6.56,1.0571942,-9.732474,0.39289197,1004.8753,5.655840718107887,1004.8808220073064,0,0
6.579999999999999,1.1958263,-9.732474,0.32661197,1004.9031,5.655875931268546,1004.8809850434868,0,0
6.6,1.1576068000000002,-9.713408,0.3218793,1004.8753,5.655888701425967,1004.8811086360988,0,0
6.619999999999999,1.2197633999999995,-9.713408,0.2840058,1004.8727,5.655894844289205,1004.8811875714412,0,0
6.64,1.2150027,-9.72771,0.3550236,1004.89764,5.655928171741245,1004.8813165474523,0,0
6.6599999999999975,1.1289839,-9.694344,0.3029468,1004.8673,5.6558915411541735,1004.8813800510852,0,0
6.68,1.2198181,-9.727711,0.3644957,1004.8827,5.6558890519488,1004.8814409147107,0,0
6.6999999999999975,1.2532957,-9.789676,0.30768457,1004.8826,5.656049143822933,1004.8814988665176,0,0
6.72,1.1529388,-9.813509,0.3218895,1004.9022,5.656376998387453,1004.8816245968147,0,0
6.7399999999999975,1.0621417,-9.670513,0.42604816,1004.89484,5.656543769297245,1004.8817832675568,0,0
6.76,1.1434162,-9.641914,0.3124241,1004.89484,5.656518780096826,1004.8819704732613,0,0
6.7799999999999985,1.2629313,-9.680047,0.34083238,1004.8798,5.6564357077293,1004.8821280745179,0,0
6.8,1.2820673,-9.703881,0.31242746,1004.8873,5.656353904238415,1004.8822859499201,0,0
6.8199999999999985,1.2438478000000002,-9.727714,0.3787109,1004.8847,5.656317230805088,1004.8824341392057,0,0
6.84,1.19607,-9.713414,0.40238473,1004.887,5.656280703052914,1004.8825815163573,0,0
6.8599999999999985,1.1339515,-9.60855,0.37871444,1004.8845,5.656010804454273,1004.8827186453495,0,0
6.88,1.1483088,-9.684816,0.3929193,1004.8819,5.655697639793758,1004.8828368654041,0,0
6.9,1.2009057,-9.680049,0.44973388,1004.9069,5.6553557954116975,1004.8830279519284,0,0
6.92,1.2391621000000002,-9.770614,0.30770338,1004.8817,5.655174959887012,1004.8831920153543,0,0
6.94,1.2296214,-9.689584,0.25089228,1004.8742,5.65496417682151,1004.8833046105425,0,0
6.96,1.2009615,-9.732483,0.31717572,1004.89417,5.654812729596295,1004.8834432150528,0,0
6.98,1.2105402,-9.675284,0.2840366,1004.88135,5.6545966713130165,1004.8835581504236,0,0
7.0,1.1766812,-9.708641,0.40236005,1004.89667,5.654393109292173,1004.883706909976,0,0
7.02,1.1241055,-9.708641,0.32187536,1004.8884,5.654182280561134,1004.8838552490404,0,0
7.039999999999999,1.2053646,-9.694342,0.29346916,1004.884,5.653954560907343,1004.8839868425412,0,0
7.06,1.2436056999999998,-9.703876,0.29820383,1004.9089,5.653742635707421,1004.8841928059256,0,0
7.079999999999999,1.2005899,-9.708641,0.2603288,1004.85803,5.653541841104226,1004.8842806090704,0,0
7.1,1.2340511,-9.72294,0.3408139,1004.90375,5.653394854215318,1004.8844282817366,0,0
7.119999999999999,1.200595,-9.72294,0.26979807,1004.8681,5.653282709874572,1004.8844999834904,0,0
7.14,1.157579,-9.784906,0.2840015,1004.8604,5.6533196742740985,1004.884476579219,0,0
7.1599999999999975,1.2388383,-9.699108,0.2650641,1004.8755,5.653330844046817,1004.8844235835196,0,0
7.18,1.2484003,-9.675275,0.38342446,1004.86755,5.653280768456867,1004.8843160116194,0,0
7.1999999999999975,1.2101643,-9.727708,0.36922148,1004.89294,5.653273674097207,1004.8842520074464,0,0
7.22,1.2053871,-9.708641,0.36448732,1004.88043,5.653263691521273,1004.8841816941324,0,0
7.239999999999997,1.2006097,-9.708641,0.3502843,1004.8523,5.653248894912016,1004.8840047911888,0,0
7.26,1.1193556999999998,-9.637144,0.36922216,1004.88763,5.653063810708646,1004.8838615305,0,0
7.2799999999999985,1.1814955,-9.732475,0.364488,1004.8975,5.652940399551022,1004.8837840438457,0,0
7.3,1.2962135,-9.68481,0.39762905,1004.8773,5.6528065672726235,1004.8836922340796,0,0
7.3199999999999985,1.3296746000000002,-9.65621,0.30294117,1004.89014,5.6526074349117525,1004.8836343229281,0,0
7.34,1.138485,-9.708642,0.2887382,1004.9073,5.652408257943346,1004.8836683490716,0,0
7.3599999999999985,1.1098086,-9.746775,0.35975450000000003,1004.8798,5.65228649514486,1004.8836844885157,0,0
7.38,1.1002514,-9.756308,0.38816115,1004.8798,5.6522532606159865,1004.8836847651697,0,0
7.399999999999999,1.1432723,-9.727709,0.3502862,1004.84674,5.652246619051954,1004.8835520084666,0,0
7.42,1.2006322,-9.713408,0.30294234,1004.88916,5.652244986796597,1004.8834548934133,0,0
7.439999999999999,1.2484328000000002,-9.637144,0.36922422,1004.86957,5.652107836208785,1004.8833190969356,0,0
7.46,1.2340958999999998,-9.689576,0.3076772,1004.85706,5.6519512240355905,1004.8831045744192,0,0
7.479999999999999,1.119383,-9.689576,0.31241181,1004.8569,5.651749562595303,1004.882820685856,0,0
7.5,1.1682413,-9.770634,0.33144647,1004.90186,5.651689203556441,1004.8826383834523,0,0
7.52,1.1013712,-9.761102,0.38352925,1004.8818,5.6517221520845045,1004.8824742828681,0,0
7.539999999999999,1.163553,-9.775403,0.3456581,1004.8813,5.651878891486641,1004.8823250561733,0,0
7.56,1.220955,-9.665772,0.27938047,1004.8788,5.651928520383756,1004.8821805092633,0,0
7.579999999999999,1.3643991000000002,-9.661007,0.3267291,1004.88934,5.6519160842544185,1004.8820785617806,0,0
7.6,1.4361405,-9.770638,0.2888579,1004.87604,5.652093066647493,1004.8819667421624,0,0
7.619999999999999,1.340586,-9.708675,0.31253374,1004.8762,5.652282833336384,1004.881847178076,0,0
7.64,1.1494381,-9.70391,0.33620983,1004.88324,5.652424509734429,1004.8817465454083,0,0
7.659999999999997,1.0921166000000002,-9.794476,0.35515073,1004.89124,5.6526978601575495,1004.8816918028192,0,0
7.68,1.0826124,-9.699145,0.40249985,1004.88354,5.652891410962597,1004.881650085778,0,0
7.699999999999997,1.1734731000000005,-9.66578,0.37883186,1004.8963,5.652964794459852,1004.8816659642912,0,0
7.72,1.2452008,-9.703914,0.28888097,1004.89575,5.653022405840898,1004.881730697074,0,0
7.739999999999997,1.2739238000000002,-9.708681,0.35516673,1004.90356,5.653087902648162,1004.8818664804512,0,0
7.76,1.1783777,-9.680083,0.3693745,1004.87836,5.653077394681882,1004.881973835314,0,0
7.7799999999999985,1.1879817,-9.71345,0.35517535,1004.89124,5.653069883191947,1004.8821020522637,0,0
7.8,1.159339,-9.794483,0.35044426,1004.8932,5.653224695756504,1004.882255297372,0,0
7.8199999999999985,1.0876974,-9.742052,0.33624613,1004.8779,5.653396151301639,1004.8823750256793,0,0
7.84,1.0733967,-9.694387,0.3599217,1004.9058,5.6534817627674725,1004.8825651475192,0,0
7.8599999999999985,1.1212392,-9.694388,0.38359776,1004.8754,5.653504266027932,1004.8827073446457,0,0
7.88,1.1690816000000002,-9.742055,0.29838255,1004.8858,5.653574719902598,1004.882844123586,0,0
7.899999999999999,1.1691288,-9.699157,0.26524603,1004.87836,5.653596832303845,1004.8829488386128,0,0
7.92,1.0879136,-9.684859,0.31259390000000004,1004.8827,5.653530043648808,1004.8830404689917,0,0
7.939999999999999,1.0783985,-9.746825,0.29839474,1004.8753,5.653509768925079,1004.8830935679056,0,0
7.96,1.1549197,-9.732527,0.33153966,1004.8648,5.653521476693128,1004.8830746292616,0,0
7.979999999999999,1.1262823,-9.713461,0.30313703,1004.8653,5.653513220858714,1004.8829939064107,0,0
8.0,1.15384,-9.7325,0.3030344,1004.8774,5.653533299161083,1004.8829024416364,0,0
8.02,1.2255353999999998,-9.708667,0.2793622,1004.86487,5.653545826539025,1004.882756706572,0,0
8.04,1.2637727,-9.742033,0.29356533,1004.8774,5.653631342971126,1004.8826086509256,0,0
8.059999999999999,1.2828906999999998,-9.680067,0.30776843,1004.8698,5.653659473568142,1004.8824317178128,0,0
8.08,1.1777337,-9.694367,0.32197154,1004.8794,5.653639694924961,1004.8822644655304,0,0
8.1,1.2016314,-9.6848345,0.35984665,1004.85175,5.653566798346822,1004.8820068293376,0,0
8.12,1.2350887,-9.689601,0.3503777,1004.8874,5.6534650087707545,1004.881798597412,0,0
8.139999999999999,1.2016288999999998,-9.718201,0.31723678,1004.867,5.6533859940122575,1004.8815613287317,0,0
8.16,1.1442701000000002,-9.784932,0.33617428,1004.87476,5.653452094994592,1004.8813271933426,0,0
8.18,1.1012505,-9.751566,0.30303332,1004.877,5.6535648801074725,1004.8811047334167,0,0
8.2,1.206405,-9.618102,0.38351807,1004.84174,5.653474958760909,1004.8807664547861,0,0
8.219999999999999,1.3211191,-9.708667,0.3693148,1004.8918,5.653422509724251,1004.8805072725504,0,0
8.24,1.2637601,-9.780165,0.28409538,1004.86426,5.653529042244857,1004.8802197689461,0,0
8.26,1.1681628000000002,-9.670535,0.29356405,1004.8742,5.653525605855588,1004.8799440595932,0,0
8.28,1.158602,-9.713432,0.4119241,1004.8467,5.653519995254009,1004.879580764194,0,0
8.299999999999999,1.2733161,-9.680066,0.34090790000000004,1004.8664,5.653467688025074,1004.8792123056284,0,0
8.32,1.2589755,-9.684834,0.2840949,1004.84863,5.653376489509156,1004.8787766393395,0,0
8.34,1.2589743,-9.7039,0.29829803,1004.8639,5.653291414106742,1004.8783381287053,0,0
8.36,1.1585971000000002,-9.732499,0.36457956,1004.8636,5.65324993103553,1004.8778976034453,0,0
8.379999999999999,1.082119,-9.713432,0.4071891,1004.8812,5.653193084348303,1004.8775202439532,0,0
8.4,1.0725582,-9.7467985,0.3929858,1004.86566,5.653188348694089,1004.8771441122276,0,0
8.42,1.0008597,-9.775398,0.38825125,1004.8608,5.653272621092223,1004.8767529234308,0,0
8.44,1.0438768,-9.756331,0.47347042,1004.8611,5.653412926056694,1004.876350918486,0,0
8.459999999999999,1.010417,-9.694366,0.42612627,1004.88367,5.6534624747026205,1004.8760220556097,0,0
8.48,1.0868924,-9.737265,0.40245414,1004.881,5.65353517903914,1004.8757493929726,0,0
8.5,1.1588147,-9.651473,0.46402198,1004.87103,5.6534739851040605,1004.8754914784514,0,0
8.52,1.2257396,-9.699139,0.30778736,1004.873,5.653397100898582,1004.875254615858,0,0
8.54,1.2592058000000002,-9.632407,0.28885043,1004.86566,5.653176786184076,1004.8750107834534,0,0
8.559999999999999,1.1970756,-9.703906,0.25097585,1004.8782,5.65295944866268,1004.8748068143202,0,0
8.58,1.1349458,-9.78017,0.4214151,1004.87354,5.652899607682433,1004.8746220266626,0,0
8.6,1.1492923000000002,-9.713439,0.3835405,1004.8653,5.6528417484462095,1004.8744251889923,0,0
8.62,1.0919422,-9.727739,0.36460358,1004.8578,5.652800208460491,1004.8741914125467,0,0
8.639999999999999,0.42755717,-9.8850355,-0.6532927,1004.8626,5.653023071708069,1004.8739431185936,0,0
8.66,1.4122044,-9.570443,0.12788473,1004.8601,5.652978051849352,1004.8736738908303,0,0
8.68,1.3405148999999998,-9.765872,0.30305842,1004.92523,5.653085547994747,1004.8736216031717,0,0
8.7,1.182788,-9.808772,0.20837092,1004.87506,5.653368826447138,1004.8735805800247,0,0
8.719999999999999,1.2927316,-9.646708,0.4261543,1004.8727,5.6535159221731135,1004.873541161884,0,0
8.74,1.2545003,-9.732507,0.29359159999999995,1004.86475,5.653698354887173,1004.8734746838322,0,0
8.76,1.0967745,-9.72774,0.37881163,1004.8925,5.6538682976923855,1004.873484434964,0,0
8.78,1.1636988,-9.694375,0.26518652,1004.89465,5.653966046474508,1004.873569247098,0,0
8.799999999999997,1.1541468,-9.675308,0.2557184,1004.86224,5.6539574341053145,1004.87360340181,0,0
8.82,1.115916,-9.75634,0.44036087,1004.86505,5.654026474146441,1004.873602788667,0,0
8.84,1.225859,-9.713441,0.28886065,1004.84216,5.6540909859963495,1004.8734890528548,0,0
8.86,1.0729125,-9.718209,0.35514295,1004.8671,5.654128306947483,1004.8733655553006,0,0
8.879999999999997,1.3405895,-9.684843,0.27465883,1004.86676,5.65413593788858,1004.8732326528627,0,0
8.9,0.9964505,-9.684843,0.47350445,1004.83966,5.654047541290902,1004.8729943587184,0,0
8.92,1.2258886,-9.732509,0.355145,1004.87476,5.654016697654175,1004.8727901583212,0,0
8.94,1.0251448,-9.708675,0.44983384,1004.8318,5.6539477952359425,1004.8724621622799,0,0
8.959999999999997,1.1016289,-9.765874,0.42142808,1004.8393,5.653978195509441,1004.8720529611937,0,0
8.98,1.1542139,-9.727742,0.3030686,1004.85175,5.654021034330107,1004.8716183004536,0,0
9.0,1.0825249,-9.751575,0.40722626,1004.84656,5.654114739847728,1004.871144024342,0,0
9.02,1.2641639999999998,-9.67531,0.29833555,1004.869,5.654132883912553,1004.8707172354823,0,0
9.04,1.0920992,-9.770641,0.3030707,1004.86664,5.65423810324018,1004.8703254467979,0,0
9.06,1.2928581,-9.670545,0.3598842,1004.8615,5.654268286858156,1004.8699474907083,0,0
9.08,1.0682149,-9.727742999999998,0.2651968,1004.8788,5.654287330996628,1004.8696453977408,0,0
9.1,1.1685989,-9.689611,0.26519755,1004.8541,5.654241626766889,1004.8693225049627,0,0
9.12,1.2020642,-9.713444,0.32201102,1004.8662,5.6542000007833435,1004.8690259558864,0,0
9.14,1.2116314,-9.765876,0.35988694,1004.8615,5.6542753906072045,1004.8687368316812,0,0
9.16,1.207178,-9.699153,0.3125728,1004.8689,5.654311852476819,1004.8684819489392,0,0
9.18,1.2310932,-9.684854,0.36465272,1004.8863,5.6542942664936175,1004.8683208795326,0,0
9.2,1.1976516,-9.699153,0.34571666,1004.86127,5.654248391031822,1004.8681531754384,0,0
9.22,1.2932638,-9.694387,0.28417087,1004.8808,5.654189048429504,1004.8680505206693,0,0
9.24,1.1881253,-9.7468195,0.2889068,1004.84827,5.65419870659806,1004.8678886050408,0,0
9.26,1.2502799,-9.713454,0.36939332,1004.86053,5.6542221921782945,1004.8677190454132,0,0
9.28,1.2359565,-9.732521,0.43094203,1004.85333,5.654298534005419,1004.8675174219627,0,0
9.3,1.1929555,-9.780187,0.29838026,1004.86316,5.654498303466653,1004.8673235807628,0,0
9.32,1.2264302,-9.713455,0.29838172,1004.8659,5.654677399937454,1004.867147177788,0,0
9.34,1.2407879,-9.742056,0.33152425,1004.86566,5.6549024920464745,1004.8669859542794,0,0
9.36,1.2025665,-9.732523,0.28418177,1004.84827,5.655134795618325,1004.8667761197515,0,0
9.38,1.2073635,-9.675324,0.34573059999999994,1004.8732,5.655260063165461,1004.866613835932,0,0
9.4,1.1595815,-9.7277565,0.27945040000000004,1004.8734,5.6553819999661945,1004.8664948721396,0,0
9.42,1.2265159,-9.699158,0.30785840000000003,1004.86835,5.65546030729432,1004.8663964341928,0,0
9.44,1.2647704,-9.73729,0.20370296,1004.86316,5.6555828219487685,1004.8662978032596,0,0
9.46,1.2886866,-9.75159,0.37887752,1004.87067,5.6557906542133605,1004.8662263928758,0,0
9.48,1.2504653,-9.68486,0.29839417,1004.8528,5.6559196202211215,1004.866114959646,0,0
9.5,1.2648208,-9.737291,0.3078645,1004.85,5.656090896549816,1004.8659584833896,0,0
9.52,1.2361583,-9.727759,0.3883508,1004.85034,5.656277647614274,1004.8657639944294,0,0
9.54,1.2505157,-9.661028,0.3930869,1004.88043,5.656344125116368,1004.8656449416037,0,0
9.56,1.2648712,-9.751592,0.36468196,1004.8653,5.656492170291326,1004.8655385047375,0,0
9.58,1.2840077,-9.746827,0.3552147,1004.8678,5.656706374167102,1004.8654525985055,0,0
9.6,1.3652825000000002,-9.656262,0.31260675,1004.8757,5.656811691537559,1004.865413582404,0,0
9.62,1.2410237,-9.703929,0.3126082000000001,1004.8553,5.656884114416503,1004.8653426988803,0,0
9.64,1.2936177,-9.703929,0.28420326,1004.8549,5.6569395611250535,1004.8652424724828,0,0
9.66,1.2503132,-9.641957,0.28891143,1004.8653,5.656840714114749,1004.8651541195368,0,0
9.68,1.2216395,-9.761121,0.38833442,1004.83466,5.656851053630104,1004.8649662720436,0,0
9.7,1.3172401000000002,-9.661023,0.34572524,1004.85736,5.656774107031247,1004.8647729074193,0,0
9.72,1.2359886999999998,-9.713455,0.34572572,1004.8852,5.656706236075148,1004.8646755879704,0,0
9.74,1.2025351999999998,-9.656257,0.32205409999999995,1004.8748,5.656518383147312,1004.8646260443886,0,0
9.76,1.2646776000000002,-9.722988,0.30785137,1004.862,5.656378057787405,1004.86457281392,0,0
9.78,1.2312241000000002,-9.727756,0.32205504,1004.8572,5.656282160050839,1004.864499237348,0,0
9.8,1.3029263,-9.670557,0.25103945,1004.8748,5.6561230061229875,1004.8644713078343,0,0
9.82,1.2646925,-9.69439,0.2889151,1004.84174,5.655949353149798,1004.8643647966078,0,0
9.84,1.2168995,-9.69439,0.25577474,1004.8674,5.655748989019274,1004.8642816100205,0,0
9.86,1.2599228999999998,-9.684857,0.27471283,1004.84924,5.655518498309058,1004.8641539565556,0,0
9.88,1.2408085,-9.656258,0.26051006,1004.8696,5.655197386280827,1004.8640607677104,0,0
9.9,1.2408133999999995,-9.722989,0.23683846,1004.88715,5.6549336362005675,1004.8640615472833,0,0
9.92,1.1500022,-9.70869,0.284183,1004.84424,5.654671611108358,1004.8639908785437,0,0
9.94,1.2551627,-9.732523,0.31732428,1004.89966,5.654490127823851,1004.8640568444824,0,0
9.96,1.1547918,-9.775423,0.2983871,1004.85675,5.65444211632521,1004.8640888273455,0,0
9.98,1.2456132,-9.689625,0.22737151,1004.8767,5.6543544328313855,1004.8641624876253,0,0
10.0,1.1978203,-9.751589,0.3409977,1004.85675,5.654354204560658,1004.8642008888928,0,0
10.02,1.2312837,-9.684858,0.3078573,1004.87427,5.654300041440952,1004.8642710690532,0,0
10.04,1.1643728000000002,-9.7277565,0.29838908,1004.89166,5.654269230369723,1004.8644316803936,0,0
10.06,1.1787173,-9.689625,0.33153033,1004.8563,5.654186308300966,1004.864544322525,0,0
10.08,1.2599789,-9.689625,0.35046843,1004.85645,5.6540800880322974,1004.8646147135512,0,0
10.1,1.2599837,-9.713457,0.30785924,1004.8488,5.653999780501193,1004.8646199780933,0,0
10.12,1.2647684,-9.732525,0.3599381,1004.8715,5.653986901701213,1004.8646493979213,0,0
10.14,1.2504342,-9.75159,0.3220634,1004.8563,5.654066382131817,1004.8646453354488,0,0
10.16,1.2079581,-9.689639,0.3315818,1004.8561,5.6540891008886325,1004.8646109826407,0,0
10.18,1.236667,-9.656274,0.39786622,1004.8843,5.6540054565659945,1004.8646515089616,0,0
10.2,1.1936786,-9.770671,0.27004004,1004.859,5.654043775439165,1004.8646669725869,0,0
10.22,1.1937037,-9.713473,0.40260565,1004.854,5.654081235825527,1004.8646422351444,0,0
10.24,1.1793909,-9.6848755,0.34579524,1004.8686,5.654050719121567,1004.864634625094,0,0
10.26,1.1555183999999998,-9.699175,0.3978761,1004.85614,5.653987924469452,1004.8645973202033,0,0
10.28,1.2272439,-9.742075,0.32212824,1004.8615,5.6539976176508615,1004.8645532072487,0,0
10.3,1.1842507,-9.703943,0.35527137,1004.8938,5.65398410937599,1004.8646195174961,0,0
10.32,1.2225091,-9.775441,0.33160117,1004.891,5.654105566840904,1004.8647730789676,0,0
10.34,1.2129827,-9.646745,0.36474505,1004.8611,5.654080587125173,1004.8648955427997,0,0
10.36,1.2225673,-9.689646,0.34107533,1004.88104,5.654015423809452,1004.8650618718876,0,0
10.38,1.1604581,-9.684879,0.48311004,1004.85315,5.653901872159826,1004.8651659575308,0,0
10.4,1.0935643,-9.627682,0.45470574,1004.8661,5.6536090876422325,1004.865261290158,0,0
10.42,1.0601339,-9.856476,0.36948904,1004.8757,5.6536161554937925,1004.865383105423,0,0
10.44,0.98368365,-9.818345,0.27953779999999995,1004.876,5.6537868216377465,1004.8655289622116,1,1
10.46,0.8928924000000001,-9.956575,0.05702306,1004.87103,5.654361728323277,1004.8656776450059,1,1
10.48,0.83556145,-9.894611,-0.30752364,1004.8754,5.655162669334924,1004.865844021601,1,1
10.5,1.0793563999999998,-9.708715,-0.17969246,1004.9056,5.655818736114651,1004.8661341534828,1,1
10.52,1.2657952,-9.494222,0.16592152,1004.9031,5.65594845311833,1004.8665235910606,1,1
10.54,1.2706001,-9.489456,0.15645503,1004.9206,5.6556037944266535,1004.8670623731767,1,1
10.56,1.3471053999999998,-9.627687,-0.13234109,1004.883,5.655146656076683,1004.8675958165112,1,1
10.58,1.2897726,-9.589554,0.0096933395,1004.9025,5.654495193234888,1004.8681928221021,1,1
10.6,1.4092944,-9.651521,0.18013434,1004.90045,5.653839871755506,1004.8688364620824,1,1
10.62,1.3471819,-9.646754,0.3505752,1004.86255,5.6531650887880405,1004.8693825511057,1,1
10.64,1.385447,-9.4322605,0.57309467,1004.8955,5.652068166467752,1004.8699590981827,1,1
10.66,1.4706128,-9.260643,0.5635462,1004.83514,5.650275719667728,1004.8703431864263,1,1
10.68,1.2507329,-9.198676,0.93756336,1004.828,5.6477440866675535,1004.8705301313272,1,1
10.7,1.508834,-9.30354,1.6998017,1004.8152,5.645080985195262,1004.8704961273693,1,1
10.72,2.6846564,-9.456071,2.3247423,1004.8277,5.643399996669487,1004.8703120154132,1,1
10.74,1.8386227,-9.665799,2.0785527,1004.8201,5.642500001847843,1004.8699685708333,1,1
10.76,1.1885598999999998,-9.951793,2.5141168,1004.835,5.642868579325737,1004.8695392163472,1,1
10.78,2.039357,-10.242552,2.3673496,1004.8604,5.645137245215906,1004.869126937545,1,1
10.8,1.7573395,-10.242552,2.2205822,1004.8526,5.648906754918798,1004.8687031510201,1,1
10.82,0.7870315999999999,-10.747807,1.7897506999999997,1004.8801,5.654606937089317,1004.8683697219028,1,1
10.84,0.9256365,-9.732531,1.5719671999999998,1004.8925,5.659867999720952,1004.8681619729359,1,1
10.86,0.5575832,-8.760152,1.3210429,1004.9025,5.662591084469789,1004.8681020228464,1,1
10.88,0.5384551,-8.84595,1.1411346000000002,1004.92255,5.663183938190037,1004.868245063665,1,1
10.9,1.0881236,-8.664821,1.8844354,1004.90753,5.661889044867983,1004.868512880303,1,1
10.92,1.6712508,-9.622898,0.33628434,1004.9046,5.660674323010772,1004.8688794367154,1,1
10.94,3.5688242999999993,-9.775429,0.13270410000000002,1004.9496,5.66085385749063,1004.869493919989,1,1
10.96,4.821125,-10.24255,1.065381,1004.91144,5.6642665463873385,1004.8701878832976,1,1
10.98,5.222619,-11.233994,-0.73369354,1004.9222,5.672685057563914,1004.8709883128977,1,1
11.0,4.2140718,-11.090997,-0.96094567,1004.9646,5.684442836220659,1004.8720325745653,1,1
11.02,3.6691656,-9.198673,-1.0698379999999998,1004.96967,5.695071710328423,1004.8733067789065,1,1
11.04,1.0020267,-10.752572,0.36942047,1004.97217,5.706419887568999,1004.8747885734584,1,1
11.06,0.90642124,-12.125339,4.739275,1004.9346,5.723028233514513,1004.8763132082596,1,1
11.08,3.348892,-12.702092,-3.2145257000000003,1005.0618,5.745209020623811,1004.8783281280208,1,1
11.1,3.3966818,-12.830789,0.6771543000000001,1005.1841,5.771748038582557,1004.8812092898606,1,1
11.12,2.8947942,-11.386523,0.023805682,1005.2292,5.798838956112302,1004.8850078510187,1,1
11.14,1.2792115,-8.993710499999997,1.2547501,1005.2089,5.820961144581896,1004.8895302713946,1,1
11.16,-1.1298186,-7.606642,-0.41649556,1005.19934,5.83555982842483,1004.8946415970616,1,1
11.18,-1.8467985,-5.9526467000000025,-0.19397944,1005.0667,5.840411592656764,1004.8997773746713,1,1
11.2,-1.2158728,-5.7667503,-1.2213459999999998,1004.9596,5.836182882326745,1004.9045307092186,1,1
11.22,1.8336337,-6.4197682999999985,-2.973076,1004.9346,5.826626659384592,1004.9088390050715,1,1
11.24,8.281581,-8.121429,-3.0724998,1005.0188,5.8221469363438345,1004.9130416748687,1,1
11.26,12.081516,-9.927955,-4.3744617,1004.997,5.830978371097975,1004.917057403872,1,1
11.28,7.5884914,-8.841178999999997,-3.0440948,1004.8688,5.842819856354264,1004.9204319753655,1,1
11.3,-0.5849819,-12.897519,0.019064058,1004.74207,5.859083419586452,1004.9227716436258,1,1
11.32,1.159638,-14.842273,-3.3281605000000005,1004.55194,5.884068088731718,1004.9235039805832,1,1
11.34,1.3747199,-7.153817,3.2858016000000005,1004.5298,5.901571836485993,1004.9227337391893,1,1
11.36,-1.4692724,-8.202459,-1.027242,1004.63214,5.913243433989548,1004.921007016432,1,1
11.38,3.6546698,-8.626683,4.833951,1004.6842,5.924180862000448,1004.9186287789446,1,1
11.4,2.6939204,-9.127171,1.6003512,1004.74896,5.932575387113367,1004.9159165606966,1,1
11.42,1.1309155,-9.394097,0.46409336,1004.86145,5.938325402196263,1004.913323965034,1,1
11.44,2.865975,-8.941275,2.177947,1004.7791,5.9420617116678125,1004.9105499412327,1,1
11.46,1.3364288,-9.637193,1.4441133999999998,1004.7962,5.944415445039997,1004.9076871540132,1,1
11.48,1.0448524,-9.975617,1.3967686,1004.8261,5.9461438295881335,1004.9048638814716,1,1
11.5,1.4559072,-9.370264,1.5766752,1004.814,5.946244903511697,1004.9020421278807,1,1
11.52,2.1489700000000003,-9.384564,0.601387,1004.8494,5.9449770462019575,1004.8993593147474,1,1
11.54,4.730445,-9.575235,-0.0519259,1004.86395,5.944653059596115,1004.8968613075295,1,1
11.56,4.434097,-9.708699,-0.69107056,1004.89655,5.94519659329676,1004.8946529476448,1,1
11.58,4.477115,-9.80403,-0.83310276,1004.89606,5.9467424614458775,1004.8927067062393,1,1
11.6,6.102248,-9.451304,-2.8452246,1004.9161,5.950819211483171,1004.8910712231908,1,1
11.62,4.3623996,-8.455094,-0.5632416,1004.9261,5.9528079003315915,1004.8897522139656,1,1
11.64,-0.45086247,-18.460096,6.6425223,1004.9136,5.973922723241308,1004.888672589444,1,1
11.66,-2.2671878,-16.148315,2.2868702,1005.0361,6.005298155019777,1004.8882493718946,1,1
11.68,7.349777,-11.052869,-2.1776736,1005.2304,6.039359636875955,1004.8891071591291,1,1
11.7,4.175987200000002,-10.604813,-1.1455735,1005.20795,6.0715230969681215,1004.8910129341568,1,1
11.72,0.012778476,-8.35023,1.7376790000000002,1005.1231,6.095812707805009,1004.8935323904084,1,1
11.74,-2.8933423,-6.181447,0.98490876,1005.0981,6.109662688780142,1004.8964950253463,1,1
11.76,-3.6963491,-6.4674406,1.046456,1005.1036,6.115540671697468,1004.8998583874866,1,1
11.78,-2.625673,-5.9288197,0.33156088,1005.02094,6.112213309079719,1004.9032661480787,1,1
11.8,0.14661299,-7.8974075,-3.8962624,1004.90356,6.1055752512605626,1004.9062783032048,1,1
11.82,11.780656,-11.25783,-6.3060746,1004.9337,6.1140457560355,1004.9090385615827,1,1
11.84,13.974586,-10.023292,-4.095107,1004.9033,6.136263564992699,1004.9114568670641,1,1
11.86,4.959875,-10.871739,0.92336154,1004.85583,6.158715672026293,1004.9133934250656,1,1
11.88,-2.630453,-15.628763,-3.541182,1004.5911,6.190135896350213,1004.9139443113852,1,1
11.9,3.191348,-7.053727,4.7298225999999985,1004.59863,6.2144712383522025,1004.9132959430168,1,1
11.92,-0.0828176,-8.107136,4.15696,1004.5612,6.232538994081316,1004.9114554993314,1,1
11.94,-1.435502,-8.2596655,-0.52063197,1004.6636,6.2435248274665405,1004.9089370034932,1,1
11.96,3.3490818,-8.8507185,4.067006,1004.7261,6.252163580800812,1004.9060534473582,1,1
11.98,0.68195105,-10.132923,-1.1645111,1004.8609,6.2585358344608615,1004.9033429847467,1,1
12.0,1.6092329,-9.327375,2.7981858,1004.8355,6.262150301645484,1004.9007037852381,1,1
12.02,1.8243241,-9.189145,2.3673549,1004.7981,6.262884401608052,1004.8980024149254,1,1
12.04,1.8874651,-9.689658,1.1033607,1004.8205,6.261632535253709,1004.8953364754234,1,1
12.06,1.1896571000000002,-9.408431,1.108099,1004.8908,6.257829375414687,1004.8929645199679,1,1
12.08,1.7632716,-9.389367,1.2690722,1004.87585,6.2519717210328025,1004.8908070478552,1,1
12.1,2.9200222,-9.174872,-0.089698374,1004.913,6.244301783190421,1004.8889806001248,1,1
12.12,5.0470757000000015,-9.336936,0.48316833,1004.89044,6.237128217605213,1004.8873720047494,1,1
12.14,4.4305214999999984,-9.6848955,-1.0744472,1004.883,6.230584377777469,1004.8859349106584,1,1
12.16,5.3196077000000015,-9.727796,-3.1197060000000003,1004.92786,6.226311533224611,1004.8848160246416,1,1
12.18,4.6552505,-8.617189,-1.8840231,1004.93036,6.220851496951313,1004.8839913352682,1,1
12.2,2.6382167,-12.578198,4.8861794000000005,1004.95496,6.222209534839048,1004.883518126931,1,1
12.22,-1.486716,-17.926277,5.799923400000001,1005.0306,6.2402919515987625,1004.8836294947873,1,1
12.24,8.077713000000001,-13.726941,-6.4053683,1005.3025,6.269485536762756,1004.8852358332438,1,1
12.26,5.8408012000000005,-11.963316,0.36483374,1005.27997,6.3003917735697925,1004.8880762369045,1,1
12.28,0.6260791,-8.698226,1.1081392,1005.1597,6.323290557289625,1004.8915638631256,1,1
12.3,-0.9416585,-6.5342097,1.3590661,1005.05,6.3347692238787925,1004.8952158997479,1,1
12.32,-2.208266,-6.0527883000000005,0.80987895,1005.0275,6.335603578347052,1004.898919062068,1,1
12.34,-3.9385145,-5.5094023000000005,0.5636936,1004.9329,6.327657486346112,1004.9023135076708,1,1
12.36,-3.0111969,-7.082366499999999,-1.6235982,1004.7926,6.314204517680897,1004.904917871178,1,1
12.38,4.689107,-10.809814,-8.990328,1004.82263,6.3103914719532765,1004.9069228504362,1,1
12.4,18.55058,-11.586764,-2.153844,1004.9753,6.3299844988493605,1004.9089406078474,1,1
12.42,8.924095,-7.0585365000000015,-1.3631948,1004.94226,6.348327128286329,1004.9108434481076,1,1
12.44,-2.3131833,-13.526755,1.5532023,1004.66547,6.370385768181974,1004.9116414533484,1,1
12.46,1.6636541,-18.565006,-11.191811,1004.648,6.412131822780053,1004.9113974615468,1,1
12.48,3.2553694,-4.8849897,7.258167699999999,1004.56287,6.445337320358161,1004.9099271715297,1,1
12.5,-2.7814846,-8.293078,2.485891,1004.5881,6.47037493547183,1004.9074694454532,1,1
12.52,4.541215,-8.297847,3.2718058,1004.7077,6.490008297189956,1004.904578628688,1,1
12.54,0.19959454,-10.294995,1.0891025,1004.80286,6.505513452230509,1004.9016581159312,1,1
12.56,0.39076412,-9.5609455,-0.10870388,1004.8124,6.515683884622593,1004.898756221642,1,1
12.58,2.0110877,-8.588567,3.1296263,1004.7953,6.5206676250063875,1004.89581966545,1,1
12.6,2.0875401,-8.731564,0.39787248,1004.85254,6.520274846202142,1004.8930691176033,1,1
12.62,1.5426246,-9.403647,2.050178,1004.83514,6.5167143548704205,1004.8904301887022,1,1
12.64,1.3370703000000002,-9.408413,1.2689992,1004.8927,6.510034965136195,1004.888106602446,1,1
12.66,2.4507334,-8.917457,1.1316985000000002,1004.8877,6.5000621059415575,1004.8860520178612,1,1
12.68,2.4268115000000003,-10.619118,1.0228052,1004.9052,6.4905898999091045,1004.884305519658,1,1
12.7,3.5022476000000005,-9.32738,1.7140263,1004.9202,6.479866505988567,1004.8828915339748,1,1
12.72,2.8234873,-10.275924,0.1516703,1004.93744,6.4692157142924165,1004.8818385107028,1,1
12.74,5.624429,-9.627672,-0.51114845,1004.93036,6.45971502798812,1004.8810827367007,1,1
12.76,4.386434,-9.675336,-2.58482,1004.9799,6.450789416305804,1004.8807706769412,1,1
12.78,3.3826532,-7.4874864,-0.7431386999999999,1004.9995,6.436826520432856,1004.8809223664999,1,1
12.8,3.9131935,-11.553358,6.3916078,1004.93976,6.429939221696392,1004.8812682148747,1,1
12.82,1.2412530000000002,-16.49151,-0.870972,1005.03467,6.435127371212789,1004.8821260529254,1,1
12.84,6.6185100000000014,-12.163477,-0.4117368,1005.1293,6.445339489121142,1004.8837738648364,1,1
12.86,4.467573000000002,-11.500925,0.76712775,1005.1393,6.456853622568424,1004.8861497655276,1,1
12.88,2.340537,-8.145268,2.3957608,1005.06683,6.462087834751886,1004.8888995602223,1,1
12.9,-0.27403826,-8.307331,2.8123865,1005.05206,6.461687258692839,1004.8919166563976,1,1
12.92,-1.8227173,-8.536125,-1.344423,1005.1148,6.456427141166795,1004.8953849426154,1,1
12.94,-2.0760725,-8.278729,-0.009323314,1005.06726,6.4462759853962766,1004.8990682705237,1,1
12.96,0.6866316,-9.131944,-2.565904,1004.9547,6.433866827924862,1004.9025231332898,1,1
12.98,3.6405263,-9.341672,-3.6074748,1004.84467,6.4218866764998666,1004.90536757875,1,1
13.0,3.5257869,-7.0680227,-1.8510132,1004.8424,6.405043956557198,1004.9076542474753,1,1
13.02,7.105835400000001,-7.425514,1.2878948,1004.86945,6.388632436631633,1004.9095372126696,1,1
13.04,8.072915,-8.621958,-1.4626516,1004.75726,6.375869272727558,1004.91065280275,1,1
13.06,3.1067352,-14.675487,0.02395488,1004.7202,6.372817070939019,1004.9109529080553,1,1
13.08,4.4546766,-11.939484,-2.0071013,1004.6649,6.373991268433503,1004.9103322906337,1,1
13.1,1.228351,-10.309322,-1.9502848,1004.6998,6.374038936275178,1004.9090259968336,1,1
13.12,-1.7016293999999998,-7.6734176,-0.5252252,1004.7597,6.367507292954286,1004.9073341820437,1,1
13.14,2.1987274,-7.8640804000000015,3.5653038,1004.71,6.357332163473152,1004.9051288914396,1,1
13.16,3.3602567000000003,-9.932767,2.907225,1004.7146,6.3480714238704525,1004.9024943926528,1,1
13.18,0.2773224,-9.184419,1.733096,1004.7672,6.3364704745425895,1004.8996794897113,1,1
13.2,-0.37746894,-10.433257,3.4990330000000003,1004.7992,6.32629418024571,1004.8968305153087,1,1
13.22,1.0182706,-9.899405,-0.09437691,1004.8945,6.3152127683662975,1004.8943047716721,1,1
13.24,2.0029495,-9.136756,3.2623198,1004.8821,6.303276331862704,1004.8920290874164,1,1
13.26,1.697079,-8.893663,2.2965047000000003,1004.84467,6.2894520687507285,1004.8898478000937,1,1
13.28,2.1033993,-9.074792,1.4017053,1004.86194,6.274174522975522,1004.8878199465347,1,1
13.3,1.4964057,-9.67538,1.0324255,1004.8391,6.258550079155017,1004.8858527433226,1,1
13.32,2.3615897,-10.00904,0.49744144,1004.864,6.243613154369254,1004.8840358526885,1,1
13.34,2.882625,-10.004274,0.31280306,1004.8844,6.229587111260092,1004.8824317590544,1,1
13.36,3.4753602,-8.998532,0.8572632,1004.90717,6.2148957264437925,1004.8811034395868,1,1
13.38,2.1370423,-9.036664,2.7368245,1004.90186,6.199662019886807,1004.8800044601223,1,1
13.4,0.45460272,-9.389392,1.8183545,1004.90155,6.183783252043287,1004.8791109658113,1,1
13.42,1.5826733,-9.827915,1.6337161,1004.91144,6.168458054607062,1004.8784378587613,1,1
13.44,1.7404436999999997,-9.832683,1.8562366,1004.85364,6.1538203465798045,1004.8777538290802,1,1
13.46,1.2529429,-10.619166,-0.20322594,1004.929,6.140961352038183,1004.8773339066693,1,1
13.48,1.9269346,-10.161577,-0.8044916999999999,1004.9462,6.129053442840546,1004.8772107811632,1,1
13.5,1.7883596000000002,-8.9413395,-2.4852016,1004.9535,6.116110623365198,1004.8773766286536,1,1
13.52,2.6535435,-9.074803,-1.3631443,1005.00116,6.1025109840902925,1004.8779687916333,1,1
13.54,0.6156805000000001,-10.704926,0.61568433,1005.0334,6.0908485517902315,1004.879051579192,1,1
13.56,0.96457523,-12.63538,-1.2875493999999998,1005.0963,6.085090732652624,1004.8807904245937,1,1
13.58,3.364013,-11.520005,-2.7315445,1005.09186,6.083678627197398,1004.8830867188623,1,1
13.6,1.6719332999999998,-9.5418825,-1.2260069,1005.0292,6.080824834731938,1004.8856417322901,1,1
13.62,0.5964483,-7.616193300000001,-0.7099593000000001,1004.9195,6.072359102095555,1004.8880212319183,1,1
13.64,-0.1062102,-7.3301997,-0.66261774,1004.8039,6.0583175355545205,1004.8898209213553,1,1
13.66,0.022815347000000003,-8.641003,-1.6994551,1004.79913,6.042404567498148,1004.8910846396248,1,1
13.68,0.53900313,-12.053856,-3.2523427000000003,1004.77466,6.03256479891227,1004.8917821323853,1,1
13.7,9.749659,-9.665811,-11.954181,1004.8938,6.039989482722187,1004.8924057013112,1,1
13.72,-0.71814173,-9.38935,4.5120764000000015,1004.8145,6.04650917011132,1004.89267622629,1,1
13.74,-1.5689743,-9.60861,-0.8993511000000001,1004.72186,6.0508243015783325,1004.8923003237468,1,1
13.76,3.0148268,-8.664832,-1.4580138,1004.72424,6.0521619901747465,1004.8913631590937,1,1
13.78,2.909644,-9.27495,-0.07083571,1004.78644,6.051760683488437,1004.8901573570332,1,1
13.8,1.5234733,-9.046154,-0.09451023,1004.7939,6.048687611325941,1004.8887453838478,1,1
13.82,1.7337555,-10.233026,-1.5811161,1004.8821,6.046017905177507,1004.8874738409593,1,1
13.84,-0.06348173,-9.8946,1.1506326,1004.879,6.042597836854582,1004.8863197998352,1,1
13.86,2.1352007,-9.441776,0.8713004000000001,1004.8341,6.0380237608358085,1004.8851120978187,1,1
13.88,1.5568151,-9.823101,-1.3254663,1004.9137,6.033099742120824,1004.8841478887648,1,1
13.9,0.76812035,-9.556171,1.5009709999999998,1004.87616,6.027198646029085,1004.8832671572452,0,0
13.92,0.921045,-9.732535,0.03803727,1004.8888,6.0206057516057525,1004.8825088611084,0,0
13.94,0.892337,-9.684869,0.7955394,1004.8691,6.013388485958942,1004.8817905587421,0,0
13.96,1.1169604,-9.742066,0.3789092,1004.8996,6.005759478266177,1004.8812199807596,0,0
13.98,1.1551696000000002,-9.832629,0.43098503,1004.9016,5.997994531198915,1004.8807891861234,0,0
14.0,1.1312432,-9.761131,0.6014210999999999,1004.89154,5.990002782810023,1004.8804472389128,0,0
14.02,0.992598,-9.794497,0.51146454,1004.9141,5.981866611363182,1004.8802662442977,0,0
14.04,0.96527714,-9.799295,0.59207374,1004.9013,5.973645762767513,1004.8801820389759,0,0
14.06,0.97963995,-9.751631,0.47845018,1004.91595,5.965271357215518,1004.8802363998137,0,0
14.08,1.0752625,-9.703966,0.42637414,1004.92664,5.9567088540198325,1004.8804514860104,0,0
14.1,1.0083735,-9.746866,0.5447368,1004.91846,5.9480969279825535,1004.8807783668241,0,0
14.12,0.86022633,-9.7087345,0.5542081,1004.9066,5.939365283582765,1004.8811601565906,0,0
14.14,1.0801223999999998,-9.7087345,0.4737255,1004.9116,5.930595870240763,1004.8816070894644,0,0
14.16,1.1327267,-9.723035,0.4169151,1004.88904,5.921861141936046,1004.8820287578301,0,0
14.18,1.2092286,-9.789768,0.36483893,1004.8991,5.913340740693442,1004.8824628004692,0,0
14.2,1.1996956,-9.713503,0.47846708,1004.9035,5.904890920141621,1004.8829220544638,0,0
14.22,1.1949424,-9.775469,0.49267274,1004.9191,5.896661815654867,1004.8834580918973,0,0
14.24,1.1280518999999998,-9.723038,0.4263935,1004.89606,5.888526399859165,1004.8839771014427,0,0
14.26,1.0707208,-9.7516365,0.5068808,1004.906,5.8805566565910725,1004.884514980712,0,0
14.28,1.2332573999999998,-9.580042,0.57789904,1004.9058,5.872456540489107,1004.8850668769037,0,0
14.3,1.2237263,-9.727806,0.48321354,1004.88074,5.864561385890436,1004.8855389556217,0,0
14.32,1.204632,-9.689674,0.49741906,1004.89355,5.856793772209843,1004.8859849241368,0,0
14.34,1.195099,-9.775473,0.42167097,1004.8782,5.849333819908023,1004.8863509561896,0,0
14.36,1.0899682,-9.723042,0.57317424,1004.9035,5.842055017506894,1004.8867361186693,0,0
14.38,0.9227002,-9.732575,0.5873798000000001,1004.89874,5.8349481949478665,1004.8871196622093,0,0
14.4,0.8844901,-9.756409,0.67733604,1004.9163,5.828072880078008,1004.8875636104973,0,0
14.42,0.85583955,-9.723043,0.5826505,1004.9038,5.821340004666469,1004.8880143342064,0,0
14.44,0.9323397,-9.732578,0.5826526,1004.86816,5.8147914539331165,1004.888341118073,0,0
14.46,0.9706064,-9.765943,0.6252648000000001,1004.8784,5.808511397395357,1004.8885940762724,0,0
14.48,1.0088682,-9.694446,0.6157982,1004.91595,5.8023504323756026,1004.8889160714624,0,0
14.5,0.9228601,-9.737345,0.5353159000000001,1004.91846,5.796377950697233,1004.8893069445556,0,0
14.52,0.93722445,-9.684914,0.68681914,1004.89343,5.7905077756926335,1004.88966716302,0,0
14.54,0.9654272,-9.694435,0.6536347,1004.9008,5.7847697565904035,1004.8900255302684,0,0
14.56,0.97499317,-9.727801,0.6062913000000001,1004.93097,5.7792336641262505,1004.8904895836604,0,0
14.58,0.99411863,-9.756401,0.59682304,1004.90283,5.773957738119504,1004.890944046736,0,0
14.6,1.0132442,-9.708735,0.58735484,1004.9111,5.768835200939168,1004.8914181717412,0,0
14.62,0.9797916,-9.689671,0.66310585,1004.91595,5.7638302878216505,1004.8919254231777,0,0
14.64,0.8220639000000001,-9.680137,0.6583719,1004.9008,5.758896679096647,1004.8924055790236,0,0
14.66,0.865089,-9.751635,0.663107,1004.8932,5.754199928676281,1004.8928327046443,0,0
14.68,0.86987466,-9.785001,0.71045154,1004.9135,5.7498060358755625,1004.8932845151063,0,0
14.7,0.91767865,-9.746869,0.6962489000000001,1004.8983,5.7456237630190765,1004.8937017905761,0,0
14.72,0.88900656,-9.770701,0.5684206,1004.90814,5.74167016558088,1004.894122472735,0,0
14.74,0.6404631,-9.837434,0.60156196,1004.92334,5.738034876625991,1004.8945993705887,0,0
14.76,0.66914785,-9.775469,0.6583753999999999,1004.9108,5.734577207749448,1004.8950790797984,0,0
14.78,0.80298877,-9.699204,0.6536416,1004.891,5.731151489709518,1004.8954882661684,0,0
14.8,0.97506803,-9.756403,0.67731416,1004.8979,5.72792026911308,1004.8958585054872,0,0
14.82,1.2188438,-9.670605,0.66784596,1004.9307,5.7247511387813095,1004.8963110783293,0,0
14.84,1.2953271,-9.727803,0.69151855,1004.92334,5.721789687747867,1004.8968082758104,0,0
14.86,1.3240123,-9.680139,0.7625352,1004.9007,5.7189433775299126,1004.897261609712,0,0
14.88,1.2714398999999998,-9.670606,0.7720045,1004.89075,5.7161765357539975,1004.8976387337524,0,0
14.9,1.1232728,-9.608641,0.8761620999999999,1004.92334,5.713343002665964,1004.8980644851132,0,0
14.92,1.0707008,-9.689672,0.8098809,1004.93097,5.710603244130567,1004.8985591388687,0,0
14.94,0.86039597,-9.742104,0.7246621999999999,1004.8958,5.708007344968574,1004.8989862820276,0,0
14.96,0.7600279999999999,-9.675372,0.58736515,1004.9381,5.705373522791095,1004.8995045151073,0,0
14.98,0.75525373,-9.889867,0.5163496,1004.89075,5.703150402883817,1004.8999309096022,0,0
15.0,0.8412957,-9.851736,0.5636941,1004.93835,5.701239057243588,1004.9004459805033,0,0
15.02,1.0611726,-9.670607,0.6110388000000001,1004.9183,5.699286205769032,1004.9009653716215,0,0
15.04,1.2092588,-9.5752735,0.7009844,1004.93317,5.697155989278059,1004.901540242276,0,0
15.06,1.3335358999999998,-9.67537,0.5636869000000001,1004.9206,5.695097738680563,1004.902116813114,0,0
15.08,1.5725288,-9.599107,0.49267107,1004.9307,5.693019947654839,1004.9027291705793,0,0
15.1,1.6968063000000002,-9.708737,0.45953047,1004.89575,5.6911964930598185,1004.9032451246213,0,0
15.12,1.2140485,-9.765935,0.50687474,1004.8882,5.689578452632405,1004.9036468591644,0,0
15.14,1.3144268999999995,-9.642006,0.5116094,1004.9007,5.687920095128748,1004.9039912231135,0,0
15.16,0.9463847,-9.723037,0.77673626,1004.90814,5.68634679507435,1004.9043104386957,0,0
15.18,1.0993416,-9.723037,0.79567426,1004.9228,5.684890623777639,1004.9046590600052,0,0
15.2,0.903372,-9.661071000000002,0.68204874,1004.91534,5.683355858710959,1004.9050055531776,0,0
15.22,0.99419063,-9.74687,0.57315767,1004.9206,5.681938077918137,1004.9053678545537,0,0
15.24,0.9511748,-9.775469,0.5447514,1004.90576,5.680675611703311,1004.9056893957733,0,0
15.26,1.0085351,-9.703971,0.5968300999999999,1004.9385,5.679425533478737,1004.9060916277699,0,0
15.28,1.0897936,-9.6372385,0.57315826,1004.91064,5.678068489646551,1004.9064634141023,0,0
15.3,1.3909236,-9.703971,0.50687677,1004.90076,5.676831039109536,1004.9067713922149,0,0
15.32,1.3909261999999998,-9.656305,0.729394,1004.941,5.675635026431117,1004.9071667446632,0,0
15.34,1.338351,-9.703971,0.66784704,1004.966,5.674553451635561,1004.9077278778057,0,0
15.36,1.2284185,-9.723037,0.5968312,1004.9307,5.673576719717045,1004.9083063946904,0,0
15.38,1.2140818000000002,-9.718271,0.48794016,1004.9356,5.672670110438854,1004.9089158291883,0,0
15.4,1.4004958,-9.684905,0.47373712,1004.9481,5.6718103114157925,1004.909595388526,0,0
15.42,1.4291771999999998,-9.665839,0.49267495,1004.9606,5.670966363888192,1004.910379463758,0,0
15.44,1.4005014,-9.737337,0.3790495,1004.94574,5.670267282287657,1004.9111995705637,0,0
15.46,1.763769,-9.47041,0.5210819,1004.91534,5.669288220865201,1004.9119391224827,0,0
15.48,1.6777345,-9.589574,0.49741006,1004.89044,5.66827437663548,1004.9125151937177,0,0
15.5,1.4387473,-9.656306,0.50687915,1004.92065,5.667291895775013,1004.9130534955632,0,0
15.52,1.2284386,-9.765936,0.48320735,1004.90576,5.6665042337871085,1004.9135028824904,0,0
15.54,1.0648556,-9.76591,0.5588599,1004.89795,5.665860224636239,1004.913843970402,0,0
15.56,1.2464474,-9.684878,0.58726263,1004.9281,5.665226420117674,1004.9141966773873,0,0
15.58,1.3802388,-9.689644,0.57778984,1004.90784,5.664649833273723,1004.9144854452408,0,0
15.6,1.3515218,-9.584779,0.4973015,1004.9128,5.663892820780728,1004.9147345329134,0,0
15.62,1.566575,-9.703941,0.30792186,1004.9103,5.6632743291261365,1004.9149386624623,0,0
15.64,1.102891,-9.73254,0.4925597,1004.90576,5.662723940268811,1004.9150859881473,0,0
15.66,1.2032261999999998,-9.68964,0.317383,1004.9254,5.662156747551575,1004.9152532955644,0,0
15.68,1.2509861999999998,-9.661039,0.38366115,1004.91785,5.66153524325808,1004.9154104765347,0,0
15.7,1.2605052,-9.761136,0.40259507,1004.9479,5.661078264254925,1004.9156663239244,0,0
15.72,1.4803357,-9.618138,0.3552473,1004.9557,5.6605343850704575,1004.9160365119118,0,0
15.74,1.4324995,-9.646736,0.39311907,1004.9479,5.659962575113182,1004.9164783185747,0,0
15.76,1.4324563999999995,-9.61337,0.42625597,1004.92035,5.659302492060022,1004.916882636995,0,0
15.78,1.4610972,-9.684868,0.3647052,1004.9225,5.6587172673172175,1004.917260115258,0,0
15.8,1.3224474,-9.703933,0.5398748999999999,1004.90784,5.6582153623864615,1004.9175597426364,0,0
15.82,1.42756,-9.708698,0.41204208,1004.91254,5.657816401458176,1004.917806422314,0,0
15.84,1.3367031,-9.632432,0.47358564,1004.91785,5.6573321818396725,1004.9180245453572,0,0
15.86,1.2840846,-9.670564,0.4972539000000001,1004.91785,5.6568405616946125,1004.9182166505146,0,0
15.88,1.3461815,-9.732529,0.3930933,1004.91046,5.656479148145177,1004.9183584706904,0,0
15.9,1.2362081,-9.661029,0.43569946,1004.91785,5.656060516088482,1004.9184819525027,0,0
15.92,1.1931491,-9.680094,0.43569574,1004.92786,5.6556209676070255,1004.9186248220032,0,0
15.94,1.0927353000000002,-9.765891,0.45462987,1004.92035,5.655318887784596,1004.9187572721347,0,0
15.96,1.2599878,-9.742058,0.5303766,1004.8847,5.655139698364907,1004.9187516988912,0,0
15.98,1.3459812,-9.62766,0.4546222,1004.92035,5.65485027068253,1004.9187525282573,0,0
16.0,1.3889614,-9.637192,0.539838,1004.9228,5.6545056477921065,1004.918767831983,0,0
16.02,1.2120706,-9.732522,0.49249047,1004.8947,5.654255537302773,1004.9186947101604,0,0
16.04,1.195179,-9.618178,0.4074751,1004.9429,5.653841773525375,1004.918717238761,0,0
16.06,1.1378783,-9.727811,0.47849637,1004.8871,5.653503347847006,1004.9186233229732,0,0
16.08,1.3243382,-9.622948,0.56372005,1004.9303,5.653075115296228,1004.9185823750205,0,0
16.099999999999998,1.3291687,-9.670614,0.54005265,1004.91,5.652665643948658,1004.9185152968588,0,0
16.12,1.3722313999999998,-9.637249,0.5684630999999999,1004.9048,5.652221390161498,1004.9184066515268,0,0
16.14,1.2288879,-9.708749,0.50218606,1004.9278,5.651847876462448,1004.918344468566,0,0
16.16,1.224162,-9.70875,0.5021909999999999,1004.9254,5.651536986435636,1004.918314923615,0,0
16.18,1.1286135,-9.684918,0.5306018,1004.91504,5.651212679398116,1004.9182770279712,0,0
16.2,1.1382239,-9.670621,0.5542785,1004.92285,5.650853271432308,1004.9182600060795,0,0
16.22,1.0331156,-9.765952,0.4027819,1004.90283,5.650621199896946,1004.9181894175143,0,0
16.24,1.2004595,-9.680156,0.5684906999999999,1004.90045,5.650382256284523,1004.9180631835553,0,0
16.259999999999998,1.2626476,-9.765954,0.4169944,1004.91046,5.65031519637018,1004.917924271768,0,0
16.28,1.2292397,-9.656326,0.5779688000000001,1004.8975,5.6501827020156,1004.9177280019344,0,0
16.3,0.95683855,-9.794558,0.5732387,1004.87714,5.650214160621321,1004.9174084611025,0,0
16.32,1.3392767,-9.675393,0.4785556,1004.87225,5.650227207211511,1004.9169635443633,0,0
16.34,1.3488839,-9.6181965,0.6537329000000001,1004.90283,5.6501302757767435,1004.9165195351727,0,0
16.36,1.2533321000000002,-9.680163,0.6205961999999999,1004.8947,5.650032902314261,1004.9160486583256,0,0
16.38,1.2533858999999998,-9.75643,0.37441203,1004.92,5.650066560302353,1004.9156468163736,0,0
16.4,1.2343175,-9.684932,0.45490155,1004.91785,5.650070652052653,1004.9152996802857,0,0
16.419999999999998,1.1196498,-9.684934,0.596938,1004.9253,5.650035789355629,1004.9150289519893,0,0
16.44,1.3204553,-9.699235,0.42177,1004.87714,5.650029175990933,1004.9146533362393,0,0
16.46,1.2296866000000002,-9.699236,0.53540003,1004.9225,5.650034529873898,1004.9143496901526,0,0
16.48,1.2918749,-9.594373,0.61588955,1004.91,5.649861306207504,1004.9140657295856,0,0
16.5,1.3397204,-9.756436,0.5496123,1004.8972,5.649869258753028,1004.9137541054021,0,0
16.52,1.3875693,-9.651573,0.6253674,1004.8996,5.6498450637403845,1004.913427799494,0,0
16.54,1.3732773,-9.603909,0.7011222,1004.9124,5.649701219172993,1004.9131357755156,0,0
16.56,1.3685514,-9.680176,0.61117345,1004.8721,5.6495948062132975,1004.9127300143359,0,0
16.58,1.3686022,-9.66111,0.63485014,1004.88495,5.649485840990483,1004.9122714757068,0,0
16.599999999999998,1.3543134,-9.708776,0.60171396,1004.8896,5.6494644532170595,1004.9117846936607,0,0
16.62,1.2492052,-9.675412,0.64432794,1004.8896,5.649428547001276,1004.9112747081481,0,0
16.64,1.1345375,-9.713547,0.58751947,1004.9097,5.649421998849026,1004.9108184159996,0,0
16.66,1.1823863,-9.6801815,0.62539923,1004.9299,5.649389343060005,1004.9104839299596,0,0
16.68,1.2206786,-9.637284,0.69642025,1004.91,5.649265264108701,1004.910186635947,0,0
16.7,1.1904523,-9.670612,0.6962786999999999,1004.89233,5.64912162587571,1004.9098596630679,0,0
16.72,1.2334726,-9.708744,0.6442003000000001,1004.9071,5.6490433397368705,1004.9095608150448,0,0
16.74,1.2525938,-9.699212,0.6394661,1004.92487,5.649007865972438,1004.9093518659976,0,0
16.759999999999998,1.1378803,-9.684912,0.6678728,1004.92725,5.648955743534758,1004.9092316719016,0,0
16.78,1.1617813,-9.699212,0.6015913,1004.90497,5.648915450343632,1004.9091101263797,0,0
16.8,1.1235447,-9.699212,0.5873883000000001,1004.917,5.6488746796669655,1004.9090311323016,0,0
16.82,1.209583,-9.723044,0.5921228000000001,1004.9295,5.648904606533848,1004.909035021058,0,0
16.84,1.0996495000000002,-9.718278,0.6110606,1004.9075,5.648962590681987,1004.9090329310872,0,0
16.86,1.0900918,-9.675379,0.59212315,1004.9175,5.648952077973028,1004.9090615658373,0,0
16.88,1.2526071,-9.689679,0.5447793000000001,1004.92487,5.648945307068861,1004.9091437778653,0,0
16.9,1.3338656,-9.675379,0.6584051999999999,1004.9075,5.648949295863037,1004.9092105028128,0,0
16.919999999999998,1.4246837,-9.684912,0.58265483,1004.91223,5.648998954988724,1004.9092803311664,0,0
16.94,1.2621723,-9.684912,0.59212387,1004.8896,5.6490436455084385,1004.9092711823073,0,0
16.96,1.1617984,-9.723044,0.6063272,1004.9071,5.6491382803630374,1004.9092552821193,0,0
16.98,1.0566444,-9.708744,0.5684522,1004.8971,5.6492177629610625,1004.9091974736972,0,0
17.0,1.1761416,-9.642014,0.5447803000000001,1004.9094,5.649171631869176,1004.9091471232704,0,0
17.02,1.2382809,-9.661078,0.52110845,1004.91974,5.6490672466992065,1004.9091407679897,0,0
17.04,1.2813008999999995,-9.689679,0.5258430000000001,1004.9096,5.648982683256135,1004.9091368056987,0,0
17.06,1.2621837,-9.718278,0.5163744,1004.90186,5.648968590965258,1004.9091071081177,0,0
17.08,1.1952683000000002,-9.68968,0.5163746,1004.92725,5.648940484377168,1004.9091461817461,0,0
17.099999999999998,1.1857108,-9.684913,0.5069059,1004.92,5.648886825449424,1004.9092197809496,0,0
17.12,1.128355,-9.699213,0.5021717000000001,1004.92,5.6488256344707946,1004.9093236219946,0,0
17.14,1.2096136,-9.775477,0.5305783000000001,1004.93286,5.648938378971468,1004.9095001069028,0,0
17.16,1.2287346,-9.708745,0.56845367,1004.9399,5.649076322616187,1004.9097654885827,0,0
17.18,1.2143971000000002,-9.665847,0.58739156,1004.9145,5.649146332948429,1004.9100170240764,0,0
17.2,1.2142548999999998,-9.65631,0.56844085,1004.93726,5.6491340619336725,1004.9103373555516,0,0
17.22,1.2859484,-9.680142,0.5826438,1004.91956,5.649118985178193,1004.9106536019632,0,0
17.24,1.1999081,-9.694442,0.52583057,1004.9145,5.649101504442866,1004.9109468843255,0,0
17.259999999999998,1.1807854,-9.694442,0.5447679,1004.8947,5.64907927981455,1004.9111475398372,0,0
17.28,1.2142403,-9.684909,0.5163611,1004.8995,5.64903862046379,1004.911282907904,0,0
17.3,1.1473188,-9.713509,0.5826424,1004.9145,5.649031686027661,1004.9114141006592,0,0
17.32,1.2046727,-9.646776,0.55423564,1004.90674,5.648928036434373,1004.9115131958156,0,0
17.34,1.2381278,-9.703975,0.59211046,1004.8991,5.648870361378412,1004.9115560687908,0,0
17.36,1.2381243,-9.713508,0.54003173,1004.917,5.648866888055338,1004.9116135495036,0,0
17.38,1.2476798,-9.770706,0.5210938,1004.907,5.649029462513777,1004.9116477306836,0,0
17.4,1.1903186,-9.694441,0.59210956,1004.9116,5.6491747103449965,1004.9116777613436,0,0
17.419999999999998,1.1520761999999998,-9.689675,0.63945323,1004.89685,5.649290988313664,1004.9116509164944,0,0
17.44,1.2046503,-9.608644,0.5826399999999999,1004.92194,5.649220214789237,1004.9116642370856,0,0
17.46,1.2763438,-9.765939,0.45007634,1004.9145,5.649312592492848,1004.9116862159067,0,0
17.48,1.066029,-9.694441,0.48321685,1004.92975,5.649352531166719,1004.911770666016,0,0
17.5,1.3719326,-9.765939,0.32698116,1004.9395,5.6495588519438265,1004.9119451117348,0,0
17.52,1.1233788,-9.699208,0.51162255,1004.9371,5.649724776830871,1004.9121898095696,0,0
17.54,1.1807331,-9.756406,0.4642782,1004.8943,5.649981429147776,1004.912341621262,0,0
17.56,1.1281511999999998,-9.756406,0.50215304,1004.8846,5.6503083648029575,1004.9123758922368,0,0
17.58,1.1759456,-9.656308,0.60157526,1004.9124,5.650513296439043,1004.9124062608583,0,0
17.599999999999994,1.2524183999999998,-9.661074,0.5494964,1004.89667,5.650632900609169,1004.9123764440327,0,0
17.62,1.1902772,-9.713507,0.5305584,1004.90674,5.6507663321867545,1004.9123298066876,0,0
17.64,1.0659987,-9.69444,0.53055817,1004.92737,5.650842410760744,1004.9123427426252,0,0
17.66,1.1520313,-9.689674,0.49741694,1004.92474,5.6508743860715205,1004.9123988029463,0,0
17.68,1.2237248,-9.765938,0.4453382000000001,1004.91925,5.651037277034789,1004.9124730021553,0,0
17.7,1.1280297,-9.723037,0.48320433,1004.93475,5.651206749843977,1004.9126187617684,0,0
17.72,1.300095,-9.665838,0.5542196999999999,1004.92474,5.651315835836187,1004.9127911914204,0,0
17.74,1.333546,-9.613406,0.48320293,1004.9096,5.651264888757683,1004.9129320619716,0,0
17.759999999999994,1.2044841999999998,-9.723037,0.5068743,1004.935,5.6512659793610736,1004.9131359797676,0,0
17.78,1.0945412,-9.589572,0.58735853,1004.91437,5.651020458410541,1004.9133206040053,0,0
17.8,1.1040937,-9.694436,0.4642633,1004.902,5.650762550137904,1004.9134429838068,0,0
17.82,1.1614436,-9.70397,0.38377774,1004.902,5.650520845559063,1004.913509923858,0,0
17.84,1.3526281,-9.6992035,0.39324585,1004.92444,5.6503363106969005,1004.9136084203616,0,0
17.86,1.5533723,-9.656304,0.27015063,1004.9045,5.6501680786199255,1004.9136626615584,0,0
17.88,1.3908519,-9.67537,0.32696283,1004.927,5.650006783827496,1004.9137586034984,0,0
17.9,1.3143674,-9.8136,0.39324382,1004.91187,5.650119778952013,1004.913836578824,0,0
17.919999999999995,1.1853046,-9.751634,0.38850868,1004.88934,5.65031271874488,1004.9138172901379,0,0
17.94,1.170958,-9.780233,0.46899286,1004.90424,5.65063827701959,1004.9137657684106,0,0
17.96,1.1231525,-9.708735,0.5589459,1004.88434,5.650930642444676,1004.913614311046,0,0
17.98,1.0562284,-9.675368,0.58735174,1004.89685,5.651111776734062,1004.9134201317987,0,0
18.0,1.0848992,-9.732568,0.59208536,1004.9145,5.651319046954584,1004.9132524425412,0,0
18.02,1.1326896,-9.637236,0.63942873,1004.90186,5.65136967887926,1004.9130632595204,0,0
18.04,1.1996002,-9.684901,0.5873497,1004.9191,5.651389706275277,1004.9129178296687,0,0
18.06,1.1517941,-9.670602,0.6157554000000001,1004.90924,5.651344848464547,1004.9127760876653,0,0
18.08,1.0800894,-9.732567,0.61575466,1004.9096,5.651353516154647,1004.9126394105153,0,0
18.1,0.9844863,-9.780231,0.5731443,1004.8866,5.651481558304273,1004.9124249007076,0,0
18.12,1.0179372,-9.784998,0.5257996,1004.927,5.6517260377608745,1004.9122878301988,0,0
18.14,1.0179276,-9.756399,0.5494708,1004.9045,5.652016174131131,1004.9121386785088,0,0
18.16,1.1899935,-9.7135,0.60628295,1004.9395,5.652304348628897,1004.9121053888327,0,0
18.18,1.137409,-9.642002,0.5826103,1004.89136,5.652426464280198,1004.9120012906752,0,0
18.2,1.3383123,-9.642005,0.5210769000000001,1004.92664,5.652447252275852,1004.9119620088968,0,0
18.22,1.2905132,-9.680137,0.52107686,1004.912,5.652443478398983,1004.9119274362853,0,0
18.24,1.2331542,-9.723036,0.53054553,1004.9071,5.6524920083517145,1004.9118795091553,0,0
18.26,1.1327773,-9.684903,0.5210766,1004.9014,5.652481751796013,1004.9117994345099,0,0
18.28,1.0276203000000002,-9.727802,0.5021389,1004.89667,5.6524818825108,1004.9116742145892,0,0
18.3,1.0371785,-9.751635,0.48320115,1004.8865,5.652540502699064,1004.9114729430947,0,0
18.32,1.0562965,-9.746869,0.64417076,1004.88434,5.652664196506562,1004.9111974210073,0,0
18.34,1.0562955,-9.727802,0.65837395,1004.89685,5.652807590417753,1004.9109023189748,0,0
18.36,0.9320192,-9.742102,0.7577961999999999,1004.90424,5.652986105817544,1004.9106175824705,0,0
18.38,0.81730264,-9.751635,0.7057177,1004.9268,5.653185368890809,1004.910424245999,0,0
18.4,0.6595677,-9.718269,0.6820456,1004.8891,5.653305050168442,1004.9101766466067,0,0
18.42,0.48271394,-9.8279,0.67731106,1004.90393,5.653558827432349,1004.9099353798564,0,0
18.44,0.4301347,-9.894632,0.67731094,1004.917,5.6540633634366575,1004.9097476291879,0,0
18.46,0.57352763,-9.837434,0.74832684,1004.89105,5.654694957892787,1004.9095144212323,0,0
18.48,0.9272317,-9.642005,0.6204979,1004.9145,5.655070381801326,1004.9093263067662,0,0
18.5,1.3526331,-9.594339,0.4879344,1004.91675,5.655208035108162,1004.9091868141196,0,0
18.52,1.4960258999999998,-9.618172,0.5305439000000001,1004.8916,5.655232319080888,1004.909000245886,0,0
18.54,1.6919967,-9.594339,0.3032924,1004.89386,5.655153930583728,1004.90878088931,0,0
18.56,1.558161,-9.608639,0.45005882,1004.9214,5.654979790644876,1004.9086324946376,0,0
18.58,1.3574079,-9.70397,0.5021371,1004.927,5.6548604105830265,1004.9085674961244,0,0
18.6,1.1901135,-9.737335,0.57788754,1004.93176,5.654822051122924,1004.9085935564524,0,0
18.62,1.1184152,-9.756402,0.60629386,1004.9365,5.654880764632679,1004.9087170465547,0,0
18.64,1.0419371,-9.680137,0.6347001,1004.90924,5.654854028912522,1004.9088280450418,0,0
18.66,1.161431,-9.594339,0.587356,1004.9268,5.65459703268135,1004.9089908223427,0,0
18.68,1.15665,-9.670604,0.63943434,1004.9091,5.654300213071831,1004.9091350454053,0,0
18.7,1.233382,-9.646776,0.5353008,1004.942,5.653926721982647,1004.9093807947397,0,0
18.72,1.1377947,-9.694443,0.57317686,1004.8985,5.653565340547062,1004.9095587679907,0,0
18.74,1.2238395,-9.746876,0.45955187,1004.93427,5.653333091602829,1004.9098049855908,0,0
18.76,1.1808292,-9.708742,0.46902138,1004.927,5.653127184946201,1004.9100844455136,0,0
18.78,1.0995818000000002,-9.761175,0.5779135999999999,1004.9191,5.653045832841263,1004.9103638322978,0,0
18.8,1.1521686000000002,-9.708742,0.52583593,1004.9468,5.65297319499929,1004.910741868664,0,0
18.82,1.1043794,-9.675378,0.5684464,1004.932,5.652833237314613,1004.91115243087,0,0
18.84,1.1091675,-9.703978,0.3932742,1004.92163,5.652676484492417,1004.9115529228841,0,0
18.86,1.0996168,-9.699211,0.49269748,1004.9295,5.652502744151413,1004.9119714071053,0,0
18.88,1.2621383999999998,-9.684911,0.5684486999999999,1004.9441,5.652334495618487,1004.9124568426976,0,0
18.9,1.2717069,-9.675378,0.5731839,1004.9141,5.6521552433580045,1004.9128916889532,0,0
18.92,1.133101,-9.765943,0.5873879,1004.93695,5.65211983648811,1004.9133625290243,0,0
18.94,1.1139913,-9.699212,0.62999845,1004.9214,5.6520750873765015,1004.9138074982068,0,0
18.96,1.1092197,-9.694445,0.639468,1004.9016,5.652012571884159,1004.9141567259828,0,0
18.98,1.0948892,-9.756411,0.66787523,1004.8915,5.652062861528868,1004.9143837394324,0,0
19.0,1.0471005,-9.723045,0.5921255999999999,1004.90424,5.652122916819186,1004.9145478110544,0,0
19.02,1.0327694,-9.723045,0.6015951999999999,1004.9114,5.652189422068679,1004.9146814526197,0,0
19.04,1.0471172,-9.732579,0.6820808,1004.9016,5.6522951628781115,1004.9147524450772,0,0
19.06,1.0184472,-9.727812,0.6347376,1004.92194,5.652412479449425,1004.9148410492106,0,0
19.08,1.1092723999999998,-9.699214,0.57319117,1004.924,5.652493250725707,1004.9149523120456,0,0
19.1,1.2096566,-9.73258,0.6347392,1004.90393,5.652642726400582,1004.9150109435633,0,0
19.12,1.1236296,-9.761178999999998,0.58266157,1004.88885,5.652883369918296,1004.9149685709757,0,0
19.14,1.1523168,-9.642015,0.6158031999999999,1004.9089,5.652969325414545,1004.9149092837014,0,0
19.16,1.1953431,-9.737346,0.61106956,1004.91394,5.653124721793898,1004.9148534080446,0,0
19.18,1.137995,-9.727814,0.6678833000000001,1004.9191,5.653314818206985,1004.9148193240453,0,0
19.2,1.1522473,-9.74211,0.5542496,1004.89136,5.653553102665598,1004.914704753857,0,0
19.22,1.1235733,-9.727811,0.58739084,1004.9145,5.653800736735567,1004.9146027825248,0,0
19.24,1.1809356000000002,-9.684913,0.6252665,1004.90424,5.65398627254513,1004.9144753746384,0,0
19.26,1.1522618999999998,-9.684913,0.65840775,1004.9091,5.654113680964942,1004.9143434456813,0,0
19.28,1.200065,-9.713512,0.6157986,1004.8866,5.654254326296557,1004.9141269968504,0,0
19.3,1.2287489,-9.718279,0.6205335,1004.92896,5.654423973062374,1004.9139891414748,0,0
19.32,1.300451,-9.684913,0.620534,1004.8916,5.654569229360063,1004.9137867315557,0,0
19.34,1.3864923,-9.637247,0.62526876,1004.8989,5.654619692630209,1004.9135542899173,0,0
19.36,1.3769377,-9.656314,0.5353156,1004.9191,5.654611451111883,1004.9133688690421,0,0
19.38,1.3578236,-9.66108,0.5921289000000001,1004.90186,5.6545624124806775,1004.913163599228,0,0
19.4,1.2670125,-9.651547,0.5021755999999999,1004.90186,5.6544220402075664,1004.9129415298632,0,0
19.42,1.2335582,-9.656315,0.5069104999999999,1004.9091,5.654202876351615,1004.9127314798648,0,0
19.44,1.1809857,-9.737346,0.530583,1004.8941,5.6540709020531335,1004.9124788063588,0,0
19.46,1.1762108,-9.656315,0.62527156,1004.92175,5.6538599762879365,1004.9122889203461,0,0
19.48,1.2001151,-9.656315,0.6489441,1004.93427,5.653589318105293,1004.912200268952,0,0
19.5,1.3196152,-9.699214,0.5826629,1004.9039,5.653378418927826,1004.9120920556118,0,0
19.52,1.5060323,-9.670614,0.5873977,1004.9393,5.6532187834104155,1004.9120943869044,0,0
19.54,1.3530833999999998,-9.689682,0.5921325,1004.9116,5.6530983880926415,1004.9120946670413,0,0
19.56,1.2766118999999998,-9.727814,0.6252738,1004.89386,5.653074467654744,1004.9120292697693,0,0
19.58,1.1762408000000002,-9.746881,0.5731958,1004.92163,5.65314250690317,1004.9120060473683,0,0
19.6,1.2049251,-9.642016,0.60633713,1004.9341,5.653087024237423,1004.9120650662843,0,0
19.62,1.1714709,-9.656316,0.60633755,1004.9013,5.652943557686322,1004.9120784611599,0,0
19.64,1.1666957,-9.742113,0.4974467000000001,1004.87366,5.652885673710227,1004.911951990412,0,0
19.66,1.1619214,-9.684915,0.5258536,1004.9013,5.652787645583308,1004.9118018936937,0,0
19.68,1.2623023000000002,-9.675382,0.5400573000000001,1004.9016,5.652662361901808,1004.9116325414155,0,0
19.7,1.1905783,-9.703981,0.5069140000000001,1004.8989,5.652549953344594,1004.911437064594,0,0
19.72,1.3196367,-9.684915,0.5211175,1004.90186,5.652446023985558,1004.9112298638418,0,0
19.74,1.2766222,-9.651548,0.5495243000000001,1004.88385,5.652272685061468,1004.9109482137472,0,0
19.76,1.1714704,-9.718281,0.56372786,1004.88855,5.652150342765832,1004.9106187141543,0,0
19.78,1.1236758,-9.732581,0.549525,1004.89636,5.652089673679812,1004.9102762369432,0,0
19.8,0.9707261,-9.699215,0.61580706,1004.9089,5.651989085814506,1004.909968669626,0,0
19.82,1.104564,-9.689682,0.63474494,1004.90356,5.651865990509193,1004.909673831934,0,0
19.84,1.1236873,-9.699216,0.64421415,1004.89886,5.6517489104035805,1004.9093743835543,0,0
19.86,1.1619295,-9.684916,0.5637295999999999,1004.89636,5.651607062943745,1004.9090629391852,0,0
19.88,1.1475936000000002,-9.670616,0.5874019,1004.884,5.651413756758451,1004.90869752036,0,0
19.9,1.0520014,-9.751647,0.45483896,1004.89636,5.651305787898928,1004.9083302212123,0,0
19.92,1.0711244,-9.756414,0.47377694,1004.9313,5.651289606763692,1004.9080883668894,0,0
19.94,1.4248332,-9.646783,0.27966663,1004.94904,5.651206986524394,1004.9080220902887,0,0
19.96,1.1667278,-9.708748,0.5779345,1004.9116,5.6511495451778675,1004.9079764087593,0,0
19.98,1.305346,-9.599118,0.5163876000000001,1004.8986,5.6509182567524245,1004.9079022894883,0,0
20.0,1.2001939,-9.675383,0.5874041,1004.9114,5.650671365721415,1004.9078493894583,0,0
20.02,1.0998216,-9.684916,0.62527955,1004.89386,5.650411538181082,1004.90775228519,0,0
20.04,1.2288803,-9.6849165,0.49745098,1004.9114,5.650157916650838,1004.9076796156314,0,0
20.06,1.1141686000000002,-9.6849165,0.5542642,1004.88635,5.649888457762276,1004.9075386181934,0,0
20.08,1.1858695,-9.68015,0.6063430000000001,1004.89636,5.649620130936477,1004.9073737898317,0,0
20.1,1.2432309,-9.665851,0.5779369000000001,1004.9116,5.6493355827145875,1004.9072433618477,0,0
20.12,1.2193353999999998,-9.665851,0.53059316,1004.9064,5.649025871480224,1004.9071250795783,0,0
20.14,1.1619818000000002,-9.661083,0.60160965,1004.9166,5.648679236781469,1004.9070546750787,0,0
20.16,1.1476462,-9.713516,0.6110788,1004.9064,5.648406930362742,1004.9069901088327,0,0
20.18,1.1046315,-9.761182000000002,0.67736083,1004.8835,5.648298269442992,1004.9068484937061,0,0
20.2,1.1139721000000002,-9.742109,0.563715,1004.9163,5.648282572841822,1004.9067573880023,0,0
20.22,1.090068,-9.742109,0.5779178,1004.9064,5.648345216681948,1004.9066756004061,0,0
20.24,1.0948428,-9.703978,0.6015893,1004.9089,5.64840230745187,1004.9066113407243,0,0
20.26,1.0040216,-9.684911,0.6773394,1004.89136,5.648405002230621,1004.9064996560433,0,0
20.28,1.0422552,-9.708743,0.7246829,1004.9066,5.6484241296281805,1004.9064013326973,0,0
20.3,1.0852685,-9.684911,0.5921192,1004.9263,5.648399755452932,1004.9063860893907,0,0
20.32,1.1043823999999998,-9.708743,0.57791543,1004.932,5.648388846415013,1004.9064648304834,0,0
20.34,1.085258,-9.765942,0.61579025,1004.91437,5.648508150225,1004.9065628647232,0,0
20.36,1.1282715,-9.680143,0.6205242,1004.9013,5.648575959442249,1004.9066305414644,0,0
20.38,1.0852482,-9.732576,0.60158616,1004.9064,5.648693522564162,1004.9066895106836,0,0
20.4,1.1808395,-9.665844,0.56371045,1004.89636,5.6487354316620495,1004.9067044296472,0,0
20.42,1.1999537,-9.67061,0.63472605,1004.9014,5.648734063138631,1004.906698516097,0,0
20.44,1.1139122,-9.71351,0.6110536,1004.9041,5.6487585291791245,1004.9066839362256,0,0
20.46,1.1330262,-9.718276,0.5779123,1004.9041,5.648815932674164,1004.9066617512814,0,0
20.48,1.17126,-9.718276,0.6678655,1004.9064,5.648923445612239,1004.9066412063596,0,0
20.5,1.0183009,-9.732576,0.620521,1004.88635,5.649062370682309,1004.9065500045242,0,0
20.52,1.1138923,-9.737341,0.58737975,1004.9214,5.649255725260284,1004.906522878566,0,0
20.54,1.199924,-9.646776,0.6157858,1004.9138,5.649334710586518,1004.9065251077063,0,0
20.56,1.0660841,-9.723042,0.61105084,1004.9064,5.649436606074313,1004.9065266269873,0,0
20.58,1.0374005,-9.727808,0.5921126999999999,1004.9114,5.649559394158606,1004.9065455135665,0,0
20.6,1.2859455,-9.76594,0.5447683000000001,1004.9091,5.6498341030181125,1004.906571397899,0,0
20.62,1.1521065,-9.713509,0.6725968000000001,1004.9091,5.650116103449747,1004.9066033722627,0,0
20.64,1.0947433000000002,-9.665843,0.6536586999999999,1004.8991,5.6502889765112965,1004.9066046126708,0,0
20.66,1.0517199,-9.770707000000002,0.63945496,1004.9191,5.650569225744027,1004.9066506920892,0,0
20.68,1.142531,-9.684908,0.6347201,1004.87885,5.650786982857431,1004.9065913253723,0,0
20.7,1.1570245,-9.680145,0.55424935,1004.924,5.65093229282328,1004.9066015401697,0,0
20.72,1.2191632,-9.61818,0.54951507,1004.9014,5.650900645286227,1004.9065918404201,0,0
20.74,1.3625585,-9.622947,0.6442033,1004.9141,5.650774190254906,1004.9066102990956,0,0
20.76,1.2000464,-9.694445,0.5021712,1004.89636,5.650649794432104,1004.9065897081044,0,0
20.78,1.3099831,-9.737345,0.5400465999999999,1004.9089,5.6506493830668845,1004.9065798309558,0,0
20.8,1.4677178999999998,-9.608647,0.52584344,1004.8891,5.650539066605574,1004.9065081761156,0,0
20.82,1.2382888,-9.708745,0.55425006,1004.9089,5.650474959348959,1004.9064534724647,0,0
20.84,1.2000514,-9.713512,0.5163749,1004.9014,5.6504475452261325,1004.9063869438182,0,0
20.86,1.3052084,-9.656314,0.6773448000000001,1004.9041,5.650383366661407,1004.9063199261084,0,0
20.88,1.0566599,-9.603881,0.6915481,1004.87396,5.650118399641308,1004.9061442135257,0,0
20.9,1.3338898,-9.513316,0.6631418,1004.8941,5.649557841287737,1004.9059455947192,0,0
20.92,1.0757816,-9.665847,0.56371933,1004.8817,5.648972183206122,1004.9056828110008,0,0
20.94,1.0423242,-9.746879,0.6442044,1004.8815,5.648536362114093,1004.9053635571872,0,0
20.96,0.9897476,-9.680146,0.592126,1004.907,5.648078649682446,1004.905087355712,0,0
20.98,1.0614458,-9.79931,0.6489391,1004.9066,5.647872104233626,1004.904848749608,0,0
21.0,1.0375481,-9.694446,0.6489391999999999,1004.9041,5.647666697754071,1004.9046352217557,0,0
21.02,1.0949069,-9.770711,0.66314244,1004.92926,5.647635182667442,1004.9045351977472,0,0
21.04,1.1379264999999998,-9.761178,0.7436275,1004.90924,5.647759865573753,1004.9044637538212,0,0
21.06,0.8750389000000001,-10.113903,0.4027505,1004.88135,5.648654581562657,1004.9043174164548,0,0
21.08,1.4055978999999998,-9.727812,0.51637626,1004.89636,5.649567023300872,1004.9041594660582,0,0
21.1,1.5011954,-9.503784,0.96614486,1004.9091,5.650133536744474,1004.9040376870099,0,0
21.12,1.4964167,-9.670613,0.6347366,1004.89636,5.650675574404048,1004.90390244337,0,0
21.14,1.5250969,-9.618181,0.6252679,1004.8941,5.651094531354199,1004.9037476532936,0,0
21.16,1.3052271999999998,-9.6420145,0.64420563,1004.89636,5.651388393749275,1004.90358428523,0,0
21.18,1.190513,-9.560983,0.7246906999999999,1004.90393,5.651385212112312,1004.9034411777824,0,0
21.2,1.1666156,-9.78501,0.6489404000000001,1004.9066,5.651563574845346,1004.9033260998012,0,0
21.22,0.9945436,-9.732579,0.5968619000000001,1004.9114,5.651747482049961,1004.9032534829379,0,0
21.24,1.0423431,-9.656314,0.596862,1004.9141,5.651788635854535,1004.9032283661393,0,0
21.26,1.1188213,-9.737345,0.69155025,1004.90356,5.6519010539188885,1004.9032073668176,0,0
21.28,1.0471255,-9.775477,0.67261285,1004.9091,5.652135489593983,1004.9032100252963,0,0
21.3,1.1379427,-9.746879,0.6205344,1004.8943,5.652431794049496,1004.9031802982373,0,0
21.32,1.0327884,-9.699213,0.6394721999999999,1004.9443,5.652661776626777,1004.9033020623344,0,0
21.34,0.9085149,-9.699213,0.66314435,1004.8915,5.65280994639517,1004.9033671656656,0,0
21.36,1.0949283,-9.727812,0.6158004,1004.9166,5.65297752133707,1004.9034723291733,0,0
21.38,0.95631546,-9.713512,0.59686285,1004.89667,5.6530995311696985,1004.9035407632632,0,0
21.4,0.8989591,-9.827909,0.5921286,1004.9263,5.653405269501946,1004.9036831648776,0,0
21.42,0.9993363,-9.751645,0.5968631,1004.9064,5.653735457089982,1004.9038187715504,0,0
21.44,1.008897,-9.751645,0.61580086,1004.9214,5.654090520744591,1004.9040018860287,0,0
21.46,1.0901545,-9.684914,0.70102024,1004.9089,5.654358701371027,1004.9041813191924,0,0
21.48,1.1618531,-9.627715,0.71522355,1004.9091,5.6544507330629195,1004.9043575735866,0,0
21.5,1.1618545,-9.665848,0.66787964,1004.9316,5.6544582931675835,1004.9046113847045,0,0
21.52,1.0949385,-9.627715,0.66787976,1004.92926,5.6542965312828075,1004.9049243872232,0,0
21.54,0.98500437,-9.737346,0.7104895,1004.9295,5.654193641351942,1004.9052894284546,0,0
21.56,1.0280237,-9.603882,0.83358413,1004.88635,5.6538975829855085,1004.9055437969442,0,0
21.58,1.1045018,-9.632482,0.6394736999999999,1004.89386,5.6534776614980995,1004.9057264952727,0,0
21.6,1.0901066,-9.684912,0.6773438,1004.9091,5.653059785121562,1004.9059000721327,0,0
21.62,1.133125,-9.732578,0.6110621,1004.8989,5.652744521873661,1004.9060282443868,0,0
21.64,1.1283451,-9.661078,0.7246878000000001,1004.91644,5.652388770345117,1004.9061789797104,0,0
21.66,1.1904826000000002,-9.732578,0.7152189999999999,1004.90924,5.652159527406527,1004.9063231891156,0,0
21.68,1.2143816,-9.756411,0.68207824,1004.90424,5.652093110637332,1004.9064431130647,0,0
21.7,1.1140058000000002,-9.74211,0.62999976,1004.9089,5.652109459953,1004.9065579226597,0,0
21.72,1.0805471000000002,-9.718278,0.7530943,1004.91925,5.652160034400692,1004.9067050598959,0,0
21.74,1.032749,-9.684912,0.7294223000000001,1004.9039,5.652157471927223,1004.9068249721423,0,0
21.76,1.0423087,-9.737344,0.69154704,1004.927,5.652212435699721,1004.9070035567037,0,0
21.78,1.1044462,-9.727811,0.6868126,1004.8865,5.652311817804992,1004.9070875412176,0,0
21.8,1.1857028,-9.718278,0.65367174,1004.9041,5.652445460761688,1004.9071509947861,0,0
21.82,1.0805471000000002,-9.732578,0.64420295,1004.9039,5.652611813056223,1004.9071953587776,0,0
21.84,1.1140058000000002,-9.675379,0.65367174,1004.89667,5.652697697010753,1004.9071966675093,0,0
21.86,1.1235653,-9.723044,0.7199534000000001,1004.88135,5.652822282284911,1004.9071047759012,0,0
21.88,1.1140058000000002,-9.699212,0.6868126,1004.88885,5.652924322380158,1004.9069578632832,0,0
21.9,1.1092258999999998,-9.699212,0.62999976,1004.8941,5.652996999997551,1004.9067817629865,0,0
21.92,1.061428,-9.694445,0.7246878000000001,1004.8989,5.653036253783113,1004.9065977864168,0,0
21.94,1.1761431999999998,-9.675379,0.64420295,1004.88934,5.653022142835279,1004.9063730966893,0,0
21.96,1.1761431999999998,-9.670612,0.667875,1004.89667,5.652954421290443,1004.9061396296976,0,0
21.98,1.1713635,-9.684912,0.6489374,1004.9091,5.6528651661921545,1004.9059439955972,0,0
22.0,1.1283451,-9.703979,0.6868126,1004.89935,5.6527913339075075,1004.9057473949216,0,0
22.02,1.1713635,-9.665846,0.7104847,1004.9041,5.6526669213640695,1004.9055677479432,0,0
22.04,1.0662078,-9.765943,0.667875,1004.9041,5.652673265382783,1004.9054037279802,0,0
22.06,1.0853269,-9.699212,0.62053096,1004.9066,5.652655459156268,1004.9052631065204,0,0
22.08,1.133125,-9.589581,0.64420295,1004.8817,5.652405011796075,1004.9050540262148,0,0
22.1,1.2098517,-9.756417,0.7247107,1004.9016,5.652324153025504,1004.9048568483626,0,0
22.12,1.2050815,-9.727818,0.67736757,1004.89935,5.6523263676255695,1004.9046627973582,0,0
22.14,1.2194316,-9.675385,0.6205556999999999,1004.9072,5.652289946265057,1004.9045004678204,0,0
22.16,1.166864,-9.656321,0.7105104,1004.90424,5.652179676580095,1004.9043560957564,0,0
22.18,1.2242305,-9.661086,0.7010423000000001,1004.9066,5.652027539710717,1004.904236606656,0,0
22.2,1.2194614,-9.656321,0.5874176,1004.932,5.651812318321397,1004.904230974303,0,0
22.22,1.233811,-9.613421,0.6537002,1004.927,5.65146640195425,1004.9043079660485,0,0
22.24,1.1812421,-9.627722,0.6679042,1004.9066,5.651024104668625,1004.9043842472768,0,0
22.26,1.2194906,-9.665854,0.68684274,1004.9096,5.650589225221298,1004.90447042608,0,0
22.28,1.166923,-9.7182865,0.5590148,1004.927,5.650240169505143,1004.9046276801364,0,0
22.3,1.2242906999999998,-9.627722,0.63950056,1004.89386,5.649806610758301,1004.9047278661726,0,0
22.32,1.1287042,-9.746887,0.63003266,1004.92206,5.649520117969494,1004.9048787862357,0,0
22.34,1.1860727,-9.665855,0.64423686,1004.902,5.649213730214348,1004.9050017755728,0,0
22.36,1.1621832,-9.713521,0.5968936,1004.892,5.648976815661454,1004.9050636425592,0,0
22.38,1.1860918,-9.77072,0.62056655,1004.8971,5.648928926845122,1004.9050896391153,0,0
22.4,1.22912,-9.622957,0.64897394,1004.93,5.648758967445357,1004.9052022869713,0,0
22.42,1.1478741,-9.699223,0.60636526,1004.92194,5.648612485986665,1004.9053620783836,0,0
22.44,1.0666276,-9.727821,0.59689736,1004.8946,5.648525924383135,1004.9054645265936,0,0
22.46,1.0953159,-9.661089,0.5968982,1004.8918,5.6483616271208525,1004.905505857536,0,0
22.48,1.1909215,-9.70399,0.5684927,1004.8995,5.648237362581074,1004.9055207564696,0,0
22.5,1.2674085,-9.694456,0.5826968000000001,1004.9096,5.648150980798838,1004.905548606444,0,0
22.52,1.2243999,-9.7087555,0.516416,1004.91473,5.648108719181062,1004.9056062676983,0,0
22.54,1.2244099,-9.727822,0.52588576,1004.9141,5.648145905221112,1004.9056877946186,0,0
22.56,1.3200161,-9.67539,0.50221467,1004.91205,5.648168474764181,1004.9057827357452,0,0
22.58,1.3200263,-9.665858,0.5164188,1004.8997,5.648159986071968,1004.9058447278757,0,0
22.6,1.3343758999999995,-9.751656,0.49274772,1004.902,5.648302039619337,1004.9058856631018,0,0
22.62,1.3144231000000002,-9.699204,0.5021402,1004.902,5.648464116440477,1004.9059078450804,0,0
22.64,1.4195559,-9.594339,0.50687253,1004.88684,5.648458918379415,1004.9058588008346,0,0
22.66,1.3000393,-9.670603,0.51160496,1004.9045,5.648428511481428,1004.905810573656,0,0
22.68,1.2187598999999998,-9.699203,0.5636813,1004.8995,5.6484189954092585,1004.9057452420557,0,0
22.7,1.3191158,-9.665835,0.5636795,1004.8971,5.648386380613856,1004.9056563921823,0,0
22.72,1.4099064,-9.680135,0.5684115,1004.9066,5.648389737269494,1004.9055812814224,0,0
22.74,1.3573071,-9.699201,0.50212795,1004.8971,5.648441083730142,1004.9054843809416,0,0
22.76,1.4003025,-9.689668,0.5305323000000001,1004.902,5.6485307343861795,1004.9053862159053,0,0
22.78,1.3142446,-9.708733,0.57313997,1004.9371,5.648673321593505,1004.9054136469023,0,0
22.8,1.385919,-9.675366,0.63941956,1004.92,5.64882264588952,1004.9054903958023,0,0
22.82,1.3189801,-9.703965,0.6488864000000001,1004.91504,5.649018230704372,1004.9055925897052,0,0
22.84,1.3476362,-9.637232,0.60154027,1004.8947,5.649118695128356,1004.905643674915,0,0
22.86,1.3476135,-9.618166,0.62521017,1004.9474,5.649098673436503,1004.9058391365767,0,0
22.88,1.3045723,-9.665831,0.62994254,1004.9022,5.649058673869377,1004.9059987456093,0,0
22.9,1.3332298,-9.675364,0.6062685,1004.91504,5.6490256816606745,1004.9061723246665,0,0
22.92,1.2997483,-9.661062,0.6204696999999999,1004.91724,5.648962084778034,1004.9063655427524,0,0
22.94,1.3475236000000002,-9.680128,0.66781163,1004.9022,5.648930766912428,1004.9065212742993,0,0
22.96,1.3331628,-9.684895,0.6204656,1004.9072,5.64892732198404,1004.9066613221063,0,0
22.98,1.371377,-9.66106,0.6441354,1004.8871,5.648913709676932,1004.9067146475894,0,0
23.0,1.3426766,-9.694427,0.6346646,1004.89233,5.648950144876263,1004.9067099812547,0,0
23.02,1.366553,-9.67536,0.56364644,1004.89246,5.648989331220888,1004.9066545581493,0,0
23.04,1.4095483999999998,-9.637227,0.6251916000000001,1004.9378,5.648972972896128,1004.9067177098834,0,0
23.06,1.3665073,-9.680125,0.5873143,1004.9071,5.648978096536433,1004.9067748870004,0,0
23.08,1.3760469,-9.72779,0.62992215,1004.88184,5.649108347666429,1004.9067356431076,0,0
23.1,1.4190423,-9.699191,0.54943514,1004.92,5.649292632455259,1004.9067487188887,0,0
23.12,1.3907284,-9.627701,0.62048465,1004.8895,5.649377597760576,1004.9066981772612,0,0
23.14,1.2999045,-9.661066,0.6394215999999999,1004.9124,5.649419552885764,1004.9066740452408,0,0
23.16,1.3333555,-9.665833,0.60154563,1004.8895,5.649437519456488,1004.9065908956247,0,0
23.18,1.3381277,-9.675366,0.6110137,1004.92474,5.6494563892588925,1004.9065827613997,0,0
23.2,1.3572402,-9.675366,0.6772948000000001,1004.9175,5.649490522001868,1004.9066148760572,0,0
23.22,1.299874,-9.651533,0.6346844,1004.9225,5.6494669091086935,1004.9067004390153,0,0
23.24,1.2568482,-9.6658325,0.59680843,1004.92456,5.649405086720729,1004.906840336864,0,0
23.26,1.333318,-9.642,0.65362066,1004.9,5.64928938399423,1004.9069393253908,0,0
23.28,1.3333104,-9.708732,0.5778694999999999,1004.92487,5.649253708554619,1004.9070913420816,0,0
23.3,1.323744,-9.680131,0.5826033,1004.90283,5.649227968888785,1004.9072103231979,0,0
23.32,1.3858734,-9.713497,0.50685203,1004.9225,5.6492887718529525,1004.9073704977487,0,0
23.34,1.381086,-9.689665,0.6204771,1004.91534,5.649389027753571,1004.90754071819,0,0
23.36,1.2998216,-9.665832,0.6062731,1004.9353,5.649449834976207,1004.9077910583867,0,0
23.38,1.3476131000000002,-9.637232,0.658351,1004.90283,5.649437277461328,1004.9079943991741,0,0
23.4,1.371504,-9.651532,0.59206855,1004.90497,5.649387402441522,1004.9081631832566,0,0
23.42,1.3475973999999995,-9.68013,0.55892706,1004.88245,5.649352528354488,1004.9082197534124,0,0
23.44,1.3380306,-9.637231,0.6110049,1004.92755,5.6492466271835315,1004.9083393276896,0,0
23.46,1.3428028,-9.603865,0.6536138000000001,1004.9124,5.649016925172278,1004.9084596019412,0,0
23.48,1.2997774,-9.723029,0.5873315,1004.9278,5.648902719868077,1004.9086355017032,0,0
23.5,1.3284482,-9.661063,0.5305179,1004.9225,5.6487648174720455,1004.9088408389267,0,0
23.52,1.3475608,-9.703962,0.5967989,1004.92487,5.64870801012573,1004.9090799798773,0,0
23.54,1.3332133,-9.723028,0.6252045999999999,1004.9096,5.648761846048648,1004.9092931568936,0,0
23.56,1.3332062,-9.65153,0.62046957,1004.8947,5.6487657045610895,1004.9094289847404,0,0
23.58,1.3092995,-9.627698,0.6914849000000001,1004.9128,5.648679622125412,1004.9095611378806,0,0
23.6,1.2758332,-9.694428,0.6346714,1004.9356,5.648634313318441,1004.9097716482988,0,0
23.62,1.2806059,-9.646762,0.67728037,1004.9153,5.648534438102118,1004.9099775573708,0,0
23.64,1.2662588,-9.732561,0.72462374,1004.92035,5.648566227476487,1004.9101968394203,0,0
23.66,1.2232336,-9.637229,0.7435607,1004.9124,5.648509850492347,1004.9103985284172,0,0
23.68,1.1849871,-9.670595,0.7009504,1004.9025,5.648428031509385,1004.9105483061123,0,0
23.7,1.1180626,-9.656296,0.7624969,1004.93036,5.648287777296453,1004.910751971782,0,0
23.72,1.0941556,-9.680127,0.7861682,1004.92566,5.648143722657223,1004.9109855996692,0,0
23.74,1.0989282,-9.66106,0.78143317,1004.9228,5.647957901950513,1004.9112345651114,0,0
23.76,1.0845813,-9.694427,0.8240421,1004.91315,5.647808470907415,1004.9114614465416,0,0
23.78,1.1132528999999998,-9.70396,0.7766974,1004.92816,5.647709998677183,1004.9117220337662,0,0
23.8,1.1180241000000002,-9.723026,0.71988374,1004.8929,5.647688279532102,1004.9118845293159,0,0
23.82,1.1275771,-9.699193,0.753024,1004.90784,5.647692837063628,1004.9120135500784,0,0
23.84,1.1275694,-9.64676,0.75302327,1004.9353,5.6476126694954445,1004.9122113840435,0,0
23.86,1.1894403,-9.670587,0.7482645,1004.92316,5.647521460743742,1004.9124256051527,0,0
23.88,1.132068,-9.684887,0.72459114,1004.91534,5.647432383609036,1004.9126253827465,0,0
23.9,1.1224948,-9.694419,0.73879313,1004.9432,5.647365049646454,1004.91291197485,0,0
23.92,1.1511553999999995,-9.684886,0.72458816,1004.90784,5.647302260324106,1004.9131469485236,0,0
23.94,1.1559242,-9.713485,0.74825925,1004.92566,5.647307437668571,1004.9133996182466,0,0
23.96,1.1654702,-9.6896515,0.74825794,1004.93787,5.647325958982376,1004.9137109705882,0,0
23.98,1.1797942,-9.694417,0.7293189,1004.9124,5.6473666049459945,1004.9139813620233,0,0
24.0,1.0841843,-9.756383,0.7387865,1004.91,5.647532785064228,1004.9142059469916,0,0
24.02,1.1415275,-9.73255,0.70091,1004.9228,5.6477679298855366,1004.9144353288608,0,0
24.04,1.1606321000000002,-9.70395,0.73878384,1004.90497,5.6480147260389995,1004.9146039354964,0,0
24.06,1.1892972,-9.680117,0.7529858,1004.9022,5.648231293957718,1004.914708262152,0,0
24.08,1.1749424,-9.675349,0.6677651,1004.89496,5.6483940821893714,1004.914729351441,0,0
24.1,1.1510296999999998,-9.68965,0.6724982,1004.95276,5.648532968340994,1004.9148848962717,0,0
24.12,1.1796904,-9.656283,0.68669975,1004.91254,5.648590709422496,1004.9150138940573,0,0
24.14,1.1653372,-9.656282,0.69616735,1004.92065,5.648574349081948,1004.9151481664819,0,0
24.16,1.155763,-9.646749,0.70090044,1004.9175,5.648471285435822,1004.9152752761977,0,0
24.18,1.1461888999999998,-9.689648,0.7198366999999999,1004.87744,5.648380803536953,1004.9152513833476,0,0
24.2,1.1844172,-9.718246,0.6772262,1004.90497,5.648363765720577,1004.9151932586453,0,0
24.22,1.1174826999999998,-9.718246,0.6346149,1004.90576,5.648389436389543,1004.9151079399272,0,0
24.24,1.0792333,-9.751611,0.6724891,1004.91534,5.648517855911647,1004.915033387724,0,0
24.26,1.0792142,-9.680113,0.72930026,1004.92816,5.648597723529801,1004.9150147692017,0,0
24.28,1.0314015,-9.713478,0.6914236999999999,1004.90784,5.648686720014768,1004.9149724887061,0,0
24.3,0.96447426,-9.713478,0.7719076,1004.91064,5.6487817851285165,1004.9149195327008,0,0
24.32,0.9548965,-9.703945,0.6819523000000001,1004.9181,5.648846361770851,1004.914884190457,0,0
24.34,0.97986287,-9.723037,0.7009876,1004.9103,5.6489310794420105,1004.9148364589647,0,0
24.36,0.97989017,-9.718271,0.7246621999999999,1004.9307,5.649027045220487,1004.9148513921657,0,0
24.38,0.97991925,-9.751637,0.75780565,1004.9382,5.649206618279622,1004.9149486421304,0,0
24.4,0.9608293,-9.7325735,0.7436050999999999,1004.9256,5.649413930324491,1004.9150729170874,0,0
24.42,0.9608565999999998,-9.6801405,0.69626355,1004.90784,5.649529613330338,1004.915156687938,0,0
24.44,0.9656655,-9.699208,0.7246727,1004.91315,5.649608531477492,1004.915223483785,0,0
24.46,0.9609131,-9.708741,0.7152063,1004.8901,5.649671921894113,1004.9151920600538,0,0
24.48,0.9944028,-9.689676,0.7672876000000001,1004.91583,5.649697219457481,1004.9151665906288,0,0
24.5,0.94185406,-9.68491,0.69153976,1004.9153,5.649656344563918,1004.9151445661183,0,0
24.52,0.9514411,-9.72781,0.7483550999999999,1004.92316,5.649656273422668,1004.9151539608227,0,0
24.54,1.0375066,-9.694445,0.7294202,1004.9133,5.649638668083209,1004.9151555877247,0,0
24.56,1.0088551,-9.6515465,0.6915475,1004.90326,5.649505218571561,1004.9151142011397,0,0
24.58,0.9467414,-9.770711,0.7530969,1004.91785,5.649512190997022,1004.915087480829,0,0
24.6,0.97545487,-9.66108,0.7578345000000001,1004.91583,5.649423751437495,1004.9150665438316,0,0
24.62,1.0137224,-9.703981,0.73416513,1004.9183,5.649344110030196,1004.9150596843426,0,0
24.64,1.0424268,-9.723047,0.7010265999999999,1004.89044,5.649313047226223,1004.9149649924346,0,0
24.66,1.0329,-9.761181,0.71049845,1004.92584,5.6494029535162165,1004.914920472692,0,0
24.68,0.9755679,-9.699217,0.6347503000000001,1004.92834,5.649448613345528,1004.9149294453456,0,0
24.7,1.018617,-9.727817,0.7247068,1004.9183,5.649536100752692,1004.9149495075792,0,0
24.72,1.0425452,-9.675385,0.69630307,1004.88824,5.649553102025218,1004.9148710803412,0,0
24.74,1.080811,-9.684918,0.7105088,1004.91064,5.649538180763223,1004.914786550145,0,0
24.76,1.0712806,-9.689687,0.71998024,1004.94086,5.649504191378679,1004.9148057236827,0,0
24.78,1.0808693,-9.689688,0.73892057,1004.8957,5.649458608688913,1004.9147538848157,0,0
24.8,1.0139794,-9.703987,0.7578606999999999,1004.9133,5.6494205325935605,1004.9147028460072,0,0
24.82,1.0522451000000002,-9.703988,0.70578474,1004.9156,5.6493895305550765,1004.9146609778703,0,0
24.84,1.1615543,-9.713506,0.6441802,1004.91296,5.6494013498716615,1004.9146178596643,0,0
24.86,1.2093548,-9.713506,0.6489148,1004.9035,5.649463621880144,1004.9145397361232,0,0
24.88,1.1806784,-9.708738,0.64891505,1004.89343,5.6495531717692495,1004.9143947111116,0,0
24.9,1.1663414,-9.68014,0.62997764,1004.9058,5.649601473820374,1004.9142356260512,0,0
24.92,1.1759036,-9.699206,0.620509,1004.91296,5.649653538270239,1004.9140904662386,0,0
24.94,1.2237042,-9.670607,0.6299781,1004.9156,5.649663317725313,1004.9139676373497,0,0
24.96,1.2284863,-9.656307,0.6394470999999999,1004.911,5.64960880386445,1004.9138484222486,0,0
24.98,1.1902505,-9.656307,0.6015720999999999,1004.90814,5.649482811539952,1004.9137225334654,0,0
25.0,1.2189318,-9.723039,0.5921035,1004.91064,5.649437638127309,1004.9136002010159,0,0
25.02,1.204595,-9.66584,0.6441821999999999,1004.90814,5.649349453299428,1004.91347245134,0,0
25.04,1.2380561,-9.713507,0.59683836,1004.9306,5.649324119345175,1004.9134212309017,0,0
25.06,1.1663616,-9.670608,0.5826354,1004.9183,5.649245998147711,1004.9133935360907,0,0
25.08,1.1711439,-9.703974,0.6015732,1004.90857,5.649193812120077,1004.913351700226,0,0
25.1,1.1185684,-9.699207,0.5921046,1004.89856,5.64914092613671,1004.9132614839352,0,0
25.12,1.1807083,-9.656308,0.58737046,1004.91846,5.649013846122043,1004.9132004834784,0,0
25.14,1.1137936000000002,-9.675374,0.6299803,1004.9212,5.6488501072928425,1004.9131753817343,0,0
25.16,1.1137962,-9.656308,0.65365255,1004.9211,5.648618523284558,1004.913181730459,0,0
25.18,1.1185784,-9.661074,0.67732483,1004.8908,5.6483421406108425,1004.9131067659624,0,0
25.2,1.1568195,-9.72304,0.57316816,1004.9088,5.648150225998317,1004.9130250229756,0,0
25.22,1.1616015,-9.675374,0.6347156,1004.9135,5.647944525744284,1004.9129545047902,0,0
25.24,1.0851271999999998,-9.665841,0.64891917,1004.9237,5.647691387398617,1004.9129308787041,0,0
25.26,1.0946892,-9.6801405,0.6867945,1004.9108,5.64743431724338,1004.9129023315312,0,0
25.28,1.1568291000000002,-9.69444,0.68679476,1004.8983,5.647219019532528,1004.9128245388553,0,0
25.3,1.0803548,-9.675374,0.6631229999999999,1004.9335,5.646980543584133,1004.9128302329073,0,0
25.32,1.1185958,-9.718273,0.7009985,1004.93097,5.64682524772471,1004.912900567333,0,0
25.34,1.1658639,-9.703961,0.65360594,1004.9165,5.646719178659454,1004.9129756727893,0,0
25.36,1.1419483,-9.708727,0.696214,1004.92346,5.646667047646804,1004.9130797795483,0,0
25.38,1.0989098999999998,-9.680127,0.6725401,1004.91846,5.646590170668563,1004.9131911370745,0,0
25.4,1.098892,-9.732559,0.6914760999999999,1004.9237,5.646602465038872,1004.9133273644908,0,0
25.42,1.098873,-9.699193,0.7009432,1004.91846,5.646626163506433,1004.9134662125238,0,0
25.44,1.0606156999999998,-9.708725,0.7388167,1004.91846,5.646676508888838,1004.9136068762808,0,0
25.46,1.0749371,-9.656293,0.6962054,1004.9211,5.6466389381021145,1004.9137581420216,0,0
25.48,1.003221,-9.732557,0.7056725,1004.9038,5.646666588172126,1004.9138559511188,0,0
25.5,1.0366629,-9.72779,0.72934306,1004.92413,5.646752765549401,1004.9139793618134,0,0
25.52,1.0748799999999998,-9.71349,0.70093465,1004.90607,5.646865124950888,1004.9140599338003,0,0
25.54,1.0366236999999998,-9.708723,0.71513623,1004.9111,5.646983952685712,1004.9141204714467,0,0
25.56,1.0557239,-9.689656,0.7293377,1004.9141,5.647075199173182,1004.9141738888136,0,0
25.58,1.0126867,-9.694422,0.67725754,1004.8938,5.647134314109024,1004.9141477423993,0,0
25.6,1.027007,-9.703956,0.75300616,1004.8911,5.6471990970188655,1004.9140416675548,0,0
25.62,1.0461098,-9.742086,0.71039504,1004.9366,5.6473448284760925,1004.914029149819,0,0
25.64,1.0891076000000002,-9.708721,0.7387996,1004.9063,5.647506901937042,1004.9139902642083,0,0
25.66,1.108209,-9.69442,0.6867194999999999,1004.8916,5.647649949342688,1004.9138752999318,0,0
25.68,1.0938506,-9.7325535,0.71038985,1004.87354,5.647854378608477,1004.9136285104172,0,0
25.7,1.0316942,-9.675353,0.7956073,1004.89874,5.64799407723367,1004.9133568485643,0,0
25.72,0.95041853,-9.684887,0.80034006,1004.9165,5.648079380466678,1004.9131281234967,0,0
25.74,1.0698956,-9.708718,0.71985346,1004.88605,5.64817807661412,1004.912828540782,0,0
25.76,1.0889971,-9.684886,0.77193034,1004.8964,5.648251795482079,1004.9125046867488,0,0
25.78,1.1080961,-9.703951,0.74825644,1004.92645,5.6483430682718705,1004.9122687324527,0,0
25.8,1.0793995,-9.661051,0.68670756,1004.91144,5.648345089352157,1004.9120572597997,0,0
25.82,1.0889388,-9.718249,0.69144005,1004.9169,5.6483889855786025,1004.9118878364284,0,0
25.84,1.0745827,-9.718249,0.719845,1004.9016,5.648470681633463,1004.911701097726,0,0
25.86,1.0657812,-9.699202,0.72938323,1004.88916,5.648545709097438,1004.9114549474573,0,0
25.88,1.1183705,-9.737334,0.66310257,1004.91144,5.648695526840272,1004.9112373952684,0,0
25.9,1.1327206,-9.699203,0.64890045,1004.8869,5.6488337876988854,1004.9109575515316,0,0
25.92,1.1805301,-9.684902,0.68677664,1004.90686,5.648949014756104,1004.9106955304204,0,0
25.94,1.1996607,-9.703969,0.6441680999999999,1004.91187,5.6490815316868295,1004.9104682366568,0,0
25.96,1.147095,-9.694436,0.70098203,1004.8971,5.64920424420679,1004.9102192742354,0,0
25.98,1.1901232,-9.680137,0.69151413,1004.90894,5.6492977037711025,1004.9099946856526,0,0
26.0,1.2044748,-9.651538,0.6441711999999999,1004.907,5.649303053182722,1004.9097854583124,0,0
26.02,1.1327891,-9.6896715,0.65837544,1004.90436,5.649293174100008,1004.9095810533847,0,0
26.04,1.1758181,-9.713504,0.67731404,1004.9169,5.649332174280072,1004.9094267893984,0,0
