Timestamp,Ax,Ay,Az,P,LPFRMSAcc,LPFPValue,Value,Type
0.0,-0.47728097,5.311018,8.165894999999999,1003.8886,0.020270754747606902,3.61399896,0,0
0.02,-2.7763717,1.1545806,9.226401,1003.9135,0.058278420832206974,10.408406644799998,0,0
0.04,-2.3605335,2.003028,8.696147999999999,1003.9713,0.1108380003557731,19.988771691168,0,0
0.06,-0.19528742,3.175601,6.7834473,1003.98865,0.17245352178629106,31.996381808050558,0,0
0.08,1.9412794999999998,0.9925181000000001,10.267969,1003.9960000000001,0.2480935544590411,46.10550473281901,0,0
0.1,1.2577631,0.64455944,8.563582,1004.02356,0.3320757898315588,62.02083074810625,0,0
0.12,2.3427734,1.6884357,8.715083,1004.00854,0.4241695189446413,79.47476856852089,0,0
0.14,2.3810065,0.13453825,8.5730505,1004.0233,0.5225118510603345,98.22544273979256,0,0
0.16,3.246146,0.13453837,8.776629,1004.0387,0.6269777319064781,118.05446616366496,0,0
0.18,1.4773698,-1.4670186,6.3431225,1004.0561,0.730902624260458,138.76499714280942,0,0
0.2,6.7829413,1.0687897,10.343695,1004.0356400000001,0.8459043736213893,160.17979663026736,0,0
0.22,3.7716537000000003,-1.9913392,11.574637,1004.0737,0.9701133895654984,182.13993150951626,0,0
0.24,3.628249,-3.2068112,6.3525887,1004.0285,1.0929741724209276,204.50270553538627,0,0
0.26,5.0287204,-3.192511,3.2089431,1004.0211,1.2116619227012733,227.1407188847176,0,0
0.28,7.050566000000001,-4.1601224000000006,5.623489,1004.0105,1.332815302594794,249.94039869220185,0,0
0.30000000000000004,7.695828999999999,-6.5481668,7.9859550000000015,1004.06604,1.4618376891668483,272.801048078803,0,0
0.32,9.841951,-4.5843453,5.6187515,1004.05585,1.5959884366101027,295.63323516372003,0,0
0.34,10.515892,-5.366060299999999,9.250039,1004.0809300000001,1.7399513613778483,318.35816737336336,0,0
0.36000000000000004,10.03312,-5.537656,6.6224437000000025,1004.07825,1.8884032304392664,340.90650977126006,0,0
0.38,10.100026,-4.8608046,5.244731,1004.0433300000001,2.0384983847884808,363.2175176668649,0,0
0.4,8.436644,-6.276472,4.3735995,1004.0258,2.1874545588927408,385.23843405982086,0,0
0.42,9.421271,-5.370826,2.3756795,1004.0356400000001,2.3342720567505832,406.92378572602126,0,0
0.44,9.359124000000001,-5.1849300000000005,1.7081273999999995,1004.0609,2.4781164721293942,428.2346560696623,0,0
0.46,9.411692,-5.714017,1.2914987,1004.0484,2.619337856835229,449.1378705834527,0,0
0.48,10.009155,-4.026656,0.7991196999999999,1004.0405,2.7571768818830646,469.60560039373746,0,0
0.5,9.273055000000001,-5.018099299999999,0.16470854,1004.0861,2.890963074501712,489.6150162526876,0,0
0.52,8.742486,-5.4280233,0.67602324,1004.0758,3.020203603908205,509.1473949271463,0,0
0.54,8.245375,-5.375591,0.5813341,1004.08606,3.1440215898515533,528.1879839181603,0,0
0.56,8.197566,-5.370824,0.036876626,1004.03815,3.262478365363332,546.7253089485149,0,0
0.5800000000000001,8.121078500000001,-5.518586599999999,0.47717524,1004.0682400000001,3.37583370395585,564.7513238971217,0,0
0.6,8.06371,-5.3946559999999995,0.54345596,1004.0809300000001,3.484037990672812,582.2606972876807,0,0
0.62,7.9489837,-5.694948999999999,0.30200028,1004.0455300000001,3.5874386534910654,599.2504050133433,0,0
0.64,7.8677154000000025,-5.809346,0.12682629,1004.0707,3.686217868604393,615.7198638216905,0,0
0.66,7.8199070000000015,-6.004775,0.26885748,1004.07825,3.780728847224133,631.6703678149881,0,0
0.68,7.710858,-5.976197,-0.01039125,1004.0758,3.8709048259079855,647.1048926993319,0,0
0.7000000000000001,7.720442,-5.8761,-0.20449965,1004.0830000000001,3.9568193031269594,662.0279600734204,0,0
0.72,7.7443633,-5.7569365999999995,-0.22816958,1004.0809300000001,4.038550999618089,676.4453730969008,0,0
0.74,7.620111,-5.671139,-0.4270125,1004.0981,4.115993244525962,690.3641490612991,0,0
0.76,7.7922080000000005,-5.633007,-0.40807268,1004.0732,4.189606142331741,703.7921320868209,0,0
0.78,7.89739,-5.7712383,0.07483894,1004.0881,4.259898788427373,716.7381633726593,0,0
0.8,7.825715,-5.876103,0.05116897,1004.08606,4.327014321064457,729.2117290446845,0,0
0.8200000000000001,8.074288000000001,-5.59011,0.27368808,1004.0909,4.391159935985654,741.2229366879253,0,0
0.84,8.083871,-5.6091766,-0.052983645,1004.068,4.452481723919283,752.7822819894162,0,0
0.86,8.126914,-5.542445,0.13166033,1004.0655,4.511084252742567,763.9007390826516,0,0
0.88,8.241652,-5.3994493,0.28789777,1004.0857,4.567113072478402,774.5896736295371,0,0
0.9,8.251235000000001,-5.389917,0.25002474,1004.0856,4.620669731027566,784.8606015300984,0,0
0.92,8.375535000000001,-5.3327184,0.25476134,1004.1034,4.672002068884336,794.7252674975261,0,0
0.94,8.275183,-5.4137505999999975,0.3021076,1004.09827,4.721103082627933,804.1954291553543,0,0
0.96,8.284766000000001,-5.4995494,0.21689051,1004.0930000000001,4.768165820981285,813.2828952512517,0,0
0.98,8.318247999999999,-5.318421,-0.25181347,1004.0758,4.813112664725104,821.9994347506823,0,0
1.0,8.165318,-5.5758157,0.5198967000000001,1004.0609,4.8560796084033875,830.3567903272769,0,0
1.02,8.064964999999999,-5.547217,0.30685055,1004.05786,4.896918380320493,838.3666735655777,0,0
1.04,8.122347999999999,-5.4995519999999996,0.15535195,1004.0655,4.935764912960074,846.0407221701039,0,0
1.06,8.007657,-5.537685,0.018056378,1004.0802,4.972556761400088,853.3904536372511,0,0
1.08,8.098496,-5.4185214,-0.010347959,1004.09326,5.007417420170697,860.4272064645282,0,0
1.1,8.012483,-5.5519857,0.117483184,1004.0755,5.040456003089222,867.1620151194377,0,0
1.12,8.146342,-5.5615190000000005,0.26898629999999996,1004.0881,5.072012275165928,873.6058259524859,0,0
1.14,8.208503,-5.5901194000000025,0.21690996,1004.1005,5.1022827107433555,879.7693580311385,0,0
1.16,8.2133045,-5.59012,0.32106890000000005,1004.0605,5.131322114852676,885.6629030869236,0,0
1.18,8.207324,-5.5948567,0.39197513,1004.0629,5.159169795510029,891.2966794871027,0,0
1.2,8.130828,-5.447093499999999,0.18365951,1004.0629,5.185548030256592,896.6806427081469,0,0
1.22,8.130801,-5.5853230000000025,0.022687267999999997,1004.0757,5.210690623865951,901.8245348165127,0,0
1.24,8.245493,-5.499524,-0.043596465,1004.068,5.234748483356184,906.737754358125,0,0
1.26,8.245467,-5.580555,0.11737095,1004.0857,5.257856383863059,911.4295277494044,0,0
1.28,8.125950999999999,-5.6329864999999995,0.12210330000000001,1004.08344,5.279898482312755,915.9087328020413,0,0
1.3,8.221523,-5.5376544,0.0984292,1004.0832,5.300971152838906,920.1839864684634,0,0
1.32,8.087663000000001,-5.5710196,0.14577089,1004.0856,5.320921701189239,924.2636464168277,0,0
1.34,8.130659,-5.5805526,0.2120505,1004.0505400000001,5.339896273905547,928.155666764102,0,0
1.36,8.135416000000001,-5.509053700000001,0.32093972,1004.0783,5.357870778081512,931.8679774226027,0,0
1.38,8.19275,-5.4709205999999995,0.24518707,1004.07855,5.374947021758298,935.4081331817323,0,0
1.4,8.178386,-5.466153,0.0889495,1004.06573,5.391132253680562,938.7833821590452,0,0
1.42,8.192701,-5.528118,0.30199552,1004.0859,5.406577175502397,942.0008412196263,0,0
1.44,8.125755,-5.5900826,0.36354017,1004.081,5.4212742168795085,945.0672766171652,0,0
1.46,8.240453,-5.518584,0.18836553,1004.0757,5.435361107128808,947.9892092586085,0,0
1.48,8.316904,-5.404186,0.008455798,1004.0812400000001,5.448856151100508,950.7729602512574,0,0
1.5,8.283424,-5.3994184,0.07473554,1004.068,5.46171650878938,953.4245447714568,0,0
1.52,8.159123,-5.5662475,0.17889008,1004.0885599999999,5.473949990494743,955.9498753083279,0,0
1.54,8.254697,-5.43755,0.06052776400000001,1004.0632,5.4855985894728265,958.3544653395974,0,0
1.56,8.202095,-5.4423165000000004,0.05579129,1004.0705,5.496602656314603,960.6437388160043,0,0
1.58,8.192513,-5.5376463,0.112602085,1004.0555400000001,5.507092312189275,962.82282334402,0,0
1.6,8.230727,-5.5424123,0.15047511,1004.0934,5.517162093554465,964.896836508936,0,0
1.62,8.130326,-5.6139107,0.041581467000000004,1004.06573,5.526733744160956,966.8704425580237,0,0
1.64,8.144642999999999,-5.61391,0.0037041605,1004.0732,5.535855101242396,968.7482507897888,0,0
1.66,8.049023,-5.58531,0.1504685,1004.0861,5.544350870203682,970.5346984005333,0,0
1.68,8.126603,-5.5662709999999995,0.07955341,1004.0809300000001,5.552371845718701,972.233969943145,0,0
1.7,8.164860000000001,-5.5758047,0.089023955,1004.08606,5.560021403468609,973.8501138024014,0,0
1.72,8.097961999999999,-5.5948709999999995,0.22158903,1004.09827,5.567227414386844,975.3870318787517,0,0
1.74,8.035845,-5.609171,0.13163719,1004.0737,5.573923127881041,976.8483246962512,0,0
1.76,8.112349,-5.5519733,0.01801391,1004.07855,5.5802052467534935,978.2375518408876,0,0
1.78,8.0454445,-5.580572599999999,0.07009354,1004.09106,5.586019000451636,979.5581455752608,0,0
1.8,8.021566,-5.6949705999999995,0.19319004,1004.08105,5.591497357586579,980.813304654882,0,0
1.82,8.117182000000001,-5.5519742999999995,0.09850368,1004.0888,5.596649835840067,982.006155000878,0,0
1.84,8.150661,-5.571041,0.17899054,1004.07825,5.60157797438204,983.1396171085968,0,0
1.86,8.193699,-5.5758085,0.14585145,1004.0632,5.606368488634745,984.2164691253861,0,0
1.88,8.088569,-5.561509,0.1789946,1004.0736699999999,5.61082418118517,985.2394614905696,0,0
1.9,8.016891000000001,-5.675907,0.1316523,1004.0734,5.614980304859835,986.2111797230797,0,0
1.92,8.083829,-5.6091757000000015,0.0795757,1004.0762300000001,5.6188899245208,987.1341041343228,0,0
1.94,8.208121,-5.5424440000000015,0.11745268,1004.0585,5.622703271012502,988.0105279692134,0,0
1.96,8.126882,-5.642542400000001,0.20267345,1004.081,5.626398911271886,988.8427897690336,0,0
1.98,8.212938000000001,-5.6377764,-0.062451463,1004.0584,5.630114901153591,989.6329524921864,0,0
2.0,8.174723,-5.5424457,0.07958289,1004.0861,5.633658474802978,990.383171605392,0,0
2.02,8.098267,-5.66161,0.21214807,1004.03815,5.637050579568903,991.0952231360412,0,0
2.04,8.074385000000001,-5.709276,0.18847759,1004.0609,5.6403120110418925,991.7710683052333,0,0
2.06,8.150881,-5.571046400000001,0.17901051,1004.071,5.643412421346893,992.4125248508324,0,0
2.08,8.2656145,-5.5186150000000005,-0.029301558,1004.09125,5.646492712345355,993.0213592650607,0,0
2.1,8.131806,-5.637779,0.1884835,1004.0561,5.649457164373653,993.5990504201186,0,0
2.12,8.26566,-5.4947834,0.10800037,1004.0862400000001,5.652369308615405,994.1472522072154,0,0
2.14,8.3134775,-5.480484,0.018048396,1004.06854,5.655290029951724,994.6673599423482,0,0
2.16,8.222464,-5.537678,0.17426573,1004.1013,5.658119459325872,995.160889321319,0,0
2.18,8.0982,-5.628243,0.13165712,1004.08606,5.66074980767498,995.6291024950208,0,0
2.2,8.059973,-5.590110299999999,0.21214299999999997,1004.0939300000001,5.663087253449267,996.0732890343221,0,0
2.22,8.17948,-5.490012999999999,0.07011189,1004.0758,5.665241148108361,996.4945812999247,0,0
2.24,8.198609,-5.5281453,0.16006656,1004.0712,5.667304505192772,996.8941109731314,0,0
2.26,8.203401,-5.5853449999999984,0.16480201,1004.0734,5.669355519606931,997.2729808328737,0,0
2.28,8.117374,-5.6091776,0.01803644,1004.0757,5.671266002951922,997.6322400299437,0,0
2.3,8.217763,-5.5090804,-0.16186982,1004.0757,5.673103580731603,997.9728779123668,0,0
2.32,8.184315,-5.432816000000001,-0.20921291,1004.07825,5.674726202475702,998.2958448847912,0,0
2.34,8.236903,-5.2469206,-0.14766456,1004.08344,5.676031718553813,998.6020538440404,0,0
2.36,7.931007000000001,-5.5090814,0.10325986,1004.0584,5.676823671715777,998.8922629265944,0,0
2.38,7.677689599999999,-5.804608,0.40626287,1004.06573,5.677109850759775,999.1673161534034,0,0
2.4,7.715938,-5.7474099999999995,0.42520148,1004.081,5.676942031413505,999.4280424464594,0,0
2.42,8.007517,-5.466183,0.22635745,1004.06067,5.6765136178380375,999.6750976581964,0,0
2.44,8.313437,-5.4471169999999995,0.39679715,1004.0505400000001,5.676373964904264,999.9091472357179,0,0
2.46,8.351686500000001,-5.4375844,0.29264120000000005,1004.0756,5.676538161760657,1000.1309526723672,0,0
2.48,8.356477,-5.48525,0.07959402,1004.0709,5.677024523825143,1000.3411237665699,0,0
2.5,8.456864999999999,-5.3088875,-0.0008898005,1004.0679,5.6777706913444765,1000.5402473398481,0,0
2.52,8.485555999999999,-5.337487,0.060658492,1004.0755,5.678826237055758,1000.7289198387731,0,0
2.54,8.318272,-5.3851533,-0.019825436000000002,1004.0705,5.6799112037398025,1000.9076605474036,0,0
2.56,8.275265,-5.451885,0.13167652,1004.0856,5.681021037949733,1001.0770364195787,0,0
2.58,8.112763000000001,-5.547217,0.20742804,1004.06995,5.681981564930445,1001.2374714291224,0,0
2.6,8.012399,-5.699746599999999,0.16955392,1004.05804,5.682815461092741,1001.38938585041,0,0
2.62,8.031528999999999,-5.633015599999999,0.15535162,1004.0755,5.683486438299335,1001.5332874439985,0,0
2.64,8.170155000000001,-5.5615172,0.16955596,1004.09827,5.684164079123383,1001.6696728292948,0,0
2.66,8.141487,-5.518618599999999,0.046462394000000004,1004.0752,5.68474298374655,1001.7988428535573,0,0
2.68,7.9450727,-5.6663713,0.24053262,1004.0702,5.68507863649241,1001.9211543727223,0,0
2.7,7.9785255999999976,-5.532907499999999,0.26893845,1004.0880000000001,5.6850970163302605,1002.0370294753152,0,0
2.72,8.107574000000001,-5.437576,0.09376493,1004.0755,5.684938135477372,1002.1467552098552,0,0
2.74,8.2175045,-5.4471087,0.3068126,1004.06995,5.68483327911979,1002.250632370139,0,0
2.76,8.241396,-5.399443,0.3115464000000001,1004.0727,5.684763799315957,1002.3489776724333,0,0
2.78,8.360886,-5.3994427000000025,0.31628028,1004.1005,5.684934223606612,1002.44218106192,0,0
2.8,8.260503,-5.4280424000000025,0.35888934,1004.0726,5.685176734346049,1002.5304050850473,0,0
2.82,8.308294,-5.4566417000000005,0.33995113,1004.0598,5.685596266327878,1002.6138656535763,0,0
2.84,8.250932,-5.4185085,0.15530881,1004.085,5.6860180007445535,1002.692907495576,0,0
2.86,8.231806,-5.447108,0.23579305,1004.0880000000001,5.686443002893598,1002.7677712001827,0,0
2.88,8.231799,-5.48524,0.3399494,1004.0829,5.686919477769567,1002.8386552332524,0,0
2.9,8.227014,-5.504306,0.2641984000000001,1004.08246,5.687448642073152,1002.9057660620332,0,0
2.92,8.112292,-5.561505,0.2736666,1004.0726,5.687892281488186,1002.9692657925204,0,0
2.94,8.069267,-5.585337,0.28313485,1004.0773300000001,5.688213786109445,1003.029363185526,0,0
2.96,8.131397999999999,-5.599637,0.26893106,1004.0799599999999,5.688548495470778,1003.0862473905175,0,0
2.98,8.083594,-5.618703,0.29733694,1004.0573,5.6888362241033805,1003.1400060634427,0,0
3.0,8.1122675,-5.594869999999999,0.28313312,1004.0545699999999,5.6891013264656864,1003.1907996570103,0,0
3.02,8.12182,-5.5662704000000005,0.22631966,1004.0799599999999,5.689325119336732,1003.238881853522,0,0
3.04,8.131373,-5.5043050000000004,0.20738153,1004.0673,5.689454658114991,1003.2843495876867,0,0
3.06,8.179165,-5.4614058,0.24525616,1004.0798300000001,5.689534938569626,1003.3273886070793,0,0
3.08,8.1696,-5.571036299999999,0.42989740000000004,1004.0773300000001,5.689695443126923,1003.3681176736287,0,0
3.1,8.188711999999999,-5.547204,0.5009129,1004.082,5.689938197870044,1003.4066758532069,0,0
3.12,8.212606,-5.4518723,0.38255218,1004.0998,5.690172717849013,1003.4432411076108,0,0
3.14,8.241278,-5.518604,0.34941086,1004.077,5.690523008086651,1003.4778316984143,0,0
3.16,8.0978775,-5.5567364999999995,0.29733175,1004.06195,5.69076865477991,1003.5104987703343,0,0
3.18,8.112211,-5.528137,0.27365923,1004.0645,5.690910565944662,1003.5413577995092,0,0
3.2,8.203021000000001,-5.5376697,0.27839303,1004.102,5.691127841845572,1003.5706431496104,0,0
3.22,8.164777,-5.594868,0.33520532,1004.06195,5.6914157189448735,1003.598288389621,0,0
3.24,8.131310000000001,-5.6425339999999995,0.25945428,1004.0895,5.691759193153982,1003.6244840854916,0,0
3.26,7.930553,-5.761698,0.33046976,1004.05695,5.691958236101438,1003.6491874796553,0,0
3.28,7.9831243,-5.6854324,0.29732835,1004.0616,5.692022878743768,1003.6725000838117,0,0
3.3,8.026137,-5.604401,0.027466737,1004.1095,5.69193523818883,1003.6946723005423,0,0
3.32,7.834938,-5.7378645,0.12215422,1004.1142,5.691552986329294,1003.7157739709636,0,0
3.34,8.016564,-5.804596,0.20263849,1004.0691,5.691301319703365,1003.7356913806523,0,0
3.36,8.226871000000001,-5.6520660000000005,0.22630999999999998,1004.112,5.691341431016937,1003.7546451148828,0,0
3.38,8.169506,-5.7044983,0.2121062,1004.0666,5.691602607952148,1003.7725156720356,0,0
3.4,8.059565,-5.8427277,0.04640146,1004.0412,5.6920340861951395,1003.7892733599164,0,0
3.42,8.327228,-5.933292400000001,0.42041892,1004.0713,5.693193837771583,1003.805095748832,0,0
3.44,8.202612,-5.795054,0.34463724,1004.0738,5.694609743939964,1003.8200437469819,0,0
3.46,7.997064999999999,-5.766454,0.24994783,1004.08374,5.695858918183205,1003.8342011046584,0,0
3.48,7.954032400000001,-5.518593,0.017960603999999998,1004.0866,5.696579183704443,1003.8476191819244,0,0
3.5,8.073514,-5.5710244000000015,0.21206991,1004.0962,5.697100467816748,1003.8603702859416,0,0
3.52,7.8823056,-5.5567245000000005,0.35883507,1004.0788,5.697110189366279,1003.8724235084219,0,0
3.54,7.8058143,-5.7616863,0.47719383,1004.0759,5.696798676769718,1003.8838062511752,0,0
3.56,7.906175,-5.828418,0.26414433,1004.0838,5.696437647970559,1003.8945840201677,0,0
3.58,8.307664,-5.6139225999999995,0.510332,1004.0534,5.6964784129837644,1003.9046789943767,0,0
3.6,8.264631,-5.4232593,0.10790621,1004.0737,5.696554199177755,1003.9142073892084,0,0
3.62,7.968267999999999,-5.5185900000000006,0.03688876,1004.0737,5.6962595808127645,1003.9232008522804,0,0
3.64,8.097308,-5.8570150000000005,0.10790343599999999,1004.0805,5.6962651338051655,1003.9317137531824,0,0
3.66,8.016036999999999,-5.5948544,0.14104298,1004.08875,5.696083473064669,1003.9398010829083,0,0
3.68,7.9921229999999985,-5.8570147000000015,0.27360493,1004.0884,5.696019366882713,1003.9474820035553,0,0
3.7,7.8056965,-5.8522476999999995,0.24993163,1004.0634,5.695740975652575,1003.9546861698262,0,0
3.72,7.796120599999999,-5.918979599999999,0.46297836,1004.0683,5.695357984064676,1003.961460780932,0,0
3.74,7.671832000000001,-6.047676,0.23572573,1004.0506,5.6948264700186755,1003.9677677284936,0,0
3.76,7.8343300000000005,-5.8951459999999996,0.15050498,1004.0808,5.694236253083402,1003.9737474635364,0,0
3.78,7.829536,-5.9380445,0.12683167,1004.0631,5.693641386148826,1003.9793528265517,0,0
3.8,7.7052460000000025,-6.1144066,0.1410335,1004.0829,5.693065540850007,1003.984678495136,0,0
3.82,7.533158,-6.052441,-0.11462574,1004.0704300000001,5.692148015945787,1003.989692961315,0,0
3.84,7.676537,-5.847479,0.0226706,1004.0729,5.690902732811058,1003.99442328897,0,0
3.86,7.901173,-5.9094434,0.14102937,1004.0752,5.689824616023175,1003.9988938026454,0,0
3.88,8.187947,-5.714014,0.18363771,1004.0779,5.689144754772411,1004.0031283708397,0,0
3.9,8.178372999999999,-5.8760769999999996,0.38248143,1004.06964,5.68900924742211,1004.007109477161,0,0
3.92,7.8915687000000005,-5.9428085999999976,0.4203552,1004.0679,5.688960690131236,1004.0108460285887,0,0
3.94,7.9398339999999985,-5.871321,0.5292893,1004.0676,5.688991553096452,1004.0143519597274,0,0
3.96,7.8968196,-5.9761863,0.7423378,1004.0704300000001,5.689179740621607,1004.0176516814264,0,0
3.98,7.772548,-5.9428205,0.5245555000000001,1004.0497,5.689230157956081,1004.0206826894665,0,0
4.0,7.906387,-5.885622,0.47247747,1004.0627,5.689303447974948,1004.0235121504887,0,0
4.02,8.298335,-5.899921400000001,0.45827457,1004.07495,5.690070856619251,1004.0261974385063,0,0
4.039999999999999,8.221862,-5.8236566,0.42986852,1004.0902,5.691225092217675,1004.0288005682197,0,0
4.06,7.9446369999999975,-5.8760886,0.5434945999999999,1004.0897,5.692326090029242,1004.0313199315892,0,0
4.079999999999999,7.676971400000001,-5.9809527000000005,0.638183,1004.0977,5.6930771433206475,1004.0337850093083,0,0
4.1,7.829928999999999,-5.9475875,0.6665898,1004.062,5.693729446081607,1004.036064725948,0,0
4.119999999999999,7.758235000000001,-5.890389,0.8464975,1004.062,5.6941309661853925,1004.038172450557,0,0
4.14,7.7821383,-5.771225,0.7186689,1004.08215,5.694179551341122,1004.0401931551996,0,0
4.159999999999998,7.772582000000001,-5.857023000000001,0.94592065,1004.0695,5.694046969577588,1004.042084154463,0,0
4.18,7.7152286,-5.8474900000000005,1.1258284,1004.0745,5.693688024106784,1004.0438717384562,0,0
4.199999999999998,7.667434,-5.8474900000000005,1.23472,1004.097,5.6930793043973535,1004.045642509414,0,0
4.22,7.782153,-5.852257,1.0500785,1004.0668,5.6924018507938525,1004.0472833295984,0,0
4.239999999999998,8.183661,-5.5233645,0.9127813,1004.0695,5.6919191553297885,1004.048813138327,0,0
4.26,8.241023,-5.5710296999999995,1.1542362,1004.0893599999999,5.691815745466763,1004.0503108460216,0,0
4.279999999999999,8.068953500000001,-5.733093,1.0974237,1004.0567599999999,5.6919331267421365,1004.0516574374948,0,0
4.3,7.853864999999999,-5.8141245999999995,1.0690175,1004.0513,5.691977277292099,1004.0528459989453,0,0
4.319999999999999,8.011602,-5.6186957,0.9317201999999999,1004.0593,5.691955882631439,1004.0539194462468,0,0
4.34,8.092863000000001,-5.747393,1.0832214,1004.05896,5.692199380465326,1004.054886090276,0,0
4.359999999999999,7.925575,-5.790292,0.9648618,1004.0437,5.692421888893072,1004.0556999470152,0,0
4.38,7.686588,-5.957121400000001,1.0879566999999999,1004.0743,5.6924644064833245,1004.0564860310208,0,0
4.4,7.834766,-5.7187943,0.9885345,1004.0643,5.69227440319371,1004.0572087451364,0,0
4.42,8.069733,-5.547217,0.9696661,1004.05145,5.692067108807911,1004.0578266038465,0,0
4.44,8.213161999999999,-5.4900184,1.0785607,1004.0489,5.692047805842821,1004.0583404080287,0,0
4.46,8.050678999999999,-5.623483,1.121173,1004.04895,5.692082945403342,1004.0587605999356,0,0
4.48,7.8595232999999975,-5.6997485,1.0028163,1004.0537,5.691909050322519,1004.0591136633444,0,0
4.5,7.878675,-5.575819,0.98388165,1004.0637,5.691430019767887,1004.0594421409843,0,0
4.52,7.9551835,-5.5472207000000004,0.91760296,1004.0559,5.690765117181648,1004.0597196321196,0,0
4.539999999999999,7.8548436000000015,-5.6759185999999975,0.96495026,1004.0513,5.689932733092665,1004.0599345126109,0,0
4.56,7.8692174,-5.64732,1.0738447,1004.0889,5.688968607821889,1004.060228656768,0,0
4.579999999999999,8.070002,-5.6044220000000005,1.0407068000000002,1004.0809300000001,5.68817194533189,1004.0605630873804,0,0
4.6,8.18475,-5.694987,0.91761523,1004.0712,5.687802729253622,1004.0608968831552,0,0
4.619999999999999,8.093969,-5.7331204000000024,1.0454475,1004.076,5.687730270463197,1004.0612461963224,0,0
4.64,8.151361,-5.6806893,0.8702777,1004.04565,5.68792011389755,1004.0614987031302,0,0
4.659999999999998,8.117934,-5.571058799999999,0.68090445,1004.0687,5.688124101598652,1004.0617477428142,0,0
4.68,8.022373,-5.5710597,0.78979886,1004.0505400000001,5.688193784254963,1004.0619274464048,0,0
4.699999999999998,8.223158999999999,-5.5043287,0.6193634,1004.05035,5.688385208036964,1004.0620445536904,0,0
4.72,8.146711999999999,-5.4518976,0.6146318000000001,1004.0476,5.688490615691996,1004.0620960292947,0,0
4.739999999999998,8.0989485,-5.4709650000000005,0.955512,1004.068,5.688516206493897,1004.0621627674333,0,0
4.76,8.075086,-5.518631,1.0644065,1004.0809300000001,5.688509011913808,1004.0622892992895,0,0
4.779999999999999,7.946065400000001,-5.6949944000000015,1.1685667,1004.0653699999999,5.688487994766106,1004.0624121933604,0,0
4.8,8.084709,-5.637796400000001,1.1685694,1004.0679,5.688620345955646,1004.0625405386653,0,0
4.819999999999999,7.9556910000000025,-5.6473303,1.0312748999999999,1004.06036,5.688649314855218,1004.0626460946376,0,0
4.84,8.032202999999999,-5.5472339999999996,0.865574,1004.078,5.688564406312122,1004.062794637954,0,0
4.859999999999999,8.113489,-5.5234017,0.8087639,1004.0599,5.688480041747806,1004.0629154701317,0,0
4.88,8.223461,-5.5901346,0.7377511999999999,1004.0627,5.68865113157485,1004.0630214617515,0,0
4.9,8.185253999999999,-5.5663023,0.7850982,1004.0501,5.688961608363942,1004.0630685986844,0,0
4.92,8.32312,-5.623483,0.53884065,1004.0699,5.689663414088526,1004.0631348419232,0,0
4.94,8.108032000000001,-5.6759152,0.5672473000000001,1004.04486,5.6904056148403015,1004.0631275850177,0,0
4.96,8.021998,-5.685448,0.53884107,1004.0676,5.691042960080949,1004.0631372735104,0,0
4.98,7.9885410000000014,-5.7283473,0.73768634,1004.0652,5.691607280266862,1004.0631532600777,0,0
5.0,7.9789844,-5.5948834000000005,0.80870265,1004.0548,5.691940554576379,1004.0631373140723,0,0
5.02,7.974207400000001,-5.642549,0.7613588000000001,1004.0472,5.6921093625151435,1004.0630658498512,0,0
5.039999999999999,8.117604,-5.647316,1.0312200999999999,1004.0599,5.692431793786201,1004.0629913070061,0,0
5.06,8.103268,-5.6187167,1.0359546999999998,1004.0546,5.692831765522579,1004.0628952322427,0,0
5.079999999999999,8.065031,-5.62825,0.8465788000000001,1004.0598,5.6932076826384135,1004.0627991977458,0,0
5.1,8.084153,-5.5567513,0.77556294,1004.06714,5.693497081327826,1004.0627299685524,0,0
5.119999999999999,7.97422,-5.575818,0.785032,1004.08484,5.6935458809773225,1004.0627483937503,0,0
5.14,8.03158,-5.728348,0.90339226,1004.0748,5.693682259453442,1004.0628080600377,0,0
5.159999999999998,8.036363,-5.709281400000001,0.87972045,1004.0423,5.693876279522594,1004.0627869521534,0,0
5.18,8.022026,-5.575818,0.8749863999999999,1004.0546,5.693936512493537,1004.0627388281983,0,0
5.199999999999998,7.878634,-5.609184,0.7613608000000001,1004.06714,5.693655364948835,1004.0627121500906,0,0
5.22,7.9598926999999975,-5.7664800000000005,0.9507372,1004.0644,5.693434634102773,1004.0626946535742,0,0
5.239999999999998,7.7926016,-5.8475122000000015,0.7992366,1004.05695,5.693060845991553,1004.0626585128996,0,0
5.26,7.802164,-5.8427453,0.85131526,1004.0819,5.6925722207797484,1004.062695848353,0,0
5.279999999999999,8.069837,-5.6139507,1.2253333,1004.0869,5.692237633168911,1004.0628159729056,0,0
5.3,8.151095,-5.628250599999999,1.4005065,1004.0766,5.692242751259674,1004.0629717374576,0,0
5.319999999999999,7.9742446,-5.6473165000000005,1.3626316,1004.0643,5.69226125027129,1004.0631141527609,0,0
5.34,7.8690915,-5.8046126,1.5614768,1004.0568,5.692366872875754,1004.0632172599733,0,0
5.359999999999999,7.768717999999999,-5.8999443,1.5236018,1004.0741,5.692489120695263,1004.06334754337,0,0
5.38,7.6348853000000005,-5.652083999999999,1.7792598999999998,1004.0617699999999,5.6921915428497325,1004.0634569826233,0,0
5.4,7.548852,-5.899945,1.8644793999999998,1004.0766,5.691723898138927,1004.06360099801,0,0
5.42,7.5446053,-5.861825,1.9781540000000002,1004.044,5.691099610124595,1004.0636576864129,0,0
5.44,7.578086999999999,-5.8189269999999995,2.0397034,1004.0561,5.690366041599827,1004.0636805686144,0,0
5.46,7.496854300000001,-5.971457,2.28116,1004.04614,5.689709847130379,1004.0636376412808,0,0
5.48,7.5446777,-5.9476247,2.2858967999999997,1004.0589,5.689172522298937,1004.0635826551802,0,0
5.5,7.6116160000000015,-5.9047265,2.2669610000000002,1004.04865,5.688786303761914,1004.063480311903,0,0
5.52,7.6498785000000025,-5.7521973,2.2338226000000003,1004.07135,5.688393454672051,1004.0634182122606,0,0
5.539999999999999,7.635565,-5.8093967000000015,2.162809,1004.06647,5.688009934752425,1004.0633743274524,0,0
5.56,7.56867,-5.947627,2.1296703999999997,1004.0310000000001,5.6876852032707035,1004.0632190032567,1,1
5.579999999999999,7.6260520000000005,-5.756965599999999,2.2953765,1004.07886,5.687347443710703,1004.0631380663859,1,1
5.6,7.477902,-5.8856635000000015,2.2811754,1004.0731,5.686914157167218,1004.063102413528,1,1
5.619999999999999,7.5544014000000015,-5.842765,2.1486142000000004,1004.0376,5.6864043524249075,1004.0629791019741,1,1
5.64,7.4875083,-5.804632700000001,2.2006947999999995,1004.04535,5.685698427943604,1004.0628066791176,1,1
5.6599999999999975,7.387156,-5.9094973,2.2054315,1004.01025,5.684795725643461,1004.0624651222372,1,1
5.68,7.5018945000000015,-5.8570657,2.1959646,1004.0635,5.683834396986582,1004.0621670481372,1,1
5.6999999999999975,7.602292999999999,-5.909498,2.1675603,1004.0381,5.6830374089940605,1004.0618170284894,1,1
5.72,7.645335,-5.9094987,2.1817658,1004.0628,5.6824639714250935,1004.0615112898261,1,1
5.7399999999999975,7.640581,-6.042964,2.262253,1004.06,5.682286443059612,1004.0612356984996,1,1
5.76,7.73142,-6.2193265,2.049207,1004.0375,5.6827319761314525,1004.0609067374891,1,1
5.779999999999999,8.673066,-6.819913400000001,2.8256514,1004.055,5.686340161311092,1004.0605948032852,1,1
5.8,7.5020356,-6.467189,2.5463237999999997,1004.0527,5.690313675892253,1004.0602907569307,1,1
5.819999999999999,6.2306323,-6.7674828,0.38743725,1004.0503,5.692476031461487,1004.0599861348468,1,1
5.84,5.738336599999999,-6.686452,0.28328258,1004.0428,5.692216961315843,1004.0596551006884,1,1
5.859999999999999,5.5423884,-6.5291557000000005,0.003954902299999999,1004.0782,5.689296717063668,1004.0594293605432,1,1
5.88,6.025171299999999,-6.6006546,-0.3558578,1004.0071,5.684825004689231,1004.0590415108528,1,1
5.9,7.1484494000000005,-7.015346000000001,-0.5547006,1004.0673,5.681257693314272,1004.0587285374277,1,1
5.92,8.4199,-7.282274,-0.12860212,1004.0398,5.680792509388759,1004.0583838513744,1,1
5.94,10.049579,-6.357556,0.4253018,1004.0698,5.684662858963112,1004.0581203849125,1,1
5.96,12.55899,-4.879924,0.8561339,1004.0672599999999,5.695679049781648,1004.0579204885614,1,1
5.98,14.576081,-3.3307927000000004,2.3711444999999998,1004.04443,5.71637359905008,1004.0576952943868,1,1
6.0,14.858104,-2.4346802000000003,4.487425,1004.0746,5.746734554353981,1004.057557169754,1,1
6.02,14.021648999999998,-2.472813,3.8908910000000003,1004.05426,5.7835515365745405,1004.0574232530175,1,1
6.039999999999999,11.053407,-4.503367,2.1912412999999997,1004.0495599999999,5.820484483205727,1004.0572766164782,1,1
6.06,9.681616,-5.275549400000001,1.7746146,1004.0495599999999,5.855376025541227,1004.0571192686128,1,1
6.079999999999999,8.8642845,-5.9953,1.4100668,1004.04425,5.887561458883778,1004.056933906672,1,1
6.1,8.892977,-7.377602,0.8750803,1004.0643,5.918890319401207,1004.0567966387966,1,1
6.119999999999999,8.773494,-8.554942,0.17438957,1004.0136,5.95073659564138,1004.0565198410028,1,1
6.14,8.137795,-9.703683,-0.062329302999999996,1004.0361300000001,5.983775941161608,1004.0562018590443,1,1
6.1599999999999975,6.546132,-11.195613999999999,0.49633157,1004.0916,6.0184030990342645,1004.0560483234932,1,1
6.18,1.9814352,-12.873444000000001,-3.2580497000000004,1004.0312,6.0552395226428795,1004.0558232055157,1,1
6.1999999999999975,-2.6740816,-16.753420000000002,-6.6620855,1003.99835,6.103872728094954,1004.0554173877313,1,1
6.22,1.0111611999999999,-13.497863,-2.9171702999999995,1004.0585,6.153650426833464,1004.0550699045407,1,1
6.2399999999999975,3.568371,-12.639883,-2.088648,1004.0283,6.203122231319737,1004.0546664967372,1,1
6.26,7.0098457,-13.688525,-2.3632421000000003,1004.008,6.256844126337234,1004.054142046214,1,1
6.279999999999999,9.428438,-13.731423999999999,0.30696306,1004.008,6.3164144449986805,1004.0535125303653,1,1
6.3,10.876732,-12.1679945,2.6126192,1004.02795,6.380665393888145,1004.0528642650518,1,1
6.319999999999999,10.652095,-10.390069,3.1002645,1004.0106,6.446059217297384,1004.0521393064666,1,1
6.34,9.586216,-9.856214999999999,2.8162017,1004.05304,6.509805866325222,1004.0515019755576,1,1
6.359999999999999,10.42269,-8.554946000000001,3.0955324,1004.02795,6.5714522109530495,1004.0508540428547,1,1
6.38,12.697891,-3.9647514999999998,4.5584644999999995,1004.03046,6.631492674614588,1004.0502081109636,1,1
6.4,12.358543,0.08682139999999999,4.302809,1004.05304,6.687870739336888,1004.0496475603453,1,1
6.42,11.985729,0.30131626,3.445882,1004.0303,6.739538610746701,1004.0490826066016,1,1
6.44,11.880586,-0.43750042,2.1060470000000002,1004.02295,6.78602479740028,1004.0484893360899,1,1
6.46,14.217927,-3.3022015,3.327525,1004.0303,6.833786633931076,1004.0478996406564,1,1
6.48,15.742698,-6.195501999999999,3.2139002999999997,1004.01984,6.887179517251578,1004.0472775710643,1,1
6.5,15.518057999999998,-7.797065700000001,2.3190987,1004.0804400000001,6.945980167421247,1004.0468472951172,1,1
6.52,13.792563000000001,-10.104078999999999,0.7993563,1004.07776,7.008506360765948,1004.046578389028,1,1
6.539999999999999,14.03635,-14.093687,0.31171408,1004.06256,7.079871586681231,1004.0463983174071,1,1
6.56,13.687438,-16.515099,0.9177190999999999,1004.05756,7.1620657463823685,1004.0462793881801,1,1
6.579999999999999,13.610969,-15.642819,1.0502832,1004.0776,7.252062011486647,1004.0462870565176,1,1
6.6,8.5921955,-13.493101999999999,0.9461280000000001,1004.1023,7.3387815977607955,1004.046495478857,1,1
6.619999999999999,7.033992,-11.124125,-0.17592461,1004.09265,7.4163453695703705,1004.0468457971124,1,1
6.64,5.7338953,-9.870519999999999,0.20282863,1004.0621,7.48191147918975,1004.0472102534533,1,1
6.6599999999999975,4.108779,-9.069738000000001,1.2822745,1004.0773300000001,7.533776991214129,1004.0476407181636,1,1
6.68,1.7045508999999999,-9.184136,1.2775413,1004.05255,7.572079355524411,1004.0480387501963,1,1
6.6999999999999975,-1.4167751,-10.833363,-0.23747863,1004.0394,7.601377661507815,1004.0483593517996,1,1
6.72,-1.684434,-11.753308,-1.3974069,1004.0071,7.624749406422065,1004.0484941017096,1,1
6.7399999999999975,-0.29828292,-12.058368,-1.6246578,1003.9993,7.643248486717304,1004.0484360679643,1,1
6.76,2.4309964,-13.588432000000001,-2.78932,1003.9843,7.661349888092878,1004.0481538995019,1,1
6.779999999999999,7.1152167,-15.728617999999999,-0.87661946,1003.9942,7.685690404365244,1004.0477103414107,1,1
6.8,11.498304,-15.418792000000002,-0.3747719,1004.01904,7.719514088395635,1004.047215200252,1,1
6.819999999999999,15.145309,-14.146120999999999,-1.8045608,1004.0264,7.7648479068302905,1004.0467027588032,1,1
6.84,15.637638,-12.120336,-3.1870057999999997,1004.02405,7.818603446046282,1004.0461684156073,1,1
6.859999999999999,14.2084875,-10.189879,-1.430541,1004.0642,7.8744175665390825,1004.0457611836633,1,1
6.88,12.817575,-8.450087,0.3448618,1004.0615,7.927304299446846,1004.0454580132564,1,1
6.9,11.885525,-8.268957,1.6752305,1004.0515,7.9757915109327815,1004.0452118830373,1,1
6.92,11.651324,-6.066808,1.9024828999999999,1004.054,8.017509876856048,1004.0450260395966,1,1
6.94,11.636994999999999,-2.9685466,2.418534,1004.0541400000001,8.050971925065067,1004.0448946385899,1,1
6.96,11.517510000000001,-1.7864406000000004,2.418535,1004.06616,8.076296487515906,1004.0448550879614,1,1
6.98,13.03272,-0.9618264999999999,1.2917475,1004.05115,8.096892643434792,1004.0448428027097,1,1
7.0,15.016347,-1.1953881000000002,2.257567,1004.08374,8.117601875515781,1004.0449719773711,1,1
7.02,14.949441,-6.085876,2.2102242000000003,1004.0433300000001,8.140538164658803,1004.0450802049837,1,1
7.039999999999999,15.714220999999998,-9.093574,2.4800857999999995,1004.0686599999999,8.16958511352666,1004.045260722164,1,1
7.06,15.312726999999999,-10.328113,2.6884007000000003,1004.0658599999999,8.204634675578694,1004.0454943845447,1,1
7.079999999999999,14.461932000000001,-13.755267000000002,1.4479877,1004.1008,8.247660457989246,1004.04589994884,1,1
7.1,14.73439,-17.001291000000002,1.149721,1004.0983,8.30280805682146,1004.0464469456357,1,1
7.119999999999999,13.544231,-17.620943,2.4185429,1004.1432,8.368112552964181,1004.0472785829995,1,1
7.14,10.929688,-15.947883,2.7357485,1004.1206699999999,8.436275105150047,1004.0482776268758,1,1
7.1599999999999975,8.616274,-14.265289000000001,2.0587299999999997,1004.1006,8.501034818524861,1004.049348742588,1,1
7.18,7.3352966,-11.677049,1.8314792000000002,1004.1006,8.556566130261016,1004.0504796849582,1,1
7.1999999999999975,5.853808,-10.104091,1.7084075,1004.0981,8.599359178517213,1004.0516504187705,1,1
7.22,0.1515223,-10.213723,-1.0517485,1004.0498699999999,8.627556825936693,1004.0526784696594,1,1
7.2399999999999975,-3.634062,-11.200401,-0.36052355,1004.0653699999999,8.645898829568367,1004.0536325449342,1,1
7.26,-3.3233557,-11.500694000000001,0.013496168000000001,1004.01996,8.655862365037056,1004.0543543446852,1,1
7.2799999999999985,-0.63708705,-11.767622,-0.46467698,1004.0099,8.658018435226825,1004.0548320913043,1,1
7.3,3.215455,-13.607513,-1.3026648,1003.9745,8.657942103761117,1004.0549650326884,1,1
7.3199999999999985,6.9198246,-16.872602,0.31650364,1004.0199,8.66461555543585,1004.0549562655774,1,1
7.34,11.474997,-16.376883,0.8325555,1004.0174,8.680918480250527,1004.054813316402,1,1
7.3599999999999985,15.475712,-14.851586,0.47747687,1004.045,8.708664763571361,1004.054651678572,1,1
7.38,16.809298000000002,-13.769578,-0.8954985000000001,1004.0397,8.747031608940796,1004.0544550293421,1,1
7.399999999999999,15.399276,-11.958287,-1.2979212,1004.0699,8.790056969564922,1004.0543368719773,1,1
7.42,14.993012,-10.580752,0.59110814,1004.04926,8.834590659750742,1004.0542141913902,1,1
7.439999999999999,13.888897,-10.023066,1.9025400000000001,1004.06714,8.87795462281953,1004.0541523237348,1,1
7.46,13.659483999999999,-8.083078,3.02933,1004.0668300000001,8.917895026436266,1004.0541432971088,1,1
7.479999999999999,13.592591,-3.1020262,3.5027727999999994,1004.0668300000001,8.95096053631187,1004.0541809933127,1,1
7.5,13.167207999999999,-0.29929113,2.2055476,1004.03925,8.975709535817712,1004.0541605501024,1,1
7.52,12.713144999999999,-0.327891,1.3864971000000001,1004.04675,8.991854387579531,1004.0541158085015,1,1
7.539999999999999,12.909137,-1.1429726999999998,2.764211,1004.0313,9.001291307993107,1004.053994137912,1,1
7.56,14.075429000000002,-4.8894873,4.4591293,1004.06396,9.009552281730242,1004.0539225068828,1,1
7.579999999999999,15.031410999999999,-6.314687999999999,3.8625962999999994,1004.0838,9.01924241368447,1004.0539667726808,1,1
7.6,15.748401999999999,-9.432017,3.1050935,1004.074,9.034031390647016,1004.0540780055583,1,1
7.619999999999999,15.160504999999999,-12.768606,2.8778439,1004.0963,9.056205878996467,1004.0543282901083,1,1
7.64,15.475992999999999,-15.352081,2.2576387,1004.12396,9.088747452836387,1004.0548001156927,1,1
7.6599999999999975,15.7293415,-17.354034,2.5511737,1004.1184,9.133750659096002,1004.0554459803627,1,1
7.68,14.993272,-17.020376000000002,3.2187266,1004.1365,9.188250782350096,1004.0563084608556,1,1
7.6999999999999975,11.752618,-15.766775,2.1960998,1004.091,9.244456563123057,1004.05719543816,1,1
7.72,9.310158,-14.0698805,1.9972566000000005,1004.1209,9.296151134410241,1004.0582085077288,1,1
7.7399999999999975,8.134345,-12.067926,1.3391761999999998,1004.0959,9.338738848102032,1004.059239345372,1,1
7.76,5.424218700000001,-10.747591,0.71897125,1004.0609,9.367816663929652,1004.0601561718704,1,1
7.7799999999999985,3.4549613,-9.718016,1.6989949,1004.043,9.381511632417089,1004.0609045175456,1,1
7.8,0.8882254,-8.922001,1.4480733000000001,1004.03815,9.378716246634555,1004.0614838395207,1,1
7.8199999999999985,-0.9615358,-8.307116,0.43964723,1004.008,9.359888163127119,1004.0618031865961,1,1
7.84,-1.750182,-8.964901,-1.1321732,1004.0032,9.328686314787095,1004.0618743901996,1,1
7.8599999999999985,-0.66036636,-10.023077,-1.6103463,1004.0005,9.288677421656551,1004.0617163578993,1,1
7.88,3.8517902000000004,-10.695163,-2.112191,1004.0155,9.243917877741804,1004.0614103416702,1,1
7.899999999999999,9.793109,-12.172794999999999,-2.1784706000000003,1003.9928,9.203876448982193,1004.0608929485002,1,1
7.92,12.890442,-15.580884,-1.4399018,1004.03033,9.177498845867609,1004.0603257532804,1,1
7.939999999999999,17.436056,-17.711535,-0.31311142,1004.0328,9.17281448390338,1004.0597254868726,1,1
7.96,18.444616,-15.919310999999999,0.060908526,1004.0229,9.186294047094812,1004.0590625197217,1,1
7.979999999999999,19.195066,-10.418705000000001,2.4896599999999998,1004.055,9.210822189442467,1004.0584620968764,1,1
8.0,17.378763,-4.5367737,3.053056,1004.0653,9.237203372051884,1004.0579561797017,1,1
8.02,10.68228,-5.971508,0.10825838,1004.045,9.25269716973434,1004.0574625090387,1,1
8.04,7.9960504,-6.1288047,-0.96644956,1004.08484,9.254113724155772,1004.0571248606088,1,1
8.059999999999999,8.627006,-5.3947554,1.0693462,1004.07245,9.24331519031728,1004.0568816849576,1,1
8.08,11.523588,-5.4996204,2.4754665,1004.0769,9.227530997711087,1004.0567388808864,1,1
8.1,14.076023999999999,-3.5977647000000004,3.2235042999999997,1004.06964,9.211296309737312,1004.0566591432381,1,1
8.12,13.535927,-2.4537914,2.5464863999999996,1004.07214,9.192868854609,1004.0566444181363,1,1
8.139999999999999,10.362159,-4.2555504,0.13194197,1004.0641,9.166776492038323,1004.0566582471307,1,1
8.16,9.076414,-6.0382432999999995,-1.5156288999999998,1004.0644,9.13359706559794,1004.0566983367411,1,1
8.18,9.38234,-8.378623,-1.6339873,1004.039,9.097763259030495,1004.0566700459082,1,1
8.2,8.468603,-10.618886,-1.0280561,1004.06244,9.061659523491775,1004.0566658199631,1,1
8.219999999999999,7.3405580000000015,-10.761882,-0.8481498,1004.0644,9.024269659402783,1004.0566899289661,1,1
8.24,6.4276056,-10.423456,-1.0327925999999998,1004.0639,8.984287630854697,1004.0567371879367,1,1
8.26,6.140805,-9.903901,-0.95704323,1004.0562,8.940918312438622,1004.0567770120867,0,0
8.28,4.6447153,-9.160318,-1.5914544,1004.059,8.892011630008891,1004.056820203462,0,0
8.299999999999999,3.8894947,-7.8209149999999985,-1.6151277,1004.0412,8.835248924352335,1004.0568021346287,0,0
8.32,4.085456,-7.482489599999999,-1.4257523,1004.0437,8.77125183263513,1004.0567390013232,0,0
8.34,5.242157499999999,-7.2679944,-1.1274858,1004.05365,8.701899943335098,1004.0566720963296,0,0
8.36,6.198107,-7.306126,-0.6209055,1004.06085,8.629249330136151,1004.0566280195303,0,0
8.379999999999999,6.7573323000000025,-7.0296660000000015,-0.17587249,1004.0866,8.554259866266907,1004.0566969724002,0,0
8.4,7.168384599999999,-6.376647,-0.40312493,1004.07135,8.477162464113496,1004.0568106500557,0,0
8.42,7.216171000000001,-6.4481454000000005,-0.5309549,1004.071,8.398665724605726,1004.0569621772914,0,0
8.44,7.287858,-6.934334,-0.8576296999999998,1004.04834,8.320055380655903,1004.0570650269188,0,0
8.459999999999999,8.109973,-6.8294690000000005,-1.1038201,1004.0634,8.242799097792442,1004.0571787107527,0,0
8.48,8.654859,-6.553008599999999,-0.9286479999999999,1004.0683,8.167507143022242,1004.0573191984296,0,0
8.5,8.716984,-6.114485299999999,-0.70139766,1004.063,8.093754863362195,1004.0574637842267,0,0
8.52,8.726535,-5.8284917,-0.6824609,1004.063,8.021307245849346,1004.0576114706136,0,0
8.54,8.282,-5.966721499999999,-0.16641201,1004.0685,7.9496345582577215,1004.0577811650107,0,0
8.559999999999999,8.181614,-6.138317,0.19813626,1004.0656,7.878948959429982,1004.0579592547864,0,0
8.58,8.023869,-6.333746,0.5437468000000001,1004.0856,7.8094039807886215,1004.0582161215947,0,0
8.6,8.057316,-6.510108,0.34016633,1004.0476,7.7413818606337585,1004.0584048710688,0,0
8.62,7.8613334,-6.4815087,-0.190088,1004.0531,7.674589133892231,1004.058552552568,0,0
8.639999999999999,7.689245,-6.548239700000001,-0.6114514,1004.0579,7.608972826328807,1004.0586806947517,0,0
8.66,7.4406867,-6.691236,-0.6729994,1004.0776,7.544447725282383,1004.0588620306842,0,0
8.68,7.168227000000001,-6.939097,-0.72034454,1004.0776,7.481063496965875,1004.0590897158037,0,0
8.7,6.8210144,-6.948672,-0.90009505,1004.0368699999999,7.418449742425713,1004.0592109073982,0,0
8.719999999999999,6.4100209999999995,-7.0916705,-0.81486946,1004.06506,7.3563584924467476,1004.0593390490244,0,0
8.74,6.333591,-7.0583057,-0.8101305999999999,1004.0344,7.2947943510982665,1004.059362494389,0,0
8.76,6.1806917000000015,-7.1631713,-0.80065686,1004.0671,7.233869784069603,1004.0594110657332,0,0
8.78,6.381516,-7.2346716,-0.41716343,1004.0445,7.174064514738108,1004.0594003035363,0,0
8.799999999999997,6.7926235,-6.943913,-0.3366745,1004.057,7.115595797151829,1004.0593821529666,0,0
8.82,7.237196000000001,-6.896248299999999,-0.25145059999999997,1004.0618,7.059101144522537,1004.0593748193724,0,0
8.84,7.7152495,-6.519692,-0.29405355,1004.077,7.00477326315205,1004.0594317900587,0,0
8.86,7.7822104,-6.390996,-0.19462709,1004.077,6.952486255766196,1004.0595453749132,0,0
8.879999999999997,7.705791499999999,-6.3480988,0.12258337400000001,1004.10474,6.902009145478164,1004.0598084391407,0,0
8.9,7.9496350000000024,-6.128839,0.12732446,1004.07935,6.8534253921037624,1004.0601112323112,0,0
8.92,7.796739,-6.1812724999999995,0.15573622,1004.0871,6.806507129570216,1004.0604759399204,0,0
8.94,7.6868587,-6.238473,0.16047563,1004.0917400000001,6.7611258099105465,1004.0609107461804,0,0
8.959999999999997,7.734697,-6.4958673,0.11313522,1004.05646,6.7176818127819375,1004.0612789183052,0,0
8.98,7.400187,-6.7294307,-0.12831241,1004.09686,6.675902350846004,1004.0617323270887,0,0
9.0,7.0083009999999994,-7.1155232999999996,-0.50705945,1004.0616,6.635737801848794,1004.0621324827124,0,0
9.02,7.2377863,-7.0058929999999995,-0.64435214,1004.06146,6.597339162947002,1004.0624836392838,0,0
9.04,7.629789,-6.424375,-0.786379,1004.0513,6.560455188709363,1004.0627536601288,0,0
9.06,7.9739957,-6.1526830000000015,-0.57805943,1004.0712,6.525215056741986,1004.0630226573708,0,0
9.08,7.6155663,-6.6770059999999996,-0.40761590000000003,1004.05396,6.491654091176537,1004.0632277177676,0,0
9.1,6.989466,-6.943934,-0.6111904,1004.0839,6.459146973210089,1004.06348332935,0,0
9.12,6.6119018,-7.148896700000001,-0.46442008,1004.04846,6.427433314024718,1004.0636551037587,0,0
9.14,6.024058999999999,-7.1965639999999995,-0.47861665,1004.06854,6.395804247048448,1004.0638244692526,0,0
9.16,6.4590825999999995,-6.805708,-0.6679871000000001,1004.0784,6.36438310307584,1004.0640265925135,0,0
9.18,6.5929720000000005,-6.9201070000000025,-0.4170587000000001,1004.0759,6.333592412031081,1004.064247932894,0,0
9.2,6.5102577,-7.0058690000000015,-0.50241137,1004.0557,6.303490152548652,1004.0644127366957,0,0
9.22,6.7205663,-6.8485727,-0.68231905,1004.0759,6.274192958557284,1004.0645997114827,0,0
9.24,6.993013,-6.796139999999999,-0.39352056,1004.0657,6.246003258953532,1004.0647688834434,0,0
9.26,6.983451,-6.791373700000001,-0.3887864,1004.06854,6.218872091176219,1004.0649319398075,0,0
9.28,7.093384299999999,-6.7580075,-0.31777054,1004.0655,6.192885031662384,1004.0650780614274,0,0
9.3,7.1125007,-6.5673455999999995,-0.5497565,1004.07574,6.1677820423034575,1004.0652455574692,0,0
9.32,7.2654520000000025,-6.686509599999999,-0.34144297,1004.0729,6.143932050231736,1004.0654211129653,0,0
9.34,7.7004113,-6.5053800000000015,-0.038441386,1004.0907599999999,6.1216921017401305,1004.0656674537947,0,0
9.36,8.0493355,-6.419582,-0.08578563,1004.0704,6.1014028860564045,1004.065902157718,0,0
9.38,8.039773,-6.362384,-0.02897298,1004.0829,6.082820208859856,1004.066170734337,0,0
9.4,7.9107156000000005,-6.5101466,-0.15206774,1004.0675699999999,6.065798723254764,1004.0664130859938,0,0
9.42,7.8246765,-6.309951,-0.44086668,1004.05756,6.049834266066455,1004.066595356808,0,0
9.44,7.7051786999999985,-6.267052,-0.41719484,1004.06,6.034610260995143,1004.0667326680153,0,0
9.46,7.3562509999999985,-6.4767804,-0.27042857,1004.0827,6.019812854285644,1004.0669114785927,0,0
9.48,7.212853999999999,-6.6769757,-0.019505307,1004.0748,6.005495563853376,1004.0670978742965,0,0
9.5,7.2941084,-6.9629693,0.18880823,1004.095,5.992187885920321,1004.0673630211926,0,0
9.52,7.318005,-6.848572,-0.03370901,1004.0723,5.979689421890428,1004.0676150781137,0,0
9.54,7.179388,-6.7532406000000025,-0.09525648,1004.0573,5.9676061283009885,1004.067800661328,0,0
9.56,6.8734779999999995,-6.867638,-0.4124617999999999,1004.0545,5.955659371123204,1004.0679167602756,0,0
9.58,6.6488247000000005,-6.962969,-0.6207759,1004.05475,5.943714893362866,1004.0679719449685,0,0
9.6,6.175622,-7.229896000000001,-0.6302449000000001,1004.0442,5.931569586794638,1004.0679351271613,0,0
9.62,6.0274453,-7.2775617,-0.3745873,1004.06476,5.919140180407389,1004.067891164489,0,0
9.64,6.624917999999999,-6.9868016000000015,-0.35091550000000005,1004.0948,5.9068740684182455,1004.0679491908796,0,0
9.66,7.0933366,-6.8295054,-0.54029185,1004.0592,5.8952677598022225,1004.0679689659113,0,0
9.68,7.6477914,-7.0106344,-0.29410306,1004.077,5.885361864403928,1004.0680189508518,0,0
9.7,7.729707,-6.672225,-0.36505884,1004.052,5.876658684306997,1004.0680054493222,0,0
9.72,7.562438,-6.538762,-0.70593375,1004.0846,5.868643306286186,1004.068053259753,0,0
9.74,7.385609,-6.6912923,-1.0373398999999999,1004.0639,5.861259596176282,1004.0680805533146,0,0
9.76,7.2852573000000005,-6.5816617,-0.7296013000000001,1004.0514,5.854097425937157,1004.0680446199136,0,0
9.78,7.175346,-6.810457,-0.33190918,1004.0639,5.847267594010139,1004.0679979485291,0,0
9.8,6.90292,-7.048786,-0.21354698,1004.07416,5.8406932512567575,1004.0679788930788,0,0
9.82,6.9507422000000005,-6.7008276,-0.31770170000000003,1004.05115,5.833935517713067,1004.0679014716678,0,0
9.84,7.103719,-6.9439225,-0.23248018,1004.0587,5.827614937839027,1004.0677999368112,0,0
9.86,7.1133017999999995,-6.5959644,-0.48340154,1004.0788,5.8212384426040815,1004.0677498208393,0,0
9.88,6.960371,-6.6960630000000005,-0.16146001,1004.05347,5.814725053579244,1004.0676541310114,0,0
9.9,6.678388000000001,-7.0201899999999995,-0.27034897,1004.0559699999999,5.808183632372528,1004.0675275166079,0,0
9.92,6.716646000000001,-6.891493,-0.09043981,1004.0785,5.801496503752452,1004.0674551410613,0,0
9.94,6.8074865,-6.848594,-0.14725046,1004.0484,5.794775051275822,1004.0673225915202,0,0
9.96,7.0799613,-6.796163000000001,-0.50706285,1004.0585,5.788399913341446,1004.0671737094164,0,0
9.98,6.9748306,-6.910561,-0.36976278,1004.0431,5.7823505612228665,1004.0669554918356,0,0
10.0,7.0178714000000015,-6.891495,-0.5449337,1004.086,5.776663596949352,1004.0668312350107,0,0
10.02,7.0656953,-6.686534,-0.5307281,1004.0732,5.771091922017679,1004.066744369234,0,0
10.04,7.0752773,-6.686535000000001,-0.69169587,1004.0709,5.7656775885322675,1004.0666825749043,0,0
10.06,7.151778,-6.7628,-0.41236374,1004.0431,5.760613148380363,1004.0665430761653,0,0
10.08,7.390791,-6.715135000000001,-0.5023154000000001,1004.0632,5.756181405190665,1004.0664077800051,0,0
10.1,7.386033999999999,-6.6341043000000015,-0.44550043,1004.081,5.752198952987928,1004.0663407643096,0,0
10.12,7.333482000000001,-6.591206,-0.34607556,1004.0756,5.7484788453746285,1004.0663148824901,0,0
10.14,7.2904860000000005,-6.753269,-0.23718221,1004.0581,5.74515823252263,1004.0662624397372,0,0
10.16,7.2331524000000025,-6.638872,-0.27505523,1004.0600599999999,5.741955904733657,1004.0661937725376,0,0
10.18,7.032423,-6.6960716,-0.4312885,1004.0677,5.738657922759871,1004.0661385206188,0,0
10.2,7.027667999999999,-6.772337400000001,-0.28451973,1004.08,5.735378529611758,1004.0661396013494,0,0
10.22,7.061148599999999,-6.805703,-0.31292415,1004.0627,5.732227353131251,1004.066128173718,0,0
10.24,7.080292,-6.7103734,-0.33659393,1004.0395,5.7290943676489965,1004.0660222148372,0,0
10.26,7.061197999999999,-6.7056070000000005,-0.40760767,1004.085,5.7259587820667885,1004.0659969095973,0,0
10.28,7.080340400000001,-6.777106,-0.31765196,1004.067,5.7229565023978815,1004.0659781610124,0,0
10.3,7.228538499999999,-6.700842,-0.38393143,1004.057,5.7202031901375054,1004.0659292733832,0,0
10.32,7.152086,-6.7008424,-0.36972597,1004.0795,5.717562483760549,1004.0659349308896,0,0
10.34,7.118649499999999,-6.6913095,-0.31764546,1004.0693,5.714962787462591,1004.0659520441112,0,0
10.36,7.1377916,-6.738975999999999,-0.42653468,1004.07965,5.7125141021450485,1004.0660164779953,0,0
10.38,7.171276,-6.772342,-0.32710987,1004.0791,5.7102978986622075,1004.0661205124542,0,0
10.4,7.161738400000001,-6.7771095999999975,-0.29870132,1004.05176,5.708285627495361,1004.0661607394572,0,0
10.42,7.152203,-6.710378599999999,-0.38865286,1004.0766,5.7063578524070895,1004.0662338653752,0,0
10.44,7.099649,-6.657947,-0.41705707,1004.0666,5.704360017826296,1004.0662997975211,0,0
10.46,6.965839,-6.8629089999999975,-0.35550758,1004.07135,5.7023970511595765,1004.0663762358937,0,0
10.48,6.96108,-6.8438435,-0.23241113,1004.079,5.700429436641139,1004.0664892223907,0,0
10.5,7.075821,-6.791412400000001,-0.18506476,1004.069,5.698557808741612,1004.066598096059,0,0
10.52,7.133203,-6.648416,-0.39811072,1004.05585,5.696673402717205,1004.0666556036864,0,0
10.54,7.2001443,-6.677016,-0.5164685999999999,1004.0639,5.69493819089751,1004.0666964972527,0,0
10.56,7.219286,-6.758047599999999,-0.42651293,1004.0364,5.693475871647626,1004.0666235634177,0,0
10.58,7.1854960000000005,-6.777106,-0.40760562,1004.061,5.6922342523892455,1004.0665388742527,0,0
10.6,7.166392999999999,-6.796172599999999,-0.33185372,1004.08057,5.691184607942621,1004.0665145549592,0,0
10.62,7.1472883000000005,-6.8629045,-0.3413211,1004.0489,5.690376028064217,1004.0664296540339,0,0
10.64,7.2859187000000025,-6.591212,-0.37919492,1004.05084,5.689612090827284,1004.0662985128216,0,0
10.66,6.9131100000000005,-6.839073,-0.4218031,1004.07855,5.688685268823013,1004.0662267418003,0,0
10.68,6.865328,-7.0154357,-0.21822222,1004.0858,5.687793768922813,1004.0662337886553,0,0
10.7,7.142571,-7.0535684000000005,-0.11406398,1004.06335,5.6873957176796015,1004.0662296336172,0,0
10.72,7.472392599999999,-6.710377,-0.30343878,1004.0706,5.687453293864584,1004.0662416955446,0,0
10.74,7.496307400000001,-6.5387816,-0.65378326,1004.11096,5.687749176068156,1004.0664133393595,0,0
10.76,6.927527,-6.8867397,-0.4738744000000001,1004.0629,5.687861428168332,1004.0665523558126,0,0
10.78,6.4256635000000015,-7.091702499999999,-0.23241834,1004.0981,5.687380669148772,1004.0667887622699,0,0
10.8,6.578633,-7.0154380000000005,-0.42652747,1004.0930000000001,5.686490382489519,1004.0670920114716,0,0
10.82,7.2478204,-6.791410400000001,-0.6159023,1004.09546,5.685916283116398,1004.0674620872244,0,0
10.84,7.630222,-6.329055,-0.6632448000000001,1004.09,5.685590568686532,1004.067870222646,0,0
10.86,7.6254563,-6.2766230000000025,-0.36497593,1004.1075400000001,5.685376396941193,1004.0683736623025,0,0
10.88,7.1044740000000015,-6.543550499999999,-0.59696037,1004.09,5.684833457098023,1004.0688963563993,0,0
10.9,6.9228573,-6.6960807,-0.43598908,1004.0825,5.683927259023949,1004.0694071820196,0,0
10.92,6.9372110000000005,-6.710381,-0.118782714,1004.085,5.682726475599312,1004.0699146816827,0,0
10.94,7.1762179999999995,-6.700848,-0.047765072,1004.05475,5.681614890906709,1004.0703085155313,0,0
10.96,7.2096925,-6.772346499999999,-0.047763627,1004.0997,5.6807384875183615,1004.0707623164636,0,0
10.98,7.171468300000001,-6.762814,-0.18979453,1004.0751,5.680005170272444,1004.0711789106281,0,0
11.0,7.0854473,-6.8247800000000005,-0.2892155,1004.07416,5.679365391365043,1004.0715577451537,0,0
11.02,7.056784599999999,-6.820013499999999,-0.6632319999999999,1004.0992,5.678798508116637,1004.0719919954578,0,0
11.04,6.951648,-6.9534774000000015,-0.7153086999999999,1004.0493,5.678344221767953,1004.072294007843,0,0
11.06,6.8369455000000015,-6.963011,-0.6963699000000001,1004.0666,5.6778349099161955,1004.0725403675584,0,0
11.08,6.8037357000000025,-7.091714,-0.7436911999999999,1004.0841,5.677429520228813,1004.0727996656793,0,0
11.1,6.760745,-6.9963837,-0.7720952,1004.1087,5.67691788098617,1004.0731580227028,0,0
11.12,6.8372455,-7.0535827000000015,-0.59218556,1004.0871599999999,5.676483697949037,1004.0735250740871,0,0
11.14,6.8611699999999995,-6.948719500000001,-0.48802632,1004.0718400000001,5.675986760456669,1004.0738433344234,0,0
11.16,6.9854765,-6.9058213,-0.39806977,1004.0841,5.6755471624838485,1004.0741614732526,0,0
11.18,7.0189585999999995,-6.781891000000001,-0.1660818,1004.0662,5.675015716708517,1004.0744139194184,1,2
11.2,6.971186,-6.853389999999999,-0.18975149,1004.08374,5.674438533736184,1004.0746705547406,1,2
11.22,7.085925,-7.044053,0.0043612905,1004.0766,5.674267391005302,1004.0749042637144,1,2
11.24,6.9425564,-7.220416,0.3641784,1004.08075,5.674521800924065,1004.075131813614,1,2
11.26,7.181565299999999,-6.78666,0.31210166,1004.09326,5.674865778730742,1004.0753981381764,1,2
11.28,8.065856,-5.6426870000000005,0.37365127,1004.07574,5.6752146306291,1004.0756346932624,1,2
11.3,8.7685175,-5.023035,0.39732617,1004.0906,5.6761118751098225,1004.0758975884404,1,2
11.32,10.016072,-4.3080525000000005,0.4210005,1004.0962,5.679149559085772,1004.0762029713015,1,2
11.34,11.727266,-3.9362614000000002,1.4531028,1004.0856,5.6872765674104215,1004.0765066369008,1,2
11.36,10.862145,-5.1422014,1.4199643,1004.0883,5.699135756537161,1004.0768174119316,1,2
11.38,9.724578999999999,-6.0240145,1.1785121,1004.0983,5.712999503693148,1004.0771693500656,1,2
11.4,9.53341,-7.1155567,0.76662105,1004.12335,5.729459567966349,1004.0776465729407,1,2
11.42,6.0393987000000005,-9.246208,0.48255908,1004.1007699999999,5.746353746724607,1004.0781514914104,1,2
11.44,0.98239166,-12.554199,-2.0219386000000004,1004.0632,5.767102993979147,1004.0785438120012,1,2
11.46,-1.4266041999999999,-13.316849,-2.6137368999999997,1004.0626,5.793037525024143,1004.078833068752,1,2
11.48,-0.6952752,-13.860237,-1.0135064,1004.0603,5.824019345304882,1004.0790219369696,1,2
11.5,1.1354118999999998,-13.693407999999998,-1.2833655000000002,1004.0883,5.859111595890091,1004.0792222219536,1,2
11.52,4.65816,-13.91267,-1.6810523999999998,1004.10065,5.899720522539475,1004.0794763337664,1,2
11.54,7.363553,-13.378817999999999,-1.6052998,1004.0702,5.946279403354769,1004.0796674721627,1,2
11.56,9.514491,-11.252933,-0.7436358000000001,1004.0577,5.996679705546532,1004.0797572791496,1,2
11.58,10.102178,-9.007878999999999,0.14641133,1004.0726300000001,6.0477589545415,1004.0798109743984,1,2
11.6,9.705469,-7.7495084,1.0175432,1004.10785,6.097021172994747,1004.0799593600124,1,2
11.62,8.711285,-7.1346229999999995,1.8129244999999998,1004.11786,6.1423050227674745,1004.0802269158452,1,2
11.64,8.481869,-6.243277,1.4578454,1004.09,6.182304366572082,1004.0804985112816,1,2
11.66,9.084137,-5.8047543,1.7087702,1004.0903,6.218077834257274,1004.0807737783687,1,2
11.68,9.963637,-4.9038754,2.215353,1004.0672599999999,6.250838394784499,1004.0809683547648,1,2
11.7,10.5659075,-4.4653525,2.0685878,1004.0772,6.281508657965848,1004.0811267163913,1,2
11.72,11.885149,-4.7942457,0.5819861999999999,1004.0976,6.312659806163802,1004.0813259485452,1,2
11.74,13.170932,-6.06215,-0.68209857,1004.0847,6.34762847160674,1004.0815141366617,1,2
11.76,13.558110000000001,-6.21468,-0.7673164000000001,1004.0924699999999,6.386715685180276,1004.0817198607897,1,2
11.78,13.242657000000001,-6.9725633,-1.0513796,1004.08185,6.429444120093019,1004.08190210713,1,2
11.8,14.308568,-10.347286,-2.4953716,1004.0971699999999,6.481118885532273,1004.0821181044107,1,2
11.82,15.116372,-14.746819,-3.5511425,1004.10474,6.547956036831181,1004.0823903984323,1,2
11.84,15.565688,-17.797413,-1.7378639999999999,1004.12726,6.6327163926089,1004.0827925279953,1,2
11.86,14.595401,-18.531464,0.78557503,1004.12683,6.732788858814696,1004.0833063845764,1,2
11.88,9.763036,-16.458012,-0.009803478000000001,1004.1117,6.836748096206043,1004.0838626452668,1,2
11.9,6.4554257,-13.350219000000001,-1.3496388000000001,1004.12726,6.934943187442559,1004.08451038769,1,2
11.92,4.2662907,-10.218591,-1.2028707,1004.1069,7.019893657080492,1004.0851633354994,1,2
11.94,2.8610427000000005,-8.740958000000001,-0.99455553,1004.1069,7.0889118984547,1004.0858185321761,1,2
11.96,1.8334001,-7.844846,-0.3743472000000001,1004.0867,7.141138976516143,1004.0864006372436,1,2
11.98,1.2885178,-6.629375,-0.10921915,1004.08435,7.175617309971544,1004.0869076029874,1,2
12.0,0.73885465,-6.7628384000000015,-0.31279728,1004.0542,7.1944050164740565,1004.0872378105478,1,2
12.02,0.8631448,-8.092709,-1.27388,1004.0691,7.202227717195032,1004.0874642858303,1,2
12.04,2.8658977,-9.713338,-0.95667356,1004.0738,7.20435475244238,1004.0876152079608,1,2
12.06,4.567522,-13.021329,-0.5542478,1004.0668300000001,7.209002698518205,1004.0876737360063,1,2
12.08,6.3741129999999995,-17.268326000000002,1.8318762,1004.079,7.225604818998556,1004.0876942259382,1,2
12.1,13.285717000000002,-16.105286,4.947115,1004.0863,7.258857952988754,1004.0877073116284,1,2
12.12,16.693726,-14.784951000000001,3.5504663,1004.09656,7.309041317861447,1004.0877507438223,1,2
12.14,18.634332999999998,-11.920250999999999,1.2400776000000002,1004.0743,7.373120243133164,1004.0877406978315,1,2
12.16,17.353351999999994,-8.521695,3.4415765,1004.0992,7.4440113993217425,1004.0877730746812,1,2
12.18,13.572535,-7.0535960000000015,3.9812993999999997,1004.09125,7.51270375105979,1004.0878141997972,1,2
12.2,11.216099,-7.2585588,2.0496628,1004.07104,7.5744475511882285,1004.08779015083,1,2
12.22,9.390222,-7.039297,-0.24178837,1004.0737,7.626133849186572,1004.0877181766199,1,2
12.24,9.351992,-5.809526,0.08488627,1004.0612,7.667233395041202,1004.087559114772,1,2
12.26,10.427453,-3.898136,1.8697575000000002,1004.1012,7.69940897586044,1004.0874676749099,1,2
12.28,12.650071,-2.0534787,2.8450458,1004.0962,7.727406767736987,1004.087418315018,1,2
12.3,13.868928,-1.796085,1.2069421999999999,1004.07825,7.753501748126752,1004.0873416946837,1,2
12.32,14.141384,-3.302317,-1.5011367,1004.08105,7.7789905915274,1004.0872513428552,1,2
12.34,13.429201,-6.882001400000001,-0.9330073,1004.0857,7.804931849974818,1004.0871659231454,1,2
12.36,12.960788,-10.623749,1.0649122,1004.0705,7.834657855109192,1004.0870304489664,1,2
12.38,11.134910000000001,-11.767722000000001,2.1585605,1004.13544,7.866689258797827,1004.0870850183657,1,2
12.4,11.350009,-11.743889999999999,3.1480517000000003,1004.1532,7.901242866979879,1004.0873712498205,1,2
12.42,14.428208999999999,-13.035627,4.492623,1004.15515,7.944809941728979,1004.0878681674347,1,2
12.44,13.371881,-14.756354,4.577843,1004.1507,7.997174008743273,1004.088533438436,1,2
12.46,10.245896,-14.608591,7.3806114,1004.1303,8.054787434246451,1004.0892716315144,1,2
12.48,10.188546,-12.93553,7.7877706999999985,1004.1555,8.114556449225026,1004.0901623210448,1,2
12.5,9.423785,-13.059461,4.412141,1004.13525,8.172862152979906,1004.0911116499583,1,2
12.52,8.802418,-12.144281,5.676228,1004.1078,8.228291068297533,1004.0920105550464,1,2
12.54,6.6706330000000005,-11.724826,7.4374270000000005,1004.11536,8.279662889836054,1004.092888885584,1,2
12.56,4.314196599999999,-10.075597,5.600479,1004.0955,8.320830655871783,1004.0936743784587,1,2
12.58,3.224409,-8.09271,3.3469027999999996,1004.0776400000001,8.34664818051662,1004.0943107162004,1,2
12.6,2.6078765,-7.1632320000000025,1.4152712,1004.05035,8.355527844078585,1004.0947147256508,1,2
12.62,1.8478970000000001,-7.306228999999999,0.13224849,1004.03217,8.348960316079701,1004.0948465473888,1,2
12.64,1.0162203,-7.201364999999999,0.9370982,1004.0477,8.328342008985024,1004.0947932975059,1,2
12.66,2.8660147,-7.8972826000000005,2.3195452999999997,1004.0376,8.298256642611111,1004.0945403500383,1,2
12.68,6.986214,-11.386403,-0.85250497,1004.0727,8.269621699807868,1004.0942382203959,1,2
12.7,9.428703,-12.759171499999999,-3.8162417,1004.0373,8.248464499849316,1004.0937662810504,1,2
12.72,12.062386,-12.725805000000001,-5.861503599999999,1004.0169999999999,8.238502019378728,1004.0930729168331,1,2
12.74,11.488817999999998,-11.119475,-9.454916,1004.0746,8.238648003434335,1004.0923937577096,1,2
12.76,10.6906,-10.847782,-7.8736243,1004.06476,8.244753453515202,1004.0916941711806,1,2
12.78,10.719289999999999,-10.995546000000001,-3.5416427,1004.0745,8.253221738945125,1004.0910141175074,1,2
12.8,10.790996,-11.782028,-2.1402577999999997,1004.0667,8.26449674016384,1004.0903256912587,1,2
12.82,11.125592,-11.496035000000001,-4.86254,1004.0871,8.279460471817481,1004.0897057853366,1,2
12.84,12.430487,-8.955461,-7.187132000000001,1004.06396,8.298049193713544,1004.0890653516368,1,2
12.86,14.151226000000001,-6.171792,-6.1455617,1004.0746,8.31913846269676,1004.0884473891535,1,2
12.88,15.164556,-2.8971669999999996,-3.1960266,1004.0815,8.340593398418982,1004.0878763469028,1,2
12.9,13.534651,-4.0030084000000015,-1.0939502,1004.1145,8.358948656021516,1004.0874676191208,1,2
12.92,11.9955635,-8.040282000000001,1.2353778,1004.1245,8.375199628452156,1004.087239783824,1,2
12.94,12.7364435,-10.433094,2.8829515,1004.1542,8.394148912720446,1004.0872795253337,1,2
12.96,12.683874000000001,-13.240596,5.6762514,1004.1263,8.420567773408044,1004.0874551146406,1,2
12.98,11.460255,-12.234853,7.2670119999999985,1004.1391,8.451573512401843,1004.0877961869397,1,2
13.0,10.700274,-12.506548,6.1780996,1004.1237,8.48508517022694,1004.08822681215,1,2
13.02,9.462315,-14.017546,4.227526,1004.1192,8.520382947892976,1004.088718816062,1,2
13.04,7.617319599999999,-14.303539,4.189652,1004.0913,8.555688420162179,1004.0891628429808,1,2
13.06,6.843001400000001,-13.674354000000001,4.7625155,1004.0712,8.589371444846261,1004.0894905189316,1,2
13.08,6.4128284,-13.312095999999999,5.359051,1004.0788,8.620881289114857,1004.0897415675336,1,2
13.1,6.0878224,-11.5484705,5.221755,1004.0788,8.646912254013115,1004.0899240044353,1,2
13.12,7.187187700000001,-9.670447,3.006055,1004.0638,8.664594897713112,1004.0899911592657,1,2
13.14,8.085801,-9.365389,0.83769864,1004.069,8.674802373678688,1004.0899749291002,1,2
13.16,8.382159,-8.950698,-0.41691777,1004.0333,8.678094830937448,1004.0897565583814,1,2
13.18,8.621159,-8.478808,-0.49266738,1004.0282599999999,8.674916343658253,1004.0893422184039,1,2
13.2,8.587709,-8.602739,0.27904153,1004.0663,8.666149494850234,1004.0888931556135,1,2
13.22,7.244594,-8.9221,-0.22280450000000002,1004.03076,8.651097115443484,1004.0882870843719,1,2
13.24,5.977956,-9.284358000000001,-0.82880735,1004.0408,8.629668700352088,1004.0875806063193,1,2
13.26,4.5679245,-9.069863,-2.5758016,1004.02856,8.601443341998593,1004.0867438881288,1,2
13.28,3.1339936,-8.149918,-3.8824966,1004.02295,8.565399962237871,1004.0857749059387,1,2
13.3,2.1780431,-7.5969973,-3.5747592000000004,1004.03577,8.520745026725159,1004.084738695614,1,2
13.32,2.7038314,-7.997389,-3.2291467000000003,1004.0429,8.469399624777608,1004.0836724808667,1,2
13.34,3.9943879,-7.983088499999999,-3.3143651,1004.05035,8.41333224369558,1004.0826104125853,1,2
13.36,7.302022,-8.56461,-2.9734871,1004.0704300000001,8.357698546528146,1004.0816281195661,1,2
13.38,10.265511,-11.219583,-3.4563956,1004.06287,8.31086665597728,1004.0806926362241,1,2
13.4,13.501448000000002,-12.735348,-2.7888436000000003,1004.0579,8.278576430315857,1004.0797839896527,1,2
13.42,14.835023000000001,-10.952655,-1.6999296999999998,1004.07574,8.258731525204487,1004.0789665511796,1,2
13.44,15.035787,-5.442516,0.38320956,1004.08514,8.244710291902068,1004.0782664869605,1,2
13.46,14.170651000000001,-4.079281,1.2401376,1004.0903,8.233397591102705,1004.0776912308631,1,2
13.48,11.460515,-4.3509746,-0.80512416,1004.08026,8.219295467426269,1004.0771921821446,1,2
13.5,8.831632,-5.323352,-2.0834124,1004.0903300000001,8.19911137011038,1004.0767985188412,1,2
13.52,7.899578599999999,-5.595046,-2.0550053,1004.09296,8.172328362362599,1004.0765088592784,1,2
13.54,8.411029,-6.028804,-1.6194391000000001,1004.0776400000001,8.141013286492685,1004.0762569881952,0,0
13.56,8.678708,-6.357696,-0.4405713,1004.0953400000001,8.106415014197697,1004.0761031337488,0,0
13.58,8.998963999999997,-5.6856117,0.10388607,1004.0802,8.068786328378971,1004.0759819366783,0,0
13.6,8.931899000000003,-6.4530234,0.179623,1004.0799599999999,8.029395780711491,1004.0758891679747,0,0
13.62,8.492161999999999,-7.6732625999999975,-0.033424895,1004.0849599999999,7.989473258864487,1004.0758398525438,0,0
13.64,7.5792217000000015,-8.435912,0.06126355400000001,1004.0826400000001,7.9490069536414785,1004.0758207579596,0,0
13.66,6.326917,-8.50741,-0.00028335303,1004.0924699999999,7.9066706875541675,1004.0758638232567,0,0
13.68,5.490455,-8.083186,-0.25594085,1004.0971,7.861115078175416,1004.0759783259892,0,0
13.7,5.3279457,-7.978323,-0.8903506999999999,1004.06995,7.81258811426954,1004.07605779863,0,0
13.72,5.8824067000000015,-7.2538056,-1.4253381,1004.07745,7.761220272789942,1004.0761330325804,0,0
13.74,6.1500793,-7.0297775,-1.2596338,1004.0776,7.70748045193177,1004.0762047903818,0,0
13.76,5.8585150000000015,-7.1966076,-1.0418508,1004.0924699999999,7.651657748341508,1004.0763267503296,0,0
13.78,5.605189,-7.334838,-0.8903494000000001,1004.0871599999999,7.594062894276703,1004.0764735138383,0,0
13.8,6.0019164000000025,-7.225207000000001,-0.9471620000000001,1004.08246,7.535455241790652,1004.0766247454249,0,0
13.82,6.4129834,-7.063144,-0.9376928,1004.0717,7.476466249901644,1004.076740644571,0,0
13.84,6.618518400000001,-6.953513,-0.47845513,1004.0997,7.4174058707958785,1004.0769257067363,0,0
13.86,7.172979400000001,-6.691352999999999,-0.58734614,1004.0743,7.358942588209909,1004.0770797751213,0,0
13.88,7.5649276,-6.7962169999999995,-0.36009434,1004.0642,7.301942186113847,1004.0771695427555,0,0
13.9,7.995114,-6.624621,-0.08549854,1004.0816699999999,7.246871107128722,1004.0772650630837,0,0
13.92,8.549575,-6.1479654,-0.19912392,1004.0613,7.19401283803112,1004.0772919906184,0,0
13.94,8.535239,-5.9334702,-0.1991236,1004.0867,7.143018425467081,1004.0773496526216,0,0
13.96,8.353611,-5.96207,-0.6015476,1004.06964,7.093612744127983,1004.0773728480183,0,0
13.98,8.071606,-6.176565,-0.5021247999999999,1004.0867,7.0455714943382715,1004.0774269212179,0,0
14.0,8.100287,-6.2051644,-0.21806018,1004.0692,6.998971351176432,1004.0774450833808,0,0
14.02,8.119411,-6.4863915,-0.21805982,1004.069,6.954203733308232,1004.0774307291676,0,0
14.04,7.96168,-6.686586999999999,-0.36009166,1004.0815,6.9112347666642515,1004.07743269516,0,0
14.06,7.560181,-6.677053999999999,-0.49265468,1004.0841,6.869376526960927,1004.077458434608,0,0
14.08,7.316415299999999,-6.7533193,-0.47371668,1004.06854,6.828378996307339,1004.0774490716199,0,0
14.1,7.197808,-6.8820375999999985,-0.72929317,1004.0740400000001,6.788325109415936,1004.0774285258258,0,0
14.12,7.2121863,-6.7819410000000016,-0.67247677,1004.0813,6.749119742014809,1004.077424308869,0,0
14.14,7.001912,-7.0012035,-0.5446444,1004.0738,6.710792451015812,1004.0774075352541,0,0
14.16,6.9015784,-6.7628770000000005,-0.67720395,1004.08374,6.672900467199985,1004.0774155109613,0,0
14.18,6.95897,-6.753344500000001,-0.6914041,1004.07605,6.635603004479032,1004.0774176424563,0,0
14.2,6.7391380000000005,-6.896342,-0.76241654,1004.0812400000001,6.598862659547697,1004.0774332863325,0,0
14.22,6.6674833,-6.8391447,-0.7150685999999999,1004.0763,6.5625507526647135,1004.0774430294307,0,0
14.24,6.643621,-6.853445,-0.6866588,1004.0935699999999,6.5267305898828365,1004.0775096955266,0,0
14.26,6.7488136,-6.8010144,-0.53988886,1004.091,6.491529500864893,1004.0776171667849,0,0
14.28,7.021304,-6.6866174,-0.6866515999999999,1004.0785,6.4572592366232655,1004.0777153065884,0,0
14.3,6.911405,-6.6341867,-0.8902276,1004.0532,6.423729723171107,1004.0777137678148,0,0
14.32,6.8349686,-6.753350999999999,-0.7292542,1004.091,6.391006084398565,1004.0777602385904,0,0
14.34,7.030978999999999,-6.6341887,-0.7150474,1004.0705,6.359230824441428,1004.0777751633087,0,0
14.36,7.303464999999999,-6.638955,-0.7623880999999999,1004.0682400000001,6.3288364314783445,1004.0777540242019,0,0
14.38,7.40866,-6.6103570000000005,-0.861807,1004.04803,6.299910766815025,1004.0776283392005,0,0
14.4,7.5377535999999985,-6.4387627,-0.8191937,1004.08826,6.272347204791667,1004.0775555579116,0,0
14.42,7.6525087,-6.491194999999999,-0.8428623,1004.096,6.246341901748461,1004.0775576483563,0,0
14.44,7.5904107000000005,-6.3910985,-0.9186091000000001,1004.1033,6.221588971178585,1004.0776521679393,0,0
14.46,7.6430273,-6.557929,-0.68188524,1004.0907599999999,6.198299384869788,1004.0777828736383,0,0
14.48,7.427973700000001,-6.7152259999999995,-0.6013970000000001,1004.1005,6.176256882858684,1004.0779801468484,0,0
14.5,7.451911999999999,-6.562697,-0.7576286999999999,1004.09045,6.1552441930588175,1004.0781993489287,0,0
14.52,7.265536999999999,-6.6294303,-1.0606273000000002,1004.07025,6.135079754974455,1004.0783644182304,0,0
14.54,7.2034383,-6.6389637000000015,-0.8854506999999999,1004.0830000000001,6.1156201754637625,1004.0785269615598,0,0
14.56,6.983604,-6.6484985,-0.7008055999999999,1004.08777,6.096503391438153,1004.0787038597839,0,0
14.58,6.954964599999999,-6.767663499999999,-0.8428341999999999,1004.08026,6.0779102600510475,1004.0788657691597,0,0
14.6,6.819908,-6.8152985999999975,-0.85714924,1004.0980000000001,6.059719508133025,1004.0790777155153,0,0
14.62,6.9059334,-6.7247343,-0.55414826,1004.06995,6.041898927894099,1004.0792321315387,0,0
14.64,6.8820224,-6.686601,-0.5683526,1004.055,6.024380571871921,1004.0792813378641,0,0
14.66,6.8724523,-6.686601,-0.86662114,1004.07245,6.007224344237495,1004.0793002237564,0,0
14.68,7.125771,-6.7962313,-0.8760909,1004.0928,5.990986749696787,1004.0793655105257,0,0
14.7,7.135318799999999,-6.638934599999999,-0.7577318000000001,1004.09,5.9753898650069335,1004.0794614820767,0,0
14.72,7.2070054999999975,-6.529304,-0.913968,1004.0745,5.960398849434277,1004.079528421204,0,0
14.74,7.2117724,-6.438739,-1.2453777,1004.0875,5.9459556015345445,1004.0796162663004,0,0
14.76,7.202203,-6.586502,-0.88082933,1004.0797,5.9321559218125035,1004.079694187669,0,0
14.78,7.1878524000000015,-6.6484666,-0.52575,1004.0897,5.9189866793680945,1004.0797990599145,0,0
14.8,7.259537700000001,-6.6675330000000015,-0.49261028,1004.0745,5.9065545674434015,1004.0798726484152,0,0
14.82,7.0587744999999975,-7.0965223,-0.38372,1004.0822,5.895125265308738,1004.0799460496801,0,0
14.84,6.886691000000001,-6.9392257,-0.4642058,1004.0772,5.8841467875520586,1004.0800010212587,0,0
14.86,7.0444135999999995,-6.6722984,-0.8382248999999999,1004.05945,5.873505175872498,1004.0799756104692,0,0
14.88,7.450685000000001,-6.4053707000000015,-1.1933063999999998,1004.06934,5.863529716832933,1004.0799148692977,0,0
14.9,7.6514254,-6.3052735,-1.2927296999999998,1004.0945,5.854388387093244,1004.0799137048692,0,0
14.92,7.5367007,-6.4911685,-0.9471191999999999,1004.0744,5.846002677957242,1004.0798928266428,0,0
14.94,7.3215966,-6.5721993,-0.80982256,1004.0889,5.838065918086491,1004.0799068044656,0,0
14.96,7.245108,-6.562666,-0.81929237,1004.0815,5.8304251655452415,1004.0799248907739,0,0
14.98,6.843594,-6.7628613,-0.5304946999999999,1004.0993699999999,5.822712315947924,1004.0800108742294,0,0
15.0,6.6189337,-6.920158,-0.5020892,1004.0914300000001,5.814866061312977,1004.0801279580633,0,0
15.02,6.690618,-7.0536210000000015,-0.35058940000000005,1004.0843,5.8072195948226115,1004.0802464326898,0,0
15.04,6.8005424,-6.9010906,-0.6772643,1004.09656,5.799744073775184,1004.080409845712,0,0
15.06,6.972604,-6.8152924,-0.76721907,1004.08386,5.79258757251907,1004.0805666580143,0,0
15.08,7.0203904999999995,-6.9106229999999975,-0.7056728,1004.0864,5.785938199522147,1004.0807262173953,0,0
15.1,7.0356,-6.762881299999999,-0.92337584,1004.0639,5.779607533508796,1004.080806629682,0,0
15.12,7.1073210000000016,-6.729516,-0.69138783,1004.08655,5.773601354136886,1004.0808983581115,0,0
15.14,7.1838190000000015,-6.7485833,-0.5304161000000001,1004.074,5.768025325959637,1004.0809545752628,0,0
15.16,7.332018400000001,-6.4053910000000025,-0.52094495,1004.0839,5.762598068224598,1004.0810148522664,0,0
15.18,7.4754353,-6.5626880000000005,-0.45466128,1004.0989400000001,5.757754082907367,1004.0811326435588,0,0
15.2,7.523254,-6.4244585,-0.40258083,1004.0888699999999,5.753325419879566,1004.0812645784281,0,0
15.22,7.480263000000001,-6.352961,-0.26528066,1004.0933,5.74910573271316,1004.0814244835962,0,0
15.24,7.3942494000000005,-6.4721255,-0.25107536,1004.0715,5.745111440507157,1004.0815300476615,0,0
15.26,7.341697,-6.481659,-0.22740097,1004.0839,5.741260553022664,1004.0816318558984,0,0
15.28,7.4229765,-6.462593599999999,-0.25580534,1004.1064,5.737652569342675,1004.0818109789751,0,0
15.3,7.399101700000001,-6.467361,-0.25580314,1004.0864,5.734241334164082,1004.0819857726013,0,0
15.32,7.327427,-6.5722255999999994,-0.2984107,1004.0939,5.731051661440519,1004.082183111468,0,0
15.34,7.394369599999999,-6.6198916,-0.29367393,1004.0936,5.7282386106574075,1004.0823985808894,0,0
15.36,7.327476499999999,-6.6389580000000015,-0.36942223,1004.1039400000001,5.7256969889975355,1004.082666518779,0,0
15.38,7.2414627000000005,-6.605592999999999,-0.44043624,1004.0914,5.723231638479843,1004.0829347092304,0,0
15.4,7.1841289999999995,-6.7581234,-0.5019813,1004.0832,5.720976559333327,1004.0831726373602,0,0
15.42,7.2319483999999985,-6.715225,-0.45463535,1004.0807,5.718922347690069,1004.0833739691612,0,0
15.44,7.2367535000000025,-6.5817619999999994,-0.39308572,1004.0785,5.716867323324813,1004.0835343196517,0,0
15.46,7.1316204,-6.672327,-0.53985023,1004.0762300000001,5.7148005730712725,1004.083649709794,0,0
15.48,6.997812,-6.9058895000000025,-0.37414369999999997,1004.0936,5.712850532908144,1004.0837874895687,0,0
15.5,6.8974648,-6.924956,-0.30312496,1004.10333,5.710885749906179,1004.0839795848152,0,0
15.52,6.954838799999999,-6.8534584,-0.33152992,1004.09296,5.708896690193908,1004.0841816496696,0,0
15.54,7.093483,-6.7533607,-0.28891748,1004.08344,5.706952743451892,1004.0843575242363,0,0
15.56,7.0839476999999995,-6.724762400000001,-0.43568185,1004.0528,5.705011668947588,1004.084399319916,0,0
15.58,7.1604424,-6.7438293000000025,-0.4640866,1004.0835,5.70322542967209,1004.0844330130267,0,0
15.6,7.327764,-6.691397,-0.13741006,1004.0907,5.701742565203522,1004.0844853454128,0,0
15.62,7.628911500000001,-6.4101715,-0.21315873,1004.08777,5.700621525489754,1004.0845434110656,0,0
15.64,8.274208999999999,-5.7285542000000005,-0.8096916000000001,1004.0855,5.700093419887104,1004.0845981615963,0,0
15.66,7.3230553,-6.3863397000000015,-0.02851228,1004.0777,5.699302127178028,1004.084621705784,0,0
15.68,7.4760345999999975,-6.4816712999999995,0.47807136,1004.0653699999999,5.698674988981869,1004.0845732032867,0,0
15.7,7.4712714999999985,-6.538871,-0.05691484700000001,1004.0674,5.698242128017579,1004.0844685229488,0,0
15.72,7.5382130000000025,-6.3434424000000025,-0.37885216,1004.0624,5.6978383244745485,1004.0842965807196,0,0
15.74,7.0554824000000025,-6.138481,-0.60610086,1004.0749,5.696447949413232,1004.0841108248752,0,0
15.76,7.3566327000000005,-6.295778299999999,-0.5918956,1004.07025,5.694875116482557,1004.0838967920413,0,0
15.78,7.2273507,-6.429236,-0.47355622,1004.0824,5.693113137105127,1004.083702284178,0,0
15.8,7.4281235,-6.314839,-0.07112995,1004.0624,5.6913256949792315,1004.0834537288072,0,0
15.82,7.619332300000001,-6.596066499999999,0.23187348,1004.06976,5.6902094234888745,1004.0831848078577,0,0
15.84,7.5476522,-6.333906,0.056702048,1004.0799,5.689218148949322,1004.0829353639982,0,0
15.86,7.552447,-6.0479136,0.36917412,1004.0799,5.687986007662122,1004.0827040280938,0,0
15.88,7.3947296,-6.019315,0.72899044,1004.05206,5.686296277422635,1004.0823893011874,0,0
15.9,7.5668187000000025,-6.200444,0.61536616,1004.07745,5.684705822230773,1004.0820934270088,0,0
15.92,7.7054505,-6.1480125999999995,0.7100559000000001,1004.0822,5.683377249460353,1004.0818323762472,0,0
15.94,7.853639999999999,-6.152779,1.1124816000000002,1004.0824,5.682608052026045,1004.0816037552396,0,0
15.96,7.743722,-6.148013,1.09828,1004.0774,5.682148241227818,1004.0813866121988,0,0
15.98,7.6099039999999984,-6.2385782999999995,0.87576455,1004.0699,5.6818196313694775,1004.0811533928037,0,0
16.0,7.552562700000001,-6.1051145,1.1314238,1004.0771,5.681396260918907,1004.080932727932,0,0
16.02,7.3757256999999985,-6.152781,1.268723,1004.0824,5.680706385154947,1004.0807430306313,0,0
16.04,7.3661832999999985,-6.0288505999999975,1.2781934,1004.06995,5.6796083111534905,1004.0805365591856,0,0
16.06,7.5430517,-6.229046299999999,1.2734603999999998,1004.0797,5.678695704167772,1004.0803511094034,0,0
16.08,7.7008033,-6.2195134,1.3823533000000001,1004.0949,5.6782197793716955,1004.080239621982,0,0
16.099999999999998,7.576545200000001,-6.2433467,1.5575279,1004.0772,5.6780181598495,1004.0801301690573,0,0
16.12,7.495305,-6.352978,1.7895153000000001,1004.067,5.6781569540272026,1004.0799861878444,0,0
16.14,7.2372103,-6.3243794,1.5291243,1004.0719,5.678065957559358,1004.0798298557685,0,0
16.16,7.1464114,-6.343446299999999,1.7042988999999995,1004.097,5.677718989894219,1004.0797535332653,0,0
16.18,7.1081886,-6.3386793,1.6522218000000002,1004.0999,5.677063398915808,1004.0797586219817,0,0
16.2,7.2563796,-6.410178,1.647489,1004.0974,5.67646006048713,1004.0798266273323,0,0
16.22,7.3137546,-6.429245,1.5433337999999999,1004.0721,5.6759841050274025,1004.079858901002,0,0
16.24,7.5097426999999985,-6.5245767,1.9031501,1004.0495,5.676181885088573,1004.0797781259728,0,0
16.259999999999998,7.380704,-6.3768139999999995,1.6001495000000001,1004.0746,5.676466482697933,1004.0796881119037,0,0
16.28,7.322597,-6.2576313,1.6663625,1004.0517,5.676600109818917,1004.079507818269,0,0
16.3,7.217428999999999,-6.3291297,1.6190174,1004.0895,5.676516256585269,1004.0793844826677,0,0
16.32,7.112259,-6.495959,1.5906097,1004.0816,5.676298249463074,1004.0792834791928,0,0
16.34,7.1791615,-6.5197910000000014,1.6521556,1004.0691,5.676117936124432,1004.0791575719974,0,0
16.36,7.164809,-6.5436234,1.6568889999999998,1004.0895,5.675984369529349,1004.0790835531404,0,0
16.38,7.1026583,-6.600822,1.8983421000000005,1004.0719,5.675968832595322,1004.0789922892868,0,0
16.4,7.026167,-6.6055884,1.7705119999999999,1004.0791,5.675900662096312,1004.0789120363044,0,0
16.419999999999998,7.136089,-6.5912880000000005,1.5764002000000001,1004.1045,5.675862226846927,1004.0789332414386,0,0
16.44,7.0978369999999975,-6.65802,1.7136966,1004.0766,5.675933603307963,1004.078943578626,0,0
16.46,7.0117865,-6.5054893,1.510116,1004.0867,5.675689745988243,1004.0789806356817,0,0
16.48,6.983094,-6.5674543000000005,1.6237404,1004.0566,5.675250117367328,1004.0789328090074,0,0
16.5,7.0882363,-6.5293209999999995,1.7799745999999999,1004.0666,5.674800042971142,1004.0788461512456,0,0
16.52,7.375011,-6.3100595,1.5148466,1004.0991,5.674390970236166,1004.078842494303,0,0
16.54,7.351097999999999,-6.362491,1.8131129000000001,1004.0762300000001,5.674157181926379,1004.0788298580491,0,0
16.56,7.1025350000000005,-6.510254,1.7136890999999999,1004.0637,5.6738634963914345,1004.078764225166,0,0
16.58,7.0451627000000006,-6.4768877,1.6663436999999999,1004.0641,5.673368181918362,1004.0786534407398,0,0
16.599999999999998,6.9830117,-6.467355,1.6379362,1004.08405,5.67257963505237,1004.0785749792343,0,0
16.62,7.088153999999999,-6.419688,1.6663413,1004.0762300000001,5.671637761989754,1004.0784972087226,0,0
16.64,7.3605895000000015,-6.4053889999999996,2.0261548,1004.0635,5.671100675692477,1004.0783745007473,0,0
16.66,7.298438000000001,-6.3529563,1.9930128,1004.05334,5.6707437551891875,1004.0781759517773,0,0
16.68,7.1072315999999995,-6.5150190000000014,1.6663376,1004.0711699999999,5.6703502398969325,1004.0779752924814,0,0
16.7,7.1932554,-6.4578195,1.8273058999999998,1004.06146,5.670037079074733,1004.0777385348745,0,0
16.72,7.1502223,-6.519785,1.761023,1004.0559,5.669790666639369,1004.0774507171274,0,0
16.74,7.1788883000000006,-6.515018,1.6947403000000003,1004.0635,5.669616749709371,1004.0771461787843,0,0
16.759999999999998,7.202773,-6.3577213,1.5337691,1004.0658599999999,5.669273756785053,1004.0768364584607,0,0
16.78,7.185124000000001,-6.5341195999999995,1.6475294999999999,1004.0658599999999,5.669035470401718,1004.0765232743324,0,0
16.8,7.0991306,-6.448323,1.7043462,1004.0783,5.668662279989767,1004.0762529410492,0,0
16.82,6.7980485,-6.729551,1.3208636,1004.0783,5.667995681131319,1004.0760214439723,0,0
16.84,6.4635077,-7.0870440000000015,1.0794131999999999,1004.0656,5.66706396538251,1004.0757793759567,0,0
16.86,6.817253,-7.2252746,1.0368072,1004.0656,5.6665983520468926,1004.0755288389047,0,0
16.88,7.1136527,-6.967882,1.2072505,1004.06287,5.666635387629716,1004.0752618925457,0,0
16.9,7.338342999999999,-6.791520599999999,1.1125661,1004.0554,5.6671785993379284,1004.0749545159294,0,0
16.919999999999998,7.390967,-6.8296537,1.0036789000000002,1004.0603,5.668276744803883,1004.074630161694,0,0
16.94,7.367116,-6.7676897,0.67700946,1004.05035,5.669681338277424,1004.0742561537096,0,0
16.96,7.228544999999999,-6.8153567,0.35507387,1004.08026,5.671173935464253,1004.0739472941012,0,0
16.98,6.884444,-6.9726539999999995,0.23198351,1004.06287,5.672448379331299,1004.0736345074923,0,0
17.0,6.8127933,-7.082286,0.50184876,1004.07526,5.673605633069285,1004.0733639810178,0,0
17.02,6.7459216,-7.1680850000000005,0.6296819,1004.0653699999999,5.674703761415096,1004.0730961654933,0,0
17.04,6.7746434,-6.9821906,0.5776074000000001,1004.08026,5.675501376753359,1004.0728853135,0,0
17.06,6.76991,-6.9392924,0.48765785,1004.0681,5.67594968929162,1004.0726817775501,0,0
17.08,6.6839128,-6.9154606,0.31248853,1004.05023,5.6759127603143495,1004.0724211067856,0,0
17.099999999999998,6.660062299999999,-7.1633224,0.3408994,1004.0729,5.675788790393447,1004.0721925021137,0,0
17.12,6.511931400000001,-7.3301535000000015,0.33616892,1004.0579,5.6756375230358,1004.0719390540179,0,0
17.14,6.736631,-7.0965929999999995,0.35511097,1004.07776,5.675422443074528,1004.071736062686,0,0
17.16,6.9565477,-6.8916326,0.17047337,1004.0604,5.675156770563389,1004.0715158897196,0,0
17.18,7.042626400000001,-6.9345326,0.24149334,1004.07526,5.675040347939793,1004.0713348236833,0,0
17.2,6.813239,-7.0918303,0.18941882,1004.0804,5.674951418835218,1004.0712074683687,0,0
17.22,6.732028,-7.0679979999999984,0.07579729,1004.0677,5.674731450637278,1004.0710823103262,0,0
17.24,6.7846518,-7.2491283,0.17995837,1004.0726,5.674748096719292,1004.0709771843628,0,0
17.259999999999998,6.746455999999999,-7.239596400000001,0.3456665,1004.0675699999999,5.674914244862291,1004.070872029198,0,0
17.28,6.754330599999999,-7.0774919999999995,0.39759076,1004.08,5.674982239165581,1004.070811974789,0,0
17.3,6.754307700000001,-7.0679584,0.2318845,1004.05255,5.674937826746222,1004.0706931676041,0,0
17.32,6.8020806,-7.139456299999999,0.22241335,1004.0704300000001,5.674969809956327,1004.0705872421719,0,0
17.34,6.8307366,-6.8963614,0.30763057,1004.0627,5.674753170617082,1004.0704652523883,0,0
17.36,7.0362444,-6.9487929999999976,0.32656598,1004.09265,5.674697966063279,1004.0704373273073,0,0
17.38,6.9358429999999975,-7.0631895,0.48753342,1004.0649,5.674820355524923,1004.0703927183272,0,0
17.4,6.9644995,-7.082255,0.50646895,1004.0447,5.6751711196411705,1004.0702608080462,0,0
17.419999999999998,7.0696309999999984,-6.8677597000000015,0.49699798,1004.06476,5.675562312202304,1004.0701244492129,0,0
17.44,7.2177820000000015,-6.8200936,0.47805825,1004.0700699999999,5.67613950590671,1004.0700037665308,0,0
17.46,7.246438499999999,-6.7581277,0.36916488,1004.0719,5.6768246331967545,1004.0699039577535,0,0
17.48,7.0408826,-6.824859,0.302881,1004.0699,5.677384031237429,1004.0698157524696,0,0
17.5,6.7253914,-7.1871165999999995,0.34075403,1004.0977,5.6779103732378875,1004.069838197572,0,0
17.52,6.586755,-7.2490809999999986,0.49225295,1004.05945,5.678318393981486,1004.0698206325533,0,0
17.54,6.6393070000000005,-7.434976,0.38809368,1004.08234,5.678970587490728,1004.0698501818256,0,0
17.56,6.835254700000001,-7.3825436,0.2839346,1004.08,5.6800221831946835,1004.0699128309077,0,0
17.58,6.949942599999999,-7.0345845,0.24605682,1004.08234,5.681063004892973,1004.0700129254456,0,0
17.599999999999994,6.6870337,-7.1537479999999976,0.080350906,1004.0799,5.681884806498188,1004.0701369624478,0,0
17.62,6.5675149999999975,-7.182347,0.23184963,1004.0948,5.68239018448931,1004.0703353484779,0,0
17.64,6.567492,-7.1346803,0.17976913,1004.0973,5.682538838679492,1004.0706077151198,0,0
17.66,6.6439447,-7.230011,0.1513605,1004.0969,5.682624125897419,1004.07094303051,0,0
17.68,6.8781314,-7.053648,0.21763995,1004.05164,5.682724109967051,1004.071169824279,0,0
17.7,6.9259057,-6.9821490000000015,0.36440429999999996,1004.07715,5.682809425956331,1004.0713917478861,0,0
17.72,6.8589654000000015,-6.9249496,0.3549334,1004.0744,5.682698492013181,1004.0715986692925,0,0
17.74,6.8302565,-6.986914,0.44488436,1004.0641,5.682472111993791,1004.071754509838,0,0
17.759999999999994,6.7920000000000025,-7.0441119999999975,0.53010195,1004.08655,5.682183229433317,1004.0719454743083,0,0
17.78,6.9071617,-6.948792,0.5632836999999999,1004.08154,5.681869841683673,1004.0721487508072,0,0
17.8,6.9453955,-6.9964576,0.44492313,1004.0766,5.681649450992702,1004.0723443904184,0,0
17.82,6.983629,-6.967859,0.3928442,1004.0866,5.681521455703218,1004.0725685777734,0,0
17.84,6.8736887000000015,-7.015524,0.29815567,1004.0666,5.681378240584322,1004.0727451828404,0,0
17.86,6.754189,-7.0012235999999985,0.18452954,1004.0740400000001,5.681021876452125,1004.0729058924193,0,0
17.88,6.6777067,-7.0727224,0.2602795,1004.0588,5.680479809150177,1004.0729971141903,0,0
17.9,6.763737700000001,-7.168053,0.13718452,1004.0941,5.680037183234319,1004.0731536881362,0,0
17.919999999999995,6.801971400000001,-7.129921,0.31709146,1004.0666,5.679689834849423,1004.0732684435976,0,0
17.94,6.830647,-7.015523,0.26974708,1004.0869,5.679295200413679,1004.0734189151262,0,0
17.96,6.854539999999999,-6.996456599999999,0.23660569,1004.06635,5.678864770610821,1004.0735264236744,0,0
17.98,6.911892999999999,-7.0393558,0.26027733,1004.07135,5.6785525848838665,1004.0736135831024,0,0
18.0,6.931008,-6.9821568,0.29815215,1004.07385,5.678291567153367,1004.073691448274,0,0
18.02,6.8832045,-7.087021000000001,0.383371,1004.0436,5.6781686760803725,1004.0736519207255,0,0
18.04,6.959675,-6.986923,0.39757362,1004.066,5.678132600750754,1004.0735894472693,0,0
18.06,6.911872,-6.991689699999999,0.42124520000000004,1004.06616,5.678112511415612,1004.0735074997133,0,0
18.08,6.8592889999999995,-7.001222,0.32655662,1004.0988,5.678036634876503,1004.0735261438537,0,0
18.1,6.8353853,-7.0345883,0.30288416,1004.071,5.677925093135066,1004.0735335236983,0,0
18.12,6.916637,-7.0298214,0.27447724,1004.0785,5.677891640970062,1004.0735579238437,0,0
18.14,6.930973,-6.9249573,0.2508049,1004.0984,5.677792321153808,1004.0736689152859,0,0
18.16,6.8305902000000005,-6.9726224000000006,0.30761716,1004.08136,5.677562152848015,1004.0737946752297,0,0
18.18,6.7541084000000025,-7.1108522,0.31235114,1004.071,5.6773138793906135,1004.0738957358853,0,0
18.2,6.7780023,-7.0536537,0.39283556,1004.06573,5.677004898664316,1004.0739556364308,0,0
18.22,6.8305755,-7.0631866,0.37863192,1004.081,5.676732261118476,1004.0740339242623,0,0
18.24,6.9261669999999995,-6.948789,0.29814655,1004.0559699999999,5.676456500551609,1004.0740380692624,0,0
18.26,6.8210063,-7.0536532,0.31708372,1004.06854,5.6761826089961644,1004.0740219387352,0,0
18.28,6.788869,-7.1108847000000015,0.37401754,1004.0433,5.675954986716187,1004.0738970868222,0,0
18.3,6.8223759999999976,-7.1156526,0.39769396,1004.0481599999999,5.675826257533664,1004.0736941141589,0,0
18.32,6.965814999999999,-6.9583573,0.22725952,1004.0857,5.675749261764523,1004.073557988703,0,0
18.34,6.95631,-6.9345255,0.22253009999999998,1004.07074,5.6756690701661086,1004.0734275634908,0,0
18.36,6.946791999999999,-6.9631257,0.25567478,1004.0557,5.6756160443970884,1004.0732485005444,0,0
18.38,6.9659595,-7.0393925,0.24621038,1004.0757,5.675727195866159,1004.0730991059233,0,0
18.4,6.8990936000000005,-7.02986,0.2651527,1004.078,5.675872407458159,1004.0729847440546,0,0
18.42,6.8561233999999995,-7.0536942,0.33143878,1004.0653699999999,5.676024413450643,1004.0728562808287,0,0
18.44,6.875285000000001,-7.0965940000000005,0.25095776,1004.08325,5.67626862135043,1004.0727801881116,0,0
18.46,6.822758,-7.1156619999999995,0.25096244,1004.0856,5.676546207501095,1004.0727591039093,0,0
18.48,6.8467020000000005,-7.0536976,0.24149777,1004.0804,5.676793677722192,1004.0727679811342,0,0
18.5,6.932787400000001,-6.958367999999999,0.28411183,1004.0653699999999,5.677000203768923,1004.0727491923179,0,0
18.52,6.985410000000001,-7.010801,0.21783429999999998,1004.10114,5.677320650605086,1004.0728347974276,0,0
18.54,6.9328833,-6.9250039999999995,0.15155731,1004.08105,5.677534733947773,1004.0729400128321,0,0
18.56,6.8899107000000015,-7.077535000000001,0.23204629,1004.08075,5.677820158401519,1004.0730610971167,0,0
18.58,6.8373814,-7.0346375,0.25572276,1004.05505,5.678028815180878,1004.0731032472412,0,0
18.6,6.8565454,-7.039405,0.22732048,1004.0581,5.678202305652425,1004.0730864794012,0,0
18.62,6.794459,-7.039406,0.37409169999999997,1004.06256,5.678263666442509,1004.0730337680119,0,0
18.64,6.7658252999999995,-7.077539999999999,0.42143990000000003,1004.0776,5.6782456444300875,1004.0730036306636,0,0
18.66,6.660717999999999,-7.0680074999999984,0.31255302,1004.0754,5.677984387053264,1004.072985628232,0,0
18.68,6.6703258000000005,-7.149039999999999,0.35516706,1004.0903300000001,5.677648618415152,1004.0730321610221,0,0
18.7,6.6608085999999975,-7.1585746,0.36463973,1004.0673,5.677249958106668,1004.0730526416155,0,0
18.72,6.6847587,-7.27774,0.19894023,1004.06506,5.6770028599440945,1004.073041964758,0,0
18.74,6.7182627,-7.2157755,0.23208517,1004.0701,5.676844810140696,1004.0730219396137,0,0
18.76,6.751766,-7.053714,0.17054208,1004.0701,5.676566292714546,1004.0729937264133,0,0
18.78,6.888978999999999,-6.920216,0.11833534,1004.0596300000001,5.676181387180612,1004.0729206878143,0,0
18.8,7.0036836,-6.820117999999999,0.05205269,1004.07275,5.675725866980313,1004.0728555364324,0,0
18.82,7.104050599999999,-6.9011493,0.20355281,1004.0623,5.6754806194211564,1004.0727599687402,0,0
18.84,6.9845443,-7.1537766000000005,0.37872478,1004.0773300000001,5.675627583714693,1004.07269197724,0,0
18.86,6.9032784,-7.10611,0.426068,1004.0646,5.675935885381109,1004.072602768832,0,0
18.88,6.931947,-6.9821800000000005,0.33137897,1004.0673,5.67623616727502,1004.0725048543152,0,0
18.9,6.960615,-6.963113000000001,0.36925325,1004.0545699999999,5.676545050738229,1004.0723537715725,0,0
18.92,6.9940643,-7.0012455000000005,0.39292437,1004.0796,5.676967447945057,1004.0722463612833,0,0
18.94,6.888899,-7.0203114,0.29823536,1004.0545699999999,5.677356184146738,1004.0720878186513,0,0
18.96,6.9797053,-7.07751,0.27929688,1004.08734,5.6779296459189,1004.0720026382343,0,0
18.98,6.903219,-7.2729387,0.43553135,1004.044,5.678857155901965,1004.07182656332,0,0
19.0,6.7263556,-7.1299414999999975,0.42132717,1004.0568,5.6796247808293225,1004.0716168878979,0,0
19.02,6.726344999999999,-7.2205059999999985,0.2934973,1004.06934,5.680375938116751,1004.0714234218988,0,0
19.04,6.554262,-7.0632095,0.28876194,1004.0768400000001,5.680626785576582,1004.071271975023,0,0
19.06,6.611610400000001,-7.125175,0.32663634,1004.0896,5.6806125548610105,1004.0712041374536,0,0
19.08,6.721536,-7.244338000000001,0.3266354,1004.0644,5.680700927540027,1004.0711197012822,0,0
19.1,6.7645445,-7.3349023,0.31243134,1004.08655,5.681077472422188,1004.0711006425566,0,0
19.12,6.683277599999999,-7.4064007,0.26035193,1004.0615,5.681700136295327,1004.0710492399536,0,0
19.14,6.7454057,-7.258637400000001,0.16566297,1004.0690300000001,5.682394552985201,1004.0709965513496,0,0
19.16,6.7692943,-6.9678770000000005,0.0804427,1004.0691,5.6827437569312105,1004.0709431681144,0,0
19.18,6.6354494000000015,-7.196671,0.16566107,1004.05396,5.682943057811718,1004.0708348592824,0,0
19.2,6.568522,-7.349201,0.3834428,1004.0415,5.683163006495008,1004.0706335521048,0,0
19.22,6.644989999999999,-7.311068,0.54441166,1004.0690300000001,5.6834635989002935,1004.0704499042954,0,0
19.24,6.740576299999999,-7.1776047000000025,0.5538797,1004.08655,5.6837666331564405,1004.0703455934354,0,0
19.26,6.9460974,-7.0870395,0.5254722,1004.03894,5.684227185995536,1004.0701403642232,0,0
19.28,6.9181646999999975,-7.010793,0.34089878,1004.044,5.68465492666906,1004.06986491838,0,0
19.3,6.8990655,-7.048926,0.13258682,1004.0465,5.685070433157829,1004.0695374207268,0,0
19.32,6.6218557,-7.2777210000000006,0.14205737,1004.0663,5.6854243039222085,1004.069236389086,0,0
19.34,6.6218762,-7.158557400000001,0.21307529999999997,1004.0289,5.685542666218977,1004.0688251865273,0,0
19.36,6.6505756,-7.087060000000001,0.22728036,1004.0487699999999,5.685385127412295,1004.0683896492748,0,0
19.38,6.793989999999999,-7.001262,0.15626615,1004.03076,5.6850582260450535,1004.0678693418213,0,0
19.4,6.784451,-7.0250955,0.3409098,1004.0309,5.684614416327897,1004.0672765085247,0,0
19.42,6.8274880000000016,-7.177625999999999,0.39772442,1004.05365,5.684363903648893,1004.0667036255933,0,0
19.44,6.870527,-7.1299604999999975,0.36931986,1004.0534,5.684273114084035,1004.0661495331826,0,0
19.46,7.066519,-7.001264,0.31250885,1004.0638,5.6844152660691,1004.0656514788096,0,0
19.48,7.042636,-6.877333999999999,0.24622868,1004.04364,5.684542913105305,1004.0651321566417,0,0
19.5,6.9279447,-6.882101,0.23202753,1004.0559,5.684493727125202,1004.06464004781,0,0
19.52,6.880164999999999,-6.9583664,0.14681,1004.0408,5.684327106991823,1004.0641193962742,0,0
19.54,6.7941484,-7.0679975000000015,0.28884402,1004.0131,5.6841022313333545,1004.0634756787508,0,0
19.56,6.8706460000000025,-7.0775312999999995,0.47348768,1004.0509599999999,5.68396617470179,1004.0628618335032,0,0
19.58,6.9423637000000005,-7.039399,0.3645982,1004.0709,5.683947050348417,1004.0623483772423,0,0
19.6,6.908925,-7.206228999999999,0.5208354000000001,1004.0555400000001,5.68424571837463,1004.0618701771317,0,0
19.62,6.8468065000000005,-7.0489335,0.42141467,1004.0155,5.684489753215238,1004.0612807068767,0,0
19.64,7.0236797000000015,-6.6437774,0.33146283,1004.01025,5.684347761513558,1004.0605761404142,0,0
19.66,7.0093594,-6.7820077,0.30779257,1004.0555400000001,5.684040578809607,1004.0599354553827,0,0
19.68,6.698692299999999,-7.0489354,0.49243623,1004.02075,5.683543864719591,1004.0592282784494,0,0
19.7,6.76085,-7.168099400000001,0.572923,1004.0274699999999,5.683158839270043,1004.0584890871088,0,0
19.72,6.689172,-7.230066000000001,0.5634559,1004.0356400000001,5.682865186658393,1004.0577536809263,0,0
19.74,6.923404,-6.929773,0.38355047,1004.073,5.682522932802848,1004.0571587627724,0,0
19.76,6.9664416,-6.872574,0.29359853,1004.05066,5.682112170778586,1004.0566096975456,0,0
19.78,6.8417454,-7.1394915999999995,0.45452973,1004.0309,5.681868115554418,1004.0560319886,0,0
19.8,6.6887940000000015,-7.0155606,0.35510746,1004.03015,5.681358188531874,1004.0554283498168,0,0
19.82,6.8274107000000015,-7.0393940000000015,0.3503733,1004.0426,5.680850071661532,1004.0548487925287,0,0
19.84,6.7174783,-7.0632267,0.38351437,1004.03754,5.680225505393256,1004.0542743840556,0,0
19.86,6.846535,-6.9392960000000015,0.25568566,1004.0655,5.679493204681236,1004.0538072489462,0,0
19.88,6.822639,-7.087060000000001,0.29356113,1004.0255,5.6788557625777125,1004.0532925822673,0,0
19.9,6.7700634000000015,-7.172857799999999,0.37878063,1004.0576,5.678364124043246,1004.052853329494,0,0
19.92,6.946919,-6.9392962,0.31723365,1004.0600599999999,5.677906737974199,1004.052491149757,0,0
19.94,7.0138383,-6.948829700000001,0.27462417,1004.06,5.67759113386645,1004.0521981596023,0,0
19.96,6.817868700000001,-7.006028,0.3314373,1004.0426,5.677203390192701,1004.0519047201273,0,0
19.98,6.85133,-7.1204257,0.4166568,1004.0503,5.676979109092028,1004.0516396600143,0,0
20.0,6.712718,-7.1537914,0.43559468,1004.0378,5.676753730795699,1004.0513556301227,0,0
20.02,6.8656745,-6.982196000000001,0.40718845,1004.04474,5.676488712246868,1004.0510808450418,0,0
20.04,6.927814,-6.982196000000001,0.44979832,1004.0221,5.676284159916527,1004.0507337139024,0,0
20.06,6.760524,-7.025094999999999,0.53028345,1004.05475,5.675963116136623,1004.0504414474574,0,0
20.08,6.8609023,-7.144259,0.4497988000000001,1004.03723,5.675854702384656,1004.0501356396156,0,0
20.1,6.9756193,-7.106126299999999,0.4592678,1004.0369999999999,5.676044576231852,1004.0498181395044,0,0
20.12,6.942164,-7.0822935,0.45453364,1004.0269999999999,5.676412914340032,1004.0494554511037,0,0
20.14,6.918267999999999,-6.9631295,0.28882974,1004.05225,5.676713632833129,1004.0491450400087,0,0
20.16,6.8513527000000005,-7.125192599999999,0.29829875,1004.05475,5.677097716449713,1004.0488909386212,0,0
20.18,6.8848142999999995,-7.048928,0.42139350000000003,1004.0145,5.677498016652229,1004.0485426072563,0,0
20.2,6.908714999999999,-7.048928,0.40245607,1004.0319999999999,5.677944273150175,1004.048175268276,0,0
20.22,6.9134974,-6.953597,0.36458114,1004.0447,5.67829253695729,1004.0478381765872,0,0
20.24,6.774886,-7.106127000000001,0.38351896,1004.0545,5.6785806196623625,1004.0475643049356,0,0
20.26,6.837026,-7.0965934000000015,0.58236426,1004.0672599999999,5.6789097223653044,1004.0473932164463,0,0
20.28,6.869853999999999,-7.0107803,0.66752577,1004.04706,5.6792048993794655,1004.0472408430777,0,0
20.3,6.831597,-7.1490100000000005,0.5633670999999999,1004.0492,5.679606416016205,1004.0471132589344,0,0
20.32,6.841135,-6.9964794999999995,0.4828803,1004.0295,5.679877700114353,1004.046937117853,0,0
20.34,7.0514193,-7.1156429999999995,0.40712735,1004.0495,5.680508493188027,1004.0467907059692,0,0
20.36,7.21869,-7.373036999999999,0.51128215,1004.0495,5.682088914262727,1004.0466710898872,0,0
20.38,7.0752745,-7.3158369999999975,0.47340497,1004.0392,5.684206208964494,1004.0465385011937,0,0
20.4,7.204303299999999,-7.0918083,0.20354153,1004.0319999999999,5.686629724442228,1004.0463690072197,0,0
20.42,7.1708229999999995,-7.125174,0.24614921,1004.0519400000001,5.6893163495483705,1004.0462392979182,0,0
20.44,7.0608664,-7.2300377000000005,0.64857167,1004.0822,5.69225665017142,1004.0462541453066,0,0
20.46,6.998705999999999,-7.1919045,0.7101168999999999,1004.06476,5.695272517361495,1004.0463338855363,0,0
20.48,7.041701299999999,-7.2491026,0.43078488,1004.04926,5.698458749145497,1004.0464148780154,0,0
20.5,7.1038175,-7.2252693,0.43551734,1004.0168,5.701839223972197,1004.0463798294087,0,0
20.52,7.1181339999999995,-7.2443347000000005,0.42131203,1004.0438,5.7054269922805405,1004.0463395730743,0,0
20.54,7.1228929999999995,-7.334899000000001,0.4307789000000001,1004.0591,5.709327273094533,1004.0463499401139,0,0
20.56,7.170667599999999,-7.3253655,0.3408231,1004.0438,5.713537699899281,1004.0463499206461,0,0
20.58,6.8838577,-7.382563,0.39289959999999996,1004.0292400000001,5.717685261835513,1004.0462883077297,0,0
20.6,6.926852,-7.5541587,0.34555334,1004.04675,5.7220810966026585,1004.0462355286487,0,0
20.62,7.227958,-7.3587294000000005,0.364489,1004.0413,5.726817971382648,1004.04617112515,0,0
20.64,7.270952,-7.3634960000000005,0.5065189,1004.03174,5.73192126721041,1004.0460622661677,0,0
20.66,7.423885,-7.210965,0.4591729000000001,1004.0566,5.7373278088372235,1004.0460040142128,1,3
20.68,7.3426046000000005,-7.3253619999999975,0.60593736,1004.0413,5.7430448412088095,1004.0459356083344,1,3
20.7,7.299564,-7.5160240000000025,0.51124716,1004.0337,5.749224061814518,1004.0458311167102,1,3
20.72,7.447715,-7.4111585999999985,0.440229,1004.0437,5.7558440361774945,1004.0457311158908,1,3
20.74,7.342538,-7.4635906,0.77636975,1004.0388,5.7627933568204295,1004.0456178031498,1,3
20.76,7.323398599999999,-7.439757000000001,0.5964606,1004.0284,5.769921100298285,1004.0454556959204,1,3
20.78,7.3631277000000015,-7.3492293,0.29359509999999994,1004.0234,5.777078737717629,1004.0452330574667,1,3
20.8,7.238892999999999,-7.454095,0.3409429,1004.0084,5.7842138757739425,1004.0449037351227,1,3
20.82,7.3679833,-7.473161699999999,0.58240074,1004.0238,5.791541363837086,1004.0445367724531,1,3
20.84,7.2198477,-7.606625599999999,0.7197020000000001,1004.0312,5.799015439998628,1004.044164511857,1,3
20.86,7.2342252999999985,-7.435030999999999,0.60607976,1004.0312,5.80634118146146,1004.043788910152,1,3
20.88,7.2820616,-7.4350320000000005,0.57294244,1004.0359,5.813574923395884,1004.0434286284086,1,3
20.9,7.191283,-7.516064599999999,0.54927385,1004.0084,5.820688476571736,1004.042984180398,1,3
20.92,7.3203735,-7.5208315999999975,0.6155588000000001,1004.0284,5.8278710382927885,1004.0425389630864,1,3
20.94,7.459026,-7.3873690000000005,0.3172948,1004.02094,5.835067087462707,1004.0420678128028,1,3
20.96,7.325227000000001,-7.3778367,0.3693765,1003.99335,5.842042049385277,1004.041476120286,1,3
20.98,7.291803999999999,-7.406436999999999,0.33623895,1003.9934,5.8487876470314815,1004.0407802267453,1,3
21.0,7.258386,-7.5113020000000015,0.4261963,1004.0437,5.855420588169898,1004.0401758463962,1,3
21.02,7.454396000000001,-7.3921394,0.5114191,1004.0134,5.862047870226152,1004.0395454228727,1,3
21.04,7.483113,-7.3969064,0.45934415,1004.0029,5.868690634086343,1004.0388564571252,1,3
21.06,7.4640309999999985,-7.277744,0.49722287,1004.0234,5.875125151633588,1004.038192043745,1,3
21.08,7.182061,-7.2920440000000015,0.43094465,1004.0158,5.880952206294284,1004.0375243567247,1,3
21.1,6.938327,-7.425509,0.37886944,1004.0233,5.8860668177984445,1004.0368831807897,1,3
21.12,6.900124000000001,-7.4779425,0.6534681999999999,1003.99084,5.890588229898282,1004.0361508822823,1,3
21.14,7.091354400000001,-7.4731765,0.82391024,1004.0084,5.894858355110036,1004.0354039201449,1,3
21.16,7.3208210000000005,-7.3873796,0.71975666,1003.9959,5.899078423839217,1004.0346016902879,1,3
21.18,7.1487856,-7.334948,0.4167582,1003.97546,5.9028766223025535,1004.0336799299013,1,3
21.2,7.115362599999999,-7.392147500000001,0.36468303,1003.9780000000001,5.906321299412613,1004.032665014676,1,3
21.22,7.2970380000000015,-7.253918,0.2984053,1004.00085,5.9094967957877,1004.0316537015301,1,3
21.24,7.3018537,-7.2539190000000024,0.30314294,1003.9680000000001,5.912430398102101,1004.0305309519085,1,3
21.26,7.191953999999999,-7.334952,0.4830536,1003.9605,5.915112511398831,1004.0292867789163,1,3
21.28,7.072088000000001,-7.339709299999999,0.50195724,1003.9426,5.917398277690488,1004.0278753552564,1,3
21.3,6.9956309999999995,-7.201478999999999,0.5445687,1003.95294,5.9190136191233185,1004.0263584540314,1,3
21.32,7.1390467000000015,-7.1871800000000015,0.56350833,1003.9301,5.92022032233901,1004.0246715896744,1,3
21.34,6.990892999999999,-7.0823164000000025,0.5019629,1003.9455,5.9206838139422056,1004.022896058606,1,3
21.36,6.9478965,-7.1299825,0.42148003,1003.94525,5.920489331975299,1004.0210476735427,1,3
21.38,6.880999,-7.3778440000000005,0.42148188,1003.93304,5.9199908694553915,1004.0190976128763,1,3
21.4,6.8905807,-7.182416,0.40254626,1003.9229,5.9189428164337405,1004.0170282278647,1,3
21.42,6.971858999999999,-7.115685000000001,0.4735643,1003.9022,5.917437400374523,1004.0147863376483,1,3
21.44,6.8810625,-7.1395183000000015,0.46883172,1003.9203,5.915436926093644,1004.0124652526376,1,3
21.46,6.9002047000000015,-7.172884,0.51617783,1003.9177,5.91308854923545,1004.0100731870128,1,3
21.48,6.8858852,-7.287282,0.42622605,1003.9102,5.910583795451082,1004.0076000143532,1,3
21.5,6.823769599999999,-7.4016800000000025,0.42149359999999997,1003.88525,5.908035125809412,1004.0049742589397,1,3
21.52,6.876369500000001,-7.234850999999999,0.43096438,1003.8947,5.905279388559491,1004.002257154124,1,3
21.54,6.8763895,-7.0870885999999995,0.2368556,1003.88745,5.9021156905377925,1003.999443014554,1,3
21.56,6.809493499999999,-7.139521,0.37415534,1003.88745,5.898593888762826,1003.9965532659776,1,3
21.58,6.847755,-7.2682185,0.5114552,1003.85474,5.8950296526715436,1003.9934893563781,1,3
21.6,6.819096000000001,-7.2777524000000025,0.5161914000000001,1003.8623,5.891414947749483,1003.9903098041729,1,3
21.62,6.8955936,-7.1967216,0.5777405,1003.8797599999999,5.887762790839926,1003.9871023725493,1,3
21.64,6.8430386,-6.9297949999999995,0.3410224,1003.8525,5.883594455191005,1003.9837837174257,1,3
21.66,6.8000393,-6.8678300000000005,0.2273984,1003.8723,5.878823763740442,1003.9804500123753,1,3
21.68,6.795281,-7.0584926999999995,0.4499174,1003.8523,5.873830555069206,1003.9770430105484,1,3
21.7,6.852661599999999,-7.082325999999999,0.46885709999999997,1003.83734,5.868778881144651,1003.9735296528964,1,3
21.72,6.857461,-7.182424,0.52567184,1003.85425,5.863856375395247,1003.9699958433245,1,3
21.74,6.7810063,-7.0203619999999995,0.40731367,1003.8471,5.8587014592808,1003.9664309441507,1,3
21.76,6.69021,-7.001296000000001,0.38364349999999997,1003.8423,5.8531985544344565,1003.9628341278419,1,3
21.78,6.703564,-7.172867999999999,0.45930383,1003.8471,5.847692758182214,1003.9592393380914,1,3
21.8,6.732222999999999,-7.1824,0.47350517,1003.8298300000001,5.842260733546872,1003.9555971082505,1,3
21.82,6.6652865000000014,-7.253897999999999,0.4403626,1003.8368,5.836924527676504,1003.9519511643733,1,3
21.84,6.674828,-7.2252984,0.45456415,1003.8272,5.831663289793896,1003.9482805041721,1,3
21.86,6.722606,-7.2395973,0.2320453,1003.8343,5.8265603620462825,1003.9446267790026,1,3
21.88,6.7130300000000025,-7.2443643,0.28412226,1003.8272,5.8216122450200976,1003.9409756110388,1,3
21.9,6.9281025,-7.0394015,0.32673013,1003.80145,5.816822120441994,1003.9372471468263,1,3
21.92,6.99978,-6.91547,0.34566605,1003.7969400000001,5.81211315497327,1003.9334475701194,1,3
21.94,6.8754873,-6.8630375999999975,0.4592901,1003.8117699999999,5.80724269323645,1003.9296522248887,1,3
21.96,6.689056,-7.0632334000000006,0.5350388,1003.81714,5.802282773174657,1003.9258936138336,1,3
21.98,6.6794777000000005,-7.0965979999999975,0.5303026999999999,1003.79675,5.797297828365963,1003.9221075880953,1,3
22.0,6.7272563,-7.101364,0.6297234,1003.7993,5.792396219155883,1003.9183201484357,1,3
22.02,6.741579,-7.0250993,0.5160962,1003.78217,5.787478032975264,1003.914483426218,1,3
22.04,6.636403,-7.0679975000000015,0.5208287,1003.79175,5.782477717080987,1003.9106514581323,1,3
22.06,6.645944,-7.134728999999999,0.4072013,1003.7644,5.77752628921026,1003.9067390258824,1,3
22.08,6.688944,-7.249125999999999,0.37405887,1003.73895,5.772868082994945,1003.9026779602533,1,3
22.1,6.7176029999999995,-7.358756,0.45454186,1003.7639999999999,5.768700692121211,1003.8985903620064,1,3
22.12,6.794061999999999,-7.1633267000000025,0.36458653,1003.7411,5.764785316125455,1003.8944115948923,1,3
22.14,6.8753,-7.0012636,0.34091279999999996,1003.75635,5.760979908135531,1003.8902222145283,1,3
22.16,6.7414460000000025,-7.2252913,0.492412,1003.7639999999999,5.757442546929424,1003.8860660780667,1,3
22.18,6.7031884,-7.210991,0.6155048000000001,1003.76636,5.754093289435465,1003.881962774008,1,3
22.2,6.860904,-7.0870605,0.5066118,1003.73145,5.750948104112164,1003.8777952485556,1,3
22.22,6.9182444000000025,-6.944063000000001,0.3787813,1003.7389,5.74785419406705,1003.8736128001707,1,3
22.24,6.779609,-6.9774284,0.5018739000000001,1003.7189300000001,5.744675751397693,1003.8693603306973,1,3
22.26,6.7700334,-6.986961,0.49240363,1003.7209,5.741433413198795,1003.8650683914802,1,3
22.28,6.6896358,-6.848752,0.3409813,1003.68335,5.737810599210337,1003.8606218477786,1,3
22.3,6.6992119999999975,-6.9154839999999975,0.37412366,1003.70844,5.733980423825173,1003.8561450271118,1,3
22.32,6.708786999999999,-6.9154843999999995,0.49248517,1003.7135599999999,5.730005707071284,1003.8516760022729,1,3
22.34,6.622769,-6.972683999999999,0.39306438,1003.7414,5.72587008653265,1003.8473301783174,1,3
22.36,6.6801424,-6.9250183000000005,0.43094105,1003.701,5.721621427405782,1003.8429634196283,1,3
22.38,6.5797815,-6.934552,0.44041124,1003.7036,5.717159325533237,1003.8386032433397,1,3
22.4,6.6180367,-6.9393187,0.44988155,1003.6886599999999,5.7125875170598945,1003.8342107958953,1,3
22.42,6.646731,-6.8725869999999984,0.52563345,1003.6759599999999,5.70788459188963,1003.829759926468,1,3
22.44,6.656307000000001,-6.9250197,0.41674367,1003.69604,5.703163783090663,1003.8253457465069,1,3
22.46,6.6180863,-6.896421000000001,0.47829252,1003.69855,5.698352344074934,1003.8209889124057,1,3
22.48,6.732817,-6.6962266,0.36466822,1003.68115,5.693338092542183,1003.8166357937092,1,3
22.5,6.7471770000000015,-6.681927000000001,0.38834214,1003.6558,5.688164884888196,1003.8122103691716,1,3
22.52,6.6133585,-6.658094999999999,0.4167501,1003.6936599999999,5.68264075335047,1003.8078732827213,1,3
22.54,6.670732000000001,-6.681928,0.4120170999999999,1003.6809,5.676945129090122,1003.803583929316,1,3
22.56,6.6659646,-6.61043,0.4120182,1003.66583,5.671006662245891,1003.7992979425014,1,3
22.58,6.5656095,-6.581831,0.46409854,1003.67615,5.664690598259188,1003.7950675119592,1,3
22.6,6.4939230000000014,-6.5818315,0.46409962,1003.6508,5.657958821721513,1003.7908101404887,1,3
22.62,6.4318066,-6.600898,0.41202304,1003.64624,5.650816802989812,1003.786527874552,1,3
22.64,6.4461627,-6.577066,0.49724382,1003.6484,5.643332181723657,1003.7822468040216,1,3
22.66,6.4891977,-6.562766000000001,0.39782286,1003.6434300000001,5.635603282343157,1003.7779643096068,1,3
22.68,6.446194599999999,-6.5723,0.3410114,1003.64124,5.6276330770944405,1003.7736880900273,1,3
22.7,6.3840694000000004,-6.6437984,0.37415338,1003.6534,5.619497689425775,1003.7694765852824,1,3
22.72,6.3458514,-6.662864999999999,0.33628002,1003.6408,5.611216343717466,1003.765292063983,1,3
22.74,6.4271235,-6.758196400000001,0.38362545,1003.6029699999999,5.603099451074094,1003.7610102615324,1,3
22.76,6.508393,-6.648566199999999,0.3836266,1003.6303,5.595110437651873,1003.7567563039456,1,3
22.78,6.6756100000000025,-6.5722995,0.36468208,1003.6029699999999,5.587394658808664,1003.7524438763277,1,3
22.8,6.6708446,-6.4483690000000005,0.3646833,1003.6357,5.5797612664196805,1003.7482131373296,1,3
22.82,6.4509854,-6.5770669999999996,0.46884129999999996,1003.6179,5.572102185206259,1003.7440057290564,1,3
22.84,6.14987,-6.815395,0.5729993,1003.58514,5.56439224390166,1003.7397161464819,1,3
22.86,5.987368599999999,-7.053723,0.6156100999999999,1003.61285,5.556820828044091,1003.7354691531917,1,3
22.88,6.1833534000000006,-6.748664,0.3504846,1003.6052,5.549164369261288,1003.7312475409688,1,3
22.9,6.4462550000000025,-6.2767754,0.17531276,1003.6282,5.5411262985695044,1003.7271463532612,0,0
22.92,6.216837,-6.824928999999999,0.5493319000000001,1003.5980000000001,5.533297971249132,1003.7230576169313,0,0
22.94,6.216849,-6.9869924,0.52566093,1003.5902,5.5259302546916915,1003.7189665220887,0,0
22.96,6.6661625,-6.667633500000001,0.5114588,1003.60046,5.519152201585606,1003.7149250072066,0,0
22.98,6.80479,-6.357807599999999,0.29841185,1003.5830000000001,5.512660240269551,1003.7108789946308,0,0
23.0,6.6422887,-6.443606,0.46885150000000003,1003.6075,5.506337511696072,1003.706931773538,0,0
23.02,6.3029356,-6.891662599999999,0.62508804,1003.58246,5.5003826776094975,1003.702995910596,0,0
23.04,6.2455907,-6.6390350000000025,0.35996252,1003.60535,5.494279657399633,1003.6991666568221,0,0
23.06,6.2503824,-6.8010990000000024,0.46885493,1003.6076,5.488331088563597,1003.6954534882228,0,0
23.08,6.283853,-6.9250293,0.39310559999999994,1003.6,5.482769978110304,1003.6918288998908,0,0
23.1,6.508516999999999,-6.8392315,0.5682796999999999,1003.5924699999999,5.477776848690858,1003.6882685216012,0,0
23.12,6.6375836999999995,-6.5866039999999995,0.2700134,1003.5748,5.473088675503186,1003.6847140846668,0,0
23.14,6.656715400000001,-6.653336,0.27948332,1003.5872,5.468813410797073,1003.6812223334863,0,0
23.16,6.403397,-6.8868979999999995,0.5824863,1003.5649400000001,5.464931104279861,1003.6777184057432,0,0
23.18,6.3795114,-6.810633,0.5209402,1003.595,5.461252970826298,1003.6743245489287,0,0
23.2,6.365184999999999,-7.001296000000001,0.59195745,1003.5922,5.458047777500299,1003.6710300886708,0,0
23.22,6.5181510000000005,-6.834467,0.4167856,1003.5919,5.455215568118689,1003.667834235268,0,0
23.24,6.4082274,-6.8392334,0.5398812,1003.6024,5.452586557797255,1003.6647748159544,0,0
23.26,6.3843412000000015,-6.953631,0.5114759,1003.5822,5.450283614651432,1003.6617742437112,0,0
23.28,6.4268985,-6.920253999999999,0.48776179999999997,1003.5924699999999,5.448283498934019,1003.6588734428,0,0
23.3,6.3456364,-7.1109160000000005,0.49249566,1003.5847,5.446737774954367,1003.6560432707207,0,0
23.32,6.355189,-7.115683,0.50669825,1003.6024,5.4456212462152385,1003.6533494148968,0,0
23.34,6.43166,-7.101383,0.56824493,1003.61,5.44497920896909,1003.6508130659973,0,0
23.36,6.5846076,-6.734358,0.4546187,1003.5797,5.444408810092328,1003.6483159410716,0,0
23.38,6.6419587,-6.9679193,0.49722776,1003.595,5.444339696737591,1003.6459175440997,0,0
23.4,6.7279887,-7.0155845,0.5019615,1003.57916,5.444909192715099,1003.6435579933766,0,0
23.42,6.785340299999999,-7.201479400000001,0.5351018,1003.6023,5.4464062171395256,1003.6413245655816,0,0
23.44,6.7996735999999975,-7.120448,0.41674113,1003.572,5.448603997218957,1003.6391015403456,0,0
23.46,6.7901077,-6.963152,0.3551933,1003.59973,5.4511591386610725,1003.636995537702,0,0
23.48,6.7662024,-6.8439875,0.31258312,1003.5945,5.453806375803435,1003.6349816898303,0,0
23.5,6.823554,-6.925019,0.5635060000000001,1003.5869,5.456752429845784,1003.6330291597676,0,0
23.52,6.7231727,-7.1347475000000005,0.74341285,1003.5993699999999,5.460145637491005,1003.6311827312288,0,0
23.54,6.727945299999999,-7.120447,0.6629274000000001,1003.61224,5.463894989754255,1003.6294830331398,0,0
23.56,6.6323433000000005,-7.2062453999999985,0.59191066,1003.5866,5.467931009321566,1003.6278268009887,0,0
23.58,6.536741,-7.1395135,0.44040912,1003.5993699999999,5.471952917327043,1003.6262609097766,0,0
23.6,6.6084312999999995,-7.172878999999999,0.34572053,1003.6042,5.476091664703464,1003.6247978690263,0,0
23.62,6.661003,-7.153813,0.4262048,1003.5995,5.4803704997992995,1003.623414053891,0,0
23.64,6.7565928,-7.034649000000001,0.40253225,1003.60474,5.484712223568327,1003.6221240882433,0,0
23.66,6.890421000000001,-7.039414999999999,0.33624998,1003.5917,5.489289296860195,1003.6208747478792,0,0
23.68,6.7757,-7.0537148,0.38359344,1003.60724,5.49391689806312,1003.6197217456412,0,0
23.7,6.766134,-7.0584807000000005,0.49721859999999996,1003.59924,5.498576499036845,1003.6186292185796,0,0
23.72,6.823486,-7.0584807000000005,0.57296854,1003.5942,5.503338733190208,1003.6175759164807,0,0
23.74,6.813919500000001,-6.982216,0.44987342,1003.6116300000001,5.508033774899117,1003.6166238134473,0,0
23.76,6.880831,-7.0727806,0.568233,1003.6017,5.512896847117422,1003.615728809478,0,0
23.78,6.8188443,-6.9440875,0.46882436,1003.6195,5.517599019425534,1003.6149515602569,0,0
23.8,6.909661,-6.958386999999999,0.44041790000000003,1003.607,5.5222929586630585,1003.6142361572284,0,0
23.82,6.866642999999999,-6.9679199999999994,0.39780828,1003.5942,5.526910189839928,1003.6135318969459,0,0
23.84,6.890542,-7.053717599999999,0.4262147,1003.60455,5.5316074304736285,1003.6128772777316,0,0
23.86,6.8714223,-7.053717599999999,0.2510417,1003.5917,5.5363182213967965,1003.6122226179939,0,0
23.88,6.895321400000001,-7.0060515,0.24157289999999998,1003.59924,5.5409875095845535,1003.6115974232252,0,0
23.9,6.8762026,-7.0727839999999995,0.4451523,1003.5815,5.545689378983037,1003.6109366504036,0,0
23.92,6.9670186,-6.977452799999999,0.33152659999999995,1003.6039400000001,5.550385159359816,1003.6103276035969,0,0
23.94,6.9144406,-6.977452799999999,0.312589,1003.5815,5.554980339305897,1003.6096856704658,0,0
23.96,6.943119500000001,-6.963153,0.36940184,1003.6067,5.559495111929351,1003.6091077099372,0,0
23.98,6.9383396999999984,-6.996519,0.29365134,1003.579,5.5639594297847985,1003.6084886362587,0,0
24.0,6.9287800000000015,-6.977452799999999,0.26051053,1003.6217,5.5683190481989575,1003.6079891836656,0,0
24.02,7.0291557000000005,-6.929787599999999,0.27944815,1003.5835599999999,5.572649371444467,1003.6074599222933,0,0
24.04,6.9670186,-6.886888000000001,0.23683849,1003.59906,5.576781398784141,1003.6069620272244,0,0
24.06,6.962239,-6.8964214,0.32205778,1003.6167,5.580735259117372,1003.6065571438437,0,0
24.08,6.9478993000000004,-6.8344564,0.29365134,1003.60913,5.584403965612842,1003.6062086511704,0,0
24.1,6.986138,-6.820156599999999,0.2557761,1003.5966,5.587841235378495,1003.6058661319,0,0
24.12,6.976578,-6.858289,0.36466745,1003.60913,5.591110062024572,1003.6055752317978,0,0
24.14,6.943119500000001,-6.7248254,0.32205778,1003.5815,5.593971805829068,1003.6052315216333,0,0
24.16,6.814064999999999,-6.929787599999999,0.23683849,1003.60144,5.596568112867336,1003.6049141698538,0,0
24.18,6.790166,-7.077551,0.35046422,1003.57605,5.599113248855387,1003.60452984681,0,0
24.2,6.8523035000000005,-7.0108185,0.18002564,1003.5657,5.60158463561404,1003.6040504715203,0,0
24.22,6.900100999999999,-6.853523,0.004852670999999999,1003.5939300000001,5.603816383245708,1003.6035904618165,0,0
24.24,6.8857617,-6.848756,0.15635362,1003.6114,5.605802841649691,1003.6032121115798,0,0
24.26,6.9526787,-6.858289,0.1279472,1003.5939300000001,5.607677296288549,1003.6028443857087,0,0
24.28,7.0005713000000025,-6.8678240000000015,0.19423747,1003.59106,5.6095331527176,1003.6024770393408,0,0
24.3,7.0866117,-6.786792999999999,0.28892592,1003.6086,5.611381925791807,1003.6021744947484,0,0
24.32,7.057936,-7.006054400000001,0.31733274,1003.6036,5.613494947982494,1003.6019122981653,0,0
