Timestamp,Ax,Ay,Az,P,Value,Type
0.0,-2.8889737,4.3480050000000015,5.6999,1004.0260000000001,0,0
0.04,-1.4215906999999999,5.1201870000000005,8.554746000000002,1004.1062,0,0
0.08,-0.9200799000000001,4.4719443,10.652052000000001,1004.1488,0,0
0.12,-1.5653839,2.713086,8.161753,1003.8992,0,0
0.16,-0.8675629000000001,2.3412955,10.86036,1003.9996,0,0
0.2,0.47553343,2.6987875,10.107589,1004.0746,0,0
0.24,2.181893,3.3422739999999997,10.756199,1004.1242699999999,0,0
0.28,1.7946985,1.6549131000000001,7.962897,1004.0771,0,0
0.32,0.8912851,2.5462599999999997,8.772477,1004.11005,0,0
0.36,1.6990453,2.5081282000000003,8.3889885,1004.12994,0,0
0.4,1.8854271,2.446164,11.087596000000001,1004.1254,0,0
0.44,1.4599921999999999,2.6082275000000004,8.497874000000001,1004.0804,0,0
0.48,1.6176991000000005,2.2507365000000004,8.459995,1004.10596,0,0
0.52,1.9857098000000002,2.679727,8.232741,1004.08105,0,0
0.56,2.5974963,2.0410093999999996,7.461031,1004.0839,0,0
0.6,2.9702907000000005,1.3546258,5.8134555999999975,1004.0815,0,0
0.64,3.9883583,0.0056910515000000005,10.188042,1004.09644,0,0
0.68,3.935752200000002,0.19635405,4.629849,1004.0943599999999,0,0
0.72,4.2942085,-0.33273309999999995,3.1905875,1004.092,0,0
0.76,5.5130258,-2.120191,5.264253599999999,1004.0721,0,0
0.8,6.344683,-3.6788545,2.0543244,1004.0751,0,0
0.84,9.919949,-3.9600804,5.7708297,1004.0950300000001,0,0
0.88,10.4026785,-5.9048357000000005,4.322099,1004.1382,0,0
0.92,13.313548,-5.1707849999999995,1.4530468,1004.1229,0,0
0.96,14.011370999999999,-6.4434543,2.712396,1004.11316,0,0
1.0,13.992219,-5.9048333,2.0543108,1004.1308,0,0
1.04,14.102124,-3.5024872000000005,1.0790205,1004.11597,0,0
1.08,12.042128,-3.3213602999999994,0.19843024,1004.13855,0,0
1.12,10.95231,-3.8075492,0.21736582,1004.1362,0,0
1.16,10.32135,-4.4986997,0.52509975,1004.14624,0,0
1.2,10.106235,-4.150739700000001,0.44461277,1004.1441,0,0
1.24,10.029733,-4.0554084999999995,0.45881367,1004.1496599999999,0,0
1.28,9.604303,-3.8504455,0.42093596,1004.1323,0,0
1.32,9.628178,-4.4176655,0.14160375,1004.1116300000001,0,0
1.36,9.097595,-5.8714647000000015,-0.3176357,1004.1225599999999,0,0
1.4,8.968515,-6.9725385,-0.23715313,1004.1479,0,0
1.44,8.351897,-6.7818755999999984,-0.0998576,1004.15533,0,0
1.48,7.4771657000000005,-6.052592,-0.20401695,1004.1379,0,0
1.52,7.338527,-5.809497,-0.9851958000000001,1004.11536,0,0
1.56,6.9226589999999995,-6.0859566,-1.6527493000000002,1004.1305,0,0
1.6,7.1759634000000005,-6.77234,-1.4775786,1004.14307,0,0
1.64,7.0229793,-6.7723393,-0.8337024,1004.1534,0,0
1.68,6.812644500000001,-6.510178,-0.72481316,1004.1232,0,0
1.72,6.6692295,-6.400547,-1.1887869,1004.1284,0,0
1.76,6.7217850000000015,-6.1002529999999995,-1.3734306,1004.11615,0,0
1.8,7.1375966,-6.0621199999999975,-1.1367133999999999,1004.1318,0,0
1.84,7.400460199999999,-6.109785,-1.0467619000000001,1004.1488,0,0
1.88,7.634645,-6.105017,-1.0846394,1004.1518599999999,0,0
1.92,7.8162527000000015,-6.0144525,-1.2314083999999998,1004.12683,0,0
1.96,8.016979,-5.799957,-1.0846441,1004.1343400000001,0,0
2.0,8.494933999999999,-5.604527,-1.0136304,1004.1345,0,0
2.04,8.370635,-5.680791999999999,-0.7343028,1004.1549,0,0
2.08,8.284060499999999,-5.5806804,-0.5875854,1004.1449,0,0
2.12,8.365269,-5.5091815,-0.7674972,1004.1474,0,0
2.16,8.336547,-5.4853473,-0.63020337,1004.1374,0,0
2.2,8.460778999999999,-5.523479,-0.41242468,1004.1225,0,0
2.24,8.489412,-5.475812,-0.47397614,1004.1379400000001,0,0
2.28,8.388988000000001,-5.499644,-0.6444191999999999,1004.1281,0,0
2.32,8.126056,-5.652172599999999,-1.1604732,1004.1486,0,0
2.36,8.068655,-5.7570357,-1.1510083999999998,1004.1563,0,0
2.4,7.920431599999999,-5.9381638,-1.4445458999999998,1004.1333,0,0
2.44,7.882150999999999,-5.580671,-1.4208778,1004.1411,0,0
2.48,7.7148122999999975,-5.42814,-1.5723829,1004.11115,0,0
2.52,7.829485000000001,-5.5949683,-1.7238879,1004.1466,0,0
2.56,8.130567999999998,-5.9619922999999995,-1.7949080000000002,1004.1265,0,0
2.6,7.958448,-6.1860194,-1.8564595000000002,1004.1491,0,0
2.64,8.192614,-5.461501599999999,-1.7949164,1004.1289999999999,0,0
2.68,7.7337065,-5.1421410000000005,-1.8943431,1004.1393,0,0
2.72,7.384734599999999,-5.413833599999999,-1.8422688000000005,1004.11945,0,0
2.76,7.50897,-5.880955,-1.3262223,1004.1347,0,0
2.8,7.833947699999999,-6.124048,-0.6823477,1004.145,0,0
2.84,7.958177,-5.542527,-0.5734606,1004.1248,0,0
2.88,7.9007764000000025,-5.2279334,-1.2126093,1004.1203,0,0
2.92,7.9007315999999985,-5.413828400000001,-1.2836292999999999,1004.1354,0,0
2.96,7.814649,-5.6855206,-0.786521,1004.1303,0,0
3.0,7.9102015,-5.82375,-0.52139825,1004.1178,0,0
3.04,7.9388375,-5.804682700000001,-0.6681687,1004.1154,0,0
3.08,7.8484583,-5.742728,-0.9616619000000001,1004.133,0,0
3.12,7.8627696,-5.714128,-1.0137429,1004.1505,0,0
3.16,7.877084299999999,-5.7760925,-0.9285259,1004.09045,0,0
3.2,7.934415299999999,-5.7903914000000025,-1.0184822,1004.1309,0,0
3.24,8.068225,-5.737959,-1.0232188,1004.1206,0,0
3.28,8.015622,-5.8094563,-1.0232211,1004.1284,0,0
3.32,7.934336,-5.852355,-0.90959793,1004.1212,0,0
3.36,8.044246000000001,-5.7999225,-0.9948197,1004.1413,0,0
3.4,8.158936500000001,-5.647392,-1.0279629000000001,1004.1037,0,0
3.44,8.144572,-5.7903876,-0.8954017,1004.1291,0,0
3.48,8.201903,-5.6950564,-0.97115463,1004.1063,0,0
3.52,8.010683,-5.8142190000000005,-0.8812035,1004.13214,0,0
3.56,7.8481455,-5.9143167000000005,-0.72023594,1004.1421,0,0
3.6,7.8098807,-6.0334797,-0.6492222,1004.1316,0,0
3.64,7.838533,-5.9715137,-0.79599124,1004.1296,0,0
3.68,7.895863,-5.9333806,-0.9190881999999999,1004.14484,0,0
3.72,7.814580999999999,-6.0573106,-0.87648106,1004.1145,0,0
3.76,7.7954345,-6.0334769999999995,-1.0279844999999999,1004.15546,0,0
3.8,7.9913820000000015,-5.961978,-1.1984253,1004.1457,0,0
3.84,7.957895,-5.8666462999999975,-1.0800678999999995,1004.138,0,0
3.88,7.9626509999999975,-5.799914,-1.0090538,1004.1223,0,0
3.92,7.8144490000000015,-5.914311,-0.64450717,1004.1281,0,0
3.96,7.685369500000001,-5.966742,-0.45986763,1004.1306,0,0
4.0,7.513269999999999,-6.052539299999999,-0.40779164,1004.10535,0,0
4.04,7.355511,-6.2432013,-0.42199719999999996,1004.1455699999999,0,0
4.08,7.412553,-6.238427,-0.55932385,1004.1111,0,0
4.12,7.732761999999999,-6.185993700000001,-0.81025076,1004.1281,0,0
4.16,7.7805240000000015,-5.947665,-1.0375055,1004.16895,0,0
4.2,7.723126,-6.1144940000000005,-1.1700726000000001,1004.13605,0,0
4.24,7.2690066999999985,-6.233656400000001,-1.577235,1004.1437400000001,0,0
4.28,7.3741264000000015,-6.0286940000000016,-1.4494091999999998,1004.1337,0,0
4.32,7.8855270000000015,-5.6759677,-1.288443,1004.1365,0,0
4.36,7.9428496,-5.675967,-0.8954905999999999,1004.1191,0,0
4.4,8.014508,-5.609234,-0.2658182,1004.1514,0,0
4.44,8.253461,-5.5711,-0.36524418,1004.14667,0,0
4.48,8.267763,-5.7331624,-0.40312287,1004.1316,0,0
4.52,8.19125,-5.6568966,-0.048045825,1004.1614400000001,0,0
4.56,8.033479,-5.7617598,-0.033846100000000004,1004.1318,0,0
4.6,7.412064999999999,-6.252714599999999,-0.41260192,1004.12146,0,0
4.64,7.7561727,-5.990553,-0.96653086,1004.1315,0,0
4.68,8.167200999999999,-5.8046565,-1.4778497,1004.14667,0,0
4.72,8.176722999999999,-5.8141885,-1.5962135,1004.1295,0,0
4.76,7.8946776,-6.066815,-1.1748548,1004.1216,0,0
4.8,7.3975399999999985,-6.2288775,-1.2790151,1004.1393400000001,0,0
4.84,7.268447,-6.3051414,-1.4115819,1004.10675,0,0
4.88,7.330549,-6.1955094000000015,-1.0044262,1004.13965,0,0
4.92,8.009241000000001,-5.823717,-0.6682872,1004.1496599999999,0,0
4.96,8.061786999999999,-5.866615299999999,-0.7771816,1004.13715,0,0
5.0,7.9757104000000005,-5.642586,-0.729841,1004.12714,0,0
5.04,8.033031,-5.73315,-0.53573394,1004.1297599999999,0,0
5.08,7.813055499999999,-5.8570776,-0.5594155,1004.1118,0,0
5.12,7.5310087,-5.8332443,-0.81507677,1004.14215,0,0
5.16,7.731723,-5.8094106,-0.7014545999999999,1004.117,0,0
5.2,8.152306,-5.695012,-0.55469173,1004.1624,0,0
5.24,8.171384,-5.7140765,-0.6209771,1004.132,0,0
5.28,7.8510966,-5.8284736,-0.6919969,1004.14716,0,0
5.32,7.7363405,-5.861839,-0.9381896999999999,1004.1369,0,0
5.36,7.645483500000001,-5.971468,-0.94766223,1004.1295,0,0
5.4,7.5307302,-6.0048330000000005,-1.0470880999999999,1004.1196,0,0
5.44,7.702762599999999,-6.095397,-0.90979415,1004.1224,0,0
5.48,7.8461184999999976,-5.866601,-0.83404714,1004.15216,0,0
5.52,7.855635,-5.914265599999999,-0.91927034,1004.1474,0,0
5.56,7.908175,-5.9380975,-0.81511694,1004.1549,0,0
5.6,7.9176936,-5.909497,-0.7867142,1004.1424599999999,0,0
5.64,7.9128766000000015,-5.8999634000000025,-0.8672025999999999,1004.1599,0,0
5.68,7.9176154000000025,-5.8713627,-0.81039345,1004.1173,0,0
5.72,7.9127955000000005,-5.9380937000000005,-0.70150584,1004.13226,0,0
5.76,7.7167850000000024,-6.0953894,-0.71571255,1004.1603,0,0
5.8,7.582909599999999,-6.0381894,-1.0139837,1004.1374,0,0
5.84,7.6736727,-6.143052,-0.8956286,1004.1474,0,0
5.88,7.812262,-5.980989,-0.9193028,1004.1249,0,0
5.92,7.979514599999999,-5.723593,-0.9571818999999999,1004.14465,0,0
5.96,7.745263599999999,-5.885656,-0.8435598,1004.1402,0,0
6.0,7.5588130000000024,-6.1716485,-0.49795175,1004.12714,0,0
6.04,-2.8889737,4.3480050000000015,5.6999,1004.0260000000001,0,0
6.08,-1.4215906999999999,5.1201870000000005,8.554746000000002,1004.1062,0,0
6.12,-0.9200799000000001,4.4719443,10.652052000000001,1004.1488,0,0
6.16,-1.5653839,2.713086,8.161753,1003.8992,0,0
6.2,-0.8675629000000001,2.3412955,10.86036,1003.9996,0,0
6.24,0.47553343,2.6987875,10.107589,1004.0746,0,0
6.28,2.181893,3.3422739999999997,10.756199,1004.1242699999999,0,0
6.32,1.7946985,1.6549131000000001,7.962897,1004.0771,0,0
6.36,0.8912851,2.5462599999999997,8.772477,1004.11005,0,0
6.4,1.6990453,2.5081282000000003,8.3889885,1004.12994,0,0
6.44,1.8854271,2.446164,11.087596000000001,1004.1254,0,0
6.48,1.4599921999999999,2.6082275000000004,8.497874000000001,1004.0804,0,0
6.52,1.6176991000000005,2.2507365000000004,8.459995,1004.10596,0,0
6.56,1.9857098000000002,2.679727,8.232741,1004.08105,0,0
6.6,2.5974963,2.0410093999999996,7.461031,1004.0839,0,0
6.64,2.9702907000000005,1.3546258,5.8134555999999975,1004.0815,0,0
6.68,3.9883583,0.0056910515000000005,10.188042,1004.09644,0,0
6.72,3.935752200000002,0.19635405,4.629849,1004.0943599999999,0,0
6.76,4.2942085,-0.33273309999999995,3.1905875,1004.092,0,0
6.8,5.5130258,-2.120191,5.264253599999999,1004.0721,0,0
6.84,6.344683,-3.6788545,2.0543244,1004.0751,0,0
6.88,9.919949,-3.9600804,5.7708297,1004.0950300000001,0,0
6.92,10.4026785,-5.9048357000000005,4.322099,1004.1382,0,0
6.96,13.313548,-5.1707849999999995,1.4530468,1004.1229,0,0
7.0,14.011370999999999,-6.4434543,2.712396,1004.11316,0,0
7.04,13.992219,-5.9048333,2.0543108,1004.1308,0,0
7.08,14.102124,-3.5024872000000005,1.0790205,1004.11597,0,0
7.12,12.042128,-3.3213602999999994,0.19843024,1004.13855,0,0
7.16,10.95231,-3.8075492,0.21736582,1004.1362,0,0
7.2,10.32135,-4.4986997,0.52509975,1004.14624,0,0
7.24,10.106235,-4.150739700000001,0.44461277,1004.1441,0,0
7.28,10.029733,-4.0554084999999995,0.45881367,1004.1496599999999,0,0
7.32,9.604303,-3.8504455,0.42093596,1004.1323,0,0
7.36,9.628178,-4.4176655,0.14160375,1004.1116300000001,0,0
7.4,9.097595,-5.8714647000000015,-0.3176357,1004.1225599999999,0,0
7.44,8.968515,-6.9725385,-0.23715313,1004.1479,0,0
7.48,8.351897,-6.7818755999999984,-0.0998576,1004.15533,0,0
7.52,7.4771657000000005,-6.052592,-0.20401695,1004.1379,0,0
7.56,7.338527,-5.809497,-0.9851958000000001,1004.11536,0,0
7.6,6.9226589999999995,-6.0859566,-1.6527493000000002,1004.1305,0,0
7.64,7.1759634000000005,-6.77234,-1.4775786,1004.14307,0,0
7.68,7.0229793,-6.7723393,-0.8337024,1004.1534,0,0
7.72,6.812644500000001,-6.510178,-0.72481316,1004.1232,0,0
7.76,6.6692295,-6.400547,-1.1887869,1004.1284,0,0
7.8,6.7217850000000015,-6.1002529999999995,-1.3734306,1004.11615,0,0
7.84,7.1375966,-6.0621199999999975,-1.1367133999999999,1004.1318,0,0
7.88,7.400460199999999,-6.109785,-1.0467619000000001,1004.1488,0,0
7.92,7.634645,-6.105017,-1.0846394,1004.1518599999999,0,0
7.96,7.8162527000000015,-6.0144525,-1.2314083999999998,1004.12683,0,0
8.0,8.016979,-5.799957,-1.0846441,1004.1343400000001,0,0
8.04,8.494933999999999,-5.604527,-1.0136304,1004.1345,0,0
8.08,8.370635,-5.680791999999999,-0.7343028,1004.1549,0,0
8.12,8.284060499999999,-5.5806804,-0.5875854,1004.1449,0,0
8.16,8.365269,-5.5091815,-0.7674972,1004.1474,0,0
8.2,8.336547,-5.4853473,-0.63020337,1004.1374,0,0
8.24,8.460778999999999,-5.523479,-0.41242468,1004.1225,0,0
8.28,8.489412,-5.475812,-0.47397614,1004.1379400000001,0,0
8.32,8.388988000000001,-5.499644,-0.6444191999999999,1004.1281,0,0
8.36,8.126056,-5.652172599999999,-1.1604732,1004.1486,0,0
8.4,8.068655,-5.7570357,-1.1510083999999998,1004.1563,0,0
8.44,7.920431599999999,-5.9381638,-1.4445458999999998,1004.1333,0,0
8.48,7.882150999999999,-5.580671,-1.4208778,1004.1411,0,0
8.52,7.7148122999999975,-5.42814,-1.5723829,1004.11115,0,0
8.56,7.829485000000001,-5.5949683,-1.7238879,1004.1466,0,0
8.6,8.130567999999998,-5.9619922999999995,-1.7949080000000002,1004.1265,0,0
8.64,7.958448,-6.1860194,-1.8564595000000002,1004.1491,0,0
8.68,8.192614,-5.461501599999999,-1.7949164,1004.1289999999999,0,0
8.72,7.7337065,-5.1421410000000005,-1.8943431,1004.1393,0,0
8.76,7.384734599999999,-5.413833599999999,-1.8422688000000005,1004.11945,0,0
8.8,7.50897,-5.880955,-1.3262223,1004.1347,0,0
8.84,7.833947699999999,-6.124048,-0.6823477,1004.145,0,0
8.88,7.958177,-5.542527,-0.5734606,1004.1248,0,0
8.92,7.9007764000000025,-5.2279334,-1.2126093,1004.1203,0,0
8.96,7.9007315999999985,-5.413828400000001,-1.2836292999999999,1004.1354,0,0
9.0,7.814649,-5.6855206,-0.786521,1004.1303,0,0
9.04,7.9102015,-5.82375,-0.52139825,1004.1178,0,0
9.08,7.9388375,-5.804682700000001,-0.6681687,1004.1154,0,0
9.12,7.8484583,-5.742728,-0.9616619000000001,1004.133,0,0
9.16,7.8627696,-5.714128,-1.0137429,1004.1505,0,0
9.2,7.877084299999999,-5.7760925,-0.9285259,1004.09045,0,0
9.24,7.934415299999999,-5.7903914000000025,-1.0184822,1004.1309,0,0
9.28,8.068225,-5.737959,-1.0232188,1004.1206,0,0
9.32,8.015622,-5.8094563,-1.0232211,1004.1284,0,0
9.36,7.934336,-5.852355,-0.90959793,1004.1212,0,0
9.4,8.044246000000001,-5.7999225,-0.9948197,1004.1413,0,0
9.44,8.158936500000001,-5.647392,-1.0279629000000001,1004.1037,0,0
9.48,8.144572,-5.7903876,-0.8954017,1004.1291,0,0
9.52,8.201903,-5.6950564,-0.97115463,1004.1063,0,0
9.56,8.010683,-5.8142190000000005,-0.8812035,1004.13214,0,0
9.6,7.8481455,-5.9143167000000005,-0.72023594,1004.1421,0,0
9.64,7.8098807,-6.0334797,-0.6492222,1004.1316,0,0
9.68,7.838533,-5.9715137,-0.79599124,1004.1296,0,0
9.72,7.895863,-5.9333806,-0.9190881999999999,1004.14484,0,0
9.76,7.814580999999999,-6.0573106,-0.87648106,1004.1145,0,0
9.8,7.7954345,-6.0334769999999995,-1.0279844999999999,1004.15546,0,0
9.84,7.9913820000000015,-5.961978,-1.1984253,1004.1457,0,0
9.88,7.957895,-5.8666462999999975,-1.0800678999999995,1004.138,0,0
9.92,7.9626509999999975,-5.799914,-1.0090538,1004.1223,0,0
9.96,7.8144490000000015,-5.914311,-0.64450717,1004.1281,0,0
10.0,7.685369500000001,-5.966742,-0.45986763,1004.1306,0,0
10.04,7.513269999999999,-6.052539299999999,-0.40779164,1004.10535,0,0
10.08,7.355511,-6.2432013,-0.42199719999999996,1004.1455699999999,0,0
10.12,7.412553,-6.238427,-0.55932385,1004.1111,0,0
10.16,7.732761999999999,-6.185993700000001,-0.81025076,1004.1281,0,0
10.2,7.7805240000000015,-5.947665,-1.0375055,1004.16895,0,0
10.24,7.723126,-6.1144940000000005,-1.1700726000000001,1004.13605,0,0
10.28,7.2690066999999985,-6.233656400000001,-1.577235,1004.1437400000001,0,0
10.32,7.3741264000000015,-6.0286940000000016,-1.4494091999999998,1004.1337,0,0
10.36,7.8855270000000015,-5.6759677,-1.288443,1004.1365,0,0
10.4,7.9428496,-5.675967,-0.8954905999999999,1004.1191,0,0
10.44,8.014508,-5.609234,-0.2658182,1004.1514,0,0
10.48,8.253461,-5.5711,-0.36524418,1004.14667,0,0
10.52,8.267763,-5.7331624,-0.40312287,1004.1316,0,0
10.56,8.19125,-5.6568966,-0.048045825,1004.1614400000001,0,0
10.6,8.033479,-5.7617598,-0.033846100000000004,1004.1318,0,0
10.64,7.412064999999999,-6.252714599999999,-0.41260192,1004.12146,0,0
10.68,7.7561727,-5.990553,-0.96653086,1004.1315,0,0
10.72,8.167200999999999,-5.8046565,-1.4778497,1004.14667,0,0
10.76,8.176722999999999,-5.8141885,-1.5962135,1004.1295,0,0
10.8,7.8946776,-6.066815,-1.1748548,1004.1216,0,0
10.84,7.3975399999999985,-6.2288775,-1.2790151,1004.1393400000001,0,0
10.88,7.268447,-6.3051414,-1.4115819,1004.10675,0,0
10.92,7.330549,-6.1955094000000015,-1.0044262,1004.13965,0,0
10.96,8.009241000000001,-5.823717,-0.6682872,1004.1496599999999,0,0
11.0,8.061786999999999,-5.866615299999999,-0.7771816,1004.13715,0,0
11.04,7.9757104000000005,-5.642586,-0.729841,1004.12714,0,0
11.08,8.033031,-5.73315,-0.53573394,1004.1297599999999,0,0
11.12,7.813055499999999,-5.8570776,-0.5594155,1004.1118,0,0
11.16,7.5310087,-5.8332443,-0.81507677,1004.14215,0,0
11.2,7.731723,-5.8094106,-0.7014545999999999,1004.117,0,0
11.24,8.152306,-5.695012,-0.55469173,1004.1624,0,0
11.28,8.171384,-5.7140765,-0.6209771,1004.132,0,0
11.32,7.8510966,-5.8284736,-0.6919969,1004.14716,0,0
11.36,7.7363405,-5.861839,-0.9381896999999999,1004.1369,0,0
11.4,7.645483500000001,-5.971468,-0.94766223,1004.1295,0,0
11.44,7.5307302,-6.0048330000000005,-1.0470880999999999,1004.1196,0,0
11.48,7.702762599999999,-6.095397,-0.90979415,1004.1224,0,0
11.52,7.8461184999999976,-5.866601,-0.83404714,1004.15216,0,0
11.56,7.855635,-5.914265599999999,-0.91927034,1004.1474,0,0
11.6,7.908175,-5.9380975,-0.81511694,1004.1549,0,0
11.64,7.9176936,-5.909497,-0.7867142,1004.1424599999999,0,0
11.68,7.9128766000000015,-5.8999634000000025,-0.8672025999999999,1004.1599,0,0
11.72,7.9176154000000025,-5.8713627,-0.81039345,1004.1173,0,0
11.76,7.9127955000000005,-5.9380937000000005,-0.70150584,1004.13226,0,0
11.8,7.7167850000000024,-6.0953894,-0.71571255,1004.1603,0,0
11.84,7.582909599999999,-6.0381894,-1.0139837,1004.1374,0,0
11.88,7.6736727,-6.143052,-0.8956286,1004.1474,0,0
11.92,7.812262,-5.980989,-0.9193028,1004.1249,0,0
11.96,7.979514599999999,-5.723593,-0.9571818999999999,1004.14465,0,0
12.0,7.745263599999999,-5.885656,-0.8435598,1004.1402,0,0
12.04,7.5588130000000024,-6.1716485,-0.49795175,1004.12714,0,0
12.08,7.79298,-5.9952846,-0.4174708,1004.1374,0,0
12.12,8.098848,-5.718823,-0.890915,1004.1324,0,0
12.16,8.15617,-5.5472264000000004,-0.8199021000000001,1004.1499,0,0
12.2,8.003173,-5.494793,-0.63526434,1004.1449,0,0
12.24,7.950544,-5.890416,-0.5642529000000001,1004.13965,0,0
12.28,7.960075999999999,-5.7950845,-0.60213065,1004.1599,0,0
12.32,7.878768400000001,-5.9333134,-0.50271285,1004.1577,0,0
12.36,7.7687955,-5.714050299999999,-0.91934395,1004.1196,0,0
12.4,7.855469999999999,-6.062025,-0.6730965,1004.12463,0,0
12.44,7.4682865000000005,-6.586345,-0.71570784,1004.12726,0,0
12.48,7.4491477,-6.152589,-1.2554319,1004.1122,0,0
12.52,8.022706,-5.8141627,-0.9666348,1004.12714,0,0
12.56,8.271235,-5.4709697,-0.95243347,1004.1349,0,0
12.6,8.060905,-5.528168,-1.1370770000000001,1004.11194,0,0
12.64,7.9891877000000004,-5.656865,-0.70624787,1004.1449,0,0
12.68,7.9604880000000025,-5.6854634000000015,-0.39851347,1004.117,0,0
12.72,8.013049,-5.804627,-0.18073256,1004.1147,0,0
12.76,8.113406,-5.742662,-0.27068794,1004.1344,0,0
12.8,8.099046000000001,-5.7521935,-0.7015207,1004.15216,0,0
12.84,7.802678999999999,-5.790325599999999,-0.77727276,1004.1599,0,0
12.88,7.5063133,-5.9476213,-0.6447111999999999,1004.1221300000001,0,0
12.92,7.5684295,-6.15735,-0.7299323,1004.1419999999999,0,0
12.96,7.769164599999999,-6.133516999999999,-0.8435597,1004.1295,0,0
13.0,7.95556,-6.042952,-0.99506205,1004.1216,0,0
13.04,7.917299000000001,-6.014352,-1.1276276,1004.1269,0,0
13.08,7.7786636,-5.91902,-1.1939111999999998,1004.1249,0,0
13.12,7.5205364,-5.9952846,-0.9666614,1004.132,0,0
13.16,7.5109572,-6.0667824999999995,-0.86250615,1004.1374,0,0
13.2,7.606533,-6.123981,-0.59738135,1004.1063,0,0
13.24,7.6160746,-6.042949,-0.5168981,1004.12445,0,0
13.28,7.735550999999999,-5.9476166,-0.7346825,1004.1269,0,0
13.32,7.77377,-5.909484,-0.7725595000000001,1004.13684,0,0
13.36,7.907584700000001,-5.8951839999999995,-0.8861870000000001,1004.1293,0,0
13.4,8.109191000000001,-5.9142714000000005,-0.8813745000000001,1004.13684,0,0
13.44,8.137885,-5.771275,-0.9287171000000001,1004.0889,0,0
13.48,7.9897265,-5.742676,-0.77248037,1004.14435,0,0
13.52,7.9658427,-5.7760419999999995,-0.715666,1004.1192599999999,0,0
13.56,7.9132789999999975,-5.8427744000000015,-0.81508726,1004.10895,0,0
13.6,7.894175,-5.899973999999999,-0.5404904,1004.10895,0,0
13.64,7.8416104,-5.9619384,-0.69199014,1004.1216,0,0
13.68,7.650434,-6.0048385,-0.8150831999999999,1004.1316,0,0
13.72,7.5739727,-6.0477376,-0.9523795,1004.1416,0,0
13.76,7.5357494,-6.1192364999999995,-0.9334405000000001,1004.1395,0,0
13.8,7.554883,-6.119237,-0.96184564,1004.13684,0,0
13.84,7.6218143,-5.99054,-0.8766251,1004.1241,0,0
13.88,7.683967,-5.995307,-0.8292796,1004.14435,0,0
13.92,7.8034773,-5.9238095,-0.93816954,1004.1567,0,0
13.96,7.7174554,-5.9810085,-0.6872446999999999,1004.1342,0,0
14.0,7.6887919999999985,-6.038207,-0.64936805,1004.1264,0,0
14.04,7.8561015,-5.928577,-0.7771956,1004.15125,0,0
14.08,7.903914,-5.866612,-0.84821033,1004.1365,0,0
14.12,7.7796535,-5.928578,-0.74878645,1004.1416,0,0
14.16,7.817907000000001,-5.9333444,-0.8624107,1004.1464,0,0
14.2,7.9613156,-5.8809123,-0.76772135,1004.1594,0,0
14.24,7.966112599999999,-5.87138,-0.9760336,1004.12897,0,0
14.28,7.751034700000001,-5.9285793,-0.8340003,1004.1389999999999,0,0
14.32,7.698472,-6.0096107000000005,-0.8860773000000001,1004.12146,0,0
14.36,7.7893023,-6.033444,-0.8529351000000001,1004.1312,0,0
14.4,7.7985916,-5.971472,-0.7724751,1004.1464,0,0
14.44,7.7651367,-5.9428725,-0.8387564000000001,1004.1137,0,0
14.48,7.793819,-5.9476394999999975,-0.8482249,1004.1287,0,0
14.52,7.664768,-6.0096050000000005,-0.74406767,1004.1413,0,0
14.56,7.6743317,-6.0334377,-0.7440673000000001,1004.1336699999999,0,0
14.6,7.822509299999999,-5.9428730000000005,-0.9145054,1004.12354,0,0
14.64,7.746036,-5.9476394999999975,-0.9192396,1004.1439999999999,0,0
14.68,7.7603793,-5.928574,-0.87189513,1004.1256,0,0
14.72,7.765163,-5.938107,-0.82455087,1004.1413,0,0
14.76,7.798625,-5.981006,-0.8860976999999999,1004.1257,0,0
14.8,7.803408,-5.9571733,-0.8482221999999999,1004.14075,0,0
14.84,7.8559899999999985,-5.890442,-0.93344104,1004.1206,0,0
14.88,7.7795167,-5.919041,-0.84348714,1004.13605,0,0
14.92,7.6695857000000025,-6.0382050000000005,-0.8150803000000001,1004.1357,0,0
14.96,7.7126074000000004,-6.0048394,-0.7772047,1004.1332,0,0
15.0,7.8129873,-5.9285746,-0.90029883,1004.1636,0,0
15.04,7.8321095000000005,-5.9142747,-0.9429081,1004.1379,0,0
15.08,7.8655725000000025,-5.866609599999999,-0.99498624,1004.143,0,0
15.12,7.7604203,-5.9714737,-0.90503234,1004.138,0,0
15.16,7.808223,-5.981007,-0.8292814000000001,1004.11536,0,0
15.2,7.8560243000000005,-5.9047422,-0.9429068000000002,1004.1352,0,0
15.24,7.8369083,-5.8999760000000006,-1.0091883,1004.1148699999999,0,0
15.28,7.7460960000000005,-6.038206,-0.9334372,1004.1198,0,0
15.32,7.7843385,-5.957175,-0.78667045,1004.1298,0,0
15.36,7.774782000000001,-5.85231,-0.9097646,1004.1423300000001,0,0
15.4,7.7463603,-5.8809156,-0.8718658000000001,1004.1195,0,0
15.44,7.6794566999999985,-5.8237176,-0.79137963,1004.1044300000001,0,0
15.48,7.6794699999999985,-6.019147,-0.7771753,1004.0944,0,0
15.52,7.913695,-5.942882,-0.73929864,1004.1349,0,0
15.56,7.999745,-5.9238167,-0.91920483,1004.11456,0,0
15.6,7.9615197,-5.8618517,-1.1275175,1004.1323,0,0
15.64,7.8038006,-5.8856845,-1.1748602,1004.1170699999999,0,0
15.68,7.655639999999999,-5.9714828,-0.97127956,1004.0844,0,0
15.72,7.8325070000000006,-5.847553,-0.7676988,1004.0969,0,0
15.76,8.0141535,-5.866619,-0.9144641,1004.11676,0,0
15.8,7.8277545,-5.9619503,-0.8292436,1004.10425,0,0
15.84,7.569658,-6.2098116999999995,-0.6777415,1004.12683,0,0
15.88,7.555333,-6.0286837,-1.2221966999999998,1004.1037,0,0
15.92,7.622263,-6.228879,-1.1795859,1004.1241,0,0
15.96,7.5840372999999985,-6.166914,-1.0517558,1004.11414,0,0
16.0,7.569711999999999,-6.1478486,-1.1653802,1004.1089999999999,0,0
16.04,7.3546352,-6.157381,-1.1511759,1004.10913,0,0
16.08,7.4215655,-5.9857855,-1.0328144000000001,1004.1215,0,0
16.12,7.8183050000000005,-5.8380230000000015,-1.0659538999999998,1004.1241,0,0
16.16,7.937812299999999,-5.776058,-0.6729970000000001,1004.1366,0,0
16.2,7.9378256999999985,-5.737925499999999,-0.6256518,1004.1212,0,0
16.24,7.9808593,-5.790358,-0.62565047,1004.1341,0,0
16.28,7.990431299999999,-5.818958,-0.72033733,1004.1162,0,0
16.32,7.923528,-5.8761573,-0.79135203,1004.10565,0,0
16.36,7.913983,-5.8570910000000005,-0.72033477,1004.1259,0,0
16.4,7.9995904000000015,-5.799882,-0.83873415,1004.1059,0,0
16.44,7.851412299999999,-5.8904467,-1.1133301000000002,1004.0880000000001,0,0
16.48,7.9087663,-5.919046,-1.0517832,1004.138,0,0
16.52,7.817946000000001,-6.066808999999999,-0.87187594,1004.1434300000001,0,0
16.56,7.559833,-6.071575,-1.0896591,1004.1206699999999,0,0
16.6,7.6124077,-6.052509,-0.9334239,1004.11053,0,0
16.64,7.5646057,-6.138307,-0.9807684000000001,1004.14307,0,0
16.68,7.464225999999999,-6.257471,-0.82453334,1004.1228,0,0
16.72,7.3829656,-6.219338,-0.59254783,1004.1003,0,0
16.76,7.3351636,-6.2050385000000015,-0.5073289000000001,1004.1405,0,0
16.8,7.655407,-5.904745,-0.81979996,1004.0953,0,0
16.84,7.9421916,-5.7522154,-0.6730338,1004.12054,0,0
16.88,7.741435000000001,-6.143073,-0.95236397,1004.09515,0,0
16.92,7.578917999999999,-6.219338,-0.8008634,1004.1028,0,0
16.96,7.621932000000001,-6.2193375,-0.9428959000000001,1004.1051,0,0
17.0,7.789222200000001,-6.1192400000000005,-0.95236504,1004.09265,0,0
17.04,7.7175226,-6.200271599999999,-0.6635666,1004.1201,0,0
17.08,7.4976463,-6.1859717000000005,-0.6730359,1004.09515,0,0
17.12,7.664936,-6.2098045,-0.7724588000000001,1004.10474,0,0
17.16,7.789207000000001,-5.9476432999999975,-0.8718815000000001,1004.14264,0,0
17.2,7.722286,-6.1287723,-0.8955539,1004.14276,0,0
17.24,7.559769,-6.271769,-0.93816394,1004.1098,0,0
17.28,7.4785080000000015,-6.219337,-1.0328524,1004.11456,0,0
17.32,7.5454225999999975,-6.2670026,-0.7203819,1004.1548,0,0
17.36,7.554978,-6.305135,-0.6493661999999999,1004.1296,0,0
17.4,7.555451400000001,-6.410011,-0.4457435,1004.1221,0,0
17.44,7.5650268,-6.0525193,-0.7061343000000001,1004.1243,0,0
17.48,7.7227745,-5.971488,-0.82449317,1004.1246,0,0
17.52,7.7275696,-6.1192517,-0.8860389999999999,1004.12726,0,0
17.56,7.7228007,-6.147851999999999,-0.77714664,1004.1139999999999,0,0
17.6,7.6367835999999985,-6.1478524000000006,-0.6587848000000001,1004.1365400000001,0,0
17.64,7.4169273,-6.2098174,-0.7771435999999999,1004.1394,0,0
17.68,7.603353999999999,-6.1669187999999995,-0.68245417,1004.12897,0,0
17.72,7.7372026,-6.085888,-0.6161711999999999,1004.11646,0,0
17.76,7.880613,-5.7093300000000005,-0.70138913,1004.1137,0,0
17.8,7.5173630000000005,-6.1812190000000005,-0.6398403,1004.1087,0,0
17.84,7.0441759999999976,-6.47198,-0.54515094,1004.1311599999999,0,0
17.88,7.4791539999999985,-6.3814160000000015,-0.104849905,1004.1307,0,0
17.92,7.866332499999999,-6.166921,-0.2279432,1004.1307400000001,0,0
17.96,8.459046,-5.7712975,-0.69664764,1004.12823,0,0
18.0,8.215289,-5.685499,-0.9002258,1004.12585,0,0
18.04,7.809021,-5.7998970000000005,-0.8339428,1004.1311599999999,0,0
18.08,7.6991005,-6.0858912000000025,-0.18059348,1004.1231,0,0
18.12,7.636977000000001,-6.348052,-0.1143105,1004.1611300000001,0,0
18.16,7.5748553,-6.4290833,-0.4835927,1004.14526,0,0
18.2,7.412356,-6.424318,-0.72031164,1004.11285,0,0
18.24,7.637022,-6.0286940000000016,-0.99017125,1004.1549699999999,0,0
18.28,7.603579499999999,-6.1001925,-0.76765275,1004.1379400000001,0,0
18.32,7.627491,-6.119259,-0.77238613,1004.14496,0,0
18.36,7.7900205,-6.0525274000000024,-0.64455557,1004.1455699999999,0,0
18.4,7.7418565999999975,-6.0382195,-0.5025569999999999,1004.1374,0,0
18.44,7.4694080000000005,-6.1335505999999995,-0.5309635,1004.1549,0,0
18.48,7.3738117,-6.152616,-0.32264966,1004.11957,0,0
18.52,7.541105,-6.0620519999999996,-0.45994738,1004.1599,0,0
18.56,7.651039999999999,-5.9953203,-0.39840007,1004.1549699999999,0,0
18.6,7.7561955000000005,-6.0286865,-0.4457442,1004.1471,0,0
18.64,7.870911,-5.9524217,-0.5593699000000001,1004.1393400000001,0,0
18.68,7.928269,-5.9238224000000015,-0.6445892,1004.13184,0,0
18.72,7.9187093,-5.9333550000000015,-0.7676837,1004.14435,0,0
18.76,7.8804707999999986,-5.957187,-0.654058,1004.13464,0,0
18.8,7.985626700000001,-5.9333550000000015,-0.6445892,1004.1318,0,0
18.84,7.9712872999999975,-5.885689299999999,-0.56410426,1004.14465,0,0
18.88,7.837453,-5.9476547,-0.35105604,1004.12885,0,0
18.92,7.7705354999999985,-6.047752,-0.45994738,1004.13354,0,0
18.96,7.794434,-6.0048532,-0.43154094,1004.1363,0,0
19.0,7.794434,-5.9524217,-0.42680654,1004.1436,0,0
19.04,7.8278933,-5.9238224000000015,-0.6587923000000001,1004.1439999999999,0,0
19.08,7.751416000000001,-5.9857864,-0.6445892,1004.1436,0,0
19.12,7.6032424,-5.9857864,-0.630386,1004.1385,0,0
19.16,7.689278599999999,-6.0048532,-0.5688386999999999,1004.1207,0,0
19.2,7.6462603000000025,-6.0668187000000025,-0.6493234999999999,1004.1531,0,0
19.24,7.5793433000000014,-6.057286,-0.5451666000000001,1004.1335,0,0
19.28,7.651039999999999,-6.1287837,-0.5593699000000001,1004.138,0,0
19.32,7.7561955000000005,-6.081118,-0.73454285,1004.138,0,0
19.36,7.8613515,-5.9333550000000015,-0.7203397,1004.1278699999999,0,0
19.4,7.7999754,-5.8952413,-0.72973865,1004.12036,0,0
19.44,7.7091894,-5.9000087,-0.6587199,1004.1455,0,0
19.48,7.8000345,-5.9047756,-0.6871236,1004.1505,0,0
19.52,7.8144045,-5.966742,-0.5166823,1004.1379,0,0
19.56,7.785756,-5.947676,-0.44092909,1004.1352,0,0
19.6,7.9100595,-5.8952446,-0.59716177,1004.15533,0,0
19.64,7.757136,-5.8857126,-0.7391911,1004.1371,0,0
19.68,7.7762856,-5.909546,-0.6018905999999999,1004.11725,0,0
19.72,7.752414999999999,-5.9238462,-0.5450752,1004.13995,0,0
19.76,7.6855283,-5.9667463,-0.5687445,1004.1474599999999,0,0
19.8,7.580401400000001,-5.9715133,-0.45038173,1004.1319,0,0
19.84,7.556535,-5.9572144,-0.4172379,1004.14465,0,0
19.88,7.580464,-6.18601,-0.47404796,1004.1369,0,0
19.92,7.671309,-6.157411,-0.39829487,1004.1266,0,0
19.96,7.7908325,-6.09068,-0.6444813,1004.1266,0,0
20.0,7.7000484,-6.1288133,-0.71076006,1004.1341,0,0
20.04,7.752655,-6.200312,-0.7154918,1004.1317,0,0
20.08,7.685767999999999,-6.4863067,-0.8906620000000001,1004.1087,0,0
20.12,6.729838000000001,-6.8152,-1.3498966000000001,1004.1241,1,1
20.16,6.275785,-7.182225,-1.2646747999999999,1004.1362,1,1
20.2,6.7633557,-6.915299,-0.68707436,1004.1513,1,1
20.24,6.4622583,-7.0010977,-0.715478,1004.1361699999999,1,1
20.28,6.6821575,-7.120261999999999,-0.79122585,1004.1437400000001,1,1
20.32,6.8924975,-7.0487646999999996,-0.30357963,1004.1308,1,1
20.36,6.9833479999999994,-6.8962354999999995,-0.57817197,1004.12317,1,1
20.4,7.3837094,-6.5196495,-0.630355,1004.1184699999999,1,1
20.44,7.985948,-6.4624505,-0.75345105,1004.1635,1,1
20.48,9.0470495,-6.7675095,-0.40784094,1004.1533,1,1
20.52,10.165506,-5.9667277,0.07980121,1004.1306,1,1
20.56,11.465596000000001,-4.6892905,-0.25634304,1004.1405599999999,1,1
20.6,13.836364000000001,-3.5167167,0.26917437,1004.1357,1,1
20.64,15.585754999999999,-1.7387906000000002,0.63372207,1004.15045,1,1
20.68,14.462485000000001,-2.653969,0.9367225,1004.16046,1,1
20.72,11.972191,-4.7560205,1.2160508999999995,1004.1751,1,1
20.76,10.619489999999999,-6.104955,1.4527696,1004.1451400000001,1,1
20.8,10.366144,-8.03541,1.216048,1004.15265,1,1
20.84,9.816450999999999,-9.80857,0.62424594,1004.1522,1,1
20.88,9.438831,-11.500697,0.36385217,1004.1325699999999,1,1
20.92,5.089192400000001,-13.412085999999999,0.16974008,1004.17505,1,1
20.96,0.26157433,-14.33203,-2.7419202,1004.1295,1,1
21.0,-1.5882252000000001,-14.97075,-3.3952693999999997,1004.10913,1,1
21.04,0.41449618,-12.61607,-1.2931953999999999,1004.1243,1,1
21.08,3.0768304,-11.314799,-2.524142,1004.127,1,1
21.12,4.802325,-11.4101305,-3.7550885999999997,1004.1093,1,1
21.16,8.869914999999997,-12.601769,-1.5772647,1004.1394,1,1
21.2,11.18333,-12.887762,0.88935924,1004.1268,1,1
21.24,11.9098425,-11.767619999999999,3.0861216000000002,1004.17444,1,1
21.28,10.939527499999999,-9.474907,2.6316173,1004.1492,1,1
21.32,11.326675,-8.121203,1.6847346999999997,1004.1339999999999,1,1
21.36,12.784495,-4.798913,1.405403,1004.1316,1,1
21.4,12.704659,-2.148742,2.7122287999999997,1004.1338,1,1
21.44,12.255396000000001,-2.2154746,2.4518402000000004,1004.1342,1,1
21.48,11.911287,-2.8875601000000004,0.26454845,1004.1292,1,1
21.52,13.474326000000001,-4.431926,0.28822443,1004.1009,1,1
21.56,14.635845999999999,-5.1945760000000005,0.9179028,1004.1138,1,1
21.6,15.171235000000001,-7.0344676999999995,1.0031267,1004.1263,1,1
21.64,14.057579,-9.460647,0.96998936,1004.1307400000001,1,1
21.68,13.326309,-12.873503,0.55336547,1004.1509,1,1
21.72,13.617907999999998,-14.594231,0.50602424,1004.1484,1,1
21.76,13.751779999999998,-15.228183,1.5191902,1004.1636,1,1
21.8,10.415528,-13.993646,1.8600721000000002,1004.1560699999999,1,1
21.84,8.556227999999999,-12.620878,1.3582292,1004.1733,1,1
21.88,7.695900999999999,-11.581771,0.85638577,1004.17535,1,1
21.92,7.0745535,-10.928753,0.8327163000000001,1004.1708,1,1
21.96,3.0308936,-9.875344,1.1499262,1004.1176,1,1
22.0,-2.0117616999999997,-11.739069,0.07048547,1004.1254,1,1
22.04,-3.8328260999999997,-12.3777895,-2.5949805,1004.1129,1,1
22.08,-0.4486847,-12.592284,-1.8469411,1004.095,1,1
22.12,3.963115,-14.022253,-0.50236636,1004.0923,1,1
22.16,7.404611,-15.161461,0.91322416,1004.11285,1,1
22.2,12.523823,-15.318759,1.1830889,1004.1173,1,1
22.24,14.741693,-14.722939499999999,0.1367892,1004.0975,1,1
22.28,14.971157999999999,-14.417881,-1.4066235,1004.1176,1,1
22.32,14.760889,-12.277698,-1.5628549999999999,1004.1173,1,1
22.36,14.23037,-10.232845,-0.6207049,1004.1571,1,1
22.4,13.723020000000002,-8.0592785,0.47761378,1004.1673,1,1
22.44,13.421904000000001,-5.7046003,1.4671053,1004.1573,1,1
22.48,12.34168,-4.193601999999999,1.4292312,1004.1296,1,1
22.52,12.002322999999999,-2.9161648999999996,0.73800915,1004.1321,1,1
22.56,12.36082,-2.2059484,0.42553937,1004.1396,1,1
22.6,13.407607999999998,-2.210715,0.16041374,1004.14667,1,1
22.64,14.009873,-4.441464,0.9321226999999999,1004.12177,1,1
22.68,13.966867,-7.840019,1.5760027,1004.1239,1,1
22.72,14.425739000000002,-9.751408999999999,2.1062574,1004.14636,1,1
22.76,14.354054000000001,-12.039356,2.0021014,1004.1638,1,1
22.8,14.263248999999998,-15.109019,2.0494466,1004.1739,1,1
22.84,14.851176999999998,-17.163404,1.9689624,1004.1988,1,1
22.88,13.2690735,-17.444632000000002,2.8874383,1004.1662,1,1
22.92,9.641212,-15.785872,2.9300487,1004.2012300000001,1,1
22.96,6.873717299999999,-12.611344,1.7701206000000005,1004.1560000000001,1,1
23.0,6.2714734000000005,-10.209000999999999,0.6338645,1004.1611300000001,1,1
23.04,5.4015603,-9.279522,0.79010093,1004.1809,1,1
23.08,3.7812169,-8.831466,0.8374459000000001,1004.1457,1,1
23.12,1.7832703999999997,-7.3919663,0.88479096,1004.1285,1,1
23.16,0.43537718,-7.1870046,0.046802397999999995,1004.14594,1,1
23.2,-0.9889943999999999,-8.230881,-0.6538885999999999,1004.08795,1,1
23.24,0.6743901999999999,-9.56075,-0.8479979999999999,1004.10046,1,1
23.28,4.3739696,-10.766689999999999,-1.6481115000000002,1004.1077,1,1
23.32,7.3709183000000005,-13.5169935,-2.1404883999999997,1004.0953,1,1
23.36,11.3572855,-16.381693,-0.9900271,1004.1402,1,1
23.4,15.655166,-17.363625,-0.01939755,1004.1429,1,1
23.44,16.654188,-15.833561999999999,1.3251773999999998,1004.12714,1,1
23.48,14.340807999999999,-12.863997,2.0400765,1004.13495,1,1
23.52,13.074204,-9.808636,1.7986261000000001,1004.1627,1,1
23.56,12.443311999999999,-8.183241,1.5666440000000001,1004.1821,1,1
23.6,11.07633,-7.458725500000001,1.4056779,1004.1546599999999,1,1
23.64,10.641413,-5.699867,2.362032,1004.1677,1,1
23.68,11.4349,-3.7265131,2.1915972000000004,1004.14215,1,1
23.72,12.214056,-2.5873075,0.6576543,1004.14465,1,1
23.76,13.055342,-1.9724226000000002,0.05638846,1004.17,1,1
23.8,13.117526999999999,-3.1449966000000003,0.23156598,1004.172,1,1
23.84,12.013435000000001,-6.019232,1.041153,1004.1542400000001,1,1
23.88,11.578517999999999,-8.893467,1.4388471,1004.1614,1,1
23.92,12.056541000000001,-12.477919,-0.03354871,1004.1591,1,1
23.96,12.090038999999999,-14.594270999999999,-0.4975168,1004.1641,1,1
24.0,11.636003,-12.744848,-0.5827319999999999,1004.1867699999999,1,1
24.04,10.699204,-14.022286,1.0317040000000002,1004.199,1,1
24.08,10.398122,-14.284448000000001,3.3278943999999995,1004.1863,1,1
24.12,5.441509,-14.560908,3.1858664,1004.1689,1,1
24.16,-0.47584337,-14.551376999999999,2.4520378,1004.19385,1,1
24.2,0.24116881,-11.591346000000001,0.8423438,1004.13885,1,1
24.24,3.0851965,-9.389199000000001,1.5146333,1004.1689,1,1
24.28,4.609998,-8.359623,1.4530902,1004.1484,1,1
24.32,5.341353,-7.392013,1.637736,1004.11584,0,0
24.36,5.6281852999999975,-7.5779095000000005,0.7902816,1004.1435,0,0
24.4,6.0527105,-7.778084,-0.19455482,1004.1455699999999,0,0
24.44,5.8806458,-8.121276,-0.89998037,1004.1310000000001,0,0
24.48,5.526947,-8.3453045,-0.48808652,1004.1585,0,0
24.52,5.990596,-8.159409,-0.066723794,1004.14307,0,0
24.56,6.726692699999999,-7.887715299999999,-0.6869301,1004.15576,0,0
24.6,8.165422,-7.987813,-1.1651044,1004.1683,0,0
24.64,9.776223,-7.2442307,-1.4586368,1004.12006,0,0
24.68,10.909044,-6.1193233,-0.9851956000000001,1004.14795,0,0
24.72,11.544766000000001,-5.313775499999998,0.084780544,1004.13544,0,0
24.76,11.105031,-5.132646,0.63397217,1004.17255,0,0
24.8,9.929206,-5.328075,0.6292384,1004.1804,0,0
24.84,8.696026,-6.2098885,0.34990928,1004.17786,0,0
24.88,7.797428599999999,-6.7580423,0.051642417999999995,1004.1475,0,0
24.92,7.1330433000000015,-7.0345035000000005,0.01376785,1004.18256,0,0
24.96,6.831923,-6.963005,-0.29870215,1004.1524,0,0
25.0,6.956206,-6.734211,-0.4549368,1004.17786,0,0
25.04,7.3051395,-6.862907400000001,-0.20874706,1004.15216,0,0
25.08,7.2525687,-7.1870337,0.0043018273999999995,1004.1546599999999,0,0
25.12,6.8940907000000005,-7.0869365,-0.37444988,1004.1796,0,0
25.16,6.5451727,-7.034504400000001,-0.6253727,1004.14667,0,0
25.2,6.588197,-6.948706,-0.9094363000000001,1004.1492,0,0
25.24,6.597764999999999,-6.9630065000000005,-1.0135925,1004.1722,0,0
25.28,6.540414299999999,-7.106003,-0.7910746999999999,1004.1617,0,0
25.32,6.798532499999999,-6.9725394,-0.30343035,1004.1592,0,0
25.36,7.1187863,-6.7866445,-0.36024258,1004.1463,0,0
25.4,7.477690700000001,-6.548326,-0.19923449,1004.1647,0,0
25.44,7.4394746,-6.567394,-0.00985622,1004.14624,0,0
25.48,7.4156,-6.5959935,0.10850611,1004.15936,0,0
25.52,7.559017699999999,-6.4911294,0.03749226,1004.1362,0,0
25.56,7.492125,-6.4339319999999995,-0.03352161,1004.1588,0,0
25.6,7.798056599999999,-6.343368,0.20320082,1004.17615,0,0
25.64,7.745500999999999,-6.5101976,0.16059324,1004.1658,0,0
25.68,7.544778,-6.4482336,-0.16134366,1004.16077,0,0
25.72,7.5304565000000006,-6.405334,-0.13293558,1004.15076,0,0
25.76,7.372752999999999,-6.7723603,-0.12346399,1004.15576,0,0
25.8,7.301079,-6.743761,-0.20868124,1004.1787,0,0
25.84,7.100345,-6.6007648,-0.26549244,1004.1331,0,0
25.88,6.9282966,-6.7103963,-0.38858473,1004.1637,0,0
25.92,6.7897105,-6.943958800000001,-0.34123802,1004.1687,0,0
25.96,6.8375344,-6.834328,-0.16606279,1004.1458,0,0
26.0,6.933146499999999,-6.824795699999999,-0.34596857,1004.1533,0,0
26.04,6.837575,-6.958260000000001,-0.30335674,1004.1583,0,0
26.08,6.8615026,-6.910595,-0.4453863,1004.1606400000001,0,0
26.12,6.9810157,-6.8343300000000005,-0.5258694,1004.1556,0,0
26.16,7.3873296,-6.4768395,-0.70103973,1004.1581,0,0
26.2,7.444705,-6.5197387,-0.64895964,1004.1606400000001,0,0
26.24,7.392157000000001,-6.710402,-0.35068935,1004.1653,0,0
26.28,7.3348217,-6.905831299999999,-0.113967046,1004.1578,0,0
26.32,7.526039999999999,-6.4434757000000005,-0.41696662,1004.1531,0,0
26.36,7.8080690000000015,-6.1288834,-0.5779344,1004.1628,0,0
26.4,7.052693400000001,-6.810497,-0.43118320000000004,1004.1676,0,0
26.44,6.278382,-7.0964913,-0.34122792,1004.1527,0,0
26.48,7.138763000000001,-6.553104,-0.10450624,1004.1522,0,0
26.52,7.784052,-6.1431804,-0.24180256,1004.1574,0,0
26.56,7.7171509999999985,-6.190846400000001,-0.5968814,1004.1650400000001,0,0
26.6,7.296545,-6.6722693,-0.22759633,1004.17725,0,0
26.64,6.8711576,-6.9010644,-0.15184444,1004.15216,0,0
26.68,6.7373395,-6.858165299999999,-0.61581457,1004.1524699999999,0,0
26.72,6.6943383,-6.7533016,-0.65842265,1004.1674,0,0
26.76,6.703913000000001,-6.8391004,-0.398029,1004.18445,0,0
26.8,6.7660675,-6.924898599999999,-0.35068348,1004.15674,0,0
26.84,6.871239699999999,-6.7819023000000005,-0.4548389,1004.1647300000001,0,0
26.88,6.8091183000000015,-6.510209,-0.35068044,1004.19714,0,0
26.92,6.985987,-6.3147807,-0.18970920000000002,1004.1443,0,0
26.96,7.167635400000001,-6.2003837,-0.009800412,1004.16437,0,0
27.0,7.3827434000000025,-6.2909484,0.07542038,1004.1492,0,0
27.04,7.2154669999999985,-6.5292769999999996,0.065953106,1004.1313,0,0
27.08,7.0625279999999995,-6.70564,0.20798665,1004.18933,0,0
27.12,6.9526086,-6.8295710000000005,0.2363945,1004.17163,0,0
27.16,7.110359700000001,-6.977334,-0.061871406,1004.1541,0,0
27.2,7.268109299999999,-6.872471000000001,-0.057135495999999994,1004.1438,0,0
27.24,7.072153999999999,-6.977335000000001,-0.15182206,1004.1688,0,0
27.28,7.287259,-7.0345345,-0.057132665,1004.1662,0,0
27.32,7.3494134,-6.6484437000000005,0.06122898,1004.1688,0,0
27.36,7.459364999999999,-6.5435795999999975,-0.22283379999999997,1004.1788,0,0
27.4,7.578496,-6.4291735,-0.0050845854,1004.1687,0,0
27.44,7.482900999999999,-6.934428,0.27424540000000003,1004.1663,0,0
27.48,7.4446635,-7.239487599999999,0.49676254,1004.1686,0,0
27.52,7.2534733,-7.0202265,0.9559999,1004.1912,0,0
27.56,7.396867999999999,-6.6770344,0.74768627,1004.2038,0,0
27.6,7.258255,-6.638901700000001,0.61038864,1004.18066,0,0
27.64,7.0718440000000005,-6.886762599999999,0.5772479,1004.17346,0,0
27.68,6.9236712,-6.7294664000000015,0.8376403,1004.1757,0,0
27.72,6.995369999999999,-6.881996000000001,0.76662433,1004.17804,0,0
27.76,7.0814080000000015,-6.9010625,0.7713588,1004.1655,0,0
27.8,6.971473,-7.048825999999999,0.84237504,1004.1528300000001,0,0
27.84,6.4361362,-7.220422,0.7760935,1004.1831699999999,0,0
27.88,6.3501015,-7.287153999999999,0.7145463000000001,1004.1703,0,0
27.92,6.7372665,-7.163223299999999,0.6719368,1004.17065,0,0
27.96,7.1865697,-6.6913342,0.9228603999999999,1004.1776,0,0
28.0,7.043176700000001,-6.4768395,0.9749389,1004.1649,0,0
28.04,6.7994080000000015,-6.667501400000001,0.9228606,1004.1601,0,0
28.08,7.01928,-6.739,0.6908749,1004.15015,0,0
28.12,7.3921056,-6.724700500000001,0.7808286999999999,1004.1419999999999,0,0
28.16,7.4590244000000006,-6.724700500000001,0.8045008000000001,1004.15717,0,0
28.2,7.3347507,-6.815264999999999,0.7713601,1004.1595,0,0
28.24,7.0336240000000005,-6.9630279999999996,0.58198404,1004.1619999999999,0,0
28.28,7.0957630000000025,-6.8819966,0.3405295,1004.1445,0,0
28.32,7.167461,-6.89153,0.520437,1004.1316,0,0
28.36,7.239160000000001,-6.977328,0.3499985,1004.14667,0,0
28.4,7.425953,-7.0679016,0.46365908,1004.1491,0,0
28.44,7.206099000000001,-7.225198700000001,0.5441456,1004.1616,0,0
28.48,7.0340414,-7.1346345,0.43052128,1004.1591,0,0
28.52,6.890662,-7.082203,0.27902165,1004.1619999999999,0,0
28.56,6.732946000000001,-6.977339,0.22221038,1004.1669300000001,0,0
28.6,6.8476777,-6.9678062999999995,0.09911734,1004.1564300000001,0,0
28.64,6.838135,-7.0345387000000015,0.103853285,1004.1792,0,0
28.68,6.881168,-7.063138499999999,0.34057495,1004.1513,0,0
28.72,7.2062125,-6.6722813,0.36898297,1004.1662,0,0
28.76,7.4834576,-6.505452,0.38318768,1004.1385,0,0
28.8,7.5169315,-6.5578847000000025,0.40212676,1004.1460599999999,0,0
28.84,7.3448753,-6.6246160000000005,0.32637775,1004.14825,0,0
28.88,7.3496704,-6.6293836,0.28850394,1004.1562,0,0
28.92,7.1393747,-6.9535100000000005,0.09439476,1004.15076,0,0
28.96,6.8526039999999995,-6.9487440000000005,-0.038166996,1004.1686,0,0
29.0,6.666207000000001,-6.939211,-0.028696764,1004.1433,0,0
29.04,6.9960309999999994,-6.7104163,-0.2654154,1004.1632699999999,0,0
29.08,6.996045,-6.572186500000001,-0.58261913,1004.1578400000001,0,0
29.12,7.2541714000000015,-6.6722850000000005,-0.70571214,1004.1503,0,0
29.16,7.254188,-6.6389194000000025,-0.6252258,1004.1404,0,0
29.2,7.034333,-6.5006900000000005,-0.38850409999999996,1004.1479,0,0
29.24,6.6471853,-6.781917,-0.18965755,1004.17084,0,0
29.28,6.312615,-6.9725795,-0.09496803599999999,1004.1479,0,0
29.32,6.441685,-6.82005,-0.15651388,1004.15015,0,0
29.36,6.6520133,-7.2395070000000015,0.17016155,1004.14264,0,0
29.4,6.738476299999999,-7.1918526,-0.099660456,1004.1628,0,0
29.44,7.006181,-6.8677273,-0.0049691424,1004.1600300000001,0,0
29.48,7.087467999999999,-6.6865993,-0.48314118,1004.1474,0,0
29.52,7.154418,-6.662767,-0.87135935,1004.1728,0,0
29.56,7.13055,-6.7294993000000005,-0.7103868,1004.1575,0,0
29.6,7.2213993,-6.7724,-0.6298989,1004.1521,0,0
29.64,7.446083,-6.6484694000000015,-0.65356785,1004.1371,0,0
29.68,7.5895100000000015,-6.5436062999999995,-0.6062208,1004.15,0,0
29.72,7.5226254,-6.5722065,-0.2748094,1004.17255,0,0
29.76,7.6278105,-6.524541999999999,-0.094899446,1004.1546,0,0
29.8,7.5083504,-6.3863125,-0.07122421,1004.1421,0,0
29.84,7.341089999999999,-6.677073,-0.066486776,1004.16455,0,0
29.88,7.3267837,-6.7676387,-0.047546137,1004.1316,0,0
29.92,7.2407765,-6.5769773,-0.23218526,1004.1667,0,0
29.96,7.0735160000000015,-6.553145400000001,-0.36001120000000003,1004.1846300000001,0,0
30.0,7.0496479999999995,-6.6627765,-0.5446502,1004.1695599999999,0,0
30.04,7.0353436,-6.6198783,-0.5257093,1004.16455,0,0
30.08,6.992356299999999,-6.7056770000000006,-0.48783123,1004.1566,0,0
30.12,7.1692505,-6.6627793,-0.23216961,1004.1616,0,0
30.16,7.226639299999999,-6.638947,-0.28897962,1004.1614400000001,0,0
30.2,7.236233,-6.700913000000001,-0.52096224,1004.1439999999999,0,0
30.24,7.045072,-6.8629766000000005,-0.30317682,1004.1488,0,0
30.28,7.021205999999999,-6.929710000000001,-0.25109535,1004.1712,0,0
30.32,7.0594779999999995,-6.8534455,-0.22268589,1004.17395,0,0
30.36,6.944795,-6.9583106,-0.1990109,1004.18896,0,0
30.4,6.881606,-6.9153857000000025,-0.22751354,1004.1538,0,0
30.44,6.8098984,-7.0679149999999975,-0.22278009999999998,1004.1457,0,0
30.48,6.862467999999999,-7.010716,-0.20384334,1004.1457,1,2
30.52,7.5172906,-6.562659299999999,-0.14229697,1004.1610000000001,1,2
30.56,7.9426820000000005,-6.5388265,0.17964154,1004.1485,1,2
30.6,9.151963,-5.361487,-0.6110049,1004.16315,1,2
30.64,9.797227000000001,-4.9610962999999995,-1.6052308000000002,1004.158,1,2
30.68,9.692061,-5.0993257000000005,-0.23225437,1004.15814,1,2
30.72,9.505638000000001,-5.0897927,1.0128931,1004.17065,1,2
30.76,9.367014999999999,-5.3662524000000005,1.2401437,1004.158,1,2
30.8,8.831667,-5.9763720000000005,1.1975331,1004.18304,1,2
30.84,8.29632,-6.5197587,1.183329,1004.16046,1,2
30.88,7.8374479999999975,-6.915383,1.0839056,1004.1527,1,2
30.92,6.8193398,-7.601766599999999,0.7572308000000001,1004.13464,1,2
30.96,3.8893096,-9.079399,-0.20858870000000002,1004.1599,1,2
31.0,1.8005254000000002,-9.732417,-2.3011963,1004.1377,1,2
31.04,1.0835447,-10.957422,-3.1202493,1004.14276,1,2
31.08,2.0872936,-11.963164,-1.6857258999999998,1004.1425,1,2
31.12,4.677937,-12.072796,-1.7046643,1004.1524699999999,1,2
31.16,7.1012883,-12.20626,-2.1070895,1004.1293300000001,1,2
31.2,8.826787,-10.804892,-2.111825,1004.1592400000001,1,2
31.24,9.127906,-9.9326105,-1.6762605,1004.1748699999999,1,2
31.28,9.261731,-10.213838,-0.37430015,1004.1521,1,2
31.32,9.820957,-9.746716000000001,1.1312396999999998,1004.1669999999999,1,2
31.36,11.020678,-8.149919,2.8687654,1004.15894,1,2
31.4,10.582453999999998,-6.505493,3.0772182999999997,1004.1793,1,2
31.44,9.803393,-6.0431385,2.2060921000000002,1004.1365400000001,1,2
31.48,10.228847,-5.938276,1.5196077,1004.15436,1,2
31.52,11.806231,-5.1613274,1.9883182000000001,1004.1539300000001,1,2
31.56,12.790919,-2.7160852,3.3565660000000004,1004.1443,1,2
31.6,12.05488,-1.9725034,2.352877,1004.1514,1,2
31.64,10.448912,-5.8715480000000015,0.34549326,1004.10895,1,2
31.68,10.200416,-10.19005,-1.9932976999999998,1004.12885,1,2
31.72,12.021571,-12.468465,-1.9648868000000002,1004.1415,1,2
31.76,12.748149,-13.2120495,0.14666216,1004.13385,1,2
31.8,13.369575,-13.417013,0.7053265999999999,1004.17896,1,2
31.84,11.801849,-13.57431,-0.09951761,1004.1439999999999,1,2
31.88,7.633908,-13.38365,-1.5056314,1004.14124,1,2
31.92,4.9142537000000015,-10.681014,-2.0690205,1004.1539,1,2
31.96,4.187771,-8.80299,-1.3162459999999998,1004.1433,1,2
32.0,2.3810558,-8.884023,-1.6287120000000002,1004.1436,1,2
32.04,0.736854,-8.965056,-1.4109247999999999,1004.1257,1,2
32.08,1.1862030000000001,-9.966034,-1.4866708999999998,1004.12585,1,2
32.12,2.5293756000000003,-11.286371,-1.5056041,1004.1179,1,2
32.16,4.369654,-12.883169,-0.3930141,1004.1283599999999,1,2
32.2,6.654451,-13.188231,1.7469414,1004.1229,1,2
32.24,9.431564,-12.663910000000001,2.3576841,1004.1379400000001,1,2
32.28,11.553848,-11.624803,2.2393289000000003,1004.11536,1,2
32.32,11.778547,-12.087159,1.9884093999999997,1004.15546,1,2
32.36,10.325538,-12.101460000000001,2.210931,1004.1254,1,2
32.4,10.008852000000001,-9.65142,1.7705199,1004.13275,1,2
32.44,10.697142999999999,-8.216686,2.1682099999999997,1004.1324,1,2
32.48,10.180925,-7.863961,1.8368015,1004.1349,1,2
32.52,10.266961,-6.5817575,1.8083951,1004.1377,1,2
32.56,10.496392,-4.675135,1.8510048,1004.14276,1,2
32.6,10.195264,-3.9172518,0.97514,1004.1148699999999,1,2
32.64,10.639786,-4.6036363,0.056665442999999996,1004.1249,1,2
32.68,13.416851999999999,-3.9887497000000014,-0.8097306,1004.1324,1,2
32.72,13.847033499999998,-5.699944,-0.49252552,1004.10724,1,2
32.76,12.790697,-9.413092,0.27918246,1004.10724,1,2
32.8,11.361536,-10.885959,0.8615143,1004.13464,1,2
32.84,10.410355000000001,-11.062321,1.2781419,1004.1594,1,2
32.88,10.510732,-13.555229999999998,1.6332222,1004.1796,1,2
32.92,10.252622,-15.771679999999998,2.5564310000000003,1004.1644,1,2
32.96,9.473514,-14.8422,2.7742138,1004.17444,1,2
33.0,8.33592,-12.492288,2.1587412,1004.17725,1,2
33.04,8.33592,-10.294905,3.2429200000000002,1004.1919,1,2
33.08,8.818681,-9.298695,3.2949984,1004.1489,1,2
33.12,7.762342999999999,-9.17953,3.0914187,1004.1566,1,2
33.16,6.4192184999999995,-8.817273,3.4512336,1004.13885,1,2
33.2,5.004396400000001,-8.621844,3.2997324,1004.1365,1,2
33.24,4.0675550000000005,-8.240519,2.3670547,1004.10895,1,2
33.28,2.9682002,-8.312016999999999,1.7089727,1004.10614,1,2
33.32,1.9453222,-8.154721,1.0130152,1004.0864,1,2
33.36,1.6776533,-8.426414999999999,1.0177495,1004.0963,1,2
33.4,3.0784209,-8.717182000000001,1.0982604999999999,1004.1139,1,2
33.44,6.6298259999999996,-9.861155499999999,-1.1269087,1004.0885,1,2
33.48,9.645894,-12.406498,-2.8549652,1004.0785,1,2
33.52,11.897193,-14.651546,-6.746645,1004.1087,1,2
33.56,11.643875,-14.52285,-7.333710000000001,1004.10345,1,2
33.6,12.523368,-13.764967,-6.079092,1004.1461,1,2
33.64,12.681113999999999,-12.835488,-5.6293225,1004.1031,1,2
33.68,12.786282,-12.401732,-6.169043,1004.1586,1,2
33.72,14.153316,-10.137618,-6.045948,1004.16364,1,2
33.76,16.199082999999998,-7.2252517,-3.759229,1004.1633,1,2
33.8,15.348289499999998,-5.1851660000000015,-2.4430637,1004.1383,1,2
33.84,13.947819,-5.266198,-1.169508,1004.18115,1,2
33.88,13.503307000000001,-6.8534616999999995,1.2734457000000001,1004.1857,1,2
33.92,13.273889000000002,-9.088977,5.004158,1004.203,1,2
33.96,13.034908,-11.872646000000001,8.024709,1004.2055,1,2
34.0,11.777835000000001,-12.930822000000001,9.970550999999999,1004.2205,1,2
34.04,11.032194,-12.845024,8.2235565,1004.18787,1,2
34.08,11.065663,-11.672452,6.5523124,1004.18787,1,2
34.12,10.850583,-12.744927,6.126217,1004.15265,1,2
34.16,10.104944999999999,-11.910781,7.551274,1004.1828,1,2
34.2,9.555278999999999,-12.196774000000001,7.2009286999999995,1004.1652,1,2
34.24,8.642348,-12.406504,6.784302,1004.1479,1,2
34.28,7.4713059999999984,-12.096677,5.6243739999999995,1004.1402,1,2
34.32,6.754346400000001,-11.124299,4.2466636,1004.13525,1,2
34.36,7.667304,-9.923128,2.2392771000000002,1004.1402,1,2
34.4,7.795796000000001,-9.460758,1.0556241000000002,1004.1174,1,2
34.44,7.910500999999999,-9.122332,0.39754105,1004.12537,1,2
34.48,7.7670955999999975,-9.046066999999999,0.2649767,1004.1304,1,2
34.52,6.5386734,-9.6180525,0.35019487,1004.1,1,2
34.56,5.372393,-9.546555,0.21763076,1004.1304,1,2
34.6,3.3600821000000005,-8.631375,-1.6856011999999998,1004.07715,1,2
34.64,2.9490075,-7.658997500000001,-3.0727827999999997,1004.1152,1,2
34.68,4.2491026,-7.177575,-3.759272,1004.12006,1,2
34.72,6.1275559999999984,-7.263373,-4.715623,1004.12006,1,2
34.76,7.5997270000000015,-8.059388,-4.7582335,1004.1023,1,2
34.8,10.32898,-8.4979105,-2.315282,1004.1122,1,2
34.84,10.8882065,-7.177574000000001,-1.5814504999999999,1004.1398300000001,1,2
34.88,11.060267999999999,-5.1994524,-2.1164389999999997,1004.12964,1,2
34.92,12.417721,-7.148974000000001,-2.561474,1004.13214,1,2
34.96,13.474046,-9.193827,-1.0038562,1004.12445,1,2
35.0,13.091650999999999,-4.956357,0.05664951,1004.16205,1,2
35.04,12.020964,-2.4062490000000003,-0.32683825,1004.1289999999999,1,2
35.08,8.9093,-3.8457491000000004,-2.3815708,1004.1697,1,2
35.12,7.704778,-5.251883,-2.8834188,1004.1393400000001,1,2
35.16,7.762124000000001,-6.3529572,-1.3305352,1004.1697,1,2
35.2,7.049922500000001,-7.1060734,-0.12326303,1004.1598,1,2
35.24,7.3605985999999985,-6.996442299999999,0.15606589999999998,1004.1444,1,2
35.28,7.31279,-6.4435205,-0.40259483,1004.1266,1,2
35.32,7.4657326,-5.709471,-1.0654126,1004.1189,1,2
35.36,7.1741532999999995,-6.0669622,-1.9460129000000002,1004.1189999999999,0,0
35.4,6.9081287,-6.753386999999999,-1.5529068000000001,1004.13385,0,0
35.44,6.8221436,-6.476928,-0.9326949000000001,1004.1089,0,0
35.48,6.8556532999999975,-6.0574727,-0.4876563,1004.1438,0,0
35.52,7.4914255,-6.8677883,-0.39296293,1004.1538,0,0
35.56,7.4819202,-7.9783974,0.10415459,1004.1363,0,0
35.6,6.70286,-7.516042999999999,0.3172072,1004.13904,0,0
35.64,6.105442,-6.4912343,0.50658864,1004.1484,0,0
35.68,6.095934,-6.76293,-0.7906335,1004.1238,0,0
35.72,6.2728410000000006,-7.015558,-1.6333526000000005,1004.14386,0,0
35.76,7.0089855,-6.7247996,-0.9942029,1004.1560000000001,0,0
35.8,7.0998529999999995,-7.1251917,-0.29350638,1004.1385,0,0
35.84,7.0090910000000015,-7.1442595,-0.33611098,1004.1334,0,0
35.88,7.4010897,-6.243380999999999,-0.6107015,1004.1310000000001,0,0
35.92,7.855225,-5.62373,-0.9421048000000001,1004.1513,0,0
35.96,8.26634,-5.6094317,-0.71011436,1004.1484,0,0
36.0,8.366769999999999,-6.1718874,-0.61542124,1004.1182,0,0
36.04,8.256889,-6.68191,-0.20825748,1004.1534,0,0
36.08,7.955813,-6.400684,-0.4402385999999999,1004.1157,0,0
36.12,7.826809,-6.152824400000001,-1.0983162,1004.1584,0,0
36.16,7.7360473,-6.25769,-1.6048924999999998,1004.1128,0,0
36.2,7.5162309999999986,-6.4435873,-1.3965736999999998,1004.1432,0,0
36.24,7.4063497000000025,-6.5913515,-0.8095025,1004.1457,0,0
36.28,7.3729424,-6.5341544,-0.41654223,1004.1301,0,0
36.32,7.4542537,-6.2862945,-0.45914692,1004.153,0,0
36.36,7.506886,-6.310128700000001,-0.5301579000000001,1004.1705300000001,0,0
36.4,7.3144155,-6.4435606,-0.4355869000000001,1004.14526,0,0
36.44,7.376554,-6.3720627,-0.30302346,1004.1507,0,0
36.48,7.2714,-6.352996,-0.5160715,1004.1303,0,0
36.52,7.29052,-6.352996,-0.6817755999999999,1004.115,0,0
36.56,7.5199523,-6.305331,-0.8664173000000001,1004.14276,0,0
36.6,7.505614299999999,-6.419728299999999,-0.8474796,1004.15,0,0
36.64,7.515175,-6.3577633,-0.54447746,1004.153,0,0
36.68,7.5056167,-6.2290664000000024,-0.63443106,1004.12225,0,0
36.72,7.4912785999999985,-6.3625298,-0.8806200000000001,1004.14795,0,0
36.76,7.524738,-6.343464,-0.60129005,1004.10455,0,0
36.8,7.5056205,-6.457861,-0.43558577,1004.13745,0,0
36.84,7.500841,-6.414962,-0.46399206,1004.1469999999999,0,0
36.88,7.505623,-6.3529963,-0.5302736,1004.1193,0,0
36.92,7.424367399999999,-6.2243,-0.55394554,1004.1422,0,0
36.96,7.3861300000000005,-6.3196309999999984,-0.38350686,1004.14984,0,0
37.0,7.367012,-6.6818895000000005,-0.24147458,1004.1139999999999,0,0
37.04,7.2905364000000015,-6.5960917000000014,-0.26988092,1004.1522,0,0
37.08,7.338335499999999,-6.538893,-0.37877209999999994,1004.1396,0,0
37.12,7.1567044000000015,-6.653290299999999,-0.7433211,1004.1419999999999,0,0
37.16,7.0706690000000005,-6.734322,-0.71491456,1004.1289999999999,0,0
37.2,7.003753,-6.729555,-0.7385864000000001,1004.14685,0,0
37.24,7.0324335000000024,-6.681889999999999,-0.8238056999999999,1004.1215,0,0
37.28,7.018095,-6.700956,-0.71964866,1004.13904,0,0
37.32,7.037215700000001,-6.734322,-0.42611545,1004.1239999999999,0,0
37.36,7.051556599999999,-6.677123,-0.34563044,1004.1496,0,0
37.4,7.1088834,-6.577025,-0.37403968,1004.1389999999999,0,0
37.44,7.2952960000000004,-6.4673940000000005,-0.32196125,1004.14685,0,0
37.48,7.3717732000000025,-6.4816937,-0.25567958,1004.14905,0,0
37.52,7.4004517000000005,-6.4530945,-0.18939792,1004.1585,0,0
37.56,7.496047999999999,-6.4101954,-0.4024461,1004.1614400000001,0,0
37.6,7.510387,-6.386362,-0.43085253,1004.1365400000001,0,0
37.64,7.515167,-6.381596,-0.38350850000000003,1004.12604,0,0
37.68,7.491267999999999,-6.491226,-0.48293096,1004.1136,0,0
37.72,7.237938400000001,-6.686655,-0.66283834,1004.14355,0,0
37.76,7.175801299999999,-6.6723557,-0.5160718,1004.1614400000001,0,0
37.8,7.2761765,-6.6437564,-0.49239979999999994,1004.1357,0,0
37.84,7.1997,-6.596091,-0.7101824000000001,1004.1334,0,0
37.88,7.2283789999999986,-6.686655,-0.65810394,1004.1309,0,0
37.92,7.1375627999999995,-6.7438536,-0.62496316,1004.1636,0,0
37.96,7.1805806,-6.648523299999999,-0.6107599,1004.1509,0,0
38.0,7.128003,-6.6437564,-0.6391663000000001,1004.1382,0,0
38.04,7.123223299999999,-6.6342235,-0.6012911,1004.1510599999999,0,0
38.08,7.223599,-6.596091,-0.47819656,1004.1229,0,0
38.12,7.223599,-6.61039,-0.5208062,1004.12585,0,0
38.16,7.290516,-6.4673940000000005,-0.5539470999999999,1004.1433,0,0
38.2,7.3430940000000025,-6.472161,-0.47819656,1004.1331,0,0
38.24,7.4386899999999985,-6.357762999999999,-0.6107599,1004.123,0,0
38.28,7.4243507,-6.4578605000000024,-0.7480576,1004.1253,0,0
38.32,7.4243507,-6.5150595000000004,-0.5160718,1004.1407,0,0
38.36,7.457809399999999,-6.50076,-0.4213837,1004.1128,0,0
38.4,7.543939999999999,-6.41973,-0.49712557,1004.1274,0,0
38.44,7.529604400000001,-6.3291664,-0.5728757,1004.13776,0,0
38.48,7.453132000000001,-6.4340305,-0.6959698000000001,1004.13245,0,0
38.52,7.3957770000000025,-6.5293617,-0.6912351,1004.12225,0,0
38.56,7.3814416,-6.5770273,-0.53026503,1004.1279,0,0
38.6,7.3240880000000015,-6.562727499999999,-0.71017206,1004.1402,0,0
38.64,7.2284960000000025,-6.5674944,-0.80012536,1004.1429400000001,0,0
38.68,7.314537,-6.5913277,-0.7196401,1004.1103,0,0
38.72,7.252402,-6.577028,-0.6533581,1004.1175,0,0
38.76,7.2332864,-6.5484279999999995,-0.6249514,1004.1225599999999,0,0
38.8,7.290649,-6.481696599999999,-0.6580918,1004.12994,0,0
38.84,7.3575697,-6.4435644,-0.6249505999999999,1004.10974,0,0
38.88,7.3671320000000025,-6.4626307,-0.5444654999999999,1004.12994,0,0
38.92,7.3719172,-6.4340315000000015,-0.46398008,1004.15295,0,0
38.96,7.577451700000001,-6.295801,-0.60127753,1004.1345,0,0
39.0,7.620475,-6.233836,-0.7717158000000001,1004.1401,0,0
39.04,7.6491555999999985,-6.1957035000000005,-0.7811844,1004.13214,0,0
39.08,7.3862714999999985,-6.424499,-0.56340134,1004.13965,0,0
39.12,7.2667800000000025,-6.4673977,-0.4261032,1004.1452,0,0
39.16,7.2906823,-6.4530983,-0.55393183,1004.1577,0,0
39.2,7.338485,-6.500764,-0.62968194,1004.1376,0,0
39.24,7.343267999999999,-6.538897,-0.53972787,1004.1345,0,0
39.28,7.3623914999999975,-6.619928,-0.58233714,1004.0971699999999,0,0
39.32,7.4340906,-6.53413,-0.8095883,1004.1271,0,0
39.36,7.553590299999999,-6.205238,-1.0179019,1004.13464,0,0
39.4,7.496236,-6.2719693,-0.9705575000000001,1004.13214,0,0
39.44,7.5201397,-6.3768334000000015,-0.77171206,1004.1421,0,0
39.48,7.4627852,-6.4769315999999995,-0.67702365,1004.1295,0,0
39.52,7.505807400000001,-6.486465,-0.92321223,1004.1145,0,0
39.56,7.5010309999999984,-6.248137,-0.5397251999999999,1004.127,0,0
39.6,7.5583925,-6.1671057000000005,-0.35034862,1004.13965,0,0
39.64,7.3050666,-6.057475,-0.20358177,1004.10913,0,0
39.68,7.3098507,-6.4340334000000015,-0.26986307,1004.122,0,0
39.72,7.142561,-6.557964,-0.18464345,1004.1296,0,0
39.76,7.1951427,-6.6103960000000015,-0.45923856,1004.13214,0,0
39.8,7.2190455999999985,-6.529364599999999,-0.8285218000000001,1004.0987,0,0
39.84,7.367222999999999,-6.2815037,-1.1220546,1004.1394,0,0
39.88,7.438924,-6.338702,-0.9942252,1004.1419999999999,0,0
39.92,7.4819460000000015,-6.324403,-0.69595736,1004.1242,0,0
39.96,7.372014,-6.419734,-0.5633938000000001,1004.14685,0,0
40.0,7.4771733,-6.4292674000000005,-0.73383206,1004.1415400000001,0,0
40.04,7.735286,-6.1003747000000015,-0.5302523,1004.1444,0,0
40.08,7.725731,-6.1528068,-0.5302519,1004.1142,0,0
40.12,7.443726,-6.362536,-0.4497667,1004.13916,0,0
40.16,7.4054914000000025,-6.4531007,-0.35981265,1004.1468,0,0
40.2,7.362477,-6.5293655,-0.67228305,1004.13916,0,0
40.24,7.419838,-6.362536,-0.8379868,1004.1163,0,0
40.28,7.5297775,-6.3673024000000025,-1.0983788,1004.1312,0,0
40.32,7.902605499999999,-6.3911357,-1.093644,1004.1337,0,0
40.36,7.8739304999999975,-6.367303,-0.9137361999999999,1004.13916,0,0
40.4,7.5208,-6.3005853,-0.9373556999999999,1004.1436,0,0
40.44,7.1814594,-6.372084,-0.9231501,1004.1387300000001,0,0
40.48,6.8755803,-6.2862864,-0.927882,1004.12866,0,0
40.52,6.9807625,-6.453117,-0.5727992,1004.1337,0,0
40.56,7.1146235,-6.4960165000000005,-0.080418676,1004.11365,0,0
40.6,7.305840499999999,-6.4388185,-0.023603555,1004.1487400000001,0,0
40.64,7.195932000000001,-6.6199483999999975,-0.501776,1004.12366,0,0
40.68,7.081243,-6.639015,-0.7574314,1004.11115,0,0
40.72,7.3059173,-6.5675173,-0.6722100000000001,1004.1362,0,0
40.76,7.5258145,-6.305358,-0.9325996999999999,1004.11584,0,0
40.8,7.9847025999999985,-5.971699,-0.92786294,1004.10333,0,0
40.84,8.166363,-5.809637,-1.1882528,1004.13324,0,0
40.88,8.013436,-6.233861,-1.046218,1004.11584,0,0
40.92,7.5498166,-6.2862935,-0.9420591,1004.1386,0,0
40.96,7.057525,-6.4292912000000015,-0.90418136,1004.1207,0,0
41.0,6.904597,-6.7105190000000015,-0.9467888000000001,1004.1333,0,0
41.04,7.0193405,-6.4388255999999995,-0.804754,1004.1433,0,0
41.08,7.244016,-6.3816276,-0.67218834,1004.1458,0,0
41.12,7.2870607000000005,-6.2576975999999975,-0.8378899999999999,1004.1054,0,0
41.16,7.287087400000001,-6.381629,-0.9325757,1004.13574,0,0
41.2,7.334911,-6.4578942999999995,-0.5490866999999999,1004.1307,0,0
41.24,7.5500298,-6.472195,-0.18453492,1004.1232,0,0
41.28,7.703009,-6.286299,-0.38337764,1004.1054,0,0
41.32,7.731714200000001,-6.186203,-0.70058036,1004.1283599999999,0,0
41.36,7.569226,-6.3053675,-0.80473495,1004.1053,0,0
41.4,7.511261,-6.310119,-0.8758065999999999,1004.14825,0,0
41.44,7.449125,-6.3387184,-0.9089473,1004.14545,0,0
41.48,7.3678694,-6.4149833,-0.6390859999999999,1004.0953400000001,0,0
41.52,7.224476299999999,-6.529381,-0.5396635000000001,1004.1557,0,0
41.56,7.1719003,-6.615178599999999,-0.5207257000000001,1004.12036,0,0
41.6,7.214919,-6.6628440000000015,-0.5870072,1004.1182,0,0
41.64,7.2292604,-6.553213599999999,-0.7621802,1004.1,0,0
41.68,7.3296375,-6.529381,-0.84266496,1004.11755,0,0
41.72,7.3344183,-6.5198474000000015,-0.99890023,1004.11285,0,0
41.76,7.449135000000001,-6.4912480000000015,-0.9562904000000001,1004.1153,0,0
41.8,7.5064936,-6.510314,-0.9042119000000001,1004.1126,0,0
41.84,7.592531,-6.4721823,-0.7148355,1004.12537,0,0
41.88,7.688129400000001,-6.3339524,-0.68642896,1004.12006,0,0
41.92,7.664231,-6.276754,-0.4591774,1004.1274400000001,0,0
41.96,7.606874499999999,-6.200489,-0.55386543,1004.11456,0,0
42.0,7.415684,-6.372084,-0.59174055,1004.13995,0,0
42.04,7.3535476,-6.4531160000000005,-0.45917708,1004.1326,0,0
42.08,7.277072,-6.4388165,-0.48284906,1004.1298,0,0
42.12,7.1862563999999995,-6.6151789999999995,-0.66275626,1004.10956,0,0
42.16,7.2483954,-6.443583,-0.6958969,1004.13245,0,0
42.2,7.382231,-6.43405,-0.50178635,1004.1170699999999,0,0
42.24,7.468269,-6.410217299999999,-0.4307701,1004.1173,0,0
42.28,7.387014,-6.4149837,-0.44497323,1004.1351300000001,0,0
42.32,7.4013550000000015,-6.252921,-0.58227074,1004.13495,0,0
42.36,7.458713,-6.3530183,-0.6059427,1004.1351300000001,0,0
42.4,7.5211368,-6.391158,-0.5491037,1004.1423300000001,0,0
42.44,7.568948,-6.419758,-0.76215076,1004.10956,0,0
42.48,7.568960700000001,-6.462657,-0.9231193000000001,1004.145,0,0
42.52,7.4829360000000005,-6.36256,-1.0272752,1004.09906,0,0
42.56,7.459049,-6.400691999999999,-1.0509461000000002,1004.127,0,0
42.6,7.3634660000000025,-6.5198565,-0.85209984,1004.1295,0,0
42.64,7.2822213000000025,-6.553223,-0.74320745,1004.1294,0,0
42.68,7.282234,-6.515091,-0.71953434,1004.1346,0,0
42.72,7.2918057,-6.4674252999999995,-0.67218906,1004.1321,0,0
42.76,7.3157167,-6.44836,-0.6579848,1004.1243,0,0
42.8,7.330069,-6.4388266,-0.7005933000000001,1004.1189999999999,0,0
42.84,7.401782000000001,-6.372095,-0.7053262,1004.13684,0,0
42.88,7.43525,-6.333963400000001,-0.7905446,1004.1491,0,0
42.92,7.454381,-6.3482629999999975,-0.7763403,1004.1016,0,0
42.96,7.459173700000001,-6.3482633,-0.6485102,1004.1137,0,0
43.0,7.511764500000001,-6.205267,-0.7195252,1004.1291,0,0
43.04,7.5261145,-6.224334,-0.6532424,1004.12366,0,0
43.08,7.4735537,-6.3196650000000005,-0.55855286,1004.1718,0,0
43.12,7.392309,-6.4006968,-0.62009895,1004.1262,0,0
43.16,7.382762,-6.338731299999999,-0.6579731,1004.12866,0,0
43.2,7.4305725,-6.3005996,-0.67690957,1004.1389999999999,0,0
43.24,7.444924,-6.333966,-0.7479245,1004.1111,0,0
43.28,7.3350005000000005,-6.4245305,-0.76212674,1004.14355,0,0
43.32,7.2919946,-6.543695,-0.63903093,1004.13605,0,0
43.36,7.387604,-6.424531,-0.6627018,1004.13354,0,0
43.4,7.358618700000001,-6.381625,-0.70533943,1004.13324,0,0
43.44,7.353839,-6.4197574,-0.7148081999999999,1004.1460599999999,0,0
43.48,7.3681784,-6.5103215999999975,-0.62485456,1004.11615,0,0
43.52,7.3968573000000015,-6.4626565000000005,-0.62485456,1004.1641,0,0
43.56,7.549811,-6.329193,-0.71954274,1004.12823,0,0
43.6,7.5545907,-6.2576942,-0.7668866999999999,1004.12335,0,0
43.64,7.4972334,-6.324426,-0.6343234000000001,1004.1156,0,0
43.68,7.5163527000000006,-6.448357,-0.6579954,1004.13354,0,0
43.72,7.502012700000001,-6.3530254,-0.7100739,1004.14355,0,0
43.76,7.540251299999999,-6.2767610000000005,-0.77162117,1004.1555,0,0
43.8,7.478114,-6.2338614,-0.8473716,1004.1455,0,0
43.84,7.4207563,-6.314893,-0.7668866999999999,1004.158,0,0
43.88,7.4446554,-6.500789,-0.52069765,1004.1606400000001,0,0
43.92,7.5641503,-6.4769564000000015,-0.38813436,1004.1405,0,0
43.96,7.764902,-6.3959246,-0.64852655,1004.1355,0,0
44.0,7.707545,-6.2338614,-0.8852469000000001,1004.1154,0,0
44.04,7.6693063,-6.3005934,-0.78582436,1004.1279,0,0
44.08,7.822260000000001,-6.1337642999999975,-0.6627298,1004.16046,0,0
44.12,7.7744617,-6.0193667,-0.8379028000000001,1004.13544,0,0
44.16,7.3108210000000025,-6.1289973,-0.7526835,1004.17035,0,0
44.2,6.9762344,-6.3196597,-0.6864018,1004.1358,0,0
44.24,7.0240326,-6.362559,-0.46388477,1004.1229,0,0
44.28,7.138748,-6.5770539999999995,-0.35972790000000004,1004.1458,0,0
44.32,7.196105499999999,-6.4578896,-0.53490084,1004.1402,0,0
44.36,7.4350960000000015,-6.338726,-0.81896514,1004.1349,0,0
44.4,7.645850699999999,-6.2386394,-0.97042555,1004.1377,0,0
44.44,7.7175664999999976,-6.000312,-1.0035646,1004.1423300000001,0,0
44.48,7.798841,-6.1099434,-0.94675016,1004.1427,0,0
44.52,7.8705544000000005,-6.033678,-0.88993573,1004.17035,0,0
44.56,7.832333999999999,-6.038444999999999,-0.70529234,1004.1379400000001,0,0
44.6,7.784553,-6.0718117,-0.47330493,1004.1475,0,0
44.64,7.6794147,-6.1337776,-0.38334972,1004.1404,0,0
44.68,7.6985517,-6.1147113,-0.45436418,1004.137,0,0
44.72,7.6412106,-6.052747,-0.62006676,1004.1423300000001,0,0
44.76,7.583872299999999,-6.0384474,-0.6863467,1004.11725,0,0
44.8,7.4691734,-6.186211599999999,-0.6484699,1004.13214,0,0
44.84,7.5361094,-6.2291107000000006,-0.63426507,1004.1544,0,0
44.88,7.4357505,-6.2434106,-0.62479466,1004.137,0,0
44.92,7.392749,-6.3196764000000005,-0.8567790000000001,1004.1549699999999,0,0
44.96,7.674775,-6.167146,-0.88044935,1004.1496599999999,0,0
45.0,7.9902606,-6.0098505,-0.918323,1004.09924,0,0
45.04,8.085875,-5.8048887,-0.738414,1004.1195,0,0
45.08,7.913817999999999,-5.981252,-0.43541056,1004.1444,0,0
45.12,7.5171113,-6.1242495,-0.34545523,1004.1546599999999,0,0
45.16,7.407192999999999,-6.3530445,-0.4164697,1004.13635,0,0
45.2,7.3307343,-6.3816447,-0.5016874,1004.1469999999999,0,0
45.24,7.3689895000000005,-6.400711,-0.7289372,1004.13635,0,0
45.28,7.2734112999999985,-6.362579,-0.89463985,1004.1242699999999,0,0
45.32,7.316446000000001,-6.48651,-0.9609200000000001,1004.12146,0,0
45.36,7.555453999999999,-6.1814504,-1.0603409,1004.14136,0,0
45.4,7.7032022,-6.162374,-0.93255085,1004.1339999999999,0,0
45.44,7.875275,-6.1004086,-0.86626923,1004.1394,0,0
45.48,8.052128,-6.0336766,-0.7242371,1004.1564300000001,0,0
45.52,7.9708705,-5.981244599999999,-0.62481457,1004.1415400000001,0,0
45.56,7.6649637,-6.224339499999999,-0.39756313,1004.1187,0,0
45.6,7.3733960000000005,-6.248172,-0.5017201,1004.16156,0,0
45.64,7.3733960000000005,-6.2529383,-0.6011425,1004.15155,0,0
45.68,7.3686156,-6.448367,-0.58220494,1004.1362,0,0
45.72,7.5215697,-6.1766734,-0.6342833999999999,1004.1365400000001,0,0
45.76,7.626725,-5.938346,-0.81892514,1004.1411,0,0
45.8,7.7796793000000015,-5.885914,-0.8804724,1004.16364,0,0
45.84,7.74622,-6.0765758000000005,-0.6626898,1004.1513699999999,0,0
45.88,7.7175417,-6.1337748,-0.42596957,1004.1261599999999,0,0
45.92,7.6697435,-6.1004086,-0.41176635,1004.12366,0,0
45.96,7.6506243000000005,-6.0146102999999975,-0.51592326,1004.11615,0,0
46.0,7.751,-5.990778,-0.430704,1004.1461,0,0
46.04,7.741441,-6.000311,-0.4354384,1004.1461,0,0
46.08,7.751,-6.062276,-0.58220494,1004.11597,0,0
46.12,7.5072303,-6.0813427,-0.605877,1004.1356,0,0
46.16,7.5454690000000015,-6.2052727,-0.6011425,1004.1485,0,0
46.2,7.6123857,-5.990778,-0.44964162,1004.1335,0,0
46.24,7.5263490000000015,-6.310137,-0.18924937,1004.1534,0,0
46.28,7.5454690000000015,-6.3196699999999995,-0.35968792,1004.1181,0,0
46.32,7.4737716,-6.515099,-0.58693933,1004.143,0,0
46.36,7.363836,-6.481733,-0.8378628,1004.1356,0,0
46.4,7.412425,-6.500818700000001,-0.99402565,1004.1384,0,0
46.44,7.570191,-6.295858,-0.70995855,1004.1331,0,0
46.48,7.56544,-6.372123200000001,-0.7904406,1004.1484,0,0
46.52,7.402959,-6.4388559999999995,-0.66260886,1004.1331,0,0
46.56,7.3886509999999985,-6.5198884,-0.44482338,1004.1180400000001,0,0
46.6,7.254848,-6.6009199999999995,-0.5158365,1004.1405,0,0
46.64,7.3313539999999975,-6.5008235,-0.5631779,1004.1252,0,0
46.68,7.4795604,-6.4388595,-0.3406579,1004.1309,0,0
46.72,7.431794,-6.4293265,-0.6010472,1004.1331,0,0
46.76,7.207175,-6.5913906,-0.5868411,1004.1329300000001,0,0
46.8,7.0399117,-6.6724224,-0.34064937,1004.1202,0,0
46.84,7.4079880000000005,-6.429329,-0.8188214,1004.11273,0,0
46.88,7.5561934000000015,-6.214835,-1.0366011,1004.1151,0,0
46.92,7.422389,-6.3435326,-0.61997074,1004.1505,0,0
46.96,7.307705,-6.5389624,-0.38798204,1004.1352,0,0
47.0,7.145223599999999,-6.5389633,-0.5631520999999999,1004.1024,0,0
47.04,7.2169523,-6.600928999999999,-0.24120967,1004.14264,0,0
47.08,7.317356,-6.5723305,-0.44952098,1004.11456,0,0
47.12,7.2695922999999985,-6.5675645000000005,-0.62469083,1004.1070599999999,0,0
47.16,7.2600636,-6.5866313,-0.75725126,1004.1274,0,0
47.2,7.250534,-6.6676636,-0.7383109,1004.10736,0,0
47.24,7.245788,-6.4722357000000015,-0.80932385,1004.13495,0,0
47.28,7.3222947,-6.419804,-0.9087437,1004.1374,0,0
47.32,7.351002999999999,-6.46747,-0.77617764,1004.1424,0,0
47.36,7.370156,-6.5437365,-0.5820639,1004.1243,0,0
47.4,7.287761,-6.748670599999999,-0.5869025,1004.1346,0,0
47.44,7.3451033,-6.6819380000000015,-0.51588786,1004.1496,0,0
47.48,7.2733912,-6.591373,-0.7384062,1004.1395,0,0
47.52,7.196899,-6.6152053,-0.7999549,1004.14996,0,0
47.56,7.263797999999999,-6.4960413,-0.8046909999999999,1004.1396,0,0
47.6,7.2733474000000005,-6.4150095,-0.9798648999999999,1004.1569999999999,0,0
47.64,7.4262853,-6.4865080000000015,-0.5111603,1004.1195,0,0
47.68,7.1442575,-6.639036999999999,-0.40700513,1004.1396,0,0
47.72,7.349774000000001,-6.4483742999999984,-0.20816162,1004.10693,0,0
47.76,7.4692539999999985,-6.3435097,-0.5869154000000001,1004.1393,0,0
47.8,7.5457199999999975,-6.291077,-0.51116586,1004.11646,0,0
47.84,7.698656599999999,-6.2481775,-0.53957385,1004.1318,0,0
47.88,7.6843,-6.386408,-0.5916538,1004.1089999999999,0,0
47.92,7.6603904000000025,-6.238644,-0.46382582,1004.12646,0,0
47.96,7.598238999999999,-6.09088,-0.6674066,1004.1393400000001,0,0
48.0,7.3735695,-6.281542,-0.61532986,1004.1419999999999,0,0
48.04,7.2349396,-6.481737,-0.12295318,1004.11145,0,0
48.08,7.144111,-6.648566199999999,-0.1276887,1004.1315,0,0
48.12,7.1536527,-6.6866984,-0.43069223,1004.10895,0,0
48.16,7.249233999999999,-6.472203299999999,-0.76210195,1004.11896,0,0
48.2,7.4117320000000015,-6.467436,-0.89940095,1004.1339999999999,0,0
48.24,7.3830395000000015,-6.453136,-1.0367,1004.11676,0,0
48.28,7.4021425,-6.4483690000000005,-0.9562166999999999,1004.14136,0,0
48.32,7.3782286999999975,-6.5579996,-0.8567956,1004.1339999999999,0,0
48.36,7.3112984,-6.4674344,-0.5395916000000001,1004.1338,0,0
48.4,7.408183,-6.367368,-0.36430064,1004.14124,0,0
48.44,7.4129977,-6.367369,-0.39270392,1004.1365,0,0
48.48,7.3604565000000015,-6.457935,-0.27434036,1004.14136,0,0
48.52,7.370053299999999,-6.5008349999999995,-0.44477564,1004.12396,0,0
48.56,7.3366320000000025,-6.5961666,-0.81405586,1004.11584,0,0
48.6,7.3032070000000004,-6.596167599999999,-0.69095814,1004.1058300000001,0,0
48.64,7.4370785,-6.6581339999999996,-0.776174,1004.1487400000001,0,0
48.68,7.4657917000000005,-6.6533679999999995,-0.8661245999999999,1004.1387300000001,0,0
48.72,7.408473,-6.6247697,-0.81877697,1004.10834,0,0
48.76,7.370267,-6.639069999999999,-0.8471805,1004.1234,0,0
48.8,7.470682000000001,-6.7296357,-0.6814726999999999,1004.1210000000001,0,0
48.84,7.5376363,-6.791602,-0.62465644,1004.1334,0,0
48.88,7.5472326,-6.7344046,-0.7335444000000001,1004.1489,0,0
48.92,7.575946000000001,-6.5199094,-0.6767284,1004.1308,0,0
48.96,7.5950994000000005,-6.591409,-0.6530531999999999,1004.1437400000001,0,0
49.0,7.623813,-6.701040700000001,-0.5962371,1004.12335,0,0
49.04,7.599953,-6.772539999999999,-0.57729596,1004.1335,0,0
49.08,7.652568,-6.734408999999999,-0.6861839,1004.11835,0,0
49.12,7.5665655,-6.772542,-0.72879034,1004.1355,0,0
49.16,7.595281,-6.6676779999999995,-0.5820204999999999,1004.1008,0,0
49.2,7.7148128,-6.653379400000001,-0.6340956,1004.1204,0,0
49.24,7.690951299999999,-6.6629133000000005,-0.65776426,1004.1234,0,0
49.28,7.6623087,-6.786845,-0.48258787,1004.13324,0,0
49.32,7.6480039999999985,-6.7963786,-0.47311592,1004.12036,0,0
49.36,7.705396,-6.786847,-0.6766922,1004.1279,0,0
49.4,7.771525,-6.791594,-0.6957019,1004.1255,0,0
49.44,7.766749000000001,-6.7820606,-0.72884244,1004.1154,0,0
49.48,7.8527894,-6.801127,-0.66256046,1004.1207,0,0
49.52,7.8623520000000005,-6.777294599999999,-0.7335762,1004.1104,0,0
49.56,7.876695,-6.753462,-0.70043504,1004.1229,0,0
49.6,7.8623595,-6.796361,-0.67202824,1004.1154,0,0
49.64,7.833685000000001,-6.8106604000000015,-0.7572471,1004.1130400000001,0,0
49.68,7.7858906,-6.958424000000001,-0.6720276,1004.1154,0,0
49.72,7.771555,-6.858326400000001,-0.634152,1004.1048,0,0
49.76,7.9197326,-6.8058944000000015,-0.73357415,1004.12006,0,0
49.8,7.9245160000000014,-6.758228999999999,-0.7383082,1004.1255,0,0
49.84,7.819364,-6.7963614,-0.80458957,1004.1129,0,0
49.88,7.819367999999999,-6.963191,-0.7146355,1004.0976,0,0
49.92,7.814592,-6.891692599999999,-0.62941587,1004.10785,0,0
49.96,7.8480539999999985,-6.8297276,-0.5726026999999999,1004.1054,1,3
50.0,7.8098197,-6.8726270000000005,-0.5962743,1004.0826400000001,1,3
50.04,7.8098235,-6.834494,-0.60100836,1004.0875,1,3
50.08,7.8910832,-6.7153306,-0.63414896,1004.0955,1,3
50.12,7.8767476,-6.758229300000001,-0.64361733,1004.11255,1,3
50.16,7.833733599999999,-6.829728,-0.73830503,1004.0776,1,3
50.2,7.719022,-6.8011289999999995,-0.6483511,1004.0673,1,3
50.24,7.733364999999999,-6.867861,-0.6956948000000001,1004.0724,1,3
50.28,7.7429285000000005,-6.9584255000000015,-0.63414717,1004.0699,1,3
50.32,7.6807947,-6.8201956999999975,-0.5773339,1004.0824,1,3
50.36,7.8146330000000015,-6.8011293,-0.5868024000000001,1004.06256,1,3
50.4,7.7620587,-6.767763599999999,-0.6814901999999999,1004.0673,1,3
50.44,7.719044,-6.720097999999999,-0.695693,1004.0548,1,3
50.48,7.766846000000001,-6.7391644,-0.5915358000000001,1004.04486,1,3
50.52,7.7859693,-6.6819663,-0.56312907,1004.04663,1,3
50.56,7.738175,-6.715331,-0.57259756,1004.05225,1,3
50.6,7.7238393,-6.658133500000001,-0.61047244,1004.0372,1,3
50.64,7.6473656000000005,-6.581867999999999,-0.69569135,1004.04486,1,3
50.68,7.6091313,-6.51037,-0.695691,1004.0423,1,3
50.72,7.5278782999999985,-6.5961685,-0.72883147,1004.0297,1,3
50.76,7.403607400000001,-6.6486,-0.5536581,1004.0372,1,3
50.8,7.4275103000000025,-6.558036,-0.6199395000000001,1004.01166,1,3
50.84,7.4036149999999985,-6.5485024,-0.6388768,1004.01215,1,3
50.88,7.351040400000001,-6.615234399999999,-0.5962668000000001,1003.9921,1,3
50.92,7.4800997,-6.519903,-0.60100085,1003.9918,1,3
50.96,7.446644,-6.5628023,-0.6388758000000001,1003.9867,1,3
51.0,7.4514274999999985,-6.6295350000000015,-0.62467223,1004.01666,1,3
51.04,7.4514312999999985,-6.610468400000001,-0.6341406999999999,1003.9948,1,3
51.08,7.537472,-6.5294370000000015,-0.70042205,1003.9918,1,3
51.12,7.527916,-6.524670599999999,-0.7146249,1003.9767,1,3
51.16,7.5088005,-6.5056047,-0.68148375,1004.00714,1,3
51.2,7.4849052,-6.524671,-0.54418564,1003.9569,1,3
51.24,7.4562297000000015,-6.5056047,-0.5394509,1003.9742,1,3
51.28,7.3367385999999986,-6.462706,-0.6104666,1003.9772300000001,1,3
51.32,7.2507057,-6.42934,-0.5773254,1003.9641,1,3
51.36,7.2124710000000025,-6.405507599999999,-0.6530755,1003.96686,1,3
51.4,7.255492999999999,-6.5342044999999995,-0.66727847,1003.9543,1,3
51.44,7.2459373,-6.605703,-0.54891795,1003.95166,1,3
51.48,7.2985196,-6.4150405,-0.6862153,1003.96185,1,3
51.52,7.2889633,-6.372142,-0.7240901999999999,1003.9518400000001,1,3
51.56,7.298526299999999,-6.405507599999999,-0.7098868,1003.93896,1,3
51.6,7.269850999999999,-6.643836,-0.52051014,1003.92676,1,3
51.64,7.413249,-6.7248673,-0.45896256,1003.90656,1,3
51.68,7.527967999999999,-6.5199050000000005,-0.6530728,1003.9467,1,3
51.72,7.4897327,-6.448407,-0.86612076,1003.914,1,3
51.76,7.4706182,-6.338776,-0.8613859,1003.9215,1,3
51.8,7.461062400000001,-6.4865403,-0.57258695,1003.8661,1,3
51.84,7.446726299999999,-6.572338,-0.43528888,1003.89636,1,3
51.88,7.346353999999999,-6.562804700000001,-0.45422614,1003.9038,1,3
51.92,7.202964,-6.4055085,-0.62939876,1003.8788,1,3
51.96,7.193408,-6.443641,-0.65307045,1003.9013699999999,1,3
52.0,7.1121554000000025,-6.5771046,-0.68621075,1003.8663,1,3
52.04,7.179077599999999,-6.538973,-0.7004136999999999,1003.89886,1,3
52.08,7.1743007,-6.491307,-0.7572262,1003.8330699999999,1,3
52.12,7.179084,-6.443641,-0.828242,1003.8485,1,3
52.16,7.13607,-6.562805,-0.7761631999999999,1003.8385,1,3
52.2,7.198211,-6.558039,-0.64833385,1003.8663,1,3
52.24,7.3033695000000005,-6.586638499999999,-0.5678488,1003.8464,1,3
52.28,7.3511724,-6.586638499999999,-0.59152037,1003.7958,1,3
52.32,7.3702945999999985,-6.4913073,-0.6814738,1003.8256,1,3
52.36,7.427656699999999,-6.419809,-0.6814734,1003.81854,1,3
52.4,7.4325350000000014,-6.438878,-0.6909331,1003.8235,1,3
52.44,7.4468822,-6.4150453,-0.7146044,1003.80865,1,3
52.48,7.4516683000000015,-6.362613,-0.69566625,1003.8134,1,3
52.52,7.3082814,-6.243449,-0.71933764,1003.8082,1,3
52.56,7.270052400000001,-6.4388785,-0.5678358,1003.78815,1,3
52.6,7.2127023,-6.324481,-0.48261583,1003.7832599999999,1,3
52.64,7.2079296,-6.2768164,-0.56783444,1003.80585,1,3
52.68,7.2127165999999985,-6.2768164,-0.63411546,1003.79083,1,3
52.72,7.026312400000001,-6.338782,-0.6341148,1003.7783,1,3
52.76,7.093236999999999,-6.329249,-0.6483171999999999,1003.7808,1,3
52.8,7.093244599999999,-6.3626146,-0.653051,1003.78815,1,3
52.84,7.126711,-6.3530817000000015,-0.6577847,1003.7558,1,3
52.88,7.1171570000000015,-6.4055142,-0.6435810000000001,1003.77856,1,3
52.92,7.184083,-6.3483157,-0.6861898,1003.74554,1,3
52.96,7.1649714000000015,-6.324483,-0.638845,1003.7583,1,3
53.0,7.179317999999999,-6.252985,-0.6246411999999999,1003.74585,1,3
53.04,7.164986,-6.291118,-0.57256204,1003.7633,1,3
53.08,7.1506543,-6.152888,-0.5394205,1003.73553,1,3
53.12,7.1124234,-6.1957865,-0.68618625,1003.753,1,3
53.16,7.031173,-6.2243867,-0.4684031,1003.76544,1,3
53.2,6.9833837,-6.105222,-0.511012,1003.7533599999999,1,3
53.24,6.9499326,-6.028958,-0.6104338,1003.7482,1,3
53.28,6.8782434000000015,-6.0956903,-0.5725579000000001,1003.7380400000001,1,3
53.32,6.906928999999999,-6.148123,-0.534682,1003.72296,1,3
53.36,6.844798599999999,-6.2053213,-0.4873373,1003.7379,1,3
53.4,6.806727,-6.1719594,-0.45418128,1003.7005,1,3
53.44,6.8449793,-6.090928,-0.6198842,1003.6951,1,3
53.48,6.9453679999999975,-6.119528,-0.6577581,1003.6974,1,3
53.52,6.9167039999999975,-6.167194,-0.6104128000000001,1003.6956,1,3
53.56,6.964515,-6.100462,-0.58673954,1003.6976300000001,1,3
53.6,6.9358509999999995,-6.1242957,-0.58673817,1003.6926,1,3
53.64,6.921525,-6.09093,-0.51098657,1003.7180000000001,1,3
53.68,6.931097500000001,-6.0861635000000005,-0.57253265,1003.70526,1,3
53.72,6.878533,-6.1719623,-0.55359375,1003.7180000000001,0,0
53.76,6.9837027,-6.100464,-0.6198741999999999,1003.6799,0,0
53.8,7.055414,-6.043266,-0.6435448,1003.6901,0,0
53.84,6.9263735,-6.0051336,-0.7619037,1003.7106,0,0
53.88,6.8785887,-6.148130999999999,-0.66721433,1003.6549,0,0
53.92,6.8594832,-6.114765,-0.42575845,1003.6899400000001,0,0
53.96,6.9072957,-6.028967400000001,-0.44469482,1003.703,0,0
54.0,6.9790053,-6.0099015,-0.42102158,1003.6949,0,0
54.04,6.9694595,-6.0242014,-0.35000423,1003.6825,0,0
54.08,6.9551339999999975,-6.090934,-0.46362865,1003.6824,0,0
54.12,7.0411835000000025,-6.0718675000000015,-0.43048665,1003.6524699999999,0,0
54.16,6.9790600000000005,-6.0766344000000005,-0.61986154,1003.6824,0,0
54.2,6.8978167,-6.200566,-0.6340636,1003.66455,0,0
54.24,6.888272,-6.2529980000000025,-0.6577341999999999,1003.655,0,0
54.28,6.9313044999999995,-6.2386985,-0.5961857,1003.6625,0,0
54.32,6.8835190000000015,-6.2958975,-0.59145004,1003.6625,0,0
54.36,7.0221477,-6.176734400000001,-0.48255748,1003.6769400000001,0,0
54.4,6.98848,-6.1719627,-0.42576376,1003.675,0,0
54.44,7.045842599999999,-6.191028599999999,-0.5157169,1003.67444,0,0
54.48,7.088866,-6.2672935,-0.5630605,1003.69775,0,0
54.52,7.064972,-6.2434607,-0.4825753,1003.6799,0,0
54.56,7.1127744,-6.2243953,-0.5630596999999999,1003.69244,0,0
54.6,7.093661,-6.281594,-0.55832475,1003.6644,0,0
54.64,7.0363083,-6.3244925,-0.58199626,1003.67206,0,0
54.68,7.055433,-6.3530917,-0.58199584,1003.66437,0,0
54.72,7.127135000000001,-6.3483257,-0.61513627,1003.67444,0,0
54.76,7.1127996,-6.3483257,-0.50624454,1003.6845,0,0
54.8,7.031548,-6.372159,-0.55832255,1003.6395,0,0
54.84,7.0841303,-6.4674897000000025,-0.6009317,1003.68695,0,0
54.88,7.1653924,-6.415058,-0.47783673,1003.66156,0,0
54.92,7.323131599999999,-6.3721595,-0.45889857,1003.6818,0,0
54.96,7.347035000000001,-6.334027,-0.619868,1003.6619,0,0
55.0,7.342261,-6.2958940000000005,-0.59619546,1003.6694,0,0
55.04,7.361384399999999,-6.472257599999999,-0.5062414000000001,1003.682,0,0
55.08,7.356610000000001,-6.443658,-0.3878808,1003.67706,0,0
55.12,7.356615,-6.3959928,-0.58199084,1003.66205,0,0
55.16,7.390078,-6.4531913,-0.6624753000000001,1003.6694,0,0
55.2,7.3614039999999985,-6.5103903,-0.57725555,1003.66156,0,0
55.24,7.4331070000000015,-6.415058999999999,-0.6672088,1003.66895,0,0
55.28,7.370974,-6.4245925,-0.62459874,1003.712,0,0
55.32,7.366199000000001,-6.448425299999999,-0.6766767,1003.6664400000001,0,0
55.36,7.3088465,-6.410293,-0.50623775,1003.67206,0,0
55.4,7.280394999999999,-6.4865637000000005,-0.6671866999999999,1003.66614,0,0
55.44,7.423800999999999,-6.543762,-0.5156845,1003.664,0,0
55.48,7.32822,-6.4865639999999996,-0.61510575,1003.6993,0,0
55.52,7.356911699999999,-6.400766,-0.7713399000000001,1003.6566,0,0
55.56,7.3234673,-6.3912334,-0.7760729999999999,1003.674,0,0
55.6,7.376058599999999,-6.4627323,-0.6529773,1003.67645,0,0
55.64,7.371291999999999,-6.4436665,-0.5819599,1003.694,0,0
55.68,7.3091693,-6.3817015,-0.57722414,1003.68896,0,0
55.72,7.3378619999999986,-6.4150677000000025,-0.5961605999999999,1003.68365,0,0
55.76,7.3617744000000025,-6.3674026,-0.6529722,1003.68896,0,0
55.8,7.3092103,-6.3721695,-0.6056269,1003.6865,0,0
55.84,7.3092246,-6.4818006,-0.67190725,1003.66364,0,0
55.88,7.3570356,-6.4246025,-0.648234,1003.694,0,0
55.92,7.404847599999999,-6.3960037000000005,-0.6103575,1003.69147,0,0
55.96,7.299706,-6.548533,-0.63876265,1003.69354,0,0
56.0,7.189783,-6.5008683,-0.54407334,1003.69147,0,0
56.04,7.294953299999999,-6.4675025999999995,-0.47779042,1003.69104,0,0
56.08,7.3714429999999975,-6.4341370000000015,-0.6150869999999999,1003.68616,0,0
56.12,7.3140993000000005,-6.4198375,-0.5393352,1003.6787,0,0
56.16,7.304553999999999,-6.4579699999999995,-0.48725545,1003.69104,0,0
56.2,7.443182000000001,-6.429371400000001,-0.52986383,1003.6736,0,0
56.24,7.4527545,-6.519936,-0.50619066,1003.6761,0,0
56.28,7.4288697,-6.424606,-0.6671590999999999,1003.6837,0,0
56.32,7.452782000000001,-6.3769403,-0.7713148,1003.68616,0,0
56.36,7.471916,-6.4007735,-0.6671564999999999,1003.66583,0,0
56.4,7.5239363,-6.529457,-0.6388010999999999,1003.66846,0,0
56.44,7.495248299999999,-6.4245925,-0.7808341999999999,1003.66583,0,0
56.48,7.480903,-6.4770246,-0.67194337,1003.6786,0,0
56.52,7.356617,-6.5866547,-0.58199066,1003.6636,0,0
56.56,7.289693400000001,-6.529456,-0.35473981,1003.663,0,0
56.6,7.289682000000001,-6.5246889999999995,-0.20797437,1003.6809699999999,0,0
56.64,7.3709326,-6.4055247,-0.20797493,1003.6985,0,0
56.68,7.189289,-6.5628214000000025,-0.27425754,1003.66296,0,0
56.72,7.1510425,-6.7153506,-0.21744539,1003.6455,0,0
56.76,7.2036114,-6.6533856,-0.25058714,1003.6733,0,0
56.8,7.289639,-6.6724515,-0.41629207,1003.68085,0,0
56.84,7.3135295,-6.591419999999999,-0.63880986,1003.6608,0,0
56.88,7.332639,-6.4341230000000005,-0.65301394,1003.67303,0,0
56.92,7.3182907,-6.5389876,-0.43996656,1003.6509,0,0
56.96,7.227467999999999,-6.6057190000000015,-0.32160708,1003.6429400000001,0,0
57.0,7.1031832999999995,-6.6390842999999995,-0.18904465,1003.6829,0,0
57.04,7.103174,-6.696283,-0.33581197,1003.6605,0,0
57.08,7.1222850000000015,-6.696283,-0.3547504,1003.6704,0,0
57.12,7.1557345,-6.600950999999999,-0.5062522,1003.6704,0,0
57.16,7.1796246,-6.5056199999999995,-0.7713797,1003.6654699999999,0,0
57.2,7.2226339999999984,-6.634317,-0.6388170999999999,1003.68085,0,0
57.24,7.0553327,-6.7391806,-0.39262885,1003.66254,0,0
57.28,7.0266447,-6.6247835,-0.4636457000000001,1003.67285,0,0
57.32,7.1222324000000015,-6.6438494000000015,-0.5536002,1003.65027,0,0
57.36,7.2034793000000015,-6.6438494000000015,-0.25059918,1003.66046,0,0
57.4,7.1705527,-6.791625,-0.19847204,1003.6829,0,0
57.44,7.175345399999999,-6.7010612000000025,-0.41151905,1003.68005,0,0
57.48,7.2661743,-6.6724625,-0.35943943,1003.6650400000001,0,0
57.52,7.409581,-6.624796400000001,-0.29789102,1003.68536,0,0
57.56,7.529089,-6.443668,-0.4209844,1003.6679,0,0
57.6,7.5816774,-6.3864694,-0.6292972,1003.6773,0,0
57.64,7.3618197,-6.5104003,-0.41151333,1003.6979,0,0
57.68,7.2662369999999985,-6.577132700000001,-0.108510286,1003.66754,0,0
57.72,7.3522854,-6.5723660000000015,0.047726143,1003.6603,0,0
57.76,7.266261599999999,-6.5723660000000015,-0.094304845,1003.6927,0,0
57.8,7.170678,-6.8106947,-0.22213258,1003.6575300000001,0,0
57.84,7.103772,-6.7534966,-0.4825238,1003.6829,0,0
57.88,7.180262599999999,-6.8059287,-0.59141386,1003.6925699999999,0,0
57.92,7.2997710000000025,-6.653399,-0.75238246,1003.66754,0,0
57.96,7.3380213,-6.558068799999999,-0.82339746,1003.6650400000001,0,0
58.0,7.328473,-6.5294695,-0.85180277,1003.6700400000001,0,0
58.04,7.3476050000000015,-6.591435400000001,-0.58194053,1003.6599,0,0
58.08,7.1946635,-6.5866685,-0.3499536,1003.6603,0,0
58.12,7.142099000000001,-6.548536299999999,-0.3404836,1003.6748699999999,0,0
58.16,7.0990925,-6.6295686,-0.41623294,1003.6823,0,0
58.2,7.1994815,-6.777332,-0.28366843,1003.6573,0,0
58.24,7.204273700000001,-6.7249002,-0.37835538,1003.68256,0,0
58.28,7.166047,-6.6534020000000025,-0.51091766,1003.677,0,0
58.32,7.0943627000000005,-6.639102499999999,-0.8139184,1003.6648,0,0
58.36,7.0991545,-6.667702,-0.60086906,1003.64667,0,0
58.4,7.112936,-6.662922,-0.6577329000000001,1003.6673,0,0
58.44,7.1033669999999995,-6.6104899999999995,-0.7003436,1003.6848,0,0
58.48,7.1272554,-6.667688,-0.6624691999999999,1003.6723,0,0
58.52,7.112905499999999,-6.6533875,-0.49676603,1003.68256,0,0
58.56,7.1893725,-6.7248864,-0.39261004,1003.6645,0,0
58.6,7.175023599999999,-6.748719,-0.42101732,1003.66943,0,0
58.64,7.1080960000000015,-6.658154,-0.50623757,1003.6748699999999,0,0
58.68,7.136765,-6.610488,-0.5961920999999999,1003.6691,0,0
58.72,7.117636,-6.720119,-0.548849,1003.66943,0,0
58.76,7.122406,-6.653386,-0.44469303,1003.6495,0,0
58.8,7.1893139999999995,-6.434125,-0.37841222,1003.6648,0,0
58.84,7.370936,-6.415058,-0.2411154,1003.6719400000001,0,0
58.88,7.4808617,-6.5199223,-0.12749065,1003.6719400000001,0,0
58.92,7.4139338000000015,-6.5389886,-0.08014749,1003.6519999999999,0,0
58.96,7.409145,-6.6343193,-0.35000944,1003.67444,0,0
59.0,7.480831599999999,-6.610486,-0.44469848,1003.6669300000001,0,0
59.04,7.3900055999999985,-6.591419999999999,-0.58673143,1003.6945,0,0
59.08,7.318298299999999,-6.691517,-0.8376558000000001,1003.6645,0,0
59.12,7.275271400000001,-6.8392805999999995,-0.8234534,1003.6719400000001,0,0
59.16,7.299158999999999,-6.753482000000001,-0.79504806,1003.67444,0,0
59.2,7.351727499999999,-6.772548,-0.51098466,1003.68695,0,0
59.24,7.232222,-6.643851,-0.35948467,1003.67676,0,0
59.28,7.193974000000001,-6.6533837,-0.23639105,1003.67926,0,0
59.32,7.0553490000000005,-6.648617,-0.018609364,1003.6916,0,0
59.36,7.0027614,-6.624784,-0.18904881,1003.68695,0,0
59.4,6.9508696,-6.6152672999999975,-0.42570624,1003.6692,0,0
59.44,6.9843470000000005,-6.686766,-0.58667433,1003.6666,0,0
59.48,7.032162,-6.6534004,-0.6292824,1003.6415400000001,0,0
59.52,7.079977,-6.6724676999999994,-0.7997194000000001,1003.65656,0,0
59.56,7.146909,-6.658167999999999,-0.7381707,1003.6741300000001,0,0
59.6,7.185167999999999,-6.648635400000001,-0.80445063,1003.6816,0,0
59.64,7.194742999999999,-6.5485377,-0.7476363,1003.67676,0,0
59.68,7.2091026,-6.500873,-0.70502484,1003.67664,0,0
59.72,7.271258,-6.591439,-0.45409979999999994,1003.6692,0,0
59.76,7.452906599999999,-6.558072599999999,-0.46356708,1003.6842,0,0
59.8,7.457702999999999,-6.4865746,-0.44936234,1003.70166,0,0
59.84,7.452941,-6.338812,-0.6197993,1003.6817,0,0
59.88,7.304785000000001,-6.5533075,-0.6434696999999999,1003.6742,0,0
59.92,7.2139864000000005,-6.653405,-0.4777639,1003.6942,0,0
59.96,7.2713600000000005,-6.7535039999999995,-0.4635592000000001,1003.6891,0,0
60.0,7.357415,-6.615274,-0.59612083,1003.6487400000001,0,0
60.04,7.3813309999999985,-6.4436784000000005,-0.5535097,1003.6764,0,0
60.08,7.2522936,-6.4389124,-0.48249197,1003.664,0,0
60.12,7.151935000000001,-6.6867733,-0.44461513,1003.6742,0,0
60.16,7.166291999999999,-6.6867740000000015,-0.44461352,1003.67865,0,0
60.2,7.118512599999999,-6.724907000000001,-0.5724408000000001,1003.66425,0,0
60.24,7.046833,-6.6820083,-0.70973694,1003.6485,0,0
60.28,7.022950999999999,-6.696308599999999,-0.6387193,1003.69916,0,0
60.32,7.056427,-6.720142,-0.5913735999999999,1003.67615,0,0
60.36,7.118586,-6.758274,-0.52509004,1003.6817,0,0
60.4,7.1758942999999995,-6.786873,-0.648189,1003.6664,0,0
60.44,7.266725,-6.6105103000000005,-0.7949543,1003.6784,0,0
60.48,7.3002020000000005,-6.5676117,-0.7665462,1003.6988,0,0
60.52,7.3527913,-6.553313,-0.70973235,1003.6664,0,0
60.56,7.3432464999999985,-6.5008807,-0.4919483,1003.68115,0,0
60.6,7.352825,-6.4722824,-0.52508736,1003.68115,0,0
60.64,7.2811394,-6.481815,-0.5629616,1003.6814,0,0
60.68,7.238134,-6.5819135,-0.48720998,1003.7013,0,0
60.72,7.199915400000001,-6.6295795,-0.48720813,1003.7038,0,0
60.76,7.195150999999999,-6.6248130000000005,-0.5345508000000001,1003.6938,0,0
60.8,7.2334,-6.653412299999999,-0.6387067,1003.6664,0,0
60.84,7.242978999999999,-6.677245599999999,-0.7475961999999999,1003.70355,0,0
60.88,7.1617374000000025,-6.682013,-0.92276776,1003.67114,0,0
60.92,7.1952110000000005,-6.682013499999999,-0.8659536,1003.6764,0,0
60.96,7.1235247,-6.6867800000000015,-0.8328118,1003.68604,0,0
61.0,7.0757460000000005,-6.624814999999999,-0.6765747,1003.6934,0,0
61.04,7.113999400000001,-6.6724815,-0.6197604,1003.67114,0,0
61.08,7.0184190000000015,-6.820245,-0.48246127,1003.68115,0,0
61.12,7.085346,-6.782112599999999,-0.43511626,1003.66565,0,0
61.16,7.1905212,-6.686782000000001,-0.54874027,1003.6709,0,0
61.2,7.2478943,-6.6486497,-0.7854591,1003.67865,0,0
61.24,7.257465,-6.634351,-0.9322245000000001,1003.6606,0,0
61.28,7.209684399999999,-6.643884700000001,-0.8896134,1003.7135599999999,0,0
61.32,7.267057,-6.591452,-0.72864217,1003.6954,0,0
61.36,7.3435493,-6.5533204000000005,-0.51559263,1003.6931,0,0
61.4,7.2959576,-6.5056595999999995,-0.68601227,1003.70355,0,0
61.44,7.0952272,-6.6867895000000015,-0.5345094,1003.66785,0,0
61.48,7.08569,-6.7725883,-0.25044304,1003.6611,0,0
61.52,7.1574086999999995,-6.6677240000000015,-0.42561406,1003.65015,0,0
61.56,7.052277,-6.6677246,-0.7617546,1003.6628400000001,0,0
61.6,7.0379605,-6.7296906000000005,-0.75228363,1003.64795,0,0
61.64,7.0905614,-6.8345556,-0.7712191999999999,1003.6656,0,0
61.68,7.243536,-6.739225,-0.7901548,1003.65533,0,0
61.72,7.3200345,-6.624828,-0.6765272,1003.6578400000001,0,0
61.76,7.238800500000001,-6.5723963,-0.67179066,1003.67035,0,0
61.8,7.1958055,-6.5771637,-0.629179,1003.6934,0,0
61.84,7.157588499999999,-6.6343630000000005,-0.42559758,1003.6723599999999,0,0
61.88,7.1719503,-6.629597,-0.35457942,1003.6577,0,0
61.92,7.0668163,-6.7249284,-0.38771835,1003.7080699999999,0,0
61.96,6.995143400000001,-6.7487619999999975,-0.5392170000000001,1003.7009,0,0
62.0,7.0668619999999995,-6.6915636,-0.84695137,1003.6926,0,0
62.04,7.15292,-6.7106304,-0.8611525999999999,1003.66785,0,0
62.08,7.2676577999999985,-6.701098,-0.8422129999999999,1003.6753,0,0
62.12,7.248562,-6.5819345,-0.7901323,1003.6751,0,0
62.16,7.286822999999999,-6.553336,-0.7522551,1003.67566,0,0
62.2,7.2342679999999975,-6.581936,-0.5013295,1003.67755,0,0
62.24,7.2056103,-6.677267,-0.38770187,1003.6499,0,0
62.28,7.2773304,-6.5628699999999975,-0.3924342,1003.68005,0,0
62.32,7.372949,-6.505672,-0.59127706,1003.67035,0,0
62.36,7.301274,-6.5581045,-0.7285728,1003.6799,0,0
62.4,7.1467867,-6.7153635,-0.7571196,1003.6601,0,0
62.44,7.084612400000001,-6.777328,-0.78079504,1003.6626,0,0
62.48,7.0415573,-6.782094,-0.8044705,1003.6876,0,0
62.52,7.0558577000000025,-6.7105947,-0.85181797,1003.68005,0,0
62.56,7.0414762,-6.7058268,-0.74293065,1003.6878,0,0
62.6,7.050998700000001,-6.705825999999999,-0.6340427,1003.6726,0,0
62.64,7.1130967000000025,-6.677225599999999,-0.5204205,1003.6826,0,0
62.68,7.218213,-6.6295589999999995,-0.5914401999999999,1003.6826,0,0
62.72,7.222956699999999,-6.6057253,-0.56303716,1003.6773699999999,0,0
62.76,7.3089533,-6.624789999999999,-0.6482600000000001,1003.67786,0,0
62.8,7.299357400000001,-6.7010546,-0.74768585,1003.6623,0,0
62.84,7.2562995,-6.643855,-0.7760959,1003.6449,0,0
62.88,7.25148,-6.6772199999999975,-0.8518498999999999,1003.6650400000001,0,0
62.92,7.1749644,-6.643853,-0.8707912,1003.6676,0,0
62.96,7.1223493000000015,-6.6629186,-0.7761064999999999,1003.67224,0,0
63.0,7.0745125,-6.7868485,-0.5772651,1003.6497,0,0
63.04,7.1318307,-6.691515400000001,-0.59147185,1003.6701,0,0
63.08,7.1652493,-6.6295494999999995,-0.68616354,1003.6799,0,0
63.12,7.18911,-6.6486149999999995,-0.67196405,1003.6874,0,0
63.16,7.2081895000000005,-6.648614,-0.7145772,1003.6519,0,0
63.2,7.198592999999999,-6.6104803,-0.80926865,1003.6874,0,0
63.24,7.222455,-6.6152463,-0.78086567,1003.6523,0,0
63.28,7.2749963000000015,-6.658144,-0.7714002,1003.682,0,0
63.32,7.1841383,-6.681976299999999,-0.65777826,1003.67755,0,0
63.36,7.069383,-6.743939999999999,-0.7145946999999999,1003.6647300000001,0,0
63.4,7.1280017,-6.653406599999999,-0.6292601999999999,1003.6645,0,0
63.44,7.1041145000000006,-6.624807400000001,-0.5819149,1003.687,0,0
63.48,7.147145,-6.672474,-0.6860706999999999,1003.6619999999999,0,0
63.52,7.1567183000000005,-6.701073599999999,-0.57244384,1003.67474,0,0
63.56,7.1806307,-6.729673,-0.6671307,1003.6997,0,0
63.6,7.151963,-6.677241,-0.7144736,1003.6644,0,0
63.64,7.175875,-6.643876,-0.7144725000000001,1003.6619999999999,0,0
63.68,7.185447,-6.672475299999999,-0.79495615,1003.6343,0,0
63.72,7.1663394,-6.624809700000001,-0.7665487,1003.6623,0,0
63.76,7.199811500000001,-6.686775,-0.6623905999999999,1003.6745,0,0
63.8,7.137686,-6.7344413,-0.68132716,1003.67224,0,0
63.84,7.142479400000001,-6.729675299999999,-0.66238827,1003.66705,0,0
63.88,7.113811999999999,-6.6629434000000005,-0.68132484,1003.692,0,0
63.92,7.166403,-6.7010765,-0.7665429,1003.6639,0,0
63.96,7.070818400000001,-6.7582746,-0.71446335,1003.6691,0,0
64.0,7.1664276,-6.6438785000000005,-0.74286866,1003.6542,0,0
64.04,7.223797999999999,-6.691544,-0.80441475,1003.6542,0,0
64.08,7.118653,-6.691544500000001,-0.7902104999999999,1003.6616,0,0
64.12,7.089987299999999,-6.7487435,-0.7286621,1003.6741300000001,0,0
64.16,7.180817,-6.7201447,-0.7002545,1003.6745,0,0
64.2,7.1378107,-6.696312400000001,-0.719191,1003.6948,0,0
64.24,7.0804652999999975,-6.78211,-0.7949403,1003.6616,0,0
64.28,7.0661387000000015,-6.7535114,-0.7902047,1003.672,0,0
64.32,7.2334447,-6.677246,-0.8233444,1003.67664,0,0
64.36,7.1760993000000015,-6.6581807,-0.8706872999999999,1003.66614,0,0
64.4,7.022684,-6.8202320000000025,-0.629275,1003.6591,0,0
64.44,7.008338,-6.734433999999999,-0.6529475,1003.6991,0,0
64.48,7.103928,-6.691535000000001,-0.7902456999999999,1003.6612,0,0
64.52,7.1565,-6.677234599999999,-0.69555825,1003.7041,0,0
64.56,7.170833,-6.648635400000001,-0.56299555,1003.6936599999999,0,0
64.6,7.1612673,-6.658169,-0.74763787,1003.6513699999999,0,0
64.64,7.1947199999999984,-6.6343355,-0.7902481,1003.69653,0,0
64.68,7.108676400000001,-6.7296667,-0.83285844,1003.6536,0,0
64.72,7.142129400000001,-6.805931,-0.7192331999999999,1003.6739,0,0
64.76,7.1134443,-6.7201333,-0.71923375,1003.6610000000001,0,0
64.8,7.099098,-6.7249,-0.8423289,1003.6664,0,0
64.84,7.013056,-6.796397,-0.8281261999999999,1003.691,0,0
64.88,6.998710000000001,-6.872661999999999,-0.667157,1003.6511,0,0
64.92,6.9270062,-6.915561,-0.76184577,1003.6889,0,0
64.96,6.855303999999999,-6.886962,-0.8754719999999999,1003.6789,0,0
65.0,7.170763000000001,-6.710599,-0.7097685,1003.66614,0,0
65.04,7.1325183,-6.7201324000000024,-0.84706676,1003.6741300000001,0,0
65.08,7.1133942999999995,-6.7677975,-0.8802081,1003.69885,0,0
65.12,7.132505999999999,-6.7010654999999995,-0.7665831,1003.67163,0,0
65.16,7.232875999999999,-6.786864,-0.71923965,1003.69385,0,0
65.2,7.151614,-6.6962990000000016,-0.6434895,1003.6889,0,0
65.24,7.0034336999999995,-6.8297625,-0.7665846,1003.6891,0,0
65.28,6.9986479999999975,-6.853594999999999,-0.6624283000000001,1003.6561,0,0
65.32,6.9460619999999995,-6.8964940000000015,-0.70977306,1003.6764,0,0
65.36,6.9651766,-6.877427000000001,-0.8423369,1003.679,0,0
65.4,6.965805499999999,-6.886976,-0.7902007,1003.6635,0,0
65.44,6.989717999999999,-6.815478,-0.7996684000000001,1003.6787,0,0
65.48,7.0614386,-6.7725797000000005,-0.74285334,1003.68396,0,0
65.52,7.0662316999999994,-6.820245,-0.67657053,1003.6535,0,0
65.56,7.056692,-6.739214,-0.65289664,1003.6432,0,0
65.6,7.142746400000001,-6.8297796,-0.8091303000000001,1003.68616,0,0
65.64,7.0758550000000024,-6.7821145000000005,-0.62922066,1003.6809699999999,0,0
65.68,7.1523485,-6.7582816999999995,-0.6955007,1003.6709,0,0
65.72,7.157147,-6.8107147,-0.799656,1003.6709,0,0
65.76,7.0185523000000005,-6.7773495,-0.79018533,1003.6709,0,0
65.8,6.9755516,-6.848847999999999,-0.87540317,1003.6837,0,0
65.84,7.161982000000001,-6.7201514000000016,-0.73336923,1003.6807,0,0
65.88,7.085524,-6.7773509999999995,-0.63394505,1003.67334,0,0
65.92,6.9421506,-6.9108142999999975,-0.7096935999999999,1003.67865,0,0
65.96,6.951728,-6.8869820000000015,-0.75230163,1003.6656,0,0
66.0,6.908728,-6.958481,-0.69075274,1003.68115,0,0
66.04,6.9469867,-6.977547,-0.77123576,1003.688,0,0
66.08,6.932664999999999,-6.839318,-0.8375157,1003.67584,0,0
66.12,6.9422425999999975,-6.834552,-0.9085302,1003.6936599999999,0,0
66.16,6.8753443,-6.977548599999999,-0.68127704,1003.6635,0,0
66.2,6.970958,-6.8440857,-0.6860098000000001,1003.6705300000001,0,0
66.24,7.119151,-6.758288,-0.7948994,1003.6857,0,0
66.28,7.0570326,-6.7630552999999995,-0.7854288,1003.6656,0,0
66.32,6.975796000000001,-6.815488,-0.6623324,1003.691,0,0
66.36,7.0427327,-6.8154883,-0.7191436,1003.6886599999999,0,0
66.4,7.104759,-6.7153883,-0.82804495,1003.67865,0,0
66.44,7.066536,-6.7582869999999975,-0.8706531999999999,1003.7109,0,0
66.48,7.042649000000001,-6.820253,-0.7759640999999999,1003.69574,0,0
66.52,7.0474423999999996,-6.7725880000000025,-0.7522908,1003.6809699999999,0,0
66.56,6.99966,-6.782120699999999,-0.8517118,1003.6731,0,0
66.6,7.014011999999999,-6.820253999999999,-0.738085,1003.67615,0,0
66.64,6.9423285,-6.834554,-0.752287,1003.69574,0,0
66.68,6.9805803,-6.8250213,-0.9179898999999999,1003.6882300000001,0,0
66.72,7.047511,-6.8250217000000015,-0.77595645,1003.698,0,0
66.76,7.119223,-6.7344574999999995,-0.7144079000000001,1003.6681,0,0
66.8,7.133576,-6.7630568,-0.8990484000000001,1003.6631,0,0
66.84,7.047553,-6.682026,-0.85170305,1003.67303,0,0
66.88,7.0523467,-6.7773576,-0.7286073000000001,1003.6882300000001,0,0
66.92,7.014122,-6.810723299999999,-0.7901533000000001,1003.6806,0,0
66.96,6.9711175,-6.7821240000000005,-0.7996209,1003.6755400000001,0,0
67.0,7.0284886,-6.767825,-0.7996196999999999,1003.668,0,0
67.04,7.0332820000000025,-6.8059582999999995,-0.74754,1003.6857,0,0
67.08,7.061975,-6.782125,-0.88010204,1003.6857,0,0
67.12,7.109786,-6.7344604000000015,-0.97478896,1003.6859,0,0
67.16,7.0094247,-6.753526700000001,-0.92744356,1003.668,0,0
67.2,6.961638499999999,-6.8393254,-0.88483286,1003.6656,0,0
67.24,6.9998913,-6.858392,-0.82801867,1003.6603,0,0
67.28,6.9712270000000025,-6.867925,-0.823283,1003.6702,0,0
67.32,6.937782,-6.6772633,-0.90850097,1003.7005,0,0
67.36,7.057291,-6.7678285,-0.67177945,1003.67584,0,0
67.4,7.501889999999999,-6.9060607,-0.7806637,1003.6855,1,4
67.44,7.1004033,-7.006158,-1.632855,1003.6803,1,4
67.48,6.971364,-6.601001299999999,-1.4766181999999999,1003.6753,1,4
67.52,6.9235815999999994,-6.295942299999999,-2.0447453999999996,1003.67303,1,4
67.56,6.1253715,-6.152946,-2.3856208,1003.6603,1,4
67.6,5.355837999999999,-6.1529465,-2.9537482,1003.6904,1,4
67.64,5.2650385,-8.212099,-2.021069,1003.6805400000001,1,4
67.68,5.9629054,-9.174945,-1.1878122,1003.6703,1,4
67.72,5.9390220000000005,-9.108212,-1.235155,1003.6702,1,4
67.76,6.1541295,-8.235933000000001,-1.628109,1003.6928,1,4
67.8,7.430353999999999,-6.2911787000000015,-1.1451981000000002,1003.70294,1,4
67.84,10.613721,-3.231049,0.21831201,1003.6701,1,4
67.88,12.229311000000001,-3.8888342000000002,1.184132,1003.6927,1,4
67.92,13.166167000000002,-4.8659787,2.737018,1003.6926,1,4
67.96,14.026548000000002,-4.3273582,3.9726993999999998,1003.70026,1,4
68.0,14.714854999999998,-4.5704536,3.2483367999999997,1003.7027,1,4
68.04,15.111595999999999,-3.9841672999999993,2.145222,1003.6851,1,4
68.08,13.758929,-6.0957527,0.43610352,1003.6603,1,4
68.12,13.237945999999999,-9.8375,-0.6764802,1003.6851,1,4
68.16,12.611809,-12.749867,-0.31666392,1003.71014,1,4
68.2,10.99147,-13.965339000000002,0.74857867,1003.6976300000001,1,4
68.24,4.4718347000000005,-14.51826,1.4634752,1003.7226,1,4
68.28,-2.1003811000000003,-14.561159,-2.1962182999999995,1003.6946,1,4
68.32,-5.1785574,-13.07876,-2.1962167999999997,1003.6874,1,4
68.36,-4.638424400000001,-12.778468,-1.5191953,1003.6627,1,4
68.4,-0.7954463,-12.5544405,-0.6622667,1003.6628400000001,1,4
68.44,3.4251379999999996,-14.084506,-0.013651658,1003.66986,1,4
68.48,8.4248295,-14.675559,0.5970880999999999,1003.6695599999999,1,4
68.52,11.775488000000001,-13.121661999999999,0.4645263,1003.66986,1,4
68.56,12.382539999999999,-11.210272999999999,-0.5533693000000001,1003.6524699999999,1,4
68.6,11.909353,-10.018634,0.11418313,1003.6723599999999,1,4
68.64,13.023064999999999,-8.264542,0.74859494,1003.66705,1,4
68.68,12.81755,-6.238755,1.8422439,1003.6851,1,4
68.72,13.219069500000002,-4.384565,2.4009051,1003.6795699999999,1,4
68.76,12.894059,-3.226292,1.6765428,1003.6951,1,4
68.8,11.976355,-3.7982788,0.34144214,1003.63995,1,4
68.84,11.713481,-5.061417,0.36985004,1003.64496,1,4
68.88,12.81763,-6.1005273,0.14733434,1003.6167,1,4
68.92,13.591975,-7.2778664000000015,-0.6291064000000001,1003.6524699999999,1,4
68.96,13.171370499999998,-9.160657,0.7059972,1003.6625,1,4
69.0,12.894156,-11.991992999999999,0.3509183,1003.67505,1,4
69.04,13.434289000000001,-14.761362,0.005308153,1003.6824,1,4
69.08,12.712556,-15.557378,1.0658162,1003.6921,1,4
69.12,10.3609085,-15.095022,1.9180106,1003.68207,1,4
69.16,7.703353999999999,-14.098811999999999,1.2362579,1003.6996,1,4
69.2,6.0113187,-12.282755,0.43141055,1003.7074,1,4
69.24,4.8928614,-10.728857000000001,-0.08937250000000001,1003.67706,1,4
69.28,2.162395,-9.398958,-0.08001338,1003.6846,1,4
69.32,-0.17015895,-8.884171,-0.070545465,1003.66205,1,4
69.36,-0.9014778,-8.664907000000001,-1.5950247,1003.68,1,4
69.4,-1.3029916000000001,-9.31316,-2.4046087000000003,1003.6503,1,4
69.44,1.1490388,-9.966178,-1.7701993000000005,1003.6296,1,4
69.48,4.7864594,-12.158793,-0.18417469,1003.6745599999999,1,4
69.52,6.736611,-15.285654000000001,2.391341,1003.6496,1,4
69.56,10.4409485,-16.901516,3.6885667,1003.6874,1,4
69.6,14.446415,-17.654633,3.0825622000000004,1003.6818,1,4
69.64,16.496942999999998,-16.348595,3.5133921999999997,1003.672,1,4
69.68,16.195805,-9.565786,1.6811764,1003.66705,1,4
69.72,14.685376999999999,-7.7401943,3.1772475,1003.6845,1,4
69.76,12.271566,-7.3684020000000015,3.8021882000000007,1003.712,1,4
69.8,9.1073265,-7.158674,2.301381,1003.6895,1,4
69.84,8.605441,-5.642908,2.2350986,1003.6921,1,4
69.88,9.599631,-3.7553513,2.6375222000000003,1003.6795699999999,1,4
69.92,11.750531,-2.5541787,2.5238955,1003.66705,1,4
69.96,14.986448999999999,-2.420715,2.2682366000000003,1003.6871,1,4
70.0,16.018875,-4.870725,1.8137328999999998,1003.68207,1,4
70.04,14.981648999999999,-6.8726788,0.6301309,1003.64716,1,4
70.08,13.480782500000002,-9.356055,0.5496452,1003.67706,1,4
70.12,12.405316000000001,-12.425717,-0.41143984,1003.6895,1,4
70.16,13.112719,-15.800439,0.94259906,1003.68207,1,4
70.2,12.032473,-16.496354999999998,2.5664990000000003,1003.697,1,4
70.24,10.651588,-14.966303,2.8742793,1003.7045,1,4
70.28,7.8936515,-13.302775,0.90476763,1003.6967,1,4
70.32,6.18727,-11.663079,-0.12733176,1003.6921,1,4
70.36,5.0879264000000015,-9.856554,-0.9558515999999999,1003.702,1,4
70.4,3.5727382000000003,-8.803144999999997,-0.7664745,1003.67664,1,4
70.44,2.4399345,-7.983298299999999,-0.46347165,1003.6592,1,4
70.48,0.79091233,-8.173962,-0.42086112,1003.64655,1,4
70.52,-0.9680454,-8.726882000000002,-0.6717837,1003.6568599999999,1,4
70.56,-0.4565969,-9.880389,-1.1925673,1003.6669,1,4
70.6,3.0900277999999997,-11.329422000000001,-1.5239748,1003.6544,1,4
70.64,5.9818196,-14.241788,0.09519269,1003.6718,1,4
70.68,9.886929499999999,-15.752789000000002,1.8990016,1003.6967,1,4
70.72,14.217442000000002,-16.181778,2.2635520000000002,1003.7016,1,4
70.76,15.837805,-16.13888,3.2530433999999997,1003.7016,1,4
70.8,13.7012415,-13.307545000000001,4.3798322999999995,1003.68896,1,4
70.84,12.205174000000001,-8.74595,3.6696727,1003.65894,1,4
70.88,10.776022,-7.8546039999999975,2.9547787,1003.68396,1,4
70.92,8.7207155,-7.8641375999999985,1.5486611000000001,1003.6941,1,4
70.96,7.076473700000001,-7.878437,1.7617102999999998,1003.6793,1,4
71.0,7.377611,-6.5771679999999995,3.3761432,1003.6662,1,4
71.04,10.298081,-4.570448000000002,3.934804,1003.68146,1,4
71.08,14.5999155,-2.5923264,3.6980847999999997,1003.67664,1,4
71.12,16.975487,-2.277734,3.5181782,1003.6517,1,4
71.16,14.169753,-6.133879,0.86217815,1003.6215,1,4
71.2,12.635446,-8.693521,-0.52973604,1003.6519,1,4
71.24,11.93701,-10.657328,-0.8091194,1003.6342,1,4
71.28,11.353860000000001,-12.506751,-0.14630404,1003.6669,1,4
71.32,11.315607,-15.199856,-0.023210805,1003.6866,1,4
71.36,11.573705,-16.791883,0.75323033,1003.6941,1,4
71.4,11.277343,-15.2999525,2.3581924,1003.679,1,4
71.44,8.285171,-12.878541,1.6764368000000005,1003.6967,1,4
71.48,5.7279625,-10.8622875,0.18509805,1003.67395,1,4
71.52,5.0492163,-8.865099,-0.64815843,1003.6736,1,4
71.56,4.1792774,-8.355078,-0.4682523,1003.6563,1,4
71.6,2.883938,-7.692525999999999,-0.070563555,1003.66895,1,4
71.64,1.5694780000000002,-7.497097,0.5733142,1003.6918300000001,1,4
71.68,0.4223112,-8.312178,0.25137339999999997,1003.65894,1,4
71.72,-0.46196568,-8.888931,-0.49192935,1003.6491,1,4
71.76,1.7510695,-9.618213,-0.69550997,1003.65405,1,4
71.8,4.595039,-12.969103,-0.34043092,1003.6491,1,4
71.84,7.133102,-16.01493,0.81002825,1003.67395,1,4
71.88,12.7923765,-15.652673000000002,0.9047149999999999,1003.6587,1,4
71.92,16.836073000000006,-13.240795,-0.15579289999999998,1003.68146,1,4
71.96,16.922096,-12.144486,2.897897,1003.6664400000001,1,4
72.0,15.841849,-9.341751,4.4602494,1003.6789,1,4
72.04,11.071591999999999,-7.0681033,2.0551705,1003.679,1,4
72.08,7.314653,-6.1195580000000005,0.28923628,1003.67395,1,4
72.12,5.3931569999999995,-6.0337596,-1.3441347,1003.6787,1,4
72.16,4.7287493,-7.091934700000001,-0.42092714,1003.6764,1,4
72.2,6.277393,-6.5247150000000005,1.0940812,1003.69385,1,4
72.24,9.522867,-5.8001976,1.8610535,1003.6743,1,4
72.28,13.563248999999999,-4.3607325999999995,4.110028,1003.6889,1,4
72.32,16.115707,-2.1395185000000003,5.6392455,1003.7089,1,4
72.36,12.908501,-5.5619073,2.3772439999999997,1003.68896,1,4
72.4,10.738507,-10.14257,-1.5144333,1003.6637,1,4
72.44,10.891504,-12.9834385,-4.7811685,1003.6664400000001,1,4
72.48,6.011369999999999,-13.765154999999998,-2.3003364,1003.66895,1,4
72.52,4.175966000000002,-10.909988,-1.8126892,1003.6915,1,4
72.56,4.959897,-10.471465,-2.3618758,1003.7089,1,4
72.6,5.882442,-10.719327999999999,-2.8116402999999996,1003.6711,1,4
72.64,5.6912904000000015,-11.987233,-1.3297681000000001,1003.6762,1,4
72.68,4.3529882,-10.504833999999999,1.0232351,1003.7065,1,4
72.72,4.2861114,-7.911828999999999,1.8801659,1003.6965,1,4
72.76,4.8119354,-6.5342949999999975,1.5108865,1003.7141,1,4
72.8,5.251721,-6.2006373,0.24680452,1003.70636,1,4
72.84,6.188603400000001,-7.058617999999999,-0.7332135999999999,1003.68365,1,4
72.88,6.4945507000000005,-8.993841999999997,-0.11773725,1003.6889,1,4
72.92,6.2030287,-9.1225395,1.4824957,1003.68396,0,0
72.96,5.6916327,-7.711639999999999,1.5819219999999998,1003.69135,0,0
73.0,5.8063855,-6.2006426,0.18054184,1003.6636,0,0
73.04,6.0836577000000025,-6.0433474,-1.7321537,1003.6764,0,0
73.08,6.6381583,-6.4675712999999995,-2.1771835999999998,1003.699,0,0
73.12,8.038684,-7.3112535,-1.3439246,1003.69385,0,0
73.16,9.042486,-7.444717999999999,-0.37336773,1003.6965,0,0
73.2,9.5013895,-6.162515,-0.3354885,1003.6965,0,0
73.24,9.09812,-5.6762834,-0.7948875,1003.68146,0,0
73.28,8.1277895,-5.895543599999999,-0.80435914,1003.69135,0,0
73.32,7.563743,-6.396032,-0.16995151,1003.69604,0,0
73.36,7.3677406,-6.9441853,0.3981743,1003.7086,0,0
73.4,7.104825,-7.077648,0.50706315,1003.70135,0,0
73.44,6.9709600000000025,-6.9632497,0.32715297,1003.6809699999999,0,0
73.48,7.1716814,-6.791653,-0.23150955,1003.6764,0,0
73.52,7.3054852,-6.581924000000001,-0.6055303000000001,1003.699,0,0
73.56,7.644822599999999,-6.5771570000000015,-0.60553294,1003.7089,0,0
73.6,7.6161059999999985,-6.677253200000001,-0.8990695,1003.7015,0,0
73.64,7.200230599999999,-7.2444729999999975,-1.2115432,1003.6835,0,0
73.68,6.564493700000001,-8.107219,-0.9416841999999999,1003.6762,0,0
73.72,6.655274,-7.0538089999999976,-0.9890315999999999,1003.69385,0,0
73.76,6.6887039999999995,-6.729682,-1.2446921,1003.6812,0,0
73.8,6.6743326000000005,-6.620050999999999,-0.9890372,1003.6862,0,0
73.84,6.559588400000001,-6.977542,-0.44931763,1003.67847,0,0
73.88,6.516541999999999,-7.292134,0.09040192,1003.716,0,0
73.92,6.588214,-7.3540990000000015,0.17561892,1003.6835,0,0
73.96,6.7745904999999995,-7.106236999999999,-0.023229357000000003,1003.6661,0,0
74.0,6.8414774000000005,-6.839309,-0.5108758,1003.67145,0,0
74.04,6.707611999999999,-6.8202419999999995,-0.61030114,1003.6811,0,0
74.08,6.712369,-6.620046,-0.7333977,1003.686,0,0
74.12,6.5545979999999995,-6.853606,-0.7949485,1003.68604,0,0
74.16,6.2964597,-7.335028,-0.3925267,1003.67584,0,0
74.2,6.363346,-7.4112915999999975,-0.1936845,1003.68854,0,0
74.24,6.750859299999999,-7.392235,-0.52506083,1003.7085,0,0
74.28,6.6648073000000005,-7.7354255000000025,-0.6481568,1003.6782,0,0
74.32,7.0471773,-7.358867599999999,-0.64342374,1003.68854,0,0
74.36,7.319610000000001,-6.667716499999999,-1.1547409,1003.701,0,0
74.4,7.176202,-6.6200504,-1.2920399999999999,1003.66583,0,0
74.44,6.9037384999999984,-7.039507,-0.8375384,1003.6982,0,0
74.48,6.836806299999999,-7.1110053,-0.53927225,1003.6832,0,0
74.52,6.9801839999999995,-6.9108095,-0.354632,1003.6908599999999,0,0
74.56,7.080547,-6.815478,-0.34043,1003.67334,0,0
74.6,7.214364999999999,-6.7106137000000015,-0.37357235,1003.7189,0,0
74.64,6.970581,-6.9823070000000005,-0.52034014,1003.67847,0,0
74.68,6.8797482999999975,-7.1205362999999995,-0.47299759999999996,1003.6807,0,0
74.72,6.6598619999999995,-7.120536,-0.5345463,1003.6906,0,0
74.76,6.626389,-7.149134599999999,-0.7286581,1003.70575,0,0
74.8,6.6550536,-7.172967999999999,-0.9180356,1003.6757,0,0
74.84,6.602460400000001,-7.230166400000001,-0.8517553,1003.6781,0,0
74.88,6.6837034,-7.2301660000000005,-0.8044126,1003.70325,0,0
74.92,6.7936233999999995,-7.2635307000000005,-0.78074205,1003.6827,0,0
74.96,6.827068,-7.1824994,-0.76654005,1003.69073,0,0
75.0,6.8652906000000025,-7.053802,-0.7428695,1003.6906,0,0
75.04,6.8413770000000005,-6.948937400000001,-0.7854805,1003.6952,0,0
75.08,6.8987193,-6.9632363,-0.5961057,1003.6827,0,0
75.12,6.8987039999999995,-7.025202,-0.525091,1003.6902,0,0
75.16,6.9847274000000015,-6.987068700000001,-0.67185885,1003.6806,0,0
75.2,6.913013,-7.0776330000000005,-0.5677035,1003.68787,0,0
75.24,6.8946929999999975,-7.0347532999999975,-0.6481151999999999,1003.6854,0,0
75.28,6.794334399999999,-6.9108233,-0.87063056,1003.6723599999999,0,0
75.32,6.799132000000001,-6.9203567999999995,-0.823285,1003.67523,0,0
75.36,6.851727499999999,-6.996622599999999,-0.6765167,1003.6798,0,0
75.4,6.8852034,-6.9346576,-0.5818270999999999,1003.6798,0,0
75.44,6.885222,-6.834560400000001,-0.66231024,1003.6901,0,0
75.48,6.827881,-6.8869925,-0.49187022,1003.6826,0,0
75.52,6.8661369999999975,-6.8822265,-0.55341583,1003.6726,0,0
75.56,6.847035400000001,-7.0633564,-0.46819496,1003.6852,0,0
75.6,6.947429,-6.987091499999999,-0.7522576,1003.6997,0,0
75.64,6.995242599999999,-6.9441934000000005,-0.7759282,1003.6798,0,0
75.68,6.866207000000001,-7.0824237000000005,-0.74751997,1003.6622,0,0
75.72,6.7945266,-7.0776577000000005,-0.64336157,1003.67523,0,0
75.76,6.7754254000000005,-7.0824245999999995,-0.80432975,1003.6695599999999,0,0
75.8,6.751542999999999,-7.106258,-0.7711874,1003.6873,0,0
75.84,6.718103,-7.220656,-0.6007471,1003.6926,0,0
75.88,6.7802570000000015,-7.1253247,-0.6196832,1003.6669300000001,0,0
75.92,6.828073,-7.0776600000000025,-0.71910405,1003.687,0,0
75.96,6.8280910000000015,-7.0681270000000005,-0.7238368000000001,1003.6872599999999,0,0
76.0,6.9428215,-6.8965309999999995,-0.70016336,1003.6922599999999,0,0
76.04,6.9046020000000015,-6.9251309999999995,-0.68122405,1003.687,0,0
76.08,6.8950615000000015,-7.0633615999999995,-0.75697273,1003.6997,0,0
76.12,6.9524345,-6.982330999999999,-0.64808,1003.6823,0,0
76.16,7.0050300000000005,-6.8679338,-0.63387525,1003.7200300000001,0,0
76.2,7.0193872000000015,-6.9489655,-0.5297166,1003.6843,0,0
76.24,6.9857273,-6.9394279999999995,-0.6622985,1003.6795699999999,0,0
76.28,6.88058,-7.0776580000000004,-0.65756327,1003.6546,0,0
76.32,6.8853693,-6.97756,-0.5723431999999999,1003.6695599999999,0,0
76.36,6.937955400000001,-6.9441953,-0.6007488000000001,1003.6848,0,0
76.4,6.8853860000000005,-6.920362,-0.8090618,1003.66974,0,0
76.44,6.928412400000001,-6.8965297,-0.6812321,1003.6846,0,0
76.48,6.823266,-6.996628,-0.6102152,1003.68195,0,0
76.52,6.799375,-7.0395270000000005,-0.5628704000000001,1003.68396,0,0
76.56,6.837623,-6.9823284,-0.55813515,1003.67163,0,0
76.6,6.8089533,-7.0156946,-0.63388485,1003.6711,0,0
76.64,6.851979300000001,-6.9727960000000015,-0.6149465000000001,1003.6536,0,0
76.68,6.7994103,-7.0585933,-0.59127367,1003.6789,0,0
76.72,6.832878599999999,-7.015695,-0.6196792,1003.67395,0,0
76.76,6.933263,-6.948963000000001,-0.60074085,1003.67395,0,0
76.8,7.0193076,-6.929898,-0.6954281,1003.6943,0,0
76.84,7.0097556,-6.877465700000001,-0.6575522,1003.6963,0,0
76.88,7.052784,-6.9155983999999995,-0.68122333,1003.6611,0,0
76.92,7.0575724000000015,-6.8345666,-0.68122256,1003.6611,0,0
76.96,7.0097830000000005,-6.8298005999999996,-0.6149399999999999,1003.67645,0,0
77.0,6.9619937000000025,-6.920365299999999,-0.5344544,1003.6737,0,0
77.04,6.966781599999999,-6.9298987000000025,-0.5013128,1003.6663,0,0
77.08,6.947672,-6.896533,-0.57706237,1003.6736,0,0
77.12,6.914222200000001,-6.9060664,-0.5060456,1003.6592,0,0
77.16,6.9046707,-6.8536350000000015,-0.638608,1003.68646,0,0
77.2,6.899899499999999,-6.934666,-0.60073215,1003.6813,0,0
77.24,6.8329910000000025,-7.0585966,-0.5770592,1003.68396,0,0
77.28,6.899916999999999,-7.072897,-0.56285524,1003.64856,0,0
77.32,7.014641,-6.9537330000000015,-0.65280807,1003.6688,0,0
77.36,7.028989,-6.934667,-0.82324594,1003.6686,0,0
77.4,6.9381813999999995,-6.9775662,-0.7380258000000001,1003.6688,0,0
77.44,6.895325,-6.944204300000001,-0.58177567,1003.6787,0,0
77.48,6.9240184000000005,-6.9013050000000025,-0.51075834,1003.69135,0,0
77.52,6.890574000000001,-6.934672,-0.3734592,1003.65356,0,0
77.56,6.928825999999999,-6.996638000000001,-0.34978592,1003.6963,0,0
77.6,6.962297,-7.0061706999999975,-0.4255353,1003.6635,0,0
77.64,6.9527529999999995,-6.906074,-0.61964446,1003.6789,0,0
77.68,6.943206,-6.8870070000000005,-0.74747217,1003.6709599999999,0,0
77.72,7.000578999999999,-6.9013076,-0.74273646,1003.6709599999999,0,0
77.76,6.971914,-6.9489737000000025,-0.7664072,1003.67346,0,0
77.8,6.8763320000000006,-7.1873016000000005,-0.6433114000000001,1003.6811,0,0
77.84,6.885905,-6.963274,-0.47287154,1003.6935,0,0
77.88,6.881139999999999,-6.829811,-0.43499499999999997,1003.691,0,0
