Timestamp,Ax,Ay,Az,P,LPFRMSAcc,LPFPValue,Value,Type
0.0,-2.720198,3.8424788,7.4479065,1004.0997,0.01831352137171083,3.61475892,0,0
0.02,-1.9918607,5.6346593,7.031444500000001,1004.1271,0.05360969699959349,10.410604329599998,0,0
0.04,-2.3599354999999997,3.8805678,7.4243975,1004.1301,0.10269415275436598,19.992803517936,0,0
0.06,-2.2452544999999997,3.4277455999999997,10.530163,1004.158,0.16918070283528558,32.002629428085115,0,0
0.08,-2.99094,2.8843591,9.213996,1004.1359,0.2483273577436615,46.114191376351776,0,0
0.1,-2.1831856,2.8462272,9.015148,1004.1386,0.3375338127262721,62.03205538488531,0,0
0.12,-1.2415985,2.3743389,9.218722999999999,1004.2146,0.4350951627368407,79.48893718343994,0,0
0.14,-1.0122,1.8500183999999997,10.407057,1004.1921,0.541804304823525,98.2427693267825,0,0
0.16,-0.80192286,1.2208339,9.819987,1004.1825,0.6547770176392678,118.07503843906349,0,0
0.18,-0.6059850999999999,0.38668716,6.9035907000000005,1004.1575,0.7666689315972195,138.78872828829435,0,0
0.2,0.7514470999999999,0.24369113,6.278647,1004.2308300000001,0.8759294287442089,160.2069362052369,0,0
0.22,2.7206922000000002,1.4353315,10.274482,1004.2512,0.99161031649858,182.17062407030846,0,0
0.24,2.7780156000000003,0.31042477,7.651617999999999,1004.2288,1.1071877638236365,204.53714810123265,0,0
0.26,3.4089153,0.29612586,6.6147800000000005,1004.1994,1.2208052424211089,227.17899284179276,0,0
0.28,3.8970587,0.33901015,3.2723455,1004.2097,1.3274029473751567,249.9826374003212,0,0
0.30000000000000004,4.8769093,-0.36644006,6.53435,1004.2251,1.433778173728791,272.84721059759585,0,0
0.32,5.0059557,-2.106233,7.4859643,1004.2149699999999,1.541832449393309,295.68327140855627,0,0
0.34,6.4924669999999995,-0.93842655,2.4911664,1004.2136,1.6463432294015434,318.41192392405014,0,0
0.36000000000000004,7.4770947,-2.3636267,4.6973980000000015,1004.2210699999999,1.7517614834270947,340.96387421261386,0,0
0.38,8.619462,-2.6686862000000002,2.8793860000000002,1004.20166,1.8582886967075156,363.2784335164233,0,0
0.4,10.827722,-3.2645054,5.8904667,1004.2094,1.9722292606045688,385.3029295966105,0,0
0.42,11.425189,-2.9308462000000004,0.91934085,1004.21686,2.09039716347868,406.9918644825159,0,0
0.44,12.228188000000001,-2.8545814,0.62107265,1004.2174,2.213415945752724,428.3062192755649,0,0
0.46,10.775119,-4.880368,0.29913229999999996,1004.1997,2.338740662588426,449.21279970131087,0,0
0.48,13.705127,-3.531432,2.869913,1004.2149,2.4710728425298933,469.6838617265754,0,0
0.5,12.452813,-4.2702480000000005,1.7904682,1004.2180000000001,2.606719778844879,489.6964150298833,0,0
0.52,11.133576,-4.0080870000000015,-0.4204998,1004.2334,2.7418032952304854,509.23184027457876,0,0
0.54,10.134589,-4.966165,-0.0038728453000000003,1004.2364,2.8747500083904263,528.2753584358031,0,0
0.56,9.345912,-4.8851333,-0.50098634,1004.2364,3.0038160525228883,546.815670832692,0,0
0.5800000000000001,9.412822,-5.156827,-0.8229264999999999,1004.23676,3.129418358436413,564.8446067875852,0,0
0.6,9.384131,-5.2521577000000015,-1.097523,1004.2322,3.2516023833742795,582.3567699328937,0,0
0.62,9.4606,-5.0662622000000015,-1.2348216,1004.2326,3.370311065342936,599.34927027633,0,0
0.64,9.087767,-5.3045893,-1.3626512,1004.2352,3.4851224748952,615.8214329267953,0,0
0.66,8.781851,-5.380854,-1.9781244999999998,1004.2301,3.5958212367495763,631.7745070462101,0,0
0.68,8.734044,-5.1854252999999995,-0.60514796,1004.2386,3.7018388370647664,647.2115140727586,0,0
0.7000000000000001,7.63468,-5.9147086,-1.1259333999999999,1004.24615,3.8023985776769464,662.136978170755,0,0
0.72,7.5056167,-6.510527,0.43168506,1004.25885,3.898235301578583,676.5567569863299,0,0
0.74,7.21404,-6.6725902999999995,0.5216379,1004.2439,3.9893363429454367,690.477747262621,0,0
0.76,6.9559216,-6.1864014,-0.15538281,1004.2343,4.074822580767268,703.9078578606063,0,0
0.78,7.385001700000001,-6.1244087,-0.24070297,1004.2624,4.155636083137984,716.8559799366881,0,0
0.8,7.92985,-5.766916,-0.36380196,1004.2704,4.232476129227802,729.3316325153418,0,0
0.8200000000000001,7.5378547000000005,-6.319834999999999,-0.65733975,1004.2554,4.3056257603573265,741.344844696785,0,0
0.84,7.705096000000001,-6.6296606,-0.34487382,1004.2607,4.375899587829273,752.9062160593998,0,0
0.86,8.264284,-6.1291704000000005,-0.68102103,1004.2636,4.443672542742039,764.0267303775923,0,0
0.88,7.853172,-6.0338387,-0.6904943,1004.2587,4.5081935353217055,774.7176519197881,0,0
0.9,7.7001667000000005,-6.2149663,-0.62895185,1004.23834,4.5695834334010526,784.9904246715608,0,0
0.92,8.015582,-5.900372,-1.3059764999999999,1004.2511599999999,4.628241474192548,794.8567853222095,0,0
0.94,8.01075,-5.7001753,-1.0124481,1004.2746599999999,4.683953106792644,804.3286059419628,0,0
0.96,8.177991,-5.6858745000000015,-1.2870485,1004.2492699999999,4.737192004383207,813.4176210321858,0,0
0.98,8.2018385,-5.9766335,-1.9877452000000002,1004.2323,4.788673885785285,822.1356076101907,0,0
1.0,8.340406,-6.343657,-0.98405534,1004.2547599999999,4.838799565191003,830.4944494991196,0,0
1.02,7.766775,-6.3817883,-1.4953761,1004.2654,4.886794294646228,838.5058976139801,0,0
1.04,7.2887425000000015,-6.1005597,-1.7415701000000001,1004.2404,4.931694371603848,846.1814573768604,0,0
1.06,7.446424,-5.504739,-1.4243696000000001,1004.2404,4.973087308030429,853.5325941767849,0,0
1.08,7.3746815,-5.223511,-0.99354285,1004.2482,5.0106556345398685,860.5706348341616,0,0
1.1,7.6422987000000004,-4.9899483,-0.7047489,1004.24646,5.044839477376786,867.3066805296168,0,0
1.12,7.570546,-5.3474383,-0.60533154,1004.2639999999999,5.076188510878106,873.7516968562143,0,0
1.14,7.804708,-5.633431,-0.6337424,1004.2493,5.105663646463871,879.9163046537135,0,0
1.16,7.9241509999999975,-5.34267,-0.7473728000000001,1004.285,5.133251989295472,885.8110794068305,0,0
1.18,8.153533,-5.790725,-0.62901723,1004.2674,5.1599763358639485,891.44614513282,0,0
1.2,7.8858112999999985,-5.7859573,-0.6905693,1004.25745,5.185393594826773,896.8314099058263,0,0
1.22,8.239466,-5.466596,-0.6006203,1004.26807,5.20977456181818,901.9766018355936,0,0
1.24,8.4879675,-5.323598400000002,-0.7142505,1004.2531,5.23343995906453,906.8910888181281,0,0
1.26,8.703003,-5.2092,-0.6669115,1004.2732,5.256637423243218,911.58410511615,0,0
1.28,8.492258,-5.290221,-0.7095608,1004.2506,5.279058544392644,916.0644536986639,0,0
1.3,8.439614,-5.657244,-0.5296595000000001,1004.2361,5.301011677682923,920.3407076328583,0,0
1.32,8.429986999999999,-5.261618599999999,-0.7095731,1004.2567,5.322032637542095,924.421303181634,0,0
1.34,8.114457000000002,-5.2711496,-0.62435955,1004.2491,5.341600930773117,928.3142974770784,0,0
1.36,8.238665,-5.423678,-0.43025509999999995,1004.262,5.360182448516548,932.0275589656156,0,0
1.38,8.343753999999999,-5.5142407,-0.3403075,1004.2644,5.37810366708796,935.5686494446107,0,0
1.4,8.252877999999999,-5.642936,-0.30717209999999995,1004.2724599999999,5.3953671840836215,938.9448907098503,0,0
1.42,8.353183999999999,-5.447506,-0.4918204000000001,1004.2497599999999,5.411950575373827,942.1632350212603,0,0
1.44,8.577771,-5.5762014,-0.8895161,1004.283,5.428465472310693,945.2305952087461,0,0
1.46,8.5251255,-5.452269,-0.6149268,1004.2527,5.444587416412055,948.1533942476567,0,0
1.48,8.620654,-5.099542,-0.59126097,1004.2783,5.4600864348916325,950.9380291391467,0,0
1.5,8.730526,-4.8850455,-1.2067393999999998,1004.2731,5.475069299735587,953.5905387843663,0,0
1.52,8.47713,-5.5380626,-0.58180404,1004.2354,5.489678706168512,956.1166178072583,0,0
1.54,8.3910265,-5.395064,-0.6480918999999999,1004.2384,5.503602698596295,958.5218996477802,0,0
1.56,7.9655557,-4.7372775,-0.91322464,1004.2487,5.515448993323123,960.8118231633329,0,0
1.58,7.5448666,-4.9565372000000005,-0.58655685,1004.2591,5.524863233839697,962.9916097782872,0,0
1.6,7.8124723,-4.970835,-0.7333293000000001,1004.2519,5.532598545112344,965.066206276059,0,0
1.62,7.7789507,-5.3616915,-0.88957036,1004.2944,5.539239725336414,967.0405412388964,0,0
1.64,7.841017,-5.1853275000000005,-0.90378016,1004.2729,5.544795248089926,968.9191001035997,0,0
1.66,8.132518,-5.1471934,-0.9842711,1004.24994,5.549851376385503,970.7061857400782,0,0
1.68,8.185033,-5.428419,-0.7286189999999999,1004.2579,5.554809274773554,972.4060407798064,0,0
1.7,8.505217,-5.113824,-0.44456056,1004.2456,5.559840525403412,974.0226551061032,0,0
1.72,8.825397,-4.9136276,-0.33567536,1004.26324,5.565276956407333,975.5599616304368,0,0
1.74,9.035641,-4.861193,-0.48244804,1004.24084,5.571394810180175,977.0215768374684,0,0
1.76,8.982997,-5.08522,-0.7097057,1004.2437,5.578249055848879,978.4110596777867,0,0
1.78,8.806682,-5.175798,-1.3156602,1004.2388,5.585630656912905,979.731786580652,0,0
1.8,8.30476,-5.566654,-0.89903635,1004.2337,5.592908722575755,980.9869877603334,0,0
1.82,7.979692,-5.5428205,-0.89430577,1004.2741,5.599484595393494,982.1799171267627,0,0
1.84,8.199524,-5.3044915,-1.216249,1004.2616,5.605591428231086,983.3134835732832,0,0
1.86,8.548407000000001,-4.8993335,-0.99847037,1004.2517,5.611390953012758,984.3904804645648,0,0
1.88,8.553142,-5.361688,-0.61972183,1004.2393,5.617335445685841,985.413570668029,0,0
1.9,7.969962599999999,-5.4570184,0.22299823,1004.22974,5.622447126452234,986.3853113814047,0,0
1.92,8.328405,-5.2997212,-0.032663573,1004.25726,5.6272409390347695,987.3082804907707,0,0
1.94,8.447857,-5.247288,-0.16049646,1004.2376,5.631891387674535,988.1847615460397,0,0
1.96,8.744164999999999,-4.9565268,-0.6954878000000001,1004.2376,5.63666679294567,989.0170104249097,0,0
1.98,8.84928,-4.885028,-0.68128836,1004.2557400000001,5.641651254096688,989.8072449607497,0,0
2.0,8.447733,-5.3902817,-0.6244795,1004.24054,5.6466141250328405,990.5574560587587,0,0
2.02,8.098761999999999,-5.123353,-0.44457626,1004.2507300000001,5.650611341158058,991.2696383711482,0,0
2.04,8.356833,-5.585708,-0.78545684,1004.2507300000001,5.654756846561584,991.9456545922392,0,0
2.06,7.878806599999999,-5.5761743,0.13774788,1004.22833,5.658126922421193,992.5872001566637,0,0
2.08,7.9170050000000005,-5.5285077000000005,-0.6339638000000001,1004.2308300000001,5.660848832990968,993.1959868848247,0,0
2.1,7.8548217000000005,-5.0041847000000015,-0.82807857,1004.2562,5.662308834501834,993.7737276050424,0,0
2.12,7.8595605,-4.73249,0.21348675,1004.2234,5.662288321962447,994.3218381260488,0,0
2.14,8.098509,-4.8421199999999995,0.22768602,1004.2442599999999,5.661503351431887,994.8418693011563,0,0
2.16,8.375696000000001,-4.942216999999999,-0.7049954,1004.2194,5.660694646000213,995.3351279579973,0,0
2.18,8.715016,-5.237742400000001,-1.0316737,1004.227,5.660843586614223,995.8029820465327,0,0
2.2,9.17862,-5.5857005,-1.230522,1004.2288,5.663074427898866,996.2467108637953,0,0
2.22,8.284751,-5.356904,-1.2826046,1004.2393,5.665336720956843,996.6675629676187,0,0
2.24,7.4530270000000005,-4.7706165,-1.1831857,1004.2343,5.665496637255652,997.066668139874,0,0
2.26,7.7588887,-4.3940573,-1.0127511999999999,1004.22455,5.663894385487084,997.4450858447748,0,0
2.28,8.456286,-5.2043605,-0.17006873,1004.2299,5.662729634389483,997.8038810597842,0,0
2.3,8.647416,-4.956498000000002,-0.17480892,1004.2122,5.6620342140161775,998.1439824599513,0,0
2.32,8.150260000000001,-5.371187,-0.33578375,1004.2503,5.661336197665733,998.4664788002832,0,0
2.34,7.791717999999999,-5.247256,-0.37366417,1004.2071,5.659878827374938,998.7721028029193,0,0
2.36,8.838435,-4.646668,-0.45888886,1004.2375,5.658991829106372,999.0618276015581,0,0
2.38,8.795355,-5.7334414,-0.3973474,1004.2202,5.6596732511461285,999.3363985742695,0,0
2.4,8.48939,-5.371182,-0.6577448,1004.2378,5.660825170468936,999.5966545308901,0,0
2.42,8.761781,-4.0937433,-1.0033618,1004.2227,5.6616726495196525,999.8432704578488,0,0
2.44,8.819078,-4.9135895,-0.21745606,1004.2306,5.663027469288701,1000.0769746772612,0,0
2.46,8.049475,-5.633338,-0.44471264,1004.2276,5.664279256529412,1000.298417976696,0,0
2.48,8.326642999999999,-4.875454,-1.1217381000000002,1004.2255,5.665184050595513,1000.5082227713604,0,0
2.5,8.833242,-4.1700025,-0.55834925,1004.2185,5.665924545605785,1000.706963285949,0,0
2.52,7.987161,-5.075647,-0.14646116,1004.2559,5.66585329078613,1000.89534657681,0,0
2.54,7.987100999999999,-5.280607,-1.154895,1004.2306,5.665438543426252,1001.0738089649382,0,0
2.56,8.393326,-4.608521499999998,-0.3737235,1004.2284,5.6645935364436,1001.2428548588147,0,0
2.58,9.325316,-4.651418,0.09971048,1004.2164,5.6651149814592845,1001.402928573152,0,0
2.6,8.646525,-5.5570626,-0.10860877,1004.2565,5.666545543076817,1001.5546425642772,0,0
2.62,8.598671000000001,-4.9993744000000016,-0.03286342,1004.2464,5.668083341896048,1001.698387373604,0,0
2.64,9.1817465,-4.5084176,-0.09915055,1004.20636,5.670298399201687,1001.8344289885803,0,0
2.66,9.014395,-5.5665917,-0.22225048,1004.2669999999999,5.673867926608909,1001.9633926152144,0,0
2.68,8.378625,-5.5856566,-0.84719706,1004.2269,5.67759966971436,1002.0854935022934,0,0
2.7,8.933019,-3.9793255,-0.7667179000000001,1004.2291,5.6808458574042575,1002.2010988295084,0,0
2.72,9.277109,-4.708607700000001,-0.4163771,1004.23694,5.68490401586672,1002.3105767248489,0,0
2.74,8.6174555,-5.7286496,-0.05656613,1004.24945,5.689532070487439,1002.4142913369627,0,0
2.76,8.077259,-5.0470295,-1.1644241000000002,1004.2746599999999,5.693082638734978,1002.5126308954132,0,0
2.78,9.048946,-3.9793546,-0.7097941,1004.2372,5.696323880983571,1002.6057321780366,0,0
2.8,9.115862,-5.2472596,-0.30736992,1004.2471300000001,5.700552091412733,1002.6939055035216,0,0
2.82,8.179018,-6.205337,-0.7050601,1004.24225,5.705155084642812,1002.7773894941079,0,0
2.84,8.652216000000001,-5.1280956,-0.7950141,1004.2172,5.70965356414567,1002.8563392660108,0,0
2.86,8.962900999999997,-4.5799413,-0.40679306,1004.2224,5.714010996402906,1002.9310171031063,0,0
2.88,8.594852000000001,-5.070896,-0.47780937,1004.2425,5.718056030930526,1003.0017237783929,0,0
2.9,8.293722,-5.3092239999999995,-0.13219811,1004.23,5.72151475550563,1003.0686219910741,0,0
2.92,8.465794,-5.180527,-0.25529283,1004.2348599999999,5.724609178915955,1003.1319317086313,0,0
2.94,8.637863000000001,-4.9136,-0.14166737,1004.2632,5.7273918567866255,1003.1919447409136,0,0
2.96,8.585283,-4.737237,-0.38312224,1004.2303,5.729627990825066,1003.2487103351712,0,0
2.98,8.394089,-4.5322757000000005,-0.34051278,1004.2153,5.730817304937121,1003.3023481370503,0,0
3.0,7.8683076000000005,-4.713404,-0.43993556,1004.22284,5.730322898435067,1003.3530562694974,0,0
3.02,7.916103,-5.104262,-0.53462386,1004.2328,5.728865480603132,1003.4010290527576,0,0
3.04,7.91132,-5.3664227,-0.27423179999999997,1004.2253400000001,5.7268313853214154,1003.4463853234563,0,0
3.06,8.231565,-5.2901573,-0.43520182,1004.2432,5.724775121149659,1003.489330657081,0,0
3.08,8.398856,-5.0804290000000005,-0.2884355,1004.2382,5.722759749617215,1003.5299730835063,0,0
3.1,8.02125,-5.223426,-0.34051415,1004.2511599999999,5.720284802281072,1003.5684810043956,0,0
3.12,8.164641,-5.1471599999999995,-0.38312405,1004.2409,5.717581319079744,1003.6049273116772,0,0
3.14,8.140739,-5.1042614,-0.37365544,1004.2413,5.714595415107764,1003.6394222104692,0,0
3.16,8.026021,-5.4045544,-0.4494062,1004.2436,5.71151752885257,1003.672076943084,0,0
3.18,8.298468,-5.395021400000001,-0.37365595,1004.2434,5.708823750424223,1003.7029874278273,0,0
3.2,8.42274,-5.1137943,-0.43046899999999994,1004.24115,5.706391620292683,1003.7322373174063,0,0
3.22,8.408398,-5.190059,-0.15587378,1004.22614,5.704239798313577,1003.759860569496,0,0
3.24,8.518331,-5.2806239999999995,-0.5251576,1004.23425,5.7026627692985805,1003.7859762769917,0,0
3.26,8.833796000000003,-5.2234254,-0.6245803000000001,1004.2417,5.702109516302228,1003.810692721538,0,0
3.28,8.618703,-5.2949233,-0.4257354999999999,1004.2542,5.702135830372067,1003.8341287981416,0,0
3.3,8.37015,-5.3902550000000025,-0.43520454,1004.22864,5.702343510302298,1003.8562571557553,0,0
3.32,8.513541,-5.166226,-0.5062209,1004.23425,5.702723507012075,1003.877170546782,0,0
3.34,8.360585,-5.061362,-0.3594545,1004.2542,5.702856558006749,1003.8970069251246,0,0
3.36,8.370142,-5.1757589999999984,-0.13220336,1004.24194,5.702900079841138,1003.9157761080977,0,0
3.38,8.159829,-5.3664217,-0.099062756,1004.2169,5.702708084901668,1003.9334446041837,0,0
3.4,8.1550455,-5.3378224,-0.07065652,1004.2294300000001,5.702267245385151,1003.9501220347502,0,0
3.42,8.083347,-5.2281914,-0.28370494,1004.2245,5.701367086856303,1003.9658459730736,0,0
3.44,8.011647,-5.237724,-0.269502,1004.2245,5.699949378205661,1003.9806707994729,0,0
3.46,8.264974,-5.2520237000000005,-0.43520638,1004.2595,5.698550344947523,1003.9947738012016,0,0
3.48,8.422198,-5.352109,-0.4210498,1004.2423,5.697558591262282,1004.0081263078447,0,0
3.5,8.393505000000001,-5.518937599999999,-0.31689429999999996,1004.217,5.6970603771584445,1004.020676528006,0,0
3.52,8.465185,-5.461738599999999,-0.43999037,1004.2425,5.697069575583648,1004.03256446704,0,0
3.54,8.436489,-5.213877,-0.49680477,1004.23505,5.6972074513707724,1004.0437975978889,0,0
3.56,8.374334,-5.0327480000000016,-0.65304166,1004.2275400000001,5.697171751068892,1004.0543846649547,0,0
3.58,8.230924,-5.018448,-0.39265100000000003,1004.26044,5.6966837242027495,1004.0644811966201,0,0
3.6,8.187889,-5.414071599999999,-0.12752579,1004.2099,5.696148320047433,1004.0739259996919,0,0
3.62,8.402965,-5.518935,-0.051776733,1004.23505,5.6960647328394565,1004.0828514740872,0,0
3.64,8.594139,-5.323506,-0.22221686,1004.2325400000001,5.696502005516317,1004.0912769019563,0,0
3.66,8.465067999999999,-5.261541,-0.27429685,1004.2528699999999,5.69710484687818,1004.0993033451742,0,0
3.68,8.211722,-5.266307,-0.6719883000000001,1004.2479,5.697452050937268,1004.1069304583588,0,0
3.7,8.211704,-5.2901397,-0.7003964,1004.2354,5.697602950840409,1004.1141322659188,0,0
3.72,8.159108999999999,-5.333038,-0.42106807,1004.2305,5.697503458168277,1004.1209147069217,0,0
3.74,8.316827,-5.304437999999998,-0.34531915,1004.2329,5.6974198933805225,1004.1273108188466,0,0
3.76,8.235553,-5.3235035,-0.42107108,1004.2305,5.697236189926969,1004.1333339043956,0,0
3.78,8.139941,-5.371169,-0.29797798,1004.24084,5.696843132645603,1004.139042924731,0,0
3.8,8.235517999999999,-5.366402,-0.31218290000000004,1004.24335,5.6964280377432575,1004.1444629205704,0,0
3.82,8.407577,-5.3330355,-0.52049816,1004.2404,5.6962762327385335,1004.1495974023801,0,0
3.84,8.450578,-5.2615376,-0.46842122,1004.26355,5.696348851952592,1004.1545444598582,0,0
3.86,8.340625,-5.280603,-0.38793796,1004.2533599999999,5.696439977698268,1004.1592714157906,0,0
3.88,8.302371,-5.275836,-0.46368980000000004,1004.23584,5.6964815438118315,1004.1637238009556,0,0
3.9,8.211537,-5.3187346,-0.33586246,1004.2386,5.696357688941793,1004.1679274828036,0,0
3.92,8.2163,-5.3473334,-0.28851995,1004.25104,5.696125630390411,1004.1719410611468,0,0
3.94,8.240184,-5.4140644,-0.236443,1004.2633,5.695913323486147,1004.1758163511508,0,0
3.96,8.4218,-5.237702,-0.43055514,1004.24554,5.69585335314353,1004.179491562534,0,0
3.98,8.177992999999999,-5.4092965,-0.25538552,1004.24603,5.69568172816954,1004.182978517687,0,0
4.0,8.072821000000001,-5.414063,-0.2743246,1004.2666,5.695236751051342,1004.1863606285966,0,0
4.02,8.249656,-5.385463,-0.46370244,1004.24097,5.694840186252629,1004.1895456555335,0,0
4.039999999999999,8.235298,-5.4283624,-0.2695935,1004.2638,5.6944967675637415,1004.1926272609747,0,0
4.06,8.306977,-5.433128,-0.37375203,1004.24646,5.694338481846232,1004.1955439654033,0,0
4.079999999999999,8.369098,-5.347329599999999,-0.41636327,1004.24854,5.69435947842963,1004.1983119511607,0,0
4.1,8.230466999999999,-5.45696,-0.50158405,1004.25385,5.694429953167588,1004.2009576803521,0,0
4.119999999999999,8.278247,-5.4283605,-0.46371043,1004.2389,5.694590181402418,1004.203432039016,0,0
4.14,8.340367,-5.2376976,-0.3595551,1004.2361,5.6947148313606615,1004.2057359869913,0,0
4.159999999999998,8.459845,-5.1280660000000005,-0.55366737,1004.2388,5.694917822283927,1004.2078907858687,0,0
4.18,8.40247,-5.2758293,-0.5536689,1004.2488,5.695248986198906,1004.209942039328,0,0
4.199999999999998,8.325975,-5.323494,-0.27907497,1004.2666,5.695587037347982,1004.2119584955431,0,0
4.22,8.259041,-5.261529,-0.260139,1004.2388,5.695742388999803,1004.2138368656704,0,0
4.239999999999998,8.239905,-5.428358,-0.21279645,1004.2438,5.695888498547856,1004.2156044607988,0,0
4.26,8.225547,-5.3282595,-0.22700138,1004.2513,5.695887840756322,1004.2172948117952,0,0
4.279999999999999,8.340245,-5.1757292999999995,-0.04236116,1004.25635,5.695783791399256,1004.2189290046132,0,0
4.3,8.349788,-5.161429,-0.22700454,1004.2338,5.695595236679505,1004.2204265129704,0,0
4.319999999999999,8.4023485,-5.1614285,-0.27908449999999996,1004.25183,5.695428448254825,1004.2218627639083,0,0
4.34,8.507485,-5.1042295,-0.29328945,1004.2516,5.6954073931297104,1004.2232388892868,0,0
4.359999999999999,8.402312,-5.1471279999999995,-0.4211199000000001,1004.2543300000001,5.6953841655692665,1004.22456676167,0,0
4.38,8.249343,-5.33779,-0.30276132,1004.2643400000001,5.695292209419937,1004.2258832533656,0,0
4.4,8.067688,-5.418821,-0.32643540000000004,1004.2567,5.6949190299121,1004.227157445716,0,0
4.42,8.148928,-5.3520885,-0.3453745,1004.26184,5.694363940157629,1004.228408179272,0,0
4.44,8.292308,-5.2186246,-0.37851658,1004.2243699999999,5.693753238885505,1004.2294987899968,0,0
4.46,8.230148,-5.313956,-0.32644027,1004.23456,5.693089273333093,1004.2304806739893,0,0
4.48,8.340003999999999,-5.3044199999999995,-0.42113563,1004.2443,5.69256952295018,1004.2313980162584,0,0
4.5,8.296965,-5.2186213,-0.32171503,1004.2263,5.692000476089289,1004.2321902270289,0,0
4.52,8.349524,-5.118524,-0.22702877,1004.2368,5.691367467639638,1004.2329068196486,0,0
4.539999999999999,8.363847999999999,-5.0994573,-0.38326540000000003,1004.2313,5.690695060590659,1004.2335342163364,0,0
4.56,8.368603,-5.2090879999999995,-0.26964206,1004.2319,5.6901102811808135,1004.2340827008712,0,0
4.579999999999999,8.363809,-5.2424526,-0.23650257,1004.2393,5.689631545967704,1004.2345861240827,0,0
4.6,8.392461,-5.2567515,-0.2791145,1004.24445,5.689316765037306,1004.235066458786,0,0
4.619999999999999,8.454583999999999,-5.118521,-0.31699106,1004.2343,5.689109661674548,1004.2354881232781,0,0
4.64,8.292046000000001,-5.166186,-0.29805574,1004.2596,5.688761307764993,1004.2359475087793,0,0
4.659999999999998,8.301585000000001,-5.313949,-0.33593282,1004.26184,5.6884726049917305,1004.2364466347767,0,0
4.68,8.325464,-5.2805824,-0.23651208,1004.2471,5.688236239452107,1004.2369260146228,0,0
4.699999999999998,8.416261,-5.142352,-0.15602908,1004.2418,5.6880520001432275,1004.2373671410022,0,0
4.72,8.354104,-5.147118,-0.32646942,1004.2368,5.687818266859733,1004.2377548785634,0,0
4.739999999999998,8.363643,-5.232916,-0.40222183,1004.252,5.687658301190687,1004.2381487659096,0,0
4.76,8.325385,-5.2519813,-0.26966026,1004.2474,5.687508481615012,1004.2385301092115,0,0
4.779999999999999,8.473538000000001,-5.1804830000000015,-0.3643502,1004.24457,5.687557564062573,1004.2388888077597,0,0
4.8,8.397041,-5.1614156,-0.35961765,1004.2476,5.6876256987731555,1004.2392371140892,0,0
4.819999999999999,8.330105999999999,-5.1375823,-0.37855703,1004.2468,5.687567563944999,1004.2395721039512,0,0
4.84,8.210589,-5.2901120000000015,-0.1939171,1004.2596,5.6873457889912,1004.2399402014188,0,0
4.859999999999999,8.234468,-5.318711,-0.12763728,1004.2624,5.687051875797813,1004.2403463076164,0,0
4.88,8.339605,-5.256745,-0.17024864,1004.25226,5.686811544436782,1004.240748032345,0,0
4.9,8.253549000000001,-5.285344,-0.30281383,1004.2423,5.686506993737165,1004.2411085833987,0,0
4.92,8.177052999999999,-5.4235735,-0.36436275,1004.2294,5.686174806438308,1004.2413850154097,0,0
4.94,8.267849,-5.356841,-0.35963032,1004.2219,5.685900761079693,1004.2415591246788,0,0
4.96,8.296509,-5.4569387,-0.52533615,1004.2368,5.685857910000223,1004.2416958347804,0,0
4.98,8.401580000000001,-5.294873,-0.7052513000000001,1004.2468,5.686043872504102,1004.2418350068207,0,0
5.0,8.61665,-5.142343,-0.6579092,1004.2219,5.686639440454888,1004.2418862132112,0,0
5.02,8.406316,-5.137575599999999,-0.45433196,1004.2343,5.687192429017983,1004.2419041488102,0,0
5.039999999999999,8.243779,-5.2758055,-0.25075462,1004.2499,5.6875566478955975,1004.2419487817697,0,0
5.06,8.262877,-5.3330035,-0.24128775,1004.22687,5.687849903185483,1004.2419339358383,0,0
5.079999999999999,8.411028,-5.3234699999999995,-0.3454467,1004.2474,5.688334491656601,1004.2419404958046,0,0
5.1,8.372767,-5.3854346,-0.27443272,1004.2524,5.688984038168511,1004.2419839464056,0,0
5.119999999999999,8.200671,-5.2805696,-0.28863806,1004.2373699999999,5.6893592749659465,1004.2420057291496,0,0
5.14,8.023796,-5.347301,-0.43067219999999995,1004.2418,5.689270371229209,1004.2420242357574,0,0
5.159999999999998,8.195846000000001,-5.399732599999999,-0.51115924,1004.25684,5.689137631352395,1004.2420939249472,0,0
5.18,8.387015,-5.2710349999999995,-0.42120767,1004.2144,5.689146970424428,1004.2420558041856,0,0
5.199999999999998,8.468253,-5.161404,-0.40700614,1004.2398699999999,5.689304215142936,1004.2420142517856,0,0
5.22,8.549485,-5.294867,-0.34072667,1004.2496,5.689875296893852,1004.2420048447784,0,0
5.239999999999998,8.487325,-5.309166,-0.48749536,1004.22955,5.69072866965976,1004.2419516953058,0,0
5.26,8.382147999999999,-5.185235,-0.65320146,1004.24536,5.691527003641594,1004.2419170023286,0,0
5.279999999999999,8.095336999999999,-5.3997293,-0.62006277,1004.2219,5.692009351449952,1004.2418142864057,0,0
5.3,8.138332,-5.4473944,-0.39754778,1004.2774,5.69231584607796,1004.2418516351847,0,0
5.319999999999999,8.334280999999999,-5.3806624,-0.25078335,1004.2548,5.692719810247836,1004.2419312506796,0,0
5.34,8.515892,-5.1709332,-0.5301151999999999,1004.2573,5.693319710495403,1004.2420569264284,0,0
5.359999999999999,8.162165,-5.2948627,-0.4070227,1004.2398699999999,5.69359319404005,1004.2421601005847,0,0
5.38,8.028308,-5.3615937,-0.4875095999999999,1004.2427,5.693429013948285,1004.2422532089073,0,0
5.4,8.076082000000001,-5.294862,-0.4591053,1004.2449,5.692882076532063,1004.242345007869,0,0
5.42,8.2290125,-5.2424292999999995,-0.4875139,1004.2701400000001,5.692209340059872,1004.2425261834034,0,0
5.44,8.472763,-5.175697,-0.44490609999999997,1004.2493,5.691779710660387,1004.2427106558447,0,0
5.46,8.434501,-5.2185955,-0.45437714,1004.2526,5.691546299657907,1004.2429092573334,0,0
5.48,8.406302,-5.1471089999999995,-0.6105685000000001,1004.2294300000001,5.691376957184478,1004.2430362162822,0,0
5.5,8.501895,-5.108976,-0.5395526999999999,1004.2497599999999,5.691384818624706,1004.2431726028308,0,0
5.52,8.420636,-5.10421,-0.53481853,1004.2373699999999,5.691399197804245,1004.2432722246148,0,0
5.539999999999999,8.3632765,-5.10421,-0.41645859999999996,1004.2348599999999,5.691305648536959,1004.2433299664148,0,0
5.56,8.329815,-5.2138405,-0.45433417,1004.2524,5.69118114404804,1004.2434136391901,0,0
5.579999999999999,8.258115,-5.1709414,-0.41645908,1004.2320599999999,5.690852780542215,1004.2434466993532,0,0
5.6,8.152956,-5.271039,-0.20341116,1004.2471,5.690258689541937,1004.2434890631956,0,0
5.619999999999999,8.129055000000001,-5.2424397,-0.22708334,1004.2247,5.6893590733664015,1004.2434588552593,0,0
5.64,8.363264,-5.185241,-0.42119417,1004.2493,5.688553823583673,1004.2434531916476,0,0
5.6599999999999975,8.645269,-5.3234706,-0.2128806,1004.24445,5.688470416155139,1004.2434517757904,0,0
5.68,8.865136999999997,-5.2615056,-0.378585,1004.2320599999999,5.689359381989256,1004.2434095143464,0,0
5.6999999999999975,8.654824000000001,-5.0088778,-0.9514482,1004.2674,5.6905411185611285,1004.2434585378827,0,0
5.72,8.090805,-5.018411,-0.91357315,1004.2598,5.690978850512805,1004.2435606843429,0,0
5.7399999999999975,7.708417,-5.552265,-0.5537585999999999,1004.2546,5.690656711902344,1004.2436906824918,0,0
5.76,7.6749563,-5.638063400000001,-0.2554914,1004.2497599999999,5.689686577567545,1004.2438273983987,0,0
5.779999999999999,8.411043,-5.1900067000000005,-0.08031863,1004.2294300000001,5.68888945760296,1004.2438963699403,0,0
5.8,8.66915,-5.0088778,-0.27442944,1004.2243699999999,5.688522785589947,1004.2438870182623,0,0
5.819999999999999,8.573552000000001,-4.8897133,-0.38805544,1004.2368,5.688250180972139,1004.2438532418539,0,0
5.84,8.516192,-4.975511599999999,-0.37858683,1004.2368,5.68804682420198,1004.2437980053493,0,0
5.859999999999999,8.540089,-5.099442,-0.17500764,1004.2622,5.688067258462733,1004.243815445554,0,0
5.88,8.616563000000001,-5.1709404,-0.12292944,1004.2289,5.688496431919657,1004.2437771601151,0,0
5.9,8.482727,-5.333003,-0.11346085,1004.26184,5.689224283835643,1004.2438083573247,0,0
5.92,8.148137,-5.442634,-0.35018130000000003,1004.2417,5.689765410535888,1004.2438283330928,0,0
5.94,7.8852449999999985,-5.5236654000000005,-0.31230628,1004.2368,5.689781218134175,1004.2438206816823,0,0
5.96,8.243727999999999,-5.232906,-0.35491616,1004.2467,5.689620177378086,1004.243824286442,0,0
5.98,8.506583000000001,-5.15664,-0.20815276,1004.26685,5.689675279633878,1004.2439103641764,0,0
6.0,8.554378,-5.0660753,-0.27916908,1004.2538,5.6899132507833485,1004.2440220251517,0,0
6.02,8.506575999999999,-5.1518726,-0.19868465,1004.2417,5.690314316271932,1004.2441123294986,0,0
6.039999999999999,8.186326,-5.4521656,-0.05191839,1004.2468,5.690627080350749,1004.2442017980336,0,0
6.06,8.019029,-5.5570297,-0.07085635,1004.25684,5.690695806389327,1004.244326349958,0,0
6.079999999999999,8.344052,-5.290103,-0.26970172,1004.2368,5.6908122402704,1004.2444093091783,0,0
6.1,8.329709,-5.2519703,-0.26970202,1004.23914,5.6909028822250365,1004.2444636424327,0,0
6.119999999999999,8.277127,-5.2758026,-0.17027986,1004.2393,5.690900020005381,1004.2444930621837,0,0
6.14,8.425297,-5.228137,-0.24603067,1004.2439,5.6910257735024,1004.2445169224517,0,0
6.1599999999999975,8.425293,-5.2138376,-0.27917182,1004.2563,5.6912508866990885,1004.2445804244632,0,0
6.18,8.391831,-5.2662697,-0.14187446,1004.22644,5.691555533173054,1004.2445712293128,0,0
6.1999999999999975,8.344028,-5.2948685,-0.21289094,1004.2513,5.691879710274245,1004.2445873280524,0,0
6.22,8.353585,-5.2281365,-0.13714074,1004.24646,5.692160050642731,1004.2446082945178,0,0
6.2399999999999975,8.229307,-5.3806667,-0.051921804,1004.24603,5.692352208380754,1004.2446319386264,0,0
6.26,8.344017,-5.2996354000000006,-0.17028233,1004.2386,5.692577696009422,1004.2446311155817,0,0
6.279999999999999,8.439608999999999,-5.180471400000001,-0.302846,1004.2538,5.692875741056796,1004.244663396323,0,0
6.3,8.210175,-5.3282347,-0.23183028,1004.2666,5.692993585494087,1004.2447708913593,0,0
6.319999999999999,8.181493,-5.428332,-0.17028336,1004.24896,5.693013445128927,1004.2448809547644,0,0
6.34,8.224507000000001,-5.3806663,-0.21762772,1004.2688,5.692968742460593,1004.2450643153524,0,0
6.359999999999999,8.3296585,-5.304401,-0.26497218,1004.2289,5.692967192971457,1004.2451681412323,0,0
6.38,8.257959,-5.3759,-0.19869077,1004.2488,5.692955707741165,1004.2452729564716,0,0
6.4,8.4156885,-5.2948675000000005,-0.42594259999999995,1004.2389,5.693135611814188,1004.2453426285733,0,0
6.42,8.406125,-5.2090697,-0.39753649999999996,1004.24603,5.693370316024428,1004.2454066653801,0,0
6.44,8.353544,-5.2090697,-0.49695927,1004.26355,5.69356923394909,1004.2455285643068,0,0
6.46,8.281842,-5.2805676,-0.20816106,1004.2789,5.693667547468275,1004.245756411367,0,0
6.48,8.363158,-5.2233706,-0.27917162,1004.24603,5.693759727614454,1004.2459587219483,0,0
6.5,8.305799,-5.285336,-0.12293641,1004.25085,5.6938073749860845,1004.2461550921793,0,0
6.52,8.262780000000001,-5.442632,-0.18448377,1004.2409,5.693920113829299,1004.2463096865832,0,0
6.539999999999999,8.24366,-5.3187017,-0.31704724,1004.26636,5.693923068377949,1004.2465184673273,0,0
6.56,8.19586,-5.4092665,-0.4496107,1004.24115,5.693859412449357,1004.24668361951,0,0
6.579999999999999,8.267555999999999,-5.366367299999999,-0.43540758,1004.2409,5.69381157919341,1004.2468087269484,0,0
6.6,8.262774,-5.428333,-0.5016894000000001,1004.27356,5.693846458228593,1004.2470155764639,0,0
6.619999999999999,8.253214,-5.3901997,-0.51115835,1004.24084,5.693895332526862,1004.2471761166208,0,0
6.64,8.128938,-5.309168,-0.65792495,1004.2686,5.6936667888480175,1004.2473950958832,0,0
6.6599999999999975,8.243652,-5.4473980000000015,-0.4164704000000001,1004.2534,5.693522921196678,1004.2476102036146,0,0
6.68,8.229312,-5.242437000000002,-0.35965768,1004.24335,5.693193037630134,1004.2477849360727,0,0
6.6999999999999975,8.090695,-5.4426317000000015,-0.3785954,1004.2529,5.6926883566039574,1004.2479577439032,0,0
6.72,7.9138417,-5.6809597,-0.27443856,1004.23334,5.692004675905633,1004.2480578130243,0,0
6.7399999999999975,7.8851619999999985,-5.5856285,-0.47328377,1004.2409,5.691017759527017,1004.2481204659724,0,0
6.76,8.047673,-5.4807644,-0.41173658,1004.2409,5.689913545790857,1004.24814983244,0,0
6.779999999999999,8.238864999999999,-5.4902973,-0.41647106,1004.2354,5.689050422534027,1004.2481298812538,0,0
6.8,8.372698,-5.5379629999999995,-0.5727066,1004.24036,5.6887057045564875,1004.2480842808135,0,0
6.819999999999999,8.54477,-5.22337,-0.79995805,1004.2379,5.688803490598636,1004.2480073248532,0,0
6.84,8.535209,-5.4426317000000015,-0.5916444000000001,1004.2425,5.689486049723254,1004.2479195001973,0,0
6.859999999999999,8.482631,-5.266269,-0.52062845,1004.2504,5.690387427430202,1004.2478508281306,0,0
6.88,8.143262,-5.418799,-0.33125243,1004.24255,5.691040436146453,1004.2477710665112,0,0
6.9,8.1576,-5.633294,-0.15134512,1004.23755,5.691737222840924,1004.2476637933047,0,0
6.92,8.195838,-5.4473980000000015,-0.50169116,1004.24005,5.692343411996339,1004.2475415970441,0,0
6.94,8.114578999999999,-5.49983,-0.40700316,1004.2475599999999,5.692778856691794,1004.2474336906783,0,0
6.96,7.904267,-5.633293599999999,-0.26023677,1004.25006,5.692850938684981,1004.2473477993274,0,0
6.98,7.8667482999999985,-5.6666775000000005,-0.41640615,1004.2601,5.692590045715772,1004.247317813652,0,0
7.0,8.00539,-5.647611599999999,-0.709937,1004.2449,5.692282333287539,1004.2472826141801,0,0
7.02,8.101014,-5.418818,-0.5631678000000001,1004.2373,5.69180927915825,1004.2472155745157,0,0
7.039999999999999,8.220536,-5.4855504,-0.43533632,1004.25745,5.691461575933182,1004.2471931821996,0,0
7.06,8.282701,-5.3711534000000025,-0.39745864,1004.23224,5.6911998571165165,1004.2471195648936,0,0
7.079999999999999,8.206251,-5.466485,-0.34537765,1004.24194,5.690987046979048,1004.2470358702083,0,0
7.1,8.2397375,-5.5236845,-0.32643753,1004.2373,5.690940734740633,1004.2469268684514,0,0
7.119999999999999,8.435738,-5.442654,-0.43532625,1004.2294300000001,5.691297977634058,1004.2467675657728,0,0
7.14,8.488342999999999,-5.6094837,-0.5584182,1004.2548,5.692303870614829,1004.2466557226892,0,0
7.1599999999999975,8.526608999999999,-5.452188,-0.5726189,1004.2394400000001,5.693769592723543,1004.2465309215387,0,0
7.18,8.555311,-5.3187256,-0.45425674,1004.2269,5.695526487336228,1004.2463499759247,0,0
7.1999999999999975,8.431066,-5.2567606,-0.46845716,1004.2445,5.697248709091568,1004.2461834324666,0,0
7.22,8.211225,-5.3616257,-0.30275032,1004.2468,5.698652910284644,1004.2460384943103,0,0
7.2399999999999975,8.096538,-5.471257,-0.32641983,1004.2239,5.699700199028225,1004.2458307283757,0,0
7.26,8.239958,-5.5141573,-0.22699489,1004.232,5.700719543518546,1004.245597355774,0,0
7.2799999999999985,8.330799,-5.5618234000000015,-0.33114943,1004.2595,5.701928527986957,1004.2454411972624,0,0
7.3,8.354727,-5.3377957,-0.31220922,1004.2242,5.703086563472506,1004.2452267472912,0,0
7.3199999999999985,8.22092,-5.175733599999999,-0.43056682,1004.23425,5.703789748603731,1004.2449977430065,0,0
7.34,7.981957,-5.423595,-0.52051795,1004.26666,5.70396423116726,1004.2448733789456,0,0
7.3599999999999985,8.020224,-5.3806970000000005,-0.34534237,1004.2317,5.7036706224099625,1004.2447160666973,0,0
7.38,8.091946,-5.366398,-0.37848103,1004.23425,5.7030744851388535,1004.2445393877543,0,0
7.399999999999999,8.178011,-5.1948023,-0.24591501,1004.2389,5.702160196480841,1004.2443629724447,0,0
7.42,8.268856,-5.151904,-0.33586606,1004.2186,5.701085967140157,1004.2441143451763,0,0
7.439999999999999,8.135047,-5.1948037000000005,-0.32166052,1004.2511599999999,5.69968572749431,1004.2439200224793,0,0
7.46,8.221112,-5.2329373,-0.21750103,1004.23364,5.6981898175634775,1004.2437113108631,0,0
7.479999999999999,8.364033000000001,-5.2138586,-0.051840197000000005,1004.2567,5.696840209677376,1004.2435736525599,0,0
7.5,8.278004,-5.213858999999999,-0.14179319,1004.2189,5.6954750654641035,1004.243363192534,0,0
7.52,8.158516,-5.3759227,-0.103917256,1004.2588,5.694073786348487,1004.2432328025619,0,0
7.539999999999999,8.282799,-5.3902225,-0.042369317000000004,1004.2263,5.692877051491369,1004.2430566318936,0,0
7.56,8.263687,-5.1900268,-0.15125994,1004.2339,5.691609992660978,1004.2428680036162,0,0
7.579999999999999,8.2732525,-5.2329264,-0.4211204000000001,1004.22614,5.690366101497791,1004.2426411108572,0,0
7.6,8.33062,-5.123296,-0.4874013,1004.2182,5.689134150206022,1004.2423526404162,0,0
7.619999999999999,8.560058,-5.07563,-0.2980244,1004.2413,5.688258237367184,1004.2420939584292,0,0
7.64,8.66522,-5.1042295,-0.084975526,1004.2434,5.68790996048265,1004.2418700887747,0,0
7.6599999999999975,8.61743,-5.1614285,-0.08024044,1004.2334,5.688004390142233,1004.2416417852287,0,0
7.68,8.612658,-5.1900277,-0.22227187,1004.2283,5.688516204443054,1004.2413920257887,0,0
7.6999999999999975,8.450151,-5.237694,-0.18913035,1004.2534,5.689157073531287,1004.2412145670547,0,0
7.72,8.383242,-5.3234916,0.07126255,1004.2436,5.689883432156488,1004.2410663520759,0,0
7.7399999999999975,8.244635,-5.4283566,0.00024719536,1004.24316,5.690558615921201,1004.2409429264533,0,0
7.76,8.273321000000001,-5.375925,-0.18439391,1004.22784,5.691179975320753,1004.2407866970376,0,0
7.7799999999999985,8.416722,-5.185262000000002,-0.08970517,1004.2257699999999,5.691788762337897,1004.2405945926166,0,0
7.8,8.488427,-5.137597,-0.40217513,1004.2554,5.692475902421457,1004.2404781486168,0,0
7.8199999999999985,8.459756,-5.3187265,-0.58208185,1004.24536,5.693395025754813,1004.2403928333637,0,0
7.84,8.110839,-5.4140573,-0.10390630000000001,1004.2382,5.693980840302235,1004.2403095546057,0,0
7.8599999999999985,8.144304,-5.333026,-0.35009465,1004.2382,5.694247099607755,1004.2402283750987,0,0
7.88,8.082174,-5.4331245,-0.20806187,1004.23785,5.694229000963002,1004.240148082736,0,0
7.899999999999999,8.182557000000001,-5.3091935999999995,-0.12284185,1004.2782599999999,5.693988834794701,1004.2402143393064,0,0
7.92,8.230363,-5.3759265,-0.17965406,1004.2303,5.693714063666994,1004.2402371919903,0,0
7.939999999999999,8.2303705,-5.4092917,-0.042355622999999995,1004.25037,5.693444501509101,1004.2402938627307,0,0
7.96,8.297295,-5.342561,-0.23173113,1004.23535,5.693226943510092,1004.2403261390914,0,0
7.979999999999999,8.3209505,-5.242456400000001,-0.4021919000000001,1004.26025,5.692997243758378,1004.2404263843828,0,0
8.0,8.349628,-5.304422,-0.38798892,1004.2453,5.692875594903579,1004.2405325061383,0,0
8.02,8.163213,-5.4283529999999995,-0.25069135,1004.2253,5.692656230782737,1004.2405714382995,0,0
8.04,8.258806,-5.309188400000001,-0.44480222,1004.2348599999999,5.69239633572075,1004.2405852775792,0,0
8.059999999999999,8.11063,-5.318722,-0.35484879999999996,1004.2299,5.691846601778518,1004.2405590389676,0,0
8.08,8.120188,-5.3711534000000025,-0.18914485,1004.2299,5.691109608222077,1004.24049748199,0,0
8.1,8.273138000000001,-5.352087,-0.094457015,1004.2172,5.690451270886104,1004.2403592193094,0,0
8.12,8.416530999999999,-5.1852574,-0.17020765,1004.2372,5.689933797614968,1004.2402256772152,0,0
8.139999999999999,8.469106,-5.204324,-0.2459584,1004.24,5.689659769197964,1004.2401068669832,0,0
8.16,8.631616000000001,-5.013662,-0.45900685,1004.225,5.689704115930033,1004.2399475015407,0,0
8.18,8.306586,-5.1232924,-0.16073959999999998,1004.2274,5.689547820123378,1004.2397615152304,0,0
8.2,8.416521000000001,-5.0231943,-0.46374166,1004.2322,5.689322265156831,1004.2395699562717,0,0
8.219999999999999,8.387839,-5.1995569999999995,-0.15127120000000002,1004.2449,5.689155521586508,1004.239419882933,0,0
8.24,8.258780999999999,-5.352087,0.03337033,1004.24963,5.688982220166148,1004.2393240345523,0,0
8.26,8.449971000000001,-5.1185255,0.01916687,1004.2295,5.688882611472126,1004.2392039763989,0,0
8.28,8.239656,-5.213856,-0.06131823700000001,1004.24963,5.688581477911709,1004.2391354266997,0,0
8.299999999999999,8.239655,-5.2472224,-0.051849622000000005,1004.2295,5.688140412106551,1004.239040168649,0,0
8.32,8.120157,-5.290121599999999,-0.12760039,1004.2269,5.687418227122216,1004.2389122940283,0,0
8.34,8.144053,-5.333019999999999,-0.19388226,1004.232,5.6865428527704776,1004.2387744197553,0,0
8.36,8.206188000000001,-5.452184,0.07597859,1004.2164300000001,5.685776049382893,1004.2385721541362,0,0
8.379999999999999,8.153608,-5.552281400000001,-0.24122678,1004.21155,5.6851388992347225,1004.2382961524803,0,0
8.4,8.397375,-5.5951805,-0.19388297,1004.2446,5.685086382193406,1004.2380749712684,0,0
8.42,8.421272,-5.2138557,-0.5821043,1004.2394400000001,5.685195620071825,1004.2378844496527,0,0
8.44,8.234858000000001,-5.1566577,-0.30750906,1004.2544,5.685030235094691,1004.2377755607347,0,0
8.459999999999999,8.101021000000001,-5.3759193,-0.29330608,1004.24945,5.684635026905753,1004.2377213744679,0,0
8.48,8.044101,-5.6619230000000025,-0.009201743,1004.20636,5.684266791510588,1004.2375605945343,0,0
8.5,8.130152,-5.471261,-0.028137963,1004.20886,5.68384643071305,1004.2373152072447,0,0
8.52,8.469533,-5.323498000000002,-0.25538808,1004.2513,5.683812082611822,1004.23714872829,0,0
8.54,8.483887,-5.256767,0.052349522999999995,1004.2291,5.684064328129443,1004.2369726520633,0,0
8.559999999999999,8.091958,-5.385464,0.20858626,1004.2513,5.684032364949722,1004.2368686495621,0,0
8.58,7.9103410000000025,-5.73819,-0.19383667,1004.2441,5.68385720797318,1004.2368027858136,0,0
8.6,8.187586,-5.4092975,0.038150597,1004.2565,5.683636866807736,1004.2368154985763,0,0
8.62,8.321433,-5.2996674000000015,0.09023033,1004.2394400000001,5.683487482784525,1004.2368361797787,0,0
8.639999999999999,8.27843,-5.2520022000000015,0.18018532,1004.23865,5.68327534123559,1004.2368609834419,0,0
8.66,8.488757000000001,-5.4045324,-0.118080676,1004.2265,5.683545507082857,1004.2368456004184,0,0
8.68,8.3310375,-5.442665,0.07129672,1004.2663,5.6840074247722185,1004.2369380438173,0,0
8.7,8.1781,-5.6142616,0.21333033,1004.2236300000001,5.684575709341072,1004.2369718178467,0,0
8.719999999999999,8.149436,-5.5189304,-0.051794905,1004.2384599999999,5.685070601505326,1004.237007018035,0,0
8.74,8.14945,-5.5189304,-0.089668855,1004.2688,5.685499452322262,1004.2371525756564,0,0
8.76,8.106447,-5.523698,-0.33585647,1004.2412,5.685811136270082,1004.2372957610982,0,0
8.78,8.092122999999999,-5.4712663,0.033428467999999996,1004.2441,5.685920505940032,1004.2374467750146,0,0
8.799999999999997,7.939184700000001,-5.5427647,-0.05178943,1004.2412,5.6856730414659475,1004.2375937225212,0,0
8.82,8.020456,-5.7048287,0.038165557999999995,1004.2412,5.685443151371483,1004.2377365479367,0,0
8.84,8.206883,-5.5570655,-0.14647485,1004.221,5.685374928798868,1004.2378024969015,0,0
8.86,8.168660000000001,-5.4903336,0.13759084,1004.2460000000001,5.685306122239758,1004.2378902804179,0,0
8.879999999999997,8.159113,-5.6047316,0.094982415,1004.2256,5.685353218806405,1004.2379236009236,0,0
8.9,8.053974,-5.623799,0.14232793,1004.2485,5.685346668404659,1004.2379911179587,0,0
8.92,8.101787,-5.5475335,0.099719614,1004.2434,5.685283232801562,1004.2380702479866,0,0
8.94,8.264315,-5.471269,0.08551778,1004.2506,5.685361159517559,1004.2381852743864,0,0
8.959999999999997,8.135276,-5.6094995,0.24648893,1004.2155,5.685507958497543,1004.2382052447257,0,0
8.98,8.144536,-5.6285586,0.18964872,1004.2509,5.685750814543805,1004.238268591636,0,0
9.0,8.177997999999999,-5.647625,0.21805538,1004.24286,5.686158615580378,1004.2383410940364,0,0
9.02,8.154100999999999,-5.647625,0.40743179999999996,1004.2556,5.686682256615847,1004.2384672892188,0,0
9.04,8.0967455,-5.6762247000000015,0.1565086,1004.24054,5.68722773480762,1004.2385862570408,0,0
9.06,8.077629,-5.6952906,0.21805605,1004.22784,5.687783257169203,1004.2386526904828,0,0
9.08,8.130208999999999,-5.6762247000000015,0.23225947,1004.2509,5.688413011143571,1004.2387554813864,0,0
9.1,8.048955,-5.7191234,0.1896501,1004.2431,5.689017491439536,1004.238861947696,0,0
9.12,8.077637,-5.7143564000000024,0.09496221,1004.2481,5.689637527097127,1004.2389892783154,0,0
9.14,8.048960000000001,-5.633325599999999,0.052352794,1004.2606,5.6901227526690565,1004.2391795862487,0,0
9.16,8.1827965,-5.652392400000001,0.19438517,1004.2555,5.690741786807577,1004.2394064958279,0,0
9.18,8.211478,-5.642859,0.19911982,1004.24036,5.6915148608129575,1004.2396104257476,0,0
9.2,8.063307,-5.6142597,0.36008979999999996,1004.225,5.692143741149211,1004.2397380206917,0,0
9.22,8.106328,-5.590427,0.2322611,1004.268,5.6926802129628005,1004.2399525067098,0,0
9.24,8.072871000000001,-5.609493,0.17071404,1004.24036,5.693095868548072,1004.2401434935311,0,0
9.26,7.881680999999999,-5.695291,0.2890744,1004.23773,5.6931879930254965,1004.24030356091,0,0
9.28,8.072875999999999,-5.6094933,0.113901645,1004.2378,5.693207494984177,1004.2404359836264,0,0
9.3,8.130237,-5.5189285,0.3032781,1004.2424,5.693162819580902,1004.2405600627977,0,0
9.32,8.115899,-5.666692299999999,0.24173105,1004.2528,5.693207624351159,1004.2407137629274,0,0
9.34,8.168479,-5.504629,0.12337114,1004.2627,5.6932263753675985,1004.2409287228154,0,0
9.36,8.029867999999999,-5.557061,0.1517778,1004.2299,5.693046428601358,1004.2410789579703,0,0
9.38,8.173264999999999,-5.4855633,0.11863720400000001,1004.2649,5.692853189660253,1004.2412974615044,0,0
9.4,8.192387,-5.5236955000000005,0.2512008,1004.2574,5.692731266471997,1004.2415485003658,0,0
9.42,8.092013,-5.6094933,0.14230971,1004.227,5.692596722772214,1004.2417179437024,0,0
9.44,8.111135,-5.5379953,0.08549704400000001,1004.22473,5.6923986622952,1004.2418065072372,0,0
9.46,8.125477,-5.6666927000000005,0.08076288599999999,1004.2221,5.6923215633334925,1004.2418138185506,0,0
9.48,8.201986999999999,-5.499864,0.20386049,1004.2499,5.6922908317847805,1004.2418493890802,0,0
9.5,8.245008,-5.5332303,0.033422254,1004.2474,5.692409816420105,1004.2419008013997,0,0
9.52,8.259352,-5.4903307,0.07603225,1004.2196,5.692636418638626,1004.2418659464399,0,0
9.54,8.130301,-5.5093974999999995,0.057094976,1004.2322,5.692756403478062,1004.2418003511904,0,0
9.56,8.125525,-5.5332303,0.052360892,1004.27216,5.692801317592047,1004.2418516859636,0,0
9.58,8.09685,-5.619028,0.17072137,1004.2449,5.69283443022727,1004.2419080192997,0,0
9.6,8.158992,-5.5713625,0.09970565,1004.2343,5.69290518089222,1004.241930406566,0,0
9.62,8.245030999999999,-5.4188333,0.042893134000000006,1004.232,5.692980194472258,1004.2419144384908,0,0
9.64,8.202017,-5.504631,0.109175146,1004.2496,5.693083950935205,1004.241927997121,0,0
9.66,8.106424,-5.5665964999999975,0.16125394,1004.2496,5.69312217934838,1004.241967596737,0,0
9.68,8.154226,-5.490330999999999,0.13758224,1004.2445,5.693094649734948,1004.2420117036096,0,0
9.7,8.182909,-5.509398,0.090238556,1004.2263,5.693079557776843,1004.2419941143089,0,0
9.72,8.149453999999999,-5.499865,0.15178613,1004.2493,5.693008353822488,1004.2420048735917,0,0
9.74,8.178137,-5.5332313,0.04762957599999999,1004.2395,5.692973854202781,1004.2420053629488,0,0
9.76,8.111224,-5.5808964,0.12338042,1004.25684,5.692914232494344,1004.2420592000379,0,0
9.78,8.130346000000001,-5.480799,0.07130228,1004.2693,5.692747295941809,1004.24220483737,0,0
9.8,8.230725,-5.514165,0.15178749,1004.24176,5.692699860841964,1004.2423319211019,0,0
9.82,8.173373,-5.4664993,0.094975024,1004.24176,5.692602555793832,1004.2424421533716,0,0
9.84,8.0586605,-5.495099,-0.013915978,1004.2513,5.692296281717727,1004.242571442853,0,0
9.86,8.087342999999999,-5.580897,0.061834864,1004.2492699999999,5.691956885625304,1004.2427097978444,0,0
9.88,8.23552,-5.504632,0.113913625,1004.2339,5.691756118841035,1004.2428003330426,0,0
9.9,8.139928,-5.4617330000000015,0.16125804,1004.2568,5.691465264214507,1004.2429307287448,0,0
9.92,8.101695,-5.523699,-0.028117705,1004.21625,5.691099516445209,1004.2429498957636,0,0
9.94,8.120818,-5.5284653,0.11391476,1004.2239400000001,5.690708624135926,1004.2428983961167,0,0
9.96,8.202077000000001,-5.4903325999999995,0.13758706,1004.2813,5.690393180279857,1004.2429911368029,0,0
9.98,8.087553999999999,-5.6142683,0.13760471,1004.2364,5.690093961915108,1004.2430493543807,0,0
10.0,8.101906,-5.733433,0.06185536,1004.2511599999999,5.689975146350942,1004.2431299937564,0,0
10.02,8.178394,-5.6381016,0.12813807,1004.24866,5.6900343492320085,1004.2432211547315,0,0
10.04,8.106709,-5.604736,-0.023361884,1004.2214,5.690086963480481,1004.2432231484115,0,0
10.06,8.0971575,-5.552304,0.014514126,1004.2284,5.690055377638178,1004.2431715466936,0,0
10.08,8.068489999999999,-5.59997,0.019249566,1004.2663,5.689956736216621,1004.2432092138472,0,0
10.1,8.106739,-5.690534599999999,0.099735424,1004.24866,5.689973132074388,1004.2432621193744,0,0
10.12,8.164111,-5.604737,0.05712708,1004.2387,5.69008667735199,1004.2432924430684,0,0
10.14,8.101985,-5.623804,0.06186255,1004.2284,5.6902019633803205,1004.2432656242893,0,0
10.16,8.101995,-5.5618386,0.09500436,1004.2259,5.6902457747496875,1004.2431794109688,0,0
10.18,8.068549,-5.6714697,0.12341191,1004.2412,5.690299832376463,1004.2430961069992,0,0
10.2,8.073339,-5.599972,0.09974085,1004.2608,5.690285281307553,1004.2430862336264,0,0
10.22,7.9920936000000005,-5.7572684,0.14235146,1004.24335,5.690262079928318,1004.2430784590732,0,0
10.24,8.025561999999999,-5.6524043,0.20389971,1004.25085,5.690163788023412,1004.2430995670253,0,0
10.26,8.039914,-5.5713725,0.15655677,1004.2658,5.689925700769753,1004.2431999395708,0,0
10.28,8.111624,-5.5475407,0.15182342,1004.2384,5.6896594614192475,1004.2432713489693,0,0
10.3,8.097296,-5.523708,0.16129325,1004.22833,5.6893170956602095,1004.2432806574574,0,0
10.32,8.059067,-5.5666075,0.08554369,1004.2362,5.688891668123829,1004.2432633920707,0,0
10.34,8.2598295,-5.5809073,0.14235762,1004.26324,5.6887570342246905,1004.2433200521637,0,0
10.36,8.274181,-5.5284752999999975,0.13288989999999998,1004.22833,5.6888435430472395,1004.2433161528337,0,0
10.38,8.31243,-5.442678,0.11868769,1004.24835,5.689092698737397,1004.243330829236,0,0
10.4,8.073452,-5.514176,0.014531826999999999,1004.23584,5.68915293918538,1004.2433168303197,0,0
10.42,8.10692,-5.528476,-0.023342445,1004.2558,5.689120283441078,1004.2433494002878,0,0
10.44,8.068694,-5.7382050000000016,0.123425156,1004.2507300000001,5.689191143661418,1004.2434047492708,0,0
10.46,8.197761,-5.6333410000000015,0.052410193,1004.26324,5.689446884244883,1004.2435250625348,0,0
10.48,8.102802,-5.6333566,0.104547024,1004.2454,5.689703587284466,1004.2436381211096,0,0
10.5,7.978563999999999,-5.6905565000000005,0.07140957,1004.2504,5.689816926593924,1004.2437623624304,0,0
10.52,8.021616999999999,-5.6381254,0.028803084,1004.24084,5.6898127879021105,1004.2438616215567,0,0
10.54,8.12203,-5.557094599999999,0.009868834,1004.2429,5.6897803076626206,1004.2439458650833,0,0
10.56,8.193767,-5.590461299999999,0.27499908,1004.24036,5.689893047925539,1004.2440073935487,0,0
10.58,8.174684,-5.4855975999999975,0.11876708,1004.2477,5.689972271184465,1004.2440750534842,0,0
10.6,8.103022,-5.5856967000000015,0.14717665,1004.2705,5.690016240100713,1004.2442299676103,0,0
10.62,8.088716499999999,-5.6381296999999995,0.09983575,1004.2504,5.690065312062647,1004.2443890618492,0,0
10.64,8.083973,-5.6285973,0.12351115,1004.26044,5.690099860299872,1004.244587420896,0,0
10.66,8.117466,-5.5618663,0.009888625,1004.2579300000001,5.690098306274583,1004.2448107242343,0,0
10.68,8.060148,-5.633365599999999,0.057236224,1004.2604,5.690051795984481,1004.2450641564568,0,0
10.7,7.9884850000000025,-5.595234,0.00989534,1004.2454,5.689797916012085,1004.2452892982054,0,0
10.72,8.122356,-5.6000013,0.038305152,1004.2755,5.689596010061985,1004.2455969919811,0,0
10.74,8.122392999999999,-5.5952353,0.09038696,1004.263,5.689435903587421,1004.2459315210298,0,0
10.76,8.065069,-5.609536,0.06671809,1004.2651400000001,5.689231868562884,1004.2462962614217,0,0
10.78,8.175042,-5.5332723,0.061987035,1004.2705,5.689088480660232,1004.2467056794908,0,0
10.8,8.165519999999999,-5.5761724,0.20402256,1004.2551,5.689036932253944,1004.2470976608504,0,0
10.82,8.089077,-5.623839,0.2040257,1004.2501,5.688992115438549,1004.2474548240007,0,0
10.84,8.160810000000001,-5.490376,-0.037425573999999996,1004.2778300000001,5.688915627251362,1004.247879763994,0,0
10.86,8.165627,-5.585708,0.0667347,1004.2553,5.688931274148785,1004.2482819538217,0,0
10.88,8.103525999999999,-5.6667404,0.22770783,1004.2348,5.689022904816705,1004.2485887937196,0,0
10.9,8.170478999999998,-5.538044,0.04306922,1004.2727,5.689139019741497,1004.248946717796,0,0
10.92,8.0557995,-5.666742299999999,-0.070553154,1004.23224,5.689232540980363,1004.249202835326,0,0
10.94,8.027158,-5.604778,0.0998888,1004.2526,5.689183630316491,1004.2494413705682,0,0
10.96,8.055873,-5.6286115999999975,0.114095375,1004.2448,5.689086655686897,1004.249635431374,0,0
10.98,8.11764,-5.633369,-0.046908382,1004.2651400000001,5.689057420908054,1004.2498627199492,0,0
11.0,8.203694,-5.5571046,0.014640616,1004.2622,5.689145816531278,1004.2501079663423,0,0
11.02,8.05076,-5.61907,0.11879924,1004.27,5.689150351668644,1004.2503962773767,0,0
11.04,8.0938,-5.5428057,0.11880122,1004.2471300000001,5.689064211629031,1004.250639270408,0,0
11.06,8.093819,-5.5237403,0.07619331,1004.2695,5.688875050371469,1004.2509218776767,0,0
11.08,8.189436,-5.590472,0.15194575,1004.23456,5.688839681425612,1004.2511126867,0,0
11.1,8.194234,-5.5761733,0.104603335,1004.2647,5.6889305609535965,1004.2513301998807,0,0
11.12,8.112999,-5.576174,0.11407411,1004.23724,5.688993525257012,1004.2514716698076,0,0
11.14,8.065218,-5.5094423,0.06673169,1004.2497599999999,5.68887037399679,1004.2515905106238,0,0
11.16,8.156056,-5.5904739999999995,0.09514009,1004.2647,5.688834618792213,1004.2517427125308,0,0
11.18,8.160855,-5.609541,0.17562672,1004.23474,5.688909151716841,1004.2518159883707,0,0
11.2,7.9935813,-5.733472,0.11408132,1004.2266,5.688942498493611,1004.2517899573444,0,0
11.22,7.9410243000000005,-5.790671,0.07147354,1004.2618,5.688919653000912,1004.2518029924837,0,0
11.24,7.8836856,-5.7668386,0.024131227,1004.2643400000001,5.688721303570544,1004.2518596435592,0,0
11.26,8.00798,-5.704874,0.04780498,1004.257,5.688502854916786,1004.2519282057331,0,0
11.28,8.103597,-5.719174400000001,0.15196376,1004.2294,5.6884489206410125,1004.2519076857292,0,0
11.3,8.132296,-5.6858087,0.09041835,1004.2417,5.6885479301180695,1004.2518528065849,0,0
11.32,8.003259,-5.7430080000000014,0.043075934,1004.26666,5.688630923100545,1004.2518576212697,0,0
11.34,8.04152,-5.628611,-0.0658133,1004.2492,5.688627122329492,1004.2518523080882,0,0
11.36,8.0511,-5.68581,0.05254867,1004.2741,5.6886311428713405,1004.251927705052,0,0
11.38,8.003323,-5.752542,0.09989457,1004.2342,5.6886424277656324,1004.2519305060713,0,0
11.4,8.05114,-5.709644,0.19458440000000002,1004.2392,5.6886921024288615,1004.25188715123,0,0
11.42,8.012921,-5.666746,0.062022965,1004.2845,5.68865558383548,1004.2519662491478,0,0
11.44,8.122877,-5.5809484000000005,0.005211968,1004.2392,5.688628139345522,1004.2519901815707,0,0
11.46,8.108556,-5.585715,0.12830824,1004.26666,5.688591638680282,1004.2520641396063,0,0
11.48,8.2127,-5.59999,0.09507477,1004.2563,5.688741798277468,1004.252144738024,0,0
11.5,8.117083000000001,-5.604756,0.14241685,1004.2388,5.688899277404918,1004.2521679137288,0,0
11.52,8.021466,-5.7334523,0.14714938,1004.2587,5.6890539577045285,1004.252211907292,0,0
11.54,8.126602,-5.609521400000001,0.1850228,1004.2562,5.6892376821608135,1004.2522651371384,0,0
11.56,8.107460000000001,-5.5856886,0.19448948,1004.2562,5.6893859238129725,1004.2523263365371,0,0
11.58,7.9831634000000005,-5.6667194000000025,0.12347145400000001,1004.2741,5.689384713433625,1004.252458797514,0,0
11.6,7.9735827000000015,-5.6905518,0.024047118,1004.2687400000001,5.689262395062907,1004.252634452362,0,0
11.62,8.011801,-5.71915,0.06192039,1004.2688,5.689133036732747,1004.2528478569576,0,0
11.64,8.050017,-5.681017,0.09979364,1004.2538,5.68901746825629,1004.2530398489728,0,0
11.66,8.121694999999999,-5.638118,0.090322986,1004.2566,5.68898523110538,1004.2532223096614,0,0
11.68,8.073874,-5.623817400000001,0.14713387,1004.2761,5.688929597305538,1004.253465891611,0,0
11.7,8.030835,-5.6953154,0.047709387,1004.2434,5.688863709926969,1004.253644883412,0,0
11.72,8.0738325,-5.642883,-0.046980534000000004,1004.2637300000001,5.6887993310916505,1004.2538393469866,0,0
11.74,8.126389999999999,-5.6238160000000015,-0.018575966,1004.2610000000001,5.688803375476737,1004.2540369533524,0,0
11.76,8.09769,-5.604749,0.16132929999999998,1004.2733,5.688798970851291,1004.2542809053052,0,0
11.78,8.04987,-5.7000800000000025,0.080842465,1004.2837,5.688817274045191,1004.2546023699913,0,0
11.8,7.997269,-5.685779,0.057168458,1004.2638,5.688748868255127,1004.2549195276563,0,0
11.82,8.08806,-5.747744,0.085572556,1004.24335,5.688832938882217,1004.2551581178693,0,0
11.84,8.073699000000001,-5.6810117,0.14238346,1004.2459,5.688948349564128,1004.2553356069573,0,0
11.86,8.116703999999999,-5.619046,0.14711660000000001,1004.2661,5.689090765538862,1004.25553118813,0,0
11.88,8.131017,-5.633344999999999,-0.04699644,1004.2683,5.689295861951552,1004.2557499713772,0,0
11.9,8.030619,-5.6571774,-0.018592103999999998,1004.2860000000001,5.689412713934883,1004.2560521883577,0,0
11.92,8.02582,-5.719142400000001,0.15184474,1004.2509,5.6895198851712205,1004.2563006794032,0,0
11.94,8.073601,-5.623811,0.07135824,1004.2858,5.68958328613331,1004.2566264436454,0,0
11.96,8.040116000000001,-5.5523120000000015,0.033480685,1004.2532,5.689465482897034,1004.2569019537323,0,0
11.98,8.068897999999999,-5.6238127,0.14711587,1004.2533599999999,5.689324023062824,1004.257132643412,0,0
12.0,8.025867,-5.700076999999999,0.15658355,1004.2634,5.689180535000807,1004.2573590432968,0,0
12.02,8.073647,-5.628578,0.10450329,1004.2731,5.689030033560232,1004.2576157576786,0,0
12.04,7.9780364000000015,-5.661944,0.16604942,1004.2909,5.688753010775198,1004.2579624137793,0,0
12.06,8.064053,-5.657177,-0.09434484,1004.2860000000001,5.688503568010786,1004.2583696544199,0,0
12.08,8.0066805,-5.595211,0.009810787,1004.2853,5.6881069107728255,1004.2588264414943,0,0
12.1,8.078363000000001,-5.6190440000000015,-0.07067534,1004.2858,5.68773266833484,1004.2593271633637,0,0
12.12,8.073564999999999,-5.6333427,0.00033893436,1004.2679400000001,5.687387856984861,1004.2598006074193,0,0
12.14,8.245623,-5.476046,0.085556805,1004.27295,5.687182692836171,1004.2602662804,0,0
12.16,8.236044999999999,-5.547544,0.11396164,1004.2753,5.687168319764553,1004.2607318704364,0,0
12.18,8.130874,-5.514178,0.028741032000000007,1004.2454,5.687101367614732,1004.2610880710592,0,0
12.2,8.092619000000001,-5.6142755,0.18497477,1004.2781,5.687043835621518,1004.2614640528736,0,0
12.22,8.063924,-5.685773,0.19917656,1004.28076,5.687031699552807,1004.2618657358144,0,0
12.24,8.078247,-5.6047410000000015,0.16129982,1004.2673300000001,5.686986154219937,1004.2622403342117,0,0
12.26,8.059113,-5.6428733,0.057141513,1004.29034,5.686921540466178,1004.2626724881528,0,0
12.28,8.059095,-5.5999737000000005,0.08081192,1004.2604,5.686789615224097,1004.2630461584176,0,0
12.3,8.082979,-5.6095066,-0.013877603999999998,1004.3204,5.686650093523535,1004.2635828072932,0,0
12.32,8.10208,-5.580907,0.0050584413,1004.27765,5.686503193872043,1004.2641076321337,0,0
12.34,8.111625,-5.6095057,0.0050570294,1004.25037,5.686400395742201,1004.2645219118867,0,0
12.36,8.154627,-5.657171,0.05239962,1004.2449,5.686467105227568,1004.264817330594,0,0
12.38,8.068576,-5.5952053,0.17075834,1004.2729,5.686465783938735,1004.2651074601737,0,0
12.4,8.039878999999999,-5.747735,0.09974067,1004.27765,5.686536070211468,1004.2654089718133,0,0
12.42,7.996844,-5.638104,0.19916166,1004.23773,5.686467696189256,1004.2655757431996,0,0
12.44,8.125884,-5.5475388,0.18969145,1004.2898,5.686389696441278,1004.2658103097212,0,0
12.46,8.1115265,-5.585671,0.1754866,1004.2853,5.686323128176223,1004.2660877355844,0,0
12.48,8.088428500000001,-5.561857700000001,0.09507510000000001,1004.30786,5.68619700118003,1004.2664832492293,0,0
12.5,8.069326,-5.604757,0.080873415,1004.2799,5.686036467743738,1004.2668810253887,0,0
12.52,8.059781,-5.7000885000000014,0.12348434,1004.2799,5.685944502486441,1004.2672793687117,0,0
12.54,8.098038,-5.6095242999999995,0.118751556,1004.2752,5.685870541802667,1004.2676598591445,0,0
12.56,8.145852,-5.5713919999999995,0.04773698,1004.2878400000001,5.685848432927838,1004.2680687089979,0,0
12.58,8.007254,-5.623825,0.009863269000000001,1004.2746,5.685697307243237,1004.268453481376,0,0
12.6,8.231921,-5.590459,0.00039597973,1004.2847,5.685777542211188,1004.2688519537164,0,0
12.62,8.107661,-5.557093599999999,-0.04694664,1004.29724,5.685809721688945,1004.2693062408428,0,0
12.64,8.102899,-5.633359,0.066680565,1004.31256,5.685881465543924,1004.2698633624808,0,0
12.66,8.031217,-5.657192,0.06668198,1004.2901,5.685894246444779,1004.2704284870554,0,0
12.68,7.9882149999999985,-5.719158,0.16610597,1004.2798,5.68585903060024,1004.270961568576,0,0
12.7,8.00257,-5.7239246,0.27499878,1004.2671,5.685816628570152,1004.2714186977603,0,0
12.72,8.17944,-5.5427957,0.061951987,1004.2799,5.685847021810828,1004.2718531497962,0,0
12.74,8.088639,-5.609528,0.17084482,1004.2774,5.685867070209677,1004.2722570002755,0,0
12.76,8.136455,-5.5761629999999975,0.22765918,1004.2774,5.685922746032302,1004.2726323573582,0,0
12.78,8.141249,-5.609529,0.07615965,1004.26935,5.6860523400089145,1004.2729522063897,0,0
12.8,8.1508255,-5.6095295,0.15191163,1004.2868699999999,5.686264989552658,1004.2732849290512,0,0
12.82,8.13172,-5.661962,0.11877212,1004.3099,5.6865786949221775,1004.2737107370504,0,0
12.84,8.050481,-5.6142970000000005,0.12824252,1004.2899,5.686785650945432,1004.2741452623449,0,0
12.86,8.069618,-5.619063400000001,0.11877532,1004.3045699999999,5.686935585317098,1004.2746387379506,0,0
12.88,8.040955,-5.719162,0.17085528,1004.2643400000001,5.687107199049557,1004.2750376975392,0,0
12.9,8.03619,-5.7143955,0.23713827,1004.27185,5.687286389748727,1004.2753787425206,0,0
12.92,8.079225,-5.6428980000000015,0.12824847,1004.3048,5.687454947400776,1004.2757860063933,0,0
12.94,7.9979844,-5.5952325,0.175594,1004.2771,5.687419895472555,1004.2761505951277,0,0
12.96,7.9979997,-5.638132,0.12351698,1004.24945,5.687254667332897,1004.2763766235913,0,0
12.98,8.121823,-5.6810199999999975,0.10453792,1004.2721,5.6872363839215385,1004.2765609464967,0,0
13.0,8.074022,-5.580922,0.26077310000000004,1004.302,5.687153714185339,1004.2768153948083,0,0
13.02,8.093139,-5.638121,0.22289763,1004.27435,5.687112908070067,1004.2770313499157,0,0
13.04,8.112256,-5.6571865,0.11400607,1004.2868699999999,5.6871606274661195,1004.2772575869884,0,0
13.06,8.064455,-5.6619534000000025,0.09033383,1004.29175,5.687210167922517,1004.2775096627527,0,0
13.08,8.11225,-5.7000856,0.22289693,1004.2991300000001,5.687392331048063,1004.2778102301123,0,0
13.1,8.093128,-5.676253,0.16608383,1004.2691699999999,5.6876277261477055,1004.2780447066028,0,0
13.12,8.064447,-5.685786,0.08559871,1004.2941,5.687869816152794,1004.278309689086,0,0
13.14,8.074005,-5.609521,0.14714576,1004.2993,5.688043850149679,1004.2786193927274,0,0
13.16,8.11702,-5.738218,0.12820792,1004.26404,5.688383288553778,1004.2788405610512,0,0
13.18,8.035761,-5.714385,0.09033247,1004.3067599999999,5.688700370161767,1004.279136495362,0,0
13.2,8.117014999999999,-5.642887,0.10453541599999999,1004.2739,5.689049521976856,1004.279379131536,0,0
13.22,8.150472,-5.6190534,0.12820725,1004.2939,5.689455308687191,1004.2796457999858,0,0
13.24,8.078772,-5.5761547,0.15187903,1004.2639999999999,5.689737094144499,1004.2798251033479,0,0
13.26,8.021412,-5.7477508,0.13767561,1004.2891,5.690015513734809,1004.2800169254269,0,0
13.28,8.064427,-5.5999875,0.03825285,1004.2686,5.690184136052773,1004.2801453184843,0,0
13.3,8.136123,-5.5952206,0.12820633,1004.2409,5.6903736701202,1004.2801174834433,0,0
13.32,8.059643,-5.609520400000001,0.11873728,1004.2862,5.6904669467102424,1004.2801147854607,0,0
13.34,8.059641000000001,-5.6476526,-0.009091862,1004.2659,5.69051872688177,1004.2800612282955,0,0
13.36,8.030959,-5.6619525,0.13767445,1004.2761,5.690503969200115,1004.2799996447624,0,0
13.38,8.140892,-5.60952,0.20869029,1004.2608,5.69055818194101,1004.2798761108313,0,0
13.4,8.069192,-5.614287,0.12820518,1004.28406,5.690553419748057,1004.2797820182512,0,0
13.42,8.088308999999999,-5.661951999999999,0.13293937,1004.2812,5.6905859684113524,1004.2797039827814,0,0
13.44,8.093086,-5.60952,0.07612628,1004.28864,5.690595977807003,1004.2796672003022,0,0
13.46,8.078745,-5.5856876,0.10453248,1004.2686,5.690533877795991,1004.2795948573827,0,0
13.48,8.050594,-5.6,0.09037761400000001,1004.2837,5.6903768670765755,1004.2795457136923,0,0
13.5,8.088851,-5.6285996,0.08091055,1004.26575,5.690235604170955,1004.2794526257584,0,0
13.52,8.050631,-5.609534,0.05250573,1004.2733,5.690020530581343,1004.2793482238068,0,0
13.54,8.0028515,-5.7572975,0.16139878,1004.29114,5.6898398906275975,1004.279298424637,0,0
13.56,8.074573,-5.5571027000000015,0.15193215,1004.26825,5.689572472239679,1004.2792146477617,0,0
13.58,8.155847999999999,-5.5475699999999994,0.17087154,1004.29083,5.689358197379218,1004.2791824377828,0,0
13.6,8.065046,-5.6238356,0.14246641,1004.26825,5.68912519933598,1004.2791146202693,0,0
13.62,8.065068,-5.690568,0.26082858,1004.27295,5.688961199529756,1004.2790325040816,0,0
13.64,7.9838243,-5.704868,0.23715776,1004.2601300000001,5.6887370750544894,1004.2788918972034,0,0
13.66,8.022089,-5.638137,0.13773757,1004.2629400000001,5.688441380033959,1004.278710230136,0,0
13.68,8.08424,-5.6190705,0.0809259,1004.283,5.6881653679681525,1004.2785651522864,0,0
13.7,8.050804,-5.743002,0.18981938,1004.2908,5.688002321019067,1004.2784810069504,0,0
13.72,8.13208,-5.733469,0.066726595,1004.2881,5.6880626892049655,1004.2784412845067,0,0
13.74,8.127317999999999,-5.623839,-0.03269426,1004.28534,5.688181301359027,1004.2784310211307,0,0
13.76,8.117773,-5.6286059999999996,0.0288543,1004.2828400000001,5.68834025915026,1004.278437824736,0,0
13.78,8.0508795,-5.685805,0.08566933,1004.2855,5.688489228193028,1004.2784692602327,0,0
13.8,8.079577,-5.6953387000000015,-0.01375144,1004.27545,5.688688241352943,1004.2784861673006,0,0
13.82,8.122608999999999,-5.781137,0.0951411,1004.29535,5.689107742365269,1004.2785618161836,0,0
13.84,8.084392999999999,-5.638141,0.20403445,1004.28534,5.689487885527497,1004.2786530609982,0,0
13.86,8.146549,-5.609542,0.14248897,1004.28534,5.68990195507272,1004.2787577578968,0,0
13.88,8.046192999999999,-5.6715074,0.12355308,1004.2782599999999,5.690246465388702,1004.278848476148,0,0
13.9,7.988853,-5.676275,0.14722684,1004.29285,5.690437401669401,1004.2789790402803,0,0
13.92,8.031892,-5.733474,0.18036939999999999,1004.27527,5.690634910847137,1004.2790810542032,0,0
13.94,8.065368,-5.6524425,0.12355821,1004.25745,5.6907952498388354,1004.2790933219098,0,0
13.96,7.96501,-5.6810427,0.11409113,1004.2524400000001,5.690785936097669,1004.2790082096968,0,0
13.98,7.9786449999999975,-5.695325,0.15190179999999998,1004.3005400000001,5.690668125518148,1004.2790105189903,0,0
14.0,8.0646715,-5.657192,0.13769773,1004.2777,5.690554599672117,1004.2790078416136,0,0
14.02,8.016863,-5.619059,0.18030642,1004.26996,5.690319855837378,1004.278972903654,0,0
14.04,8.088550999999999,-5.7000904000000014,0.09508623,1004.2652,5.6901950952416245,1004.2788924500197,0,0
14.06,8.040742,-5.6762576,0.14716373,1004.2722,5.690059548031347,1004.2787972683681,0,0
14.08,8.083752,-5.6762576,0.08088119,1004.2722,5.689986454780367,1004.2786894156948,0,0
14.1,8.021604,-5.7096230000000014,0.047739428,1004.2597,5.689902918806398,1004.2785257551759,0,0
14.12,8.059832,-5.623825,0.10928576,1004.2722,5.689773697373981,1004.2783583720227,0,0
14.14,8.117180000000001,-5.619057700000001,0.12822253,1004.2903,5.689697264785133,1004.2782534621297,0,0
14.16,8.10283,-5.6142917,0.114018366,1004.2569,5.689637231728161,1004.2780838912844,0,0
14.18,8.059802000000001,-5.6762559999999995,0.06667347,1004.2722,5.689591442672444,1004.2779128764768,0,0
14.2,8.011992999999999,-5.714388,0.10928210599999999,1004.2697,5.68952395338266,1004.2777322014376,0,0
14.22,8.059781,-5.7239213,0.17082845,1004.2569,5.689531751797007,1004.2774975610478,0,0
14.24,8.09323,-5.599991,0.12821788,1004.2925,5.68951378135663,1004.2773442415796,0,0
14.26,8.0454235,-5.671489,0.17082672,1004.2694,5.6894780784538606,1004.2771801692276,0,0
14.28,8.050193,-5.714387,0.16609137,1004.2497599999999,5.689486243095867,1004.2769364822882,0,0
14.3,8.007164,-5.6905546,0.11874639999999999,1004.3076,5.689430129851827,1004.2768315491724,0,0
14.32,8.054953,-5.6476545,0.10927671,1004.25726,5.689346917738776,1004.276668372694,0,0
14.34,8.045383000000001,-5.685787,0.10927577,1004.257,5.689269415021508,1004.2764533838164,0,0
14.36,8.069272,-5.6714873,0.08086844,1004.2669,5.689220129102979,1004.276229027462,0,0
14.38,8.064482,-5.676254,0.13768035,1004.262,5.689194817846532,1004.2759795616887,0,0
14.4,8.078812,-5.604755,0.104538664,1004.2768599999999,5.689129230338192,1004.2757623033093,0,0
14.42,8.10748,-5.657187,0.15188171,1004.2623,5.689140712221668,1004.2755218695129,0,0
14.44,8.1074705,-5.614288,0.15188085,1004.2897,5.6891693486492265,1004.2753604634804,0,0
14.46,7.992744,-5.7525177,0.21342717,1004.2747,5.689186321019522,1004.2752154674415,0,0
14.48,7.845188999999999,-5.771599299999999,0.15193652,1004.2595,5.688965932844718,1004.2750307732592,0,0
14.5,8.007716,-5.657202,0.061984032,1004.2593400000001,5.688669516657639,1004.2748110906956,0,0
14.52,7.983833,-5.766833,0.16614243,1004.2697,5.688401555973197,1004.2745985792557,0,0
14.54,8.069885000000001,-5.728701,0.13300298,1004.2618,5.688257923226183,1004.2743647292624,0,0
14.56,8.012542999999999,-5.719168700000001,0.15194198,1004.2845,5.688116657664128,1004.2741945863828,0,0
14.58,8.012557000000001,-5.7001023,0.1330057,1004.2595,5.687954451114418,1004.2739913476236,0,0
14.6,8.026912,-5.666737,0.14721029,1004.2794,5.6877589929981625,1004.2738312370044,0,0
14.62,8.046045,-5.657204,0.118805155,1004.2897,5.6875551541347935,1004.273746890808,0,0
14.64,8.103419,-5.723936599999999,0.19929154,1004.2595,5.687524688010844,1004.273621073702,0,0
14.66,7.9887156,-5.7287035,0.20402715,1004.2645,5.687459272684678,1004.2734770658417,0,0
14.68,8.060431,-5.60954,0.14248137,1004.2743,5.687339791605416,1004.2733527830594,0,0
14.7,8.141701,-5.6143064,0.13301387,1004.28436,5.687317173904741,1004.2732825927741,0,0
14.72,8.060461,-5.6572059999999995,0.15668738,1004.26935,5.687293267413037,1004.2732064153037,0,0
14.74,8.003117,-5.738238,0.014656549,1004.2645,5.687265977147561,1004.2731077617957,0,0
14.76,7.964892999999999,-5.781137,0.07620509,1004.2542,5.687224120353428,1004.2729525236138,0,0
14.78,8.003146000000001,-5.685806299999999,0.10934734,1004.2792400000001,5.68711920164912,1004.2728379900713,0,0
14.8,8.065298,-5.7191730000000005,0.03833257,1004.28674,5.687103311246631,1004.2727868354688,0,0
14.82,8.022296,-5.7001066,0.062006064000000014,1004.2972,5.687070573444062,1004.2728295226543,0,0
14.84,7.9314933000000005,-5.828804,0.15669549,1004.2769999999999,5.6870289589248815,1004.2728822547698,0,0
14.86,7.9506288,-5.7287073,0.057274364,1004.2716,5.6868871510964825,1004.2729242327499,0,0
14.88,8.02234,-5.762073,0.024134822,1004.2919300000001,5.68681852817151,1004.2730297452555,0,0
14.9,8.051035,-5.6476760000000015,0.16616847,1004.2745,5.686728678896892,1004.2731282690222,0,0
14.92,8.079728,-5.64291,0.11882572,1004.2691,5.686662146426397,1004.273200822854,0,0
14.94,8.036725,-5.738241,0.109358296,1004.2542,5.686657512399505,1004.2731965284577,0,0
14.96,8.070198,-5.6333776,0.14250046,1004.2741,5.686639604403995,1004.2731959864263,0,0
14.98,8.1328535,-5.614324,0.17095424,1004.26935,5.686695355985295,1004.2731816619366,0,0
15.0,8.123327,-5.681057,0.16148846,1004.2668,5.686878537513348,1004.2731460308344,0,0
15.02,8.027763,-5.6190925000000025,0.052600205,1004.2713,5.6869346368759235,1004.2731079014816,0,0
15.04,7.9943433000000015,-5.690592,0.17096378,1004.2766,5.6869099982068185,1004.27308678194,0,0
15.06,7.9895960000000015,-5.709658599999999,0.1425604,1004.2741,5.686828141844492,1004.273071768298,0,0
15.08,8.051769,-5.676294,0.15203246,1004.2887,5.6867615490179375,1004.273114763878,0,0
15.1,8.027903,-5.690594,0.08101943,1004.2616,5.686683589028753,1004.2731113016227,0,0
15.12,8.066177,-5.6572294,0.14256993,1004.3071,5.686622369674602,1004.2732306016879,0,0
15.14,8.066213000000001,-5.6429300000000016,0.13310438,1004.2791,5.6865588990498175,1004.2733571450597,0,0
15.16,8.071026,-5.6524644,0.04315374,1004.2660000000001,5.686511553083955,1004.2734424730606,0,0
15.18,8.051943,-5.7048974,0.14731386,1004.29926,5.686511048144585,1004.2736108119792,0,0
15.2,8.013739,-5.700131400000001,0.11417627,1004.27124,5.686480542856357,1004.2737510213246,0,0
15.22,8.004211999999999,-5.809762999999999,0.10471053400000001,1004.2612,5.6865402989746725,1004.2738297266254,0,0
15.24,8.004248,-5.7430325,0.16152662,1004.2835,5.68660009137625,1004.2739340836133,0,0
15.26,8.099882000000001,-5.633401999999999,0.16153006,1004.2785,5.686690571244487,1004.2740427307467,0,0
15.28,8.066457000000002,-5.7001348,0.13786112,1004.2833,5.686829826979464,1004.2741720575232,0,0
15.3,7.9900145999999985,-5.7001357000000015,0.123661146,1004.2691,5.686881751228567,1004.2742680712558,0,0
15.32,8.099984,-5.6667705,0.1615394,1004.25604,5.687004112512622,1004.2742872879334,0,0
15.34,7.980526400000001,-5.6953707,0.18048050000000002,1004.2862,5.68702050892175,1004.2743471535533,0,0
15.36,8.066594,-5.671539,0.16154571,1004.27625,5.687059857665847,1004.274406901062,0,0
15.38,8.028393,-5.6667733,0.13314272,1004.27875,5.687047855293155,1004.274475329117,0,0
15.4,8.061885,-5.7096734000000025,0.024254479,1004.2785,5.6870970259649525,1004.2745502809616,0,0
15.42,8.0523615,-5.666775,0.13314903,1004.2583,5.687134287239743,1004.2745580074001,0,0
15.44,8.033275999999999,-5.6524763,0.08580801,1004.26624,5.687110254794709,1004.2745348896542,0,0
15.46,8.0428705,-5.7001424000000025,0.104748905,1004.27356,5.6871059660444345,1004.2745109532112,0,0
15.48,7.9798007,-5.7001195,0.12360127,1004.2837,5.6870127621675275,1004.2745228835388,0,0
15.5,8.070613999999999,-5.695353,0.07625687,1004.2937,5.68698849196474,1004.2746024627955,0,0
15.52,8.022813000000001,-5.7382517,0.11413178,1004.2737400000001,5.686996626989711,1004.2746696741606,0,0
15.54,8.104064,-5.6715198,0.21355386,1004.29846,5.687094537670461,1004.2748147072957,0,0
15.56,8.080162,-5.685819599999999,0.13306864,1004.2708,5.687244900658107,1004.2749284056281,0,0
15.58,8.075378,-5.766851,0.071521044,1004.2835,5.6875290319962275,1004.2750597272137,0,0
15.6,8.113613,-5.657220400000001,0.0052390024,1004.2708,5.6878633591059815,1004.2751604279492,0,0
15.62,8.061032,-5.700118499999999,0.019441966,1004.30865,5.6882026693736085,1004.2753699695783,0,0
15.64,7.9988894,-5.7287183,0.05258236,1004.2862,5.6884746454329,1004.2755941086713,0,0
15.66,8.094482000000001,-5.7096519999999975,-0.0042308457,1004.2633,5.688824844233505,1004.2757478991824,0,0
15.68,8.056239999999999,-5.7287183,-0.027903188,1004.2729,5.6892010191094435,1004.2758735360412,0,0
15.7,8.008438,-5.6715193,-0.06577879,1004.29065,5.689449340230745,1004.2760377440401,0,0
15.72,8.089691,-5.6238537000000015,0.0667842,1004.2581,5.689665148689219,1004.276118262349,0,0
15.74,8.01321,-5.7430177,-0.013700988,1004.2731,5.689863966594922,1004.2761785425824,0,0
15.76,8.022767,-5.728718,0.04784592,1004.24786,5.6900461403721705,1004.2761298594432,0,0
15.78,8.185276,-5.523756,0.15200248,1004.2582,5.690249650162119,1004.2760222955277,0,0
15.8,8.175714,-5.7430177,0.11412689,1004.2531,5.690712295974411,1004.275844731788,0,0
15.82,8.123130999999999,-5.6810519999999975,0.071516916,1004.2581,5.691238010849756,1004.2756239554327,0,0
15.84,8.342998,-5.7144175000000015,-0.027905952,1004.2582,5.692232338083535,1004.2753661512061,0,0
15.86,8.127904,-5.6286197,0.062047437000000004,1004.2729,5.6931681350054575,1004.275129477247,0,0
15.88,7.9606059999999985,-5.642919,-0.07998508,1004.2856,5.693781394156103,1004.2749580460187,0,0
15.9,7.7694100000000015,-5.814515,-0.027906958,1004.2806,5.693995628945452,1004.2748268804196,0,0
15.92,8.161351,-5.709651,-0.09418899,1004.2657,5.6943895826225255,1004.2746781257267,0,0
15.94,7.908017599999999,-5.642919,0.11412449,1004.3007,5.694431310757411,1004.2746403648275,0,0
15.96,7.955812,-5.595253,-0.18414332,1004.3007,5.694187681655543,1004.2747008139836,0,0
15.98,8.170647,-5.4379506,-0.26938605,1004.2783,5.693880747295202,1004.2747671839276,0,0
16.0,8.180193,-5.4856157,-0.18416803,1004.2705699999999,5.693586409710012,1004.274810718548,0,0
16.02,8.008107,-5.5952462999999995,-0.12735638,1004.2729,5.693135972691863,1004.2748423071516,0,0
16.04,7.988973,-5.681044,-0.15576407,1004.2931,5.692620310859194,1004.2749359465364,0,0
16.06,8.089336,-5.5428133,-0.16049969,1004.2806,5.6920556219923775,1004.2750390768888,0,0
16.08,8.204039,-5.514214,-0.10842243,1004.2629,5.69161204176256,1004.2750865021916,0,0
16.099999999999998,8.223145,-5.585712,-0.08475168,1004.2506,5.691392688951582,1004.2750402557814,0,0
16.12,8.184892,-5.4808474,-0.09895617,1004.25543,5.69118474634635,1004.2749287955323,0,0
16.14,8.051044000000001,-5.585711,-0.25519273,1004.2777,5.690886389701372,1004.2748402855923,0,0
16.16,8.089269,-5.600011,-0.39722609999999997,1004.2827,5.6906012023973,1004.2747903731813,0,0
16.18,8.108374000000001,-5.4999127,-0.52979076,1004.2856,5.6902569164919745,1004.2747851852313,0,0
16.2,8.227855,-5.5571103,-0.577136,1004.2629,5.690139029338797,1004.274737814492,0,0
16.22,8.223061,-5.6667414,-0.5108558,1004.2781,5.690334107109939,1004.2747080615744,0,0
16.24,8.050975,-5.5237446,-0.47298157,1004.2729,5.690338554149733,1004.2746752628748,0,0
16.259999999999998,7.9792647,-5.600009,-0.37829477,1004.2953,5.6901339136653855,1004.2747205309976,0,0
16.28,8.070066,-5.5523434,-0.30728003,1004.2579,5.689838472880682,1004.2746999759994,0,0
16.3,7.9983554,-5.6667404,-0.013748228999999999,1004.2552,5.689467779268607,1004.2746116136892,0,0
16.32,8.122617,-5.7096386,-0.009015113,1004.2601300000001,5.689294343644607,1004.2744814029428,0,0
16.34,8.122603,-5.6333733,-0.22206457,1004.2729,5.689210233153328,1004.2743606556764,0,0
16.36,8.070012,-5.63814,-0.30255058,1004.2852,5.6891257771132056,1004.2742929850316,0,0
16.38,8.175155,-5.5094423,-0.33569264,1004.2876,5.689072375686719,1004.2742810965036,0,0
16.4,8.199038999999999,-5.5380410000000015,-0.35936599999999996,1004.2626300000001,5.6891226874880125,1004.2742286478527,0,0
16.419999999999998,8.179907,-5.5094414,-0.3783049000000001,1004.28033,5.689199767403167,1004.2742042690927,0,0
16.44,8.074736999999999,-5.571406400000001,-0.51560384,1004.2475,5.6892052200261345,1004.2740865926517,0,0
16.46,8.089063000000001,-5.6190714999999996,-0.45879220000000004,1004.25494,5.689222291923967,1004.2739136860147,0,0
16.48,8.12257,-5.600007,-0.19839555,1004.2652,5.689266235320176,1004.2737295364408,0,0
16.5,8.184697,-5.5666404,-0.22206853,1004.2777,5.689402155144849,1004.2735811155458,0,0
16.52,8.170347,-5.523741200000001,-0.11791257599999999,1004.2931,5.689540416440599,1004.2735202388272,0,0
16.54,8.050839,-5.671504,-0.19839862,1004.2802,5.689652955539973,1004.2734904952988,0,0
16.56,8.03171,-5.628605,-0.24100925,1004.288,5.689660569571633,1004.273516448134,0,0
16.58,8.069937,-5.571406,-0.3735736,1004.3102,5.689581413715152,1004.273671440846,0,0
16.599999999999998,8.060367999999999,-5.6286044,-0.34990242,1004.2727,5.6894754944596695,1004.2738048952193,0,0
16.62,8.112932,-5.6524367,-0.39251328,1004.2652,5.689467502535819,1004.2738918378807,0,0
16.64,7.9982057,-5.723935,-0.34043579999999996,1004.2927,5.689433056361133,1004.2740363698,0,0
16.66,8.13203,-5.5571055,-0.33570236,1004.28015,5.6894042104005225,1004.2741860872724,0,0
16.68,8.189375,-5.514206,-0.40671957,1004.28265,5.689434517414835,1004.274348847717,0,0
16.7,8.1081085,-5.5285053,-0.29782918,1004.28265,5.689385807504529,1004.274522546994,0,0
16.72,7.936023,-5.595237,-0.122657344,1004.2777,5.689044769800312,1004.2746874665057,0,0
16.74,7.959911999999999,-5.518971400000001,-0.09425188599999999,1004.2802,5.688395863318032,1004.2748530345073,0,0
16.759999999999998,7.9837985,-5.504671599999999,-0.08004969,1004.2674,5.687500927294568,1004.274972499469,0,0
16.78,8.0889435,-5.504671,-0.027972307000000002,1004.28015,5.686571514854956,1004.2750966977112,0,0
16.8,8.275345,-5.442705999999999,-0.31677204,1004.2851,5.685875823159053,1004.2752424511659,0,0
16.82,8.327912,-5.4236393,-0.38305459999999997,1004.2799,5.685463681600343,1004.2753880060948,0,0
16.84,8.241864,-5.509437,-0.20788278,1004.245,5.685241692990692,1004.2754072216077,0,0
16.86,8.347009,-5.485604299999999,-0.4304008,1004.3001,5.685358051164139,1004.2755130944372,0,0
16.88,8.308758000000001,-5.580935,-0.33097938,1004.29,5.6858084930010095,1004.2756587965292,0,0
16.9,8.165355,-5.681032,-0.43987158,1004.2696,5.686432701876456,1004.2757657272304,0,0
16.919999999999998,8.074525999999999,-5.6857986,-0.2457621,1004.25995,5.687045373002485,1004.2758032745796,0,0
16.94,8.045836,-5.5618677000000005,-0.20788793,1004.2927,5.687447584511477,1004.2758972796292,0,0
16.96,8.112741999999999,-5.5475683,-0.094263166,1004.285,5.687756486946897,1004.2760131122844,0,0
16.98,8.094362,-5.557119,-0.046851452,1004.29224,5.687960828066465,1004.2761738788139,0,0
17.0,8.161297,-5.5046873,-0.061053064000000004,1004.2724599999999,5.688125912034048,1004.276302562156,0,0
17.02,8.161317,-5.590486,-0.10366087,1004.2875,5.688356733482107,1004.2764565775333,0,0
17.04,8.137436,-5.518987999999999,-0.1604721,1004.2674,5.6885216903376845,1004.2765600618412,0,0
17.06,8.132674,-5.5714207,-0.18887688,1004.2919999999999,5.6886820970583765,1004.2767070843537,0,0
17.08,8.123134,-5.571421,-0.24095358,1004.27496,5.6888239151866795,1004.2768307039413,0,0
17.099999999999998,8.070575,-5.566655,-0.22674863,1004.28723,5.688852501870833,1004.2769773716752,0,0
17.12,8.113611,-5.4856243,-0.17466852,1004.2749,5.688757609918038,1004.2770994887468,0,0
17.14,7.9989142000000015,-5.7239523000000005,-0.09418191,1004.27496,5.688638847882268,1004.2771996892316,0,0
17.16,8.070631,-5.6000223,-0.079976946,1004.2696,5.688472632430841,1004.2772608674987,0,0
17.18,8.094547,-5.571423,-0.27408585,1004.2797,5.6882794507160535,1004.2773237054926,0,0
17.2,7.9989715,-5.652456,-0.25514644,1004.2774699999999,5.687995508336882,1004.2773797558043,0,0
17.22,8.108925,-5.5952573,-0.29302,1004.2947,5.687753850105421,1004.2774916347388,0,0
17.24,8.180643,-5.685822,-0.33089346,1004.2845,5.687782501612671,1004.27761572108,0,0
17.259999999999998,8.175880000000001,-5.6286244000000005,-0.30248538,1004.2722,5.687972281472407,1004.2777058671757,0,0
17.28,8.108981,-5.6286244000000005,-0.21253002,1004.2972,5.688184550124763,1004.2778556991436,0,0
17.3,8.152019500000002,-5.6619905999999975,-0.34035707,1004.27936,5.688536327905427,1004.2779935061536,0,0
17.32,8.109019,-5.652458,-0.33562106,1004.2689999999999,5.688925143764759,1004.2780828958057,0,0
17.34,8.113816,-5.709657,-0.17464967,1004.2639999999999,5.689413009967885,1004.278111182077,0,0
17.36,8.1616335,-5.6667585,-0.22199197,1004.2842400000001,5.6900189767931115,1004.2781582395712,0,0
17.38,8.066057,-5.7239575,-0.16991179,1004.2768599999999,5.6906307047491005,1004.2781951459103,0,0
17.4,7.9370210000000005,-5.743025,-0.1935821,1004.3049,5.691051341252747,1004.2783238938265,0,0
17.419999999999998,7.870127,-5.7144260000000004,-0.20778315,1004.2772,5.6911547932802655,1004.2784336094674,0,0
17.44,7.927503,-5.685827,-0.2835319000000001,1004.2947,5.69104347634267,1004.2785891132137,0,0
17.46,8.013558999999999,-5.86219,-0.31667104,1004.3018,5.6911046161146475,1004.2788100755162,0,0
17.48,8.104388,-5.8002253,-0.3308731,1004.27936,5.6913962845222805,1004.2790072975348,0,0
17.5,8.199844,-5.6286260000000015,-0.3971675,1004.24896,5.691853402185111,1004.2790733926394,0,0
17.52,8.156836,-5.5952597,-0.4066355,1004.2845,5.692343009788661,1004.2791513300602,0,0
17.54,7.9178605,-5.776389,-0.3024772,1004.25146,5.692663842997973,1004.2791205067772,0,0
17.56,7.936991,-5.7716236,-0.38296095,1004.27435,5.6928665270017955,1004.2790760975,0,0
17.58,8.032601,-5.719191599999999,-0.23619322,1004.2997,5.693052092061322,1004.2791111035117,0,0
17.599999999999994,7.917898700000001,-5.728725,-0.25512967,1004.2693,5.693040776623973,1004.2791067148506,0,0
17.62,8.008727,-5.695359,-0.21725325,1004.2764,5.692966587046914,1004.2790930928564,0,0
17.64,8.042196,-5.719192,-0.24565871,1004.2868699999999,5.692923871361258,1004.2791090533279,0,0
17.66,8.003969,-5.7144260000000004,-0.21251681,1004.25397,5.692837082075558,1004.2790326554087,0,0
17.68,8.0948,-5.590496,-0.34034446,1004.25885,5.6927255939019945,1004.278892492648,0,0
17.7,8.042235,-5.704893599999999,-0.34981203,1004.2769999999999,5.692640184876901,1004.2787618318588,0,0
17.72,8.027907,-5.790692,-0.27879485,1004.2768599999999,5.692652923289782,1004.2786395333908,0,0
17.74,8.123517,-5.6715279999999995,-0.34980977,1004.2743,5.692775728300517,1004.278515848144,0,0
17.759999999999994,8.023154,-5.6429290000000005,-0.29299575,1004.2665,5.69278666291667,1004.2783633028073,0,0
17.78,7.89889,-5.7382607000000005,-0.22197859,1004.2693,5.69259996981372,1004.2781958858569,0,0
17.8,8.027958,-5.7334943,-0.25038388,1004.27936,5.692452567848228,1004.278052147051,0,0
17.82,7.9945119999999985,-5.695362,-0.3213988,1004.29175,5.6922421257114495,1004.2779744517127,0,0
17.84,8.018424000000001,-5.6953625999999975,-0.23617835,1004.2792400000001,5.692012198105178,1004.2779103560854,0,0
17.86,8.004097,-5.709663,-0.27405247,1004.2812,5.691760901382638,1004.2778655639073,0,0
17.88,7.9849887000000015,-5.7001295,-0.4634276,1004.27124,5.691462588840617,1004.2778021335083,0,0
17.9,8.047139,-5.6619972999999995,-0.30245665,1004.29175,5.691170294736575,1004.2777962987276,0,0
17.919999999999995,8.023253,-5.657231299999999,-0.3071899,1004.2610000000001,5.690838405182978,1004.2777306764398,0,0
17.94,8.090182,-5.6905975,-0.31665763,1004.2612,5.6906269361926665,1004.2776131821512,0,0
17.96,8.042397,-5.6619980000000005,-0.24090599,1004.2812,5.690402797722678,1004.2775222767418,0,0
17.98,8.052378,-5.652476,-0.41604045,1004.28674,5.690186005065135,1004.277475136526,0,0
18.0,8.066746,-5.704909,-0.26453686,1004.27136,5.690052749593629,1004.2774114689397,0,0
18.02,8.119353,-5.561913,-0.29767498,1004.2812,5.689915728561902,1004.2773688509725,0,0
18.04,8.148057000000001,-5.533314,-0.36395434,1004.26886,5.68979628448446,1004.2773005618727,0,0
18.06,7.9903520000000015,-5.609579,-0.37342048,1004.27856,5.689514002926593,1004.2772447556016,0,0
18.08,7.8900055999999985,-5.771643,-0.34974575,1004.2839,5.689113711489632,1004.2772194040604,0,0
18.1,8.114686,-5.5857480000000015,-0.28346142,1004.2809,5.688763284752346,1004.2772102535837,0,0
18.12,8.124272999999999,-5.499951,-0.18877086,1004.2736,5.688369395378148,1004.2771891713098,0,0
18.14,7.9474483,-5.685847,-0.34973794,1004.2789300000001,5.687866822596327,1004.2771768099957,0,0
18.16,7.9809365,-5.6334157,-0.335532,1004.26886,5.687262606093372,1004.2771359470227,0,0
18.18,8.229517999999999,-5.495186299999999,-0.26451316,1004.2814300000001,5.686829449657068,1004.2771152990904,0,0
18.2,8.229544,-5.485654,-0.29291722,1004.2864,5.6865397175177135,1004.2771304795008,0,0
18.22,8.11486,-5.666784,-0.36866486,1004.2735,5.686398303531939,1004.2771308231853,0,0
18.24,8.110108,-5.6477184000000005,-0.32131818,1004.2587,5.6863542724394565,1004.2770647759012,0,0
18.26,8.047998,-5.647719,-0.36865973,1004.29425,5.686294150805418,1004.2770682833276,0,0
18.28,8.028907,-5.676319599999999,-0.3591884,1004.2736,5.686221090190325,1004.2770588966698,0,0
18.3,8.17711,-5.619121,-0.4302018,1004.26575,5.686327329745933,1004.2770098905909,0,0
18.32,8.172357,-5.6286545,-0.43493370000000003,1004.2760000000001,5.686595133856361,1004.2769629532137,0,0
18.34,8.12937,-5.547624,-0.4491340999999999,1004.2810000000001,5.686837295452527,1004.2769360127153,0,0
18.36,8.172417999999999,-5.5237922999999975,-0.3213025,1004.26355,5.687091699537112,1004.2768640184453,0,0
18.38,8.162887,-5.49996,-0.18873648,1004.2937,5.6873047631429925,1004.2768610138417,0,0
18.4,8.110336,-5.5476265,-0.16032758,1004.2610000000001,5.6874447680587235,1004.2768012593243,0,0
18.42,8.191623,-5.5523934,-0.22660653,1004.2659,5.687667615957579,1004.2767092156993,0,0
18.44,8.143851,-5.6191260000000005,-0.22660403,1004.2585,5.687959199924707,1004.2765623327754,0,0
18.46,8.182118,-5.585761,-0.3307583,1004.26324,5.688342885030393,1004.276384586626,0,0
18.48,7.970613,-5.6905956,-0.34980524,1004.2510000000001,5.6885723589565185,1004.2761361456166,0,0
18.5,7.918017,-5.6143303,-0.491839,1004.2962,5.6884966786324025,1004.2759888530163,0,0
18.52,8.056611,-5.638162599999999,-0.27879265,1004.2784,5.688397992339004,1004.275867385404,0,0
18.54,8.176086,-5.5618973,-0.31666976,1004.2631,5.688396026279549,1004.2757140940342,0,0
18.56,8.338578,-5.314036,-0.36875007,1004.26324,5.688481994946063,1004.2755337390414,0,0
18.58,8.262081,-5.457032,-0.18884456,1004.28076,5.688663200767825,1004.2753931919092,0,0
18.6,8.32898,-5.3903,-0.26459679999999997,1004.2735,5.6889719752318575,1004.2752621889723,0,0
18.62,8.180786,-5.5189962,-0.34034908,1004.2885,5.689287710685563,1004.2751940908968,0,0
18.64,8.075610000000001,-5.652459599999999,-0.42557022,1004.26324,5.689592295354342,1004.2750908847104,0,0
18.66,8.314583,-5.4331974999999995,-0.32614937,1004.2606,5.690034059353355,1004.2749475245387,0,0
18.68,8.290663,-5.514228299999999,-0.47291785,1004.25037,5.69065884061971,1004.2747323724028,0,0
18.7,8.252403999999999,-5.5714264,-0.6433581,1004.27576,5.691463033030763,1004.274545963435,0,0
18.72,8.228484,-5.5332937000000015,-0.58181286,1004.2506,5.6923296306510505,1004.2742950470025,0,0
18.74,8.195006,-5.4760942,-0.6007523,1004.2654,5.693126825523429,1004.2740413150736,0,0
18.76,8.156749000000001,-5.4236617,-0.5486755999999999,1004.25037,5.693727113695775,1004.2737319008072,0,0
18.78,8.156728999999999,-5.414128,-0.4161141,1004.26575,5.694126712179518,1004.2734297675183,0,0
18.8,8.175827,-5.557124,-0.33089668,1004.2835,5.694539354428562,1004.2731990553813,0,0
18.82,8.233166,-5.4379599999999995,-0.36877364,1004.26764,5.6949259838705055,1004.2729751855372,0,0
18.84,8.185348,-5.404594,-0.36404109999999995,1004.2604,5.6951668026350895,1004.2727321034754,0,0
18.86,8.290483,-5.366461,-0.40665257,1004.2376,5.695420805085938,1004.272390840593,0,0
18.88,8.328700999999999,-5.2901955,-0.40665442,1004.29346,5.695666862593953,1004.2721651496837,0,0
18.9,8.314342,-5.2854285,-0.4871412000000001,1004.2705699999999,5.695882117339438,1004.2719599866575,0,0
18.92,8.276083,-5.2997274,-0.4966119000000001,1004.28015,5.696019374567226,1004.2718081886557,0,0
18.94,8.233047000000001,-5.3998246,-0.43033180000000004,1004.2604,5.696118780109824,1004.2716329904622,0,0
18.96,8.228246,-5.304493,-0.40666172,1004.2933,5.696066010498535,1004.2715561865725,0,0
18.98,8.243096000000001,-5.2711396,-0.44449016,1004.27325,5.695870913351853,1004.2714944203842,0,0
19.0,8.204858999999999,-5.3045053,-0.43028682,1004.28265,5.6955201258399155,1004.2714800038667,0,0
19.02,8.209640499999999,-5.342638,-0.3545362,1004.28076,5.69507814947128,1004.271500673418,0,0
19.04,8.223981,-5.40937,-0.44922423,1004.27045,5.69466603171515,1004.2715151546091,0,0
19.06,8.123607000000002,-5.418903,-0.29772309999999996,1004.26764,5.6941069312910795,1004.2715139996327,0,0
19.08,8.047131,-5.461802,-0.47763044,1004.2851,5.693352799823969,1004.2715618886972,0,0
19.1,8.11405,-5.4236693,-0.5533808000000001,1004.2701400000001,5.692508355900313,1004.2715990846755,0,0
19.12,8.233545,-5.3903035999999975,-0.55811507,1004.2701400000001,5.691756320297348,1004.2716266983368,0,0
19.14,8.209648,-5.3998370000000016,-0.57705253,1004.2881,5.6910603075991535,1004.2717104016541,0,0
19.16,8.142732,-5.433203,-0.5675836999999999,1004.2777,5.690337641361138,1004.2718059244588,0,0
19.18,8.24311,-5.39507,-0.48236424,1004.2627,5.689714744626981,1004.2718575470813,0,0
19.2,8.228771,-5.404604,-0.39714485,1004.2777,5.689160301042419,1004.2719241936612,0,0
19.22,8.157075,-5.452269,-0.4634264,1004.26764,5.688604927763967,1004.2719676594818,0,0
19.24,8.204874,-5.457036,-0.42081666,1004.2701400000001,5.688134821098209,1004.2719994863068,0,0
19.26,8.247893,-5.390304,-0.43501976,1004.27515,5.687741334550432,1004.2720389503387,0,0
19.28,8.338711,-5.3092723,-0.48236369999999995,1004.28015,5.687488785878577,1004.2721030205361,0,0
19.3,8.185759,-5.428436799999999,-0.37347224,1004.2701400000001,5.687220376409438,1004.2721525660884,0,0
19.32,8.137962,-5.504701,-0.40187854,1004.2850300000001,5.68694691085474,1004.2722427033003,0,0
19.34,8.085385,-5.476102,-0.3119248,1004.2701400000001,5.6865394208426165,1004.2723147788092,0,0
19.36,7.922872999999999,-5.681064,-0.32139346,1004.2651400000001,5.68598210736252,1004.2723526355252,0,0
19.38,7.9754520000000015,-5.657231299999999,-0.21723644,1004.2825300000001,5.685348635249452,1004.2724227242314,0,0
19.4,8.157086,-5.5476007,-0.2977212,1004.28015,5.684834544391091,1004.2725124728047,0,0
19.42,8.200106,-5.5476007,-0.34033070000000004,1004.2551,5.684504606382062,1004.2725290897424,0,0
19.44,8.133189999999999,-5.395071,-0.5675819999999999,1004.2547599999999,5.684068692951378,1004.2724798037452,0,0
19.46,7.937218,-5.4570365,-0.44922185,1004.2473,5.683262720307464,1004.2723456073448,0,0
19.48,8.143539,-5.642951,-0.44914964,1004.2846,5.682704483187942,1004.2722711472188,0,0
19.5,8.100553999999999,-5.600053,-0.35919288,1004.2672,5.682235410054919,1004.2721870981217,0,0
19.52,7.9571929999999975,-5.7764163,-0.5533005,1004.2547599999999,5.681834305859366,1004.2720500947861,0,0
19.54,7.8233814,-5.9241805,-0.45861027,1004.2626300000001,5.681444146332762,1004.2718951262973,0,0
19.56,8.076746,-5.738284999999999,-0.5674984000000001,1004.2476,5.681272641669184,1004.2716707336864,0,0
19.58,7.828235,-5.7335199999999995,-0.6763861,1004.25714,5.680885439669975,1004.2714201497338,0,0
19.6,7.7948074000000025,-5.490425599999999,-0.61010164,1004.275,5.679949421451713,1004.2712116212144,0,0
19.62,7.8713174,-5.747821,0.37939197,1004.26215,5.678947686965332,1004.2709947435781,0,0
19.64,8.062541,-5.8574524000000014,-0.075108066,1004.2901,5.678332159711336,1004.2708718894216,0,0
19.66,8.511875,-5.914651999999999,-0.032495376,1004.2671,5.6788898283003775,1004.2707497566873,0,0
19.68,8.531027,-5.824088,0.1426806,1004.2746599999999,5.680410076676742,1004.2706559170794,0,0
19.7,8.344647,-5.5333295,0.5072327999999999,1004.28015,5.682141243554363,1004.2706071790998,0,0
19.72,8.177388,-5.485664,0.07167056,1004.26764,5.683682212120368,1004.2705534323765,0,0
19.74,7.747238,-6.052885,0.13322087,1004.2669999999999,5.685018685767133,1004.2704931494153,0,0
19.76,7.6468906,-5.828858,0.09061387,1004.2771,5.6857190644728615,1004.2704636680528,0,0
19.78,7.8237770000000015,-5.6143637,0.0053975955,1004.2721,5.685884445060915,1004.270443509116,0,0
19.8,8.029342,-5.824093,0.42202824,1004.2626300000001,5.686196698958821,1004.2703975680464,0,0
19.82,8.096293,-5.9813905,0.76290864,1004.27765,5.6869843615863775,1004.2703830832727,0,0
19.84,8.081984,-5.6524982,0.3557524,1004.2825300000001,5.687719380467193,1004.2704140134268,0,0
19.86,7.9577413,-5.6429663,0.19478567,1004.25726,5.688173407347469,1004.2703939888623,0,0
19.88,7.790481,-5.7096987,0.19952308,1004.2547599999999,5.6881768652092095,1004.2703200127977,0,0
19.9,7.8383119999999975,-5.8717628,0.4693872,1004.2697,5.688081691142139,1004.2702524155006,0,0
19.92,7.9912990000000015,-5.9813943,0.7345169,1004.2647,5.688323544175807,1004.2701726978332,0,0
19.94,8.115607,-5.871764,0.630363,1004.2695,5.688920449537513,1004.27009983759,1,1
19.96,7.9244475,-5.7526007,0.36523935,1004.262,5.689334842524638,1004.2700062988637,1,1
19.98,7.8129077,-5.6095643,0.26566997,1004.247,5.689217961124524,1004.2698408253692,1,1
20.0,8.004069,-5.676296,1.0752503,1004.2872,5.6891505124780615,1004.2697571060183,1,1
20.02,7.941899,-5.8049917,0.6822918,1004.2647,5.689105454198962,1004.2696649260181,1,1
20.04,7.999225,-5.642928599999999,0.55919445,1004.262,5.688964692038847,1004.2695558820365,1,1
20.06,8.171264,-5.685827,0.6822857,1004.2542,5.689099259974762,1004.2694042495987,1,1
20.08,8.204692,-5.919387,0.5733916,1004.2745,5.689799190504068,1004.2692886118782,1,1
20.1,8.352835,-5.9718184,0.5118415,1004.2545,5.691302573193783,1004.2691331953856,1,1
20.12,8.190286,-6.1672462999999995,0.65860486,1004.27216,5.693495814015642,1004.2690067658693,1,1
20.14,6.34047,-8.307428999999999,-0.37349823,1004.2291,5.696672198398477,1004.2687513883916,1,1
20.16,3.950536,-8.602955999999999,-4.0284615,1004.2616,5.7003543558289325,1004.2684999918539,1,1
20.18,4.9925017,-8.631555,-2.8353943999999998,1004.2542,5.7046333964797284,1004.2682263779027,1,1
20.2,5.006808299999999,-9.4180355,-3.1999466,1004.2567,5.711023108491986,1004.2679431176547,1,1
20.22,6.545872,-8.898479,-2.1347084,1004.2517,5.7194944484169765,1004.2676343536763,1,1
20.24,8.19487,-7.706839599999999,-1.0505333000000001,1004.2745,5.729872924223059,1004.2673862461518,1,1
20.26,8.548544999999999,-6.777360400000001,-0.7617374,1004.2641,5.741145318340408,1004.2671551878567,1,1
20.28,9.036054,-6.3531356,0.07151504,1004.24115,5.753396501404994,1004.2668574060713,1,1
20.3,9.638275,-6.133874,0.80061036,1004.262,5.767313172904,1004.2665767994237,1,1
20.32,9.666922,-5.51422,0.46919903,1004.2561599999999,5.781999483985382,1004.2662913549117,1,1
20.34,9.905878,-4.646706,0.36503909999999995,1004.2492,5.7969154218248935,1004.2659776072634,1,1
20.36,12.721152,-2.7782147,1.3166516000000001,1004.2517,5.8164278766596125,1004.2656489804554,1,1
20.38,17.668213,-1.0670202,1.8090266,1004.2592,5.849711180355745,1004.2653353894777,1,1
20.4,18.925273999999998,-2.1204283,3.4281902,1004.2616,5.898279148097947,1004.265044853088,1,1
20.42,15.330829000000001,-6.2434998,1.9463185,1004.2741,5.9546026358710575,1004.2648207336628,1,1
20.44,13.858618,-8.49808,1.4870784,1004.2741,6.016863384553052,1004.2646561070976,1,1
20.46,11.970563,-9.761217,0.5970074000000001,1004.30164,6.082343939613813,1004.264643785079,1,1
20.48,11.039596000000001,-10.786055000000001,0.4172002,1004.30164,6.150397026743134,1004.2647660837172,1,1
20.5,10.685903,-12.659311,0.24676272,1004.3115,6.222823807689768,1004.2650423888923,1,1
20.52,4.639462,-15.114087,0.1568102,1004.2691699999999,6.297280301522988,1004.2653013915452,1,1
20.54,-2.257782,-17.511665,-3.8390262,1004.31995,6.377955869443798,1004.2657269812796,1,1
20.56,-1.0914979999999999,-16.30096,-3.2093492,1004.26666,6.460885916531897,1004.2661063912362,1,1
20.58,-0.66608185,-17.502132,-1.8316362000000002,1004.2869999999999,6.547506068414433,1004.2665168548656,1,1
20.6,0.54800016,-16.892012,-3.3939885999999997,1004.2647,6.63630177936953,1004.2668729998511,1,1
20.62,5.045808,-16.291428,-5.3398275,1004.2417,6.728015852385321,1004.2670970667606,1,1
20.64,10.380082000000002,-15.23802,-4.0425997,1004.2417,6.824065621075389,1004.2672036228416,1,1
20.66,14.060544,-13.53636,-0.96997017,1004.2441,6.924984941597478,1004.2672146027523,1,1
20.68,14.681931500000001,-10.957653,1.6623599999999998,1004.2492,7.027461539706646,1004.2671594520317,1,1
20.7,12.554931,-9.294125,1.9132845,1004.2566,7.125420700726616,1004.2670727068277,1,1
20.72,11.369551,-7.6782619999999975,1.7144407,1004.2641,7.215062959918784,1004.2669853570208,1,1
20.74,11.283527000000001,-5.7764063,1.2883453,1004.26666,7.294779251158579,1004.266907003446,1,1
20.76,11.536869,-2.5017817000000004,2.860169,1004.2791,7.364201503523637,1004.2668816650153,1,1
20.78,11.967064,0.38675129999999996,3.6129404999999997,1004.27167,7.42502623501993,1004.2668765139833,1,1
20.8,11.995754,0.04832545,2.2731049999999997,1004.2616,7.477417465071192,1004.2668529670816,1,1
20.82,13.291095,-0.68572456,1.3877723999999998,1004.25366,7.524603397613994,1004.2667846663576,1,1
20.84,14.380901000000001,-5.247319999999998,1.8754174,1004.26666,7.571263943330863,1004.2667238670388,1,1
20.86,16.345413,-8.29315,2.3772655,1004.2795,7.6236516627016995,1004.2667161388396,1,1
20.88,16.47448,-10.209307,1.7617938999999998,1004.2816,7.682945866593503,1004.2667628921026,1,1
20.9,15.403817000000002,-12.420989,0.16630067,1004.2716,7.748809322096453,1004.2668216168744,1,1
20.92,15.346472,-15.29999,-0.9983619,1004.3066,7.824199300236756,1004.2670167082622,1,1
20.94,15.805346499999999,-16.424896,0.6823531,1004.312,7.910045330108204,1004.2673510308624,1,1
20.96,13.879097,-15.876744,1.3499053,1004.3246,8.00134284569581,1004.2678525346013,1,1
20.98,8.955913,-15.32859,0.6113392,1004.3066,8.0901295800354,1004.26843515418,1,1
21.0,5.839492,-11.829938,-1.1687958,1004.30145,8.166984966095983,1004.2690688102847,1,1
21.02,2.4410641,-9.775552000000001,-1.1167161,1004.2919300000001,8.226563469235352,1004.2697110091017,1,1
21.04,-0.45551294,-10.728863,-0.75690275,1004.3071,8.271966392751645,1004.2704130563437,1,1
21.06,0.5291376,-10.5382,0.6965604000000001,1004.22864,8.304283903753415,1004.2708830022839,1,1
21.08,0.18978243,-11.067288000000001,1.884897,1004.2661,8.326281724874496,1004.2712810277086,1,1
21.1,0.6247563,-12.997745,0.38882616,1004.2413,8.342802952391489,1004.2715247912739,1,1
21.12,4.023208,-14.494444,-0.9983533000000001,1004.2187,8.358700933842968,1004.271550011512,1,1
21.14,7.8709617,-15.519252999999999,-0.5959279000000001,1004.2366300000001,8.378845834893275,1004.2714465840725,1,1
21.16,11.431929,-14.747072,-0.31659696,1004.2216,8.405269991467085,1004.2711757478844,1,1
21.18,14.672645999999999,-14.170319000000001,-1.3676338,1004.25854,8.440851346809081,1004.2708909483364,1,1
21.2,15.901067000000001,-13.460101000000002,-2.612781,1004.23114,8.485543970530696,1004.2704961960414,1,1
21.22,15.145869,-12.330428,-1.1119739,1004.24854,8.535145344767095,1004.2700683506081,1,1
21.24,14.304635000000001,-10.519136999999999,0.77705467,1004.2641,8.585187030603294,1004.2696688203207,1,1
21.26,14.29031,-8.483818,2.2352526000000004,1004.3166,8.633349980771634,1004.269484747606,1,1
21.28,14.653585999999999,-4.7945027,2.0127366,1004.2941,8.677144328721253,1004.2694107158636,1,1
21.3,13.277014999999999,-1.6771747,1.9085808000000002,1004.2686,8.712699807281519,1004.2693423828392,1,1
21.32,12.765586,-0.9621915000000001,1.6671271,1004.2766,8.739583615445843,1004.2693081312004,1,1
21.34,13.052386,-0.6761984000000001,1.0847963,1004.2810699999999,8.759134312895991,1004.26932020918,1,1
21.36,14.352506,-3.8936245,1.5961132,1004.2741,8.775963304089018,1004.26934808853,1,1
21.38,15.442307000000001,-5.9527779999999995,1.7570837,1004.26355,8.793831652913697,1004.2693518496046,1,1
21.4,16.336145000000002,-8.860377,1.7996948,1004.2760599999999,8.816769753988716,1004.2693793222315,1,1
21.42,15.08385,-12.487727,1.6860702,1004.27905,8.846149092835345,1004.2694384114847,1,1
21.44,14.744495,-15.981614000000002,0.93330085,1004.3085,8.885498712284893,1004.2696312444676,1,1
21.46,15.447137,-17.230452,1.3120542,1004.33154,8.936455002695899,1004.2700245032112,1,1
21.48,13.922389,-16.606033,1.8517771,1004.336,8.99451334938269,1004.2706094984254,1,1
21.5,11.078421,-15.547857999999998,1.4304163,1004.29895,9.053224634490453,1004.2712284260024,1,1
21.52,8.659626,-14.551642000000001,0.61607933,1004.3085,9.107728975904156,1004.2719094880757,1,1
21.54,7.082292,-12.235096,0.31307763,1004.29364,9.15249171728441,1004.2725895043668,1,1
21.56,5.1177964000000005,-9.561057,0.7297055,1004.2887,9.18168618068122,1004.2732483645456,1,1
21.58,3.5930413999999997,-8.679245,0.6634241,1004.2612,9.194001148158344,1004.2737871592873,1,1
21.6,1.1601235,-8.193055000000001,0.7817844,1004.2661,9.189059651628156,1004.2742355645476,1,1
21.62,-0.66575927,-8.602981,-0.06567383,1004.2466,9.169547672643183,1004.2745322874033,1,1
21.64,-1.291911,-9.303664,-1.3013531999999999,1004.24365,9.139005841640149,1004.274683295484,1,1
21.66,2.0204956999999997,-10.276041000000001,-2.134608,1004.2267,9.101333505181227,1004.2746439863603,1,1
21.68,4.8501415,-11.634511,-1.3581657,1004.2466,9.061632045477747,1004.2745082944678,1,1
21.7,8.138649000000001,-13.598331,-0.8563185,1004.20874,9.026917008353859,1004.2741516312514,1,1
21.72,12.177586999999999,-15.571686999999999,-0.8137085999999999,1004.2387,9.00486756553461,1004.2737088577608,1,1
21.74,14.514913,-17.154182000000002,-1.0409598,1004.2561599999999,8.999722468218321,1004.2732544472168,1,1
21.76,15.642949,-15.972076999999999,-0.4065493,1004.2212,9.009251868747448,1004.27266553405,1,1
21.78,16.450737,-13.655529999999999,-0.20770416,1004.25854,9.029678130940667,1004.272094318453,1,1
21.8,16.833123999999998,-11.949103,1.7807461,1004.2886,9.058285033452274,1004.2716490128051,1,1
21.82,17.25375,-7.964262,3.4235847,1004.27356,9.091085528092703,1004.2712624202887,1,1
21.84,15.791134,-3.4074332999999997,3.4425225,1004.25854,9.12167071802181,1004.270875026428,1,1
21.86,12.330557,-3.088074,0.16631475,1004.2710599999999,9.142280117605829,1004.2705333911175,1,1
21.88,12.091569999999999,-2.1538289,-1.6043525,1004.24585,9.153322695210283,1004.2701426619496,1,1
21.9,13.769283999999999,-1.0575211000000002,0.13317436,1004.2612,9.158832491975456,1004.2697652200734,1,1
21.92,13.406020000000002,-3.5456638,2.3204696,1004.3011,9.159951875312956,1004.2695445176394,1,1
21.94,12.913704,-7.125348599999999,1.4635425,1004.2861,9.158771005531593,1004.2694091047052,1,1
21.96,14.122995999999999,-9.341797999999999,0.62081873,1004.2811,9.159974344481936,1004.2693315410596,1,1
21.98,13.124020000000002,-11.529647,0.90961766,1004.31146,9.164419928789432,1004.2694146682746,1,1
22.0,8.463714,-14.818570999999999,1.1747445,1004.3061,9.170909638000524,1004.269620186676,1,1
22.02,6.465758,-15.514489000000001,-0.15562294,1004.2836,9.178564725266462,1004.2698521100633,1,1
22.04,3.8844078,-16.777618,-0.85633826,1004.2882699999999,9.188124188332676,1004.2701233419724,1,1
22.06,4.797343,-15.457282999999999,-0.49652416,1004.27075,9.197148621509609,1004.270365258456,1,1
22.08,3.7840168,-12.745111999999999,0.3982776,1004.2811,9.199658382396297,1004.2706176609304,1,1
22.1,2.8567271,-10.4095,0.68234116,1004.26074,9.191237708730199,1004.2708051241773,1,1
22.12,2.6033904999999997,-9.403756,0.20416562,1004.2511599999999,9.170993710485739,1004.2709000442552,1,1
22.14,3.2629952,-8.469510000000001,-0.25033796,1004.2557400000001,9.138962504795725,1004.2709293394768,0,0
22.16,4.9645980000000005,-7.201606,-0.30715144,1004.2533599999999,9.095951011789083,1004.2708919751126,0,0
22.18,6.5992837,-7.7020946,-0.7332486,1004.2587,9.046336696598953,1004.27081506885,0,0
22.2,7.2015313999999995,-6.901312400000001,-0.12724544,1004.2457,8.99066392110933,1004.2706567002283,0,0
22.22,7.4166155,-6.291193499999999,-0.5059985,1004.2587,8.929346473879507,1004.2704737215934,0,0
22.24,7.631698599999999,-6.1958613,-0.78059477,1004.2686,8.863516594845848,1004.2703052962739,0,0
22.26,8.592432,-6.1386629999999975,-1.0078468,1004.2557400000001,8.795488885880951,1004.2701040405949,0,0
22.28,9.677439999999999,-5.7668715,-0.4160469,1004.2586699999999,8.727146537214404,1004.269885048531,0,0
22.3,10.169753,-5.180585,-0.38764116,1004.2636,8.659077189104577,1004.2696689209687,0,0
22.32,9.839939,-5.175818,-0.17932798,1004.2533599999999,8.590870103457489,1004.2694192385388,0,0
22.34,9.285474,-5.447511,-0.037296552000000004,1004.2633,8.522050939409944,1004.2691765898852,0,0
22.36,8.611514,-5.814536,-0.07990682,1004.24335,8.452160281248432,1004.2688692098112,0,0
22.38,7.865856599999999,-5.838369,-0.018360298,1004.2836,8.380337401286694,1004.2686506396227,0,0
22.4,7.7320156,-5.8908005,0.00531107,1004.27325,8.306908902876483,1004.2684740687014,0,0
22.42,7.612513000000001,-6.07193,-0.15092497,1004.28314,8.232364030901353,1004.268370847988,0,0
22.44,7.665082000000001,-6.34839,-0.17459773,1004.28076,8.157549079797148,1004.2683242431128,0,0
22.46,7.5599194,-6.1863269999999995,-0.23614566,1004.28815,8.082384729475232,1004.26835443577,0,0
22.48,7.225326,-6.3007235999999995,-0.29295918,1004.2456699999999,8.006807768479254,1004.2682994500328,0,0
22.5,7.129722,-6.2149262,-0.48233604,1004.2632,7.930887579585508,1004.2682325066156,0,0
22.52,7.349585,-6.2339915999999995,-0.6243689,1004.2832599999999,7.855326212353015,1004.268227454388,0,0
22.54,7.7799864,-6.2578297,-0.36869103,1004.26074,7.781047382706799,1004.2681960354042,0,0
22.56,7.832565299999999,-6.2387643,-0.19351795,1004.27075,7.708219505137287,1004.2681774678624,0,0
22.58,7.894704300000001,-6.2053980000000015,-0.18878345,1004.2782,7.636993921580314,1004.2681971426983,0,0
22.6,7.8277884,-6.1863317,-0.23612733,1004.26575,7.567308892380443,1004.2682057176697,0,0
22.62,8.100239,-6.1958647000000004,-0.34975293,1004.27325,7.499701842658746,1004.2682314539309,0,0
22.64,8.042883,-6.343628400000001,-0.34975284,1004.25824,7.434268478629763,1004.2682182252568,0,0
22.66,7.6413800000000025,-6.5438237,0.06687488400000001,1004.2632,7.3705988714392445,1004.2681884707896,0,0
22.68,7.3545933,-6.6057887000000015,0.19943832,1004.26575,7.308357412464094,1004.2681534012476,0,0
22.7,7.0534663,-6.4246597,0.36987704,1004.2861,7.246895933649162,1004.2681870215558,0,0
22.72,7.220761,-6.2292309999999995,0.3509395,1004.30066,7.186334173871903,1004.2683336311824,0,0
22.74,7.3784956999999975,-6.0719347,0.10475059,1004.2658,7.126813254308599,1004.2684540543763,0,0
22.76,7.4023957,-6.1720324,0.25625163,1004.2351,7.068603155801787,1004.2684403857147,0,0
22.78,7.2829022,-6.4484925,0.5261128,1004.26575,7.011969462835356,1004.2684186226967,0,0
22.8,7.440636599999999,-6.6725205999999995,0.54031616,1004.26575,6.957487894265138,1004.2683897858524,0,0
22.82,7.502775,-6.6105550000000015,0.16629826,1004.2707,6.905087579438814,1004.2683726223877,0,0
22.84,7.5696936,-6.009969,-0.49178386,1004.2507300000001,6.854043493214044,1004.2682939433097,0,0
22.86,7.4740990000000025,-5.976604,-0.9746929,1004.2758,6.804259834546784,1004.26825144428,0,0
22.88,7.6222744,-6.396061,-0.8421296,1004.26074,6.756530924977479,1004.2681868509384,0,0
22.9,7.928183,-6.3722277,-0.72376937,1004.2557400000001,6.711228868375035,1004.2680849675979,0,0
22.92,7.923404,-6.315029,-0.39236093,1004.26276,6.668114554125864,1004.2679757735955,0,0
22.94,7.717873599999999,-6.276897,-0.39709514,1004.26526,6.626706770128113,1004.2678695129897,0,0
22.96,7.4549856,-6.448493,-0.65748733,1004.27325,6.58679556293136,1004.2677949908716,0,0
22.98,7.2542357000000015,-6.6915869999999975,-0.49651748,1004.2856400000001,6.548356263674849,1004.2677933851606,0,0
23.0,7.0965032999999975,-6.710653999999999,-0.41129804,1004.2679,6.511135424339117,1004.2677923501683,0,0
23.02,7.1538619999999975,-6.343629,-0.43023556,1004.27075,6.474700000021085,1004.2678020831884,0,0
23.04,7.4600285999999985,-6.1243734000000005,-0.38286784,1004.27325,6.439273699935456,1004.2678302957856,0,0
23.06,7.440920399999999,-6.348402,-0.28344426,1004.2832599999999,6.40512776090649,1004.2679107713714,0,0
23.08,7.345336,-6.7106604999999995,-0.018316567,1004.29315,6.372577044159477,1004.2680727408223,0,0
23.1,7.326227999999999,-6.991887599999999,-0.032518793,1004.258,6.341923044646326,1004.268179595162,0,0
23.12,7.216303999999999,-6.572431,-0.43967652,1004.26276,6.312314120549872,1004.2682545011137,0,0
23.14,7.216315,-6.372236,-0.6953333,1004.2632,6.283488970319805,1004.268302491809,0,0
23.16,7.2928023,-6.319804,-0.79475486,1004.248,6.2555238192197935,1004.2682718074167,0,0
23.18,7.479226,-6.3579364,-0.71900344,1004.253,6.228751635917864,1004.2681897161807,0,0
23.2,7.4840174,-6.438968,-0.7237366999999999,1004.2655,6.203247377928992,1004.2681074973868,0,0
23.22,7.264158,-6.6153307,-0.6432508000000001,1004.2478,6.178844720033661,1004.2679617418696,0,0
23.24,7.125553599999999,-6.753561500000001,-0.49174893,1004.2430400000001,6.155469647230673,1004.267743234024,0,0
23.26,7.135127499999999,-6.419903,-0.45860678,1004.29315,6.132627958942353,1004.2676416248493,0,0
23.28,7.2163935,-6.472335299999999,-0.52488756,1004.2375,6.1105450356423034,1004.2674433331326,0,0
23.3,7.2785416,-6.291207,-0.6432467,1004.2679,6.089075344710778,1004.2672697665727,0,0
23.32,7.3359103,-6.5104685,-0.46333832,1004.2601300000001,6.06859285456776,1004.2670907000007,0,0
23.34,7.527117,-6.2721405,-0.61010355,1004.2649,6.049051417149691,1004.2669245902575,0,0
23.36,7.3837314,-6.3865385,-0.43019542,1004.2778,6.030318786125661,1004.2668169671637,0,0
23.38,7.240349,-6.367472,-0.83735317,1004.273,6.0121733495854475,1004.2667441303163,0,0
23.4,7.383754,-6.3007406999999995,-0.60536635,1004.2655,5.994710319304888,1004.2666752928087,0,0
23.42,7.402886,-6.367473,-0.6621779999999999,1004.2451,5.978040983893652,1004.2665367969327,0,0
23.44,7.398119,-6.2912087,-0.49647272,1004.2451,5.962002156364432,1004.2663372495077,0,0
23.46,7.3598880000000015,-6.3913064,-0.5627536999999999,1004.2476,5.946660893443897,1004.2660934753052,0,0
23.48,7.359902000000001,-6.4437385,-0.558018,1004.26025,5.932062188278723,1004.2658570399085,0,0
23.5,7.4985275,-6.24831,-0.5958922,1004.27527,5.91813214425434,1004.2656820122479,0,0
23.52,7.579795,-6.1720457,-0.45385909999999996,1004.245,5.9048567872560325,1004.2654529025633,0,0
23.54,7.5936923,-6.2292333,-0.44443074,1004.2373699999999,5.892304287908996,1004.2651493627968,0,0
23.56,7.541108,-6.2816653,-0.406556,1004.26764,5.880417494108182,1004.2648901213527,0,0
23.58,7.6080194,-6.286432,-0.48230708,1004.268,5.86928205568866,1004.2646722511763,0,0
23.6,7.550654400000001,-6.2054,-0.5201829000000001,1004.27527,5.858655752029277,1004.2645178929837,0,0
23.62,7.4837320000000025,-6.2959647000000025,-0.47283942,1004.25494,5.848525964600661,1004.2643470216702,0,0
23.64,7.493284700000001,-6.310264,-0.53438723,1004.29065,5.8389122228105474,1004.2642907304996,0,0
23.66,7.4645996,-6.334096400000001,-0.43969977,1004.2425,5.8297657559929155,1004.2641625449913,0,0
23.68,7.4837130000000025,-6.357929,-0.61013883,1004.23773,5.821146290729993,1004.2639541231143,0,0
23.7,7.4645867,-6.3531629999999994,-0.53912336,1004.2554,5.812978245293134,1004.2637391667006,0,0
23.72,7.4406820000000025,-6.3531623,-0.6196089,1004.2549,5.80521061339617,1004.2635174102134,0,0
23.74,7.459795,-6.3960614,-0.45863965,1004.2576,5.797894399478206,1004.2633001635044,0,0
23.76,7.5028067,-6.2339983,-0.49178106,1004.2624,5.790857956968098,1004.2631049637238,0,0
23.78,7.316389,-6.3579288,-0.42549995,1004.2576,5.783959237270416,1004.262912667328,0,0
23.8,6.967456299999999,-6.4770923,-0.44443816,1004.26526,5.7768353504667225,1004.2627512046306,0,0
23.82,7.110844999999999,-6.5724235,-0.29293769999999997,1004.2778,5.769879062711097,1004.2626627118544,0,0
23.84,7.498003,-6.305496,-0.36395437,1004.25995,5.763337451360084,1004.2625747538748,0,0
23.86,7.693969,-6.2959629999999995,-0.49178386,1004.2624,5.7574978562535355,1004.2624964050897,0,0
23.88,7.655724,-6.3293285,-0.4775812,1004.25494,5.752280828935918,1004.2623999730451,0,0
23.9,7.364149,-6.3626943,-0.5770043,1004.2649,5.747226248525607,1004.2623237657876,0,0
23.92,7.3545837,-6.4532585,-0.47758234,1004.26276,5.742430707562446,1004.2622579994977,0,0
23.94,7.249422,-6.586722,-0.023080073,1004.2425,5.737878880544102,1004.2621287596061,0,0
23.96,7.1824985,-6.4770913,-0.354489,1004.2724599999999,5.733316186919786,1004.2620517557033,0,0
23.98,7.526638,-6.50569,-0.5864754,1004.2651400000001,5.729358290018128,1004.2619948327341,0,0
24.0,7.5553107000000015,-6.5390562999999995,-0.54386634,1004.2496,5.726034324470457,1004.2618999142006,0,0
24.02,7.4692674,-6.7058854000000006,-0.392366,1004.2799,5.723362800679653,1004.2618808444934,0,0
24.04,7.215704400000001,-6.7297125,-0.4681378,1004.2343,5.720929140942713,1004.2617647034599,0,0
24.06,6.8572044000000005,-6.8965416,-0.7522035,1004.245,5.718457663594326,1004.2616017283102,0,0
24.08,6.6229796,-6.5867147,-0.43026528,1004.2576,5.715122284334832,1004.261443317246,1,2
24.1,7.239559,-6.5104494000000015,-0.084655106,1004.2769999999999,5.711838161235442,1004.2613593492875,1,2
24.12,9.572088,-4.7563567,0.73439556,1004.26276,5.710642065354331,1004.2612901975419,1,2
24.14,11.154189,-3.6457483999999996,0.49293956,1004.2545,5.7134388835409835,1004.2612046503483,1,2
24.16,12.583335,-2.4207425,1.1320827,1004.2496,5.722079047904646,1004.2610872841072,1,2
24.18,12.396908999999999,-3.1547923,1.2977855,1004.2496,5.735838229264703,1004.2609422250734,1,2
24.2,11.7994175,-4.6324244000000006,1.1131425,1004.2878,5.753795164200495,1004.2609107389012,1,2
24.22,10.65703,-5.9765935,0.9048273000000001,1004.24146,5.774413482432531,1004.2608128950592,1,2
24.24,9.696274,-6.8250402999999995,0.9048259,1004.2973,5.7965608186244815,1004.2608577938181,1,2
24.26,7.45931,-8.202575,0.85274607,1004.2669999999999,5.818374727820936,1004.2609195783036,1,2
24.28,3.2578482999999996,-10.142563,-1.5428642,1004.2596,5.839076085667492,1004.2609694205934,1,2
24.3,-0.19796509,-12.01582,-3.924271,1004.2373699999999,5.862622941355023,1004.2609285033265,1,2
24.32,-0.80023456,-12.883332000000001,-2.9537193999999998,1004.2474,5.88984604998708,1004.2608436462172,1,2
24.34,1.2311667,-12.859499000000001,-2.3003728,1004.262,5.919969503348923,1004.2607728293492,1,2
24.36,4.6917290000000005,-13.355220000000001,-2.4992192,1004.2524,5.9551511049043615,1004.2606801133791,1,2
24.38,7.984999,-13.936741,-1.7559191000000005,1004.2571,5.998382490675851,1004.2605853011397,1,2
24.4,10.241052,-13.541115,-0.3403334,1004.2499,6.050282059220625,1004.2604630579607,1,2
24.42,11.569823,-11.548695,-0.3024595,1004.2471,6.108342475579484,1004.2603069368789,1,2
24.44,11.880495,-9.346544999999999,-0.07047509,1004.2594,6.1690737133820415,1004.2601657233188,1,2
24.46,10.704647,-8.593428999999999,0.56866807,1004.2824,6.229083126212304,1004.2601209904127,1,2
24.48,9.600499000000001,-8.016675,0.58287,1004.2621,6.285707233237513,1004.2600885888517,1,2
24.5,10.240977,-6.925132799999999,1.4824053999999998,1004.26996,6.338991099624032,1004.2600954959123,1,2
24.52,10.609007,-5.070942,2.6186613999999997,1004.2774,6.38829094217921,1004.2601638952057,1,2
24.54,11.723527,-3.531364,3.1205838,1004.2645,6.435116319310239,1004.2602399427988,1,2
24.56,13.02365,-2.921245,1.9748592,1004.2549,6.481368565066034,1004.2602879146576,1,2
24.58,14.137362,-4.2606483,0.61135226,1004.22687,6.529619801329021,1004.2602099980996,1,2
24.6,14.443287,-4.2225160000000015,0.27994559999999996,1004.2774,6.580029770173378,1004.2602030350356,1,2
24.62,13.941425,-6.348401,-0.6953401,1004.2696,6.632756215817153,1004.2602307115463,1,2
24.64,14.209113,-10.957663,-2.267161,1004.28705,6.693058764549441,1004.2603517159496,1,2
24.66,15.786464000000002,-14.708942,-3.1619618,1004.2768599999999,6.767572949489129,1004.2605180652631,1,2
24.68,16.187983,-17.187551000000006,-1.9972967000000001,1004.2969400000001,6.858299503877628,1004.2607961704813,1,2
24.7,15.839078,-18.012167,-1.178243,1004.3172599999999,6.963689095602356,1004.2612451740382,1,2
24.72,12.153865,-17.31625,-1.6232756000000002,1004.3144,7.075842864899149,1004.2618332709548,1,2
24.74,8.344377,-15.333364000000001,-1.8031814999999998,1004.29926,7.18594527782049,1004.2624876496147,1,2
24.76,4.965075499999998,-11.782278,-1.0267373,1004.3023699999999,7.284022486772266,1004.2632094350599,1,2
24.78,2.8189613999999996,-9.637329,-1.2918622,1004.29443,7.365503180248545,1004.2639595987132,1,2
24.8,0.93095654,-8.255028,-1.7463636000000002,1004.2819,7.4286276217561875,1004.2646870287621,1,2
24.82,-0.40259212,-8.321759,-1.3250002,1004.24457,7.475195619972426,1004.2652573646493,1,2
