Timestamp,Ax,Ay,Az,P,LPFRMSAcc,LPFPValue,Value,Type
0.0,5.3222947,5.041394,6.1271133,1003.06085,0.0198581682001291,3.61101906,0,0
0.02,5.6377497000000005,4.836432,7.268103599999999,1003.1011,0.058933418827232666,10.3998797928,0,0
0.04,5.6950946,5.1605587,6.5579414000000025,1003.0986,0.11424699081064985,19.972232529048,0,0
0.06,5.4178534,4.9222302,6.8514740000000005,1003.10614,0.1835497868867727,31.969645473692154,0,0
0.08,5.642492,5.2415905,6.3685637,1003.0935,0.26489611497839505,46.06660542787444,0,0
0.1,5.145379,5.0223293,6.231264,1003.0935,0.3555958023911172,61.96797606384956,0,0
0.12,4.911157,4.779235,7.3249106,1003.08606,0.4553063117728284,79.40645225996731,0,0
0.14,4.786868599999999,4.4265099999999995,7.5663643,1003.0885599999999,0.5625308571493525,98.14034541472107,0,0
0.16,3.4819705,3.9546216,7.4716754000000005,1003.0936,0.6742521131635612,117.9514451227685,0,0
0.18,4.351882,4.807835,8.082413,1003.1089,0.7920795734271356,138.64309966235723,0,0
0.2,4.1558976,4.092852,7.4195943,1003.0960699999999,0.9129566655654956,160.03827630675337,0,0
0.22,3.1664654999999997,4.1595845,7.7036576,1003.1239,1.0358273676097531,181.97816263503742,0,0
0.24,3.7782682999999997,3.9498559999999996,7.6894526,1003.1544,1.1602755827179234,204.32048064922319,0,0
0.26,3.5488253,3.687696,8.2007675,1003.1898,1.2861529740050972,226.9380823962204,0,0
0.28,2.577446,2.7773101000000002,6.3873916,1003.1441699999999,1.40818413324492,249.71733721524083,0,0
0.30000000000000004,3.6337302000000014,3.8402534,9.597313,1003.1366,1.533715489243156,272.5573961193524,0,0
0.32,1.8890425,3.7258577000000006,8.711974,1003.1214,1.6591951442051285,295.36890258099567,0,0
0.34,1.3966702,4.0356846,6.8750205,1002.9569,1.7809177092147048,318.07246648121213,0,0
0.36000000000000004,3.7052633999999998,3.1395738,7.1448765,1002.9823,1.900016629816128,340.5990109441109,0,0
0.38,3.456654,2.548522,3.5419892999999996,1002.952,2.009982724193617,362.8879363921295,0,0
0.4,5.0721755,1.1995877000000001,4.3089580000000005,1003.0127,2.1139686790450813,384.88688006698715,0,0
0.42,5.0769033,-0.07784821,2.457801,1003.0204,2.2099651478886218,406.5504273698502,0,0
0.44,8.656918,1.3902528,5.6487846,1003.02527,2.3085099914877225,427.8396472001284,0,0
0.46,4.426737999999999,-2.2847612,5.4073253,1003.1112,2.4025549058040423,448.7217794322419,0,0
0.48,8.236186,-2.8376803,6.1364183,1003.08344,2.4991511413959064,469.1689334505812,0,0
0.5,8.503797,-4.734769,6.4252114,1003.1089,2.5997468635489684,489.15822262076375,0,0
0.52,11.199556,-4.9492626,4.6498055,1003.0886,2.7064969117204023,508.6709078901023,0,0
0.54,11.505403999999999,-4.9826274,3.1016493,1003.1062,2.817923111940517,527.6922836456854,0,0
0.56,10.7358,-5.859672,2.675548,1003.1012,2.932257219711206,546.2110433621942,0,0
0.5800000000000001,11.868561,-7.813959,4.005911,1003.13916,3.0534125686671323,564.2191606675975,0,0
0.6,13.541437,-6.6461515,3.8023263999999997,1003.1139,3.1818063830868946,581.7111541802485,0,0
0.62,13.699114999999999,-5.1589847,0.13315760000000001,1003.1164,3.314227122896849,598.6841385329782,0,0
0.64,12.96297,-4.5965295,-1.5807021,1003.1341,3.4480777570352577,615.1374873683312,0,0
0.66,13.12543,-3.3429232000000004,-2.215117,1003.1315,3.5824606996089607,631.0724448447231,0,0
0.68,12.021239999999999,-2.899632,-3.1335967,1003.1089,3.7148192470350168,646.4919045094219,0,0
0.7000000000000001,10.424729,-3.176091,-1.1356831,1003.1365400000001,3.84117127093938,661.400459756916,0,0
0.72,9.315759,-4.0817356,-1.5617846000000002,1003.1518,3.960374965304797,675.8039639984767,0,0
0.74,9.808023,-4.2628636,-2.8448130000000003,1003.1266,4.07444680539386,689.7092618359254,0,0
0.76,10.027842,-4.920647,-1.6943578999999998,1003.1518,4.184054798144943,703.1243761424859,0,0
0.78,10.491992,-6.312494,0.029012185,1003.1492,4.2912917540170135,716.0580605096494,0,0
0.8,10.090457,-6.951212,0.43143377,1003.1722,4.396080898296502,728.5198749186404,0,0
0.8200000000000001,8.68994,-6.2028620000000005,0.76757324,1003.15436,4.495094939885806,740.5198182767177,0,0
0.84,8.622993,-5.559376,0.3130678,1003.1619999999999,4.587735840863743,752.0684800821189,0,0
0.86,8.565599,-6.302958,-0.03254715,1003.1366,4.675181396672996,763.1767228850757,0,0
0.88,7.9011770000000014,-6.121828,-0.47758377,1003.1416,4.756416111633714,773.855839783382,0,0
0.9,7.8485637000000015,-6.7081137,0.6586701,1003.1594,4.8325750489416155,784.1174002915053,0,0
0.92,7.074205,-7.141869,0.28938368,1003.1441699999999,4.903373984565163,793.9730115274333,0,0
0.94,7.0024752999999995,-7.2419667,0.819634,1003.1418,4.969286895127512,803.4344372540007,0,0
0.96,7.2079735000000005,-6.5126824,1.0279448,1003.1443,5.029941874388469,812.5135085318816,0,0
0.98,6.1898446,-5.9025620000000005,-0.098846376,1003.12396,5.083207160666197,821.221973538302,0,0
1.0,5.415481,-5.9502273,-0.946308,1003.1265,5.1288106826654785,829.5716295132373,0,0
1.02,6.0655035999999996,-5.7309647,-0.69065297,1003.12646,5.168045706611449,837.5741829224423,0,0
1.04,6.9545145,-5.754797,-0.7758753,1003.1087,5.202939819646028,845.2411633762953,0,0
1.06,7.9725795,-6.2314515,-0.5580957,1003.1138,5.236105467307142,852.5840487971649,0,0
1.08,9.306111999999999,-6.226684,0.028967477000000002,1003.1265,5.269833491763112,859.6141751793755,0,0
1.1,9.970473,-6.0026555,-0.38292855,1003.1594,5.304866317829662,866.3427576600511,0,0
1.12,10.6826315,-5.340103,-0.43501005,1003.1493,5.341563330241965,872.7806366923999,0,0
1.14,10.70172,-4.2676272000000015,-0.8042965,1003.1391,5.3787639530627445,878.9384370732905,0,0
1.16,10.190257,-4.143696,-0.9936748,1003.1518,5.415228125551388,884.8266375963817,0,0
1.18,9.568843,-4.529786,-0.62439495,1003.1291,5.449995670688111,890.4553404432382,0,0
1.2,9.215102,-4.696614299999999,0.13784105,1003.11646,5.482595583487288,895.8344423091249,0,0
1.22,9.229410000000001,-4.6012830000000005,-0.056272384,1003.15674,5.51309859072762,900.9737769895096,0,0
1.24,9.468367,-5.301966,0.1283662,1003.1291,5.5427604422552665,905.882652275935,0,0
1.26,8.407217999999999,-5.53076,0.60653824,1003.1366,5.569969913394284,910.5702486908272,0,0
1.28,8.488477,-5.6880565,0.6160071,1003.1441699999999,5.5952366548965315,915.0454749997392,0,0
1.3,7.6280785,-6.0550809999999995,0.010000361,1003.1441699999999,5.617662007681923,919.3169402682944,0,0
1.32,7.183531299999999,-6.0693793,-0.15097174,1003.1619,5.636802414162577,923.3930488346242,0,0
1.34,7.393803,-5.811984,-0.27880429999999995,1003.1594,5.652978178539544,927.2818572280285,0,0
1.36,7.6232133,-5.8596497,-0.3450877,1003.1339999999999,5.666917702126976,930.9910760384197,0,0
1.38,7.866942,-5.8644147,-0.07523052400000001,1003.1264,5.679228727438067,934.5282289455428,0,0
1.4,7.8477929999999985,-5.8501142999999995,-0.20306216,1003.1214,5.690010595806402,937.9005926700728,0,0
1.42,7.7999616,-5.521221,-0.32615978,1003.1443,5.698927423243313,941.1152906034556,0,0
1.44,7.6852164000000025,-5.225693700000001,-0.35456887,1003.1315300000001,5.705620566900136,944.1790561592198,0,0
1.46,7.828578500000001,-5.1017632000000015,-0.5628856,1003.1644,5.71045121723543,947.09854664212,0,0
1.48,8.287410000000001,-5.0350304,-0.7333269,1003.1316,5.714374436890764,949.8799274248993,0,0
1.5,8.741468,-5.1208277,-0.5439529000000001,1003.1189,5.718356359007211,952.5292157858332,0,0
1.52,9.166839999999999,-5.344855,0.07625119400000001,1003.1468,5.723344321679778,955.0523502847252,0,0
1.54,9.683021,-5.273356,0.33664003,1003.1518,5.730075105995216,957.4549499469214,0,0
1.56,9.209795,-5.168491,0.6822491999999999,1003.12396,5.737390430328303,959.7422954446288,0,0
1.58,8.268142999999998,-4.639402400000002,-0.18888398,1003.1189,5.742909102388578,961.9195497028026,0,0
1.6,7.5081215,-4.625102,-0.63865536,1003.1239,5.745487548687004,963.9917072263949,0,0
1.62,7.2786592999999975,-5.216154,-0.6055174,1003.1013,5.7457366629237425,965.963460148226,0,0
1.64,8.320627,-5.0683904,-0.7948963000000001,1003.1315,5.7455893659878186,967.839505973422,0,0
1.66,8.612164,-4.8729606,-0.5723822,1003.1365400000001,5.745376272660715,969.6242493870614,0,0
1.68,8.655151,-5.2447515,0.28454214,1003.1214,5.745547444507859,971.3218384095593,0,0
1.7,9.037504,-4.658464,0.81952715,1003.1416,5.746215979732336,972.9363792115644,0,0
1.72,9.090052,-4.720429,0.37922463,1003.13904,5.747423815526086,974.471717043054,0,0
1.74,8.831908,-4.7299604,0.6916923,1003.14667,5.748673459525764,975.9315713816037,0,0
1.76,8.7076025,-4.7776260000000015,1.3829125,1003.1416,5.749925197517909,977.319454778172,0,0
1.78,8.377767,-4.8681893,1.723787,1003.1137,5.750786947119138,978.6386478301787,0,0
1.8,8.393564,-5.1256194000000015,1.3309648,1003.1391,5.7514732061227285,979.8924884387429,0,0
1.82,8.522642999999999,-5.1208534000000006,0.8433234000000001,1003.1062,5.75211413251261,981.083951362091,0,0
1.84,8.470094,-5.044589,0.69182503,1003.1214,5.752513780084075,982.2160628162578,0,0
1.86,8.307606,-5.3782487,1.2836279,1003.15674,5.752899772509638,983.291782935021,0,0
1.88,8.408008,-4.868228,1.04691,1003.12897,5.752840933793566,984.313703105394,0,0
1.9,8.771298,-4.8443955999999995,0.97589636,1003.1695,5.753003793165687,985.2845526367564,0,0
1.92,8.670947,-5.0350585,0.91908574,1003.1289999999999,5.753364605572082,986.2066352931756,0,0
1.94,8.412867,-5.130390599999999,0.45038232,1003.13904,5.753473413043249,987.0823441853323,0,0
1.96,8.484589999999999,-5.3258195,0.43144715,1003.13904,5.753697575873296,987.9139246673748,0,0
1.98,8.269525,-5.259089,0.44565278,1003.0960699999999,5.753572626744701,988.703364904505,0,0
2.0,8.412946,-5.0827265,0.11424689,1003.13904,5.753180200371737,989.4528827283767,0,0
2.02,8.044926,-5.2114244,-0.15087749,1003.13403,5.752047338941621,990.164408807728,0,0
2.04,8.0449505,-5.4020877,0.08111063,1003.1214,5.750480788139518,990.8397584197348,0,0
2.06,8.360444000000001,-5.5021853,0.5356159,1003.1214,5.7492270000418175,991.4807112465927,0,0
2.08,8.346133,-5.4020886,0.16633494,1003.1369,5.7480885868612415,992.0890194439172,0,0
2.1,8.164524,-5.5069537,0.21841551,1003.1315,5.746863587871137,992.6662734970746,0,0
2.12,8.021158,-5.549853,0.03377634,1003.1369,5.7453658280898825,993.214029433855,0,0
2.14,7.791753999999999,-5.535554,-0.3355048,1003.10364,5.743237084439732,993.7336291776325,0,0
2.16,8.293660000000001,-5.9597783,-0.15086056,1003.1142,5.74190994628426,994.2265175661943,0,0
2.18,7.896960000000001,-6.016978,0.0101113,1003.14404,5.7407014679788695,994.6941368270897,0,0
2.2,8.374969,-5.6880856,-0.6148275,1003.1062,5.7400481399026075,995.1376086334392,0,0
2.22,8.236381,-5.7119193,-0.43018326,1003.1138,5.739658637938382,995.5581746104492,0,0
2.24,7.9400573,-5.8978157,-0.07983509,1003.12646,5.739210099992371,995.9570325351376,0,0
2.26,7.791912,-5.873984,0.27524787,1003.10364,5.738442199964397,996.335191184266,0,0
2.28,7.983128,-5.89305,-0.11770557,1003.1213,5.737730519201684,996.6937621583722,0,0
2.3,7.7049866,-5.8882613,0.22782244,1003.13904,5.736606956327394,997.0337984713224,0,0
2.32,7.9630857000000015,-5.8739614,0.45033857,1003.14655,5.735550379677522,997.3562604629483,0,0
2.34,7.791003,-5.8739614,0.18047660000000001,1003.1189,5.734252256578269,997.6619333810828,0,0
2.36,8.077782000000001,-5.76433,0.090522,1003.1517,5.7330886238713,997.9517891313741,0,0
2.38,8.101672,-5.945459,-0.09885506,1003.10614,5.732309111742923,998.2264613354587,0,0
2.4,8.0299635,-6.1742535000000025,-0.06571515,1003.1416,5.732037717344363,998.48685619418,0,0
2.42,8.077751,-5.993124,-0.6433135,1003.1214,5.732110891451927,998.7336254490473,0,0
2.44,8.006045,-5.9073257,-1.0078638,1003.1315,5.732325498320218,998.9675031110313,0,0
2.46,7.939116999999999,-6.0169562999999995,-0.72853464,1003.1441699999999,5.732638833399985,999.1891934139608,0,0
2.48,7.7957125,-6.30295,-0.0893909,1003.1493,5.7331155635885676,999.3993353493393,0,0
2.5,7.795703,-6.26005,0.118922055,1003.1212,5.733679634570918,999.5984154761817,0,0
2.52,7.9534270000000005,-6.269583,0.076311454,1003.14685,5.734586849473327,999.7870970405454,0,0
2.54,7.805242999999999,-6.1170526,0.18993631,1003.14404,5.735359123474457,999.9659010654711,0,0
2.56,8.135039,-6.236217,0.15679449,1003.1619999999999,5.736701614804511,1000.13539825806,0,0
2.58,8.120689,-6.193318,0.08577750599999999,1003.1315,5.738463521216844,1000.2959519437024,0,0
2.6,7.8195520000000025,-6.1075196,0.49293545,1003.1214,5.740009912998242,1000.4479887933388,0,0
2.62,7.7717447,-5.6356306,0.024228474,1003.1062,5.740665595604883,1000.5918981140217,0,0
2.64,7.575762700000001,-5.4497337,-0.4681505,1003.1188,5.739999767392204,1000.7281532365663,0,0
2.66,7.341542,-5.4973993,-0.60544926,1003.1365400000001,5.737851902984043,1000.857218455195,0,0
2.68,7.389329400000001,-5.3115034,-0.6243878,1003.1163,5.7342567332052345,1000.9793931759367,0,0
2.7,7.4036592999999975,-5.378235299999999,-0.8090304,1003.1138,5.729530762665397,1001.0950306237507,0,0
2.72,7.6091814,-5.6070294,-0.70960885,1003.13904,5.724429276946728,1001.2045663063941,0,0
2.74,7.719106,-6.0550857,-0.36873266,1003.1138,5.7197190888275875,1001.3082252768743,0,0
2.76,7.943746000000001,-6.293413,-0.49656254,1003.13385,5.716055820824562,1001.4063905921937,0,0
2.78,8.38348,-6.4411760000000005,-0.586517,1003.1011,5.714248857310056,1001.4992304186784,0,0
2.8,8.593976,-6.069389299999999,-0.4018584,1003.1138,5.713964605680574,1001.5870761398528,0,0
2.82,8.182910000000001,-5.2972074000000005,-0.605438,1003.1366,5.713442718668323,1001.6702749049792,0,0
2.84,7.700147,-5.3019733,-1.1830357,1003.12177,5.711999607223572,1001.7490147161867,0,0
2.86,7.5758696,-5.769096,-1.4339594,1003.0986,5.710176380569547,1001.8234477203916,0,0
2.88,7.972591,-5.7071304000000005,-0.7616741,1003.1189,5.708448976133098,1001.8938803511136,0,0
2.9,8.216358,-5.893026,-0.26456183,1003.1188,5.70739514514726,1001.9605243343553,0,0
2.92,7.9917045,-6.064622,-0.05624823599999999,1003.12897,5.706769422811737,1002.0236173623442,0,0
2.94,7.7288127000000015,-5.893026,-0.2882343,1003.12396,5.705881965287695,1002.0833275953707,0,0
2.96,7.5710770000000025,-5.811994599999999,-0.41606343,1003.1189,5.7044136702580035,1002.1398156179297,0,0
2.98,8.158991,-5.387771,-0.5865022,1003.1163,5.702938832721069,1002.1932437784383,0,0
3.0,7.958236,-5.673764,-0.83269155,1003.1471,5.701492923324798,1002.243886783461,0,0
3.02,8.05383,-5.7023635000000015,-0.4918146,1003.1441,5.700226043127175,1002.2918757102788,0,0
3.04,7.991689,-5.5974994,-0.5249557,1003.1265,5.698894693346492,1002.3372833734579,0,0
3.06,7.996467,-5.5927324,-0.7095977,1003.1419999999999,5.697537849077017,1002.3803025644986,0,0
3.08,8.072942,-5.5307674,-0.7522075,1003.1542400000001,5.6962271978056345,1002.4211004964699,0,0
3.1,8.087278999999999,-5.6546980000000024,-0.6101755999999999,1003.1468,5.69511235176427,1002.4597620673726,0,0
3.12,8.197212,-5.6070322999999975,-0.5959726,1003.1137,5.694304070621722,1002.4962776079796,0,0
3.14,8.077715,-5.6546980000000024,-0.70486414,1003.1165,5.693636879800192,1002.5307755402713,0,0
3.16,8.001235000000001,-5.759562,-0.5580979,1003.1391,5.6930738136751335,1002.563447881299,0,0
3.18,7.910414999999999,-5.7881613,-0.6480518,1003.0988,5.692498592153647,1002.5942444294583,0,0
3.2,7.991669,-5.7404957,-0.62911445,1003.1418,5.691990561315941,1002.6234274594664,0,0
3.22,7.9486490000000005,-5.7309623,-0.5391609,1003.11395,5.691448626202992,1002.650979465927,0,0
3.24,7.8339314,-5.8358264,-0.7285374,1003.1365400000001,5.690840789807033,1002.6770724367584,0,0
3.26,7.886506599999999,-5.7404957,-0.5628333999999999,1003.1415400000001,5.690124748387648,1002.7018002690126,0,0
3.28,7.9343020000000015,-5.7595615,-0.6243809,1003.1137,5.689426889341347,1002.725132620624,0,0
3.3,8.235428,-5.5593660000000025,-0.799554,1003.1137,5.689047162107598,1002.7471479290737,0,0
3.32,8.001215,-5.7786274,-0.36398908,1003.1163,5.6887589021758425,1002.767929603075,0,0
3.34,7.943853999999999,-5.6928296,-0.32611412,1003.12146,5.688348938173088,1002.7875649996516,0,0
3.36,8.158942999999999,-5.6975956,-0.6717258,1003.15674,5.688239362345179,1002.8062438660678,0,0
3.38,8.292775,-5.535533,-0.61017877,1003.1289999999999,5.688427087972988,1002.8239104345154,0,0
3.4,8.178058,-5.6689963,-0.51075655,1003.1239999999999,5.688824172944575,1002.8406009368314,0,0
3.42,8.005982000000001,-5.692829,-0.5675697,1003.1315300000001,5.689147387940223,1002.8563960093053,0,0
3.44,7.9725204,-5.6975956,-0.61964834,1003.0987,5.689359916490465,1002.8712248297096,0,0
3.46,7.9438396,-5.7976933,-0.5675701,1003.1112,5.689540694770532,1002.885191486032,0,0
3.48,7.9772954,-5.688063,-0.53442943,1003.12146,5.689612109631727,1002.8983829902087,0,0
3.5,8.006312,-5.6213393,-0.51546097,1003.1189,5.689553696820653,1002.9108328645343,0,0
3.52,8.015879,-5.6499386,-0.5438668000000001,1003.1315300000001,5.689434357864924,1002.9226280831764,0,0
3.54,8.030225999999999,-5.7405040000000005,-0.44917807,1003.1188,5.689384799216818,1002.9337565572687,0,0
3.56,7.9633136,-5.669005,-0.41130215,1003.12146,5.689194301266612,1002.9442654093707,0,0
3.58,8.121056,-5.5784400000000005,-0.6338186,1003.1189,5.689065116676753,1002.9541797156146,0,0
3.6,8.159301,-5.5450754,-0.5391298000000001,1003.1341,5.689005351883553,1002.9635877096354,0,0
3.62,8.111509,-5.611807,-0.51545715,1003.1265,5.6890010332627465,1002.9724870973973,0,0
3.64,8.144975,-5.4974093,-0.41603407,1003.13403,5.688959321087804,1002.9809321508728,0,0
3.66,8.245357499999999,-5.516476,-0.43497103,1003.1316,5.6890815088750255,1002.9889366043808,0,0
3.68,8.13065,-5.6118073,-0.4207672000000001,1003.1188,5.6892610599862685,1002.9964768477248,0,0
3.7,8.101977,-5.6404065999999995,-0.4917826,1003.14667,5.689482364668049,1003.0036801020917,0,0
3.72,8.068526,-5.7881703,-0.54386044,1003.1164,5.689865731494103,1003.0104506892827,0,0
3.74,8.101992,-5.6785398,-0.67168874,1003.11395,5.690332255150888,1003.0168057776433,0,0
3.76,8.106778,-5.587975,-0.7947826,1003.1289999999999,5.690790538722572,1003.0228250329193,0,0
3.78,8.078108,-5.649941,-0.6716873999999999,1003.1215,5.69124534388162,1003.0284988767623,0,0
3.8,8.035095,-5.626108,-0.7569060999999999,1003.1289999999999,5.691606890185495,1003.0338740892261,0,0
3.82,7.968185000000001,-5.7929379999999995,-0.5533260999999999,1003.1316,5.691944592899728,1003.0389754402376,0,0
3.84,8.054228,-5.683307,-0.56279427,1003.1416,5.692273807931437,1003.0438524424063,0,0
3.86,8.125933,-5.5641437000000025,-0.61960644,1003.1264,5.692582450405901,1003.0484589327305,0,0
3.88,8.068582000000001,-5.6118093,-0.5059800999999999,1003.1391,5.692816548734744,1003.0528555354226,0,0
3.9,8.063809,-5.6547084000000005,-0.53438586,1003.1366,5.693029913632087,1003.057041853634,0,0
3.92,8.102055,-5.6499424000000005,-0.53911966,1003.1189999999999,5.693284104993277,1003.0609639337323,0,0
3.94,8.078161,-5.616576,-0.5249158,1003.1342,5.693491596552002,1003.064693133546,0,0
3.96,8.049489999999999,-5.5546107000000005,-0.56752485,1003.1139,5.693539867237687,1003.0681653992206,0,0
3.98,7.996919,-5.5879769999999995,-0.8279164000000001,1003.1291,5.693435771044,1003.0714528577333,0,0
4.0,8.00581,-5.7976894,-0.56285095,1003.13916,5.693425550785676,1003.0746014017874,0,0
4.02,8.082266,-5.597493599999999,-0.52971196,1003.1418,5.6933838532797285,1003.0776253702671,0,0
4.039999999999999,8.192183,-5.525995,-0.76169956,1003.1391,5.693450532616396,1003.0805186574828,0,0
4.06,8.125246,-5.602258999999999,-0.7001542,1003.1138,5.693577731905836,1003.0831949788997,0,0
4.079999999999999,8.0344095,-5.583192299999999,-0.5723271,1003.1291,5.693563364364094,1003.0857250345796,0,0
4.1,8.048729,-5.6403904,-0.5439224,1003.1214,5.693512897324265,1003.0880890216538,0,0
4.119999999999999,7.9913516000000016,-5.630857,-0.42082970000000003,1003.1443,5.693309305718879,1003.0903802001545,0,0
4.14,8.010452,-5.6070237,-0.48237878,1003.1089,5.6929810631421525,1003.0924713567576,0,0
4.159999999999998,8.058228,-5.5974903,-0.72383535,1003.12396,5.692644684244922,1003.0944324618474,0,0
4.18,8.149025,-5.6165557,-0.6433522,1003.1165,5.692468060857277,1003.0962447374424,0,0
4.199999999999998,8.07253,-5.649921400000001,-0.6386196,1003.1241,5.692341762549037,1003.097946343103,0,0
4.22,8.067728,-5.6117883,-0.69543433,1003.1112699999999,5.692214956946142,1003.0994978470296,0,0
4.239999999999998,8.048589,-5.521223,-0.7238427,1003.12646,5.691953075953879,1003.10096581965,0,0
4.26,8.115487,-5.5545883,-0.8327358,1003.10895,5.691744122571365,1003.1022916633065,0,0
4.279999999999999,8.04855,-5.5545883,-0.5960173000000001,1003.1343,5.691432598536369,1003.1035784087736,0,0
4.3,8.101107,-5.473555999999999,-0.59128475,1003.12885,5.691026209585793,1003.1048063547966,0,0
4.319999999999999,8.096308,-5.373458,-0.47766083,1003.14166,5.69040066701813,1003.1060240410252,0,0
4.34,8.110627000000001,-5.5307536,-0.33563057,1003.1216,5.6897784581629285,1003.1071560620293,0,0
4.359999999999999,8.0771475,-5.616551,-0.4255862,1003.1189,5.689212464608443,1003.1081985939653,0,0
4.38,8.124927,-5.592718,-0.44452557,1003.13916,5.688753349439909,1003.1092312362453,0,0
4.4,8.177484,-5.5593514000000015,-0.5818251999999999,1003.1491,5.688456066985259,1003.1102872065137,0,0
4.42,8.120106,-5.5831842000000025,-0.6197023,1003.13666,5.6882372723619845,1003.1113152038989,0,0
4.44,8.110527000000001,-5.6356160000000015,-0.6528448,1003.1339999999999,5.688138542857863,1003.1123052076547,0,0
4.46,8.225223,-5.5545835,-0.6339090999999999,1003.1214,5.688244981007722,1003.113212716226,0,0
4.48,8.273002,-5.4640182999999976,-0.7428021,1003.1265,5.688526080882117,1003.1140624250212,0,0
4.5,8.235681,-5.492641000000001,-0.7143116,1003.1365400000001,5.6889245089994365,1003.1148941469825,0,0
4.52,8.178342,-5.4831080000000005,-0.6574971,1003.1164,5.689307172251277,1003.1156344775779,0,0
4.539999999999999,8.18792,-5.583206,-0.5533385000000001,1003.0835,5.689794060504023,1003.1161729495732,0,0
4.56,8.197495,-5.5069413,-0.48705529999999997,1003.0884,5.69029178797094,1003.1165487608097,0,0
4.579999999999999,8.211852,-5.449743,-0.54860103,1003.13666,5.690762863420317,1003.1169532280792,0,0
4.6,8.2787895,-5.4688096,-0.6196154,1003.1214,5.69135503779712,1003.1173266237377,0,0
4.619999999999999,8.144972000000001,-5.4974093,-0.42550316,1003.1339999999999,5.691832749216535,1003.1177165802956,0,0
4.64,8.035053,-5.6880727,-0.39236084,1003.13904,5.692242129124915,1003.1181379102214,0,0
4.659999999999998,8.015952,-5.6308739999999995,-0.5107193,1003.14404,5.692500106487044,1003.1186034448673,0,0
4.68,7.9968495,-5.568909,-0.5343897,1003.1289999999999,5.692519803404667,1003.1190522188783,0,0
4.699999999999998,8.044665,-5.6499414,-0.6480138000000001,1003.1341,5.692520763594028,1003.119502927607,0,0
4.72,8.1116,-5.645175,-0.61487144,1003.1189,5.69260888245566,1003.1198990033,0,0
4.739999999999998,8.001682,-5.6356425,-0.47283763,1003.1241,5.692559189697277,1003.1202640993704,0,0
4.76,8.116413,-5.62611,-0.5675244,1003.1011,5.6925821718161735,1003.1205177075008,0,0
4.779999999999999,8.130773,-5.497413,-0.52491283,1003.13403,5.692538091629452,1003.1207904398973,0,0
4.8,8.149908,-5.564145,-0.567521,1003.12646,5.692550494851445,1003.1210518366597,0,0
4.819999999999999,8.154706,-5.578444999999999,-0.45389366,1003.1289999999999,5.692625533255828,1003.1213114202268,0,0
4.84,8.126043,-5.5450800000000005,-0.43968892,1003.1213,5.692666088459573,1003.1215407471536,0,0
4.859999999999999,8.188199000000001,-5.5212474,-0.6195946999999999,1003.1238,5.692775079571175,1003.1217515137367,0,0
4.88,8.145197999999999,-5.468816,-0.7521564000000001,1003.12897,5.692828640560968,1003.12196373364,0,0
4.9,8.178674,-5.573681,-0.5296378,1003.10345,5.692982377727865,1003.1220846017056,0,0
4.92,8.207371,-5.6261134,-0.5533081,1003.1187,5.693337329888038,1003.122179216162,0,0
4.94,8.236067,-5.535549,-0.54383767,1003.1391,5.693811430184977,1003.1223237323177,0,0
4.96,8.08313,-5.721445,-0.63852423,1003.1415400000001,5.69435862780264,1003.1225206053565,0,0
4.98,8.04969,-5.6737804,-0.68113226,1003.13403,5.694860675668896,1003.122735996194,0,0
5.0,8.036146,-5.6452003,-0.58637124,1003.1189,5.695251268435812,1003.1229125059517,0,0
5.02,8.0362,-5.5832367,-0.60530406,1003.12646,5.695470831045853,1003.1230812409523,0,0
5.039999999999999,8.17008,-5.6213703,-0.56742465,1003.1569,5.695807278314091,1003.1233520827317,0,0
5.06,8.184467999999999,-5.435475,-0.52954483,1003.1265,5.696050099305503,1003.1236027310297,0,0
5.079999999999999,8.203641000000001,-5.5165076,-0.5484777,1003.1289999999999,5.696337991427647,1003.1238436340344,0,0
5.1,8.117650999999999,-5.5069766,-0.38276926,1003.14166,5.696489391683347,1003.1241206348468,0,0
5.119999999999999,8.170278,-5.4783782999999975,-0.50585926,1003.1139,5.696588591237633,1003.124328598479,0,0
5.14,8.203786000000001,-5.440247,-0.53899556,1003.1365400000001,5.696658915079262,1003.12455631619,0,0
5.159999999999998,8.175157,-5.416415,-0.49638140000000003,1003.11115,5.69662195262938,1003.1247092648213,0,0
5.18,8.08917,-5.673811,-0.5957993,1003.0986300000001,5.6966552545607545,1003.1247505248782,0,0
5.199999999999998,8.070096000000001,-5.6356792,-0.43955976,1003.1493,5.696655684647957,1003.1248753603752,0,0
5.22,8.012788,-5.5927815,-0.59105617,1003.12885,5.6964950931494105,1003.1249999737227,0,0
5.239999999999998,8.103653999999999,-5.5260506,-0.7756934,1003.1339999999999,5.6962960244022325,1003.1251424821713,0,0
5.26,8.175400999999999,-5.5212855,-0.7094073000000001,1003.1492,5.696170799578433,1003.1253550097008,0,0
5.279999999999999,8.156327000000001,-5.4974537,-0.5957773000000001,1003.12396,5.696035227737157,1003.1255377769908,0,0
5.3,8.175496,-5.6070857000000025,-0.52475667,1003.12646,5.696043448573634,1003.125702590171,0,0
5.319999999999999,8.046491,-5.573721,-0.41112646,1003.12897,5.695907659330682,1003.1258599817724,0,0
5.34,8.099115,-5.578489,-0.643108,1003.10364,5.695766460178718,1003.1259190610573,0,0
5.359999999999999,8.199539999999999,-5.5832567000000015,-0.63836914,1003.11896,5.695797793566816,1003.1259462108933,0,0
5.38,8.390785000000001,-5.4926934,-0.7519901,1003.1339999999999,5.696223399681108,1003.1259991941292,0,0
5.4,8.629822,-5.130436,-0.7567201,1003.13135,5.697019336616187,1003.1260652730176,0,0
5.42,8.395658500000001,-5.273434,-0.82773197,1003.13904,5.697891832090564,1003.1261703693403,0,0
5.44,8.104139,-5.5260625,-0.66675776,1003.1089,5.698584811924014,1003.1262010591215,0,0
5.46,8.089847,-5.368767299999999,-0.789848,1003.1289999999999,5.698929158994623,1003.1262382527997,0,0
5.48,8.319325,-5.1685734000000005,-0.36374706,1003.1165,5.6990880662048005,1003.1262360594237,0,0
5.5,8.012025999999999,-5.1828384000000005,-0.3259993,1003.1418,5.6985565072001325,1003.1262901515423,0,0
5.52,8.078936,-5.0684414,-0.8420502000000001,1003.1037,5.697471841548376,1003.126256622793,0,0
5.539999999999999,8.265338,-4.839646299999999,-0.20764081,1003.1164,5.695914698632955,1003.126191512948,0,0
5.56,8.317908000000001,-4.934977,0.010141104,1003.1189,5.694135755891449,1003.1261077324423,0,0
5.579999999999999,8.427835,-5.044607,0.26579815,1003.1341,5.692487616126504,1003.1260624761508,0,0
5.6,8.356129,-5.058907,0.43623587,1003.1265,5.690861390990312,1003.1260240627772,0,0
5.619999999999999,8.575991,-4.7967463,0.76290905,1003.1441699999999,5.689422425289308,1003.1260554460947,0,0
5.64,8.451707,-4.8777776,0.67295456,1003.12146,5.687999414494582,1003.1260666327878,0,0
5.6599999999999975,8.485158,-4.796746,0.8623299999999999,1003.13403,5.686603416731006,1003.1261051854718,0,0
5.68,8.394332,-4.88731,0.77237546,1003.1189,5.685150839039223,1003.1261133119557,0,0
5.6999999999999975,8.681111,-5.011241,1.0043603,1003.1239,5.684338955051265,1003.126112524594,0,0
5.72,8.98223,-4.8777766,0.8954683000000001,1003.1415400000001,5.684483715604879,1003.1261673677924,0,0
5.7399999999999975,8.920084,-4.672815,0.7155602,1003.1188,5.68513017609138,1003.1261893047183,0,0
5.76,8.848378,-4.5679502,0.7344970000000001,1003.1188,5.685988271860722,1003.1261820866896,0,0
5.779999999999999,8.528124,-4.844410400000001,0.75343394,1003.1264,5.686722568964796,1003.1261764933271,0,0
5.8,8.303463,-4.9016085,0.52618164,1003.1137,5.686970081134382,1003.126126635656,0,0
5.819999999999999,8.996526,-5.263866999999999,-0.31654325,1003.1012,5.688390159772773,1003.1259928455291,0,0
5.84,8.360804,-5.063671,0.89546347,1003.10614,5.6895680420658685,1003.1258031583296,0,0
5.859999999999999,9.345435,-4.386819999999998,0.10481718,1003.1292,5.691585145376547,1003.1256477793498,0,0
5.88,9.809069000000001,-4.015028,0.9191341999999999,1003.1289999999999,5.694989986823722,1003.1255225544777,0,0
5.9,8.752724,-4.6871123,0.3273328,1003.14185,5.698144180209564,1003.1254706845847,0,0
5.92,9.417106,-3.7385674,0.21844052,1003.1341,5.7014819048139405,1003.1254559178824,0,0
5.94,8.647548,-4.8444085,-0.19818799,1003.13385,5.704511672992116,1003.1254730887199,0,0
5.96,8.637981,-4.8444085,0.663473,1003.1062,5.707283100034085,1003.1254188777527,0,0
5.98,9.025138,-4.329619999999999,0.100078195,1003.1164,5.709992005181893,1003.1253385089824,0,0
6.0,8.844561,-4.210482,-0.32118717,1003.12146,5.712200404125992,1003.1252535325044,0,0
6.02,8.992769000000003,-3.9673884,-0.032385323,1003.1213,5.714017214856777,1003.1251642145712,0,0
6.039999999999999,8.758585,-4.310581,0.029164296,1003.1365400000001,5.7153418233579645,1003.1251262460733,0,0
6.06,8.686922000000001,-4.1485186,-0.041848663,1003.12897,5.715945868652349,1003.1251065346223,0,0
6.079999999999999,8.734762,-4.4535794,-0.013438321999999999,1003.1315,5.716280722588501,1003.12511213406,0,0
6.1,8.844724000000003,-4.3725486,-0.23121856,1003.1264,5.716510807238746,1003.1251217180403,0,0
6.119999999999999,8.6918125,-4.7634077,0.10492806,1003.1491,5.716736473064161,1003.1252165082602,0,0
6.14,8.687066,-4.787241000000002,0.16647828,1003.1544,5.716974383157552,1003.1254053254687,0,0
6.1599999999999975,9.150741,-4.339185700000002,0.13334061,1003.1466,5.7176547599626915,1003.1256484651828,0,0
6.18,8.835298,-4.7157445,0.05285787,1003.15674,5.718488513418242,1003.1259752329595,0,0
6.1999999999999975,8.864013,-4.811076,0.3227223,1003.12646,5.719611692933005,1003.126265710128,0,0
6.22,8.663291000000001,-4.7634115,0.17122407,1003.1468,5.720565299011063,1003.126596299198,0,0
6.2399999999999975,8.601196,-4.996974,-0.1128363,1003.1365,5.721490436529748,1003.1269240610228,0,0
6.26,8.496075,-5.1971703,0.18069993,1003.1542,5.722414593929955,1003.1273118647516,0,0
6.279999999999999,8.615597,-5.2400694,0.44582918,1003.1745599999999,5.723610138998562,1003.1278246214133,0,0
6.3,8.682554,-5.1304398,0.42689508,1003.1617,5.725041671743424,1003.1283996445624,0,0
6.319999999999999,8.539195,-5.473633,0.27066305,1003.1645,5.7267855595922015,1003.1290376962967,0,0
6.34,8.276338,-5.526066,0.46477637,1003.1516,5.72841667606125,1003.1296827031024,0,0
6.359999999999999,8.2333555,-5.4974675,0.30380999999999997,1003.10614,5.729822111501178,1003.1301678773847,0,0
6.38,8.051757,-5.4974685,0.22806261,1003.1516,5.730706114659622,1003.1306737330217,0,0
6.4,7.980082,-5.4879355000000025,0.07656384,1003.1441,5.730987192718747,1003.131169041624,0,0
6.42,8.032703999999999,-5.3544730000000005,-0.051261175,1003.13403,5.73066920607591,1003.131616995755,0,0
6.44,7.9753737000000005,-5.4831705,0.09077351,1003.1541,5.729874919447875,1003.1320937468404,0,0
6.46,8.33867,-5.368774,0.024494618,1003.1238,5.729158773796793,1003.1324851466107,0,0
6.48,8.620714,-5.2019453,0.15232687,1003.1492,5.728830627483014,1003.1328911609204,0,0
6.5,8.458236,-5.19718,0.057641905,1003.14386,5.7285508610168625,1003.1332894029848,0,0
6.52,8.281546,-5.335414,-0.11751613,1003.14905,5.728158143007362,1003.133698027822,0,0
6.539999999999999,8.162089,-5.464112,-0.17905977,1003.1718,5.727608283336334,1003.1341962558284,0,0
6.56,8.195584,-5.4212136,-0.13644679,1003.1541,5.726928691327938,1003.1347081435736,0,0
6.579999999999999,8.023549000000001,-5.4021487,-0.032286484,1003.1213,5.725815640050818,1003.1351121782684,0,0
6.6,8.104845,-5.5165467,-0.26426873,1003.1365,5.724604097113764,1003.1354741794827,0,0
6.619999999999999,8.181361,-5.4498158,-0.25479633,1003.1262,5.723363798266858,1003.1357606567099,0,0
6.64,8.171841,-5.364019,-0.26426154,1003.1489,5.721988252247045,1003.1360610896236,0,0
6.6599999999999975,8.114522000000001,-5.340187,-0.2500547,1003.1641,5.720370655830697,1003.1364274922233,0,0
6.68,8.124129,-5.2925224,-0.221644,1003.1389999999999,5.718506019401826,1003.1367605065886,0,0
6.6999999999999975,8.191075999999999,-5.287757,-0.23111011,1003.1441,5.716541596592886,1003.1370811802581,0,0
6.72,8.22457,-5.3354235,-0.22637232,1003.1793,5.714608084855843,1003.1375165152632,0,0
6.7399999999999975,8.267632,-5.1971940000000005,-0.16008686,1003.14636,5.712626937147398,1003.1379330138193,0,0
6.76,8.224651,-5.211494999999998,-0.10800482,1003.1618699999999,5.710549666041023,1003.1383872050932,0,0
6.779999999999999,8.344182,-5.240094999999998,-0.28317459999999994,1003.1669300000001,5.708643991168924,1003.1388912825647,0,0
6.8,8.334664,-5.302061599999999,-0.16481069,1003.1262,5.706943291810826,1003.1392909968013,0,0
6.819999999999999,8.4064,-5.254396400000001,-0.18374471,1003.1491,5.7055037898555,1003.139679496712,0,0
6.84,8.382539,-5.273464,-0.23581977,1003.1337,5.704281597903657,1003.1400012490452,0,0
6.859999999999999,8.30132,-5.3783293,-0.24528499,1003.1795699999999,5.703231311616751,1003.1404279969104,0,0
6.88,8.2105465,-5.373564,-0.34943804,1003.14636,5.7021798012136005,1003.1408264265348,0,0
6.9,8.258379,-5.349732,-0.3257629,1003.18933,5.701185557031216,1003.1413530918156,0,0
6.92,8.248858,-5.3163667000000006,-0.21213362,1003.1767,5.700184795057987,1003.1419457021273,0,0
6.94,8.334936,-5.325901,-0.19319214,1003.1868,5.699342307635883,1003.1426308080706,0,0
6.96,8.263274000000001,-5.283003,-0.22159539,1003.177,5.698470466408943,1003.1433598967736,0,0
6.98,8.186838999999999,-5.411700700000001,-0.2357948,1003.1315,5.697589118558263,1003.1439614239227,0,0
7.0,8.244233,-5.392635299999999,-0.11269694599999999,1003.1491,5.6967758980362,1003.1445114321859,0,0
7.02,8.286286,-5.3735456,-0.13645731,1003.1669,5.696078009419383,1003.1450780183313,0,0
7.039999999999999,8.209809,-5.3830785999999975,-0.1459261,1003.1516,5.695362509944639,1003.1456021329833,0,0
7.06,8.21459,-5.430744,-0.1459261,1003.1768,5.694696798051138,1003.1461775530111,0,0
7.079999999999999,8.162011,-5.4879427000000005,-0.1317229,1003.1617,5.694052084147037,1003.1467418749568,0,0
7.1,8.224149,-5.46411,-0.2169422,1003.1564300000001,5.693511214401934,1003.1472753870779,0,0
7.119999999999999,8.238488,-5.483176,-0.07964446,1003.1539300000001,5.6931065216646175,1003.147770754995,0,0
7.14,8.2289295,-5.4402776,-0.07964446,1003.16925,5.692757771179309,1003.1482857873683,0,0
7.1599999999999975,8.252829,-5.445044,-0.14119172,1003.17426,5.692508043424168,1003.148834377139,0,0
7.18,8.477478999999999,-5.5451417,-0.027565975,1003.1439999999999,5.69284917557126,1003.1493017073026,0,0
7.1999999999999975,8.319745,-5.5832744000000005,0.19495101,1003.17944,5.6934854998772275,1003.1498231380887,0,0
7.22,8.171572,-5.5785074,0.09079412,1003.1542400000001,5.694116692281447,1003.1502997750347,0,0
7.2399999999999975,8.095095,-5.721504,0.14287259,1003.1743,5.694781370691535,1003.1508073322497,0,0
7.26,8.028177000000001,-5.7930025999999994,0.38906163,1003.1717,5.69546016766021,1003.1513310234088,0,0
7.2799999999999985,7.975599000000001,-5.645239,0.22335744,1003.1641,5.695870930647797,1003.1518397252324,0,0
7.3,8.052076,-5.7310370000000015,0.20441984,1003.17426,5.696275307279519,1003.1523699271534,1,1
7.3199999999999985,7.994717999999999,-5.6118736,0.00084044784,1003.164,5.696427878773997,1003.1528802818326,1,1
7.34,8.109434,-5.7358036,-0.041769203,1003.1641,5.696700863464726,1003.1533716222127,1,1
7.3599999999999985,8.004278,-5.5403748,-0.06544122,1003.1488,5.696667583204922,1003.1537893127327,1,1
7.38,7.8752227,-5.8311353,-0.13645731,1003.1415,5.696499079518336,1003.1541141425504,1,1
7.399999999999999,7.7127094,-5.950299,-0.46313122,1003.14404,5.696112469815202,1003.1543648952638,1,1
7.42,7.167812,-6.32209,-0.48206884,1003.1361699999999,5.695155059253612,1003.1545209587387,1,1
7.439999999999999,6.7041710000000005,-6.7367805999999995,-0.23114537,1003.1642,5.69356651624807,1003.1546937009733,1,1
7.46,6.431722,-6.62715,0.005574858,1003.169,5.690860736517124,1003.1548978386886,1,1
7.479999999999999,6.584675999999999,-6.5127525,-0.0370348,1003.16394,5.687232465095497,1003.1551107665545,1,1
7.5,7.4020224,-5.7501035000000025,-0.39684957,1003.1386,5.6830514111210535,1003.1552394708573,1,1
7.52,8.38185,-5.55944,-0.33530527,1003.17163,5.67981476055735,1003.155412199884,1,1
7.539999999999999,8.998444000000003,-6.29349,0.4269338,1003.1513699999999,5.679348124193349,1003.1555502713323,1,1
7.56,9.52422,-6.560417,0.20915107,1003.1564,5.682531537749783,1003.1556753302873,1,1
7.579999999999999,10.513638499999999,-6.3030233,-0.43946248,1003.164,5.690381950654889,1003.1558158011912,1,1
7.6,11.947578,-5.3926105,-0.17907035,1003.1361699999999,5.704080621564604,1003.1558691963974,1,1
7.619999999999999,13.085172,-2.6041746,1.2838606000000001,1003.1666,5.723508568619815,1003.1559550072947,1,1
7.64,13.247684,-1.0359775,0.43640202,1003.14386,5.747704220263593,1003.1559872877773,1,1
7.6599999999999975,11.718143,-1.8033931,-0.07964823,1003.1387300000001,5.773034759560133,1003.1559536845754,1,1
7.68,10.260303,-3.3334580000000003,0.46480826,1003.1616,5.797077601952485,1003.1559443195218,1,1
7.6999999999999975,10.394136,-5.464109,0.62577784,1003.1717,5.821894067108826,1003.1559927650104,1,1
7.72,10.833877000000001,-7.4517636,0.6778562,1003.1311599999999,5.8502294837473805,1003.1559461734897,1,1
7.7399999999999975,10.637903,-8.862663000000003,1.1418278,1003.15656,5.8830818972779735,1003.1559072149977,1,1
7.76,10.112124,-10.068603,0.90037304,1003.18933,5.920649733968197,1003.1559931133003,1,1
7.7799999999999985,8.625605,-10.826486000000001,-0.09385210000000001,1003.1614,5.961302021678108,1003.1560884778323,1,1
7.8,5.0550885,-11.732130999999999,-1.1354213,1003.1692,6.002418393215254,1003.1562199434128,1,1
7.8199999999999985,0.6863471,-11.736897,-2.2385375,1003.15155,6.042015468048188,1003.1563192946032,1,1
7.84,2.2875798,-9.868406,-1.3058602,1003.1717,6.076481377733157,1003.1564624518545,1,1
7.8599999999999985,4.075225,-9.930372,-2.2006626,1003.13354,6.1078344656576045,1003.1565064247752,1,1
7.88,5.743375299999999,-10.097201,-4.061284,1003.1461,6.1391270715034585,1003.1565078161186,1,1
7.899999999999999,7.086499000000001,-10.588158,-2.8966203,1003.1463,6.171833341584665,1003.1564722973717,1,1
7.92,8.596916,-9.124825,-0.5814965999999999,1003.1389999999999,6.2045991038326695,1003.1563780127364,1,1
7.939999999999999,10.891221,-6.9941735000000005,0.6305109,1003.1438,6.2381490717548616,1003.1562494219867,1,1
7.96,10.824303,-6.7415457,0.24228960000000002,1003.1589,6.2718458430148765,1003.1561453412813,1,1
7.979999999999999,11.235364,-6.193392,0.033975687000000004,1003.10834,6.305707004070718,1003.1558812763412,1,1
8.0,10.690466,-5.154282599999998,0.31330544,1003.1589,6.337602235630714,1003.1556588159652,1,1
8.02,10.491205,-4.2868056,0.49808379999999997,1003.1285,6.366547906844684,1003.1553644782396,1,1
8.04,12.154634,-2.918805,0.8910446,1003.1411,6.395251793916861,1003.1550530493038,1,1
8.059999999999999,13.961457000000001,-2.04176,0.9289251000000001,1003.1791400000001,6.42698213609581,1003.1548645837184,1,1
8.08,14.57811,-1.2171469,1.7621855,1003.14636,6.4625071934200795,1003.1546674390257,1,1
8.1,13.445348999999998,-2.8806765,0.8721223,1003.1487400000001,6.499269371205781,1003.1544719031947,1,1
8.12,12.470326,-4.201014499999999,-0.5813347,1003.1388,6.53573206990141,1003.1542427088832,1,1
8.139999999999999,11.734293,-4.4012117,-0.77070564,1003.1539,6.570519457014592,1003.1540389590373,1,1
8.16,11.428439,-6.846456,-0.50083965,1003.1261599999999,6.60531312420375,1003.1537585614212,1,1
8.18,12.575649,-9.968553,-0.6807418000000001,1003.1841,6.645661569528836,1003.1536200312663,1,1
8.2,14.143482,-10.759802,0.16672179,1003.1942,6.694327203832628,1003.153643713909,1,1
8.219999999999999,13.493485,-10.316514,1.3124528999999998,1003.164,6.7486373533879895,1003.1537019225219,1,1
8.24,11.595958,-9.939957000000001,1.0425968,1003.17163,6.804149222100666,1003.1538178967313,1,1
8.26,10.181189999999999,-9.406104,0.29930016,1003.1689,6.857521142543164,1003.1539746671143,1,1
8.28,8.513098,-9.19161,0.07678869,1003.1666,6.906033586172232,1003.1541586406233,1,1
8.299999999999999,6.883245,-8.495695,0.7490796999999999,1003.1561,6.946816957981161,1003.1543281885092,1,1
8.32,6.142429,-7.690148,0.7490846,1003.1511,6.978360281493784,1003.1544663795427,1,1
8.34,5.425512,-7.6806160000000006,0.3466651,1003.14856,7.0006681960298325,1003.1545672221738,1,1
8.36,3.8673537000000002,-8.347936,-0.42503762,1003.1487400000001,7.0143198040974655,1003.1546353487226,1,1
8.379999999999999,1.8598887,-9.244049,-2.3803419999999997,1003.1083,7.021344063642927,1003.1545287380858,1,1
8.4,1.9125273999999997,-10.883746,-3.9852996,1003.1132,7.02668992144814,1003.1542857534698,1,1
8.42,5.9993134,-9.32985,-3.289337,1003.11835,7.0301645754140845,1003.153941683551,1,1
8.44,10.396786,-8.600569,-1.6322907,1003.1108,7.036175470697639,1003.1534823533096,1,1
8.459999999999999,13.422462,-8.905629,-2.2240856,1003.1184,7.049954265557054,1003.1529501926365,1,1
8.48,14.225527,-10.035305000000001,-2.4276597,1003.1259,7.073283402200095,1003.1523825947722,1,1
8.5,14.248887,-10.464282,-1.3577337,1003.17145,7.105285640000672,1003.1519497079582,1,1
8.52,14.167664000000002,-8.977117999999997,-0.9126966999999999,1003.1513699999999,7.142896016981371,1003.1515651222206,1,1
8.54,13.498523,-6.6796374000000025,-0.36823708,1003.16394,7.1817267593846115,1003.1512698518229,1,1
8.559999999999999,13.966973000000001,-5.2544374000000005,0.2945822,1003.1411,7.22120557290029,1003.1509723394333,1,1
8.58,13.082744,-3.8530705000000003,1.2698726999999999,1003.1360000000001,7.258562083586721,1003.1506555570635,1,1
8.6,12.733853,-1.2266983999999999,2.2877731,1003.1335,7.292450647171828,1003.150313888156,1,1
8.62,12.60961,-0.3162868,1.9847740000000005,1003.1689,7.322681161268264,1003.1500788995122,1,1
8.639999999999999,13.704218,0.031670973,0.5218459,1003.11084,7.3515355931479585,1003.149730003508,1,1
8.66,15.185989000000001,0.28429767,-0.71383065,1003.12585,7.3821697023407875,1003.1493357509863,1,1
8.68,16.208899,-2.2848772999999998,-1.1209867,1003.11584,7.416764514956657,1003.1488668047548,1,1
8.7,16.605658,-5.230611,-0.6049334,1003.12335,7.456839926278371,1003.1483605833673,1,1
8.719999999999999,15.3008,-6.4746823,-0.7138220000000001,1003.1536,7.499970031580807,1003.147932148049,1,1
8.74,14.325754000000002,-9.563413,-1.0168208,1003.1663,7.546942840829603,1003.1476197068688,1,1
8.76,14.918484,-12.375682000000001,-0.36820427,1003.1739,7.601574061926649,1003.1474382428974,1,1
8.78,14.56003,-12.35185,-0.6759377,1003.18146,7.662190547498076,1003.1474003796576,1,1
8.799999999999997,12.356572,-10.716922,1.0426541999999999,1003.1941,7.722232876276548,1003.1475350423323,1,1
8.82,11.008699,-10.021004,1.4829566,1003.1789,7.7785806780997335,1003.1477669441192,1,1
8.84,9.708628,-8.705436,0.5834229000000001,1003.1460599999999,7.827496987496438,1003.1479657075397,1,1
8.86,8.657102,-8.219249000000001,0.85802126,1003.1613,7.867415873599484,1003.1481893383503,1,1
8.879999999999997,7.548217299999999,-7.7187600000000005,1.3882773000000002,1003.1334,7.896989449630944,1003.1483336969168,1,1
8.9,6.1860085,-7.127708,1.4498278,1003.1334,7.914537582835657,1003.1484074908369,1,1
8.92,4.608706,-6.722551299999999,0.55976284,1003.12585,7.918531460888613,1003.1483914881779,1,1
8.94,3.5571803999999996,-6.8417163,-0.25455195,1003.11316,7.909589897905162,1003.1482505148712,1,1
8.959999999999997,3.074453,-7.046678999999999,-0.9694440000000001,1003.1005,7.889320706112718,1003.1479540490036,1,1
8.98,2.6299646,-7.361272299999999,-0.6664391,1003.12335,7.859315503504785,1003.1476035171866,1,1
9.0,4.7994639999999995,-7.3898587,-2.190966,1003.10565,7.823381658729494,1003.1471427546112,1,1
9.02,7.6195580000000005,-8.643464,-3.313019,1003.1080300000001,7.788385624194834,1003.146594818883,1,1
9.04,11.620265,-11.436666,-2.3898091,1003.1030000000001,7.763674739915958,1003.1459537215255,1,1
9.06,14.837082,-11.856123,-2.621794,1003.12085,7.7537400334841164,1003.1452968745032,1,1
9.08,16.008144,-11.3127365,-2.8017004,1003.1232,7.758204320059442,1003.1446369357257,1,1
9.1,15.946017000000001,-10.278394,-1.7222555,1003.1384,7.773813264303159,1003.1440313608535,1,1
9.12,16.070301,-7.0657343999999975,-1.4239870000000001,1003.1587,7.7962268923514175,1003.1435490819972,1,1
9.14,15.558873,-5.3164086,-0.9268735999999999,1003.15356,7.822193681646197,1003.1431589797047,1,1
9.16,13.876392000000001,-3.5289492999999994,-0.42502576,1003.1332,7.8467507420647955,1003.1427784329919,1,1
9.18,12.858305,-2.2038467,0.19991659,1003.1283599999999,7.8673194316431925,1003.142390275558,1,1
9.2,11.534308,-2.2944117000000004,-1.0878406999999999,1003.1560699999999,7.881719245519456,1003.1420965466574,1,1
9.22,12.026637,-2.0846834,-1.3292944,1003.1333,7.891588383819003,1003.1418053402327,1,1
9.24,13.4319105,-3.147626,-0.5102414000000001,1003.14355,7.900592648394357,1003.1415543110112,1,1
9.26,14.956678,-4.496562,0.17624822,1003.1584,7.912570110957403,1003.1413931460713,1,1
9.28,15.205237,-4.854054,0.71123683,1003.1460599999999,7.927875871574183,1003.1412675414044,1,1
9.3,13.116473000000001,-5.855030999999999,0.11943717,1003.1510599999999,7.942715643942503,1003.1411918099716,1,1
9.32,12.585925,-8.772164,-0.6854107,1003.16864,7.959152451447903,1003.1412237071617,1,1
9.34,13.737867000000001,-11.775096000000001,-1.0594278999999998,1003.1838,7.982694519331781,1003.1414051661733,1,1
9.36,13.847814000000001,-12.70934,-0.17882758,1003.1813,8.013827091906307,1003.1417091247577,1,1
9.38,12.992238,-10.807485,0.77752304,1003.1864,8.047648585794624,1003.1421385897136,1,1
9.4,11.606105,-9.673044,0.8248681000000001,1003.1763,8.080011101241798,1003.1426410460257,1,1
9.42,10.167394,-8.962828,0.15731779,1003.19635,8.107691728151492,1003.1432783686572,1,1
9.44,8.652206,-8.305043,0.06263069,1003.1762,8.12789016657533,1003.1439600248076,1,1
9.46,7.2517333,-7.632959,0.70177627,1003.17615,8.138408774606043,1003.1446782200923,1,1
9.48,6.1571684,-7.041906,0.9006221999999999,1003.13324,8.137936780893478,1003.145271639854,1,1
9.5,4.8912515999999995,-6.9036937000000025,0.8722825999999999,1003.1206,8.125901831521388,1003.1457071676517,1,1
9.52,3.9735663,-6.760698,0.602425,1003.1079,8.102361725697781,1003.14595589421,1,1
9.54,2.6400402,-6.479472,-0.050919282999999996,1003.0675699999999,8.06693587340987,1003.145893479778,1,1
9.56,2.6926572,-6.369842,-1.1019536,1003.085,8.021147724614655,1003.1456191138587,1,1
9.58,5.1638575,-7.5567160000000015,-2.6358967,1003.11035,7.9716096204714235,1003.1452497153224,1,1
9.6,6.4018583,-9.105847,-3.189819,1003.0928,7.923206631011827,1003.1447344958008,1,1
9.62,10.268763,-9.553905,-1.7505564999999998,1003.11035,7.881292576319712,1003.1441554636464,1,1
9.64,13.452148999999999,-9.949531,-2.0251484,1003.1053,7.85091488454958,1003.1435039511656,1,1
9.66,16.06196,-10.573949,-3.2892309999999996,1003.1510000000001,7.836359245586793,1003.1429552605136,1,1
9.68,18.193792000000002,-6.503311599999999,-3.7200580000000003,1003.14325,7.836182839748129,1003.1424714985156,1,1
9.7,16.946302,-3.3812175000000004,-0.9220212999999999,1003.1103,7.843784289119909,1003.1419282290193,1,1
9.72,13.003003999999999,-3.9627383000000003,-2.1387596,1003.1383,7.85086429629354,1003.1414351344679,1,1
9.74,10.445846000000001,-3.676746,-3.549609,1003.17365,7.853027523477986,1003.1411154096384,1,1
9.76,9.900986999999999,-3.114293,-1.9162358,1003.1483,7.848605449229914,1003.1408587653044,1,1
9.78,10.455484,-2.9712975,-0.036673557,1003.14325,7.839035058536997,1003.1406406028154,1,1
9.8,11.497522,-3.252525,-0.5006414,1003.1281,7.827214874932734,1003.1404026882702,1,1
9.82,11.994657,-3.2954252,-1.3717688,1003.1913,7.81460354202023,1003.1403756973004,0,0
9.84,10.622894,-3.8197476999999997,-0.9030587999999999,1003.1457,7.798865820911522,1003.1403710155687,0,0
9.86,9.733888,-4.0723763,-0.7515545,1003.14575,7.778870364886955,1003.140386243135,0,0
9.88,9.389781,-5.087653599999999,-0.8888485999999999,1003.17114,7.7554721655716685,1003.1405104117372,0,0
9.9,9.566674,-6.5271550000000005,-0.7704850000000001,1003.17114,7.731002173268836,1003.1407303936318,0,0
9.92,9.251244,-7.9285229999999975,-0.68052787,1003.16595,7.706912075592786,1003.1410155602167,0,0
9.94,8.328781,-8.490978,-0.26389664,1003.1432,7.682608311620959,1003.1412753973946,0,0
9.96,7.372861,-7.5758,0.095921904,1003.1609,7.6554489998750785,1003.1415756380942,0,0
9.98,6.8423424,-6.5795910000000015,-0.13606031,1003.1609,7.623623354601812,1003.1419104984793,0,0
10.0,6.6939554,-6.269759,-0.5858483,1003.1457,7.587158909115062,1003.1422200233208,0,0
10.02,6.115626,-6.2030277,-0.86517566,1003.09515,7.545819341090616,1003.1423240673869,0,0
10.04,5.704592,-6.131531,-0.8841106,1003.1305,7.499630265300302,1003.1423734340813,0,0
10.06,5.7763160000000005,-6.222096400000001,-1.2297196000000001,1003.1128,7.449649231506287,1003.1423105901297,0,0
10.08,6.804005,-5.9170370000000005,-1.6605476000000003,1003.1582599999999,7.397723830424391,1003.1423124790897,0,0
10.1,7.525785000000001,-6.2697629999999975,-1.2675893999999999,1003.12036,7.345739596309878,1003.1422351192496,0,0
10.12,8.496114,-5.7788080000000015,-2.5790167,1003.1306,7.295380592203897,1003.142124877666,0,0
10.14,9.093616,-5.6072125,-3.2418310000000004,1003.12036,7.247824805925393,1003.1419491146428,0,0
10.16,10.016148,-5.2926207000000005,-2.4843235,1003.1457,7.203817735075772,1003.1418073136232,0,0
10.18,9.858443,-5.0399942000000015,-2.3138824000000002,1003.1455,7.1625093456399425,1003.1416953119127,0,0
10.2,9.705518,-4.7540010000000015,-1.6747352999999998,1003.1635,7.1229548619283785,1003.1416748440787,0,0
10.22,9.509575,-4.6539044,-0.70417947,1003.1329300000001,7.084415784630616,1003.1416252772623,0,0
10.24,9.318413,-4.658671400000001,0.095937535,1003.1407,7.046513214867664,1003.1415781490247,0,0
10.26,9.132029,-4.8588676,0.56464624,1003.16315,7.009187087048986,1003.1416141651773,0,0
10.28,8.6254,-5.2878585,0.24270943,1003.16077,6.972007029418753,1003.1417149500552,0,0
10.3,8.505932000000001,-5.3212247,0.09594537,1003.1557,6.9349101985111155,1003.1418543497533,0,0
10.32,8.577658,-5.116264,-0.07922493,1003.143,6.89792527478747,1003.1419816476672,0,0
10.34,8.601586,-5.078132,-0.6899605,1003.1532599999999,6.8612235174646745,1003.1421347301724,0,0
10.36,8.639852000000001,-5.216362999999999,-0.8130525,1003.1382,6.825138156526426,1003.1422558288457,0,0
10.38,8.63032,-5.51189,-1.0024261,1003.15576,6.79006839303026,1003.1424114466494,0,0
10.4,8.3101015,-5.840783,-1.4427232,1003.1305,6.755960134051727,1003.1425060693324,0,0
10.42,8.085481,-5.816951,-1.8214728999999998,1003.15076,6.722546480364803,1003.142619392086,0,0
10.44,7.717466,-5.88845,-2.0960653000000002,1003.15076,6.689462398491508,1003.1427488302593,0,0
10.46,7.5549800000000005,-5.8789177000000015,-1.8877491999999998,1003.14795,6.656427202882808,1003.1428819260403,0,0
10.48,7.3924937,-5.8836856,-1.2959461,1003.1227,6.623095557717551,1003.1429268745387,0,0
10.5,7.4443800000000016,-5.8312364,-0.9646011,1003.1227,6.589557168121508,1003.1428937742836,0,0
10.52,7.845884,-5.64534,-0.7515529000000001,1003.1331,6.5563508738663305,1003.1428292693106,0,0
10.54,8.213928,-5.278315,-1.1587117,1003.14825,6.523842739063852,1003.1427917873469,0,0
10.56,8.2569475,-5.3021483,-0.7562871999999999,1003.1382,6.492088609670932,1003.1427421378496,0,0
10.58,8.166131,-5.516643,-0.5858485999999999,1003.1557,6.461178327621088,1003.1427449158573,0,0
10.6,8.237828,-5.4451447,-0.73734957,1003.148,6.431187257256008,1003.1427662888077,0,0
10.62,8.347763,-5.1543849999999996,-0.8699129000000001,1003.1301,6.4020063507527825,1003.1427395753074,0,0
10.64,8.467258000000001,-5.149618,-0.8746474,1003.1455699999999,6.373853009785651,1003.142726160787,0,0
10.66,8.768386999999999,-5.0399876,-1.0119451,1003.1708,6.347156653644942,1003.142815373538,0,0
10.68,9.126872,-4.9732556,-1.0356172,1003.1532,6.322428264585395,1003.1429315865802,0,0
10.7,9.026494999999999,-4.992322,-1.1445085,1003.1402,6.299388577936645,1003.1430244387124,0,0
10.72,8.581974,-5.24495,-0.8036313,1003.15796,6.277324325774557,1003.1431602508773,0,0
10.74,8.218709,-5.345047,-0.79889685,1003.14545,6.255674577091429,1003.1432884976027,0,0
10.76,8.075314500000001,-5.23065,-1.021414,1003.153,6.2341344068561195,1003.143436777818,0,0
10.78,7.974939,-5.397479,-0.73261523,1003.1832,6.2127315645021834,1003.1437109458162,0,0
10.8,7.951039,-5.4832773,-0.5858485999999999,1003.1505,6.1915657536740945,1003.1439776412544,0,0
10.82,7.9319196,-5.540476,-0.6426615999999999,1003.14044,6.170728138171164,1003.1442005578352,0,0
10.84,7.979717699999999,-5.6405735,-0.9314601999999998,1003.15814,6.150504178905624,1003.1444477089177,0,0
10.86,8.060976,-5.3307476,-1.3007438,1003.1606,6.130760200466628,1003.1447242398621,0,0
10.88,7.8984619999999985,-5.6977720000000005,-1.1397741000000001,1003.1505,6.11162419902633,1003.1449893753411,0,0
10.9,7.8793425999999975,-5.7645040000000005,-1.2960094,1003.1605,6.093183528613764,1003.1452794872987,0,0
10.92,8.032297,-5.5595419999999995,-1.3244159,1003.16315,6.075443382519392,1003.1456001640706,0,0
10.94,8.18525,-5.411779,-1.4948545,1003.17334,6.058526850667354,1003.1459833774754,0,0
10.96,8.347763,-5.311681299999999,-1.3244159,1003.1834,6.042517242547469,1003.1464566846812,0,0
10.98,8.347763,-5.3307476,-0.9598665999999999,1003.1605,6.027300956096804,1003.1469254548633,0,0
11.0,8.291314,-5.3879684999999995,-0.79881364,1003.1479,6.0127767114237685,1003.1473431685583,0,0
11.02,8.205316999999999,-5.3879695,-0.65677804,1003.1731599999999,5.998745261661518,1003.1478052009727,0,0
11.04,8.214909,-5.3593707,-0.6520406,1003.17834,5.98518326711624,1003.1483233780908,0,0
11.06,8.186269,-5.3879714000000005,-0.581021,1003.1831699999999,5.972058468209277,1003.1489066872307,0,0
11.08,8.238881,-5.4594703,-0.49106413,1003.1578400000001,5.959529942009449,1003.1494542591133,0,0
11.1,8.210239,-5.4642377,-0.58574885,1003.1251,5.947540056916408,1003.1498504182956,0,0
11.12,8.296312,-5.5309706,-0.8792786,1003.15546,5.9363393654964005,1003.1502206590429,0,0
11.14,8.258108,-5.5405045,-1.0639173000000002,1003.1379,5.925858868024383,1003.1505034493949,0,0
11.16,8.2246895,-5.6024709999999995,-1.0544448999999998,1003.1731,5.916064887082884,1003.1508346705324,0,0
11.18,7.9809527000000005,-5.8217335,-0.9881601000000001,1003.16296,5.906747996253379,1003.1511709887152,0,0
11.2,7.851935000000001,-5.812201,-0.9597502,1003.1379,5.8976536651502505,1003.1514203839024,0,0
11.22,7.871090400000001,-5.7788363,-0.9597469000000001,1003.1683300000001,5.888779667478553,1003.1517016241077,0,0
11.24,7.8328896,-5.769304,-0.97394675,1003.1759,5.880059882970484,1003.152037242106,0,0
11.26,7.91896,-5.7264056,-0.96920925,1003.1731599999999,5.871598264219912,1003.1524098360981,0,0
11.28,7.981136999999999,-5.626309,-0.8271734000000001,1003.1503,5.863352541914668,1003.1527314647394,0,0
11.3,8.03375,-5.5977106,-0.7608887,1003.15533,5.8553713731149415,1003.1530250105337,0,0
11.32,8.033779,-5.6835093,-0.6709321999999999,1003.15027,5.847741344210705,1003.1532744695597,0,0
11.34,8.072061,-5.6739774,-0.656725,1003.1427,5.840500552822157,1003.1534568234648,0,0
11.36,8.186813,-5.526214599999999,-0.8460978000000001,1003.1248,5.8336817523317865,1003.1535147868108,0,0
11.38,8.182068,-5.516682,-0.90764195,1003.17804,5.827252506427556,1003.1536542939906,0,0
11.4,8.225123,-5.5309834,-0.80821604,1003.1425,5.821263247218144,1003.1537374070764,0,0
11.42,8.201260000000001,-5.5166835999999995,-0.77507186,1003.1605,5.815621270164112,1003.1538351911336,0,0
11.44,8.167836,-5.4642525,-0.9597104999999999,1003.1325699999999,5.810222166165037,1003.1538450384384,0,0
11.46,8.129638,-5.526219,-0.90289414,1003.1603,5.805052120885224,1003.1538769773787,0,0
11.48,8.100992999999999,-5.612018,-0.79873395,1003.1452,5.800136059758432,1003.1538739615074,0,0
11.5,8.100024000000001,-5.597695,-0.7751505999999999,1003.1502,5.795439677487033,1003.1538580704224,0,0
11.52,8.12392,-5.6119943,-0.71360373,1003.14026,5.791002272652202,1003.153795076006,0,0
11.54,8.080899,-5.693025,-0.70886964,1003.1528,5.786831936111853,1003.153735831866,0,0
11.56,8.028316499999999,-5.5976944,-0.89351183,1003.1502,5.782741210743116,1003.1536707547494,0,0
11.58,7.927936999999999,-5.6787257,-0.8745745,1003.1376,5.7786591278637385,1003.153555397892,0,0
11.6,7.908813,-5.7549905999999975,-0.84143406,1003.1628400000001,5.77465367616336,1003.1534868931404,0,0
11.62,7.9422679999999986,-5.6787257,-0.95032567,1003.1602,5.770714832190534,1003.1534505295264,0,0
11.64,8.004403,-5.712091,-0.9929355,1003.15015,5.767002449328143,1003.1534065167309,0,0
11.66,8.013958,-5.6215266999999995,-0.7656845999999999,1003.1323,5.763369238794626,1003.1532916435648,0,0
11.68,8.099991000000001,-5.5976940000000015,-0.79882574,1003.14496,5.759942607090296,1003.153160147718,0,0
11.7,8.128667,-5.497596,-0.8319669,1003.1376300000001,5.7566485543364205,1003.1529880494562,0,0
11.72,8.1955805,-5.4880629999999995,-0.83670163,1003.1323,5.753588285322447,1003.152761506454,0,0
11.74,8.300732,-5.4213305,-0.7609516,1003.1424599999999,5.750838368286238,1003.152524247634,0,0
11.76,8.190792,-5.340299,-0.58104455,1003.15295,5.748064415200014,1003.1523161384489,0,0
11.78,8.267266000000001,-5.4213305,-0.66152966,1003.13776,5.7455145140100665,1003.1520798510746,0,0
11.8,8.224243,-5.5023620000000015,-0.6757333000000001,1003.15045,5.743192169532369,1003.1518652000873,0,0
11.82,8.205119999999999,-5.4642295999999995,-0.77042174,1003.1601,5.741016771007018,1003.151705179754,0,0
11.84,8.133419,-5.5309615,-0.8177661,1003.1475,5.73894090457212,1003.1515486471408,0,0
11.86,8.190774000000001,-5.4356303,-0.8319696,1003.13995,5.736951426620723,1003.151368579794,0,0
11.88,8.171650999999999,-5.445163,-0.8461731,1003.14764,5.735025910571902,1003.151196049399,0,0
11.9,8.071271000000001,-5.564327,-0.77989185,1003.15515,5.733118843477375,1003.1510578357643,0,0
11.92,8.147745,-5.635825,-0.76095456,1003.1221300000001,5.731446456951729,1003.1508315699876,0,0
11.94,8.16208,-5.5118947,-0.83197105,1003.14496,5.7298789586428205,1003.1506105038956,0,0
11.96,8.171636,-5.5786266,-0.92192495,1003.1424,5.728520300469303,1003.1503856120823,0,0
11.98,8.119054,-5.5976925,-0.8225029,1003.1424,5.72726545064939,1003.150158149473,0,0
12.0,8.099931,-5.607225,-0.74201834,1003.1502,5.726072236253241,1003.1499573141733,0,0
12.02,8.037560000000001,-5.559554,-0.85566545,1003.1477,5.724794503529477,1003.1497717297713,0,0
12.04,8.004093,-5.5309550000000005,-0.74677485,1003.1578,5.723337442974951,1003.1496366491664,0,0
12.06,8.018419999999999,-5.616752,-0.74677604,1003.1578,5.7218530944772805,1003.149546680007,0,0
12.08,8.176138,-5.454689,-0.7420431,1003.1575,5.720429509350207,1003.1494958152098,0,0
12.1,8.137889,-5.6167517,-0.71837205,1003.1601,5.719184133970147,1003.1494890461403,0,0
12.12,8.166555,-5.5786190000000015,-0.77045166,1003.1727,5.718113074681507,1003.149566624424,0,0
12.14,8.176103999999999,-5.3784230000000015,-0.95982873,1003.1348,5.717019989582527,1003.1495820127479,0,0
12.16,8.238228,-5.387956,-0.92195475,1003.1754,5.716022159456594,1003.149688554625,0,0
12.18,8.209537,-5.4737535,-0.8604086999999999,1003.1296,5.715148877768633,1003.1497103762308,0,0
12.2,8.161726,-5.5357184,-0.8083313,1003.1474599999999,5.714369115425935,1003.1497215564473,0,0
12.22,8.133035000000001,-5.521419,-0.7515196999999999,1003.13226,5.7135996429905775,1003.1496685736834,0,0
12.24,8.003967,-5.58815,-0.6899736,1003.1123,5.7126907223322,1003.149487231248,0,0
12.26,8.008735,-5.5547832999999995,-0.73731863,1003.14484,5.711637643302196,1003.1493102670396,0,0
12.28,8.018282000000001,-5.597683,-0.72785115,1003.1321,5.710526532882877,1003.1490919445037,0,0
12.3,8.113866,-5.5452504000000005,-0.79413384,1003.1297599999999,5.709480029184959,1003.1488294397104,0,0
12.32,8.094735,-5.540483,-0.8982919,1003.1349,5.7084746961073884,1003.1485473444924,0,0
12.34,8.104281,-5.5547824,-0.91723067,1003.1349,5.707546008326247,1003.1482489547176,0,0
12.36,8.190305,-5.5118833,-0.8462156999999999,1003.1221,5.706772649262601,1003.1478911612757,0,0
12.38,8.171173,-5.4737506,-0.82254493,1003.1373,5.706058252253853,1003.1475368868097,0,0
12.4,8.19506,-5.5166492,-0.8840933000000001,1003.1196,5.705500144626305,1003.147123277099,0,0
12.42,8.142469,-5.516649,-0.7231246,1003.16254,5.7049646748733975,1003.1468133117613,0,0
12.44,8.195035,-5.397485,-0.6805161999999999,1003.13214,5.704398211236392,1003.146486602466,0,0
12.46,8.218921,-5.483282599999999,-0.6852518,1003.1398300000001,5.703946655496013,1003.1461739583642,0,0
12.48,8.147212,-5.526180999999999,-0.6331744,1003.16754,5.703517304386572,1003.1459746237856,0,0
12.5,8.108961,-5.6453447,-0.6379099,1003.1575,5.703184350216005,1003.1458399831064,0,0
12.52,8.129882,-5.60249,-0.80818355,1003.14984,5.702948677961552,1003.1457354146629,0,0
12.54,8.063024,-5.588191999999999,-0.82238144,1003.1196,5.702671482635172,1003.1455489304938,0,0
12.56,8.053522000000001,-5.5548269999999995,-0.93600184,1003.1650400000001,5.702324243951906,1003.145454320932,0,0
12.58,8.091819000000001,-5.6120276,-0.95019966,1003.1397,5.7020516721011605,1003.1453500083678,0,0
12.6,8.00584,-5.645395,-0.74188054,1003.1143,5.7017025985985255,1003.145146057756,0,0
12.62,8.087155000000001,-5.6406300000000025,-0.73240644,1003.1170699999999,5.701418027229298,1003.1448647731875,0,0
12.64,8.034633,-5.5214669999999995,-0.7608078,1003.13226,5.700965885426244,1003.1445708529593,0,0
12.66,8.106387,-5.564368,-0.7513337,1003.13226,5.7005386923899115,1003.1442668259747,0,0
12.68,8.049086,-5.654933,-0.5714213,1003.1398300000001,5.700119517845657,1003.1439822151577,0,0
12.7,8.010904,-5.4166074,-0.7986673000000001,1003.1247599999999,5.699396427197873,1003.1436615330656,0,0
12.72,8.283412,-5.3165107,-0.96436626,1003.12726,5.698795456777287,1003.1433191328496,0,0
12.74,8.426864,-5.1496825,-0.9170168,1003.13965,5.6983635239296415,1003.1430033791407,0,0
12.76,8.532078,-5.545308599999999,-0.4009614,1003.1474599999999,5.698634164677572,1003.1427404229984,0,0
12.78,8.556032,-5.4404454000000015,-0.33467472,1003.1371,5.699443705649643,1003.1424877694284,0,0
12.8,8.398356,-5.187819,-0.8081096999999999,1003.13965,5.700227111301942,1003.142254308764,0,0
12.82,7.925214299999999,-5.416616,-0.8601829,1003.1269,5.70043046125814,1003.1419927474094,0,0
12.84,7.681506,-5.6120462,-0.6944731,1003.1269,5.699913981507113,1003.1417072979058,0,0
12.86,7.6767774000000015,-5.7645764,-0.20209035,1003.1497,5.698895927586973,1003.141483848452,0,0
12.88,7.772432000000001,-5.8742094000000025,-0.44353962,1003.1524,5.697750807487588,1003.14132570666,0,0
12.9,7.734248,-5.9218764,-0.46247223,1003.15216,5.696496184009867,1003.1412249760286,0,0
12.92,8.00676,-5.802713400000001,-0.7749372,1003.1296,5.695495802024893,1003.1410941205291,0,0
12.94,8.389198,-5.664485,-0.8885579,1003.1471,5.695228205943264,1003.1410001177758,0,0
12.96,8.628247,-5.526256,-0.92642784,1003.1319,5.695872292071528,1003.1408842965191,0,0
12.98,8.288939,-5.607289,-1.1915493000000001,1003.1496599999999,5.696883192451898,1003.1408135493888,0,0
13.0,7.8430076,-5.5643554,-1.0496461000000001,1003.1572,5.697373633917412,1003.1408100284468,0,0
13.02,8.005519999999999,-5.50239,-0.66615945,1003.1396,5.697534336852385,1003.1408025612402,0,0
13.04,8.273188000000001,-5.3832260000000005,-0.6708939,1003.1371,5.697727783082514,1003.140782633996,0,0
13.06,8.445259,-5.3736935,-0.42943943,1003.1597,5.698211307784371,1003.1408331288004,0,0
13.08,8.249286999999999,-5.397526,-0.1974537,1003.1723,5.698618974158324,1003.1409910267462,0,0
13.1,7.9338174,-5.631087,-0.16904742,1003.1648,5.698688682645124,1003.1412162576747,0,0
13.12,7.9290357,-5.5500555,-0.13117225,1003.1597,5.6983531611115374,1003.1414818131957,0,0
13.14,8.172806,-5.554822,-0.0033434406,1003.1598,5.698081647405874,1003.141782403526,0,0
13.16,8.402235000000001,-5.3546267,-0.11696927,1003.1619999999999,5.698038634100458,1003.1421207884897,0,0
13.18,8.674683,-5.3403273,-0.33948642,1003.1547,5.6986721383806325,1003.1424650706047,0,0
13.2,8.540847,-5.411825,-0.614082,1003.1572,5.69977088883255,1003.1428223240274,0,0
13.22,8.488267,-5.3784595,-0.5762069000000001,1003.1242699999999,5.701142928903729,1003.1430712047853,0,0
13.24,8.397449499999999,-5.473790599999999,-0.3820964000000001,1003.1469999999999,5.7026806652621875,1003.1433052594856,0,0
13.26,8.13456,-5.526222,-0.58094156,1003.1495,5.703985256676723,1003.1435343712848,0,0
13.28,8.005504,-5.712118,-0.689833,1003.1496599999999,5.705094389649209,1003.1437588667341,0,0
13.3,7.9433646,-5.731185,-0.6140825,1003.1521,5.705934733577792,1003.1439872589923,0,0
13.32,8.072419,-5.47379,-0.27793998,1003.1747,5.7064159222898665,1003.1442996322596,0,0
13.34,8.072417999999999,-5.4928565,-0.31581529999999997,1003.1319,5.706602678219291,1003.1445310066023,0,0
13.36,7.9720397,-5.6358533,-0.30161220000000005,1003.1443,5.706525631233706,1003.144734617348,0,0
13.38,7.8286443,-5.735951,-0.4909885,1003.14935,5.706111512081115,1003.1449311431804,0,0
13.4,7.862102,-5.831282,-0.85553783,1003.1544,5.7056263585292415,1003.1451388812903,0,0
13.42,8.158448,-5.597721,-0.6330209,1003.1444,5.705264130303955,1003.1453197787117,0,0
13.44,8.450016,-5.497623,-0.6661618,1003.1745599999999,5.705403784308263,1003.1455848844696,0,0
13.46,8.559951,-5.3069606,-0.8744758,1003.1723,5.70599985915918,1003.1459153063333,0,0
13.48,8.459572,-5.3546260000000006,-0.59514594,1003.15436,5.70683084527833,1003.1462376679892,0,0
13.5,8.289062,-5.4213963,-0.45770523,1003.1569999999999,5.707628700993639,1003.1465612511438,0,0
13.52,8.3895,-5.3308334,-0.49557483,1003.16205,5.708471566250428,1003.1469029287148,0,0
13.54,8.466035,-5.2164373,-0.65180475,1003.1647,5.709378583845545,1003.1472689044733,0,0
13.56,8.552137,-5.2116723,-0.4718914000000001,1003.1596,5.7104651788868575,1003.1476366725976,0,0
13.58,8.284527,-5.5882316,-0.2730411,1003.1416,5.711645605393713,1003.1479399004908,0,0
13.6,7.9930167,-5.6644983,-0.36772385,1003.14435,5.712503053541383,1003.1481949090152,0,0
13.62,7.964403599999999,-5.564401999999999,-0.50501555,1003.14166,5.712916591904318,1003.148396708875,0,0
13.64,7.902325,-5.6073027,-0.5996983,1003.1366,5.712893510409689,1003.1485325510793,0,0
13.66,7.959739999999999,-5.4547744000000025,-0.8979603999999999,1003.1518599999999,5.712449372679098,1003.148664560067,0,0
13.68,8.203577000000001,-5.4738417,-1.0068458,1003.1366,5.7120967148666475,1003.1487377707924,0,0
13.7,8.241878,-5.426178,-0.9026832,1003.1468,5.711816872418394,1003.1487954838144,0,0
13.72,8.318417,-5.316549,-0.94528717,1003.17706,5.7116200440710365,1003.148948231299,0,0
13.74,8.21332,-5.335616,-0.9310785,1003.1542400000001,5.7113330476132145,1003.1491022493435,0,0
13.76,8.113005000000001,-5.4214160000000025,-0.8695255,1003.15936,5.71088001120492,1003.1492752675902,0,0
13.78,8.179984,-5.3213196,-0.95000476,1003.1568599999999,5.710299114897582,1003.1494554515497,0,0
13.8,8.289978,-5.321321,-1.0115466,1003.1415400000001,5.709811128472268,1003.1495861664704,0,0
13.82,8.156206,-5.4500194,-0.64699185,1003.1695,5.709257597614727,1003.1497733559752,0,0
13.84,8.084567999999999,-5.5167527000000005,-0.7890187,1003.17706,5.708624064405568,1003.1500369885404,0,0
13.86,8.170666,-5.4357233,-0.7653409000000001,1003.1542,5.7079723604373775,1003.150284921116,0,0
13.88,8.204183,-5.283195,-0.8458205,1003.1441699999999,5.707205719398037,1003.1504819806238,0,0
13.9,8.342863000000001,-5.211698,-0.84108007,1003.14386,5.706502645811856,1003.1506322632747,0,0
13.92,8.366824000000001,-5.345162999999999,-0.9168248999999999,1003.1592400000001,5.706061734259112,1003.1507960408773,0,0
13.94,8.247387,-5.426196,-0.80792814,1003.1363,5.705718183330528,1003.1508885690196,0,0
13.96,8.175753,-5.569194,-0.7037654999999999,1003.1619,5.7054868940428065,1003.1510099680376,0,0
13.98,8.142356,-5.545363,-0.7605728,1003.1539300000001,5.705279344478707,1003.1511277483252,0,0
14.0,8.078372,-5.5786834,-0.8696331,1003.16437,5.705041977653347,1003.1512794910933,0,0
14.02,8.040118,-5.58345,-0.9832601999999999,1003.14404,5.704741879203433,1003.1513875088353,0,0
14.04,7.9110483999999985,-5.531018,-1.0448089,1003.1492,5.704119824831094,1003.15147507828,0,0
14.06,7.934933,-5.5977488,-0.7465426,1003.16425,5.703278241419502,1003.1515984443596,0,0
14.08,8.197807000000001,-5.435684999999999,-0.9075138,1003.1517,5.702533791852387,1003.151707816228,0,0
14.1,8.336406,-5.3165207,-0.8980464,1003.1617,5.701982082172756,1003.1518404290724,0,0
14.12,8.489346000000001,-5.2450223,-0.9880013000000001,1003.16425,5.701809704739149,1003.1520022802373,0,0
14.14,8.465431,-5.2974544,-0.71814173,1003.1466,5.7019406492768265,1003.1521258437174,0,0
14.16,8.350700999999999,-5.354652400000001,-0.7702215,1003.1489,5.702209765019326,1003.1522234113713,0,0
14.18,8.207292,-5.321285700000002,-0.79862934,1003.1516,5.702317503847262,1003.1523073778693,0,0
14.2,8.15948,-5.3594184,-0.91699064,1003.1514,5.702264021213617,1003.1523783041065,0,0
14.22,7.9252524000000015,-5.7550419999999995,-0.5050991,1003.1564300000001,5.702072929007229,1003.1524555606347,0,0
14.24,7.891779400000001,-5.855139299999999,-0.53824115,1003.1641,5.701831518533433,1003.1525657444853,0,0
14.26,8.016039,-5.6883097000000005,-0.7086812,1003.1438,5.701574315349751,1003.1526315462551,0,0
14.28,8.068603,-5.4642805999999995,-0.95013714,1003.1514,5.701171572822669,1003.1526852551325,0,0
14.3,7.9777713000000015,-5.511946,-0.9785449,1003.1566,5.700548110381264,1003.1527468053778,0,0
14.32,7.839142,-5.592976999999999,-0.8507174999999999,1003.1516,5.699568412771036,1003.1527970626753,0,0
14.34,7.8582463,-5.678775,-0.60452974,1003.1517,5.698374922779479,1003.1528375205977,0,0
14.36,8.020744,-5.6978406999999995,-0.41042057,1003.1517,5.697273101640185,1003.152869174144,1,2
14.38,8.164123,-5.5071783,-0.6613455,1003.1415,5.6963040112589125,1003.1528562141904,1,2
14.4,8.331402,-5.5453105,-0.6755498999999999,1003.16675,5.695789877267567,1003.1528947804044,1,2
14.42,8.417422,-5.4023129999999995,-0.5524568,1003.15155,5.695650989138317,1003.1529240163015,1,2
14.44,8.350491,-5.39278,-0.8128504,1003.15656,5.695753746214716,1003.1529629386816,1,2
14.46,8.259661,-5.178284,-0.84599257,1003.1614400000001,5.6956782176789735,1003.1530278479173,1,2
14.48,8.269206,-5.154451,-0.8081186,1003.12604,5.695429370024798,1003.1529880454657,1,2
14.5,8.308962,-5.3689833,-0.27299196,1003.12604,5.695275289045182,1003.1528558630556,1,2
14.52,8.442843,-5.2831864,-0.206706,1003.1263,5.695341252344114,1003.152643465571,1,2
14.54,8.519364,-5.3546863,-0.31085888,1003.12354,5.695820626964959,1003.1523510186777,1,2
14.56,8.462056,-5.4690843000000005,-0.022055637000000003,1003.1337,5.6966809941991645,1003.1520254689352,1,2
14.58,8.127514999999999,-5.554883,-0.49549204,1003.1666,5.697420372443488,1003.1517902814948,1,2
14.6,8.151458,-5.349923,-0.694333,1003.1564300000001,5.69787986770466,1003.151599172859,1,2
14.62,8.720301,-4.5920415,-1.5796624,1003.1666,5.698519198343629,1003.1514843122462,1,2
14.64,9.289147,-4.606342,-0.81741863,1003.1259,5.700186915896548,1003.1512907178846,1,2
14.66,9.313091,-4.8446712,-0.46706867,1003.1388,5.702980760246715,1003.1510746913224,1,2
14.68,9.255777,-5.164031,-0.2587509,1003.16895,5.706954628460423,1003.1509481613632,1,2
14.7,8.362003999999999,-5.8361173,-0.39130965,1003.1513,5.711131033219344,1003.1508376261103,1,2
14.72,6.8659716,-7.06589,-0.98784035,1003.1816,5.714841585681077,1003.1508507017066,1,2
14.74,6.0534487,-8.491091,0.48456356,1003.1587,5.7192443468027445,1003.1508905127776,1,2
14.76,5.255268599999999,-9.344307,0.15315951,1003.1361699999999,5.7248302269160565,1003.1508726959938,1,2
14.78,4.7343173,-10.049758,-0.5522625,1003.1587,5.732274800356009,1003.1508851313781,1,2
14.8,3.9695894999999997,-9.859097,0.24785565,1003.1487400000001,5.740313019239283,1003.1508883968107,1,2
14.82,5.0307555,-10.535949,-0.3818156,1003.1413,5.751030276892075,1003.1508567639186,1,2
14.84,7.478059299999999,-10.721846000000001,-1.4991311999999999,1003.1410000000001,5.767144235151742,1003.1507933287448,1,2
14.86,9.853672,-9.882933999999999,-1.9062854,1003.1613,5.7898969603444055,1003.1507751014418,1,2
14.88,10.451194000000001,-8.376702,-1.6222168,1003.1563,5.817199781421679,1003.1507788854317,1,2
14.9,10.771482,-6.560645,-1.527525,1003.1563,5.846788106884091,1003.1508021049775,1,2
14.92,10.154935,-4.339431299999998,-0.53802997,1003.13855,5.874864103173644,1003.1507785141904,1,2
14.94,8.458152,-4.048671700000001,0.006430838299999999,1003.1639,5.8980127134439835,1003.1508049067198,1,2
14.96,7.1198554000000005,-4.5491614,-0.23975365,1003.1611300000001,5.914802163173376,1003.1508653974944,1,2
14.98,7.9946036,-4.072507,0.13426836,1003.1613,5.926994329702497,1003.1509564117121,1,2
15.0,8.830615,-3.576774,0.006397823,1003.1309,5.936232669877333,1003.1509646287924,1,2
15.02,10.302821,-3.1239513999999997,-0.3581489,1003.1410000000001,5.9454143609919035,1003.1509360167412,1,2
15.04,12.033135000000001,-2.4232682999999997,-0.6895549,1003.12085,5.957676547414184,1003.1508024254724,1,2
15.06,13.213773999999999,-2.5805655,-1.8873571,1003.14856,5.9753205509279415,1003.1506763114957,1,2
15.08,13.696560999999999,-4.682618,-2.5170302,1003.1561,5.999936618420231,1003.1505844024643,1,2
15.1,13.538853,-4.839915,-0.37234253,1003.1460000000001,6.02998162150992,1003.1504866877953,1,2
15.12,12.702413,-5.178341400000001,-0.48596597,1003.1510000000001,6.063350377576095,1003.1504021950377,1,2
15.14,13.620161999999999,-8.100241,-2.000973,1003.1637,6.104205547777437,1003.150375409335,1,2
15.16,15.379156,-11.174671,-3.033071,1003.1560699999999,6.158341960887633,1003.1503722420143,1,2
15.18,15.465219,-12.514073,-1.5133245000000002,1003.1612,6.225475425393848,1003.1504084232988,1,2
15.2,14.131677999999999,-12.356779,0.14371932,1003.19147,6.30140120610222,1003.1505882147577,1,2
15.22,9.829883,-10.83148,-0.40546885,1003.1687,6.376217397200168,1003.1508122809178,1,2
15.24,7.693334599999999,-9.120287,-0.90257925,1003.1865,6.444241163225924,1003.1511387415652,1,2
15.26,6.455392,-7.9095830000000005,-0.6137781,1003.1484,6.502406023671257,1003.151417342724,1,2
15.28,5.313047,-6.632146400000001,-0.18294472,1003.1409,6.548058421175988,1003.151625652274,1,2
15.3,4.763395,-5.9028635000000005,-0.3391778,1003.1664,6.580604955783023,1003.1518629022439,1,2
15.32,4.4240546,-6.1173589999999995,-0.7510686,1003.13574,6.601441614299213,1003.1520144938696,1,2
15.34,3.998678,-6.160259,-0.9783177,1003.1333,6.611487299583158,1003.1520810680521,1,2
15.36,4.4766846,-6.5844827000000015,-1.5038341,1003.1384,6.613403957063084,1003.1520906411544,1,2
15.38,5.3753157,-9.105992,-1.7736926,1003.1131,6.6135743076704365,1003.1519587336397,1,2
15.4,6.0110545,-10.016405,-0.33916578,1003.1433,6.614206064721923,1003.1518110087186,1,2
15.42,8.334066,-9.4920845,1.3320816,1003.09546,6.617352933334497,1003.1514776153467,1,2
15.44,12.110136,-10.083138,1.1995205,1003.1156,6.6291588685956215,1003.1510538695484,1,2
15.46,14.519186,-12.800075999999999,0.659801,1003.1308,6.655979354739364,1003.1506065338305,1,2
15.48,15.809757000000001,-10.454930000000001,-0.3912345999999999,1003.1482,6.695119943739353,1003.1502026044682,1,2
15.5,15.446143,-6.4271817,-0.0077798404000000015,1003.1283599999999,6.740374736135754,1003.1497670591077,1,2
15.52,14.131707999999998,-5.7455644999999995,0.9627741,1003.1256,6.787866640041593,1003.1492952098143,1,2
15.54,12.6691,-5.569202,0.59822595,1003.1585699999999,6.834185163522539,1003.1489116730232,1,2
15.56,10.766747,-6.088757,1.28945,1003.1181,6.876357251585263,1003.148461857892,1,2
15.58,9.380616,-5.0544142999999995,1.090606,1003.15356,6.911128693300176,1003.1480827545537,1,2
15.6,10.049800999999999,-3.309855,0.053772575999999996,1003.12054,6.9389647703277815,1003.1476486249272,1,2
15.62,10.264903,-2.8522656000000004,-1.6174713,1003.14325,6.960977727448671,1003.1472491929396,1,2
15.64,12.798210000000001,-2.733102,-2.460194,1003.1332,6.983045699330404,1003.1468456777409,1,2
15.66,15.202461999999999,-2.5948722,-1.3807491000000005,1003.1811,7.009588912915299,1003.1466124472715,1,2
15.68,15.288509,-3.7340796000000003,0.034839,1003.1255,7.040518691256912,1003.1463303600183,1,2
15.7,12.501897,-5.259378400000001,-0.50488204,1003.17615,7.070712336570244,1003.1461884584256,1,2
15.72,11.498149,-7.227967,-1.4233556,1003.133,7.100319620423512,1003.1460155957277,1,2
15.74,11.588975999999999,-10.202297999999999,-1.2671193,1003.17865,7.133118632734332,1003.1459803381033,1,2
15.76,12.439793,-12.18042,-0.2492211000000001,1003.1684,7.172610503666919,1003.1460298952493,1,2
15.78,12.454142,-11.289074000000001,0.958053,1003.17346,7.216678068034984,1003.1461724323207,1,2
15.8,11.531652000000001,-9.010661,2.056436,1003.1686,7.260352372313999,1003.1463791173204,1,2
15.82,10.327152,-8.586437,0.9580550999999999,1003.1585,7.300791317147176,1003.146605379364,1,2
15.84,9.462019,-8.224178,0.1437386,1003.1585,7.336298913542159,1003.1468481251401,1,2
15.86,8.24796,-7.6426587,0.3851942,1003.19354,7.364647740267056,1003.1472307060568,1,2
15.88,7.397166,-7.2756339999999975,1.0101367,1003.1658,7.384851256195267,1003.1476356040133,1,2
15.9,6.3934182999999996,-6.927675999999999,1.3226083999999998,1003.1507,7.395903189668018,1003.1480044036732,1,2
15.92,5.145901,-6.508219,1.6114081,1003.1305,7.396610276693426,1003.1482672591997,1,2
15.94,4.256868,-6.489153400000001,1.5735337999999999,1003.1382,7.387066001634041,1003.1484632762096,1,2
15.96,3.7932398000000003,-7.0754404000000015,0.98646885,1003.12036,7.3688508501819125,1003.1485353050454,1,2
15.98,3.9366448,-7.9381866,0.95332897,1003.1102,7.34475098188874,1003.148460942626,1,2
16.0,4.9412317,-6.903865,0.8113727,1003.1177,7.314741649390073,1003.1482844965992,1,2
16.02,7.2403617,-5.898123,-0.5947414000000001,1003.133,7.281341709862093,1003.148073564702,1,2
16.04,9.807161,-7.8333454,-3.8804142,1003.1152,7.252922902478282,1003.1477688404448,1,2
16.06,12.192325,-9.530241,-6.612162,1003.1154,7.236678936608684,1003.1473830582654,1,2
16.08,14.477116,-9.42061,-5.79784,1003.1228,7.234142218088219,1003.146953682122,1,2
16.099999999999998,14.171249,-8.553099000000001,-2.9193184,1003.148,7.2407922228288895,1003.1465780521061,1,2
16.12,12.1828985,-7.390060000000001,-2.4506080000000003,1003.1560000000001,7.2506522584825035,1003.1462800644364,1,2
16.14,10.352275,-7.819050999999999,-3.4779701000000003,1003.1556,7.261178950184237,1003.1460503142994,1,2
16.16,9.515851,-7.7380204,-4.046094999999998,1003.153,7.271183578295964,1003.1458723259468,1,2
16.18,10.017778,-6.9563065,-3.7904324999999996,1003.148,7.28039265355149,1003.1457227150653,1,2
16.2,11.365725,-5.063984400000002,-4.0318832,1003.1379400000001,7.289506118017116,1003.1455625011157,1,2
16.22,12.952663000000001,-3.2431605,-2.8151374,1003.148,7.299679326880258,1003.1454297110663,1,2
16.24,14.018601,-1.3127058999999999,-0.7035891,1003.14545,7.311690624953267,1003.1453124508183,1,2
16.259999999999998,13.029226,-2.4423811,0.7214708000000001,1003.1683,7.323574923290484,1003.1452915948407,1,2
16.28,11.232067,-5.7742057,1.2611972,1003.1379,7.334091217518323,1003.1452465567572,1,2
16.3,11.437638,-7.4091353,2.2128162000000002,1003.1606,7.345676353063996,1003.1452620335024,1,2
16.32,12.455783,-10.845824,4.551616,1003.1581,7.365076143572496,1003.1453219254339,1,2
16.34,10.639502,-9.954479,6.563743,1003.17334,7.388918174569031,1003.145475711013,1,2
16.36,9.860439,-8.228986,6.317558,1003.153,7.413133466686768,1003.145638683391,1,2
16.38,9.583252,-7.652234,4.5279565,1003.16565,7.435014098577692,1003.145854726524,1,2
16.4,9.019279,-8.696112,3.3680315000000003,1003.1884,7.454546823042276,1003.1461987852208,1,2
16.419999999999998,8.80423,-8.943974,4.3433223,1003.16046,7.472572719798785,1003.1465541358583,1,2
16.44,9.43999,-9.625592999999999,4.390671,1003.16815,7.4910695946788755,1003.1469458687927,1,2
16.46,9.377895,-9.353899,4.698411,1003.163,7.5096563095531,1003.147349798886,1,2
16.48,9.277563,-7.8572016000000025,3.6473773,1003.13525,7.525426665352546,1003.1476631522403,1,2
16.5,8.850571,-6.7370220000000005,3.1643226,1003.148,7.5363057597230565,1003.147941243916,1,2
16.52,9.0752,-6.5463586,2.5961916,1003.1402,7.5426633890856545,1003.1481590972426,1,2
16.54,8.874428,-7.5568686000000005,2.1511560000000003,1003.1202,7.545763014144898,1003.1482509396919,1,2
16.56,8.492022,-7.8380947,2.174826,1003.1429,7.545778244664035,1003.1483128282973,1,2
16.58,8.267351,-7.6950974,1.8907596000000002,1003.1228,7.5424285540151415,1003.148275666887,1,2
16.599999999999998,7.598158,-7.366204700000001,1.739257,1003.14795,7.534606778782443,1003.1482416586639,1,2
16.62,7.3973830000000005,-6.7179527000000006,1.0953758,1003.148,7.5214645257206865,1003.1482107390273,1,2
16.64,7.1105789999999995,-5.993435400000001,0.5603866,1003.1455,7.5021385687365125,1003.1481736597757,1,2
16.66,6.7042684999999995,-6.3175607000000005,-0.28707424,1003.1075,7.47721028860623,1003.1479944713736,1,2
16.68,6.7902837,-6.3223267,-1.418599,1003.1251,7.447773605849061,1003.1477537204047,1,2
16.7,7.2730229999999985,-6.083998,-2.4459665,1003.1022300000001,7.415304865877645,1003.147377107455,1,2
16.72,7.029232,-5.917168,-4.017791000000001,1003.1174,7.380763697914379,1003.146936414666,1,2
16.74,7.244301299999999,-5.879035,-2.9478173,1003.1325699999999,7.344008664006204,1003.1464952994246,1,2
16.759999999999998,7.105666,-7.0182424,-1.281309,1003.1198,7.306021839392568,1003.1460094269196,1,2
16.78,6.818857,-6.579718,-2.4412398,1003.1300699999999,7.2664930539362835,1003.145522728037,1,2
16.8,7.9516490000000015,-6.6416830000000004,-3.3407788,1003.1198,7.228031834363255,1003.1450000790835,1,2
16.82,10.064303,-6.2365255,-3.7668769999999996,1003.1251,7.193850893463527,1003.1444666261837,1,2
16.84,12.215193,-5.778935,-2.8342012999999997,1003.12006,7.166448549035307,1003.1439074033467,1,2
16.86,11.761089,-4.0582075,-0.47173536,1003.13245,7.142314488211657,1003.1433720273964,1,2
16.88,11.125356,-3.1382613,-0.4859404000000001,1003.1502,7.119324506620544,1003.1429235499077,1,2
16.9,9.089137,-3.8103452000000004,-1.9772802999999999,1003.1425,7.094273481340489,1003.142525750419,1,2
16.919999999999998,8.477300999999999,-4.5586944,-1.5748577,1003.14026,7.066870826175662,1003.1421660980894,1,2
16.94,8.998277999999997,-5.259378,-0.4196648,1003.11975,7.038897573455558,1003.1417676113381,1,2
16.96,9.571835,-5.2117114,-0.38652587,1003.1429,7.0115071687404,1003.1414195850432,1,2
16.98,10.10237,-4.5110273,-1.1724391,1003.11475,6.9851879761676,1003.1410160585033,1,2
17.0,9.410597000000001,-4.868551,-0.9355998999999999,1003.1248,6.9588934395869835,1003.140601124642,1,2
17.02,8.593283,-4.587325,-0.07866976,1003.12994,6.930854624046638,1003.1401961090334,1,2
17.04,8.449919,-4.8018208,0.7829946999999999,1003.13745,6.90139442446667,1003.1398283512492,0,0
17.06,8.306557000000002,-5.941028599999999,0.5131365,1003.1351,6.871771387092558,1003.1394863784063,0,0
17.08,8.0675955,-6.346186,0.58888966,1003.1224,6.842227560541335,1003.1391227002404,0,0
17.099999999999998,7.7664990000000005,-6.760878,0.82087845,1003.1123,6.812960405658711,1003.1387047924918,0,0
17.12,7.3124495,-6.598815400000001,0.6977868,1003.1424599999999,6.783096783403719,1003.1383490479524,0,0
17.14,6.6958866,-6.4367532999999995,0.68832093,1003.1274,6.751647794642342,1003.1379952955048,0,0
17.16,6.523839499999999,-6.0792623,-0.07865032599999999,1003.1097,6.718088478856241,1003.137580856778,0,0
17.18,6.9014797,-5.707472,-0.9592461999999999,1003.1044,6.682971019501651,1003.1370952076347,0,0
17.2,7.3603725,-5.5787754000000005,-1.7830298999999998,1003.1022300000001,6.647433002217512,1003.1365405733044,0,0
17.22,7.9292006,-5.7599053,-1.4468843,1003.1070599999999,6.612691488221966,1003.1359443683459,0,0
17.24,8.488469,-5.7217736,-0.98764426,1003.1073,6.5795638561053025,1003.1353144419188,0,0
17.259999999999998,8.402463000000001,-5.564478,-0.8219370999999999,1003.1351,6.547621997697428,1003.1347570669368,0,0
17.28,8.53155,-5.35475,-0.90241915,1003.1273,6.516846442933109,1003.1342377249617,0,0
17.3,9.038235,-5.025859,-1.1864811000000002,1003.13226,6.487828154947166,1003.1337717145828,0,0
17.32,9.038269999999999,-4.987727,-1.4374013,1003.0994,6.460494708362032,1003.1332362096393,0,0
17.34,8.880567999999998,-5.0592255999999995,-1.091787,1003.10925,6.434449029093453,1003.1326766871164,0,0
17.36,8.708528,-5.0639935,-0.5804682,1003.1019,6.409243888831057,1003.1320714969416,0,0
17.38,8.794594,-5.0115620000000005,-0.22065066,1003.10956,6.384943119464384,1003.1314557095143,0,0
17.4,8.842423,-4.9495974,-0.35321105,1003.13965,6.361559950716179,1003.1309410991893,0,0
17.419999999999998,8.565228999999999,-4.9591317,-0.9402741,1003.1144400000001,6.338660700479717,1003.1304269855493,0,0
17.44,8.484001,-5.154561,-0.58992547,1003.11957,6.3162772821179365,1003.1299336295883,0,0
17.46,8.484034,-5.578785400000001,-0.19223262,1003.12964,6.294868961445186,1003.1294966431952,0,0
17.48,8.135138000000001,-5.8457136,-0.29165238,1003.11194,6.274121108804466,1003.1290473181024,0,0
17.5,8.1008625,-5.68363,-0.49057215,1003.0917400000001,6.253794842648013,1003.1285159881053,0,0
17.52,7.8809886,-5.5311007000000005,-1.1439202,1003.1044300000001,6.233473563573363,1003.1279597953627,0,0
17.54,7.675455,-5.6788635,-1.1202484,1003.1221300000001,6.213058209671898,1003.1274473561923,0,0
17.56,7.637213,-5.6931634,-1.1770616000000005,1003.13226,6.1926015868230815,1003.1270118904587,0,0
17.58,7.718466999999999,-5.788494,-0.63260525,1003.1246,6.172328530989548,1003.1266184301311,0,0
17.599999999999994,7.909658,-5.5692325,-0.6089334,1003.1246,6.152340925623982,1003.126263502237,0,0
17.62,8.01481,-5.388104,-0.6041993,1003.1246,6.132643597058988,1003.1259438993416,0,0
17.64,8.191661,-5.3309045,-0.6846844,1003.1372,6.113525203664175,1003.1257020201857,0,0
17.66,8.086503,-5.4405355,-0.32960427,1003.1067,6.0948924485979346,1003.125419888491,0,0
17.68,8.401966999999999,-5.340438,-0.14496268,1003.10925,6.077181385707867,1003.1251123853267,0,0
17.7,8.569258,-5.3023050000000005,-0.38168317,1003.1095,6.060613778699576,1003.1247844709441,0,0
17.72,8.640951,-5.1926746,-0.55212194,1003.13965,6.045141142331189,1003.1245482416997,0,0
17.74,8.617052000000001,-5.1593084000000005,-0.4432308,1003.1170699999999,6.030602369339878,1003.1243125878694,0,0
17.759999999999994,8.822579,-5.259405999999999,-0.547388,1003.1497,6.017424496443581,1003.1241957588286,0,0
17.78,8.813018,-5.254639599999999,-0.70835793,1003.1067,6.0054948789029545,1003.1240295439563,0,0
17.8,8.731759,-5.254639599999999,-0.8787966999999999,1003.1245,5.994594125576858,1003.123884370137,0,0
17.82,8.444968,-5.4882,-0.798312,1003.0966,5.984380836866512,1003.1236578708175,0,0
17.84,7.9861045,-5.6025977,-0.5663265000000001,1003.11426,5.974122868065757,1003.1234239036844,0,0
17.86,7.794909,-5.554932,-0.381685,1003.08905,5.963462347592998,1003.123093424272,0,0
17.88,7.8857225999999985,-5.597831200000001,-0.5615926,1003.137,5.952708057524357,1003.1228514763358,0,0
17.9,8.186849,-5.4071690000000014,-0.43376390000000004,1003.1344,5.942188180165412,1003.1226792658244,0,0
17.919999999999995,8.287223,-5.388103,-0.17337185,1003.1269,5.932049317016668,1003.1225422952597,0,0
17.94,8.0673485,-5.6693295999999975,-0.28699777,1003.0966,5.922237946146967,1003.1223278758058,0,0
17.96,8.124704,-5.6359634000000005,-0.2964668,1003.13184,5.912809867100233,1003.1221726584233,0,0
17.98,7.8570323,-5.669329,-0.6657506999999999,1003.1294,5.903378528311906,1003.122061526774,0,0
18.0,8.039923,-5.626461,-0.8266051999999999,1003.1294,5.894261264737897,1003.1219897493522,0,0
18.02,8.097322,-5.74086,-0.8502735,1003.12195,5.885692124337491,1003.1219261837248,0,0
18.04,8.145172,-5.63123,-0.72243977,1003.12445,5.877568084953342,1003.1218791028748,0,0
18.06,8.221696000000001,-5.5787992,-0.88340515,1003.12195,5.869962989432618,1003.1218377574652,0,0
18.08,8.226512,-5.4787025,-0.9875588,1003.1192,5.862756870882463,1003.1217917287347,0,0
18.1,8.20266,-5.459637,-0.8691943999999999,1003.132,5.855843241139629,1003.1217878075247,0,0
18.12,8.365217,-5.4215055,-0.7082206,1003.1343,5.8494245375118,1003.1218293866368,0,0
18.14,8.255333,-5.4310403,-0.604059,1003.1293,5.843271975141072,1003.121893020148,0,0
18.16,8.327078,-5.4405746,-0.44781920000000003,1003.1344,5.8374948997276475,1003.1219942718463,0,0
18.18,8.288889,-5.578806,-0.33892348,1003.1343,5.832154044598278,1003.122128038468,0,0
18.2,8.140759,-5.478708999999999,-0.4241386,1003.1039999999999,5.826853375182714,1003.1221809737166,0,0
18.22,8.35112,-5.2928147,-0.7508081999999999,1003.1268,5.821802185823686,1003.1222443757969,0,0
18.24,8.461103,-5.183185,-0.74606925,1003.13684,5.817062176178287,1003.122352942122,0,0
18.26,8.131338000000001,-5.5978765,-0.45253238,1003.11426,5.812472434806446,1003.1224197367354,0,0
18.28,8.088371,-5.6407766,-0.42885566,1003.1293,5.808007198337482,1003.1225035254034,0,0
18.3,8.121879,-5.4548825999999995,-0.78393155,1003.10913,5.803553088326871,1003.1225294163789,0,0
18.32,8.332238,-5.3738523,-0.99224097,1003.1166400000001,5.799435236366245,1003.122531091746,0,0
18.34,8.203232,-5.5549817,-0.8407356,1003.1394,5.795584290162929,1003.12259330017,0,0
18.36,8.241519,-5.3166556,-1.0395763,1003.1545,5.791816446291495,1003.122763131653,0,0
18.38,7.940435000000001,-5.612183,-0.7744454000000001,1003.1394,5.78791062568225,1003.1229730874772,0,0
18.4,7.926144,-5.621718,-0.36728218,1003.14185,5.78383458056721,1003.1232265613287,0,0
18.42,8.060027,-5.4882550000000005,-0.69395167,1003.11414,5.7797298312767085,1003.123417819203,0,0
18.44,8.069633,-5.4358244000000004,-0.88805807,1003.1496,5.775602720696872,1003.1236810705118,0,0
18.46,8.093580000000001,-5.5692887,-0.4051444,1003.1191,5.7716012652150575,1003.1238971875143,0,0
18.48,8.04105,-5.6121893,-0.55664104,1003.1495,5.7677017513394775,1003.1241803186226,0,0
18.5,8.08889,-5.397695,-0.8454358000000001,1003.1318,5.763780580148437,1003.1244579241228,0,0
18.52,8.015915,-5.550194,-0.7745368,1003.1342,5.7598947460437335,1003.1247382878161,0,0
18.54,8.087607,-5.674124,-0.80767787,1003.1217,5.756328320869566,1003.1249750793393,0,0
18.56,8.159301,-5.507294,-0.96864814,1003.1318,5.753013446001039,1003.1252088780434,0,0
18.58,8.34571,-5.340464599999999,-1.0538677,1003.1292,5.7500834404722525,1003.1254298306177,0,0
18.6,8.336146000000001,-5.369064,-0.93077344,1003.12646,5.747493875988475,1003.1256287729218,0,0
18.62,8.111492,-5.6026254,-0.63724077,1003.1089999999999,5.745047574816754,1003.1257446947592,0,0
18.64,7.982434,-5.7408550000000025,-0.70352274,1003.1139,5.7426924185927275,1003.1258044823936,0,0
18.66,8.164062,-5.5263599999999995,-0.7177264,1003.1164,5.740482715071327,1003.1258234546108,0,0
18.68,8.264435,-5.369063400000001,-0.76507074,1003.10645,5.738410052692725,1003.1257704740254,0,0
18.7,8.230972999999999,-5.483461,-0.6088357,1003.1469,5.736515806211821,1003.1257997266736,0,0
18.72,8.054115,-5.683656,-0.6419769000000001,1003.1265,5.734722678854547,1003.1258280952977,0,0
18.74,8.140149000000001,-5.5692587,-0.6609148,1003.1265,5.733039093269334,1003.1258555806703,0,0
18.76,7.9154925,-5.712255,-0.8076817,1003.1695599999999,5.731270552589625,1003.1260372026558,0,0
18.78,7.963288,-5.693189,-0.78874445,1003.1292,5.729487483839827,1003.1262090699124,0,0
18.8,8.030202000000001,-5.6884227,-0.78401035,1003.16437,5.7278044376420585,1003.1264983111683,0,0
18.82,8.034978,-5.65029,-0.8171515,1003.1391,5.726183952489152,1003.1267992508225,0,0
18.84,8.068432000000001,-5.712255,-0.6893229999999999,1003.1316,5.724735012666852,1003.1270824437973,0,0
18.86,8.058869,-5.7599206,-0.66565126,1003.11896,5.723480639967577,1003.1273034323123,0,0
18.88,7.9967284,-5.559725,-0.7792774,1003.13403,5.722075647746726,1003.127522913408,0,0
18.9,8.1687975,-5.4214945,-0.90710664,1003.1289999999999,5.720699354603174,1003.1277221644156,0,0
18.92,8.068418,-5.4119616,-0.79821557,1003.1163,5.719149831454183,1003.1278571028142,0,0
18.94,8.111432,-5.6598225,-0.59937096,1003.11145,5.717787191022139,1003.1279172688133,0,0
18.96,8.097089,-5.5835576,-0.58990246,1003.0884,5.716478767372821,1003.127828169322,0,0
18.98,8.202242,-5.478693,-0.604106,1003.15436,5.715283079042715,1003.127844955602,0,0
19.0,8.202237,-5.478693,-0.67512256,1003.1011,5.714200850857457,1003.1277635061188,0,0
19.02,8.121689,-5.4453444000000015,-0.7697458,1003.1062,5.713059996496257,1003.1276139087337,0,0
19.04,8.121715,-5.6455400000000004,-0.7318682,1003.1239999999999,5.712099441535844,1003.1274687144124,0,0
19.06,8.054822,-5.650307700000001,-0.80761635,1003.0960699999999,5.711205913854737,1003.1272273853384,0,0
19.08,8.083523,-5.583576,-0.8123488,1003.0985,5.710345457711107,1003.1269107283814,0,0
19.1,8.040529,-5.588343599999999,-0.78394014,1003.0833,5.709444946451296,1003.1264739316721,0,0
19.12,8.059672,-5.569278,-0.8028755,1003.0985,5.708525559950641,1003.1259872719456,0,0
19.14,8.088372999999999,-5.6693760000000015,-0.70818543,1003.1011,5.707745047807487,1003.1254676652322,0,0
19.16,8.093179,-5.6312440000000015,-0.7129174,1003.1213,5.707053668061863,1003.1249935371454,0,0
19.18,8.069303,-5.6217120000000005,-0.6939776999999999,1003.0960699999999,5.706388815187022,1003.1244704728343,0,0
19.2,8.021528,-5.6312456,-0.7271164000000001,1003.1238,5.705684932140956,1003.1240058795067,0,0
19.22,8.083689999999999,-5.5549808,-0.8644119,1003.1112,5.704987817544701,1003.1235492636763,0,0
19.24,8.035915,-5.650313,-0.8075969,1003.10364,5.704320619722612,1003.1230741245793,0,0
19.26,8.021598,-5.7647104,-0.7602509,1003.1541,5.703787603121798,1003.1227659848247,0,0
19.28,8.102879,-5.7170463,-0.7933895000000001,1003.1365,5.7034603627852904,1003.1225431549921,0,0
19.3,8.098123,-5.636015,-0.8170593,1003.12146,5.703215713406467,1003.122342363194,0,0
19.32,8.05513,-5.5931163,-0.8217914000000001,1003.1415400000001,5.702921901500088,1003.1222340550536,0,0
19.34,8.064713000000001,-5.650316,-0.87860215,1003.1084599999999,5.702679920452009,1003.1220887673828,0,0
19.36,8.069516,-5.612184,-0.8454591,1003.12396,5.702441558012806,1003.1219671276343,0,0
19.38,8.107778,-5.6026516,-0.82178503,1003.12354,5.702256974403098,1003.1218653090928,0,0
19.4,8.069564,-5.602652,-0.7649698,1003.1162,5.70204600233808,1003.1217549471168,0,0
19.42,8.107825,-5.6026525000000005,-0.80284303,1003.12866,5.7018838919206205,1003.1216822894653,0,0
19.44,8.107847999999999,-5.640785,-0.6939496,1003.11646,5.701793489968074,1003.1215992889224,0,0
19.46,8.083974000000001,-5.5978875,-0.8265106,1003.1034,5.7016966357395935,1003.1214604322026,0,0
19.48,8.05532,-5.550222,-0.7933676,1003.1237,5.701483808485247,1003.121345800849,0,0
19.5,8.040691,-5.564514599999999,-0.78865963,1003.1186,5.701160370923982,1003.1212346277017,0,0
19.52,8.045482000000002,-5.5740485,-0.9022844000000001,1003.1186,5.700780091145438,1003.1211269104492,0,0
19.54,7.935558,-5.688446,-0.7413135999999999,1003.0883,5.700273321858204,1003.1209135546072,0,0
19.56,7.978587599999999,-5.697979,-0.7507813,1003.1010000000001,5.699742127560017,1003.1206533445886,0,0
19.58,8.131553,-5.597882,-0.91648453,1003.12354,5.699360706128808,1003.1204338149756,0,0
19.6,8.2271595,-5.588349,-0.8549361999999999,1003.1033,5.699253846247188,1003.1201781568758,0,0
19.62,8.2128315,-5.4834847,-1.0253738000000001,1003.1058300000001,5.699277638131503,1003.119900604014,0,0
19.64,8.02165,-5.588349299999999,-0.95435673,1003.0882,5.69919755840403,1003.1195412361307,0,0
19.66,7.8973869999999975,-5.721813,-0.7649794,1003.12115,5.698941781962043,1003.1192294902193,0,0
19.68,7.902176400000001,-5.688448,-0.67975914,1003.1059,5.698486144351202,1003.118906045367,0,0
19.7,8.069482,-5.60265,-0.67975813,1003.12866,5.6980361139568245,1003.1186553637323,0,0
19.72,8.112511999999999,-5.626483,-0.5756001000000001,1003.1058300000001,5.697680399830055,1003.1183876901304,0,0
19.74,8.136422,-5.61695,-0.69395924,1003.0981400000001,5.697454607918324,1003.1180782820512,0,0
19.76,8.131654,-5.602651,-0.9827568000000001,1003.1084,5.697370230704122,1003.117770047257,0,0
19.78,8.074307000000001,-5.7122817,-0.86439574,1003.1336699999999,5.6974207926589635,1003.1175549308227,0,0
19.8,8.036078,-5.6455503,-0.98275477,1003.11334,5.69746913197316,1003.1173496801904,0,0
19.82,8.0982275,-5.68845,-0.9827538,1003.1159,5.697671514648218,1003.1171631018832,0,0
19.84,8.117360000000001,-5.7122827,-0.821783,1003.1109,5.698039717388135,1003.116975694124,0,0
19.86,8.083912,-5.5263870000000015,-0.7981098000000001,1003.1261599999999,5.698272673775841,1003.116843164129,0,0
19.88,8.060024,-5.540687,-0.7081552,1003.0933,5.698346867508452,1003.1166413052347,0,0
19.9,8.045695,-5.5311546,-0.5897941,1003.1031,5.698228522970901,1003.1164141940167,0,0
19.92,8.136523,-5.626486,-0.49983937,1003.1186,5.698197609251244,1003.1162213874463,0,0
19.94,8.126975,-5.5835870000000005,-0.58979195,1003.1210000000001,5.698187518737285,1003.1160682265655,0,0
19.96,8.088749,-5.540687999999999,-0.7507607,1003.1157,5.6981029341854645,1003.1159315679961,0,0
19.98,8.031400999999999,-5.5978875,-0.81704134,1003.1184699999999,5.697933436725067,1003.1158199548387,0,0
20.0,8.136567999999999,-5.607419999999999,-0.8359781,1003.1157,5.697883087228528,1003.1157209016161,0,0
20.02,8.112876,-5.636025,-0.8122871,1003.0932,5.697927463216642,1003.1155523029423,0,0
20.04,8.146353,-5.621726,-0.8975046999999998,1003.1232,5.6981107732189535,1003.1154308608636,0,0
20.06,8.093793,-5.521628400000001,-0.9495814,1003.1232,5.698219413796347,1003.115351523544,0,0
20.08,8.074694000000001,-5.60266,-0.731797,1003.1310000000001,5.6982855771502114,1003.1153377556034,0,0
20.1,8.079492,-5.6121940000000015,-0.67024803,1003.0981400000001,5.698324315187036,1003.1152636783307,0,0
20.12,8.208565,-5.831456,-0.67971516,1003.1284,5.698820401297686,1003.115245514411,0,0
20.14,8.351977,-5.7122927,-0.65604144,1003.11084,5.699818235106272,1003.1152136049194,0,0
20.16,8.265961,-5.4501324,-0.6939149,1003.1033,5.700809923255978,1003.1151425207147,0,0
20.18,7.960071000000001,-5.5263976999999995,-0.86435175,1003.0932,5.7013843391444246,1003.1150007176374,0,0
20.2,7.8644940000000005,-5.6264962999999995,-0.85961556,1003.13605,5.701544758508228,1003.1149511978546,0,0
20.22,7.993567,-5.521632,-0.84067637,1003.1106599999999,5.701429111253868,1003.1148919938623,0,0
20.24,8.256475,-5.4120016,-0.6797049,1003.1106,5.7013692140841785,1003.1148242300367,0,0
20.26,8.275611999999999,-5.4215355,-0.72231287,1003.12823,5.701409078367552,1003.1148126146919,0,0
20.28,8.251733999999999,-5.445369,-0.68443584,1003.11084,5.701517146046247,1003.1147880499608,0,0
20.3,8.122695,-5.6455645999999975,-0.75545037,1003.1006,5.7017070644143475,1003.1147152675844,0,0
20.32,8.008,-5.6407986,-0.7554485,1003.1281,5.701768208348713,1003.1146991421132,0,0
20.34,7.888523599999999,-5.6407989999999995,-0.9164165000000001,1003.14594,5.701542174537691,1003.1147973607353,0,0
20.36,7.8359637000000015,-5.6455660000000005,-1.0679159,1003.1079,5.701012780189472,1003.1148593162112,0,0
20.38,8.146671000000001,-5.369106299999999,-0.9637572,1003.12823,5.70039922472478,1003.1149621945312,0,0
20.4,8.118012,-5.421539,-0.7601760000000001,1003.12823,5.699686857953139,1003.1151008619147,0,0
20.42,8.218405,-5.5407033,-0.58973587,1003.13574,5.699176029225536,1003.1152976893117,0,0
20.44,8.151507,-5.397707,-0.68915653,1003.1257300000001,5.698578373287913,1003.115509162318,0,0
20.46,8.132406,-5.149846599999999,-1.0584385,1003.1106,5.697662937583098,1003.1156783468823,0,0
20.48,7.7261419999999985,-5.7408996,-0.7128251,1003.1029699999999,5.696403584997937,1003.1157820883144,0,0
20.5,7.4966984,-5.659868,-0.69388866,1003.1257,5.694360627965608,1003.1159094587257,0,0
20.52,7.9794765,-5.4787397,-0.7933095,1003.1308,5.69224125396896,1003.1160756091699,0,0
20.54,8.1515665,-5.574071,-0.9542778000000001,1003.16614,5.690497201636692,1003.1164026515096,0,0
20.56,8.28064,-5.7504334,-0.5897269,1003.1307,5.689460174290386,1003.1167430965753,0,0
20.58,8.271094999999999,-5.7981,-0.5471158,1003.1435,5.689086982986442,1003.1171402386876,0,0
20.6,8.290234,-5.555005599999999,-1.1247116000000001,1003.1229,5.689149383327804,1003.1175118885988,0,0
20.62,8.443206,-5.330978400000001,-1.2762109,1003.1611,5.689646549231544,1003.1179971956616,0,0
20.64,8.5866165,-5.340512,-1.0442233,1003.1383,5.690732127828951,1003.1184991030777,0,0
20.66,8.366762,-5.5168743,-0.98267466,1003.1510000000001,5.6921347451102475,1003.1190595916992,0,0
20.68,8.199489,-5.5502410000000015,-0.82170314,1003.1080300000001,5.693532734723378,1003.1195151329157,0,0
20.7,8.123028999999999,-5.5931406,-0.8453736,1003.1838,5.694845049888196,1003.1201490746556,0,0
20.72,8.209082,-5.65034,-0.65599585,1003.1381,5.69626133462024,1003.1207738489082,0,0
20.74,8.070485000000001,-5.855302,-0.6796663000000001,1003.1254,5.697778278733617,1003.1213425535817,0,0
20.76,7.8458524,-5.779038,-0.7317431,1003.1281,5.698917171961773,1003.1218693878386,0,0
20.78,7.8888880000000015,-5.7742714999999984,-0.66072536,1003.1405599999999,5.699773484590577,1003.1224021847916,0,0
20.8,8.013181,-5.7313730000000005,-0.6938645999999999,1003.1357,5.700538426443377,1003.1229208363139,0,0
20.82,8.123133000000001,-5.578843599999999,-0.71753514,1003.1357,5.701228557237424,1003.1234251217884,0,0
20.84,8.127931,-5.469213,-0.8122216,1003.14825,5.7017458773913,1003.1239600779953,0,0
20.86,8.070591,-5.6551089999999995,-0.6512502,1003.123,5.702203939643746,1003.1244293090188,0,0
20.88,8.003689999999999,-5.7885733,-0.7269993,1003.123,5.702666450658651,1003.1248387760388,0,0
20.9,8.046723,-5.6694097999999995,-0.7885449999999999,1003.14325,5.703070132150648,1003.1252668615036,0,0
20.92,8.142339999999999,-5.5121139999999995,-0.88796556,1003.1606400000001,5.703415728879119,1003.1257724611193,0,0
20.94,8.07066,-5.3595843,-0.76960397,1003.1534,5.703388724883994,1003.1263186680796,0,0
20.96,8.108916,-5.6360455,-0.7838055,1003.16846,5.7034224281160295,1003.1269530053444,0,0
20.98,8.223647999999999,-5.5073485,-0.8027416,1003.1509,5.703558876037975,1003.1275997149326,0,0
21.0,8.26206,-5.454921,-0.72224087,1003.1126,5.7037788939941825,1003.1281171485507,0,0
21.02,8.233404,-5.440622,-0.74591076,1003.133,5.7040097097426194,1003.1285919311612,0,0
21.04,8.190412,-5.326225,-0.8784718,1003.1558,5.704067562693099,1003.1291093981233,0,0
21.06,8.075721000000001,-5.5121207000000005,-0.80745333,1003.13824,5.703975501565343,1003.1295995020979,0,0
21.08,8.090083,-5.550254,-0.7743104999999999,1003.16595,5.703814933370767,1003.1301634197624,0,0
21.1,8.094887,-5.531189,-0.6890892,1003.1633,5.70356712403188,1003.1307809890995,0,0
21.12,8.137928,-5.4835234,-0.8831976,1003.1736,5.70329369046279,1003.1314808218052,0,0
21.14,8.204871,-5.426326,-0.75063187,1003.138,5.7030253134547,1003.1321226630253,0,0
21.16,8.219233000000001,-5.3691278,-0.70328575,1003.1381,5.702714866870048,1003.1327113123402,0,0
21.18,8.219255,-5.3023963,-0.8453158000000002,1003.1558,5.702316370954796,1003.1333145621505,0,0
21.2,8.228841000000001,-5.2833309999999996,-0.6796093000000001,1003.1709,5.701810063642872,1003.1339829012596,0,0
21.22,8.257541,-5.350063,-0.745889,1003.143,5.70134527747134,1003.1346059072514,0,0
21.24,8.262346,-5.3262305,-0.81216836,1003.148,5.700911289550933,1003.1352046140797,0,0
21.26,8.372307000000001,-5.3643637,-0.75061893,1003.1606400000001,5.70073038377816,1003.1358251988228,0,0
21.28,8.314969999999999,-5.168936,-0.8500394,1003.1482,5.700473921609527,1003.1364180967856,0,0
21.3,8.2958765,-5.1546364,-0.8926468000000001,1003.14545,5.700110281583602,1003.1369744962776,0,0
21.32,8.367595,-5.1212707,-0.7742846,1003.1506,5.699722526619907,1003.1375151826816,0,0
21.34,8.36762,-5.111738,-0.95892406,1003.16046,5.699338383834283,1003.1380755345308,0,0
21.36,8.3102865,-5.1832376,-0.6653889000000001,1003.1075,5.69888517208034,1003.1384605895005,0,0
21.38,8.171695,-5.3119354,-0.5991052,1003.143,5.69826457527031,1003.1388171659494,0,0
21.4,8.14782,-5.469232,-0.35764813,1003.15533,5.697612419081236,1003.1391916831022,0,0
21.42,8.348597,-5.2070723,-0.3955212,1003.17584,5.696991976075572,1003.1396545403993,0,0
21.44,8.482453999999999,-5.1641736,-0.72692734,1003.15796,5.696630578163368,1003.1401294207616,0,0
21.46,8.601972,-5.207073,-0.69378453,1003.1631,5.696752455908935,1003.140631719135,0,0
21.48,8.683253,-5.0974426,-0.73165745,1003.1655,5.697334838644368,1003.1411650757888,0,0
21.5,8.568186,-5.26903,-0.55651677,1003.1606,5.698277517037021,1003.1417063154553,0,0
21.52,8.357883000000001,-5.369128,-0.4144837000000001,1003.1708,5.69926179126907,1003.1422892920888,0,0
21.54,8.458267999999999,-5.378661599999999,-0.52810866,1003.16815,5.700476683836562,1003.1428975087907,0,0
21.56,8.023315,-5.6408224,-0.32926285,1003.1885,5.701425009789107,1003.1435990980369,0,0
21.58,8.066342,-5.0736027,-0.67013913,1003.1429400000001,5.701592987792001,1003.1442166495419,0,0
21.6,8.2336445,-5.1832332999999995,-0.42868373,1003.1605,5.701457218385165,1003.1448209381135,0,0
21.62,8.28623,-5.197533,-0.17775950000000001,1003.17584,5.701145639749908,1003.145466556118,0,0
21.64,8.348376,-5.473994,-0.39080694,1003.15045,5.701111342656302,1003.1460549645848,0,0
21.66,8.095056,-5.392963,-0.20616435,1003.1425,5.700778708862063,1003.1465620844336,0,0
21.68,8.257577000000001,-5.469228,-0.3576645,1003.148,5.7005616206997685,1003.147015352028,0,0
21.7,8.596953,-5.068837,-0.41447648,1003.13745,5.700608733517973,1003.1473814240068,0,0
21.72,8.353192,-5.2499666,-0.30085,1003.1123,5.700643799614968,1003.1475785920813,0,0
21.74,8.305401,-5.087904,-0.29138044,1003.1605,5.7004056106763175,1003.1477993268601,0,0
21.76,8.405786500000001,-5.0926704,-0.19195710000000002,1003.1302,5.700105009439343,1003.1479310105341,0,0
21.78,8.248062,-5.5931587,-0.0073145516,1003.1451400000001,5.700032216415822,1003.1480373185904,0,0
21.8,8.295869,-5.5740932999999995,-0.04992338,1003.15027,5.700221418334509,1003.148139290042,0,0
21.82,8.2671995,-5.4835286,-0.300846,1003.1531,5.7004965834630665,1003.1482472505727,0,0
21.84,8.792986,-5.064072,-0.44761175,1003.14526,5.701328566624148,1003.1483318903952,0,0
21.86,8.850352,-5.002107,0.077907935,1003.163,5.702669408679004,1003.1484594833372,0,0
21.88,8.506215,-4.74948,0.025830287,1003.1175,5.7035737184136925,1003.1484607703206,0,0
21.9,8.4584255,-4.940142,-0.25349876,1003.1556,5.70420608530374,1003.1484876087261,0,0
21.92,8.424975,-5.3262334000000005,-0.054652993,1003.1578400000001,5.704946855979534,1003.1485449917498,0,0
21.94,8.343728,-5.550262,-0.12566823,1003.14276,5.705893773978063,1003.1485748694192,0,0
21.96,8.544488000000001,-5.392966,-0.5754359,1003.16296,5.707224210957785,1003.148653055798,0,0
21.98,8.353305,-5.3786664,-0.18247949,1003.17804,5.708507139854393,1003.1488279342813,0,0
22.0,7.946528999999999,-5.6598805999999975,-0.20619665,1003.168,5.709372320624949,1003.1490514763458,0,0
22.02,8.080353,-5.321455,-0.09257188400000001,1003.14276,5.709693552956411,1003.1492263487993,0,0
22.04,8.443605999999999,-5.440619,-0.054697666,1003.16296,5.7103002013298205,1003.1494303072432,0,0
22.06,8.534412,-5.1736913,-0.57074875,1003.1274,5.711056387445912,1003.1495312158182,0,0
22.08,8.395785,-5.4596844,-0.20146634,1003.1527,5.7119844511789415,1003.1496317862583,0,0
22.1,8.099426,-5.345287,-0.36717153,1003.1477,5.7124257162772905,1003.1497136958684,0,0
22.12,8.046839,-5.3595862,-0.52340776,1003.1401,5.712375576527053,1003.1497514618947,0,0
22.14,7.989468,-5.5311822999999976,-0.38137677,1003.1475,5.711979262301147,1003.1497767266933,0,0
22.16,7.975119,-5.6360464000000015,-0.5281443,1003.1552,5.711393097802155,1003.1498185744526,0,0
22.18,8.285794000000001,-5.350052400000001,-0.6370366,1003.1325699999999,5.710856583698879,1003.149793456265,0,0
22.2,8.410058,-5.3071527000000005,-0.80747616,1003.15015,5.710560911405662,1003.149772545392,0,0
22.22,8.276213,-5.216588,-0.77433646,1003.13495,5.710138962975036,1003.1497007073807,0,0
22.24,8.070669,-5.493048,-0.7080559000000001,1003.1502,5.7095542074194405,1003.1496390287678,0,0
22.26,8.166253999999999,-5.4835153,-0.7554009,1003.13245,5.708988093071313,1003.1495226490416,0,0
22.28,8.362214,-5.3738837,-0.6370418000000001,1003.15015,5.708637976761656,1003.1494220743792,0,0
22.3,8.357422999999999,-5.292852,-0.708059,1003.12994,5.708391213785469,1003.1492630711393,0,0
22.32,8.343072,-5.3166847000000015,-0.7980136,1003.1401,5.70825223391499,1003.1490895888209,0,0
22.34,8.209228,-5.3595834,-0.6796545,1003.1297599999999,5.708005664405075,1003.1488667133244,0,0
22.36,8.223556,-5.2928510000000015,-0.6891244000000001,1003.1399,5.707615954403802,1003.1486375003676,0,0
22.38,8.257004,-5.2928505,-0.67492217,1003.1676,5.707157469272477,1003.1485032327977,0,0
22.4,8.261771000000001,-5.4120145,-0.5612975,1003.1600300000001,5.70676778733329,1003.1484260903352,0,0
22.42,8.309558,-5.3786483,-0.57550186,1003.1425,5.706487312215978,1003.1483365933296,0,0
22.44,8.323886,-5.3500485,-0.7885511,1003.1626,5.7063276072649245,1003.1483088620398,0,0
22.46,8.280858,-5.283317,-0.80748963,1003.1451400000001,5.7061287446045466,1003.1482729507687,0,0
22.48,8.252168,-5.216583999999999,-0.87850666,1003.14996,5.705784421672561,1003.1482472929467,0,0
22.5,8.219762,-5.2595095999999995,-0.58487725,1003.1449,5.705258264490901,1003.1482125714407,0,0
22.52,8.219793,-5.226145,-0.48545182,1003.1600300000001,5.704524825520135,1003.1482244342607,0,0
22.54,8.200708,-5.2785773,-0.36235425,1003.1297599999999,5.7036250442895575,1003.1481684442854,0,0
22.56,8.181616,-5.478773599999999,-0.3150077,1003.12726,5.702773219831204,1003.1480437011436,0,0
22.58,8.167308,-5.469241,-0.49964659999999994,1003.1525,5.701947009285577,1003.1479495207793,0,0
22.6,8.100423,-5.4740085999999994,-0.6274725999999999,1003.1575300000001,5.7010520204649415,1003.1479007927347,0,0
22.62,8.200827,-5.4883084,-0.5895948000000001,1003.1323,5.700284005386371,1003.1478015737804,0,0
22.64,8.219981,-5.407278,-1.0062190999999998,1003.1424599999999,5.699641091964165,1003.1476946742473,0,0
22.66,8.243911,-5.4978437000000016,-0.9162627,1003.11426,5.6992376442028165,1003.147479852992,0,0
22.68,8.334761,-5.392979599999999,-0.85471237,1003.1424599999999,5.69907386538792,1003.1472719654604,0,0
22.7,8.157939,-5.516911,-0.6274581,1003.1044300000001,5.698923217090218,1003.1469340449617,0,0
22.72,8.129288,-5.617009599999999,-0.6037834,1003.117,5.698849765333239,1003.146527695847,0,0
22.74,8.138882,-5.61701,-0.7410781999999999,1003.13226,5.698880526257515,1003.1461172820643,0,0
22.76,8.177152,-5.5407459999999995,-0.4286045,1003.1196,5.6989411243966615,1003.1456591782304,0,0
22.78,8.306233,-5.655144,-0.50435245,1003.12726,5.699390373580573,1003.1451881606413,0,0
22.8,8.258469999999999,-5.45495,-0.6227095,1003.11957,5.699881589168644,1003.1446797441213,0,0
22.82,8.167683,-5.574115,-0.81208295,1003.11456,5.700418040344331,1003.1441220762052,0,0
22.84,8.033878,-5.750478,-0.5942976,1003.1373,5.700942518107798,1003.1436047613603,0,0
22.86,8.072152,-5.5502834000000005,-0.6558416,1003.13715,5.701289125564298,1003.1431244248224,0,0
22.88,8.086521000000001,-5.5788835999999975,-0.49013478,1003.1524699999999,5.7015154506199455,1003.1427336435283,0,0
22.9,8.287305,-5.388222,-0.62269515,1003.13715,5.701776196306605,1003.14236824806,0,0
22.92,8.445068,-5.331024,-0.65109885,1003.1196,5.702281730845122,1003.1419634189309,0,0
22.94,8.220449,-5.4311223,-0.71737766,1003.1396,5.702732571828617,1003.1415972036045,0,0
22.96,8.091427000000001,-5.71235,-0.5895457,1003.13214,5.703223965878243,1003.1412395698093,0,0
22.98,7.9241642999999975,-5.8124480000000025,-0.58007413,1003.1396,5.703587883884733,1003.1409176621364,0,0
23.0,7.966208999999999,-5.5597973,-0.7269298000000001,1003.12964,5.703624219592174,1003.140592624933,0,0
23.02,7.975761,-5.497832,-0.53755426,1003.0991,5.703288408495622,1003.1401560486103,0,0
23.04,8.138266,-5.631295,-0.46180463,1003.1271,5.703051944083262,1003.1397232879964,0,0
23.06,8.085678999999999,-5.7742915,-0.5186183,1003.1422,5.702991357654277,1003.1393498168812,0,0
23.08,8.09523,-5.6932597000000005,-0.4618063,1003.1446,5.702999476253537,1003.139038718463,0,0
23.1,8.157359,-5.612228400000001,-0.8547627,1003.1394,5.703132264912906,1003.1387651325143,0,0
23.12,8.076094,-5.6312942999999995,-0.67485607,1003.11426,5.703229919151841,1003.138435173493,0,0
23.14,7.994827000000001,-5.6360607000000025,-0.7079977,1003.1343400000001,5.70316872901187,1003.1381288790773,0,0
23.16,8.061736999999999,-5.5788617,-0.85003066,1003.11426,5.703036603996183,1003.1377723093666,0,0
23.18,8.037828,-5.5931606,-0.6795929,1003.1243,5.7027908998587575,1003.1374087440565,0,0
23.2,7.908765299999999,-5.678959,-0.6322496,1003.1269,5.702323274485918,1003.1370496662703,0,0
23.22,7.9708934000000005,-5.807656,-0.5044215,1003.1268,5.7019068163750255,1003.1366954863396,0,0
23.24,8.018682499999999,-5.7218575,-0.6038448000000001,1003.1242699999999,5.70152497360713,1003.136337801202,0,0
23.26,8.085591,-5.616993,-0.6417208000000001,1003.1041,5.7011683141538745,1003.13590569453,0,0
23.28,8.133382000000001,-5.583627,-0.6938,1003.1396,5.700884738185147,1003.1355371845744,0,0
23.3,8.281547,-5.5597944,-0.82636416,1003.11676,5.700914107204472,1003.135143971313,0,0
23.32,8.305436,-5.5168943,-0.8216306000000001,1003.1165,5.701210879901607,1003.1347294097786,0,0
23.34,8.262409,-5.4692287,-0.76008415,1003.1115,5.701603840510777,1003.1342794773317,0,0
23.36,8.109448,-5.483528,-0.71747524,1003.1395,5.701826733359712,1003.133900710903,0,0
23.38,8.037741,-5.5550265,-0.6559288000000001,1003.1192599999999,5.701850517709673,1003.1335133263277,0,0
23.4,8.109428999999999,-5.612225,-0.44761583,1003.1597,5.701863847260173,1003.133265305342,0,0
23.42,8.152439,-5.502594,-0.43814778,1003.1142,5.701812287353988,1003.1329775188997,0,0
23.44,8.166769,-5.4453949999999995,-0.46655506,1003.1192599999999,5.701664837515325,1003.1326738477313,0,0
23.46,8.042486,-5.550259,-0.40500855,1003.11426,5.7013361806964955,1003.1323392340352,0,0
23.48,8.0711565,-5.588392,-0.61805755,1003.1469,5.700965640227653,1003.1320959881307,0,0
23.5,8.110358999999999,-5.5264497000000015,-0.67951655,1003.10645,5.700562132397772,1003.131788730492,0,0
23.52,8.014793,-5.6360817,-0.542216,1003.1242,5.700079649974095,1003.1314899182128,0,0
23.54,7.990922500000001,-5.59795,-0.65583915,1003.1215,5.6994575857960905,1003.1311899239773,0,0
23.56,8.029191,-5.6599154,-0.7079149,1003.1344,5.6988607388851955,1003.1309364053446,0,0
23.58,8.0101,-5.631317,-0.67477137,1003.1039400000001,5.698216980948925,1003.1306152092213,0,0
23.6,7.995792999999999,-5.664683999999999,-0.5942835,1003.1569999999999,5.697538936139788,1003.1304263855736,0,0
23.62,8.057960000000001,-5.5979529999999995,-0.6368906,1003.1342,5.696864653745358,1003.1302731260107,0,0
23.64,8.115345,-5.612253,-0.64635676,1003.1418,5.696312118607212,1003.1301792026072,0,0
23.66,8.172736,-5.664686,-0.6700258000000001,1003.1266,5.696032165932799,1003.1300833267584,0,0
23.68,8.340058,-5.821983,-0.48538142,1003.1317,5.696443455949439,1003.130004430882,0,0
23.7,8.249272,-5.6551540000000005,-0.54692596,1003.1393,5.697118591185122,1003.1299681825343,0,0
23.72,8.306652,-5.488325,-0.6984249,1003.1391,5.697949551369977,1003.1299690280373,0,0
23.74,8.416624,-5.59319,-0.86886007,1003.1191,5.6992527738874506,1003.1299306466228,0,0
23.76,8.397534,-5.898250599999999,-0.42382324,1003.1342,5.701234269237587,1003.1299121024773,0,0
23.78,8.392785,-5.8982515,-0.4474925,1003.1165,5.703801971950593,1003.1298474333008,0,0
23.8,8.3689165,-5.7218895,-0.67000675,1003.1266,5.7066544843845115,1003.129778600857,0,0
23.82,8.29725,-5.712357,-0.589519,1003.1393,5.709604205000937,1003.1297520575464,0,0
23.84,8.407214999999999,-5.788623,-0.57057863,1003.1266,5.712904643303082,1003.12971725647,0,0
23.86,8.450264,-5.8219895,-0.38119970000000003,1003.13666,5.716597711686831,1003.1297115001157,0,0
23.88,8.474192,-5.8076906,-0.5611044,1003.14166,5.7206656842638965,1003.1297494284006,0,0
23.9,8.455103,-5.7075934,-0.77414984,1003.1645,5.724929602479935,1003.129908043891,0,0
23.92,8.416896000000001,-5.7933927,-0.75520945,1003.1266,5.7293830976246465,1003.13003628758,0,0
23.94,8.412146,-5.836292,-0.6368465999999999,1003.1468,5.7340138380388535,1003.1302099530684,0,0
23.96,8.369156,-6.0031223,-0.60843754,1003.1519,5.7389075951881265,1003.1304414880632,0,0
23.98,8.393078,-5.97929,-0.5137474,1003.13666,5.744017058807006,1003.1306684590272,0,0
24.0,8.489338,-5.726679,-0.67465633,1003.12885,5.749183521798455,1003.1308624641188,0,0
24.02,8.494175,-5.745746,-0.72672975,1003.1014,5.7544195764160975,1003.1309278221468,0,0
24.04,8.455991000000001,-5.817246,-0.68884933,1003.1391,5.7597109958995505,1003.1310149923404,0,0
24.06,8.647239,-5.9030457,-0.6367658,1003.13666,5.7654532092273065,1003.1311123379512,0,0
24.08,8.714209,-5.9888453,-0.6178233,1003.1389999999999,5.771785960289186,1003.1312267481163,0,0
24.1,8.5947695,-5.988847,-0.76931924,1003.1214,5.778434728587196,1003.1312924646447,0,0
24.12,8.518348,-5.9268823,-1.0107687,1003.12646,5.785178282303224,1003.1313331348967,0,0
24.14,8.676138,-5.812486,-0.9397475000000001,1003.086,5.792103726935358,1003.1312058718455,0,0
24.16,8.695309,-5.831554,-0.6414753000000001,1003.1365400000001,5.799173225326896,1003.1311126250753,0,0
24.18,8.690589,-5.845855,-0.58939135,1003.1112699999999,5.806346622932888,1003.1309587987784,0,0
24.2,8.504228999999999,-5.9554873,-0.5799178,1003.1391,5.813394789991497,1003.1308521861873,0,0
24.22,8.480386,-5.9268894,-0.7219448,1003.11896,5.8202509024021145,1003.130715171431,0,0
24.24,8.418301,-5.9650225999999975,-0.9302538,1003.1011,5.826887416855666,1003.1304874905754,0,0
24.26,8.337102999999999,-6.0937214000000015,-0.9207796,1003.1237,5.8333234418345326,1003.1302618768054,0,0
24.28,8.38972,-5.9888577000000005,-0.8497601,1003.1263,5.839507696234688,1003.1300482617216,0,0
24.3,8.552299,-5.7648315000000006,-1.0059893,1003.0935,5.845488500005709,1003.1297279376913,0,0
24.32,8.51412,-5.7743660000000006,-0.91129583,1003.1112,5.851195364089893,1003.1293781988028,0,0
24.34,8.490273,-5.917364,-0.74558675,1003.1037,5.8567392016132915,1003.1289767280048,1,3
24.36,8.600254,-5.917365,-0.58934724,1003.1136,5.8622857609998364,1003.128566632187,1,3
24.38,8.691123,-5.793436,-0.7077026999999999,1003.0986300000001,5.867841919905005,1003.1280964996463,1,3
24.4,8.72465,-5.7076397000000005,-0.9444165000000001,1003.0986300000001,5.873385390196818,1003.1275750111348,1,3
24.42,8.686463999999999,-5.7267075,-0.8497237,1003.08075,5.878836382078526,1003.126945653846,1,3
24.44,8.547906,-5.8315730000000014,-0.87339056,1003.06335,5.884072736527018,1003.1261606093916,1,3
24.46,8.595757,-5.8220410000000005,-0.8970578000000001,1003.0960699999999,5.889175628924249,1003.125358617918,1,3
24.48,8.782226,-5.8506417,-1.0627569,1003.07574,5.894527641793022,1003.1244713512276,1,3
24.5,8.335811999999999,-6.0841565000000015,-0.66050553,1003.0884,5.899530017933879,1003.1235575055155,1,3
24.52,8.092021,-6.055557,-0.47586572,1003.0785,5.903741995773525,1003.1225878244243,1,3
24.54,8.044201,-5.993591,-0.85935444,1003.0454,5.9071368099913935,1003.121453138044,1,3
24.56,8.087193,-5.812461,-0.9493105,1003.0454,5.909664588882455,1003.1201767378616,1,3
24.58,8.464777,-5.6313314000000005,-1.0676727,1003.0581,5.911870893125296,1003.1188254344042,1,3
24.6,8.804127000000003,-5.6122646,-0.94931394,1003.0353,5.91432794638008,1003.1173307311052,1,3
24.62,8.804098,-5.526466,-0.8593628000000001,1003.03534,5.916886520433148,1003.1157148446383,1,3
