Timestamp,Ax,Ay,Az,P,LPFRMSAcc,LPFPValue,Value,Type
0.0,-2.586834,4.324616000000002,7.2132524999999985,1003.28754,0.01828868801695186,3.611835144,0,0
0.02,-2.6442208,3.2998068,9.433686,1003.3280599999999,0.0558699450090905,10.40223108672,0,0
0.04,-2.8832366,1.7506766,10.304814,1003.31067,0.11141202530873626,19.976695321795198,0,0
0.06,-2.5008814,2.584825,11.531022,1003.3186599999999,0.18519347830773225,31.97672299274917,0,0
0.08,-1.8078408,2.2178009,9.088067,1003.3813,0.26952333422218017,46.077003920030215,0,0
0.1,-1.9942789,1.3169222,9.504691000000001,1003.4016,0.3634369506782127,61.982380693263615,0,0
0.12,-1.311577,-0.060592905,8.358891999999999,1003.4119999999999,0.4626973008774772,79.42551823959694,0,0
0.14,0.35173023,0.8450542999999999,6.7870630000000025,1003.3966,0.5629723915827641,98.16457046987448,0,0
0.16,1.451028,-0.10825549,8.458302999999999,1003.4752,0.6673872474281847,117.98151528685615,0,0
0.18,2.9805042999999998,-0.38471442,23.30539,1003.4903,0.8060860304131859,138.6795993521085,0,0
0.2,1.4939283,1.1024528,6.3751545,1003.4123,0.9395393804347948,160.08146415449792,0,0
0.22,2.1678162,-0.527708,5.7928166,1003.42035,1.0669787281700351,182.0281718829329,0,0
0.24,3.1332796000000003,-0.42760903,4.542928,1003.4632,1.1872477182577488,204.3774489329996,0,0
0.26,2.0577626,-1.5858806,6.2046985999999995,1003.4658,1.3032243653044786,227.0019881982797,0,0
0.28,3.2239777999999997,-2.56779,5.1157804,1003.4534,1.4146642445790476,249.78825617556737,0,0
0.30000000000000004,6.880466499999999,-1.895704,6.5834402999999995,1003.43335,1.5282207410090642,272.6353248980668,0,0
0.32,6.8804016,-3.030143,5.2483325,1003.4387,1.642114636099795,295.4538869716341,0,0
0.34,8.352525,-4.736569,3.5676134,1003.42114,1.7581302149152844,318.16505053074036,0,0
0.36000000000000004,8.514977,-7.048348,6.701784,1003.4739400000001,1.8811798226513132,340.699746653656,0,0
0.38,8.510137,-7.849128,3.5486648,1003.4719,2.008301982134754,362.99738389991114,0,0
0.4,9.485159,-7.787161,2.3887303,1003.4695,2.1393833300274645,385.00527578866235,0,0
0.42,11.052874000000001,-9.097963,1.3944997,1003.4595,2.277400464844749,406.6778842687239,0,0
0.44,12.859574,-9.274322999999999,1.7543085999999999,1003.4848,2.424308917181074,427.9763060183388,0,0
0.46,12.214244,-6.6288839999999984,1.4986455,1003.4801,2.5744417951926044,448.8674051346325,0,0
0.48,11.554571000000001,-6.2427907,1.617,1003.45984,2.725334150462524,469.3233130793049,0,0
0.5,11.473256,-6.4811172,-1.2851952,1003.4625,2.876369832802492,489.3210544121319,0,0
0.52,11.616594000000001,-4.798521,-3.9080608,1003.5107,3.026827188001157,508.84214137793424,0,0
0.54,10.23517,-4.0263376000000015,-3.0558734,1003.4705,3.1726009289212738,527.8716359119567,0,0
0.56,9.795367,-5.6660314000000005,-0.06846963,1003.5186,3.3135056545936985,546.3984263529356,0,0
0.5800000000000001,8.891923,-7.906311,1.9057715,1003.5186,3.451126379996853,564.4143310117141,0,0
0.6,8.021938,-7.8252788,2.6064580000000004,1003.5213,3.584218053188611,581.9139694565688,0,0
0.62,7.645117999999999,-6.2189684000000005,2.365075,1003.49365,3.7099797445770895,598.8943368363986,0,0
0.64,7.124095,-6.233268,1.0773146999999998,1003.50885,3.8275486988109733,615.3548017006052,0,0
0.66,6.8372800000000025,-7.296209299999999,-0.07314801,1003.5041,3.9384368575357303,631.296605928496,0,0
0.68,6.4931087,-7.9396935,0.49971268,1003.4819,4.043582627960782,646.7226512029176,0,0
0.7000000000000001,5.3985014000000024,-8.416349,-1.0768472,1003.5122,4.1428351087414095,661.6375471830661,0,0
0.72,5.618353400000001,-8.750008,-1.711259,1003.4772,4.237523955509748,676.0469720212662,0,0
0.74,6.0007114,-8.030256,-1.6449798,1003.5202,4.3270504286189135,689.9580434290233,0,0
0.76,5.814272,-7.920625699999999,-1.4792781000000002,1003.4497,4.411230879348254,703.378436088573,0,0
0.78,6.010215799999999,-6.6717863,-1.6213129,1003.4496,4.488698075049842,716.3169512326323,0,0
0.8,6.27308,-6.752816999999999,-2.6581497000000005,1003.4801,4.560926605105314,728.7832105494856,0,0
0.8200000000000001,5.7855153,-8.144651,-0.8448751,1003.5079300000001,4.629167117103245,740.7874062718788,0,0
0.84,6.559817,-7.262837400000001,0.7269449,1003.4981,4.693196797542833,752.3400721096069,0,0
0.86,6.9039345,-6.7051497000000015,-0.22467299,1003.5184300000001,4.752886685564372,763.4522497322287,0,0
0.88,6.731836299999999,-6.7528143,-0.17259686,1003.5135,4.8083398570428635,774.1351903805414,0,0
0.9,7.238469,-6.156994,-0.13945846,1003.51355,4.859781669132497,784.4003988320205,0,0
0.92,7.2288830000000015,-6.2618575,0.35765159999999996,1003.48865,4.9076324653534265,794.2594547239522,0,0
0.94,7.539544999999999,-6.7957115,0.58490074,1003.4760000000001,4.9533777314870395,803.7240960730568,0,0
0.96,7.797628,-6.676547,-0.5229524,1003.4664,4.997330075553479,812.8061254632628,0,0
0.98,7.539485000000001,-6.862441499999999,-0.7075971999999999,1003.4767,5.0394167545390145,821.5174207007808,0,0
1.0,7.386506599999999,-7.0721703,1.9626046000000001,1003.4792,5.08010539040827,829.8697835781288,0,0
1.02,6.6217179999999995,-7.115068400000001,2.2040577,1003.4643599999999,5.118484272338753,837.8748718916727,0,0
1.04,6.1150255,-7.0960009999999984,0.5801536999999999,1003.5047599999999,5.1534762322137,845.5444355227098,0,0
1.06,6.3300967,-6.7528086,1.0441235,1003.4495,5.1852025310304,852.8897201792122,0,0
1.08,7.3386054000000005,-6.3810167,-0.17735565,1003.4775400000001,5.214785220004037,859.9221298530529,0,0
1.1,7.6683850000000024,-6.905337299999999,-0.36199987,1003.48773,5.2436126983422415,866.6528032013872,0,0
1.12,7.3613032999999986,-7.539260400000001,0.11606749999999999,1003.4953,5.272109809618469,873.0926591604507,0,0
1.14,7.050547,-7.539258500000001,-0.42839533,1003.4681,5.2997833041486055,879.2522674729015,0,0
1.16,6.9166300000000005,-6.8910050000000025,-1.6262074,1003.4428,5.325728976725622,885.1419832948807,0,0
1.18,7.0790553,-6.2475176,-1.2285253999999999,1003.48035,5.34927144861555,890.7721543153199,0,0
1.2,7.0789860000000004,-6.423878,-0.390542,1003.4756,5.370701192532341,896.1527058334443,0,0
1.22,7.0932527,-6.5811734,0.06868852,1003.46826,5.390413803300913,901.2932971498593,0,0
1.24,6.9784630000000005,-6.7623005,0.20597951,1003.4734,5.408628127692333,906.2033720073036,0,0
1.26,7.1504865,-6.5716367,0.16809966,1003.4736,5.425439522587909,910.8920869721153,0,0
1.28,7.2937837,-6.6145334,0.21070047,1003.4661,5.441232504532081,915.3683019619232,0,0
1.3,7.3176320000000015,-6.4048038,0.16335179,1003.4712,5.4558139493831375,919.6406559598547,0,0
1.32,6.9447199999999984,-6.5096655,0.30537593,1003.4511,5.468851525055364,923.7174255509717,0,0
1.34,7.097595699999999,-6.5382633000000006,0.28643113,1003.44135,5.480749885593392,927.6066652896986,0,0
1.36,7.360411,-6.9243526,0.3290341,1003.45935,5.492547716515246,931.3162671877952,0,0
1.38,7.6423507,-7.000616,0.26274607,1003.4845,5.504747364571422,934.8538770630772,0,0
1.4,7.752213,-6.5048923,-0.03079373,1003.48975,5.5167435978046395,938.2267982914493,0,0
1.42,7.9863534,-6.0139346,-0.7741017,1003.5002,5.528324724354465,941.4420957349896,0,0
1.44,8.167909,-6.3189926,-1.0818450000000002,1003.4747,5.540237310170766,944.5064499314557,0,0
1.46,8.086583000000001,-6.3428245,-1.0723827,1003.4672,5.552295492093294,947.4263719997,0,0
1.48,7.919220399999999,-6.1378603,-0.6462924,1003.4779699999999,5.563829945654901,950.208200892002,0,0
1.5,7.512859,-6.0139275,-0.17285912,1003.47015,5.5739971478526185,952.8579679180284,0,0
1.52,7.2690199999999985,-6.2188883000000015,-0.068708524,1003.503,5.582798097239361,955.3816241777208,0,0
1.54,7.144671400000001,-6.8004065,0.17273937,1003.48315,5.590980926168943,957.784692341745,0,0
1.56,7.1732816999999995,-7.029199,0.42839095,1003.49854,5.598977096248295,960.0726132230465,0,0
1.58,7.120635000000001,-7.1531286,0.37630615,1003.47614,5.606878886809648,962.2504728101616,0,0
1.6,7.130116,-7.219858,0.18218839,1003.49615,5.614770025020229,964.3233139792196,0,0
1.62,6.959327,-7.219889599999999,-0.13489920000000002,1003.4963,5.622373974141388,966.2958991858743,0,0
1.64,6.6056027,-7.0625925,-0.3952932,1003.5015,5.62896834976642,968.1728156374054,0,0
1.66,6.691620299999999,-7.0864252999999975,-0.60834306,1003.46405,5.634828096188174,969.9583074576834,0,0
1.68,6.7202800000000025,-6.6860337,-0.5846728,1003.4664,5.639461067452212,971.6565971632336,0,0
1.7,6.8684350000000025,-6.5049043,-0.6651594,1003.4664,5.642963220609111,973.2717212372697,0,0
1.72,6.9257729999999995,-6.609767999999999,-0.46158177,1003.4817,5.64566469164013,974.8076007926343,0,0
1.74,6.9257554999999975,-6.7670636,-0.14911273,1003.5172,5.647855308170475,976.2680585249008,0,0
1.76,7.0834713,-6.924359299999999,0.026058618,1003.4946,5.650047279552778,977.6565345264416,0,0
1.78,7.3415604000000005,-6.895760000000001,0.19176093,1003.5075699999999,5.652582486339162,978.976455649108,0,0
1.8,7.6044307,-6.7336965,0.22016563,1003.50995,5.655589736094963,980.2310585327592,0,0
1.82,7.6569910000000005,-6.4381695,0.20122634,1003.4954,5.658683898734133,981.4233772700355,0,0
1.84,7.6043949999999985,-6.4334025000000015,-0.03549551,1003.4774,5.661749690857238,982.5563045881207,0,0
1.86,7.580475999999999,-6.3571370000000025,-0.13018546,1003.51044,5.664640883353443,983.6327940538637,0,0
1.88,7.4561850000000005,-6.452468,0.040251598,1003.47046,5.667297624507991,984.6553957432004,0,0
1.9,7.260194,-6.647896,0.1870164,1003.4930400000001,5.669706974870019,985.6267821152223,0,0
1.92,7.08332,-6.762293,0.2201554,1003.52325,5.671784355800956,986.5495263979263,0,0
1.94,6.939908999999999,-6.800425,-0.0023632683,1003.4856599999999,5.673396631313523,987.4258333270913,0,0
1.96,6.772597,-7.0721187999999975,0.0023694038000000002,1003.49365,5.674749265512969,988.2579822697237,0,0
1.98,6.853834,-7.215114,-0.1491333,1003.49316,5.676201540823937,989.0481157152625,0,0
2.0,6.9589734,-7.1293163,-0.35271420000000003,1003.49603,5.6777704050577,989.7982901191658,0,0
2.02,6.762981,-7.291378,-0.29590320000000003,1003.4911,5.679396025960043,990.5104383380257,0,0
2.04,6.093789,-7.5869050000000025,-0.34324896,1003.4909,5.6806250048252585,991.1864221661934,0,0
2.06,6.151128,-7.3914757,-0.56576777,1003.5143,5.681282030379283,991.8281018369644,0,0
2.08,6.6290894,-7.16268,-0.7409424,1003.51166,5.681753181005032,992.4371508034442,0,0
2.1,6.968437700000001,-6.905286,-0.5420991,1003.4892,5.682136622638651,993.0150938473333,0,0
2.12,6.9674460000000025,-6.895728,-0.5895338999999999,1003.4942,5.682431445497854,993.5634891030637,0,0
2.14,7.019962,-6.881427,-0.49485147,1003.4766,5.682692869641593,994.0837383502555,0,0
2.16,7.34015,-6.495334,-0.43330958,1003.4866300000001,5.682857865722146,994.5772809950136,0,0
2.18,7.387890299999999,-6.781326299999999,-0.44751817,1003.5017,5.683409594603585,995.0455031843396,0,0
2.2,7.593370399999999,-6.7860923,0.025917638,1003.49695,5.684603582202712,995.4896495193648,0,0
2.22,7.411675999999999,-6.6287947,0.28156984,1003.4817,5.6858695475264796,995.910868602723,0,0
2.24,7.0961504,-6.628792999999999,0.082719475,1003.4894400000001,5.686702912424674,996.3103406418086,0,0
2.26,7.277728,-6.338031299999999,-0.0924585,1003.5403,5.687026662132306,996.689341989234,0,0
2.28,7.621819500000001,-6.371396,0.09691268,1003.4848599999999,5.687488102870144,997.0486914446581,0,0
2.3,7.636100999999999,-6.4238267,0.021156872,1003.4822,5.688161377951688,997.3893732542697,0,0
2.32,7.506987599999999,-6.7002854,-0.035661314,1003.5075699999999,5.689193008687894,997.7124252095274,0,0
2.34,7.387434,-6.7908487000000015,0.030614999999999996,1003.5152,5.690479733199613,998.0187639064387,0,0
2.36,7.2631006,-6.8003800000000005,-0.016734395,1003.5208,5.691811180772137,998.3092521089663,0,0
2.38,7.133987400000001,-6.7956119999999975,-0.28186637,1003.5028,5.692983791816339,998.5846242571276,0,0
2.4,7.095695,-6.6764470000000005,-0.5185916,1003.49536,5.693804044092529,998.8456217359172,0,0
2.42,7.382428,-6.595414,-0.7884576999999999,1003.50323,5.694671968043629,999.0930064979261,0,0
2.44,7.1816144,-7.0577683,-1.0961998,1003.51575,5.695990027883321,999.3275175502448,0,0
2.46,6.885211999999999,-7.1054330000000006,-0.36710635,1003.50824,5.697227763865974,999.5497821168927,0,0
2.48,6.7800009999999995,-6.962435,-0.116187915,1003.51324,5.698011804205293,999.760443536362,0,0
2.5,6.6700077,-6.6526070000000015,-0.4476016,1003.5310699999999,5.6977940102542375,999.9601582218744,0,0
2.52,6.736867,-6.4524099999999995,-0.3907941,1003.5160000000001,5.696495222380822,1000.149427148394,0,0
2.54,6.8849782999999976,-6.3570776,-0.50442547,1003.5035,5.694345654620677,1000.3287398341326,0,0
2.56,6.994859,-6.5191393,-0.43341440000000003,1003.50604,5.69184080046645,1000.4986188038486,0,0
2.58,7.162097999999999,-6.5620365000000005,-0.18249595,1003.4988,5.689329993932879,1000.6595245137956,0,0
2.6,7.5970016000000005,-6.4238050000000015,-0.20617335,1003.4887,5.687312602608197,1000.811885830855,0,0
2.62,7.8268770000000005,-6.233154,-0.51386887,1003.5088,5.685879386737264,1000.9562211816176,0,0
2.64,7.683444500000001,-6.214087,-0.4475907,1003.5013,5.6847038485987165,1001.0929181812977,0,0
2.66,7.487438,-6.3189507,-0.21560810000000002,1003.5014,5.683568845999522,1001.2223741847624,0,0
2.68,7.473057700000001,-6.361848,-0.07831411,1003.4889999999999,5.682504315843731,1001.3449213623587,0,0
2.7,7.6068570000000015,-6.266516,-0.25822476,1003.5091,5.6815982592744945,1001.4609950915784,0,0
2.72,7.697635000000001,-6.376146299999999,-0.3197755,1003.5014,5.681129675353298,1001.570903296387,0,0
2.74,7.812311999999999,-6.4857764000000016,-0.24402849999999998,1003.48395,5.681373719766942,1001.6749051542888,0,0
2.76,7.9413285,-6.3666105,-0.35292324,1003.4914,5.682304389817313,1001.7733405773756,0,0
2.78,7.640165299999999,-6.3237114000000005,0.0068882330000000005,1003.5189999999999,5.683284062480823,1001.8666024911363,0,0
2.8,7.085673,-6.5477386,-0.47602433,1003.4789400000001,5.683766804794821,1001.9548131331672,0,0
2.82,6.908778999999999,-6.5906367,-0.13988529,1003.4842,5.683579442144171,1002.0382618491864,0,0
2.84,7.0999336,-6.652601,-0.39554664,1003.5092,5.683192411940577,1002.1172925120038,0,0
2.86,7.3627872000000005,-6.390439,-0.29612738,1003.4942,5.682663770487388,1002.1920808726261,0,0
2.88,7.4822440000000014,-6.438104,-0.27245888,1003.4866300000001,5.682263008972558,1002.2628242449305,0,0
2.9,7.3961697,-6.3999705,-0.19197746,1003.5071,5.681785559036702,1002.329812481417,0,0
2.92,7.348338,-6.442868,-0.02154193,1003.4641,5.681221795261277,1002.3930867222432,0,0
2.94,7.2813807,-6.509599,-0.012076821000000001,1003.5071,5.6805715026401185,1002.4530062892374,0,0
2.96,7.367381,-6.523899,0.068404794,1003.5071,5.680000871153911,1002.509745955992,0,0
2.98,7.3338847000000005,-6.585862,0.12994859,1003.4723,5.6795377220550805,1002.5633463200948,0,0
3.0,7.2669296,-6.6239944,0.04946019,1003.49457,5.679119667624862,1002.6140600070636,0,0
3.02,7.2907906,-6.5381956,-0.22513874,1003.5045,5.678665273205872,1002.6620762048441,0,0
3.04,7.4102479999999975,-6.55726,-0.17779817,1003.4971,5.678390099374693,1002.7075094028653,0,0
3.06,7.362414,-6.5715594,-0.11625418,1003.4848,5.6782178079175285,1002.7504524227866,0,0
3.08,7.3050184000000025,-6.509593,-0.14939849,1003.4949,5.677963234648564,1002.791076886467,0,0
3.1,7.1329074000000015,-6.6764216,-0.26776209999999995,1003.4920699999999,5.677611822428687,1002.8294962377837,0,0
3.12,7.157491,-6.643072599999999,-0.06885436,1003.4974,5.677159105773376,1002.8658480301513,0,0
3.14,7.3438954,-6.6240063,0.030567347999999998,1003.4894400000001,5.676877196282918,1002.9002134049783,0,0
3.16,7.3869047000000005,-6.600173,-0.02151192,1003.5274699999999,5.676780605986744,1002.9328367739176,0,0
3.18,7.2865195000000025,-6.4667096,-0.08306001,1003.4798,5.67650849911673,1002.9636318503267,0,0
3.2,7.205255,-6.4810085,-0.030982327,1003.48694,5.675975498752723,1002.9927262891803,0,0
3.22,7.3008419999999985,-6.571573299999999,-0.06412396,1003.4798,5.675487818958841,1003.02018760071,0,0
3.24,7.2721550000000015,-6.5668063,0.13945468,1003.4698,5.674992648684072,1003.0460710202153,0,0
3.26,7.377300999999999,-6.4190426,-0.09253201,1003.4873,5.674451305079242,1003.0705300340177,0,0
3.28,7.415531,-6.3999767,-0.06412634,1003.4898,5.6739047357203924,1003.0936513904908,0,0
3.3,7.343825999999999,-6.500074,-0.0593927,1003.4647,5.67338015260771,1003.1154171960646,0,0
3.32,7.3581557,-6.490541,0.07316977,1003.5174599999999,5.672886277768817,1003.1360968159637,0,0
3.34,7.448963000000001,-6.4190416,-0.10673845,1003.4848,5.672466554228723,1003.1556246595693,0,0
3.36,7.410716499999999,-6.4190416,-0.07359837,1003.4873,5.672053078605847,1003.1740734934046,0,0
3.38,7.3198919999999985,-6.61447,-0.016786285,1003.5024,5.671773842082894,1003.1915568584053,0,0
3.4,7.3485613,-6.595403999999999,-0.049927945999999994,1003.4823,5.671632217288793,1003.2080518350296,0,0
3.42,7.3103137,-6.514373,-0.016787965,1003.4949,5.671440935295959,1003.2236594497687,0,0
3.44,7.3581038,-6.495305999999999,-0.035726335,1003.4848599999999,5.6712545865880575,1003.2383906601332,0,0
3.46,7.2863975000000005,-6.5906367,-0.10674322,1003.5229,5.671095227432586,1003.2524313912344,0,0
3.48,7.3341875,-6.528671299999999,-0.08780634400000001,1003.4974,5.6709478149217105,1003.2657196682272,0,0
3.5,7.2481422,-6.6144690000000015,-0.08307275,1003.4898,5.670797948652309,1003.2782678789723,0,0
3.52,7.2529125,-6.7383995,0.011614485,1003.4976,5.670827512527954,1003.2901450736226,0,0
3.54,7.2385654000000015,-6.619235499999999,-0.15882482,1003.4622,5.670828382910776,1003.3012591605503,0,0
3.56,7.2767944,-6.6192350000000015,-0.2109041,1003.4823,5.670864629788157,1003.3117313147818,0,0
3.58,7.324584,-6.614468,-0.08781035,1003.4902,5.6709950626119765,1003.3216269975276,0,0
3.6,7.386713,-6.5858684000000025,-0.08781111,1003.4876,5.671264659804093,1003.3309683256103,0,0
3.62,7.3532449999999985,-6.5811020000000005,-0.1682969,1003.4873,5.671599947318394,1003.3397851171325,0,0
3.64,7.401033999999999,-6.4095059999999995,-0.14936006,1003.4901,5.6718303251348745,1003.3481167676996,0,0
3.66,7.3293285,-6.5286694,-0.040469524,1003.49,5.672016450283419,1003.3559893937767,0,0
3.68,7.3245406000000015,-6.542969,-0.031001475,1003.4722,5.672175090285778,1003.3633640043613,0,0
3.7,7.3771095,-6.495303,0.044748165,1003.4926,5.672324993701916,1003.3703454598576,0,0
3.72,7.271945,-6.523903,-0.021534272,1003.4698,5.672342584514599,1003.3768723102788,0,0
3.74,7.2719355,-6.509602,-0.12095764,1003.4876,5.6722248571376825,1003.3830380549942,0,0
3.76,7.2814865000000015,-6.5572677,-0.031004708,1003.4825400000001,5.672067489444463,1003.3888443140268,0,0
3.78,7.319717,-6.6096992,-0.14463119,1003.4673,5.672009755647662,1003.3942571649773,0,0
3.8,7.3244877000000015,-6.633532499999999,-0.1304288,1003.4999,5.672080431556704,1003.3994202742833,0,0
3.82,7.2671220000000005,-6.614464999999999,-0.26299295,1003.5077,5.672154924185781,1003.4043722046787,0,0
3.84,7.2479935,-6.590633,-0.25352487,1003.4975,5.67216928294082,1003.4090829904393,0,0
3.86,7.314901400000001,-6.5286674000000025,-0.24879138,1003.51764,5.672147315504332,1003.4136362459717,0,0
3.88,7.3196735,-6.523901,-0.27246416,1003.5104,5.672095444535576,1003.4180078520744,0,0
3.9,7.267086999999999,-6.5810995,-0.10676074,1003.4901,5.672008826071164,1003.4221301349594,0,0
3.92,7.2431784,-6.4905343,-0.03101113,1003.4873,5.671727801452361,1003.4260071956307,0,0
3.94,7.2718487000000005,-6.581099000000001,-0.09729360000000001,1003.4851,5.671447157515939,1003.4296457005356,0,0
3.96,7.3291974,-6.552499299999999,-0.068887934,1003.4776,5.671216226057643,1003.4330333189477,0,0
3.98,7.376671000000001,-6.490526,-0.059448894,1003.4898,5.671018274020912,1003.4362309786284,0,0
4.0,7.352755,-6.500058999999999,-0.19201374,1003.4572,5.670829530453975,1003.4391319191991,0,0
4.02,7.352739,-6.5048246,-0.22515602,1003.4773,5.670657601865503,1003.4418325953783,0,0
4.039999999999999,7.347944,-6.55249,-0.22989185,1003.5050699999999,5.670559701529966,1003.4444465675067,0,0
4.06,7.3670464,-6.595388400000001,-0.13993965,1003.4876,5.67061305957757,1003.4469116256366,0,0
4.079999999999999,7.362250299999999,-6.600154400000001,-0.11153473,1003.4873,5.670798311933418,1003.449235149148,0,0
4.1,7.300096000000001,-6.581088,-0.19675554,1003.50775,5.670979659904549,1003.4514988679854,0,0
4.119999999999999,7.209264,-6.7097845000000005,-0.22989784,1003.4951,5.6711998553263046,1003.4536560540256,0,0
4.14,7.271386,-6.609686999999999,-0.24410246,1003.4924,5.671408494626533,1003.4557016218159,0,0
4.159999999999998,7.23313,-6.538188,-0.29618248,1003.5177,5.6714505008774125,1003.4577322796773,0,0
4.18,7.1422997000000015,-6.5620199999999995,-0.24410538,1003.4698,5.671235981336787,1003.4595700127563,0,0
4.199999999999998,7.2330985,-6.528654,0.016285281999999998,1003.4798,5.670882054463631,1003.4612666616597,0,0
4.22,7.304778999999999,-6.4523883,0.002080582,1003.4773,5.670411746826964,1003.4628235406481,0,0
4.239999999999998,7.3143233999999975,-6.614451,-0.083140075,1003.4798,5.6700802885874015,1003.4642603141762,0,0
4.26,7.433802,-6.562018400000001,-0.16362649,1003.4700300000001,5.669987365331488,1003.4655506181343,0,0
4.279999999999999,7.534161599999999,-6.6049175,-0.28198805,1003.4798,5.670326497239194,1003.4667420284868,0,0
4.3,7.500688,-6.576318,-0.49503767,1003.4848,5.6709719391333575,1003.4678597673717,0,0
4.319999999999999,7.405075599999999,-6.5667839999999975,-0.49030477,1003.4876,5.671723262135108,1003.4689184662874,0,0
4.34,7.3572625999999985,-6.6001496,-0.46663415,1003.5002,5.672535089696858,1003.4699665461708,0,0
4.359999999999999,7.285547699999999,-6.4428529999999995,-0.2725252,1003.4723,5.673053750681193,1003.4709010299896,0,0
4.38,7.247292999999999,-6.395187,-0.0926193,1003.49,5.67317930943758,1003.471795496184,0,0
4.4,7.2663965,-6.323688,0.12516192,1003.49506,5.672889757533767,1003.4726695987273,0,0
4.42,7.438453999999999,-6.4190187000000005,0.18197338,1003.4773,5.672636286818702,1003.4734586251786,0,0
4.44,7.467116000000001,-6.50005,0.054142855,1003.50745,5.672567740312438,1003.4742781779007,0,0
4.46,7.4384217,-6.5334153,-0.116297126,1003.4875,5.672664703307017,1003.4750499332457,0,0
4.48,7.333754499999999,-6.609692599999999,-0.27248779999999995,1003.4876,5.672856810669843,1003.4757770365088,0,0
4.5,7.1091074999999995,-6.657358,-0.57075495,1003.4773,5.672882381901871,1003.4764249876204,0,0
4.52,7.0469737000000015,-6.5953927,-0.54708254,1003.4773,5.672575883512755,1003.4770006672672,0,0
4.539999999999999,7.0087385,-6.5715600000000025,-0.47133178,1003.4951,5.6718770239544725,1003.4775744954007,0,0
4.56,7.1951547000000025,-6.5906262,-0.19200155,1003.5152,5.671125028765839,1003.4782169817564,0,0
4.579999999999999,7.338553,-6.5381947,-0.106781885,1003.4873,5.67047418557242,1003.4788173815657,0,0
4.6,7.453272,-6.5620270000000005,-0.12098476,1003.4823,5.670126729374747,1003.4793604322638,0,0
4.619999999999999,7.2620830000000005,-6.657358599999999,-0.026296336,1003.4898,5.669883948249594,1003.4798778543044,0,0
4.64,7.1569313999999995,-6.7240899999999995,-0.08784324,1003.4926,5.669669428738173,1003.480380848144,0,0
4.659999999999998,7.2907699999999975,-6.5906270000000005,-0.24881269,1003.44745,5.669502951720417,1003.4807067424472,0,0
4.68,7.238196,-6.495296,-0.39557886,1003.4848599999999,5.669175894676397,1003.4810096543808,0,0
4.699999999999998,7.2573184999999985,-6.442864,-0.39084417,1003.4698,5.668664848037609,1003.4812369526096,0,0
4.72,7.3624782999999985,-6.4619303,-0.27721799999999996,1003.5024,5.668174956101116,1003.481513980295,0,0
4.739999999999998,7.4771975999999984,-6.3904314000000015,-0.16359200000000002,1003.4647,5.667783142874926,1003.4816982316287,0,0
4.76,7.520219,-6.4142647,0.011581293999999999,1003.4924,5.667576758236568,1003.4818995624736,0,0
4.779999999999999,7.4533057000000005,-6.480996,0.15834817,1003.4848599999999,5.6675227118142315,1003.4820881159833,0,0
4.8,7.381612,-6.480996599999999,0.01631641,1003.51996,5.667488644326763,1003.4823910606464,0,0
4.819999999999999,7.314698700000001,-6.4619307999999975,0.016316734,1003.5101,5.6673417916538575,1003.4827584947328,0,0
4.84,7.319483,-6.4905300000000015,-0.13044949,1003.5049,5.667144432831889,1003.4831628689104,0,0
4.859999999999999,7.5489169999999985,-6.5858607000000005,-0.38610700000000003,1003.4973,5.667405743988326,1003.4835710676056,0,0
4.88,7.55848,-6.790823,-0.3955755,1003.51245,5.668369215443453,1003.4840357161293,0,0
4.9,7.453328,-6.600161,-0.45238802,1003.51764,5.669528114161787,1003.4845672549867,0,0
4.92,7.434212,-6.361833,-0.43818440000000003,1003.4773,5.670499323305869,1003.4850107606031,0,0
4.94,7.195226,-6.1187387000000015,-0.2582767,1003.4597,5.670582332032839,1003.4853115234278,0,0
4.96,7.113973,-6.1950035,-0.026290502,1003.4848,5.669848352521403,1003.4855754359752,0,0
4.98,7.2718690000000015,-6.2903395,0.17730373,1003.4973,5.668776178179899,1003.4858508375328,0,0
5.0,7.568227,-6.41427,0.26252395,1003.4695,5.668048282751181,1003.4860353193336,0,0
5.02,7.639933,-6.6621312999999995,0.11102389,1003.4518400000001,5.668070127498537,1003.4860752243036,0,0
5.039999999999999,7.482212,-6.790828,-0.31033704,1003.4698,5.668695875096312,1003.4860518935272,0,0
5.06,7.1189575,-6.852794,-0.8121829,1003.4949,5.669448661908577,1003.4860631316368,0,0
5.079999999999999,6.817839,-6.7526965,-1.0725744,1003.4798,5.669772773735592,1003.4860505143564,0,0
5.1,6.7222532999999975,-6.8194284,-0.8074467,1003.4848599999999,5.669621247535929,1003.4860350798756,0,0
5.119999999999999,6.899114,-6.705031,-0.5139130000000001,1003.4619,5.669101194220038,1003.485934555681,0,0
5.14,7.30063,-6.504836,-0.12095619999999999,1003.4697,5.668557955243938,1003.485787288102,0,0
5.159999999999998,7.439254300000001,-6.3809066,0.044748873,1003.4948,5.668042229386716,1003.4856896082323,0,0
5.18,7.4488214999999975,-6.404739,0.054218337,1003.4848,5.667600127295933,1003.4856000957097,0,0
5.199999999999998,7.420153,-6.595402,0.21045467,1003.4923,5.667444969622054,1003.4855451221001,0,0
5.22,7.472742999999999,-6.5858684000000025,0.10629889,1003.4695,5.667609176088503,1003.4854387849788,0,0
5.239999999999998,7.5444502999999985,-6.3427744000000015,-0.18249889,1003.4545,5.667840624459207,1003.4852334458728,0,0
5.26,7.5731363,-6.3809074999999975,-0.32453033,1003.51215,5.6682348458173095,1003.4851489078336,0,0
5.279999999999999,7.4727726,-6.39044,-0.46182690000000004,1003.5049,5.668636743032888,1003.485145313954,0,0
5.3,7.515801400000001,-6.4381065,-0.4428884,1003.4948,5.6691744001615225,1003.4851768952716,0,0
5.319999999999999,7.506251299999999,-6.423807,-0.40974668,1003.5074,5.669792736258699,1003.4852848037007,0,0
5.34,7.391546000000001,-6.4810057,-0.19669758,1003.51495,5.670364208171272,1003.4854869462956,0,0
5.359999999999999,7.2720613,-6.361842,-0.177759,1003.4823,5.670541516935681,1003.4856540864861,0,0
5.38,7.104778,-6.552505,-0.07833561,1003.4949,5.670373326573949,1003.4858350568463,0,0
5.4,7.147806,-6.4714737,0.17258872,1003.51996,5.6698554171376125,1003.4861178120523,0,0
5.42,7.300769,-6.528672,0.082635894,1003.4894400000001,5.6693437335145465,1003.4863796144293,0,0
5.44,7.3055600000000025,-6.681203,-0.040457625,1003.4971,5.6690588742944685,1003.4866495363973,0,0
5.46,7.3199086,-6.652603,-0.13514487,1003.4967,5.6689591997323365,1003.4869242211172,0,0
5.48,7.2907286,-6.6764235,-0.47606784,1003.51465,5.66903396791333,1003.4872667453396,0,0
5.5,7.3624152999999986,-6.623991499999999,-0.5281471999999999,1003.497,5.669305124824993,1003.4876044394592,0,0
5.52,7.4580020000000005,-6.547726,-0.40031916,1003.48694,5.6697795560429824,1003.4879004340016,0,0
5.539999999999999,7.539249000000001,-6.333231,-0.39558572,1003.497,5.670269266439504,1003.4881947332166,0,0
5.56,7.2954683000000005,-6.4523945,-0.15886642,1003.4816,5.670534803795036,1003.4884310349637,0,0
5.579999999999999,7.166403999999999,-6.5048265,-0.05471042,1003.4996,5.6704718644244325,1003.4886800394612,0,0
5.6,7.242871000000001,-6.6001573,0.0683832,1003.47955,5.670369978203858,1003.4888671916933,0,0
5.619999999999999,7.2667603000000005,-6.800353,-0.09732187,1003.4716,5.670553319107782,1003.4889703975152,0,0
5.64,7.4005837,-6.60969,-0.012103591,1003.4892,5.6709249379706215,1003.4890624167483,0,0
5.6599999999999975,7.2428412,-6.700254400000001,-0.30090305,1003.5195,5.67135509676922,1003.4892533002428,0,0
5.68,7.2954082,-6.6096897,-0.111527875,1003.4765,5.6717806908171085,1003.4893760530176,0,0
5.6999999999999975,7.5535083,-6.685954,-0.20621686,1003.5193,5.6727091714979805,1003.4895922435784,0,0
5.72,7.768588999999999,-6.828950999999999,0.09678413,1003.4866300000001,5.6746070804715325,1003.4897726054808,0,0
5.7399999999999975,7.830717,-6.647821,-0.02157683,1003.4791,5.677205452016791,1003.4898935518784,0,0
5.76,7.6681933,-6.3570614,-0.16360994,1003.4892,5.679768930462299,1003.4899979233284,0,0
5.779999999999999,7.4578743,-6.4333262000000015,-0.26303312,1003.4689300000001,5.682065416505443,1003.4900143014177,0,0
5.8,7.276228999999999,-6.7908173,0.0020923913,1003.4789400000001,5.684325713006762,1003.4899889056122,0,0
5.819999999999999,7.1376057,-6.757451,0.092045225,1003.4765,5.6862893549715325,1003.4899179058183,0,0
5.84,7.0706777999999995,-6.5953880000000025,-0.31038016,1003.46155,5.6876612148496175,1003.4897530459393,0,0
5.859999999999999,6.917714599999999,-6.5953875,-0.48555404,1003.46906,5.688289199783795,1003.4895328807852,0,0
5.88,6.865127,-6.643053,-0.5376333000000001,1003.4789400000001,5.688253237394768,1003.489300208484,0,0
5.9,6.932033500000001,-6.46669,-0.7270105,1003.47644,5.687505499219794,1003.489048322488,0,0
5.92,7.204472,-6.1854634000000015,-0.7222771,1003.4839,5.686162801303588,1003.488807222061,0,0
5.94,7.3860955000000015,-6.199763,-0.7648876,1003.4914,5.684612190799243,1003.4886035197244,0,0
5.96,7.3908644,-6.5286550000000005,-0.47135532,1003.4989,5.683297508368149,1003.4884605956688,0,0
5.98,7.5445113,-6.3904414,-0.46655749999999996,1003.4762,5.682249080294082,1003.4882901698288,0,0
6.0,7.4393725,-6.4381080000000015,-0.22036697,1003.5035,5.681320386746466,1003.4881943369452,0,0
6.02,7.262536999999999,-6.4667069999999995,-0.43341357,1003.4837,5.680278761131048,1003.4880934793961,0,0
6.039999999999999,7.033125,-6.4667080000000015,-0.30084859999999997,1003.4889,5.6787772973765405,1003.48800726514,0,0
6.06,7.3725085,-6.2379136,-0.46181673,1003.5089999999999,5.677102479864179,1003.4880066600688,0,0
6.079999999999999,7.812266,-6.2617464000000025,-0.5091594,1003.5191,5.676021570514831,1003.4881180614516,0,0
6.1,7.8553042,-6.5477405,0.04476778,1003.5014,5.675888122669601,1003.488264310692,0,0
6.119999999999999,7.3343225000000025,-6.914765400000001,-0.007309135,1003.5088,5.676287889283418,1003.4884674650026,0,0
6.14,6.765542999999999,-7.114961599999999,-0.25823095,1003.5165,5.6766200986488835,1003.4887478892773,0,0
6.1599999999999975,6.8754954,-6.743170699999999,-1.048875,1003.5035,5.676612389772407,1003.4890487797653,0,0
6.18,7.535125,-6.2522160000000016,-1.006264,1003.5339,5.67662766708376,1003.489476110993,0,0
6.1999999999999975,7.974885499999999,-5.9423900000000005,-0.91157407,1003.5088,5.676963062282486,1003.4899232668663,0,0
6.22,7.7167916,-6.3618474,-0.58963305,1003.4887,5.677645339044262,1003.4903139700352,0,0
6.2399999999999975,6.9902805999999975,-6.867103,-0.3197703,1003.5110000000001,5.678186433041343,1003.4907336650633,0,0
6.26,7.1050124000000014,-6.352315,-0.9068350000000001,1003.5160000000001,5.678121604476329,1003.491195466396,0,0
6.279999999999999,7.922378,-6.090154599999999,-1.3139921,1003.4988,5.678571313888942,1003.4916308903745,0,0
6.3,7.664286,-6.423814299999999,-0.53281367,1003.5135,5.679340604112723,1003.4920943597963,0,0
6.319999999999999,7.100286,-6.175954,-0.26295105,1003.5060000000001,5.679141599008044,1003.492553941682,0,0
6.34,6.727479,-6.276052,-0.19193336,1003.4957,5.677647731211278,1003.4929713540463,0,0
6.359999999999999,6.7370553,-6.3141847,-0.44285527,1003.5060000000001,5.675101671454879,1003.4933870827373,0,0
6.38,7.363225999999999,-6.4524155,-0.22980551,1003.5010000000001,5.672776052189028,1003.49378182711,0,0
6.4,7.7599673,-6.5000815,-0.17772546,1003.5183,5.671341927859375,1003.4942188886606,0,0
6.42,7.6548295,-6.609712599999999,-0.15878624,1003.51825,5.670681198663111,1003.4946915882476,0,0
6.44,7.2342257,-6.5239150000000015,-0.31028545,1003.50824,5.669940379641408,1003.4951580398848,0,0
6.46,7.057389,-6.590647,-0.9399599000000001,1003.4702,5.669039030102973,1003.4954803476078,0,0
6.48,6.9893092999999995,-6.800347299999999,-0.8832533000000001,1003.5233,5.668185502164977,1003.4958652894604,0,0
6.5,7.1326740000000015,-6.952876,-0.66547334,1003.51074,5.667775142172508,1003.4962589730394,0,0
6.52,7.2999399999999985,-6.876610799999999,-0.8643209000000001,1003.503,5.667930303843941,1003.4966310995468,0,0
6.539999999999999,7.338151,-6.676414500000001,-1.0252932,1003.50543,5.668392750206305,1003.4969915865704,0,0
6.56,7.218625,-6.619215,-0.94954556,1003.5253,5.668847061025115,1003.4974120231927,0,0
6.579999999999999,7.1707993000000005,-6.5810823,-1.0395017,1003.4802,5.669185320172953,1003.4977215577087,0,0
6.6,7.256807000000001,-6.4905167,-0.7365025,1003.5204,5.66936867768299,1003.4980767047994,0,0
6.619999999999999,7.3093557,-6.5477147,-0.4050968,1003.5253,5.669534727175223,1003.4984885166314,0,0
6.64,7.404922,-6.5000485999999995,-0.28200495,1003.5101300000001,5.6697587852092735,1003.498894302906,0,0
6.6599999999999975,7.576967999999999,-6.3379845999999995,-0.19678824,1003.5026,5.670081332462216,1003.4992661961683,0,0
6.68,7.6056175,-6.2331195,-0.29621336,1003.5077,5.670401803537666,1003.4996251627484,0,0
6.6999999999999975,7.519553699999999,-6.337983,-0.31515348,1003.5079300000001,5.670722254478807,1003.4999722430326,0,0
6.72,7.414366999999999,-6.3856483,-0.32935956,1003.5077,5.670940394052105,1003.5003067430968,0,0
6.7399999999999975,7.4860353,-6.309383,-0.5234728,1003.4925,5.671095480587834,1003.5005742030783,0,0
6.76,7.3951917,-6.5095773,-0.4571937,1003.495,5.671315769512075,1003.5007904635872,0,0
6.779999999999999,7.290007000000001,-6.5667753,-0.4666651,1003.5050699999999,5.671509681359116,1003.5009969577036,0,0
6.8,7.189605,-6.6478057,-0.5234803,1003.5075699999999,5.671644989722612,1003.5012030788573,0,0
6.819999999999999,7.0748606,-6.7479033,-0.5282174,1003.5049,5.671697175537504,1003.5013985164246,0,0
6.84,7.103510000000001,-6.7479024,-0.62764263,1003.5149,5.671730962006902,1003.5016198103999,0,0
6.859999999999999,7.108258999999999,-6.752668400000001,-0.6607863,1003.49475,5.671766836153573,1003.5017906144394,0,0
6.88,7.1608095,-6.738367599999999,-0.7318048,1003.5024,5.671873665119126,1003.5019437306764,0,0
6.9,7.141663,-6.7050009999999975,-0.6939320999999999,1003.5047599999999,5.6719608092913605,1003.5020891627534,0,0
6.92,7.136854,-6.7336,-0.50929296,1003.502,5.672040138576604,1003.5022173455504,0,0
6.94,7.160723700000001,-6.695467,-0.4477484000000001,1003.51996,5.67208796555369,1003.5023944814258,0,0
6.96,7.203714999999999,-6.6811666,-0.39093804,1003.5174599999999,5.672147839302473,1003.5026052345523,0,0
6.98,7.247786,-6.6764255000000015,-0.32456,1003.49945,5.672273666837655,1003.5027800971704,0,0
7.0,7.223901,-6.6859592999999995,-0.39084035,1003.50226,5.6724393025642135,1003.50293273343,0,0
7.02,7.1283179999999975,-6.7479252999999995,-0.39557359999999997,1003.5271,5.6725829279522255,1003.5031546049884,0,0
7.039999999999999,7.17135,-6.7431583,-0.43818194,1003.49677,5.672768545001848,1003.5033276661197,0,0
7.06,7.1570240000000025,-6.6716604,-0.43818074,1003.4993,5.6728674193931115,1003.5034660833372,0,0
7.079999999999999,7.071001,-6.776525500000001,-0.60388356,1003.5093400000001,5.672927346808602,1003.5036095348904,0,0
7.1,7.080575,-6.800358999999999,-0.53286624,1003.4942599999999,5.672992675540353,1003.5037026303572,0,0
7.119999999999999,7.080589,-6.733627,-0.59441227,1003.4917,5.672974241134756,1003.5037416800426,0,0
7.14,7.1427383,-6.7050276,-0.47131658,1003.5092,5.672920936722249,1003.5037958342964,0,0
7.1599999999999975,7.166652,-6.6382957,-0.5091905,1003.48694,5.672782786575671,1003.5037830039917,0,0
7.18,7.099748599999999,-6.6954949999999975,-0.44290763,1003.4992,5.672543066161263,1003.5037551683197,0,0
7.1999999999999975,7.2001395000000015,-6.633530599999999,-0.35295257,1003.5042,5.672271620390798,1003.5037321741144,0,0
7.22,7.3339868,-6.5525,-0.4476395,1003.5092,5.672073933090831,1003.5037315406076,0,0
7.2399999999999975,7.3770190000000015,-6.5667995999999995,-0.33874688,1003.5346,5.672019572031371,1003.5038421072948,0,0
7.26,7.295776400000001,-6.5715660000000025,-0.39555848,1003.5193,5.671977343262512,1003.5039954524333,0,0
7.2799999999999985,7.262331,-6.590633,-0.44763565,1003.4992,5.671925669203852,1003.5041136845689,0,0
7.3,7.228886,-6.7288632,-0.43816563,1003.5191699999999,5.672008047439791,1003.5042723572197,0,0
7.3199999999999985,7.195441199999999,-6.633532499999999,-0.39555475,1003.4941,5.672019344327659,1003.5043759398877,0,0
7.34,7.1380973,-6.562034,-0.45236632,1003.51166,5.671784768239872,1003.5044936881495,0,0
7.3599999999999985,7.085532700000001,-6.576335,-0.5091779000000001,1003.48914,5.671279627821591,1003.5045424572363,0,0
7.38,7.066427,-6.771764,-0.49023908,1003.4992,5.6707846965249376,1003.5045663167557,0,0
7.399999999999999,7.1285789999999984,-6.7479315,-0.29139277,1003.5088,5.6703434315453745,1003.5046026402864,1,1
7.42,7.248088,-6.6383004,-0.47603327,1003.5089999999999,5.669992647168142,1003.5046505662532,1,1
7.439999999999999,7.300679700000001,-6.4762379999999995,-0.48550075,1003.4862,5.669579878810882,1003.5046264915989,1,1
7.46,7.166859,-6.671667,-0.6606725,1003.4884,5.6692023568748615,1003.5045468038646,1,1
7.479999999999999,7.0714654999999995,-6.7527037,-0.5896378999999999,1003.5143,5.668819265798051,1003.5045115032888,1,1
7.5,7.0714884000000024,-6.805136,-0.6227767,1003.5013,5.6685121921967045,1003.504468750288,1,1
7.52,7.04283,-6.8003706999999975,-0.7648069000000001,1003.50635,5.668244601674434,1003.5044377462352,1,1
7.539999999999999,6.8659987000000005,-6.7527050000000015,-0.93050915,1003.5188,5.667711715310168,1003.504462055168,1,1
7.56,6.7991033,-6.8861690000000015,-0.8831631,1003.4962,5.667034250458306,1003.5044537911424,1,1
7.579999999999999,7.0620119999999975,-6.9004693,-0.7884732,1003.49603,5.666621596298037,1003.5044161634012,1,1
7.6,6.9998975,-6.767007,-0.5848916000000001,1003.4960000000001,5.666129649827577,1003.5043526173407,1,1
7.619999999999999,6.9616804000000005,-6.5143794999999995,-0.8594852,1003.5009,5.665193845384391,1003.5042840386197,1,1
7.64,6.9043449999999975,-6.4095163,-1.0393906,1003.5138,5.6636718939649295,1003.5042576999223,1,1
7.6599999999999975,7.2437296,-6.5191474000000005,-1.0535921,1003.4960000000001,5.6623111392169365,1003.5042046993296,1,1
7.68,7.6643744000000025,-7.114967299999999,-1.0299181999999998,1003.5188,5.662565721404651,1003.5042104110884,1,1
7.6999999999999975,8.032442,-6.9290724,-0.49019384,1003.49835,5.664477520572424,1003.5041943605187,1,1
7.72,8.754213,-5.8089319999999995,-0.29608136,1003.5136,5.667620033656402,1003.5042140385373,1,1
7.7399999999999975,9.514223,-5.360875599999999,-1.0109746,1003.51825,5.672788414674705,1003.5042819554956,1,1
7.76,10.704415,-5.889964,-0.9683630999999999,1003.5184300000001,5.682407145820715,1003.5043928998804,1,1
7.7799999999999985,12.219634,-5.422842,-0.7363751999999999,1003.4806,5.698278384111573,1003.5044052758992,1,1
7.8,13.620139000000002,-4.193071,0.34307104,1003.51825,5.721417066291218,1003.5044660523563,1,1
7.8199999999999985,14.480521,-3.2683590000000002,2.3883355,1003.5207,5.75251638760008,1003.5045781966452,1,1
7.84,11.789516,-5.694537599999999,2.563511,1003.5157,5.787016196475418,1003.5047173258307,1,1
7.8599999999999985,9.50479,-7.982486,1.2189417,1003.4906,5.822589213739202,1003.5047894380062,1,1
7.88,8.003952,-9.074026,-0.34341002,1003.51825,5.858218959081093,1003.5049016143477,1,1
7.899999999999999,6.264125,-10.156036,-0.5801283,1003.49054,5.893442323137987,1003.5049490315512,1,1
7.92,5.050076,-10.604092999999999,-0.24398361,1003.4978,5.92776653102661,1003.5049651928787,1,1
7.939999999999999,2.6793150000000003,-12.753810000000001,-1.0961746,1003.49536,5.963938024036716,1003.5049448943333,1,1
7.96,-0.9246368,-15.017926000000001,-3.0846226000000003,1003.4930400000001,6.006352674101622,1003.5048841009192,1,1
7.979999999999999,-2.4875803,-15.075126000000001,-1.6642964,1003.48785,6.0541520133047815,1003.504769061095,1,1
8.0,5.451698,-11.833867999999999,-2.3460484,1003.47784,6.102108856760287,1003.5045704672864,1,1
8.02,9.8921585,-8.764205,-6.9857625999999975,1003.48553,6.15358645319261,1003.5043264441147,1,1
8.04,9.982997,-12.291458,-5.5038924000000025,1003.4928,6.211762546717575,1003.5040693300416,1,1
8.059999999999999,11.569916000000001,-14.627070999999999,0.8212745000000001,1003.50037,6.279604997085878,1003.5038288264584,1,1
8.08,11.985778,-12.224728,4.310532599999998,1003.49286,6.353638325156207,1003.5035768297173,1,1
8.1,11.703793,-9.121699000000001,4.106955,1003.5003,6.4281820347300895,1003.5033423688094,1,1
8.12,10.819554,-8.177921000000001,1.3799404,1003.5079300000001,6.49924204473202,1003.5031517146235,1,1
8.139999999999999,10.8673725,-6.99105,0.5466871,1003.4749,6.5655150132269045,1003.5028815464124,1,1
8.16,10.355955,-4.989096,1.4272884,1003.5079300000001,6.6245134984001295,1003.502661000214,1,1
8.18,9.567311,-3.4542656000000003,2.075904,1003.4725,6.674373776352091,1003.5023575459925,1,1
8.2,8.697410000000001,-3.4066002,0.98699313,1003.4928,6.713925066330985,1003.5020550066763,1,1
8.219999999999999,8.568377499999999,-3.964288,0.006973287,1003.51776,6.744325232340128,1003.5018442209127,1,1
8.24,9.591277999999999,-4.5315094,1.6450793999999995,1003.4848599999999,6.769218873458349,1003.5015968274167,1,1
8.26,11.837808,-4.269349,2.0569745999999998,1003.4978,6.793348503513053,1003.5013645619451,1,1
8.28,13.592017000000002,-4.5648766,0.15848035,1003.4825,6.820016385286663,1003.5010914197513,1,1
8.299999999999999,14.160839999999999,-6.123541,-0.30075464,1003.4774,6.851100921513443,1003.5007647821976,1,1
8.32,13.094964,-8.67365,0.20582858,1003.4895,6.88655247271449,1003.5004356120394,1,1
8.34,11.923935,-11.543117,-0.20132814,1003.4975,6.9275823353563935,1003.5001341890843,1,1
8.36,11.857039,-13.907330499999999,0.10167575,1003.5126,6.976883056576022,1003.4999127286802,1,1
8.379999999999999,11.728007,-14.770076999999999,1.5930153,1003.53,7.034667847922397,1003.499825360444,1,1
8.4,9.9021435,-13.587972,2.2605684,1003.5096,7.095661818390923,1003.499783350573,1,1
8.42,7.2589345000000005,-11.953044,0.9065306999999999,1003.5172,7.153139037170672,1003.4998089305886,1,1
8.44,6.8861322,-9.731829,-0.43330377,1003.50464,7.202969789721434,1003.4998489249408,1,1
8.459999999999999,7.1968426999999995,-8.135033,-0.63214666,1003.4942599999999,7.243683065042707,1003.4998641438203,1,1
8.48,6.747561,-6.9672265,0.47097147,1003.472,7.273762932960684,1003.4997772803044,1,1
8.5,6.0103617,-7.610684,1.1904994,1003.4996,7.29446372835849,1003.4996998894928,1,1
8.52,5.5706014999999995,-8.158838000000001,0.97744954,1003.4971,7.307128634474997,1003.4996221473692,1,1
8.54,4.62418,-8.3638,0.65550804,1003.48676,7.3119241974920675,1003.4995071506987,1,1
8.559999999999999,3.1471984,-7.968174,-0.27243724,1003.4749,7.307654190123611,1003.4993169538977,1,1
8.58,2.6261804,-8.354265,-1.5223218,1003.467,7.296048360673689,1003.4990325549707,1,1
8.6,2.301133,-8.749888,-1.7022313000000002,1003.4692,7.278662315680853,1003.4986738628807,1,1
8.62,4.987362999999998,-8.950085000000003,-1.3234806000000001,1003.477,7.2585693872819155,1003.4982788966437,1,1
8.639999999999999,8.428801,-10.503981,-2.0005023,1003.477,7.242983594677608,1003.4978533004484,1,1
8.66,10.775664,-13.077922000000001,-2.0667856,1003.4717,7.238618626603293,1003.4973830917688,1,1
8.68,12.964794,-13.735705,-1.4986593000000001,1003.4719,7.248084007357319,1003.4968758762492,1,1
8.7,13.944633999999999,-11.647953,-0.7553595000000001,1003.45905,7.268151554932497,1003.4962915274617,1,1
8.719999999999999,14.360456,-9.00728,-0.9636751,1003.4993,7.295007839453603,1003.4957860273739,1,1
8.74,14.317419000000001,-7.591612,-1.4181798,1003.5118,7.3262874351489184,1003.4953970177983,1,1
8.76,13.117666,-6.533436,-0.64647377,1003.4766,7.358040204844749,1003.4949856196727,1,1
8.78,11.468613000000001,-4.860374,0.6081416000000001,1003.48413,7.3855281870573615,1003.4945830280583,1,1
8.799999999999997,10.015533,-4.2740870000000015,0.082620814,1003.5043,7.405862481275174,1003.4942622792067,1,1
8.82,9.427597,-3.8784620000000003,-1.3850466000000001,1003.48145,7.4185517088658575,1003.4939327413164,1,1
8.84,10.206685,-3.411339,-1.5365493000000001,1003.4635599999999,7.425651690560802,1003.4935322197676,1,1
8.86,11.6788435,-3.3684394,-0.26299629999999996,1003.4666,7.430462301547777,1003.493081362936,1,1
8.879999999999997,12.701701,-5.1177660000000005,0.40928733,1003.4710699999999,7.43643837932873,1003.492603744933,1,1
8.9,13.150984,-7.1483183000000015,-0.13517106,1003.4939,7.446059739240752,1003.492186388184,1,1
8.92,12.639524,-8.82138,0.14415695,1003.50635,7.4597930044491125,1003.4918686007628,1,1
8.94,11.812596000000001,-10.413408,0.5039697,1003.5289300000001,7.477819304693044,1003.4917212248347,1,1
8.959999999999997,12.457851,-13.192310999999998,0.48976484,1003.5187400000001,7.504554266064479,1003.4916882710556,1,1
8.98,13.083984,-16.19524,0.5891854999999999,1003.5364400000001,7.544451965331298,1003.4918202593202,1,1
9.0,11.1065,-15.170465,1.9007393,1003.5061599999999,7.591822967508904,1003.4919885072172,1,1
9.02,8.319906,-11.790977499999999,2.47834,1003.5108,7.636782389201281,1003.4922048924333,1,1
9.04,6.4366970000000014,-8.95011,1.6356188,1003.49335,7.672180542835213,1003.4924002127973,1,1
9.06,5.5190067,-8.101664,0.7266161,1003.50366,7.696269293361653,1003.4926133331047,1,1
9.08,4.362335,-8.115964,0.2437105,1003.48816,7.709005298619963,1003.4927856142095,1,1
9.1,3.6884105000000003,-7.7537065,0.03539927,1003.4861,7.710352829317213,1003.4929137735824,1,1
9.12,2.8041810000000003,-7.3342505000000005,-0.48064768,1003.4653300000001,7.7001369605869625,1003.4929277136197,1,1
9.14,2.4170492,-7.329484,-1.19554,1003.4808,7.679622064100063,1003.4928963712672,1,1
9.16,3.1244924,-8.115967999999999,-1.943573,1003.4452,7.65236997120464,1003.4926969702279,1,1
9.18,4.735322,-9.293307,-2.1282115000000004,1003.45026,7.622866910945652,1003.492368006377,1,1
9.2,7.961722,-12.272407000000001,-2.4454136,1003.4482,7.600182915642657,1003.4919183290953,1,1
9.22,9.59167,-13.487879999999999,-1.3422941000000002,1003.4325,7.5872914462288925,1003.4913070882643,1,1
9.24,11.321992999999999,-10.747110000000001,-0.33386278,1003.4783,7.5810395417745085,1003.4907201703484,1,1
9.26,13.181369,-9.588837,-2.3175755000000002,1003.4904,7.582443533370446,1003.4902004170648,1,1
9.28,13.109708,-10.961606,-4.448054,1003.47046,7.593088853950207,1003.4896700975618,1,1
9.3,12.067743,-12.181847,-2.3270376,1003.4653,7.611126499095253,1003.4891137748976,1,1
9.32,11.059238,-11.605093,1.3279256000000002,1003.48505,7.633097914210549,1003.488607578602,1,1
9.34,10.877641,-8.054008999999999,2.6819685,1003.4879,7.6537111794520465,1003.4881577562725,1,1
9.36,10.820314999999999,-4.3503957,1.2663845,1003.4982,7.668753464073305,1003.4877964453392,1,1
9.38,10.686514,-3.0681922000000004,0.13486485,1003.4852,7.6775478538157,1003.4874678437956,1,1
9.4,9.539405,-2.8250990000000002,-0.51374465,1003.45966,7.678385441595774,1003.4870773832337,1,1
9.42,8.722093,-3.049128,-0.22020842,1003.45465,7.670693159267018,1003.4866156337016,1,1
9.44,8.368421000000001,-4.8556542,0.049655742999999995,1003.4649699999999,7.6563913767012215,1003.486129707534,1,1
9.46,8.741272,-6.0139275,0.17748703,1003.4854,7.638247364423885,1003.4856977162249,1,1
9.48,9.79764,-6.156925,1.2995438999999998,1003.47974,7.618919898319138,1003.4852945609257,1,1
9.5,10.820082000000001,-6.609737400000001,1.4604736999999999,1003.4443,7.600941566681295,1003.4847907524844,1,1
9.52,11.976808,-9.941562,1.0107064000000001,1003.45465,7.590112524518776,1003.4842370806365,1,1
9.54,12.574299,-11.6813545,1.5551643,1003.4744,7.589038255598303,1003.4837124427013,1,1
9.56,11.833442999999999,-10.170357000000001,1.8676363,1003.45685,7.5934310698820076,1003.483152167828,1,1
9.58,12.526530000000001,-13.201887,0.7408496,1003.4671,7.6078334586537135,1003.4825993211456,1,1
9.6,12.301894,-14.84635,0.39997375,1003.4645,7.63325429951941,1003.4820456682612,1,1
9.62,9.510504,-13.935938,1.4841537,1003.46185,7.663439381395582,1003.4814837561667,1,1
9.64,5.691451,-12.510736999999999,1.4178731000000002,1003.4794300000001,7.691241537979346,1003.4809798571176,1,1
9.66,3.841685500000001,-8.449632000000001,-1.1623757,1003.4794300000001,7.7075619366401185,1003.4805290324324,1,1
9.68,4.8741384000000005,-5.9853214999999995,-1.5269235,1003.4642,7.710589722250477,1003.4800718992237,1,1
9.7,5.1466017,-5.5181994,-0.9682626,1003.4490400000001,7.701319048696622,1003.4795562614836,1,1
9.72,4.3340507000000015,-5.8280263,0.33370036,1003.4616,7.6805143366312505,1003.4790360014348,1,1
9.74,3.9086635000000003,-6.1712190000000025,0.6793133000000001,1003.4569,7.649729904407604,1003.4784966100507,1,1
9.76,4.0472894,-7.2389274000000015,0.25321788,1003.4418300000001,7.612235561198077,1003.4778880040272,1,1
9.78,4.9602494,-9.584075,-0.7741463000000001,1003.4365,7.574189063614613,1003.4772012429306,1,1
9.8,6.255591000000001,-10.818612,-0.77887934,1003.4569,7.539329005204525,1003.476521336351,1,1
9.82,7.364521499999999,-10.194195,-1.1386926000000002,1003.4769,7.507630892820135,1003.4759219340863,1,1
9.84,8.301377,-10.275226,-0.6794541000000001,1003.4616,7.480086871605893,1003.4753407432826,1,1
9.86,10.022122,-10.923478,-1.7352251,1003.4515,7.45984313175503,1003.4747413764128,1,1
9.88,11.312683,-10.53262,-2.9898407000000002,1003.4589,7.447822197722999,1003.4741547468911,1,1
9.9,12.335574000000001,-9.39818,-3.4869523,1003.44885,7.443425476594863,1003.4735453039572,1,1
9.92,12.521999000000001,-9.407714,-1.4795635,1003.44135,7.445442472490879,1003.4728908970866,1,1
9.94,9.974383999999999,-11.01881,2.1990707,1003.47144,7.451649129166582,1003.472307439946,1,1
9.96,8.72687,-7.605956,2.184869,1003.4743699999999,7.454792906391798,1003.471799322433,1,1
9.98,8.951536,-5.1464133,1.6640857,1003.46906,7.452471527219174,1003.4713404882376,1,1
10.0,8.626205,-4.7793813,0.5751449000000001,1003.4739400000001,7.444123528163264,1003.4709444205847,1,1
10.02,8.975133999999997,-4.2264610000000005,1.0959296,1003.4614,7.4306931672006105,1003.470560095293,1,1
10.04,9.577391,-3.335114,1.8392313999999998,1003.46906,7.413498093033887,1003.4702151051221,1,1
10.06,10.418639,-3.5686755,2.1517023999999996,1003.46906,7.394938571254291,1003.4699061134284,1,1
10.08,11.350702,-3.7927039,1.2142903999999999,1003.4765,7.376919466334519,1003.4696568263596,1,1
10.1,13.324764000000002,-5.0796747,-0.22496833,1003.4661,7.36408376871722,1003.4694237517307,1,1
10.12,13.7310505,-7.5201516,-0.23443694,1003.4636,7.358774421838545,1003.4691968414822,1,1
10.14,13.970042000000001,-10.427752,-0.0071853509999999995,1003.4433,7.363824747581577,1003.4689031149576,1,1
10.16,12.603022,-10.327653999999999,1.2379633999999995,1003.4836,7.375741632535868,1003.4686964869863,1,1
10.18,11.169084,-9.126482000000001,1.0959313999999998,1003.4609,7.38978408771799,1003.468485843158,1,1
10.2,11.957753,-12.124646,-0.53743786,1003.46106,7.411001004303419,1003.4682729852356,1,1
10.22,12.029453,-15.175242,-0.23443575,1003.47845,7.443320610889088,1003.4681215412288,1,1
10.24,8.922584,-15.203841,0.5372724,1003.46326,7.4817397341877845,1003.467970223756,1,1
10.26,5.830051999999999,-11.819587,0.68877363,1003.4809,7.51618251016604,1003.4678830668312,1,1
10.28,5.1800013,-8.773756,-0.38593605,1003.5033599999999,7.540750055215934,1003.467933771932,1,1
10.3,5.705782,-6.1378508,-0.21076289,1003.4530599999999,7.552734838852197,1003.46792502938,1,1
10.32,5.127428,-5.7898917,0.91602576,1003.48615,7.552321738627675,1003.4679829143553,1,1
10.34,4.740267,-6.218882,2.1943152,1003.4432,7.541648698568403,1003.4679448430279,1,1
10.36,4.587315599999998,-6.986298599999999,1.7114061,1003.4306,7.522799754525701,1003.4677767617682,1,1
10.38,4.821528400000001,-8.549729,0.5846180999999999,1003.4457,7.4995001379970505,1003.4675487688246,1,1
10.4,4.5299625,-9.7795,0.030692926000000002,1003.4406,7.4743155509809345,1003.467250298692,1,1
10.42,4.448709,-10.003528999999999,0.57514966,1003.4406,7.447941558547566,1003.4668906294072,1,1
10.44,5.7153587,-10.370553,0.98230875,1003.43304,7.422520893923171,1003.4664509633617,1,1
10.46,6.9294313999999995,-10.813845,0.12538171,1003.48596,7.40003416727682,1003.4661327069756,1,1
10.48,10.222719,-9.503041,-2.928309,1003.4684,7.383166480175303,1003.4658596578876,1,1
10.5,11.910248,-9.669876,-4.561655,1003.48584,7.37494915644081,1003.4656903209453,1,1
10.52,12.59855,-11.581266000000001,-3.449069,1003.43036,7.377422110841762,1003.4654135056676,1,1
10.54,12.517308,-13.035067,-1.2617728000000001,1003.4731400000001,7.390701811544613,1003.4651967270676,1,1
10.56,11.833809,-9.093123,-1.0771298,1003.4681,7.406928737263973,1003.4650156332792,1,1
10.58,10.419,-6.0854269999999975,-1.5931787,1003.45557,7.419898252719194,1003.4648216145282,1,1
10.6,10.1226635,-5.4610080000000005,-0.8025321,1003.4805,7.428610604471103,1003.4647066217474,1,1
10.62,9.692492999999999,-4.9938855,0.22483484,1003.4755,7.432232871228037,1003.4646438702879,1,1
10.64,9.501314,-4.398066,1.5930790000000001,1003.45776,7.430689130270887,1003.4645636411656,1,1
10.66,9.984086,-4.2598367,2.128068,1003.48035,7.425565502772135,1003.4645495816043,1,1
10.68,10.404722,-5.2226815,2.1706786,1003.46265,7.41892055126995,1003.4645303200828,1,1
10.7,11.704842999999999,-5.1797830000000005,0.89239055,1003.4506,7.413009310278628,1003.4644631514498,1,1
10.72,11.704854,-5.2465150000000005,-0.007145241,1003.4880400000001,7.407759532584548,1003.4644886779004,1,1
10.74,11.298583,-7.2961345,-0.27227083,1003.4828,7.404413076590526,1003.4645771538319,1,1
10.76,10.586404,-9.150325,-0.059221443,1003.4725300000001,7.4038841546024035,1003.4646839614113,1,1
10.78,10.50516,-11.323876,-0.07815784,1003.47015,7.408867783766082,1003.4647980143268,1,1
10.8,11.422896000000001,-13.120868,1.6593697,1003.4903,7.422921547324593,1003.4649905986321,1,1
10.82,12.35497,-13.788185999999998,3.9176822000000002,1003.49,7.447949171273023,1003.4652507999684,1,1
10.84,9.883822,-13.564157999999999,4.3248415,1003.4903,7.479273789954655,1003.4655708909897,1,1
10.86,5.519874,-12.1341915,2.5257692000000005,1003.4852,7.508227127601743,1003.4659243882084,1,1
10.88,4.138523,-10.723291,0.7503685999999999,1003.48004,7.5307217523440135,1003.4662875545532,1,1
10.9,3.4980428,-8.745171000000001,-0.30540243,1003.5003,7.543074359002713,1003.4667308931394,1,1
10.92,2.9196985,-7.5249320000000015,-0.46163666,1003.46967,7.543637784769411,1003.4671332078988,1,1
10.94,3.4932876000000004,-6.657419,-0.011867106,1003.4574,7.532604968450083,1003.4674536536716,1,1
10.96,4.975038,-6.3618927,0.28640148,1003.4574,7.512535570411045,1003.4677006064032,1,1
10.98,6.676661999999999,-6.671719599999999,-0.49477404,1003.46,7.487402092697962,1003.467891091654,1,1
11.0,7.8095193,-7.677464,-0.5752549,1003.427,7.461032836653772,1003.4679121964914,1,1
11.02,8.808512,-8.344783,-0.8640523000000001,1003.4723,7.436156409996589,1003.4679466408184,0,0
11.04,7.9194827000000005,-7.8824270000000025,-0.41428265,1003.48004,7.410645426954608,1003.4680206119187,0,0
11.06,7.126049000000001,-7.200809,-0.9824099000000001,1003.4494,7.382580753456922,1003.4680189385804,0,0
11.08,7.5705839999999975,-6.905283,-1.6120846000000002,1003.4772,7.352765028511169,1003.4680505118396,0,0
11.1,8.0199,-7.496336500000001,-2.0807889999999998,1003.4822,7.3231732521434285,1003.4681293481286,0,0
11.12,8.416636,-8.0826235,-1.5315971000000002,1003.4772,7.295124382861072,1003.4682316622203,0,0
11.14,8.746456,-7.920561,-0.24857228,1003.4594,7.26860886306951,1003.468290272968,0,0
11.16,9.310488000000001,-6.9863157000000005,1.1859536,1003.50226,7.243331664279615,1003.4684643524415,0,0
11.18,10.108728,-5.813743,1.3563935,1003.5096,7.219321709237518,1003.4687662573959,0,0
11.2,10.070504,-5.2512903,0.21066880000000002,1003.487,7.195726979843359,1003.4690986620868,0,0
11.22,9.597317,-5.522983999999999,-0.23909844,1003.4797,7.171994271380994,1003.4694305396885,0,0
11.24,8.875580000000003,-5.632615,0.044967099999999996,1003.4795,7.1470538650758755,1003.469760036794,0,0
11.26,8.502769,-5.951974400000001,0.20120375,1003.4971,7.120863471483284,1003.4701496043042,0,0
11.28,8.397627,-6.500129,-0.38112685,1003.4971300000001,7.094172765819832,1003.4705909555806,0,0
11.3,7.9913583,-6.819488499999999,-0.88297236,1003.4971300000001,7.066962263931662,1003.4710764741284,0,0
11.32,7.613766,-7.34381,-0.9823937,1003.4794,7.039559246784522,1003.4715354430105,0,0
11.34,6.9685063,-7.744200999999999,-1.1575655,1003.4819,7.011789991418933,1003.4719783003196,0,0
11.36,6.1750727,-8.0015955,-1.3895501000000001,1003.5069,6.983215815332691,1003.4724953271567,0,0
11.38,5.639749,-8.077862,-0.98712426,1003.47687,6.95340727817811,1003.4729679208923,0,0
11.4,4.8224163,-7.9110317,-0.9350445,1003.4819,6.921390938261157,1003.473417660202,0,0
11.42,4.7794104000000015,-7.8061686,-0.7030576,1003.4717,6.887264669001413,1003.4738088662793,0,0
11.44,5.4677169999999995,-7.4915756999999985,-0.37164790000000003,1003.49445,6.851609069491545,1003.4742288440506,0,0
11.46,6.318536,-7.0435195,-1.1102139,1003.48425,6.815239913279205,1003.4746360125706,0,0
11.48,6.8060884,-7.0244535999999975,-1.0912752000000001,1003.5118,6.779024600146863,1003.4751295770295,0,0
11.5,7.3744229999999975,-6.929111,-0.8877379999999999,1003.4868,6.7437330432296205,1003.4756077041085,0,0
11.52,7.7950406,-6.7527485,-0.5042515999999999,1003.4792,6.70973319266822,1003.4760431094604,0,0
11.54,8.005348,-6.538253299999999,-0.27226627,1003.47687,6.677026456199982,1003.4764308104352,0,0
11.56,8.120057000000001,-6.185528,0.030735157000000006,1003.48895,6.645305783213495,1003.4768184520993,0,0
11.58,8.091374,-6.1140294,0.31953344,1003.5039999999999,6.614443638412548,1003.4772588258458,0,0
11.6,7.833259599999999,-6.147395599999999,0.48997159999999995,1003.4892,6.584083022032316,1003.4776909283153,0,0
11.62,7.489108,-6.4333887,0.65567523,1003.4792,6.554119435597088,1003.4780781667154,0,0
11.64,7.164076299999999,-6.843312700000001,0.7645661,1003.49396,6.524701977753966,1003.4784775051654,0,0
11.66,6.9776587,-6.948176400000001,0.62726796,1003.5115,6.495728027969798,1003.4789492416014,0,0
11.68,7.1067089999999995,-6.862378,0.46156326,1003.48395,6.467297844857086,1003.4793840706463,0,0
11.7,7.426951400000001,-6.771814,0.15856099,1003.49176,6.4397873017715375,1003.4798128389363,0,0
11.72,7.661156,-6.3761887999999995,-0.17758228,1003.49396,6.413015894545032,1003.480242628377,0,0
11.74,7.627692,-6.3428235,-0.34328684,1003.43335,6.386905197649658,1003.4804535768646,0,0
11.76,7.2405240000000015,-6.7670464999999975,-0.33381855,1003.46075,6.361451206560563,1003.4805690380716,0,0
11.78,6.996749,-7.048273599999999,-0.063957915,1003.47833,6.336701285909361,1003.480662999057,0,0
11.8,7.135357400000001,-7.210335700000001,-0.045020778,1003.4609,6.3131044038670305,1003.4806748761873,0,0
11.82,7.3313246,-6.9815416,0.21063665,1003.4737,6.2905733890171325,1003.4806602612648,0,0
11.84,7.2644024000000025,-6.790878999999999,0.07333843400000001,1003.4834599999999,6.268688162463175,1003.4806574265792,0,0
11.86,7.1305633,-6.7670460000000014,0.05440037,1003.45074,6.247215628670765,1003.4805472191154,0,0
11.88,6.958484599999999,-6.60975,0.30532336,1003.4733,6.225710349824491,1003.4804237498109,0,0
11.9,6.8198657,-6.8719100000000015,0.48996475,1003.49097,6.204444344320001,1003.4803526188347,0,0
11.92,6.829420599999999,-7.0006070000000005,0.45682344,1003.4683,6.183667328797622,1003.480246378076,0,0
11.94,7.0540657000000015,-7.0387397,0.35266602,1003.49615,6.163772643542466,1003.4802097567807,0,0
11.96,7.2261333,-6.8147116,0.2911183,1003.47565,6.144657583726952,1003.4801609830797,0,0
11.98,7.283486999999999,-6.7241464,0.120679274,1003.4780000000001,6.126251615257036,1003.4801101070984,0,0
12.0,7.111886,-6.7718240000000005,-0.12546654,1003.47833,6.1083461845419205,1003.4800587446961,0,0
12.02,7.025863,-7.0006185,-0.078121215,1003.5135,6.091150206075011,1003.480133749396,0,0
12.04,7.116693,-7.0292179999999975,0.016568067,1003.47833,6.074818283109867,1003.4801935300512,0,0
12.06,7.312678,-6.981553,-0.11125964,1003.4806,6.059533101733524,1003.4802478155301,0,0
12.08,7.1262794000000005,-6.747992,-0.026039082999999998,1003.46045,6.044611377305264,1003.4802245100432,0,0
12.1,6.8251667000000005,-6.633595,-0.11599143,1003.4830300000001,6.02944967255382,1003.4802140170787,0,0
12.12,6.7439240000000025,-6.6860275,-0.2911631,1003.4956,6.014094147001631,1003.480260135034,0,0
12.14,6.825193,-6.9291224,-0.20120832,1003.47546,5.9990948008059055,1003.480283604373,0,0
12.16,7.045078,-6.9148226,0.15387332,1003.4931,5.984764802762125,1003.4803504809053,0,0
12.18,7.394017,-6.733694,0.32431316,1003.4703400000001,5.971354667351518,1003.480373535278,0,0
12.2,7.566105,-6.4810667,0.20121998,1003.4879,5.958719356616304,1003.4804210013943,0,0
12.22,7.5613375,-6.514433,0.07339218,1003.4929,5.9468481803972875,1003.48050786685,0,0
12.24,7.3175820000000025,-6.819493,-0.016560163,1003.5132,5.935740248143675,1003.4807023128461,0,0
12.26,7.2363386,-6.6288314,-0.08284061,1003.5032,5.9249544469214745,1003.4809551170016,0,0
12.28,6.997362599999999,-6.910058,-0.15385541,1003.5032,5.914536831481732,1003.4812585763324,0,0
12.3,6.9017805999999995,-7.224651299999999,-0.34796467,1003.4926,5.904819035802853,1003.4815675421223,0,0
12.32,6.9878306,-7.258017999999999,-0.39057309999999995,1003.47784,5.8959315733603646,1003.4818271251428,0,0
12.34,7.1838145,-6.914826,-0.61308897,1003.4753400000001,5.887616852798484,1003.4820331390491,0,0
12.36,7.5040765,-6.809962,-0.8782143,1003.5155,5.880215467202345,1003.482335653636,0,0
12.38,7.3367977,-6.357139599999999,-0.7551185,1003.4829,5.8727451068381455,1003.482604987172,0,0
12.4,7.1408385999999995,-6.409572,-0.7219765,1003.4826,5.865002721467066,1003.4828429523303,0,0
12.42,6.7775874000000025,-6.819496000000001,-1.1054621,1003.4625,5.857162840019505,1003.482979983716,0,0
12.44,6.686785,-7.005392,-0.7077707,1003.5002,5.8493321738538215,1003.4831630567073,0,0
12.46,7.0644035,-6.852863,0.10654819,1003.5055,5.841813083684633,1003.4834052329977,0,0
12.48,7.1026554000000015,-6.843329400000001,0.06393975,1003.4547,5.834638990560688,1003.4835158811296,0,0
12.5,6.849340400000001,-6.7241664000000005,-0.13963829,1003.4898,5.827247120237331,1003.4836362726463,0,0
12.52,6.6963997000000015,-6.681267699999999,-0.42370138,1003.46234,5.819418374811022,1003.4836659840096,0,0
12.54,6.662953999999999,-6.7194009999999995,-0.655686,1003.4822,5.811266287661865,1003.4836869594274,0,0
12.56,6.6868668000000016,-6.824265,-0.39055812,1003.45715,5.803017383318156,1003.4836099602527,0,0
12.58,6.6821003,-6.867164,-0.27219679999999996,1003.4872,5.794760950925774,1003.4835548479248,0,0
12.6,6.6247563,-7.1197919999999995,-0.22011705,1003.4998,5.786822980560965,1003.4835646332197,0,0
12.62,6.615212,-7.1912913,-0.45683596,1003.4773,5.779307600465344,1003.4835507268264,0,0
12.64,6.777737599999999,-7.1340923,-0.56572616,1003.4923,5.772348112505819,1003.4835699365207,0,0
12.66,7.3178697,-6.8528660000000015,-0.79297614,1003.4797,5.766321188027862,1003.4835729784354,0,0
12.68,7.781524,-6.3762107000000015,-1.4510573,1003.4747,5.761363218940923,1003.4835437235486,0,0
12.7,7.8484564,-6.1950817,-1.5220719999999999,1003.5349,5.757263108124657,1003.483702756526,0,0
12.72,7.4326253,-6.5287414,-0.8545197,1003.5528,5.7535525597432935,1003.484092028141,0,0
12.74,7.2318883000000005,-6.6383724000000015,-0.31479627,1003.49475,5.7499753090363495,1003.484474357239,0,0
12.76,7.4230943,-6.6050067,-0.4757648,1003.50726,5.746790242641588,1003.4848942115441,0,0
12.78,7.5951815,-6.4810762,-0.30059052,1003.4822,5.744049361668939,1003.485255495646,0,0
12.8,7.642992,-6.4715443,-0.17749481,1003.4772,5.741767580696392,1003.4855457264945,0,0
12.82,7.4183555,-6.5668755,-0.22957198,1003.4872,5.739678631703794,1003.4858081298564,0,0
12.84,7.098122,-6.5001440000000015,-0.47575986,1003.47974,5.737199020218087,1003.4860181442,0,0
12.86,6.873484599999999,-6.843336,-0.41894570000000003,1003.48694,5.7345324914136375,1003.4862070315544,0,0
12.88,6.8782783,-6.829037,-0.41894448,1003.502,5.7316965262197,1003.4864307871077,0,0
12.9,7.2654567,-6.6145425000000015,-0.4094743,1003.5197,5.72899605488016,1003.4867482666806,0,0
12.92,7.4327625999999976,-6.6908073,-0.6840685999999999,1003.4843,5.726820049832642,1003.4870199778712,0,0
12.94,7.2415853000000014,-6.952967999999999,-0.7361458000000001,1003.492,5.7252027614199825,1003.4872779899589,0,0
12.96,6.9261312,-6.9196032999999995,-0.7740198,1003.4743699999999,5.723575483249579,1003.487459500676,0,0
12.98,6.768411599999999,-6.871937299999999,-0.9775978000000001,1003.48914,5.721683169310625,1003.4876259333428,0,0
13.0,6.806822299999999,-6.8195095000000014,-0.98231655,1003.5171,5.719543412944362,1003.4878790998874,0,0
13.02,6.950236299999999,-6.6955800000000005,-0.8166106,1003.5146,5.717192713518939,1003.4881989930867,0,0
13.04,7.141448,-6.776611999999999,-0.77873355,1003.47406,5.715059969811463,1003.4884307503422,0,0
13.06,7.108009299999999,-6.833811,-0.56568354,1003.5019,5.713129130267331,1003.488684020352,0,0
13.08,7.1892867,-6.7289467000000025,-0.45679030000000004,1003.4966,5.7113445122166375,1003.4889363072597,0,0
13.1,7.2179847000000015,-6.523986,-0.47572613,1003.4689,5.7094531710670875,1003.4890870972647,0,0
13.12,7.3040410000000024,-6.457254,-0.5088652,1003.49695,5.707518679033848,1003.4892486417633,0,0
13.14,7.3279619999999985,-6.5382867,-0.3999718,1003.48395,5.705691377161702,1003.4893723073717,0,0
13.16,7.332761,-6.619318499999999,-0.35736045,1003.4894400000001,5.704081791340688,1003.4894818219967,0,0
13.18,7.280203,-6.5478206,-0.42364028,1003.4938,5.702495351776707,1003.4895941345604,0,0
13.2,7.237205,-6.595486,-0.55146736,1003.512,5.700948527626903,1003.489774035057,0,0
13.22,7.146408999999999,-6.6193194,-0.58934075,1003.5091,5.699341591639652,1003.4900025686097,0,0
13.24,7.122528999999999,-6.781383,-0.5988078,1003.52167,5.697882572940315,1003.49031850361,0,0
13.26,7.069970599999999,-6.848115400000001,-0.6745565,1003.4991,5.6965869172113806,1003.4906292771633,0,0
13.28,7.074772,-6.7384853000000025,-0.6934922,1003.4941,5.6952927278294485,1003.4909163712767,0,0
13.3,7.003092999999999,-6.7432523,-0.7029594,1003.5014,5.693905410417748,1003.4912077886992,0,0
13.32,7.0126740000000005,-6.7575520000000004,-0.6035349,1003.4914,5.6924618396436655,1003.491465977094,0,0
13.34,6.9170985,-7.0006475,-0.6366739,1003.4813,5.6911913913819925,1003.4916575148424,0,0
13.36,6.8549795,-6.9911145999999995,-0.518312,1003.5065300000001,5.689959531378664,1003.4918802985437,0,0
13.38,7.13223,-6.6526895,-0.6319358,1003.49365,5.688701577939892,1003.4920835211467,0,0
13.4,7.251744,-6.471561,-0.9254671,1003.5063,5.687403719721801,1003.4923142679633,0,0
13.42,7.299561,-6.4477286,-0.8307771999999999,1003.48615,5.686098847860185,1003.4924959644853,0,0
13.44,7.290023,-6.690823599999999,-0.6035238,1003.5061599999999,5.685080553358004,1003.49270570206,0,0
13.46,7.356959,-6.800455,-0.48516196,1003.5059,5.684562033387251,1003.4929385256537,0,0
13.48,7.543392,-6.619325999999999,-0.52303535,1003.4884599999999,5.684526872659098,1003.4931281258888,0,0
13.5,7.53385,-6.4953959999999995,-0.72187877,1003.48596,5.684760983327683,1003.4932698514032,0,0
13.52,7.3713584,-6.6002607000000015,-0.80236155,1003.5087,5.68513546259063,1003.4934506286028,0,0
13.54,7.29968,-6.624094,-0.6839998,1003.5034,5.685536889860371,1003.4936461810734,0,0
13.56,7.1706457,-6.8528895000000025,-0.54196584,1003.49866,5.686070004089348,1003.4938370209843,0,0
13.58,7.0368333,-6.805224000000001,-0.51355743,1003.52124,5.686445625648379,1003.4941042978543,0,0
13.6,7.051192299999999,-6.633628999999999,-0.61297804,1003.4833,5.686468472844871,1003.4943015682242,0,0
13.62,6.8791375,-6.8147583,-0.5514291,1003.50604,5.6861760388116185,1003.4945181346776,0,0
13.64,6.821801,-6.843358,-0.47094226,1003.5007300000001,5.685554874501472,1003.4947318555107,0,0
13.66,7.0177937,-6.7575603000000015,-0.5703630000000001,1003.5059,5.684821853346406,1003.4949609045593,0,0
13.68,7.0225964,-6.786160499999999,-0.7928778000000001,1003.49084,5.684073206224342,1003.495148457042,0,0
13.7,7.0512915,-6.7480283,-0.7455323,1003.5135,5.683293807384057,1003.4953802439703,0,0
13.72,7.0321975000000005,-6.7670955999999975,-0.68871707,1003.4856,5.682480197794477,1003.4955498420219,0,0
13.74,6.975188,-6.7623377000000024,-0.7265604999999999,1003.5083,5.681553134167934,1003.495745599429,0,0
13.76,7.128178999999999,-6.709906,-0.6744787,1003.5082,5.68067566260059,1003.495963406516,0,0
13.78,7.0708485,-6.7146735,-0.6602729,1003.49817,5.6797635641455875,1003.4961638045947,0,0
13.8,7.1377880000000005,-6.738507000000001,-0.58452046,1003.5031,5.6789489714584285,1003.4963658466403,0,0
13.82,7.1999617,-6.6336429999999975,-0.5324386,1003.5182,5.6781632451203095,1003.4966229739442,0,0
13.84,7.123514699999999,-6.628878,-0.5845144,1003.5157,5.677288921653861,1003.4969188489237,0,0
13.86,7.118755,-6.6860766000000025,-0.52296525,1003.5104,5.676406049879643,1003.4972288161991,0,0
13.88,7.1665883,-6.6527114,-0.6744631,1003.5031,5.675563347732627,1003.4975238395456,0,0
13.9,7.1283755000000015,-6.7623434000000024,-0.6649919,1003.4903,5.674855617065978,1003.497758516352,0,0
13.92,7.171419,-6.600281,-0.65552074,1003.5227,5.674104133590743,1003.4980556661194,0,0
13.94,7.185789999999999,-6.547848999999999,-0.71233076,1003.5003,5.673273526106516,1003.498326307256,0,0
13.96,7.1093399999999995,-6.595515700000001,-0.7170626,1003.48004,5.672326936258672,1003.498499615058,0,0
13.98,7.0998160000000015,-6.733747,-0.48507357,1003.49286,5.671433346240545,1003.4986324472176,0,0
14.0,7.0950675,-6.7909464999999996,-0.593962,1003.5054,5.670676989639497,1003.4987741809038,0,0
14.02,7.152452499999999,-6.690849000000001,-0.5513498,1003.4848,5.669983188244117,1003.4988491097375,0,0
14.04,7.1811604,-6.762347999999999,-0.53240955,1003.4923,5.6694899788017645,1003.4988917400602,0,0
14.06,7.0903740000000015,-6.814781,-0.55134445,1003.4976,5.669116446641724,1003.4989247579491,0,0
14.08,7.076064,-6.7909493,-0.5324042,1003.4951,5.668792159265119,1003.4989401634268,0,0
14.1,7.1334490000000015,-6.647953,-0.712309,1003.5051,5.668418976832077,1003.498975951119,0,0
14.12,7.243405,-6.628887700000001,-0.76912,1003.49225,5.6681534558057445,1003.4989833596995,0,0
14.14,7.2577824999999985,-6.5526233,-0.57027155,1003.5047599999999,5.667871532866008,1003.4990107018264,0,0
14.16,7.315167999999999,-6.72422,-0.4708464,1003.5099,5.667893135509063,1003.4990740628032,0,0
14.18,7.224381,-6.786186,-0.36195248,1003.4847,5.668122852505395,1003.4990783019362,0,0
14.2,7.2339625,-6.619357000000001,-0.45190418,1003.5074,5.668322386464423,1003.4991120057471,0,0
14.22,7.238778999999999,-6.6241245,-0.6176049,1003.4897,5.6685273334856525,1003.4991079032136,0,0
14.24,7.1656804,-6.705121000000001,-0.54198277,1003.5047599999999,5.668729875286223,1003.4991246257636,0,0
14.26,7.1943345,-6.671755,-0.49937539999999997,1003.487,5.668921183563638,1003.499095753156,0,0
14.28,7.1034913,-6.70512,-0.7124261,1003.4638699999999,5.669038908196331,1003.4989434286084,0,0
14.3,7.175161999999999,-6.6288550000000015,-0.69349086,1003.5122,5.669089049594004,1003.4988565582953,0,0
14.32,7.2229333,-6.6812863,-0.6698213000000001,1003.4997599999999,5.669222412728256,1003.4987830520768,0,0
14.34,7.1655493,-6.733718,-0.6130109,1003.5172,5.669408253100313,1003.4987844029944,0,0
14.36,7.132065299999999,-6.876713799999999,-0.47098100000000004,1003.51984,5.669777883444239,1003.4988613968146,0,0
14.38,7.0842423,-6.7289495,-0.56093705,1003.49725,5.67003460528295,1003.4989236275256,0,0
14.4,7.155913000000001,-6.662217599999999,-0.6887683000000001,1003.4996,5.670221062006196,1003.4989810495225,0,0
14.42,7.194133,-6.643151,-0.72191095,1003.5197,5.670380940655736,1003.499106375821,0,0
14.44,7.184545,-6.724181,-0.5988189,1003.4945,5.670599436038017,1003.4992005311854,0,0
14.46,7.1653943,-6.733714,-0.54200894,1003.48956,5.67084664952371,1003.4992490209528,0,0
14.48,7.2705216,-6.543051,-0.68877804,1003.5296,5.671030238555455,1003.4994011300361,0,0
14.5,7.2944007,-6.6002490000000025,-0.7834681,1003.5046,5.67128784078916,1003.499554249554,0,0
14.52,7.2513504,-6.657447,-0.5278130999999999,1003.4920699999999,5.6715885121267595,1003.4996626026615,0,0
14.54,7.141389,-6.7670770000000005,-0.49940908,1003.49677,5.671911383194016,1003.4997479300977,0,0
14.56,7.0409875,-6.7718434000000025,-0.47573936,1003.4989999999999,5.672106339648041,1003.4998206328717,0,0
14.58,7.0792006999999995,-6.7527766000000025,-0.51835126,1003.49176,5.672221973314708,1003.4998558547647,0,0
14.6,7.165209299999999,-6.7956743,-0.53729147,1003.5018,5.672459916484579,1003.4998939757525,0,0
14.62,7.2416595999999975,-6.790907400000001,-0.8923743000000001,1003.48425,5.672966714552157,1003.4998713411444,0,0
14.64,7.322893,-6.614544,-1.095956,1003.4992699999999,5.673628150868219,1003.4998491763763,0,0
14.66,7.3706710000000015,-6.4906135,-1.0486135,1003.48926,5.674316421663108,1003.4997914705524,0,0
14.68,7.365856599999999,-6.3476156999999995,-0.8734438,1003.49396,5.6747884999179,1003.4997194883923,0,0
14.7,7.2272167000000005,-6.4953785,-0.67460114,1003.5014,5.67502167602594,1003.4996619347977,0,0
14.72,7.1172547,-6.7670712,-0.3147888,1003.4789400000001,5.675220313107379,1003.499536481476,0,0
14.74,7.1661259999999976,-6.547836,-0.28628412,1003.52155,5.675149607523088,1003.4995048795877,0,0
14.76,7.3095365,-6.419139,-0.5561437,1003.50397,5.674908949628517,1003.4994930305928,0,0
14.78,7.1326994999999975,-6.509704,-0.5466734999999999,1003.5014,5.674369819926968,1003.4994894259106,0,0
14.8,7.0132202999999995,-6.566903599999999,-0.40463978,1003.50885,5.673452816656394,1003.4995199388803,0,0
14.82,7.0036764000000025,-6.7670994,-0.47565448,1003.4960000000001,5.672484061709689,1003.4995342283603,0,0
14.84,7.041931,-6.6145697,-0.627154,1003.5113,5.671330091053773,1003.4995892113226,0,0
14.86,7.0849657000000015,-6.533539,-0.62241805,1003.5014,5.6699668181374445,1003.4996443131073,0,0
14.88,7.147119,-6.671769,-0.68869823,1003.48096,5.668722248542387,1003.4996257375172,0,0
14.9,7.180594,-6.7099023,-0.7739161,1003.5263699999999,5.667704878661311,1003.4997056034706,0,0
14.92,7.304885400000001,-6.585972,-0.6934296999999999,1003.5161,5.666895567654428,1003.4998351928546,0,0
14.94,7.3096820000000005,-6.628872,-0.76917857,1003.4960000000001,5.66635167889538,1003.49993589134,0,0
14.96,7.1280656,-6.614572,-0.67448896,1003.49335,5.665732357391268,1003.5000011593128,0,0
14.98,7.027705,-6.6717710000000015,-0.61767477,1003.4834599999999,5.664970193307222,1003.4999992819203,0,0
15.0,6.9416842,-6.7575693,-0.4093595,1003.51355,5.664056347546186,1003.5000464056412,0,0
15.02,7.1567929999999995,-6.6288732999999995,-0.28626338,1003.4960000000001,5.6631425582451245,1003.5000734771007,0,0
15.04,7.2954240000000015,-6.6717725,-0.5324509,1003.51105,5.662525556804985,1003.5001369129246,0,0
15.06,7.3288965,-6.714672,-0.44723034,1003.49084,5.662275661789535,1003.5001594959323,0,0
15.08,7.3193545,-6.66224,-0.5371824000000001,1003.5006,5.662272284787997,1003.5001810360924,0,0
15.1,7.195094999999999,-6.6384077,-0.5040402,1003.50604,5.6622595416473676,1003.500221161248,0,0
15.12,7.1759925,-6.6527076,-0.57505476,1003.4956,5.662237738278651,1003.5002399796547,0,0
15.14,7.1664505000000025,-6.571676700000001,-0.60345954,1003.4831,5.66208305540751,1003.5001949036723,0,0
15.16,7.204703299999999,-6.652708500000001,-0.48036367,1003.4981,5.661969621785603,1003.5001475328813,0,0
15.18,7.2811966,-6.686075,-0.43775257,1003.4783,5.66205267512891,1003.5000270249317,0,0
15.2,7.1760583,-6.6145770000000015,-0.36673490000000003,1003.4906,5.6620417917080035,1003.4998866068177,0,0
15.22,7.066139,-6.771874,-0.23417003,1003.5106,5.661996886797723,1003.4998011015877,0,0
15.24,6.913653,-6.838617299999999,-0.10629834,1003.49316,5.661787155400806,1003.4997016412007,0,0
15.26,6.9901643,-6.867217,-0.13470164,1003.5059,5.661588236785798,1003.4996360720944,0,0
15.28,7.1670490000000004,-6.6717889999999995,-0.3335437,1003.5057400000001,5.661394434089395,1003.4996001093725,0,0
15.3,7.2961383,-6.6431910000000025,-0.4045566,1003.4956,5.661368409830991,1003.4995539323178,0,0
15.32,7.291390400000001,-6.724222999999999,-0.5465858,1003.5004,5.661611286757128,1003.4995161761158,0,0
15.34,7.195828999999999,-6.843387599999999,-0.47556657,1003.49316,5.662107597996986,1003.4994599325016,0,0
15.36,7.1432853000000005,-6.991151299999999,-0.45662588,1003.4954,5.662958716946233,1003.4993956198872,0,0
15.38,7.1385393,-6.8958216,-0.32879382,1003.5133,5.663964728658178,1003.4993888490294,0,0
15.4,7.1098967,-6.743292299999999,-0.47082263,1003.5006,5.6648539379300935,1003.499387226443,0,0
15.42,7.0334496,-6.810025,-0.45188224,1003.5003,5.665616152418388,1003.4993890787104,0,0
15.44,6.9952460000000025,-6.8862906000000015,-0.2530341,1003.5079,5.666302441702754,1003.4994213546905,0,0
15.46,7.090876,-6.914891000000001,-0.31457824,1003.5179400000001,5.667106353444304,1003.4995165408701,0,0
15.48,7.176942299999999,-6.686097,-0.390326,1003.5003,5.667818433001655,1003.4996034678309,0,0
15.5,7.071825,-6.4859029999999995,-0.55129224,1003.5031,5.668020676666275,1003.4996928640093,0,0
15.52,7.1053166,-6.6336664999999995,-0.49921083,1003.51025,5.668025123902893,1003.499809860162,0,0
15.54,7.100571,-6.848161999999999,-0.28142503,1003.5056,5.668136227958955,1003.499934082466,0,0
15.56,7.210541,-6.6098356,-0.328766,1003.5054,5.668171489323975,1003.5000635225967,0,0
15.58,7.267932400000001,-6.5002059999999995,-0.6222959,1003.4828,5.668104842583021,1003.5001157472153,0,0
15.6,7.1914897,-6.5049730000000014,-0.48026067,1003.5003,5.6678203574526504,1003.500162556198,0,0
15.62,7.2775583,-6.7909675000000025,-0.20566227,1003.49,5.667858038044843,1003.500167331413,0,0
15.64,7.311051400000001,-6.724236500000001,-0.24353437,1003.4797,5.668138845452006,1003.5000978683996,0,0
15.66,7.4019017000000025,-6.452543299999999,-0.4423762,1003.4925,5.6684119086725,1003.5000091385547,0,0
15.68,7.330239,-6.4811435,-0.54652995,1003.50745,5.668615431698723,1003.4999575239653,0,0
15.7,7.2012160000000005,-6.6479740000000005,-0.41396368,1003.50745,5.668776715536157,1003.4999388902277,0,0
15.72,7.2251496,-6.724239999999999,-0.3287413,1003.50995,5.6690375511322415,1003.499958465452,0,0
15.74,7.243689,-6.562162400000001,-0.49923295,1003.4822,5.669201055448723,1003.4999118316448,0,0
15.76,7.1624419999999995,-6.695626299999999,-0.47082555,1003.4872,5.669338556571477,1003.4998248634188,0,0
15.78,7.0764154999999995,-6.6384277,-0.4566215,1003.50214,5.669239649930811,1003.499756352786,0,0
15.8,7.028628,-6.7289925,-0.3856045,1003.4872,5.668983152754527,1003.4996506139211,0,0
15.82,7.143353,-6.6336617,-0.38560355,1003.4946,5.66862586287196,1003.4995390008496,0,0
15.84,7.320214999999999,-6.438233,-0.43768114,1003.4897,5.668185730851092,1003.4994049591368,0,0
15.86,7.387142,-6.443,-0.50869626,1003.5047599999999,5.667792161436799,1003.4993057980263,0,0
15.88,7.2772174,-6.6288958,-0.44241369999999997,1003.4921,5.667520933069916,1003.499192238396,0,0
15.9,7.157731,-6.8052588000000025,-0.39506885,1003.49475,5.667422474368405,1003.4990759050487,0,0
15.92,7.195980499999999,-6.690861,-0.39506787,1003.50726,5.667372158639946,1003.4990025756447,0,0
15.94,7.21033,-6.6288967,-0.5797087,1003.49725,5.667318155525229,1003.4989314725113,0,0
15.96,7.200779400000001,-6.7289944,-0.57023907,1003.4921,5.667386594242612,1003.4988440524812,0,0
15.98,7.253367999999999,-6.714695,-0.3997995,1003.4997599999999,5.667605309684232,1003.4987701055541,0,0
16.0,7.320296000000001,-6.595532,-0.522893,1003.4797,5.6679037309648965,1003.4986361136688,0,0
16.02,7.248608,-6.5288,-0.4329385,1003.4897,5.668059108198513,1003.49848554843,0,0
16.04,7.2438392999999985,-6.5431,-0.37139028,1003.49963,5.668094801208677,1003.4983566290108,0,0
16.06,7.2199490000000015,-6.748061999999999,-0.38559273,1003.4918,5.668277238836043,1003.4982191119472,0,0
16.08,7.1387024000000014,-6.8386273,-0.42346692,1003.49695,5.668598614277028,1003.498093033067,0,0
16.099999999999998,7.1673919999999995,-6.7194633,-0.57970136,1003.4893,5.668931183179634,1003.4979499748492,0,0
16.12,7.291676,-6.619366,-0.74067026,1003.4991,5.669343533786079,1003.4978277086988,0,0
16.14,7.248667999999999,-6.6050663,-0.6128404000000001,1003.48926,5.6697207195401775,1003.4976888305767,0,0
16.16,7.1100636,-6.733764,-0.45660415,1003.5043300000001,5.670018822820573,1003.497590026078,0,0
16.18,7.0957339999999975,-6.671798700000001,-0.46133757,1003.4687,5.670136504119983,1003.4973987183294,0,0
16.2,7.1722207,-6.752830499999999,-0.38558626,1003.4943,5.670318516441183,1003.4972185234164,0,0
16.22,6.976259,-6.824329,-0.18200594,1003.5038,5.670353591430322,1003.497082996507,0,0
16.24,6.860038,-6.8385916,-0.15373735,1003.5094,5.6701066626516505,1003.4970075861424,0,0
16.259999999999998,6.9173493000000015,-6.7003603000000025,-0.43307146,1003.5116,5.66951272568809,1003.4969934862345,0,0
16.28,7.2040880000000005,-6.5954947,-0.5324985,1003.48914,5.668908700563918,1003.4969527550047,0,0
16.3,7.385671,-6.547828,-0.54670626,1003.4939999999999,5.668513324630871,1003.4969061349724,0,0
16.32,7.3330436,-6.5764265,-0.60352355,1003.50635,5.668268600068132,1003.4968989394263,0,0
16.34,7.1322427,-6.8433523,-0.5277776,1003.48895,5.668220093777758,1003.4968639652592,0,0
16.36,7.0700582999999995,-6.767086,-0.5845948000000001,1003.49896,5.6681491389347505,1003.4968406078108,0,0
16.38,7.2420883,-6.6908199999999995,-0.6272084,1003.5189999999999,5.668215659658128,1003.4968997429808,0,0
16.4,7.213357000000001,-6.6479197,-0.6177444000000001,1003.51636,5.668298024539437,1003.4970220517424,0,0
16.419999999999998,7.1272774000000005,-6.8195148,-0.42837214,1003.48895,5.668486757382399,1003.4971010643781,0,0
16.44,7.026849,-6.8290467,-0.31475124,1003.5038,5.66862347335175,1003.497194996111,0,0
16.46,6.9694386,-6.8481115999999975,-0.38577214,1003.4934,5.668661404782593,1003.4972643322044,0,0
16.48,7.041086,-6.781378299999999,-0.33843258,1003.50146,5.6686182885720555,1003.4973407019804,0,0
16.5,7.0458198,-6.643147,-0.29109278,1003.48865,5.668309549316438,1003.4973768957872,0,0
16.52,7.021871000000001,-6.728944,-0.23428448,1003.50366,5.6678507705019205,1003.4974314958104,0,0
16.54,6.9883630000000005,-6.9196053,-0.17747617,1003.5035,5.667485164120732,1003.4975015870058,0,0
16.56,6.945296000000001,-7.0006356,-0.15380865,1003.52625,5.6672580718804335,1003.4976670138727,0,0
16.58,6.9548087,-6.9100695000000005,-0.34792346,1003.5035,5.667045343785047,1003.4978341838023,0,0
16.599999999999998,6.988217999999999,-6.919602,-0.5278353,1003.5060000000001,5.666925920516879,1003.4980112920907,0,0
16.62,6.992951400000001,-7.053064,-0.42368272,1003.5035,5.667081770111964,1003.4981875443228,0,0
16.64,7.0120176999999995,-6.8624005000000015,-0.5183755999999999,1003.4753400000001,5.667238759921571,1003.4982610296353,0,0
16.66,6.9880724,-6.900532000000001,-0.5467863000000001,1003.5133,5.6674194309476125,1003.4983801015508,0,0
16.68,6.89243,-7.0339947,-0.39528963,1003.4833,5.667661482443334,1003.4984310251297,0,0
16.7,6.8159009999999975,-7.0864252999999975,-0.25799668,1003.52356,5.667914843296684,1003.4985664855136,0,0
16.72,6.9257894,-6.8719287,-0.24853213,1003.49585,5.668019373646603,1003.4986763989607,0,0
16.74,6.9852232999999995,-6.8719797000000025,-0.28621729999999995,1003.50085,5.668082079259362,1003.4987813434468,0,0
16.759999999999998,6.9661384,-6.9482455000000005,-0.30988622,1003.5033599999999,5.668192432246385,1003.498890555558,0,0
16.78,6.937494,-6.871981599999999,-0.24833582,1003.4854,5.668186939332592,1003.4989384893796,0,0
16.8,6.918409,-7.034045699999999,-0.26727033,1003.4979,5.6682906767358965,1003.4989771051427,0,0
16.82,6.9662384999999984,-7.043578999999999,-0.3477522,1003.498,5.668579631149116,1003.4990077084523,0,0
16.84,6.9997296,-6.924416000000001,-0.33828047,1003.50085,5.668904669773906,1003.499041381786,0,0
16.86,7.009323599999999,-6.94825,-0.5702632,1003.4930400000001,5.669331587301514,1003.4990495305693,0,0
16.88,6.8803034,-7.0721817,-0.33353984,1003.47784,5.669818752403946,1003.4989803765244,0,0
16.9,6.846878500000001,-6.9959169999999995,-0.23884861,1003.5005,5.6701897700728425,1003.4989247426546,0,0
16.919999999999998,6.870812,-6.914886,-0.26725190000000004,1003.5179400000001,5.670373390168818,1003.4989440394937,0,0
16.94,6.851727,-6.9244204,-0.23410793,1003.4854,5.670375139657563,1003.4989123316388,0,0
16.96,6.8804380000000025,-6.824323700000001,-0.1488857,1003.46277,5.670107684784045,1003.498754202184,0,0
16.98,6.942608,-6.8290906000000025,-0.31932136,1003.48785,5.669710720626121,1003.4985752238699,0,0
17.0,7.038239999999999,-6.9053564,-0.23409872,1003.5131,5.669448528129648,1003.4984693678258,0,0
17.02,7.009595399999999,-7.005455,-0.23409559,1003.4953,5.66941042025729,1003.498364423701,0,0
17.04,7.1817006999999995,-6.881525,-0.58443856,1003.4901,5.669675871770506,1003.4982419431468,0,0
17.06,6.899726400000001,-7.0483556,-0.6459826999999999,1003.4827,5.670044085886634,1003.498077768334,0,0
17.08,6.7611465,-7.0483565000000015,-0.40452492,1003.49255,5.670274816207652,1003.4979128035034,0,0
17.099999999999998,6.851997,-6.929194,-0.45660028,1003.5101300000001,5.670342370744813,1003.4978110224864,0,0
17.12,6.9571843,-6.8815284,-0.2388147,1003.5076,5.670333860171554,1003.4977563290988,0,0
17.14,6.8568425,-7.038825999999999,-0.06363861,1003.4875,5.670337696416517,1003.4976710792366,0,0
17.16,6.990711,-6.9816284,-0.039963443,1003.50256,5.670463103969164,1003.4976133525732,0,0
17.18,7.057661,-6.829099,-0.08257012,1003.50226,5.670573018297781,1003.4975790732242,0,0
17.2,7.000337599999999,-6.8481654999999995,-0.21513031,1003.49255,5.670615274984317,1003.4975306793277,0,0
17.22,7.014709,-6.8481665,-0.33822188,1003.4925,5.670626174190402,1003.4974698080356,0,0
17.24,6.971437,-6.953025,-0.3571828,1003.49994,5.6706997257771725,1003.4974249148526,0,0
17.259999999999998,6.947559399999999,-7.005457400000001,-0.41399366,1003.4774,5.6708750811809825,1003.4973131575425,0,0
17.28,6.961921,-6.9530259999999995,-0.47553885,1003.482,5.671089461698947,1003.4971592814163,0,0
17.3,6.8615664999999995,-7.0292910000000015,-0.43766168,1003.4873,5.671300016979883,1003.4969878230584,0,0
17.32,6.895048599999999,-6.976859599999999,-0.39504996,1003.5175,5.671473723878656,1003.4969101662899,0,0
17.34,6.942869,-6.9911600000000025,-0.25775012,1003.46967,5.671695791554325,1003.4967434841707,0,0
17.36,7.0145880000000025,-6.8767633,-0.24827935,1003.4945,5.6718974644333935,1003.4965881273073,0,0
17.38,7.0002713000000005,-6.905363,-0.23880844,1003.49475,5.672100359316978,1003.4964442367244,0,0
17.4,7.019413,-6.8672314,-0.27194723,1003.4898,5.672278242340423,1003.4962931757532,0,0
17.419999999999998,6.957298799999999,-7.0006949999999994,-0.25774189999999997,1003.5048,5.672536288391441,1003.4961903228462,0,0
17.44,6.933421000000001,-6.9053645,-0.27194315,1003.47473,5.672689839287799,1003.4960221848556,0,0
17.46,7.038599499999999,-6.905365,-0.24826904,1003.4995,5.67290462299572,1003.4958861382613,0,0
17.48,6.981264599999999,-6.8672338,-0.39029908,1003.5271,5.6730418517366745,1003.495878297393,0,0
17.5,6.8665724,-6.943499,-0.17724878,1003.5095,5.673040391357857,1003.4959204073309,0,0
17.52,6.880934700000001,-7.0912630000000005,-0.15830907,1003.48193,5.6731559707322825,1003.4959072502057,0,0
17.54,6.966991999999999,-6.900600999999999,-0.2056512,1003.50226,5.6732205664518665,1003.4959184944693,0,0
17.56,7.000472500000001,-6.9578,-0.30033728,1003.4666,5.673378027599009,1003.4958228833207,0,0
17.58,7.019615700000001,-6.843404,-0.5133833,1003.492,5.673496960251338,1003.4957246389296,0,0
17.599999999999994,7.0913343,-6.8148050000000016,-0.48497492,1003.50684,5.6736441054600695,1003.4956778454854,0,0
17.62,7.0722375,-6.948269,-0.38081592,1003.48175,5.673970857314742,1003.4955863585544,0,0
17.64,7.0292410000000025,-6.757607000000001,-0.27665702,1003.4968,5.674107814159374,1003.4955098898114,0,0
17.66,6.9862466,-6.8291059999999995,-0.26245165,1003.4943,5.6741150190245815,1003.4954379664267,0,0
17.68,6.995829,-6.819572999999999,-0.10147978,1003.49225,5.674001730231929,1003.495362938245,0,0
17.7,6.9958490000000015,-6.981636999999999,-0.02572747,1003.51685,5.6740179273939875,1003.4953739967657,0,0
17.72,6.976754,-6.9435053,-0.06833489,1003.5219999999999,5.674064845461484,1003.4954796216864,0,0
17.74,7.062621000000001,-6.8100369999999995,-0.20091379,1003.4893,5.674075883425622,1003.4955507052283,0,0
17.759999999999994,7.1056547000000005,-6.867236599999999,-0.28139722,1003.5173300000001,5.6742061508146655,1003.495691920107,0,0
17.78,7.014852499999999,-6.9101357000000005,-0.45183450000000003,1003.4741,5.674381696321459,1003.4957389666614,0,0
17.8,6.9670687000000004,-6.962567999999999,-0.31453547,1003.4843,5.674591772180742,1003.4957393567171,0,0
17.82,7.081798599999999,-6.9387355,-0.38081583,1003.5169,5.67497102551637,1003.4958158796858,0,0
17.84,7.1343913,-6.781439999999999,-0.3334704,1003.4939999999999,5.675346564285098,1003.4958769582142,0,0
17.86,7.196542999999999,-6.709942,-0.38554755,1003.5065300000001,5.675713620245843,1003.4959692781523,0,0
17.88,7.1678815,-6.8243394,-0.1914354,1003.48895,5.6761797079419924,1003.4960255826484,0,0
17.9,7.134436999999999,-6.814807000000001,-0.30032533,1003.4861,5.6766732936975,1003.4960396012036,0,0
17.919999999999995,7.1153326,-6.8052740000000025,-0.21983917,1003.4915,5.677142606868857,1003.4960356454344,0,0
17.94,7.0532103,-6.814807400000001,-0.16775937,1003.5039999999999,5.67750731218238,1003.4960608217932,0,0
17.96,7.0293259999999975,-6.819574,-0.25297722,1003.48615,5.677753306663887,1003.4960473886656,0,0
17.98,7.04846,-6.748076400000001,-0.24824153,1003.4937,5.6778188074469575,1003.4960270685547,0,0
18.0,7.010237700000001,-6.9625716,-0.18669279,1003.51404,5.6779760732571285,1003.4960739602581,0,0
18.02,7.0245914,-6.92444,-0.17722265,1003.49603,5.678178962297485,1003.4961152355103,0,0
18.04,7.077185000000001,-6.7099447,-0.35239413,1003.5111699999999,5.678200066065823,1003.496205903475,0,0
18.06,7.0580792,-6.7194785999999995,-0.46601868,1003.51404,5.678055245480201,1003.4963502204364,0,0
18.08,7.048534,-6.824342999999999,-0.41867328,1003.49866,5.677896386345362,1003.4964860541096,0,0
18.1,7.1393699999999995,-6.748079,-0.30978015,1003.4886,5.677744138993742,1003.4965776869484,0,0
18.12,7.1393824000000015,-6.7099466,-0.2908414,1003.4861,5.677542760952027,1003.496620934052,0,0
18.14,7.1059384,-6.6908803,-0.34765290000000004,1003.4658,5.67722480733242,1003.4965481918301,0,0
18.16,7.1059523,-6.767145599999999,-0.3097764,1003.5186,5.676911300677331,1003.4965633033121,0,0
18.18,7.1107473,-6.729014,-0.32871267,1003.5236,5.676556820170455,1003.4966739879258,0,0
18.2,7.144221300000001,-6.7194815000000006,-0.35711765,1003.49585,5.67620646439211,1003.496768822494,0,0
18.22,7.1681365999999995,-6.7051815999999995,-0.39025703,1003.4912,5.675879545418125,1003.4968325705572,0,0
18.24,7.067261,-6.6956367,-0.32402107,1003.4887,5.6754033363265775,1003.4968596210921,0,0
18.26,7.0098977,-6.7623679999999995,-0.4092408,1003.4808300000001,5.674813250562272,1003.4968258163087,0,0
18.28,6.990773700000001,-6.900598,-0.41871008,1003.4806,5.674297556412705,1003.4967375334635,0,0
18.3,7.0529065000000015,-6.933964,-0.37610093,1003.5059,5.673986436006191,1003.4966925116208,0,0
18.32,7.105479700000001,-6.7719007,-0.5891496,1003.5006,5.673723286816284,1003.4966667972787,0,0
18.34,7.0624557,-6.752834299999999,-0.64596283,1003.4856,5.673419039717229,1003.496604235616,0,0
18.36,7.0003133,-6.829099,-0.44711837,1003.4984,5.6730736910283355,1003.4965554208826,0,0
18.38,6.990749,-6.8719983,-0.27194583,1003.4909,5.6727280562108495,1003.4964919286688,0,0
18.4,7.1436977,-6.762367200000001,-0.32875920000000003,1003.5056,5.6724575884640815,1003.4964686160056,0,0
18.42,7.158032,-6.7862,-0.29561877,1003.5031,5.672307998051911,1003.4964718899188,0,0
18.44,7.258403299999999,-6.8052660000000005,-0.3666353,1003.4727,5.6724495609492145,1003.4963892039447,0,0
18.46,7.306195,-6.8052660000000005,-0.4045111,1003.4753,5.672923441920563,1003.4962402214841,0,0
18.48,7.119778999999999,-6.729000999999999,-0.51813716,1003.5029,5.67330966646264,1003.496132555784,0,0
18.5,7.019398,-6.695635,-0.6128256999999999,1003.498,5.673429727824656,1003.496044145171,0,0
18.52,7.038511,-6.7433,-0.57495105,1003.4929,5.6734063693152095,1003.4959547066305,0,0
18.54,7.091083500000001,-6.8052654000000015,-0.4045129,1003.4831,5.673406459513894,1003.4958294017924,0,0
18.56,7.0385027000000004,-6.7861996,-0.3571692,1003.47296,5.673317294298501,1003.4956363525912,0,0
18.58,6.852084,-6.9482617,-0.21040331,1003.4829,5.673102055255482,1003.4954199234472,0,0
18.6,6.8711977,-6.9101289999999995,-0.20093493,1003.4829,5.672747419745928,1003.4951836149313,0,0
18.62,6.94767,-6.6908674,-0.41871795,1003.4853,5.672079081349961,1003.4949392317129,0,0
18.64,7.009803,-6.705166999999999,-0.5039377,1003.4903,5.671258020160947,1003.4947065934673,0,0
18.66,7.1149545,-6.786198599999999,-0.4471252000000001,1003.508,5.67057327310295,1003.4945488905768,0,0
18.68,7.3109199999999985,-6.7480660000000015,-0.49920422,1003.5255,5.6702591384838605,1003.4945209682963,0,0
18.7,7.3156953,-6.5812364,-0.49447024,1003.49506,5.670047180791677,1003.494498236684,0,0
18.72,7.210534,-6.557403599999999,-0.5181427,1003.498,5.669733739966532,1003.4944907573787,0,0
18.74,7.220667,-6.5574174,-0.4423398,1003.4875,5.669339592778526,1003.4944589819384,0,0
18.76,7.249368,-6.690881299999999,-0.24822719999999998,1003.4875,5.669092525602004,1003.4944058528239,0,0
18.78,7.292403699999999,-6.5717177,-0.19141272,1003.523,5.668872887041558,1003.4944618468686,0,0
18.8,7.2924194,-6.6861157,-0.21981768,1003.5077,5.668839429687116,1003.4945589805576,0,0
18.82,7.1968412,-6.7194824,-0.22928487,1003.5204,5.668872357141528,1003.4947378355553,0,0
18.84,7.1633997,-6.68135,-0.37604982,1003.5101,5.668868381982418,1003.494951175623,0,0
18.86,7.1490784,-6.857713,-0.36184496,1003.49725,5.669060822587707,1003.4951479586748,0,0
18.88,7.1299779999999995,-6.7528496,-0.43285933,1003.4722,5.669253095884328,1003.495239223528,0,0
18.9,7.2542696,-6.7147174,-0.38077936,1003.5275,5.669574358163871,1003.4954360039476,0,0
18.92,7.130013000000001,-6.667052,-0.3997153,1003.49225,5.669753634341366,1003.4955984095121,0,0
18.94,7.015314,-6.771917,-0.21980642,1003.5124,5.669772244362324,1003.4958023967947,0,0
18.96,7.063128999999999,-6.8338823,-0.13458563,1003.4897,5.669806554085722,1003.4959606713292,0,0
18.98,7.149183,-6.7433179999999995,-0.08723995,1003.4898,5.66985280595588,1003.4960783442913,0,0
19.0,7.1253014000000015,-6.700419999999999,-0.106175974,1003.4873,5.669812572156954,1003.4961507180808,0,0
19.02,7.0249424,-6.810051,-0.15825288,1003.4998,5.669704013515762,1003.4962278049762,0,0
19.04,6.958044,-6.8529506,-0.12037590000000001,1003.5024,5.669497219949817,1003.4963181388589,0,0
19.06,7.0297575,-6.8672509999999996,-0.21032812,1003.48224,5.669334728979801,1003.496347276578,0,0
19.08,6.9963183,-6.843417999999999,-0.21979515,1003.5097,5.669128092739732,1003.4964210924707,0,0
19.1,7.0058940000000005,-6.876785000000001,-0.25293446,1003.48694,5.668947589438663,1003.4964521842608,0,0
19.12,7.0489289999999984,-6.9101505,-0.24819855,1003.48474,5.668902957012065,1003.496437493103,0,0
19.14,7.020269,-7.0340820000000015,-0.33341609999999994,1003.4997599999999,5.669122693925091,1003.4964364730208,0,0
19.16,6.991608,-7.034082400000001,-0.32394567,1003.4820599999999,5.669532570474456,1003.4963838163734,0,0
19.18,7.173255999999999,-6.8910860000000005,-0.38549152,1003.5398,5.670174376480174,1003.4964935872208,0,0
19.2,7.130256,-6.833887599999999,-0.29553616,1003.5094,5.670865674452716,1003.4966370438277,0,0
19.22,6.9104023,-6.943519,-0.22925289,1003.4872,5.671428044679343,1003.4967298287276,0,0
19.24,6.8242210000000005,-7.0960449999999975,-0.101437196,1003.4843,5.671971329615363,1003.4967670660817,0,0
19.26,6.9054904000000015,-7.005481,-0.06829527,1003.5019,5.6724781693544655,1003.49681844757,0,0
19.28,7.001098,-6.953048700000001,-0.115638256,1003.5047599999999,5.673014944991402,1003.4968924378417,0,0
19.3,6.981989,-6.91015,-0.27187264,1003.5047599999999,5.6734916683976175,1003.4969861388696,0,0
19.32,6.8959649999999995,-6.829119,-0.29554352,1003.48413,5.673669592721097,1003.4970226509978,0,0
19.34,6.9915714000000015,-6.8195863,-0.38076186,1003.5191699999999,5.673716764062872,1003.4971346435707,0,0
19.36,7.0919585000000005,-6.838653,-0.39496413,1003.5146,5.6738266311672545,1003.4972964754912,0,0
19.38,7.1445484,-6.8863187,-0.29080606,1003.5191699999999,5.674131359881808,1003.4975182148646,0,0
19.4,7.1063199999999975,-6.814820299999999,-0.24346112,1003.5269,5.674444299703644,1003.4978199182013,0,0
19.42,6.953378,-7.019783,-0.35235128,1003.5372,5.674842368399714,1003.498228271564,0,0
19.44,6.910370299999999,-7.0769815000000005,-0.21505262,1003.4765,5.675328111017263,1003.498510870818,0,0
19.46,7.0442165999999995,-6.867253999999999,-0.24819238,1003.5267,5.6757798950343545,1003.4988620563837,0,0
19.48,7.1685023,-6.7242570000000015,-0.35708270000000003,1003.4991,5.676188300374791,1003.4991732205464,0,0
19.5,7.1207147,-6.6575255,-0.39969134,1003.4941,5.67639314726029,1003.4994299016064,0,0
19.52,7.1016073,-6.7290235,-0.28606457,1003.5116,5.676481992820923,1003.4997005173456,0,0
19.54,7.135078,-6.8434215,-0.31446993,1003.5216,5.6766841400614885,1003.50001847155,0,0
19.56,7.1064105,-6.757623700000001,-0.32867209999999997,1003.52167,5.676820471892729,1003.5003773613877,0,0
19.58,7.120760400000001,-6.757623700000001,-0.4138904000000001,1003.5066,5.6769264644362085,1003.5007168779472,0,0
19.6,7.1637907000000025,-6.8672557,-0.44703013,1003.5241,5.6772300482182265,1003.5011010540184,0,0
19.62,7.1685815,-6.9816527000000015,-0.26238737,1003.5317,5.677865742190237,1003.5015506682007,0,0
19.64,7.0729966,-6.862489,-0.26238632,1003.4915,5.678477617471391,1003.5019117648864,0,0
19.66,7.001311,-6.6908937,-0.42335507,1003.52167,5.6787234948648075,1003.5023019595643,0,0
19.68,6.900946,-6.795758,-0.37601,1003.5137300000001,5.6786430674201265,1003.5026878765276,0,0
19.7,6.8770585,-7.0245533,-0.30499288,1003.4991,5.678570981257128,1003.5030159564003,0,0
19.72,6.8675103,-7.0436190000000005,-0.22924136,1003.4988,5.678516720568265,1003.5032906703333,0,0
19.74,6.876564,-6.8863106,-0.66958725,1003.52167,5.678301153826102,1003.5035995731513,0,0
19.76,6.919574000000001,-6.76238,-0.6175096,1003.5086699999999,5.677819321856723,1003.5038907732173,0,0
19.78,6.948243,-6.7480803,-0.45180634,1003.5166,5.6771068670914255,1003.5041938308127,0,0
19.8,7.1011887000000025,-6.690881299999999,-0.357119,1003.50604,5.6763324251879546,1003.5044682587128,0,0
19.82,7.282812,-6.6146164,-0.18194681,1003.52136,5.675665388096205,1003.5047715534739,0,0
19.84,7.349721400000001,-6.419187,-0.1440724,1003.5038,5.674928049234027,1003.5050360471324,0,0
19.86,7.426189999999999,-6.4048867,-0.17247947,1003.5086699999999,5.674232738871813,1003.5052828359593,0,0
19.88,7.4309600000000025,-6.5192842,-0.4565447,1003.5137300000001,5.673759348748763,1003.5055313083574,0,0
19.9,7.321014999999999,-6.671814,-0.46601433,1003.5110000000001,5.673525596440153,1003.505770545858,0,0
19.92,7.24931,-6.8386436,-0.4896871,1003.5060000000001,5.673633124654282,1003.5059827621487,0,0
19.94,7.1680465,-6.900608,-0.72640806,1003.51605,5.674038447958394,1003.5062065185193,0,0
19.96,7.0246429999999975,-6.8100433,-0.9110505999999999,1003.52136,5.6743932260558525,1003.5064587821815,0,0
19.98,6.991174000000001,-6.9006076,-0.78795695,1003.4934699999999,5.674761571620147,1003.506634922738,0,0
20.0,6.857331299999999,-6.972106,-0.49915909999999997,1003.52136,5.675010099747735,1003.5068435708116,0,0
20.02,6.9768175999999995,-6.7623773,-0.47548783,1003.5160000000001,5.67501869989022,1003.5070608953946,0,0
20.04,7.015047,-6.8005095,-0.3381909,1003.4906599999999,5.674915479862409,1003.5071938801726,0,0
20.06,7.110635,-6.6956453,-0.29558212,1003.5035,5.6747040425317685,1003.507298087554,0,0
20.08,7.153644,-6.671811999999999,-0.34766138,1003.5359,5.674432642506478,1003.5074931320806,0,0
20.1,7.1679754,-6.643213,-0.555976,1003.52356,5.674110584115372,1003.5077233141493,0,0
20.12,7.297021400000001,-6.547880999999999,-0.5607111,1003.5134,5.673810047337134,1003.507947139094,0,0
20.14,7.368709,-6.5002154999999995,-0.6459313,1003.5158,5.673585856114621,1003.5081731811147,0,0
20.16,7.273103999999999,-6.5240483,-0.645932,1003.49817,5.673314633335592,1003.508336900392,0,0
20.18,7.158380999999999,-6.6670440000000015,-0.67907363,1003.5109,5.673031948880261,1003.5084907899037,0,0
20.2,7.201390299999999,-6.57648,-0.698012,1003.5386,5.672681174927642,1003.5087351598328,0,0
20.22,7.406913,-6.4811482000000025,-0.6885441,1003.49316,5.672456072826266,1003.5088950145268,0,0
20.24,7.407935,-6.481173,-0.6032312,1003.5107,5.672332842810091,1003.5090427600819,0,0
20.26,7.2932515,-6.5574392999999995,-0.5085402,1003.5433,5.672215922631012,1003.5092966341183,0,0
20.28,7.1546674,-6.6766033,-0.49906868,1003.5359,5.672058939765151,1003.509616729334,0,0
20.3,7.192939,-6.6194057,-0.35703343,1003.5282,5.671831775811086,1003.509966465241,0,0
20.32,7.269445399999999,-6.5526752,-0.4990629,1003.5058,5.671580470412443,1003.5102604926137,0,0
20.34,7.2599177,-6.562208,-0.59848243,1003.5309,5.671318885465204,1003.5105945974263,0,0
20.36,7.1882524000000005,-6.748105499999999,-0.55113554,1003.5134,5.671195384843421,1003.5108999118884,0,0
20.38,7.3938136,-6.695674,-0.8683379000000001,1003.52795,5.67148100182007,1003.5112310680644,0,0
20.4,7.5037827,-6.8577375,-0.8825381,1003.5433300000001,5.67252390098129,1003.511639233816,0,0
20.42,7.3508573,-6.7385744999999995,-0.79258174,1003.5584,5.673816377693452,1003.5121682278328,0,0
20.44,7.4799447,-6.2809854000000005,-0.9440796999999999,1003.52325,5.674928255750668,1003.5126755413257,0,0
20.46,7.6138077000000015,-6.095091,-1.057703,1003.5459599999999,5.6758709721921825,1003.5132436275792,0,0
20.48,7.523027000000001,-6.2476214999999975,-0.37121093,1003.51324,5.676610715510135,1003.5137455755336,0,0
20.5,7.3366422999999985,-6.352486,-0.1628946,1003.5384,5.677002149538947,1003.5142778526739,0,0
20.52,7.0881243000000005,-6.771944500000001,-0.36173666,1003.5126,5.677300037431206,1003.5147421324858,0,0
20.54,6.103518,-7.410663599999999,0.09750366,1003.5182,5.677080401762247,1003.5151648184503,0,0
20.56,5.7832994000000015,-7.505995299999999,0.17799108,1003.5054,5.67614692885408,1003.5155031504223,0,0
20.58,6.538542,-6.8672775999999995,0.09277489,1003.48755,5.674597299982069,1003.5157014692114,0,0
20.6,7.5949100000000005,-6.2476263,-0.91565037,1003.5023,5.6733283281405305,1003.5158284584039,0,0
20.62,7.9582067,-6.2714596,-1.1807742,1003.51764,5.6729852680061,1003.5159471876046,0,0
20.64,7.513714999999999,-6.724283,-0.9724575999999999,1003.52765,5.673314271329754,1003.5160942268508,0,0
20.66,6.7680974,-6.981678,-0.39959177,1003.5378,5.6734085034016495,1003.516302291512,0,0
20.68,6.624733,-7.053177400000001,-0.06344633,1003.5047599999999,5.673180128908175,1003.5164445851973,0,0
20.7,6.911553,-6.7147527,-0.28596044,1003.52527,5.672592291910008,1003.5166020873908,0,0
20.72,7.375225500000001,-6.5479236,-0.59842825,1003.5151400000001,5.672188105576785,1003.5167359928142,0,0
20.74,7.748114,-6.3477296999999995,-0.75939214,1003.49725,5.672289394731168,1003.5167841620724,0,0
20.76,7.9441190000000015,-6.3572636,-0.63156027,1003.51984,5.673146998915942,1003.5168377254454,0,0
20.78,7.819875200000001,-6.290533,-0.5889477,1003.5298,5.6743767651903205,1003.51693171823,0,0
20.8,7.6143746,-6.3858643,-0.3711623,1003.5097,5.675705161790667,1003.5169887360692,0,0
20.82,7.341958999999999,-6.552695,-0.16284549,1003.5448,5.676903000982443,1003.5171392375818,0,0
20.84,7.2559547,-6.681392999999999,0.04547135,1003.49457,5.678025811130284,1003.517190971463,0,0
20.86,7.236869299999999,-6.6956929999999995,0.19697532,1003.52484,5.679073164774341,1003.5172642200232,0,0
20.88,7.203442999999999,-6.6575619999999995,-0.044476297000000005,1003.5122,5.679941378118684,1003.517310711259,0,0
20.9,7.1317773,-6.7290606,-0.14863037,1003.5173300000001,5.680642868226383,1003.5173518603543,0,0
20.92,6.9597373,-6.957856,-0.17703378,1003.5047599999999,5.681270301294888,1003.517342888998,0,0
20.94,6.921531699999999,-6.9673905,-0.24804683,1003.51715,5.681791212415156,1003.5173342675067,0,0
20.96,6.9454618,-6.9816910000000005,-0.31432566,1003.48175,5.682276184595652,1003.517198546194,0,0
20.98,6.8737993,-6.938791999999999,-0.40901053,1003.5298,5.682566808934117,1003.517123988076,0,0
21.0,6.9072895,-6.9816923,-0.3853357,1003.48956,5.682794913908412,1003.5169588781657,0,0
21.02,7.041157000000001,-6.881595599999999,-0.25750378,1003.5143400000001,5.683008931193861,1003.5168035590876,0,0
21.04,7.1176642999999995,-6.810097,-0.20542249999999998,1003.5602,5.683218191585596,1003.5168225463376,0,0
21.06,7.136818400000001,-6.771966,0.0028945357,1003.51184,5.683392196111331,1003.5168213863047,0,0
21.08,7.232445200000001,-6.619437,0.08811664599999999,1003.5298,5.683464509077353,1003.5168670843092,0,0
21.1,7.127321,-6.681403599999999,0.16386995,1003.52435,5.683375965379211,1003.516934401562,0,0
21.12,7.079556,-6.733836,0.08338809,1003.5046,5.683146128862865,1003.5169494792414,0,0
21.14,7.179962,-6.7052374000000015,0.14020379,1003.5018,5.682904714098196,1003.5169082637534,0,0
21.16,7.2851515,-6.652806299999999,0.06919071,1003.5394,5.682739049011012,1003.5169528159987,0,0
21.18,7.1274524,-6.6814065000000005,-0.030228573999999998,1003.5269,5.68244028376292,1003.5170279922252,0,0
21.2,7.094025,-6.8339367,0.040790337999999995,1003.4942599999999,5.682193093626553,1003.5170124531668,0,0
21.22,7.113175,-6.814872,0.092871636,1003.5268599999999,5.6819943504566375,1003.5170341740235,0,0
21.24,7.102461,-6.743345,-0.063469455,1003.5344,5.681719928099264,1003.5171158835457,0,0
21.26,7.0737667,-6.80531,-0.058736395,1003.5043300000001,5.681425431063451,1003.517142052899,0,0
21.28,7.198028999999999,-6.8577414,-0.0066591613,1003.4939,5.68137581882163,1003.5170815047493,1,2
21.3,7.3127312999999985,-6.7481103000000004,-0.025597975,1003.5318599999999,5.681560883529737,1003.5170812069867,1,2
21.32,7.164542999999999,-6.824375,-0.11555293,1003.50903,5.6818376942308495,1003.5170519595388,1,2
21.34,6.782145,-6.924472,0.11169721,1003.5369,5.681774622768977,1003.5170975694392,1,2
21.36,6.629177,-6.700443300000001,0.17324318,1003.46405,5.68085855395544,1003.5169468990973,1,2
21.38,6.71042,-6.8529735,0.2631956,1003.52905,5.679540665970332,1003.5168573379466,1,2
21.4,7.0163136,-6.8672724,0.47150812,1003.52905,5.6783591498600305,1003.5168220952972,1,2
21.42,7.097557000000001,-6.881572,0.3010684,1003.54663,5.677430087551767,1003.5168982633487,1,2
21.44,7.1883583,-6.624177499999999,-0.12502941,1003.51904,5.67648920747617,1003.5169732756917,1,2
21.46,7.8670774,-6.3715496,-0.6694871,1003.51135,5.676309981011273,1003.5170193128047,1,2
21.48,8.292466000000001,-5.2514080000000005,-1.095585,1003.51385,5.676244539662363,1003.5170485816722,1,2
21.5,7.8096924,-5.237108,-1.1003205,1003.5115400000001,5.675429597448613,1003.5170546127491,1,2
21.52,7.455973599999999,-6.8958697,-0.5179899,1003.51385,5.675414278398497,1003.5170484052032,1,2
21.54,7.680611999999999,-8.216206,0.09274715,1003.5314300000001,5.678346758158875,1003.5170946939568,1,2
21.56,8.789512,-7.4106570000000005,0.9922825999999999,1003.5263699999999,5.684480062235208,1003.5171689858008,1,2
21.58,8.722581,-6.3191156,1.153251,1003.5010000000001,5.691950400837098,1003.5171764217256,1,2
21.6,8.091633,-6.638474499999999,0.7082159,1003.539,5.699863754976044,1003.5172615569908,1,2
21.62,7.4702449999999985,-7.153262,0.2584462,1003.54663,5.707840322321456,1003.5174425089057,1,2
21.64,6.5333879999999995,-8.468832,0.054865427,1003.5015,5.716571883606503,1003.5175450049853,1,2
21.66,4.621454,-8.974086,-1.6495215,1003.4938,5.724966032143812,1003.5175500885035,1,2
21.68,4.5115050000000005,-9.274379,-1.5169593000000001,1003.5163,5.733440015680883,1003.5175500799817,1,2
21.7,3.718043,-10.5470495,-0.7689246999999999,1003.51904,5.7435859790200885,1003.5175554361638,1,2
21.72,3.254388,-10.685279,-1.7820886000000002,1003.4985,5.755383822267919,1003.5174915693159,1,2
21.74,4.2017093,-10.256311,-2.3453984,1003.52405,5.768635984341345,1003.51745874692,1,2
21.76,5.501836,-9.264869000000001,-2.1370828,1003.4838,5.782410862021532,1003.5173085735618,1,2
21.78,6.668131,-8.630917,-1.483733,1003.52905,5.796643673136325,1003.5172181495177,1,2
21.8,7.662352999999999,-8.216227,-0.22911362,1003.5339,5.811707567356237,1003.5171983054939,1,2
21.82,8.756952,-7.329648,0.8124574999999999,1003.52094,5.82789112683708,1003.5171942414149,1,2
21.84,8.857348,-6.829159700000001,0.70830256,1003.49554,5.844503349170084,1003.5171126951255,1,2
21.86,8.513227,-6.6337314,0.23012987,1003.51605,5.860578910218972,1003.5170368151221,1,2
21.88,8.642302,-5.6375217000000015,0.85507315,1003.5361,5.8752052624851,1003.5170383950161,1,2
21.9,8.575409,-5.4849925000000015,1.6267833,1003.5263699999999,5.8884045899676165,1003.5170733847888,1,2
21.92,9.282842,-6.0093144999999994,0.9071558000000001,1003.5335699999999,5.9019304321039545,1003.5171636895664,1,2
21.94,10.750263,-5.5850916,0.121246666,1003.52356,5.917815718218683,1003.5172665095856,1,2
21.96,12.036052999999999,-4.665146400000001,0.5899548000000001,1003.52356,5.937405703173115,1003.5173800179199,1,2
21.98,13.039835,-1.7909130000000002,-0.6457225999999999,1003.5133,5.960730864978241,1003.5174656258197,1,2
22.0,11.185294,-5.1704025,-2.009229,1003.5081,5.98583240149863,1003.5175075527072,1,2
22.02,10.917647,-9.298242,-1.8009134999999998,1003.5184300000001,6.0165035791450805,1003.517547920115,1,2
22.04,12.84871,-11.338328,-0.5036844,1003.4985,6.0575773833293285,1003.517515016244,1,2
22.06,13.030366,-11.71012,0.86456066,1003.51807,6.108519906413272,1003.5174879403253,1,2
22.08,12.963471,-11.991347,1.1628302,1003.54114,6.168325297046707,1003.5175491634584,1,2
22.1,10.788681,-13.006625,-0.07758188,1003.5283,6.23408714266287,1003.5176419632303,1,2
22.12,7.6435933,-12.153411,-1.4505572,1003.5361,6.299744445307188,1003.517790410041,1,2
22.14,5.793832,-10.208657,-1.7014785,1003.53864,6.359732509675332,1003.5179966361667,1,2
22.16,4.971727400000002,-8.7596245,-1.062332,1003.50323,6.4108937082987305,1003.5181256976814,1,2
22.18,4.202202,-8.221003999999999,-0.87768805,1003.5284,6.452296920353116,1003.5182767239239,1,2
22.2,3.7624817000000004,-7.553686,-0.42791763,1003.5286,6.48321491652925,1003.5184473345058,1,2
22.22,3.4948354,-6.867303,0.20176028,1003.51605,6.5032154188993285,1003.5185894556116,1,2
22.24,3.2641122000000005,-8.092276,-1.1429291000000001,1003.51575,6.515767410590675,1003.5187048117807,1,2
22.26,3.4982949999999997,-10.0608635,-1.4411991000000002,1003.5109,6.525742490607567,1003.5187786431693,1,2
22.28,4.4590062999999995,-10.747247,0.088011086,1003.5007,6.535248529503512,1003.5187787974686,1,2
22.3,6.9110165,-9.984597,0.8265756,1003.5310699999999,6.545418487447277,1003.5188231821367,1,2
22.32,9.75975,-10.88071,0.56618065,1003.5057400000001,6.561243799113405,1003.5188153009739,1,2
22.34,11.28926,-13.078092,0.49516192,1003.51605,6.587530229911832,1003.5187983820946,1,2
22.36,11.576018,-12.668166000000001,1.2621328,1003.51825,6.622805813903588,1003.5187814583977,1,2
22.38,11.528191,-10.356385000000001,2.0243691999999998,1003.5335,6.662616576336763,1003.5188194913684,1,2
22.4,11.39911,-8.363964999999999,2.0811799,1003.5184300000001,6.703510813779629,1003.5188516951324,1,2
22.42,10.806384,-7.2009234,1.3710161,1003.54065,6.7426528309026805,1003.518958624276,1,2
22.44,10.271018,-6.5955699999999995,1.3047321000000005,1003.5210599999999,6.778480142616711,1003.51906067182,1,2
22.46,9.644836,-5.4229965,2.1001098,1003.5309,6.809143137218006,1003.5191934626113,1,2
22.48,9.295882,-4.464918,2.5072658,1003.5364,6.833782703970346,1003.5193727400888,1,2
22.5,9.291075,-4.8081093,1.569851,1003.52075,6.852939779642902,1003.5195361078039,1,2
22.52,10.634167999999999,-5.146534,-0.7216039000000001,1003.5155599999999,6.8697972419596525,1003.5196661455287,1,2
22.54,10.223075,-6.4049044,-2.3928514,1003.5082,6.885523743832522,1003.5197397687385,1,2
22.56,10.767944,-6.8386607,-1.2802688,1003.5081,6.901277874690843,1003.5197629190393,1,2
22.58,10.920869,-7.329614999999999,0.7460538000000001,1003.51807,6.917734555733005,1003.5197772801364,1,2
22.6,9.491683,-6.967356,0.1826573,1003.498,6.931847374838417,1003.5197115713933,1,2
22.62,8.793799,-7.186617,-1.3276206,1003.51074,6.9431283507152175,1003.5196212134911,1,2
22.64,8.726855,-9.241002,-2.369192,1003.5081,6.95497403556355,1003.5194998968798,1,2
22.66,8.602551,-12.382162,-1.2992195,1003.5106,6.9718564703502475,1003.5193606618933,1,2
22.68,9.8596115,-12.339263,0.7129,1003.54065,6.994536986043688,1003.5193142754766,1,2
22.7,8.999219,-10.427873,2.6540034,1003.5531599999999,7.018552727480687,1003.519395133047,1,2
22.72,7.254551400000001,-9.13137,0.71289396,1003.55084,7.038791233436749,1003.5195797803173,1,2
22.74,6.892262,-8.3020115,-0.27650726,1003.53815,7.053768532818522,1003.5198097874361,1,2
22.76,6.591145,-7.115139,-0.115536615,1003.5155599999999,7.061769094702142,1003.5199977224916,1,2
22.78,6.643732000000001,-7.410665499999999,0.7650636,1003.5231,7.0641634422504165,1003.5201749501056,1,2
22.8,6.304376599999999,-8.11135,1.6456636000000002,1003.5031,7.062472822385312,1003.5202700786048,1,2
22.82,5.9554599999999995,-8.468842500000001,2.1569803,1003.51807,7.0575348682983865,1003.5203462138637,1,2
22.84,4.937371700000001,-8.640438,2.2611382,1003.5055,7.048975823781074,1003.5203600406088,1,2
22.86,3.9957583,-8.716703,2.2658734000000003,1003.5157,7.0365157695330725,1003.5203554817745,1,2
22.88,4.105706700000002,-8.76437,1.0633355,1003.5257,7.020411785183639,1003.520370693854,1,2
22.9,4.693632,-10.041807,-0.32384405,1003.5131,7.00395753405239,1003.5203579607497,1,2
22.92,5.181182,-10.075173,-1.6447421000000002,1003.5081,6.987998734282033,1003.52030258112,1,2
22.94,7.0070770000000016,-9.994142,-2.9845777,1003.49554,6.974857472326943,1003.5201645023873,1,2
22.96,10.199997,-9.25056,-5.711594,1003.5081,6.969121131235172,1003.51999906381,1,2
22.98,10.697106,-8.201917,-6.4028160000000005,1003.4880400000001,6.9699805123529455,1003.5197378296538,1,2
23.0,10.35775,-9.727215,-4.0924252999999995,1003.5031,6.976381731486432,1003.5194471069664,1,2
23.02,9.903678999999999,-10.713892,-1.3085950000000002,1003.5406,6.987369508528433,1003.5192663748147,1,2
23.04,8.441069,-9.984611,1.5699241000000002,1003.51544,6.999293941811899,1003.5190929049363,1,2
23.06,6.8350634999999995,-8.783438,2.4789307000000003,1003.5079300000001,7.0083321053842695,1003.5188994404939,1,2
23.08,6.4909277,-8.649975,0.6987955,1003.49554,7.013612700237743,1003.5186444013267,1,2
23.1,7.6141925000000015,-7.777695,-1.6873436000000002,1003.5026,7.015922495402321,1003.5183612888741,1,2
23.12,9.516563,-6.581289,-2.1797206,1003.48755,7.0171781244294635,1003.5180002100708,1,2
23.14,11.156047000000001,-5.3324513,-1.3985431000000002,1003.5053,7.018889725121838,1003.5176354400841,1,2
23.16,11.978183999999999,-3.487794,-0.43745792,1003.5129,7.021080160071512,1003.5172960817392,1,2
23.18,11.132168,-3.4115292999999998,-0.47533226,1003.53796,7.0219597983044615,1003.5170706148116,1,2
23.2,10.869288000000001,-5.6851773,0.4668151,1003.51996,7.022971519173853,1003.5168817940213,1,2
23.22,10.3483,-8.516513,2.6209702,1003.5278,7.026966352012327,1003.516754257512,1,2
23.24,10.157668,-10.42315,3.222291,1003.52527,7.036181664415182,1003.5166722229255,1,2
23.26,9.450287,-14.579587,2.862479,1003.5577,7.055593041480954,1003.5167474371623,1,2
23.28,6.1187949999999995,-14.031433999999999,4.4295697,1003.5373,7.0804662262376485,1003.5168878856883,1,2
23.3,9.20658,-10.833075,6.6168675000000015,1003.5373,7.109547224962336,1003.5170854696173,1,2
23.32,12.093614,-9.436475,5.954054,1003.52496,7.143849035048639,1003.5172884030864,1,2
23.34,13.374629999999998,-10.165758,3.2933214,1003.5455300000001,7.184021987806943,1003.5175693848488,1,2
23.36,13.666231,-11.85312,1.3900933000000002,1003.53534,7.231367349715044,1003.5178816345483,1,2
23.38,12.538229,-12.830264999999999,2.0623817,1003.5278,7.284700770551407,1003.5181932444984,1,2
23.4,10.707593,-13.669181,4.372774,1003.5628,7.34281791202765,1003.5186291673702,1,2
23.42,8.929539,-13.249723999999999,4.9314365,1003.5657,7.40249120530393,1003.5191838038173,1,2
23.44,7.256636,-12.406044,3.8993392,1003.54755,7.4595221305681685,1003.5197759988879,1,2
23.46,5.421225499999999,-10.756816,2.857773,1003.5352,7.5087918275929475,1003.5203547888564,1,2
23.48,4.2167463,-9.226752000000001,1.1817968,1003.5403,7.546522729914013,1003.5209380104327,1,2
23.5,4.264574,-8.478404,1.1817993999999998,1003.5027,7.572572291554028,1003.52138768818,1,2
23.52,4.5800633,-8.1304455,0.5426569,1003.4974,7.587756820547888,1003.52169866776,1,2
23.54,4.9959474,-7.915951700000001,-1.2800851,1003.4825,7.5934947715820265,1003.521832334113,1,2
23.56,5.043775599999999,-8.273444,-1.2942857,1003.51025,7.591546698728684,1003.5219087452997,1,2
23.58,5.7703370000000005,-9.112359,-0.101212725,1003.5073,7.584914510032535,1003.5219236707412,1,2
23.6,5.6460940000000015,-8.178114,-2.222223,1003.5002,7.572914064804202,1003.5218586536464,1,2
23.62,5.7034835999999975,-7.9159546,-4.551547,1003.4998,7.557424873661188,1003.5217217933887,1,2
23.64,7.309528999999999,-9.436487,-5.948194,1003.4744,7.544250921789223,1003.5214305052084,1,2
23.66,8.862995,-10.356433,-7.306965400000001,1003.48474,7.5375967916601745,1003.5210410371536,1,2
23.68,9.03988,-12.653914,-4.849806299999999,1003.487,7.538439822956152,1003.5205743554468,1,2
23.7,11.047429,-11.400311,-3.0886047000000003,1003.5123,7.545660412790394,1003.5201322078112,1,2
23.72,11.879145,-9.331626,-4.0402173999999995,1003.55786,7.557377103623795,1003.519877346212,1,2
23.74,12.236499,-7.8205990000000005,-3.3917077000000004,1003.51025,7.571519487772656,1003.5196174920566,1,2
23.76,12.489815,-6.4049315,-2.0282,1003.49725,7.586235188691841,1003.5193073619536,1,2
23.78,11.643775999999999,-5.7900457,-1.6778555,1003.535,7.599179745211183,1003.5190898244913,1,2
23.8,10.195481,-5.956875,-1.9193116000000001,1003.51984,7.608125361019193,1003.5189003090217,1,2
23.82,9.626672,-5.732846299999999,-1.5642323,1003.5398,7.612154194490074,1003.51880809204,1,2
23.84,9.664896,-5.4611526,-0.5747431,1003.5346,7.611414421094482,1003.518783459984,1,2
23.86,9.894312,-5.8758426,0.25377646,1003.5145,7.6072834047294196,1003.5187462746433,1,2
23.88,10.195426,-6.995983,1.0207487,1003.5424,7.602034380491786,1003.5187985710872,1,2
23.9,10.573018,-8.464082000000001,1.3805623,1003.5173300000001,7.598324755239927,1003.5188394933693,1,2
23.92,10.157162,-9.894049,2.2232852000000003,1003.55206,7.597524715739088,1003.5189952461217,1,2
23.94,9.416277000000001,-10.437436,1.8918754,1003.5395,7.598947578749713,1003.5192066863676,1,2
23.96,8.603698,-10.732963,1.6882948,1003.5473599999999,7.601653892740227,1003.5194948668981,1,2
23.98,7.5951443,-10.094242999999999,1.3852917,1003.5545699999999,7.603092788163358,1003.5198757736937,1,2
24.0,7.7911024000000015,-9.922646499999999,0.736677,1003.5523699999999,7.603259322900834,1003.5203293221533,1,2
